acc_sum,block,block_c,change,condition,correct,correct_response,datetime,endtime,face,project,response,response_time,row_sel,session_number,start_end,starttime,subject_id,task,task_vers,trial
0,prac,1,,1-Back,,,Fri Apr 10 2026 14:19:57 GMT-0500 (Central Daylight Time),,097_m_f_n_a.png,I,space,3384,1,,,,8092,NNB,B,0
0,prac,1,0.0,1-Back,0.0,m,Fri Apr 10 2026 14:19:57 GMT-0500 (Central Daylight Time),95449.39999997616,152_y_f_n_a.png,I,None,2005,2,,2840.7999999523163,92608.60000002384,8092,NNB,B,1
1,prac,1,1.0,1-Back,1.0,z,Fri Apr 10 2026 14:19:57 GMT-0500 (Central Daylight Time),97581.89999997616,152_y_f_n_a.png,I,z,1345,3,,2125.2999999523163,95456.60000002384,8092,NNB,B,2
2,prac,1,0.0,1-Back,1.0,m,Fri Apr 10 2026 14:19:57 GMT-0500 (Central Daylight Time),99414.19999992847,176_o_m_n_a.png,I,m,971,4,,1822.6999999284744,97591.5,8092,NNB,B,3
3,prac,1,0.0,1-Back,1.0,m,Fri Apr 10 2026 14:19:57 GMT-0500 (Central Daylight Time),101015.29999995232,126_m_m_n_a.png,I,m,835,5,,1593.1000000238419,99422.19999992847,8092,NNB,B,4
4,prac,1,1.0,1-Back,1.0,z,Fri Apr 10 2026 14:19:57 GMT-0500 (Central Daylight Time),102762.10000002384,126_m_m_n_a.png,I,z,968,6,,1737.8000000715256,101024.29999995232,8092,NNB,B,5
5,prac,1,0.0,1-Back,1.0,m,Fri Apr 10 2026 14:19:57 GMT-0500 (Central Daylight Time),104480.29999995232,086_o_f_n_a.png,I,m,942,7,,1709.6999999284744,102770.60000002384,8092,NNB,B,6
6,prac,1,0.0,1-Back,1.0,m,Fri Apr 10 2026 14:19:57 GMT-0500 (Central Daylight Time),106313.69999992847,178_m_m_n_a.png,I,m,968,8,,1823.5999999046326,104490.10000002384,8092,NNB,B,7
7,prac,1,0.0,1-Back,1.0,m,Fri Apr 10 2026 14:19:57 GMT-0500 (Central Daylight Time),107911.10000002384,097_m_f_n_a.png,I,m,816,9,,1589.6000000238419,106321.5,8092,NNB,B,8
8,prac,1,1.0,1-Back,1.0,z,Fri Apr 10 2026 14:19:57 GMT-0500 (Central Daylight Time),109462.5,097_m_f_n_a.png,I,z,769,10,,1543.0,107919.5,8092,NNB,B,9
9,prac,1,0.0,1-Back,1.0,m,Fri Apr 10 2026 14:19:57 GMT-0500 (Central Daylight Time),111394.29999995232,176_o_m_n_a.png,I,m,1139,11,,1923.1999999284744,109471.10000002384,8092,NNB,B,10
10,prac,1,0.0,1-Back,1.0,m,Fri Apr 10 2026 14:19:57 GMT-0500 (Central Daylight Time),113278.10000002384,173_y_f_n_a.png,I,m,1024,12,,1874.4000000953674,111403.69999992847,8092,NNB,B,11
0,test,1,0.0,1-Back,,,Fri Apr 10 2026 14:19:57 GMT-0500 (Central Daylight Time),113278.10000002384,152_y_f_n_a.png,I,space,3822,1,,1874.4000000953674,111403.69999992847,8092,NNB,B,0
1,test,1,0.0,1-Back,1.0,m,Fri Apr 10 2026 14:19:57 GMT-0500 (Central Daylight Time),126556.19999992847,029_m_f_n_a.png,I,m,1040,2,,2057.899999976158,124498.29999995232,8092,NNB,B,1
2,test,1,0.0,1-Back,1.0,m,Fri Apr 10 2026 14:19:57 GMT-0500 (Central Daylight Time),128671.5,173_y_f_n_a.png,I,m,1094,3,,2107.899999976158,126563.60000002384,8092,NNB,B,2
3,test,1,1.0,1-Back,1.0,z,Fri Apr 10 2026 14:19:57 GMT-0500 (Central Daylight Time),130455.69999992847,173_y_f_n_a.png,I,z,752,4,,1778.0,128677.69999992847,8092,NNB,B,3
4,test,1,0.0,1-Back,1.0,m,Fri Apr 10 2026 14:19:57 GMT-0500 (Central Daylight Time),132587.39999997616,029_m_f_n_a.png,I,m,1116,5,,2124.7000000476837,130462.69999992847,8092,NNB,B,4
5,test,1,0.0,1-Back,1.0,m,Fri Apr 10 2026 14:19:57 GMT-0500 (Central Daylight Time),134253.69999992847,176_o_m_n_a.png,I,m,638,6,,1658.5999999046326,132595.10000002384,8092,NNB,B,5
6,test,1,1.0,1-Back,1.0,z,Fri Apr 10 2026 14:19:57 GMT-0500 (Central Daylight Time),135935.89999997616,176_o_m_n_a.png,I,z,660,7,,1675.2999999523163,134260.60000002384,8092,NNB,B,6
7,test,1,0.0,1-Back,1.0,m,Fri Apr 10 2026 14:19:57 GMT-0500 (Central Daylight Time),137802.69999992847,126_m_m_n_a.png,I,m,833,8,,1858.5999999046326,135944.10000002384,8092,NNB,B,7
8,test,1,0.0,1-Back,1.0,m,Fri Apr 10 2026 14:19:57 GMT-0500 (Central Daylight Time),139617.79999995232,086_o_f_n_a.png,I,m,791,9,,1805.3999999761581,137812.39999997616,8092,NNB,B,8
9,test,1,0.0,1-Back,1.0,m,Fri Apr 10 2026 14:19:57 GMT-0500 (Central Daylight Time),141633.79999995232,126_m_m_n_a.png,I,m,983,10,,2011.6000000238419,139622.19999992847,8092,NNB,B,9
10,test,1,0.0,1-Back,1.0,m,Fri Apr 10 2026 14:19:57 GMT-0500 (Central Daylight Time),144182.79999995232,153_y_m_n_a.png,I,m,1518,11,,2542.5,141640.29999995232,8092,NNB,B,10
11,test,1,1.0,1-Back,1.0,z,Fri Apr 10 2026 14:19:57 GMT-0500 (Central Daylight Time),145866.19999992847,153_y_m_n_a.png,I,z,651,12,,1678.5,144187.69999992847,8092,NNB,B,11
12,test,1,0.0,1-Back,1.0,m,Fri Apr 10 2026 14:19:57 GMT-0500 (Central Daylight Time),147648.60000002384,110_o_f_n_a.png,I,m,752,13,,1777.5,145871.10000002384,8092,NNB,B,12
13,test,1,1.0,1-Back,1.0,z,Fri Apr 10 2026 14:19:57 GMT-0500 (Central Daylight Time),149431.39999997616,110_o_f_n_a.png,I,z,751,14,,1775.2000000476837,147656.19999992847,8092,NNB,B,13
14,test,1,0.0,1-Back,1.0,m,Fri Apr 10 2026 14:19:57 GMT-0500 (Central Daylight Time),151230.69999992847,013_y_m_n_a.png,I,m,777,15,,1792.0,149438.69999992847,8092,NNB,B,14
15,test,1,0.0,1-Back,1.0,m,Fri Apr 10 2026 14:19:57 GMT-0500 (Central Daylight Time),153680.5,097_m_f_n_a.png,I,m,1426,16,,2447.2000000476837,151233.29999995232,8092,NNB,B,15
16,test,1,0.0,1-Back,1.0,m,Fri Apr 10 2026 14:19:57 GMT-0500 (Central Daylight Time),155330.0,065_o_m_n_a.png,I,m,630,17,,1641.2000000476837,153688.79999995232,8092,NNB,B,16
17,test,1,0.0,1-Back,1.0,m,Fri Apr 10 2026 14:19:57 GMT-0500 (Central Daylight Time),157314.69999992847,097_m_f_n_a.png,I,m,952,18,,1978.0,155336.69999992847,8092,NNB,B,17
0,test,2,0.0,1-Back,,,Fri Apr 10 2026 14:19:57 GMT-0500 (Central Daylight Time),157314.69999992847,126_m_m_n_a.png,I,space,1270,1,,1978.0,155336.69999992847,8092,NNB,B,0
1,test,2,0.0,1-Back,1.0,m,Fri Apr 10 2026 14:19:57 GMT-0500 (Central Daylight Time),162411.39999997616,029_m_f_n_a.png,I,m,773,2,,1791.0,160620.39999997616,8092,NNB,B,1
2,test,2,1.0,1-Back,1.0,z,Fri Apr 10 2026 14:19:57 GMT-0500 (Central Daylight Time),164295.60000002384,029_m_f_n_a.png,I,z,861,3,,1879.0,162416.60000002384,8092,NNB,B,2
3,test,2,0.0,1-Back,1.0,m,Fri Apr 10 2026 14:19:57 GMT-0500 (Central Daylight Time),166376.79999995232,126_m_m_n_a.png,I,m,1061,4,,2077.7999999523163,164299.0,8092,NNB,B,3
4,test,2,0.0,1-Back,1.0,m,Fri Apr 10 2026 14:19:57 GMT-0500 (Central Daylight Time),168290.60000002384,153_y_m_n_a.png,I,m,887,5,,1906.6000000238419,166384.0,8092,NNB,B,4
5,test,2,0.0,1-Back,1.0,m,Fri Apr 10 2026 14:19:57 GMT-0500 (Central Daylight Time),170142.10000002384,152_y_f_n_a.png,I,m,827,6,,1848.6000000238419,168293.5,8092,NNB,B,5
6,test,2,1.0,1-Back,1.0,z,Fri Apr 10 2026 14:19:57 GMT-0500 (Central Daylight Time),171859.69999992847,152_y_f_n_a.png,I,z,700,7,,1711.8999999761581,170147.79999995232,8092,NNB,B,6
7,test,2,0.0,1-Back,1.0,m,Fri Apr 10 2026 14:19:57 GMT-0500 (Central Daylight Time),173673.69999992847,153_y_m_n_a.png,I,m,785,8,,1810.6999999284744,171863.0,8092,NNB,B,7
8,test,2,0.0,1-Back,1.0,m,Fri Apr 10 2026 14:19:57 GMT-0500 (Central Daylight Time),175405.79999995232,110_o_f_n_a.png,I,m,703,9,,1724.7999999523163,173681.0,8092,NNB,B,8
9,test,2,0.0,1-Back,1.0,m,Fri Apr 10 2026 14:19:57 GMT-0500 (Central Daylight Time),177123.29999995232,178_m_m_n_a.png,I,m,699,10,,1709.1999999284744,175414.10000002384,8092,NNB,B,9
10,test,2,1.0,1-Back,1.0,z,Fri Apr 10 2026 14:19:57 GMT-0500 (Central Daylight Time),178823.29999995232,178_m_m_n_a.png,I,z,678,11,,1691.0,177132.29999995232,8092,NNB,B,10
11,test,2,0.0,1-Back,1.0,m,Fri Apr 10 2026 14:19:57 GMT-0500 (Central Daylight Time),180507.39999997616,110_o_f_n_a.png,I,m,650,12,,1678.1000000238419,178829.29999995232,8092,NNB,B,11
12,test,2,0.0,1-Back,1.0,m,Fri Apr 10 2026 14:19:57 GMT-0500 (Central Daylight Time),182321.89999997616,086_o_f_n_a.png,I,m,785,13,,1806.1000000238419,180515.79999995232,8092,NNB,B,12
13,test,2,0.0,1-Back,1.0,m,Fri Apr 10 2026 14:19:57 GMT-0500 (Central Daylight Time),184152.5,176_o_m_n_a.png,I,m,807,14,,1822.3999999761581,182330.10000002384,8092,NNB,B,13
14,test,2,0.0,1-Back,1.0,m,Fri Apr 10 2026 14:19:57 GMT-0500 (Central Daylight Time),185787.10000002384,065_o_m_n_a.png,I,m,626,15,,1632.0,184155.10000002384,8092,NNB,B,14
15,test,2,1.0,1-Back,1.0,z,Fri Apr 10 2026 14:19:57 GMT-0500 (Central Daylight Time),187469.69999992847,065_o_m_n_a.png,I,z,655,16,,1678.5,185791.19999992847,8092,NNB,B,15
16,test,2,0.0,1-Back,1.0,m,Fri Apr 10 2026 14:19:57 GMT-0500 (Central Daylight Time),189235.5,013_y_m_n_a.png,I,m,739,17,,1759.7000000476837,187475.79999995232,8092,NNB,B,16
17,test,2,1.0,1-Back,1.0,z,Fri Apr 10 2026 14:19:57 GMT-0500 (Central Daylight Time),190917.89999997616,013_y_m_n_a.png,I,z,661,18,,1675.2000000476837,189242.69999992847,8092,NNB,B,17
0,test,3,1.0,1-Back,,,Fri Apr 10 2026 14:19:57 GMT-0500 (Central Daylight Time),190917.89999997616,173_y_f_n_a.png,I,space,1267,1,,1675.2000000476837,189242.69999992847,8092,NNB,B,0
1,test,3,0.0,1-Back,1.0,m,Fri Apr 10 2026 14:19:57 GMT-0500 (Central Daylight Time),196000.79999995232,065_o_m_n_a.png,I,m,700,1,,1728.1000000238419,194272.69999992847,8092,NNB,B,1
2,test,3,1.0,1-Back,1.0,z,Fri Apr 10 2026 14:19:57 GMT-0500 (Central Daylight Time),197749.89999997616,065_o_m_n_a.png,I,z,721,1,,1743.2999999523163,196006.60000002384,8092,NNB,B,2
3,test,3,0.0,1-Back,1.0,m,Fri Apr 10 2026 14:19:57 GMT-0500 (Central Daylight Time),199549.19999992847,097_m_f_n_a.png,I,m,767,1,,1792.0999999046326,197757.10000002384,8092,NNB,B,3
3,test,3,1.0,1-Back,0.0,z,Fri Apr 10 2026 14:19:57 GMT-0500 (Central Daylight Time),201397.19999992847,097_m_f_n_a.png,I,m,819,1,,1841.0999999046326,199556.10000002384,8092,NNB,B,4
4,test,3,0.0,1-Back,1.0,m,Fri Apr 10 2026 14:19:57 GMT-0500 (Central Daylight Time),203081.5,110_o_f_n_a.png,I,m,666,1,,1676.8999999761581,201404.60000002384,8092,NNB,B,5
5,test,3,0.0,1-Back,1.0,m,Fri Apr 10 2026 14:19:57 GMT-0500 (Central Daylight Time),204897.19999992847,153_y_m_n_a.png,I,m,782,1,,1809.8999999761581,203087.29999995232,8092,NNB,B,6
5,test,3,0.0,1-Back,0.0,m,Fri Apr 10 2026 14:19:57 GMT-0500 (Central Daylight Time),206663.89999997616,110_o_f_n_a.png,I,z,735,1,,1761.5,204902.39999997616,8092,NNB,B,7
6,test,3,0.0,1-Back,1.0,m,Fri Apr 10 2026 14:19:57 GMT-0500 (Central Daylight Time),208313.60000002384,013_y_m_n_a.png,I,m,618,1,,1643.3000000715256,206670.29999995232,8092,NNB,B,8
7,test,3,1.0,1-Back,1.0,z,Fri Apr 10 2026 14:19:57 GMT-0500 (Central Daylight Time),210062.19999992847,013_y_m_n_a.png,I,z,729,1,,1741.7999999523163,208320.39999997616,8092,NNB,B,9
8,test,3,0.0,1-Back,1.0,m,Fri Apr 10 2026 14:19:57 GMT-0500 (Central Daylight Time),211946.5,029_m_f_n_a.png,I,m,853,1,,1877.3999999761581,210069.10000002384,8092,NNB,B,10
9,test,3,0.0,1-Back,1.0,m,Fri Apr 10 2026 14:19:57 GMT-0500 (Central Daylight Time),213594.0,152_y_f_n_a.png,I,m,624,1,,1642.8999999761581,211951.10000002384,8092,NNB,B,11
10,test,3,1.0,1-Back,1.0,z,Fri Apr 10 2026 14:19:57 GMT-0500 (Central Daylight Time),215543.69999992847,152_y_f_n_a.png,I,z,926,1,,1942.6999999284744,213601.0,8092,NNB,B,12
11,test,3,0.0,1-Back,1.0,m,Fri Apr 10 2026 14:19:57 GMT-0500 (Central Daylight Time),217277.29999995232,029_m_f_n_a.png,I,m,717,1,,1727.5,215549.79999995232,8092,NNB,B,13
12,test,3,0.0,1-Back,1.0,m,Fri Apr 10 2026 14:19:57 GMT-0500 (Central Daylight Time),219210.39999997616,126_m_m_n_a.png,I,m,916,1,,1926.5,217283.89999997616,8092,NNB,B,14
13,test,3,1.0,1-Back,1.0,z,Fri Apr 10 2026 14:19:57 GMT-0500 (Central Daylight Time),221026.60000002384,126_m_m_n_a.png,I,z,800,1,,1810.5,219216.10000002384,8092,NNB,B,15
14,test,3,0.0,1-Back,1.0,m,Fri Apr 10 2026 14:19:57 GMT-0500 (Central Daylight Time),222790.89999997616,086_o_f_n_a.png,I,m,733,1,,1758.7000000476837,221032.19999992847,8092,NNB,B,16
15,test,3,1.0,1-Back,1.0,z,Fri Apr 10 2026 14:19:57 GMT-0500 (Central Daylight Time),224508.5,086_o_f_n_a.png,I,z,691,1,,1709.8000000715256,222798.69999992847,8092,NNB,B,17
0,test,4,1.0,1-Back,,,Fri Apr 10 2026 14:19:57 GMT-0500 (Central Daylight Time),224508.5,097_m_f_n_a.png,I,space,925,1,,1709.8000000715256,222798.69999992847,8092,NNB,B,0
1,test,4,0.0,1-Back,1.0,m,Fri Apr 10 2026 14:19:57 GMT-0500 (Central Daylight Time),229240.89999997616,065_o_m_n_a.png,I,m,685,2,,1708.6000000238419,227532.29999995232,8092,NNB,B,1
2,test,4,0.0,1-Back,1.0,m,Fri Apr 10 2026 14:19:57 GMT-0500 (Central Daylight Time),231122.29999995232,097_m_f_n_a.png,I,m,865,3,,1873.0,229249.29999995232,8092,NNB,B,2
3,test,4,0.0,1-Back,1.0,m,Fri Apr 10 2026 14:19:57 GMT-0500 (Central Daylight Time),232888.10000002384,110_o_f_n_a.png,I,m,743,4,,1761.9000000953674,231126.19999992847,8092,NNB,B,3
4,test,4,1.0,1-Back,1.0,z,Fri Apr 10 2026 14:19:57 GMT-0500 (Central Daylight Time),234506.0,110_o_f_n_a.png,I,z,593,5,,1609.5,232896.5,8092,NNB,B,4
5,test,4,0.0,1-Back,1.0,m,Fri Apr 10 2026 14:19:57 GMT-0500 (Central Daylight Time),236320.89999997616,152_y_f_n_a.png,I,m,792,6,,1809.8999999761581,234511.0,8092,NNB,B,5
6,test,4,0.0,1-Back,1.0,m,Fri Apr 10 2026 14:19:57 GMT-0500 (Central Daylight Time),238170.29999995232,153_y_m_n_a.png,I,m,824,7,,1841.2999999523163,236329.0,8092,NNB,B,6
7,test,4,1.0,1-Back,1.0,z,Fri Apr 10 2026 14:19:57 GMT-0500 (Central Daylight Time),239870.29999995232,153_y_m_n_a.png,I,z,670,8,,1693.1999999284744,238177.10000002384,8092,NNB,B,7
8,test,4,0.0,1-Back,1.0,m,Fri Apr 10 2026 14:19:57 GMT-0500 (Central Daylight Time),241702.5,152_y_f_n_a.png,I,m,811,9,,1824.2000000476837,239878.29999995232,8092,NNB,B,8
9,test,4,0.0,1-Back,1.0,m,Fri Apr 10 2026 14:19:57 GMT-0500 (Central Daylight Time),243668.89999997616,178_m_m_n_a.png,I,m,934,10,,1960.7999999523163,241708.10000002384,8092,NNB,B,9
10,test,4,1.0,1-Back,1.0,z,Fri Apr 10 2026 14:19:57 GMT-0500 (Central Daylight Time),245351.89999997616,178_m_m_n_a.png,I,z,662,11,,1676.1000000238419,243675.79999995232,8092,NNB,B,10
11,test,4,0.0,1-Back,1.0,m,Fri Apr 10 2026 14:19:57 GMT-0500 (Central Daylight Time),247183.29999995232,086_o_f_n_a.png,I,m,810,12,,1825.0,245358.29999995232,8092,NNB,B,11
12,test,4,0.0,1-Back,1.0,m,Fri Apr 10 2026 14:19:57 GMT-0500 (Central Daylight Time),249233.69999992847,176_o_m_n_a.png,I,m,1017,13,,2044.5,247189.19999992847,8092,NNB,B,12
13,test,4,0.0,1-Back,1.0,m,Fri Apr 10 2026 14:19:57 GMT-0500 (Central Daylight Time),251051.39999997616,086_o_f_n_a.png,I,m,801,14,,1809.1000000238419,249242.29999995232,8092,NNB,B,13
14,test,4,0.0,1-Back,1.0,m,Fri Apr 10 2026 14:19:57 GMT-0500 (Central Daylight Time),253032.29999995232,173_y_f_n_a.png,I,m,951,15,,1972.6999999284744,251059.60000002384,8092,NNB,B,14
15,test,4,1.0,1-Back,1.0,z,Fri Apr 10 2026 14:19:57 GMT-0500 (Central Daylight Time),254732.69999992847,173_y_f_n_a.png,I,z,670,16,,1692.6999999284744,253040.0,8092,NNB,B,15
16,test,4,0.0,1-Back,1.0,m,Fri Apr 10 2026 14:19:57 GMT-0500 (Central Daylight Time),256582.0,029_m_f_n_a.png,I,m,821,17,,1842.0,254740.0,8092,NNB,B,16
17,test,4,1.0,1-Back,1.0,z,Fri Apr 10 2026 14:19:57 GMT-0500 (Central Daylight Time),258281.29999995232,029_m_f_n_a.png,I,z,678,18,,1695.0,256586.29999995232,8092,NNB,B,17
0,test,5,1.0,1-Back,,,Fri Apr 10 2026 14:19:57 GMT-0500 (Central Daylight Time),258281.29999995232,176_o_m_n_a.png,I,space,1072,1,,1695.0,256586.29999995232,8092,NNB,B,0
0,test,5,1.0,1-Back,0.0,z,Fri Apr 10 2026 14:19:57 GMT-0500 (Central Daylight Time),262995.0,176_o_m_n_a.png,I,m,582,2,,1608.6000000238419,261386.39999997616,8092,NNB,B,1
1,test,5,0.0,1-Back,1.0,m,Fri Apr 10 2026 14:19:57 GMT-0500 (Central Daylight Time),264778.2999999523,152_y_f_n_a.png,I,m,750,3,,1774.7999999523163,263003.5,8092,NNB,B,2
2,test,5,0.0,1-Back,1.0,m,Fri Apr 10 2026 14:19:57 GMT-0500 (Central Daylight Time),266445.10000002384,153_y_m_n_a.png,I,m,641,4,,1658.2000000476837,264786.89999997616,8092,NNB,B,3
2,test,5,0.0,1-Back,0.0,m,Fri Apr 10 2026 14:19:57 GMT-0500 (Central Daylight Time),268243.5,152_y_f_n_a.png,I,z,770,5,,1791.2000000476837,266452.2999999523,8092,NNB,B,4
3,test,5,0.0,1-Back,1.0,m,Fri Apr 10 2026 14:19:57 GMT-0500 (Central Daylight Time),270109.6999999285,126_m_m_n_a.png,I,m,837,6,,1862.1999999284744,268247.5,8092,NNB,B,5
4,test,5,1.0,1-Back,1.0,z,Fri Apr 10 2026 14:19:57 GMT-0500 (Central Daylight Time),271893.2999999523,126_m_m_n_a.png,I,z,767,7,,1776.2999999523163,270117.0,8092,NNB,B,6
5,test,5,0.0,1-Back,1.0,m,Fri Apr 10 2026 14:19:57 GMT-0500 (Central Daylight Time),273758.39999997616,173_y_f_n_a.png,I,m,835,8,,1857.6000000238419,271900.7999999523,8092,NNB,B,7
6,test,5,0.0,1-Back,1.0,m,Fri Apr 10 2026 14:19:57 GMT-0500 (Central Daylight Time),275778.10000002384,013_y_m_n_a.png,I,m,1002,9,,2013.2000000476837,273764.89999997616,8092,NNB,B,8
7,test,5,0.0,1-Back,1.0,m,Fri Apr 10 2026 14:19:57 GMT-0500 (Central Daylight Time),277857.60000002384,173_y_f_n_a.png,I,m,1051,10,,2072.5,275785.10000002384,8092,NNB,B,9
8,test,5,0.0,1-Back,1.0,m,Fri Apr 10 2026 14:19:57 GMT-0500 (Central Daylight Time),279689.7999999523,086_o_f_n_a.png,I,m,809,11,,1825.8999999761581,277863.89999997616,8092,NNB,B,10
9,test,5,1.0,1-Back,1.0,z,Fri Apr 10 2026 14:19:57 GMT-0500 (Central Daylight Time),281422.10000002384,086_o_f_n_a.png,I,z,701,12,,1726.3000000715256,279695.7999999523,8092,NNB,B,11
10,test,5,0.0,1-Back,1.0,m,Fri Apr 10 2026 14:19:57 GMT-0500 (Central Daylight Time),283221.7999999523,065_o_m_n_a.png,I,m,769,13,,1792.8999999761581,281428.89999997616,8092,NNB,B,12
11,test,5,0.0,1-Back,1.0,m,Fri Apr 10 2026 14:19:57 GMT-0500 (Central Daylight Time),284856.2999999523,097_m_f_n_a.png,I,m,611,14,,1628.3999999761581,283227.89999997616,8092,NNB,B,13
12,test,5,1.0,1-Back,1.0,z,Fri Apr 10 2026 14:19:57 GMT-0500 (Central Daylight Time),286637.5,097_m_f_n_a.png,I,z,753,15,,1775.3999999761581,284862.10000002384,8092,NNB,B,14
13,test,5,0.0,1-Back,1.0,m,Fri Apr 10 2026 14:19:57 GMT-0500 (Central Daylight Time),288454.2999999523,065_o_m_n_a.png,I,m,787,16,,1810.3999999761581,286643.89999997616,8092,NNB,B,15
14,test,5,0.0,1-Back,1.0,m,Fri Apr 10 2026 14:19:57 GMT-0500 (Central Daylight Time),290154.2999999523,029_m_f_n_a.png,I,m,684,17,,1694.1000000238419,288460.1999999285,8092,NNB,B,16
15,test,5,0.0,1-Back,1.0,m,Fri Apr 10 2026 14:19:57 GMT-0500 (Central Daylight Time),291836.7999999523,178_m_m_n_a.png,I,m,655,18,,1675.8999999761581,290160.89999997616,8092,NNB,B,17
0,prac,1,0.0,2-Back,,,Fri Apr 10 2026 14:19:57 GMT-0500 (Central Daylight Time),291836.7999999523,013_y_m_n_a.png,I,space,2222,1,,1675.8999999761581,290160.89999997616,8092,NNB,B,0
0,prac,1,0.0,2-Back,,,Fri Apr 10 2026 14:19:57 GMT-0500 (Central Daylight Time),291836.7999999523,029_m_f_n_a.png,I,space,2222,2,,1675.8999999761581,290160.89999997616,8092,NNB,B,0
1,prac,1,1.0,2-Back,1.0,m,Fri Apr 10 2026 14:19:57 GMT-0500 (Central Daylight Time),366296.7999999523,065_o_m_n_a.png,I,m,1665,3,,2522.5,363774.2999999523,8092,NNB,B,1
1,prac,1,0.0,2-Back,0.0,m,Fri Apr 10 2026 14:19:57 GMT-0500 (Central Daylight Time),369179.10000002384,086_o_f_n_a.png,I,None,2012,4,,2876.100000023842,366303.0,8092,NNB,B,2
2,prac,1,0.0,2-Back,1.0,z,Fri Apr 10 2026 14:19:57 GMT-0500 (Central Daylight Time),371444.0,065_o_m_n_a.png,I,z,1479,5,,2258.2000000476837,369185.7999999523,8092,NNB,B,3
3,prac,1,1.0,2-Back,1.0,z,Fri Apr 10 2026 14:19:57 GMT-0500 (Central Daylight Time),373426.60000002384,086_o_f_n_a.png,I,z,1212,6,,1973.7000000476837,371452.89999997616,8092,NNB,B,4
4,prac,1,0.0,2-Back,1.0,m,Fri Apr 10 2026 14:19:57 GMT-0500 (Central Daylight Time),375310.39999997616,178_m_m_n_a.png,I,m,1020,7,,1873.6000000238419,373436.7999999523,8092,NNB,B,5
5,prac,1,0.0,2-Back,1.0,m,Fri Apr 10 2026 14:19:57 GMT-0500 (Central Daylight Time),377242.89999997616,176_o_m_n_a.png,I,m,1063,8,,1923.1000000238419,375319.7999999523,8092,NNB,B,6
6,prac,1,0.0,2-Back,1.0,m,Fri Apr 10 2026 14:19:57 GMT-0500 (Central Daylight Time),379008.0,173_y_f_n_a.png,I,m,912,9,,1755.3000000715256,377252.6999999285,8092,NNB,B,7
7,prac,1,1.0,2-Back,1.0,z,Fri Apr 10 2026 14:19:57 GMT-0500 (Central Daylight Time),380574.5,176_o_m_n_a.png,I,z,785,10,,1557.3999999761581,379017.10000002384,8092,NNB,B,8
8,prac,1,0.0,2-Back,1.0,m,Fri Apr 10 2026 14:19:57 GMT-0500 (Central Daylight Time),382773.7999999523,152_y_f_n_a.png,I,m,1333,11,,2185.0,380588.7999999523,8092,NNB,B,9
8,prac,1,0.0,2-Back,0.0,m,Fri Apr 10 2026 14:19:57 GMT-0500 (Central Daylight Time),384573.89999997616,178_m_m_n_a.png,I,z,1016,12,,1788.6000000238419,382785.2999999523,8092,NNB,B,10
0,test,1,0.0,2-Back,,,Fri Apr 10 2026 14:19:57 GMT-0500 (Central Daylight Time),384573.89999997616,153_y_m_n_a.png,I,space,1733,1,,1788.6000000238419,382785.2999999523,8092,NNB,B,0
0,test,1,0.0,2-Back,,,Fri Apr 10 2026 14:19:57 GMT-0500 (Central Daylight Time),384573.89999997616,153_y_m_n_a.png,I,space,1733,2,,1788.6000000238419,382785.2999999523,8092,NNB,B,0
1,test,1,0.0,2-Back,1.0,m,Fri Apr 10 2026 14:19:57 GMT-0500 (Central Daylight Time),399002.60000002384,086_o_f_n_a.png,I,m,907,3,,1924.2000000476837,397078.39999997616,8092,NNB,B,1
2,test,1,0.0,2-Back,1.0,m,Fri Apr 10 2026 14:19:57 GMT-0500 (Central Daylight Time),400934.6999999285,126_m_m_n_a.png,I,m,902,4,,1926.0,399008.6999999285,8092,NNB,B,2
3,test,1,1.0,2-Back,1.0,z,Fri Apr 10 2026 14:19:57 GMT-0500 (Central Daylight Time),402449.39999997616,086_o_f_n_a.png,I,z,497,5,,1506.5,400942.89999997616,8092,NNB,B,3
4,test,1,0.0,2-Back,1.0,m,Fri Apr 10 2026 14:19:57 GMT-0500 (Central Daylight Time),404301.39999997616,152_y_f_n_a.png,I,m,831,6,,1849.5,402451.89999997616,8092,NNB,B,4
4,test,1,0.0,2-Back,0.0,m,Fri Apr 10 2026 14:19:57 GMT-0500 (Central Daylight Time),406133.39999997616,126_m_m_n_a.png,I,z,804,7,,1824.5,404308.89999997616,8092,NNB,B,5
5,test,1,1.0,2-Back,1.0,z,Fri Apr 10 2026 14:19:57 GMT-0500 (Central Daylight Time),407999.6999999285,152_y_f_n_a.png,I,z,835,8,,1858.2999999523163,406141.39999997616,8092,NNB,B,6
6,test,1,0.0,2-Back,1.0,m,Fri Apr 10 2026 14:19:57 GMT-0500 (Central Daylight Time),409900.5,013_y_m_n_a.png,I,m,874,9,,1894.3999999761581,408006.10000002384,8092,NNB,B,7
7,test,1,0.0,2-Back,1.0,m,Fri Apr 10 2026 14:19:57 GMT-0500 (Central Daylight Time),411683.2999999523,110_o_f_n_a.png,I,m,767,10,,1778.5,409904.7999999523,8092,NNB,B,8
8,test,1,1.0,2-Back,1.0,z,Fri Apr 10 2026 14:19:57 GMT-0500 (Central Daylight Time),413364.0,013_y_m_n_a.png,I,z,665,11,,1674.0,411690.0,8092,NNB,B,9
8,test,1,0.0,2-Back,0.0,m,Fri Apr 10 2026 14:19:57 GMT-0500 (Central Daylight Time),415297.89999997616,029_m_f_n_a.png,I,z,909,12,,1928.2999999523163,413369.60000002384,8092,NNB,B,10
8,test,1,0.0,2-Back,0.0,m,Fri Apr 10 2026 14:19:57 GMT-0500 (Central Daylight Time),417196.7999999523,029_m_f_n_a.png,I,z,880,13,,1892.8999999761581,415303.89999997616,8092,NNB,B,11
9,test,1,0.0,2-Back,1.0,m,Fri Apr 10 2026 14:19:57 GMT-0500 (Central Daylight Time),419113.10000002384,065_o_m_n_a.png,I,m,884,14,,1908.8000000715256,417204.2999999523,8092,NNB,B,12
10,test,1,0.0,2-Back,1.0,m,Fri Apr 10 2026 14:19:57 GMT-0500 (Central Daylight Time),421245.39999997616,110_o_f_n_a.png,I,m,1113,15,,2124.7999999523163,419120.60000002384,8092,NNB,B,13
11,test,1,1.0,2-Back,1.0,z,Fri Apr 10 2026 14:19:57 GMT-0500 (Central Daylight Time),423110.6999999285,065_o_m_n_a.png,I,z,841,16,,1857.6999999284744,421253.0,8092,NNB,B,14
12,test,1,0.0,2-Back,1.0,m,Fri Apr 10 2026 14:19:57 GMT-0500 (Central Daylight Time),425094.0,097_m_f_n_a.png,I,m,954,17,,1980.6000000238419,423113.39999997616,8092,NNB,B,15
13,test,1,0.0,2-Back,1.0,m,Fri Apr 10 2026 14:19:57 GMT-0500 (Central Daylight Time),427027.89999997616,178_m_m_n_a.png,I,m,916,18,,1927.2000000476837,425100.6999999285,8092,NNB,B,16
0,test,2,0.0,2-Back,,,Fri Apr 10 2026 14:19:57 GMT-0500 (Central Daylight Time),427027.89999997616,178_m_m_n_a.png,I,space,1101,1,,1927.2000000476837,425100.6999999285,8092,NNB,B,0
0,test,2,0.0,2-Back,,,Fri Apr 10 2026 14:19:57 GMT-0500 (Central Daylight Time),427027.89999997616,173_y_f_n_a.png,I,space,1101,2,,1927.2000000476837,425100.6999999285,8092,NNB,B,0
1,test,2,1.0,2-Back,1.0,z,Fri Apr 10 2026 14:19:57 GMT-0500 (Central Daylight Time),435290.6999999285,178_m_m_n_a.png,I,z,1006,3,,2024.5999999046326,433266.10000002384,8092,NNB,B,1
2,test,2,0.0,2-Back,1.0,m,Fri Apr 10 2026 14:19:57 GMT-0500 (Central Daylight Time),437173.0,097_m_f_n_a.png,I,m,854,4,,1876.6000000238419,435296.39999997616,8092,NNB,B,2
2,test,2,0.0,2-Back,0.0,m,Fri Apr 10 2026 14:19:57 GMT-0500 (Central Daylight Time),439123.89999997616,173_y_f_n_a.png,I,z,934,5,,1944.8999999761581,437179.0,8092,NNB,B,3
3,test,2,0.0,2-Back,1.0,m,Fri Apr 10 2026 14:19:57 GMT-0500 (Central Daylight Time),440889.39999997616,065_o_m_n_a.png,I,m,733,6,,1760.1000000238419,439129.2999999523,8092,NNB,B,4
4,test,2,0.0,2-Back,1.0,m,Fri Apr 10 2026 14:19:57 GMT-0500 (Central Daylight Time),442704.1999999285,152_y_f_n_a.png,I,m,794,7,,1810.5,440893.6999999285,8092,NNB,B,5
5,test,2,1.0,2-Back,1.0,z,Fri Apr 10 2026 14:19:57 GMT-0500 (Central Daylight Time),444486.1999999285,065_o_m_n_a.png,I,z,759,8,,1776.0,442710.1999999285,8092,NNB,B,6
6,test,2,0.0,2-Back,1.0,m,Fri Apr 10 2026 14:19:57 GMT-0500 (Central Daylight Time),446570.89999997616,013_y_m_n_a.png,I,m,1059,9,,2082.100000023842,444488.7999999523,8092,NNB,B,7
7,test,2,0.0,2-Back,1.0,m,Fri Apr 10 2026 14:19:57 GMT-0500 (Central Daylight Time),449036.10000002384,013_y_m_n_a.png,I,m,1440,10,,2459.600000023842,446576.5,8092,NNB,B,8
8,test,2,0.0,2-Back,1.0,m,Fri Apr 10 2026 14:19:57 GMT-0500 (Central Daylight Time),451403.60000002384,029_m_f_n_a.png,I,m,1350,11,,2360.600000023842,449043.0,8092,NNB,B,9
9,test,2,0.0,2-Back,1.0,m,Fri Apr 10 2026 14:19:57 GMT-0500 (Central Daylight Time),453534.0,173_y_f_n_a.png,I,m,1111,12,,2124.100000023842,451409.89999997616,8092,NNB,B,10
10,test,2,1.0,2-Back,1.0,z,Fri Apr 10 2026 14:19:57 GMT-0500 (Central Daylight Time),455350.6999999285,029_m_f_n_a.png,I,z,786,13,,1810.0999999046326,453540.60000002384,8092,NNB,B,11
11,test,2,0.0,2-Back,1.0,m,Fri Apr 10 2026 14:19:57 GMT-0500 (Central Daylight Time),457218.2999999523,176_o_m_n_a.png,I,m,835,14,,1861.6000000238419,455356.6999999285,8092,NNB,B,12
12,test,2,0.0,2-Back,1.0,m,Fri Apr 10 2026 14:19:57 GMT-0500 (Central Daylight Time),459650.1999999285,176_o_m_n_a.png,I,m,1400,15,,2425.6999999284744,457224.5,8092,NNB,B,13
13,test,2,0.0,2-Back,1.0,m,Fri Apr 10 2026 14:19:57 GMT-0500 (Central Daylight Time),461582.0,110_o_f_n_a.png,I,m,903,16,,1925.0,459657.0,8092,NNB,B,14
14,test,2,0.0,2-Back,1.0,m,Fri Apr 10 2026 14:19:57 GMT-0500 (Central Daylight Time),463547.6999999285,126_m_m_n_a.png,I,m,938,17,,1958.5,461589.1999999285,8092,NNB,B,15
15,test,2,1.0,2-Back,1.0,z,Fri Apr 10 2026 14:19:57 GMT-0500 (Central Daylight Time),465314.39999997616,110_o_f_n_a.png,I,z,741,18,,1760.2000000476837,463554.1999999285,8092,NNB,B,16
0,test,3,1.0,2-Back,,,Fri Apr 10 2026 14:19:57 GMT-0500 (Central Daylight Time),465314.39999997616,153_y_m_n_a.png,I,space,1392,1,,1760.2000000476837,463554.1999999285,8092,NNB,B,0
0,test,3,1.0,2-Back,,,Fri Apr 10 2026 14:19:57 GMT-0500 (Central Daylight Time),465314.39999997616,153_y_m_n_a.png,I,space,1392,2,,1760.2000000476837,463554.1999999285,8092,NNB,B,0
1,test,3,0.0,2-Back,1.0,m,Fri Apr 10 2026 14:19:57 GMT-0500 (Central Daylight Time),473895.2999999523,110_o_f_n_a.png,I,m,1044,3,,2060.2999999523163,471835.0,8092,NNB,B,1
2,test,3,0.0,2-Back,1.0,m,Fri Apr 10 2026 14:19:57 GMT-0500 (Central Daylight Time),475727.7999999523,178_m_m_n_a.png,I,m,810,4,,1825.6000000238419,473902.1999999285,8092,NNB,B,2
3,test,3,1.0,2-Back,1.0,z,Fri Apr 10 2026 14:19:57 GMT-0500 (Central Daylight Time),477611.60000002384,110_o_f_n_a.png,I,z,851,5,,1877.5,475734.10000002384,8092,NNB,B,3
4,test,3,0.0,2-Back,1.0,m,Fri Apr 10 2026 14:19:57 GMT-0500 (Central Daylight Time),479493.2999999523,013_y_m_n_a.png,I,m,855,6,,1875.3999999761581,477617.89999997616,8092,NNB,B,4
4,test,3,0.0,2-Back,0.0,m,Fri Apr 10 2026 14:19:57 GMT-0500 (Central Daylight Time),481292.6999999285,178_m_m_n_a.png,I,z,772,7,,1791.5999999046326,479501.10000002384,8092,NNB,B,5
5,test,3,1.0,2-Back,1.0,z,Fri Apr 10 2026 14:19:57 GMT-0500 (Central Daylight Time),483158.1999999285,013_y_m_n_a.png,I,z,843,8,,1858.8999999761581,481299.2999999523,8092,NNB,B,6
6,test,3,0.0,2-Back,1.0,m,Fri Apr 10 2026 14:19:57 GMT-0500 (Central Daylight Time),485174.0,173_y_f_n_a.png,I,m,995,9,,2010.8000000715256,483163.1999999285,8092,NNB,B,7
7,test,3,0.0,2-Back,1.0,m,Fri Apr 10 2026 14:19:57 GMT-0500 (Central Daylight Time),487023.39999997616,126_m_m_n_a.png,I,m,819,10,,1841.7999999523163,485181.60000002384,8092,NNB,B,8
8,test,3,1.0,2-Back,1.0,z,Fri Apr 10 2026 14:19:57 GMT-0500 (Central Daylight Time),488806.2999999523,173_y_f_n_a.png,I,z,753,11,,1777.8999999761581,487028.39999997616,8092,NNB,B,9
9,test,3,1.0,2-Back,1.0,z,Fri Apr 10 2026 14:19:57 GMT-0500 (Central Daylight Time),490789.5,126_m_m_n_a.png,I,z,962,12,,1974.8999999761581,488814.60000002384,8092,NNB,B,10
10,test,3,0.0,2-Back,1.0,m,Fri Apr 10 2026 14:19:57 GMT-0500 (Central Daylight Time),492639.6999999285,110_o_f_n_a.png,I,m,826,13,,1842.2999999523163,490797.39999997616,8092,NNB,B,11
11,test,3,0.0,2-Back,1.0,m,Fri Apr 10 2026 14:19:57 GMT-0500 (Central Daylight Time),494471.89999997616,097_m_f_n_a.png,I,m,810,14,,1825.1000000238419,492646.7999999523,8092,NNB,B,12
12,test,3,0.0,2-Back,1.0,m,Fri Apr 10 2026 14:19:57 GMT-0500 (Central Daylight Time),496271.2999999523,065_o_m_n_a.png,I,m,776,15,,1792.2999999523163,494479.0,8092,NNB,B,13
13,test,3,1.0,2-Back,1.0,z,Fri Apr 10 2026 14:19:57 GMT-0500 (Central Daylight Time),497953.60000002384,097_m_f_n_a.png,I,z,657,16,,1674.7000000476837,496278.89999997616,8092,NNB,B,14
14,test,3,0.0,2-Back,1.0,m,Fri Apr 10 2026 14:19:57 GMT-0500 (Central Daylight Time),499972.5,086_o_f_n_a.png,I,m,991,17,,2011.3999999761581,497961.10000002384,8092,NNB,B,15
15,test,3,0.0,2-Back,1.0,m,Fri Apr 10 2026 14:19:57 GMT-0500 (Central Daylight Time),502018.7999999523,086_o_f_n_a.png,I,m,1023,18,,2042.3999999761581,499976.39999997616,8092,NNB,B,16
0,test,4,0.0,2-Back,,,Fri Apr 10 2026 14:19:57 GMT-0500 (Central Daylight Time),502018.7999999523,176_o_m_n_a.png,I,space,1101,1,,2042.3999999761581,499976.39999997616,8092,NNB,B,0
0,test,4,0.0,2-Back,,,Fri Apr 10 2026 14:19:57 GMT-0500 (Central Daylight Time),502018.7999999523,152_y_f_n_a.png,I,space,1101,2,,2042.3999999761581,499976.39999997616,8092,NNB,B,0
1,test,4,1.0,2-Back,1.0,z,Fri Apr 10 2026 14:19:57 GMT-0500 (Central Daylight Time),510665.7999999523,176_o_m_n_a.png,I,z,1316,3,,2343.100000023842,508322.6999999285,8092,NNB,B,1
2,test,4,1.0,2-Back,1.0,z,Fri Apr 10 2026 14:19:57 GMT-0500 (Central Daylight Time),512682.10000002384,152_y_f_n_a.png,I,z,983,4,,2009.7000000476837,510672.39999997616,8092,NNB,B,2
3,test,4,0.0,2-Back,1.0,m,Fri Apr 10 2026 14:19:57 GMT-0500 (Central Daylight Time),514565.7999999523,110_o_f_n_a.png,I,m,862,5,,1877.1000000238419,512688.6999999285,8092,NNB,B,3
4,test,4,0.0,2-Back,1.0,m,Fri Apr 10 2026 14:19:57 GMT-0500 (Central Daylight Time),516664.2999999523,110_o_f_n_a.png,I,m,1067,6,,2090.899999976158,514573.39999997616,8092,NNB,B,4
5,test,4,0.0,2-Back,1.0,m,Fri Apr 10 2026 14:19:57 GMT-0500 (Central Daylight Time),518531.2999999523,029_m_f_n_a.png,I,m,850,7,,1862.6999999284744,516668.60000002384,8092,NNB,B,5
6,test,4,0.0,2-Back,1.0,m,Fri Apr 10 2026 14:19:57 GMT-0500 (Central Daylight Time),520330.10000002384,013_y_m_n_a.png,I,m,775,8,,1792.3000000715256,518537.7999999523,8092,NNB,B,6
7,test,4,1.0,2-Back,1.0,z,Fri Apr 10 2026 14:19:57 GMT-0500 (Central Daylight Time),522012.1999999285,029_m_f_n_a.png,I,z,663,9,,1677.1999999284744,520335.0,8092,NNB,B,7
8,test,4,0.0,2-Back,1.0,m,Fri Apr 10 2026 14:19:57 GMT-0500 (Central Daylight Time),524161.89999997616,126_m_m_n_a.png,I,m,1132,10,,2146.2999999523163,522015.60000002384,8092,NNB,B,8
8,test,4,0.0,2-Back,0.0,m,Fri Apr 10 2026 14:19:57 GMT-0500 (Central Daylight Time),526145.1999999285,013_y_m_n_a.png,I,z,950,11,,1975.2999999523163,524169.89999997616,8092,NNB,B,9
9,test,4,0.0,2-Back,1.0,m,Fri Apr 10 2026 14:19:57 GMT-0500 (Central Daylight Time),528444.1999999285,086_o_f_n_a.png,I,m,1282,12,,2291.0,526153.1999999285,8092,NNB,B,10
10,test,4,0.0,2-Back,1.0,m,Fri Apr 10 2026 14:19:57 GMT-0500 (Central Daylight Time),530143.5,153_y_m_n_a.png,I,m,667,13,,1691.8000000715256,528451.6999999285,8092,NNB,B,11
11,test,4,1.0,2-Back,1.0,z,Fri Apr 10 2026 14:19:57 GMT-0500 (Central Daylight Time),531742.8999999762,086_o_f_n_a.png,I,z,579,14,,1593.1000000238419,530149.7999999523,8092,NNB,B,12
12,test,4,1.0,2-Back,1.0,z,Fri Apr 10 2026 14:19:57 GMT-0500 (Central Daylight Time),533626.5,153_y_m_n_a.png,I,z,851,15,,1878.2000000476837,531748.2999999523,8092,NNB,B,13
13,test,4,0.0,2-Back,1.0,m,Fri Apr 10 2026 14:19:57 GMT-0500 (Central Daylight Time),535426.6999999285,178_m_m_n_a.png,I,m,783,16,,1793.3999999761581,533633.2999999523,8092,NNB,B,14
14,test,4,0.0,2-Back,1.0,m,Fri Apr 10 2026 14:19:57 GMT-0500 (Central Daylight Time),537141.5,097_m_f_n_a.png,I,m,682,17,,1706.6000000238419,535434.8999999762,8092,NNB,B,15
15,test,4,1.0,2-Back,1.0,z,Fri Apr 10 2026 14:19:57 GMT-0500 (Central Daylight Time),538857.7999999523,178_m_m_n_a.png,I,z,700,18,,1706.6999999284744,537151.1000000238,8092,NNB,B,16
0,test,5,1.0,2-Back,,,Fri Apr 10 2026 14:19:57 GMT-0500 (Central Daylight Time),538857.7999999523,153_y_m_n_a.png,I,space,1041,1,,1706.6999999284744,537151.1000000238,8092,NNB,B,0
0,test,5,1.0,2-Back,,,Fri Apr 10 2026 14:19:57 GMT-0500 (Central Daylight Time),538857.7999999523,097_m_f_n_a.png,I,space,1041,2,,1706.6999999284744,537151.1000000238,8092,NNB,B,0
1,test,5,1.0,2-Back,1.0,z,Fri Apr 10 2026 14:19:57 GMT-0500 (Central Daylight Time),546838.6000000238,153_y_m_n_a.png,I,z,866,3,,1890.8000000715256,544947.7999999523,8092,NNB,B,1
2,test,5,1.0,2-Back,1.0,z,Fri Apr 10 2026 14:19:57 GMT-0500 (Central Daylight Time),548688.5,097_m_f_n_a.png,I,z,825,4,,1843.3000000715256,546845.1999999285,8092,NNB,B,2
3,test,5,0.0,2-Back,1.0,m,Fri Apr 10 2026 14:19:57 GMT-0500 (Central Daylight Time),550572.1000000238,086_o_f_n_a.png,I,m,867,5,,1878.3000000715256,548693.7999999523,8092,NNB,B,3
3,test,5,0.0,2-Back,0.0,m,Fri Apr 10 2026 14:19:57 GMT-0500 (Central Daylight Time),552370.1000000238,153_y_m_n_a.png,I,z,775,6,,1791.4000000953674,550578.6999999285,8092,NNB,B,4
4,test,5,0.0,2-Back,1.0,m,Fri Apr 10 2026 14:19:57 GMT-0500 (Central Daylight Time),554136.2999999523,173_y_f_n_a.png,I,m,744,7,,1757.5,552378.7999999523,8092,NNB,B,5
4,test,5,0.0,2-Back,0.0,m,Fri Apr 10 2026 14:19:57 GMT-0500 (Central Daylight Time),555851.6999999285,086_o_f_n_a.png,I,z,688,8,,1709.2999999523163,554142.3999999762,8092,NNB,B,6
4,test,5,1.0,2-Back,0.0,z,Fri Apr 10 2026 14:19:57 GMT-0500 (Central Daylight Time),558051.6000000238,173_y_f_n_a.png,I,m,1173,9,,2192.2000000476837,555859.3999999762,8092,NNB,B,7
5,test,5,0.0,2-Back,1.0,m,Fri Apr 10 2026 14:19:57 GMT-0500 (Central Daylight Time),559817.8999999762,065_o_m_n_a.png,I,m,733,10,,1759.7000000476837,558058.1999999285,8092,NNB,B,8
6,test,5,0.0,2-Back,1.0,m,Fri Apr 10 2026 14:19:57 GMT-0500 (Central Daylight Time),561618.0,029_m_f_n_a.png,I,m,768,11,,1791.6000000238419,559826.3999999762,8092,NNB,B,9
7,test,5,0.0,2-Back,1.0,m,Fri Apr 10 2026 14:19:57 GMT-0500 (Central Daylight Time),563515.3999999762,126_m_m_n_a.png,I,m,874,12,,1891.0,561624.3999999762,8092,NNB,B,10
7,test,5,0.0,2-Back,0.0,m,Fri Apr 10 2026 14:19:57 GMT-0500 (Central Daylight Time),565348.1999999285,065_o_m_n_a.png,I,z,812,13,,1826.0,563522.1999999285,8092,NNB,B,11
8,test,5,1.0,2-Back,1.0,z,Fri Apr 10 2026 14:19:57 GMT-0500 (Central Daylight Time),567280.7999999523,126_m_m_n_a.png,I,z,907,14,,1927.6999999284744,565353.1000000238,8092,NNB,B,12
9,test,5,0.0,2-Back,1.0,m,Fri Apr 10 2026 14:19:57 GMT-0500 (Central Daylight Time),569198.6000000238,152_y_f_n_a.png,I,m,884,15,,1912.8000000715256,567285.7999999523,8092,NNB,B,13
10,test,5,0.0,2-Back,1.0,m,Fri Apr 10 2026 14:19:57 GMT-0500 (Central Daylight Time),571064.1999999285,176_o_m_n_a.png,I,m,834,16,,1858.0999999046326,569206.1000000238,8092,NNB,B,14
11,test,5,0.0,2-Back,1.0,m,Fri Apr 10 2026 14:19:57 GMT-0500 (Central Daylight Time),572929.6000000238,029_m_f_n_a.png,I,m,841,17,,1859.2000000476837,571070.3999999762,8092,NNB,B,15
12,test,5,1.0,2-Back,1.0,z,Fri Apr 10 2026 14:19:57 GMT-0500 (Central Daylight Time),574713.2999999523,176_o_m_n_a.png,I,z,751,18,,1777.7999999523163,572935.5,8092,NNB,B,16
