acc_sum,block,block_c,block_cond,con_img,correct,correct_response,datetime,endtime,face,jitter,line,project,response,response_time,row_sel,session_number,start_end,starttime,subject_id,task,task_vers,trial
1,prac,1,A,haborder.png,1,z,Wed Mar 18 2026 10:46:07 GMT-0400 (Eastern Daylight Time),77338.30000001192,CFD-WF-037-016-A.jpg,1600,solid,I,z,819,10,2,3216.9000000059605,74121.40000000596,9045,ATS,C,1
2,prac,1,A,haborder.png,1,m,Wed Mar 18 2026 10:46:07 GMT-0400 (Eastern Daylight Time),80171.40000000596,CFD-WF-013-009-HC.jpg,1500,solid,I,m,534,11,2,6050.0,74121.40000000596,9045,ATS,C,2
3,prac,1,A,haborder.png,1,m,Wed Mar 18 2026 10:46:07 GMT-0400 (Eastern Daylight Time),83321.5,CFD-BM-034-035-HC.jpg,1700,solid,I,m,653,1,2,9200.09999999404,74121.40000000596,9045,ATS,C,3
4,prac,1,A,haborder.png,1,z,Wed Mar 18 2026 10:46:07 GMT-0400 (Eastern Daylight Time),86621.5,CFD-WM-036-018-A.jpg,1900,solid,I,z,616,8,2,12500.09999999404,74121.40000000596,9045,ATS,C,4
5,prac,1,A,haborder.png,1,m,Wed Mar 18 2026 10:46:07 GMT-0400 (Eastern Daylight Time),89371.40000000596,CFD-WM-028-005-HC.jpg,1400,solid,I,m,551,7,2,15250.0,74121.40000000596,9045,ATS,C,5
6,prac,1,A,haborder.png,1,z,Wed Mar 18 2026 10:46:07 GMT-0400 (Eastern Daylight Time),92071.40000000596,CFD-BF-002-018-A.jpg,1200,solid,I,z,705,6,2,17950.0,74121.40000000596,9045,ATS,C,6
7,prac,1,A,haborder.png,1,z,Wed Mar 18 2026 10:46:07 GMT-0400 (Eastern Daylight Time),95138.0,CFD-BM-043-014-A.jpg,1600,solid,I,z,677,2,2,21016.59999999404,74121.40000000596,9045,ATS,C,7
8,prac,1,A,haborder.png,1,z,Wed Mar 18 2026 10:46:07 GMT-0400 (Eastern Daylight Time),97721.5,CFD-BF-031-020-A.jpg,1000,solid,I,z,787,4,2,23600.09999999404,74121.40000000596,9045,ATS,C,8
9,prac,1,A,haborder.png,1,m,Wed Mar 18 2026 10:46:07 GMT-0400 (Eastern Daylight Time),101104.70000000298,CFD-BF-019-004-HC.jpg,2000,solid,I,m,595,5,2,26983.29999999702,74121.40000000596,9045,ATS,C,9
10,prac,1,A,haborder.png,1,m,Wed Mar 18 2026 10:46:07 GMT-0400 (Eastern Daylight Time),104104.80000001192,CFD-BM-022-004-HC.jpg,1500,solid,I,m,704,3,2,29983.40000000596,74121.40000000596,9045,ATS,C,10
11,prac,1,A,haborder.png,1,z,Wed Mar 18 2026 10:46:07 GMT-0400 (Eastern Daylight Time),106688.20000000298,CFD-WF-023-013-A.jpg,1000,solid,I,z,797,12,2,32566.79999999702,74121.40000000596,9045,ATS,C,11
12,prac,1,A,haborder.png,1,m,Wed Mar 18 2026 10:46:07 GMT-0400 (Eastern Daylight Time),110104.90000000596,CFD-WM-035-036-HC.jpg,1700,solid,I,m,920,9,2,35983.5,74121.40000000596,9045,ATS,C,12
1,prac,1,B,mfborder.png,1,z,Wed Mar 18 2026 10:46:07 GMT-0400 (Eastern Daylight Time),140438.10000000894,CFD-BF-019-004-HC.jpg,1400,7,I,z,856,dash,2,3050.2999999970198,137387.80000001192,9045,ATS,C,1
2,prac,1,B,mfborder.png,1,m,Wed Mar 18 2026 10:46:07 GMT-0400 (Eastern Daylight Time),143504.80000001192,CFD-BM-022-004-HC.jpg,1700,1,I,m,578,dash,2,6117.0,137387.80000001192,9045,ATS,C,2
3,prac,1,B,mfborder.png,1,z,Wed Mar 18 2026 10:46:07 GMT-0400 (Eastern Daylight Time),146471.40000000596,CFD-WF-037-016-A.jpg,1500,11,I,z,671,dash,2,9083.59999999404,137387.80000001192,9045,ATS,C,3
4,prac,1,B,mfborder.png,1,m,Wed Mar 18 2026 10:46:07 GMT-0400 (Eastern Daylight Time),149838.10000000894,CFD-BM-021-026-A.jpg,1600,2,I,m,981,dash,2,12450.29999999702,137387.80000001192,9045,ATS,C,4
5,prac,1,B,mfborder.png,1,z,Wed Mar 18 2026 10:46:07 GMT-0400 (Eastern Daylight Time),153421.40000000596,CFD-WF-001-010-HC.jpg,1900,8,I,z,882,dash,2,16033.59999999404,137387.80000001192,9045,ATS,C,5
6,prac,1,B,mfborder.png,1,m,Wed Mar 18 2026 10:46:07 GMT-0400 (Eastern Daylight Time),156571.5,CFD-WM-036-018-A.jpg,1700,9,I,m,651,dash,2,19183.69999998808,137387.80000001192,9045,ATS,C,6
7,prac,1,B,mfborder.png,1,m,Wed Mar 18 2026 10:46:07 GMT-0400 (Eastern Daylight Time),159238.0,CFD-WM-034-040-A.jpg,1200,6,I,m,673,dash,2,21850.19999998808,137387.80000001192,9045,ATS,C,7
8,prac,1,B,mfborder.png,1,z,Wed Mar 18 2026 10:46:07 GMT-0400 (Eastern Daylight Time),161671.40000000596,CFD-WF-013-009-HC.jpg,1000,12,I,z,639,dash,2,24283.59999999404,137387.80000001192,9045,ATS,C,8
9,prac,1,B,mfborder.png,1,m,Wed Mar 18 2026 10:46:07 GMT-0400 (Eastern Daylight Time),165171.5,CFD-BM-043-014-A.jpg,2000,5,I,m,709,dash,2,27783.69999998808,137387.80000001192,9045,ATS,C,9
10,prac,1,B,mfborder.png,1,m,Wed Mar 18 2026 10:46:07 GMT-0400 (Eastern Daylight Time),168488.10000000894,CFD-WM-035-036-HC.jpg,1600,10,I,m,921,dash,2,31100.29999999702,137387.80000001192,9045,ATS,C,10
11,prac,1,B,mfborder.png,1,z,Wed Mar 18 2026 10:46:07 GMT-0400 (Eastern Daylight Time),170971.30000001192,CFD-BF-031-020-A.jpg,1000,4,I,z,685,dash,2,33583.5,137387.80000001192,9045,ATS,C,11
12,prac,1,B,mfborder.png,1,z,Wed Mar 18 2026 10:46:07 GMT-0400 (Eastern Daylight Time),174354.80000001192,CFD-BF-042-031-HC.jpg,1500,3,I,z,1094,dash,2,36967.0,137387.80000001192,9045,ATS,C,12
1,test,1,A,haborder.png,1,z,Wed Mar 18 2026 10:46:07 GMT-0400 (Eastern Daylight Time),190604.80000001192,CFD-BM-043-014-A.jpg,1600,solid,I,z,851,2,2,2483.4000000059605,188121.40000000596,9045,ATS,C,1
2,test,1,A,haborder.png,1,z,Wed Mar 18 2026 10:46:07 GMT-0400 (Eastern Daylight Time),192471.30000001192,CFD-BF-031-020-A.jpg,1000,solid,I,z,840,4,2,4349.9000000059605,188121.40000000596,9045,ATS,C,2
3,test,1,A,haborder.png,1,m,Wed Mar 18 2026 10:46:07 GMT-0400 (Eastern Daylight Time),194487.20000000298,CFD-BM-022-004-HC.jpg,1500,solid,I,m,488,3,2,6365.79999999702,188121.40000000596,9045,ATS,C,3
4,test,1,A,haborder.png,1,m,Wed Mar 18 2026 10:46:07 GMT-0400 (Eastern Daylight Time),196521.30000001192,CFD-BM-022-004-HC.jpg,1500,solid,I,m,505,3,2,8399.90000000596,188121.40000000596,9045,ATS,C,4
5,test,1,A,haborder.png,1,z,Wed Mar 18 2026 10:46:07 GMT-0400 (Eastern Daylight Time),198721.20000000298,CFD-BF-002-018-A.jpg,1200,solid,I,z,979,6,2,10599.79999999702,188121.40000000596,9045,ATS,C,5
6,test,1,A,haborder.png,1,m,Wed Mar 18 2026 10:46:07 GMT-0400 (Eastern Daylight Time),200787.90000000596,CFD-WM-028-005-HC.jpg,1400,solid,I,m,643,7,2,12666.5,188121.40000000596,9045,ATS,C,6
7,test,1,A,haborder.png,1,z,Wed Mar 18 2026 10:46:07 GMT-0400 (Eastern Daylight Time),203487.60000000894,CFD-WM-036-018-A.jpg,1900,solid,I,z,780,8,2,15366.20000000298,188121.40000000596,9045,ATS,C,7
8,test,1,A,haborder.png,1,m,Wed Mar 18 2026 10:46:07 GMT-0400 (Eastern Daylight Time),205771.10000000894,CFD-WM-035-036-HC.jpg,1700,solid,I,m,552,9,2,17649.70000000298,188121.40000000596,9045,ATS,C,8
9,test,1,A,haborder.png,1,z,Wed Mar 18 2026 10:46:07 GMT-0400 (Eastern Daylight Time),207587.90000000596,CFD-BF-031-020-A.jpg,1000,solid,I,z,793,4,2,19466.5,188121.40000000596,9045,ATS,C,9
10,test,1,A,haborder.png,1,m,Wed Mar 18 2026 10:46:07 GMT-0400 (Eastern Daylight Time),209637.80000001192,CFD-WM-028-005-HC.jpg,1400,solid,I,m,624,7,2,21516.40000000596,188121.40000000596,9045,ATS,C,10
11,test,1,A,haborder.png,1,z,Wed Mar 18 2026 10:46:07 GMT-0400 (Eastern Daylight Time),211887.70000000298,CFD-BM-043-014-A.jpg,1600,solid,I,z,631,2,2,23766.29999999702,188121.40000000596,9045,ATS,C,11
11,test,1,A,haborder.png,0,z,Wed Mar 18 2026 10:46:07 GMT-0400 (Eastern Daylight Time),214204.5,CFD-WF-037-016-A.jpg,1600,solid,I,m,685,10,2,26083.09999999404,188121.40000000596,9045,ATS,C,12
12,test,1,A,haborder.png,1,m,Wed Mar 18 2026 10:46:07 GMT-0400 (Eastern Daylight Time),216338.60000000894,CFD-WF-013-009-HC.jpg,1500,solid,I,m,612,11,2,28217.20000000298,188121.40000000596,9045,ATS,C,13
12,test,1,A,haborder.png,0,m,Wed Mar 18 2026 10:46:07 GMT-0400 (Eastern Daylight Time),218721.0,CFD-BM-034-035-HC.jpg,1700,solid,I,z,661,1,2,30599.59999999404,188121.40000000596,9045,ATS,C,14
13,test,1,A,haborder.png,1,m,Wed Mar 18 2026 10:46:07 GMT-0400 (Eastern Daylight Time),221187.90000000596,CFD-WM-035-036-HC.jpg,1700,solid,I,m,743,9,2,33066.5,188121.40000000596,9045,ATS,C,15
14,test,1,A,haborder.png,1,z,Wed Mar 18 2026 10:46:07 GMT-0400 (Eastern Daylight Time),223337.90000000596,CFD-WF-023-013-A.jpg,1000,solid,I,z,1119,12,2,35216.5,188121.40000000596,9045,ATS,C,16
15,test,1,A,haborder.png,1,z,Wed Mar 18 2026 10:46:07 GMT-0400 (Eastern Daylight Time),225037.90000000596,CFD-WF-023-013-A.jpg,1000,solid,I,z,666,12,2,36916.5,188121.40000000596,9045,ATS,C,17
16,test,1,A,haborder.png,1,m,Wed Mar 18 2026 10:46:07 GMT-0400 (Eastern Daylight Time),227121.20000000298,CFD-WF-013-009-HC.jpg,1500,solid,I,m,563,11,2,38999.79999999702,188121.40000000596,9045,ATS,C,18
17,test,1,A,haborder.png,1,z,Wed Mar 18 2026 10:46:07 GMT-0400 (Eastern Daylight Time),229521.20000000298,CFD-WF-037-016-A.jpg,1600,solid,I,z,779,10,2,41399.79999999702,188121.40000000596,9045,ATS,C,19
18,test,1,A,haborder.png,1,z,Wed Mar 18 2026 10:46:07 GMT-0400 (Eastern Daylight Time),232687.70000000298,CFD-WM-036-018-A.jpg,1900,solid,I,z,1247,8,2,44566.29999999702,188121.40000000596,9045,ATS,C,20
19,test,1,A,haborder.png,1,m,Wed Mar 18 2026 10:46:07 GMT-0400 (Eastern Daylight Time),235121.20000000298,CFD-BM-034-035-HC.jpg,1700,solid,I,m,713,1,2,46999.79999999702,188121.40000000596,9045,ATS,C,21
20,test,1,A,haborder.png,1,z,Wed Mar 18 2026 10:46:07 GMT-0400 (Eastern Daylight Time),237104.40000000596,CFD-BF-002-018-A.jpg,1200,solid,I,z,746,6,2,48983.0,188121.40000000596,9045,ATS,C,22
21,test,1,A,haborder.png,1,m,Wed Mar 18 2026 10:46:07 GMT-0400 (Eastern Daylight Time),239971.30000001192,CFD-BF-019-004-HC.jpg,2000,solid,I,m,844,5,2,51849.90000000596,188121.40000000596,9045,ATS,C,23
22,test,1,A,haborder.png,1,m,Wed Mar 18 2026 10:46:07 GMT-0400 (Eastern Daylight Time),242654.70000000298,CFD-BF-019-004-HC.jpg,2000,solid,I,m,649,5,2,54533.29999999702,188121.40000000596,9045,ATS,C,24
1,test,1,B,mfborder.png,1,m,Wed Mar 18 2026 10:46:07 GMT-0400 (Eastern Daylight Time),254521.30000001192,CFD-WM-036-018-A.jpg,1700,dash,I,m,538,9,2,2266.4000000059605,252254.90000000596,9045,ATS,C,1
2,test,1,B,mfborder.png,1,m,Wed Mar 18 2026 10:46:07 GMT-0400 (Eastern Daylight Time),256471.30000001192,CFD-WM-034-040-A.jpg,1200,dash,I,m,723,6,2,4216.4000000059605,252254.90000000596,9045,ATS,C,2
3,test,1,B,mfborder.png,1,m,Wed Mar 18 2026 10:46:07 GMT-0400 (Eastern Daylight Time),258771.30000001192,CFD-BM-022-004-HC.jpg,1700,dash,I,m,577,1,2,6516.4000000059605,252254.90000000596,9045,ATS,C,3
4,test,1,B,mfborder.png,1,z,Wed Mar 18 2026 10:46:07 GMT-0400 (Eastern Daylight Time),261288.10000000894,CFD-WF-001-010-HC.jpg,1900,dash,I,z,589,8,2,9033.20000000298,252254.90000000596,9045,ATS,C,4
5,test,1,B,mfborder.png,1,m,Wed Mar 18 2026 10:46:07 GMT-0400 (Eastern Daylight Time),263971.3000000119,CFD-BM-043-014-A.jpg,2000,dash,I,m,660,5,2,11716.40000000596,252254.90000000596,9045,ATS,C,5
6,test,1,B,mfborder.png,1,z,Wed Mar 18 2026 10:46:07 GMT-0400 (Eastern Daylight Time),266354.700000003,CFD-BF-042-031-HC.jpg,1500,dash,I,z,861,3,2,14099.79999999702,252254.90000000596,9045,ATS,C,6
7,test,1,B,mfborder.png,1,m,Wed Mar 18 2026 10:46:07 GMT-0400 (Eastern Daylight Time),268854.60000000894,CFD-WM-036-018-A.jpg,1700,dash,I,m,774,9,2,16599.70000000298,252254.90000000596,9045,ATS,C,7
8,test,1,B,mfborder.png,1,m,Wed Mar 18 2026 10:46:07 GMT-0400 (Eastern Daylight Time),271004.8000000119,CFD-BM-021-026-A.jpg,1600,dash,I,m,518,2,2,18749.90000000596,252254.90000000596,9045,ATS,C,8
9,test,1,B,mfborder.png,1,m,Wed Mar 18 2026 10:46:07 GMT-0400 (Eastern Daylight Time),273237.90000000596,CFD-WM-035-036-HC.jpg,1600,dash,I,m,608,10,2,20983.0,252254.90000000596,9045,ATS,C,9
9,test,1,B,mfborder.png,0,z,Wed Mar 18 2026 10:46:07 GMT-0400 (Eastern Daylight Time),275087.700000003,CFD-BF-031-020-A.jpg,1000,dash,I,m,831,4,2,22832.79999999702,252254.90000000596,9045,ATS,C,10
10,test,1,B,mfborder.png,1,z,Wed Mar 18 2026 10:46:07 GMT-0400 (Eastern Daylight Time),277287.90000000596,CFD-WF-037-016-A.jpg,1500,dash,I,z,672,11,2,25033.0,252254.90000000596,9045,ATS,C,11
11,test,1,B,mfborder.png,1,m,Wed Mar 18 2026 10:46:07 GMT-0400 (Eastern Daylight Time),279554.700000003,CFD-BM-021-026-A.jpg,1600,dash,I,m,644,2,2,27299.79999999702,252254.90000000596,9045,ATS,C,12
12,test,1,B,mfborder.png,1,m,Wed Mar 18 2026 10:46:07 GMT-0400 (Eastern Daylight Time),281554.700000003,CFD-WM-034-040-A.jpg,1200,dash,I,m,778,6,2,29299.79999999702,252254.90000000596,9045,ATS,C,13
13,test,1,B,mfborder.png,1,z,Wed Mar 18 2026 10:46:07 GMT-0400 (Eastern Daylight Time),283437.90000000596,CFD-BF-019-004-HC.jpg,1400,dash,I,z,450,7,2,31183.0,252254.90000000596,9045,ATS,C,14
14,test,1,B,mfborder.png,1,z,Wed Mar 18 2026 10:46:07 GMT-0400 (Eastern Daylight Time),285054.700000003,CFD-WF-013-009-HC.jpg,1000,dash,I,z,582,12,2,32799.79999999702,252254.90000000596,9045,ATS,C,15
15,test,1,B,mfborder.png,1,z,Wed Mar 18 2026 10:46:07 GMT-0400 (Eastern Daylight Time),287571.200000003,CFD-WF-001-010-HC.jpg,1900,dash,I,z,594,8,2,35316.29999999702,252254.90000000596,9045,ATS,C,16
16,test,1,B,mfborder.png,1,z,Wed Mar 18 2026 10:46:07 GMT-0400 (Eastern Daylight Time),289204.700000003,CFD-BF-031-020-A.jpg,1000,dash,I,z,609,4,2,36949.79999999702,252254.90000000596,9045,ATS,C,17
17,test,1,B,mfborder.png,1,m,Wed Mar 18 2026 10:46:07 GMT-0400 (Eastern Daylight Time),291438.10000000894,CFD-WM-035-036-HC.jpg,1600,dash,I,m,600,10,2,39183.20000000298,252254.90000000596,9045,ATS,C,18
18,test,1,B,mfborder.png,1,z,Wed Mar 18 2026 10:46:07 GMT-0400 (Eastern Daylight Time),293671.40000000596,CFD-BF-042-031-HC.jpg,1500,dash,I,z,706,3,2,41416.5,252254.90000000596,9045,ATS,C,19
19,test,1,B,mfborder.png,1,z,Wed Mar 18 2026 10:46:07 GMT-0400 (Eastern Daylight Time),295837.90000000596,CFD-WF-037-016-A.jpg,1500,dash,I,z,633,11,2,43583.0,252254.90000000596,9045,ATS,C,20
20,test,1,B,mfborder.png,1,z,Wed Mar 18 2026 10:46:07 GMT-0400 (Eastern Daylight Time),297470.90000000596,CFD-WF-013-009-HC.jpg,1000,dash,I,z,613,12,2,45216.0,252254.90000000596,9045,ATS,C,21
21,test,1,B,mfborder.png,1,z,Wed Mar 18 2026 10:46:07 GMT-0400 (Eastern Daylight Time),299521.200000003,CFD-BF-019-004-HC.jpg,1400,dash,I,z,629,7,2,47266.29999999702,252254.90000000596,9045,ATS,C,22
22,test,1,B,mfborder.png,1,m,Wed Mar 18 2026 10:46:07 GMT-0400 (Eastern Daylight Time),301788.0,CFD-BM-022-004-HC.jpg,1700,dash,I,m,535,1,2,49533.09999999404,252254.90000000596,9045,ATS,C,23
23,test,1,B,mfborder.png,1,m,Wed Mar 18 2026 10:46:07 GMT-0400 (Eastern Daylight Time),304371.3000000119,CFD-BM-043-014-A.jpg,2000,dash,I,m,561,5,2,52116.40000000596,252254.90000000596,9045,ATS,C,24
1,prac,1,C,mfborder.png,1,z,Wed Mar 18 2026 10:46:07 GMT-0400 (Eastern Daylight Time),340421.8000000119,CFD-BF-019-004-HC.jpg,1000,dash,I,z,1191,5,2,2983.6000000089407,337438.200000003,9045,ATS,C,1
1,prac,1,C,haborder.png,0,z,Wed Mar 18 2026 10:46:07 GMT-0400 (Eastern Daylight Time),344621.3000000119,CFD-BF-031-020-A.jpg,1900,dash,I,None,1516,5,2,7183.100000008941,337438.200000003,9045,ATS,C,2
2,prac,1,C,haborder.png,1,z,Wed Mar 18 2026 10:46:07 GMT-0400 (Eastern Daylight Time),348288.3000000119,CFD-BF-002-018-A.jpg,1700,solid,I,z,1179,5,2,10850.10000000894,337438.200000003,9045,ATS,C,3
3,prac,1,C,mfborder.png,1,m,Wed Mar 18 2026 10:46:07 GMT-0400 (Eastern Daylight Time),351188.200000003,CFD-BM-043-014-A.jpg,1200,dash,I,m,909,5,2,13750.0,337438.200000003,9045,ATS,C,4
4,prac,1,C,mfborder.png,1,m,Wed Mar 18 2026 10:46:07 GMT-0400 (Eastern Daylight Time),354821.60000000894,CFD-WM-036-018-A.jpg,1700,solid,I,m,1141,5,2,17383.40000000596,337438.200000003,9045,ATS,C,5
5,prac,1,C,haborder.png,1,m,Wed Mar 18 2026 10:46:07 GMT-0400 (Eastern Daylight Time),357721.60000000894,CFD-WM-028-005-HC.jpg,1000,dash,I,m,1104,5,2,20283.40000000596,337438.200000003,9045,ATS,C,6
6,prac,1,C,mfborder.png,1,z,Wed Mar 18 2026 10:46:07 GMT-0400 (Eastern Daylight Time),361271.40000000596,CFD-WF-013-009-HC.jpg,1600,dash,I,z,1156,5,2,23833.20000000298,337438.200000003,9045,ATS,C,7
6,prac,1,C,haborder.png,0,m,Wed Mar 18 2026 10:46:07 GMT-0400 (Eastern Daylight Time),365071.40000000596,CFD-BM-022-004-HC.jpg,1500,solid,I,None,1516,5,2,27633.20000000298,337438.200000003,9045,ATS,C,8
7,prac,1,C,haborder.png,1,z,Wed Mar 18 2026 10:46:07 GMT-0400 (Eastern Daylight Time),368338.10000000894,CFD-WF-037-016-A.jpg,1600,dash,I,z,877,5,2,30899.90000000596,337438.200000003,9045,ATS,C,9
8,prac,1,C,mfborder.png,1,z,Wed Mar 18 2026 10:46:07 GMT-0400 (Eastern Daylight Time),371271.40000000596,CFD-WF-023-013-A.jpg,1500,solid,I,z,639,5,2,33833.20000000298,337438.200000003,9045,ATS,C,10
9,prac,1,C,mfborder.png,1,m,Wed Mar 18 2026 10:46:07 GMT-0400 (Eastern Daylight Time),374971.5,CFD-BM-034-035-HC.jpg,2000,solid,I,m,902,5,2,37533.29999999702,337438.200000003,9045,ATS,C,11
10,prac,1,C,haborder.png,1,m,Wed Mar 18 2026 10:46:07 GMT-0400 (Eastern Daylight Time),378271.5,CFD-WM-028-005-HC.jpg,1400,solid,I,m,1113,5,2,40833.29999999702,337438.200000003,9045,ATS,C,12
1,test,1,C,mfborder.png,1,z,Wed Mar 18 2026 10:46:07 GMT-0400 (Eastern Daylight Time),407604.90000000596,CFD-BF-042-031-HC.jpg,1700,dash,I,z,1293,1,2,3016.9000000059605,404588.0,9045,ATS,C,1
1,test,1,C,haborder.png,0,z,Wed Mar 18 2026 10:46:07 GMT-0400 (Eastern Daylight Time),410704.10000000894,CFD-BM-043-014-A.jpg,1900,solid,I,m,1179,8,2,6116.100000008941,404588.0,9045,ATS,C,2
1,test,1,C,haborder.png,0,m,Wed Mar 18 2026 10:46:07 GMT-0400 (Eastern Daylight Time),413738.200000003,CFD-WF-001-010-HC.jpg,1500,solid,I,None,1516,11,2,9150.20000000298,404588.0,9045,ATS,C,3
2,test,1,C,haborder.png,1,z,Wed Mar 18 2026 10:46:07 GMT-0400 (Eastern Daylight Time),415954.700000003,CFD-WM-036-018-A.jpg,1400,solid,I,z,795,7,2,11366.70000000298,404588.0,9045,ATS,C,4
3,test,1,C,mfborder.png,1,z,Wed Mar 18 2026 10:46:07 GMT-0400 (Eastern Daylight Time),418804.700000003,CFD-BF-042-031-HC.jpg,1700,dash,I,z,1126,1,2,14216.70000000298,404588.0,9045,ATS,C,5
4,test,1,C,haborder.png,1,z,Wed Mar 18 2026 10:46:07 GMT-0400 (Eastern Daylight Time),421854.700000003,CFD-BM-021-026-A.jpg,1700,solid,I,z,1316,9,2,17266.70000000298,404588.0,9045,ATS,C,6
4,test,1,C,mfborder.png,0,m,Wed Mar 18 2026 10:46:07 GMT-0400 (Eastern Daylight Time),425087.90000000596,CFD-WM-034-040-A.jpg,2000,dash,I,z,1214,5,2,20499.90000000596,404588.0,9045,ATS,C,7
4,test,1,C,haborder.png,0,z,Wed Mar 18 2026 10:46:07 GMT-0400 (Eastern Daylight Time),427588.10000000894,CFD-BM-021-026-A.jpg,1700,solid,I,m,777,9,2,23000.10000000894,404588.0,9045,ATS,C,8
4,test,1,C,mfborder.png,0,m,Wed Mar 18 2026 10:46:07 GMT-0400 (Eastern Daylight Time),430121.40000000596,CFD-WM-035-036-HC.jpg,1000,dash,I,None,1516,4,2,25533.40000000596,404588.0,9045,ATS,C,9
5,test,1,C,mfborder.png,1,z,Wed Mar 18 2026 10:46:07 GMT-0400 (Eastern Daylight Time),432638.0,CFD-WF-037-016-A.jpg,1500,dash,I,z,983,3,2,28050.0,404588.0,9045,ATS,C,10
5,test,1,C,haborder.png,0,z,Wed Mar 18 2026 10:46:07 GMT-0400 (Eastern Daylight Time),435054.8000000119,CFD-WM-036-018-A.jpg,1400,solid,I,m,983,7,2,30466.80000001192,404588.0,9045,ATS,C,11
6,test,1,C,mfborder.png,1,z,Wed Mar 18 2026 10:46:07 GMT-0400 (Eastern Daylight Time),437472.90000000596,CFD-BF-031-020-A.jpg,1600,dash,I,z,797,2,2,32884.90000000596,404588.0,9045,ATS,C,12
6,test,1,C,haborder.png,0,m,Wed Mar 18 2026 10:46:07 GMT-0400 (Eastern Daylight Time),439638.10000000894,CFD-WF-013-009-HC.jpg,1000,solid,I,z,1143,12,2,35050.10000000894,404588.0,9045,ATS,C,13
7,test,1,C,haborder.png,1,m,Wed Mar 18 2026 10:46:07 GMT-0400 (Eastern Daylight Time),442287.90000000596,CFD-BF-019-004-HC.jpg,1600,solid,I,m,1031,10,2,37699.90000000596,404588.0,9045,ATS,C,14
7,test,1,C,haborder.png,0,m,Wed Mar 18 2026 10:46:07 GMT-0400 (Eastern Daylight Time),444787.90000000596,CFD-BF-019-004-HC.jpg,1600,solid,I,z,877,10,2,40199.90000000596,404588.0,9045,ATS,C,15
8,test,1,C,haborder.png,1,z,Wed Mar 18 2026 10:46:07 GMT-0400 (Eastern Daylight Time),447971.0,CFD-BM-043-014-A.jpg,1900,solid,I,z,1261,8,2,43383.0,404588.0,9045,ATS,C,16
9,test,1,C,haborder.png,1,m,Wed Mar 18 2026 10:46:07 GMT-0400 (Eastern Daylight Time),450438.10000000894,CFD-WF-001-010-HC.jpg,1500,solid,I,m,943,11,2,45850.10000000894,404588.0,9045,ATS,C,17
9,test,1,C,mfborder.png,0,m,Wed Mar 18 2026 10:46:07 GMT-0400 (Eastern Daylight Time),453171.5,CFD-BM-022-004-HC.jpg,1200,dash,I,None,1516,6,2,48583.5,404588.0,9045,ATS,C,18
10,test,1,C,mfborder.png,1,z,Wed Mar 18 2026 10:46:07 GMT-0400 (Eastern Daylight Time),455804.8000000119,CFD-WF-037-016-A.jpg,1500,dash,I,z,1101,3,2,51216.80000001192,404588.0,9045,ATS,C,19
11,test,1,C,mfborder.png,1,m,Wed Mar 18 2026 10:46:07 GMT-0400 (Eastern Daylight Time),457988.0,CFD-BM-022-004-HC.jpg,1200,dash,I,m,960,6,2,53400.0,404588.0,9045,ATS,C,20
12,test,1,C,mfborder.png,1,m,Wed Mar 18 2026 10:46:07 GMT-0400 (Eastern Daylight Time),460921.40000000596,CFD-WM-034-040-A.jpg,2000,dash,I,m,905,5,2,56333.40000000596,404588.0,9045,ATS,C,21
13,test,1,C,mfborder.png,1,m,Wed Mar 18 2026 10:46:07 GMT-0400 (Eastern Daylight Time),462654.8000000119,CFD-WM-035-036-HC.jpg,1000,dash,I,m,715,4,2,58066.80000001192,404588.0,9045,ATS,C,22
13,test,1,C,haborder.png,0,m,Wed Mar 18 2026 10:46:07 GMT-0400 (Eastern Daylight Time),464854.700000003,CFD-WF-013-009-HC.jpg,1000,solid,I,z,1174,12,2,60266.70000000298,404588.0,9045,ATS,C,23
13,test,1,C,mfborder.png,0,z,Wed Mar 18 2026 10:46:07 GMT-0400 (Eastern Daylight Time),467671.5,CFD-BF-031-020-A.jpg,1600,dash,I,m,1190,2,2,63083.5,404588.0,9045,ATS,C,24
0,test,2,C,haborder.png,0,z,Wed Mar 18 2026 10:46:07 GMT-0400 (Eastern Daylight Time),474604.90000000596,CFD-WF-037-016-A.jpg,1700,solid,I,m,818,9,2,2550.0,472054.90000000596,9045,ATS,C,1
0,test,2,C,mfborder.png,0,z,Wed Mar 18 2026 10:46:07 GMT-0400 (Eastern Daylight Time),477738.200000003,CFD-WF-023-013-A.jpg,1600,dash,I,None,1516,2,2,5683.29999999702,472054.90000000596,9045,ATS,C,2
0,test,2,C,mfborder.png,0,m,Wed Mar 18 2026 10:46:07 GMT-0400 (Eastern Daylight Time),480471.5,CFD-WM-036-018-A.jpg,1200,dash,I,None,1516,6,2,8416.59999999404,472054.90000000596,9045,ATS,C,3
1,test,2,C,mfborder.png,1,z,Wed Mar 18 2026 10:46:07 GMT-0400 (Eastern Daylight Time),483421.3000000119,CFD-BF-019-004-HC.jpg,1500,dash,I,z,1417,3,2,11366.40000000596,472054.90000000596,9045,ATS,C,4
1,test,2,C,haborder.png,0,m,Wed Mar 18 2026 10:46:07 GMT-0400 (Eastern Daylight Time),486554.8000000119,CFD-BM-022-004-HC.jpg,1600,solid,I,None,1516,10,2,14499.90000000596,472054.90000000596,9045,ATS,C,5
2,test,2,C,haborder.png,1,m,Wed Mar 18 2026 10:46:07 GMT-0400 (Eastern Daylight Time),488821.3000000119,CFD-WM-028-005-HC.jpg,1000,solid,I,m,1243,12,2,16766.40000000596,472054.90000000596,9045,ATS,C,6
2,test,2,C,mfborder.png,0,z,Wed Mar 18 2026 10:46:07 GMT-0400 (Eastern Daylight Time),491787.90000000596,CFD-WF-013-009-HC.jpg,1700,dash,I,m,1235,1,2,19733.0,472054.90000000596,9045,ATS,C,7
3,test,2,C,mfborder.png,1,m,Wed Mar 18 2026 10:46:07 GMT-0400 (Eastern Daylight Time),495021.3000000119,CFD-BM-043-014-A.jpg,2000,dash,I,m,1201,5,2,22966.40000000596,472054.90000000596,9045,ATS,C,8
4,test,2,C,haborder.png,1,z,Wed Mar 18 2026 10:46:07 GMT-0400 (Eastern Daylight Time),498004.60000000894,CFD-WF-037-016-A.jpg,1700,solid,I,z,1259,9,2,25949.70000000298,472054.90000000596,9045,ATS,C,9
5,test,2,C,mfborder.png,1,z,Wed Mar 18 2026 10:46:07 GMT-0400 (Eastern Daylight Time),500904.8000000119,CFD-WF-023-013-A.jpg,1600,dash,I,z,1272,2,2,28849.90000000596,472054.90000000596,9045,ATS,C,10
5,test,2,C,haborder.png,0,z,Wed Mar 18 2026 10:46:07 GMT-0400 (Eastern Daylight Time),504171.40000000596,CFD-BF-002-018-A.jpg,1900,solid,I,m,1336,8,2,32116.5,472054.90000000596,9045,ATS,C,11
6,test,2,C,haborder.png,1,m,Wed Mar 18 2026 10:46:07 GMT-0400 (Eastern Daylight Time),506687.8000000119,CFD-WM-028-005-HC.jpg,1500,solid,I,m,998,11,2,34632.90000000596,472054.90000000596,9045,ATS,C,12
7,test,2,C,mfborder.png,1,m,Wed Mar 18 2026 10:46:07 GMT-0400 (Eastern Daylight Time),509087.8000000119,CFD-BM-034-035-HC.jpg,1000,dash,I,m,1381,4,2,37032.90000000596,472054.90000000596,9045,ATS,C,13
8,test,2,C,mfborder.png,1,z,Wed Mar 18 2026 10:46:07 GMT-0400 (Eastern Daylight Time),511671.5,CFD-BF-019-004-HC.jpg,1500,dash,I,z,1057,3,2,39616.59999999404,472054.90000000596,9045,ATS,C,14
9,test,2,C,haborder.png,1,z,Wed Mar 18 2026 10:46:07 GMT-0400 (Eastern Daylight Time),514138.0,CFD-BF-031-020-A.jpg,1400,solid,I,z,1037,7,2,42083.09999999404,472054.90000000596,9045,ATS,C,15
10,test,2,C,mfborder.png,1,m,Wed Mar 18 2026 10:46:07 GMT-0400 (Eastern Daylight Time),517504.60000000894,CFD-BM-043-014-A.jpg,2000,dash,I,m,1348,5,2,45449.70000000298,472054.90000000596,9045,ATS,C,16
11,test,2,C,mfborder.png,1,m,Wed Mar 18 2026 10:46:07 GMT-0400 (Eastern Daylight Time),519721.5,CFD-WM-036-018-A.jpg,1200,dash,I,m,988,6,2,47666.59999999404,472054.90000000596,9045,ATS,C,17
12,test,2,C,mfborder.png,1,z,Wed Mar 18 2026 10:46:07 GMT-0400 (Eastern Daylight Time),522670.90000000596,CFD-WF-013-009-HC.jpg,1700,dash,I,z,1231,1,2,50616.0,472054.90000000596,9045,ATS,C,18
12,test,2,C,haborder.png,0,z,Wed Mar 18 2026 10:46:07 GMT-0400 (Eastern Daylight Time),526105.0,CFD-BF-002-018-A.jpg,1900,solid,I,None,1516,8,2,54050.09999999404,472054.90000000596,9045,ATS,C,19
12,test,2,C,haborder.png,0,m,Wed Mar 18 2026 10:46:07 GMT-0400 (Eastern Daylight Time),528637.6000000089,CFD-WM-028-005-HC.jpg,1000,solid,I,None,1516,12,2,56582.70000000298,472054.90000000596,9045,ATS,C,20
12,test,2,C,mfborder.png,0,m,Wed Mar 18 2026 10:46:07 GMT-0400 (Eastern Daylight Time),530821.3000000119,CFD-BM-034-035-HC.jpg,1000,dash,I,z,1160,4,2,58766.40000000596,472054.90000000596,9045,ATS,C,21
13,test,2,C,haborder.png,1,z,Wed Mar 18 2026 10:46:07 GMT-0400 (Eastern Daylight Time),533021.400000006,CFD-BF-031-020-A.jpg,1400,solid,I,z,767,7,2,60966.5,472054.90000000596,9045,ATS,C,22
14,test,2,C,haborder.png,1,m,Wed Mar 18 2026 10:46:07 GMT-0400 (Eastern Daylight Time),535204.700000003,CFD-WM-028-005-HC.jpg,1500,solid,I,m,659,11,2,63149.79999999702,472054.90000000596,9045,ATS,C,23
15,test,2,C,haborder.png,1,m,Wed Mar 18 2026 10:46:07 GMT-0400 (Eastern Daylight Time),537538.1000000089,CFD-BM-022-004-HC.jpg,1600,solid,I,m,712,10,2,65483.20000000298,472054.90000000596,9045,ATS,C,24
0,test,3,C,haborder.png,0,m,Wed Mar 18 2026 10:46:07 GMT-0400 (Eastern Daylight Time),548988.3000000119,CFD-WF-001-010-HC.jpg,1500,solid,I,None,1516,11,2,3033.4000000059605,545954.900000006,9045,ATS,C,1
0,test,3,C,haborder.png,0,z,Wed Mar 18 2026 10:46:07 GMT-0400 (Eastern Daylight Time),551921.5,CFD-WM-036-018-A.jpg,1400,solid,I,None,1516,7,2,5966.5999999940395,545954.900000006,9045,ATS,C,2
0,test,3,C,haborder.png,0,z,Wed Mar 18 2026 10:46:07 GMT-0400 (Eastern Daylight Time),554538.1000000089,CFD-BM-043-014-A.jpg,1900,solid,I,m,687,8,2,8583.20000000298,545954.900000006,9045,ATS,C,3
0,test,3,C,haborder.png,0,z,Wed Mar 18 2026 10:46:07 GMT-0400 (Eastern Daylight Time),557254.8000000119,CFD-BM-043-014-A.jpg,1900,solid,I,m,792,8,2,11299.90000000596,545954.900000006,9045,ATS,C,4
1,test,3,C,mfborder.png,1,m,Wed Mar 18 2026 10:46:07 GMT-0400 (Eastern Daylight Time),560571.3000000119,CFD-WM-034-040-A.jpg,2000,dash,I,m,1286,5,2,14616.40000000596,545954.900000006,9045,ATS,C,5
1,test,3,C,mfborder.png,0,z,Wed Mar 18 2026 10:46:07 GMT-0400 (Eastern Daylight Time),563304.200000003,CFD-BF-042-031-HC.jpg,1700,dash,I,m,1004,1,2,17349.29999999702,545954.900000006,9045,ATS,C,6
1,test,3,C,mfborder.png,0,m,Wed Mar 18 2026 10:46:07 GMT-0400 (Eastern Daylight Time),565838.1000000089,CFD-WM-035-036-HC.jpg,1000,dash,I,None,1516,4,2,19883.20000000298,545954.900000006,9045,ATS,C,7
1,test,3,C,haborder.png,0,m,Wed Mar 18 2026 10:46:07 GMT-0400 (Eastern Daylight Time),568254.8000000119,CFD-BF-019-004-HC.jpg,1600,solid,I,z,783,10,2,22299.90000000596,545954.900000006,9045,ATS,C,8
1,test,3,C,haborder.png,0,z,Wed Mar 18 2026 10:46:07 GMT-0400 (Eastern Daylight Time),570654.8000000119,CFD-BM-021-026-A.jpg,1700,solid,I,m,666,9,2,24699.90000000596,545954.900000006,9045,ATS,C,9
1,test,3,C,mfborder.png,0,z,Wed Mar 18 2026 10:46:07 GMT-0400 (Eastern Daylight Time),573321.400000006,CFD-BF-031-020-A.jpg,1600,dash,I,m,1038,2,2,27366.5,545954.900000006,9045,ATS,C,10
2,test,3,C,mfborder.png,1,m,Wed Mar 18 2026 10:46:07 GMT-0400 (Eastern Daylight Time),575671.400000006,CFD-BM-022-004-HC.jpg,1200,dash,I,m,1123,6,2,29716.5,545954.900000006,9045,ATS,C,11
3,test,3,C,mfborder.png,1,m,Wed Mar 18 2026 10:46:07 GMT-0400 (Eastern Daylight Time),577454.8000000119,CFD-WM-035-036-HC.jpg,1000,dash,I,m,765,4,2,31499.90000000596,545954.900000006,9045,ATS,C,12
3,test,3,C,haborder.png,0,m,Wed Mar 18 2026 10:46:07 GMT-0400 (Eastern Daylight Time),579988.0,CFD-WF-001-010-HC.jpg,1500,solid,I,z,1010,11,2,34033.09999999404,545954.900000006,9045,ATS,C,13
3,test,3,C,mfborder.png,0,z,Wed Mar 18 2026 10:46:07 GMT-0400 (Eastern Daylight Time),582988.0,CFD-BF-042-031-HC.jpg,1700,dash,I,m,1269,1,2,37033.09999999404,545954.900000006,9045,ATS,C,14
4,test,3,C,mfborder.png,1,m,Wed Mar 18 2026 10:46:07 GMT-0400 (Eastern Daylight Time),585538.0,CFD-BM-022-004-HC.jpg,1200,dash,I,m,1329,6,2,39583.09999999404,545954.900000006,9045,ATS,C,15
4,test,3,C,haborder.png,0,z,Wed Mar 18 2026 10:46:07 GMT-0400 (Eastern Daylight Time),588038.0,CFD-WM-036-018-A.jpg,1400,solid,I,m,1075,7,2,42083.09999999404,545954.900000006,9045,ATS,C,16
4,test,3,C,haborder.png,0,m,Wed Mar 18 2026 10:46:07 GMT-0400 (Eastern Daylight Time),590572.5,CFD-WF-013-009-HC.jpg,1000,solid,I,None,1516,12,2,44617.59999999404,545954.900000006,9045,ATS,C,17
5,test,3,C,mfborder.png,1,m,Wed Mar 18 2026 10:46:07 GMT-0400 (Eastern Daylight Time),593487.8000000119,CFD-WM-034-040-A.jpg,2000,dash,I,m,897,5,2,47532.90000000596,545954.900000006,9045,ATS,C,18
6,test,3,C,mfborder.png,1,z,Wed Mar 18 2026 10:46:07 GMT-0400 (Eastern Daylight Time),595971.400000006,CFD-WF-037-016-A.jpg,1500,dash,I,z,961,3,2,50016.5,545954.900000006,9045,ATS,C,19
7,test,3,C,haborder.png,1,m,Wed Mar 18 2026 10:46:07 GMT-0400 (Eastern Daylight Time),598421.400000006,CFD-WF-013-009-HC.jpg,1000,solid,I,m,1425,12,2,52466.5,545954.900000006,9045,ATS,C,20
8,test,3,C,haborder.png,1,m,Wed Mar 18 2026 10:46:07 GMT-0400 (Eastern Daylight Time),600871.400000006,CFD-BF-019-004-HC.jpg,1600,solid,I,m,824,10,2,54916.5,545954.900000006,9045,ATS,C,21
9,test,3,C,mfborder.png,1,z,Wed Mar 18 2026 10:46:07 GMT-0400 (Eastern Daylight Time),603621.5,CFD-WF-037-016-A.jpg,1500,dash,I,z,1225,3,2,57666.59999999404,545954.900000006,9045,ATS,C,22
10,test,3,C,mfborder.png,1,z,Wed Mar 18 2026 10:46:07 GMT-0400 (Eastern Daylight Time),606287.8000000119,CFD-BF-031-020-A.jpg,1600,dash,I,z,1047,2,2,60332.90000000596,545954.900000006,9045,ATS,C,23
10,test,3,C,haborder.png,0,z,Wed Mar 18 2026 10:46:07 GMT-0400 (Eastern Daylight Time),609138.0,CFD-BM-021-026-A.jpg,1700,solid,I,m,1129,9,2,63183.09999999404,545954.900000006,9045,ATS,C,24
1,test,4,C,haborder.png,1,z,Wed Mar 18 2026 10:46:07 GMT-0400 (Eastern Daylight Time),618554.900000006,CFD-BF-031-020-A.jpg,1400,solid,I,z,1253,7,2,2683.4000000059605,615871.5,9045,ATS,C,1
1,test,4,C,mfborder.png,0,z,Wed Mar 18 2026 10:46:07 GMT-0400 (Eastern Daylight Time),621521.3000000119,CFD-BF-019-004-HC.jpg,1500,dash,I,m,1446,3,2,5649.800000011921,615871.5,9045,ATS,C,2
2,test,4,C,mfborder.png,1,z,Wed Mar 18 2026 10:46:07 GMT-0400 (Eastern Daylight Time),623837.900000006,CFD-BF-019-004-HC.jpg,1500,dash,I,z,783,3,2,7966.4000000059605,615871.5,9045,ATS,C,3
3,test,4,C,haborder.png,1,m,Wed Mar 18 2026 10:46:07 GMT-0400 (Eastern Daylight Time),626604.8000000119,CFD-WM-028-005-HC.jpg,1500,solid,I,m,1236,11,2,10733.300000011921,615871.5,9045,ATS,C,4
4,test,4,C,mfborder.png,1,m,Wed Mar 18 2026 10:46:07 GMT-0400 (Eastern Daylight Time),629704.700000003,CFD-BM-043-014-A.jpg,2000,dash,I,m,1072,5,2,13833.20000000298,615871.5,9045,ATS,C,5
5,test,4,C,mfborder.png,1,m,Wed Mar 18 2026 10:46:07 GMT-0400 (Eastern Daylight Time),631821.400000006,CFD-WM-036-018-A.jpg,1200,dash,I,m,884,6,2,15949.90000000596,615871.5,9045,ATS,C,6
6,test,4,C,haborder.png,1,m,Wed Mar 18 2026 10:46:07 GMT-0400 (Eastern Daylight Time),633988.0,CFD-WM-028-005-HC.jpg,1000,solid,I,m,1143,12,2,18116.5,615871.5,9045,ATS,C,7
7,test,4,C,haborder.png,1,m,Wed Mar 18 2026 10:46:07 GMT-0400 (Eastern Daylight Time),636654.700000003,CFD-BM-022-004-HC.jpg,1600,solid,I,m,1034,10,2,20783.20000000298,615871.5,9045,ATS,C,8
7,test,4,C,mfborder.png,0,z,Wed Mar 18 2026 10:46:07 GMT-0400 (Eastern Daylight Time),639888.400000006,CFD-WF-013-009-HC.jpg,1700,dash,I,None,1516,1,2,24016.90000000596,615871.5,9045,ATS,C,9
8,test,4,C,haborder.png,1,z,Wed Mar 18 2026 10:46:07 GMT-0400 (Eastern Daylight Time),642988.0,CFD-BF-002-018-A.jpg,1900,solid,I,z,1169,8,2,27116.5,615871.5,9045,ATS,C,10
9,test,4,C,mfborder.png,1,z,Wed Mar 18 2026 10:46:07 GMT-0400 (Eastern Daylight Time),645554.8000000119,CFD-WF-023-013-A.jpg,1600,dash,I,z,945,2,2,29683.30000001192,615871.5,9045,ATS,C,11
10,test,4,C,mfborder.png,1,z,Wed Mar 18 2026 10:46:07 GMT-0400 (Eastern Daylight Time),647821.5,CFD-WF-023-013-A.jpg,1600,dash,I,z,634,2,2,31950.0,615871.5,9045,ATS,C,12
11,test,4,C,haborder.png,1,m,Wed Mar 18 2026 10:46:07 GMT-0400 (Eastern Daylight Time),650387.700000003,CFD-BM-022-004-HC.jpg,1600,solid,I,m,943,10,2,34516.20000000298,615871.5,9045,ATS,C,13
11,test,4,C,mfborder.png,0,z,Wed Mar 18 2026 10:46:07 GMT-0400 (Eastern Daylight Time),653421.5,CFD-WF-013-009-HC.jpg,1700,dash,I,m,1284,1,2,37550.0,615871.5,9045,ATS,C,14
12,test,4,C,mfborder.png,1,m,Wed Mar 18 2026 10:46:07 GMT-0400 (Eastern Daylight Time),655588.1000000089,CFD-WM-036-018-A.jpg,1200,dash,I,m,943,6,2,39716.60000000894,615871.5,9045,ATS,C,15
13,test,4,C,mfborder.png,1,m,Wed Mar 18 2026 10:46:07 GMT-0400 (Eastern Daylight Time),658504.8000000119,CFD-BM-043-014-A.jpg,2000,dash,I,m,890,5,2,42633.30000001192,615871.5,9045,ATS,C,16
14,test,4,C,mfborder.png,1,m,Wed Mar 18 2026 10:46:07 GMT-0400 (Eastern Daylight Time),660488.1000000089,CFD-BM-034-035-HC.jpg,1000,dash,I,m,956,4,2,44616.60000000894,615871.5,9045,ATS,C,17
15,test,4,C,haborder.png,1,z,Wed Mar 18 2026 10:46:07 GMT-0400 (Eastern Daylight Time),663371.5,CFD-BF-002-018-A.jpg,1900,solid,I,z,953,8,2,47500.0,615871.5,9045,ATS,C,18
16,test,4,C,haborder.png,1,z,Wed Mar 18 2026 10:46:07 GMT-0400 (Eastern Daylight Time),665854.8000000119,CFD-WF-037-016-A.jpg,1700,solid,I,z,749,9,2,49983.30000001192,615871.5,9045,ATS,C,19
17,test,4,C,haborder.png,1,m,Wed Mar 18 2026 10:46:07 GMT-0400 (Eastern Daylight Time),668354.8000000119,CFD-WM-028-005-HC.jpg,1500,solid,I,m,978,11,2,52483.30000001192,615871.5,9045,ATS,C,20
18,test,4,C,haborder.png,1,z,Wed Mar 18 2026 10:46:07 GMT-0400 (Eastern Daylight Time),671054.6000000089,CFD-BF-031-020-A.jpg,1400,solid,I,z,1266,7,2,55183.10000000894,615871.5,9045,ATS,C,21
19,test,4,C,haborder.png,1,z,Wed Mar 18 2026 10:46:07 GMT-0400 (Eastern Daylight Time),673588.1000000089,CFD-WF-037-016-A.jpg,1700,solid,I,z,810,9,2,57716.60000000894,615871.5,9045,ATS,C,22
19,test,4,C,haborder.png,0,m,Wed Mar 18 2026 10:46:07 GMT-0400 (Eastern Daylight Time),676121.6000000089,CFD-WM-028-005-HC.jpg,1000,solid,I,None,1516,12,2,60250.10000000894,615871.5,9045,ATS,C,23
20,test,4,C,mfborder.png,1,m,Wed Mar 18 2026 10:46:07 GMT-0400 (Eastern Daylight Time),678204.8000000119,CFD-BM-034-035-HC.jpg,1000,dash,I,m,1051,4,2,62333.30000001192,615871.5,9045,ATS,C,24
