acc_sum,block,block_c,block_cond,con_img,correct,correct_response,datetime,endtime,face,jitter,line,project,response,response_time,row_sel,session_number,start_end,starttime,subject_id,task,task_vers,trial
0,prac,1,A,haborder.png,0,z,Tue Jun 30 2026 11:10:03 GMT-0400 (Eastern Daylight Time),34229.0,CFD-WF-026-008-A.jpg,1600,solid,I,None,1515,10,3,3900.0999999996275,30328.900000000373,9045,ATS,B,1
0,prac,1,A,haborder.png,0,m,Tue Jun 30 2026 11:10:03 GMT-0400 (Eastern Daylight Time),37928.700000000186,CFD-WM-011-006-HC.jpg,1400,solid,I,None,1516,7,3,7599.799999999814,30328.900000000373,9045,ATS,B,2
1,prac,1,A,haborder.png,1,m,Tue Jun 30 2026 11:10:03 GMT-0400 (Eastern Daylight Time),40962.300000000745,CFD-BM-020-024-HC.jpg,1500,solid,I,m,736,3,3,10633.400000000373,30328.900000000373,9045,ATS,B,3
2,prac,1,A,haborder.png,1,z,Tue Jun 30 2026 11:10:03 GMT-0400 (Eastern Daylight Time),43545.60000000056,CFD-WF-013-015-A.jpg,1000,solid,I,z,795,12,3,13216.700000000186,30328.900000000373,9045,ATS,B,4
3,prac,1,A,haborder.png,1,m,Tue Jun 30 2026 11:10:03 GMT-0400 (Eastern Daylight Time),46479.0,CFD-WF-011-006-HC.jpg,1500,solid,I,m,639,11,3,16150.099999999627,30328.900000000373,9045,ATS,B,5
3,prac,1,A,haborder.png,0,m,Tue Jun 30 2026 11:10:03 GMT-0400 (Eastern Daylight Time),49578.800000000745,CFD-WM-012-007-HC.jpg,1700,solid,I,z,609,9,3,19249.900000000373,30328.900000000373,9045,ATS,B,6
4,prac,1,A,haborder.png,1,z,Tue Jun 30 2026 11:10:03 GMT-0400 (Eastern Daylight Time),52245.5,CFD-BF-051-043-A.jpg,1000,solid,I,z,868,4,3,21916.599999999627,30328.900000000373,9045,ATS,B,7
4,prac,1,A,haborder.png,0,z,Tue Jun 30 2026 11:10:03 GMT-0400 (Eastern Daylight Time),55245.300000000745,CFD-BM-037-041-A.jpg,1600,solid,I,m,607,2,3,24916.400000000373,30328.900000000373,9045,ATS,B,8
4,prac,1,A,haborder.png,0,m,Tue Jun 30 2026 11:10:03 GMT-0400 (Eastern Daylight Time),58445.40000000037,CFD-BM-015-017-HC.jpg,1700,solid,I,z,707,1,3,28116.5,30328.900000000373,9045,ATS,B,9
5,prac,1,A,haborder.png,1,z,Tue Jun 30 2026 11:10:03 GMT-0400 (Eastern Daylight Time),62228.800000000745,CFD-WM-009-009-A.jpg,1900,solid,I,z,1083,8,3,31899.900000000373,30328.900000000373,9045,ATS,B,10
6,prac,1,A,haborder.png,1,z,Tue Jun 30 2026 11:10:03 GMT-0400 (Eastern Daylight Time),65045.5,CFD-BF-050-012-A.jpg,1200,solid,I,z,816,6,3,34716.59999999963,30328.900000000373,9045,ATS,B,11
7,prac,1,A,haborder.png,1,m,Tue Jun 30 2026 11:10:03 GMT-0400 (Eastern Daylight Time),68578.90000000037,CFD-BF-035-007-HC.jpg,2000,solid,I,m,735,5,3,38250.0,30328.900000000373,9045,ATS,B,12
0,prac,1,B,mfborder.png,0,z,Tue Jun 30 2026 11:10:03 GMT-0400 (Eastern Daylight Time),92278.60000000056,CFD-WF-026-008-A.jpg,1500,dash,I,None,1515,11,3,3799.7000000001863,88478.90000000037,9045,ATS,B,1
1,prac,1,B,mfborder.png,1,m,Tue Jun 30 2026 11:10:03 GMT-0400 (Eastern Daylight Time),95678.70000000019,CFD-BM-020-024-HC.jpg,1700,dash,I,m,905,1,3,7199.799999999814,88478.90000000037,9045,ATS,B,2
2,prac,1,B,mfborder.png,1,m,Tue Jun 30 2026 11:10:03 GMT-0400 (Eastern Daylight Time),98645.40000000037,CFD-BM-041-048-A.jpg,1600,dash,I,m,581,2,3,10166.5,88478.90000000037,9045,ATS,B,3
3,prac,1,B,mfborder.png,1,z,Tue Jun 30 2026 11:10:03 GMT-0400 (Eastern Daylight Time),101795.40000000037,CFD-WF-027-007-HC.jpg,1900,dash,I,z,451,8,3,13316.5,88478.90000000037,9045,ATS,B,4
4,prac,1,B,mfborder.png,1,m,Tue Jun 30 2026 11:10:03 GMT-0400 (Eastern Daylight Time),105212.0,CFD-BM-037-041-A.jpg,2000,dash,I,m,625,5,3,16733.099999999627,88478.90000000037,9045,ATS,B,5
5,prac,1,B,mfborder.png,1,z,Tue Jun 30 2026 11:10:03 GMT-0400 (Eastern Daylight Time),108345.5,CFD-BF-027-013-HC.jpg,1500,dash,I,z,844,3,3,19866.599999999627,88478.90000000037,9045,ATS,B,6
6,prac,1,B,mfborder.png,1,m,Tue Jun 30 2026 11:10:03 GMT-0400 (Eastern Daylight Time),111328.70000000019,CFD-WM-012-007-HC.jpg,1600,dash,I,m,587,10,3,22849.799999999814,88478.90000000037,9045,ATS,B,7
7,prac,1,B,mfborder.png,1,m,Tue Jun 30 2026 11:10:03 GMT-0400 (Eastern Daylight Time),114462.10000000056,CFD-WM-009-009-A.jpg,1700,dash,I,m,639,9,3,25983.200000000186,88478.90000000037,9045,ATS,B,8
8,prac,1,B,mfborder.png,1,z,Tue Jun 30 2026 11:10:03 GMT-0400 (Eastern Daylight Time),117312.0,CFD-BF-035-007-HC.jpg,1400,dash,I,z,654,7,3,28833.099999999627,88478.90000000037,9045,ATS,B,9
9,prac,1,B,mfborder.png,1,z,Tue Jun 30 2026 11:10:03 GMT-0400 (Eastern Daylight Time),119828.70000000019,CFD-WF-011-006-HC.jpg,1000,dash,I,z,732,12,3,31349.799999999814,88478.90000000037,9045,ATS,B,10
10,prac,1,B,mfborder.png,1,z,Tue Jun 30 2026 11:10:03 GMT-0400 (Eastern Daylight Time),122312.0,CFD-BF-051-043-A.jpg,1000,dash,I,z,697,4,3,33833.09999999963,88478.90000000037,9045,ATS,B,11
11,prac,1,B,mfborder.png,1,m,Tue Jun 30 2026 11:10:03 GMT-0400 (Eastern Daylight Time),124995.40000000037,CFD-WM-037-060-A.jpg,1200,dash,I,m,684,6,3,36516.5,88478.90000000037,9045,ATS,B,12
1,test,1,A,haborder.png,1,z,Tue Jun 30 2026 11:10:03 GMT-0400 (Eastern Daylight Time),146028.60000000056,CFD-WF-013-015-A.jpg,1000,solid,I,z,876,12,3,1899.9000000003725,144128.7000000002,9045,ATS,B,1
2,test,1,A,haborder.png,1,z,Tue Jun 30 2026 11:10:03 GMT-0400 (Eastern Daylight Time),148628.40000000037,CFD-WM-009-009-A.jpg,1900,solid,I,z,668,8,3,4499.700000000186,144128.7000000002,9045,ATS,B,2
3,test,1,A,haborder.png,1,z,Tue Jun 30 2026 11:10:03 GMT-0400 (Eastern Daylight Time),150861.80000000075,CFD-WF-026-008-A.jpg,1600,solid,I,z,608,10,3,6733.100000000559,144128.7000000002,9045,ATS,B,3
4,test,1,A,haborder.png,1,z,Tue Jun 30 2026 11:10:03 GMT-0400 (Eastern Daylight Time),152578.5,CFD-BF-051-043-A.jpg,1000,solid,I,z,687,4,3,8449.799999999814,144128.7000000002,9045,ATS,B,4
5,test,1,A,haborder.png,1,z,Tue Jun 30 2026 11:10:03 GMT-0400 (Eastern Daylight Time),154278.60000000056,CFD-WF-013-015-A.jpg,1000,solid,I,z,682,12,3,10149.900000000373,144128.7000000002,9045,ATS,B,5
6,test,1,A,haborder.png,1,m,Tue Jun 30 2026 11:10:03 GMT-0400 (Eastern Daylight Time),156395.0,CFD-WM-011-006-HC.jpg,1400,solid,I,m,694,7,3,12266.299999999814,144128.7000000002,9045,ATS,B,6
7,test,1,A,haborder.png,1,z,Tue Jun 30 2026 11:10:03 GMT-0400 (Eastern Daylight Time),158645.2000000002,CFD-BM-037-041-A.jpg,1600,solid,I,z,617,2,3,14516.5,144128.7000000002,9045,ATS,B,7
8,test,1,A,haborder.png,1,m,Tue Jun 30 2026 11:10:03 GMT-0400 (Eastern Daylight Time),160761.7000000002,CFD-BM-020-024-HC.jpg,1500,solid,I,m,596,3,3,16633.0,144128.7000000002,9045,ATS,B,8
9,test,1,A,haborder.png,1,m,Tue Jun 30 2026 11:10:03 GMT-0400 (Eastern Daylight Time),162995.10000000056,CFD-BM-020-024-HC.jpg,1500,solid,I,m,703,3,3,18866.400000000373,144128.7000000002,9045,ATS,B,9
10,test,1,A,haborder.png,1,z,Tue Jun 30 2026 11:10:03 GMT-0400 (Eastern Daylight Time),165428.40000000037,CFD-WF-026-008-A.jpg,1600,solid,I,z,801,10,3,21299.700000000186,144128.7000000002,9045,ATS,B,10
11,test,1,A,haborder.png,1,z,Tue Jun 30 2026 11:10:03 GMT-0400 (Eastern Daylight Time),168395.10000000056,CFD-WM-009-009-A.jpg,1900,solid,I,z,1044,8,3,24266.400000000373,144128.7000000002,9045,ATS,B,11
12,test,1,A,haborder.png,1,z,Tue Jun 30 2026 11:10:03 GMT-0400 (Eastern Daylight Time),170678.5,CFD-BM-037-041-A.jpg,1600,solid,I,z,666,2,3,26549.799999999814,144128.7000000002,9045,ATS,B,12
13,test,1,A,haborder.png,1,z,Tue Jun 30 2026 11:10:03 GMT-0400 (Eastern Daylight Time),172395.10000000056,CFD-BF-051-043-A.jpg,1000,solid,I,z,694,4,3,28266.400000000373,144128.7000000002,9045,ATS,B,13
14,test,1,A,haborder.png,1,m,Tue Jun 30 2026 11:10:03 GMT-0400 (Eastern Daylight Time),174761.7000000002,CFD-WM-012-007-HC.jpg,1700,solid,I,m,646,9,3,30633.0,144128.7000000002,9045,ATS,B,14
15,test,1,A,haborder.png,1,m,Tue Jun 30 2026 11:10:03 GMT-0400 (Eastern Daylight Time),177745.10000000056,CFD-WM-012-007-HC.jpg,1700,solid,I,m,1255,9,3,33616.40000000037,144128.7000000002,9045,ATS,B,15
16,test,1,A,haborder.png,1,m,Tue Jun 30 2026 11:10:03 GMT-0400 (Eastern Daylight Time),180294.80000000075,CFD-BM-015-017-HC.jpg,1700,solid,I,m,831,1,3,36166.10000000056,144128.7000000002,9045,ATS,B,16
17,test,1,A,haborder.png,1,z,Tue Jun 30 2026 11:10:03 GMT-0400 (Eastern Daylight Time),182228.5,CFD-BF-050-012-A.jpg,1200,solid,I,z,701,6,3,38099.799999999814,144128.7000000002,9045,ATS,B,17
18,test,1,A,haborder.png,1,m,Tue Jun 30 2026 11:10:03 GMT-0400 (Eastern Daylight Time),184745.0,CFD-BM-015-017-HC.jpg,1700,solid,I,m,796,1,3,40616.299999999814,144128.7000000002,9045,ATS,B,18
19,test,1,A,haborder.png,1,m,Tue Jun 30 2026 11:10:03 GMT-0400 (Eastern Daylight Time),186845.0,CFD-WF-011-006-HC.jpg,1500,solid,I,m,575,11,3,42716.299999999814,144128.7000000002,9045,ATS,B,19
20,test,1,A,haborder.png,1,m,Tue Jun 30 2026 11:10:03 GMT-0400 (Eastern Daylight Time),188911.90000000037,CFD-WF-011-006-HC.jpg,1500,solid,I,m,540,11,3,44783.200000000186,144128.7000000002,9045,ATS,B,20
21,test,1,A,haborder.png,1,z,Tue Jun 30 2026 11:10:03 GMT-0400 (Eastern Daylight Time),190978.40000000037,CFD-BF-050-012-A.jpg,1200,solid,I,z,837,6,3,46849.700000000186,144128.7000000002,9045,ATS,B,21
22,test,1,A,haborder.png,1,m,Tue Jun 30 2026 11:10:03 GMT-0400 (Eastern Daylight Time),193078.40000000037,CFD-WM-011-006-HC.jpg,1400,solid,I,m,682,7,3,48949.700000000186,144128.7000000002,9045,ATS,B,22
23,test,1,A,haborder.png,1,m,Tue Jun 30 2026 11:10:03 GMT-0400 (Eastern Daylight Time),195778.60000000056,CFD-BF-035-007-HC.jpg,2000,solid,I,m,670,5,3,51649.90000000037,144128.7000000002,9045,ATS,B,23
24,test,1,A,haborder.png,1,m,Tue Jun 30 2026 11:10:03 GMT-0400 (Eastern Daylight Time),198578.30000000075,CFD-BF-035-007-HC.jpg,2000,solid,I,m,770,5,3,54449.60000000056,144128.7000000002,9045,ATS,B,24
1,test,1,B,mfborder.png,1,m,Tue Jun 30 2026 11:10:03 GMT-0400 (Eastern Daylight Time),217595.10000000056,CFD-BM-020-024-HC.jpg,1700,dash,I,m,994,1,3,2716.600000000559,214878.5,9045,ATS,B,1
2,test,1,B,mfborder.png,1,z,Tue Jun 30 2026 11:10:03 GMT-0400 (Eastern Daylight Time),219728.30000000075,CFD-BF-027-013-HC.jpg,1500,dash,I,z,605,3,3,4849.800000000745,214878.5,9045,ATS,B,2
3,test,1,B,mfborder.png,1,m,Tue Jun 30 2026 11:10:03 GMT-0400 (Eastern Daylight Time),221878.30000000075,CFD-BM-041-048-A.jpg,1600,dash,I,m,532,2,3,6999.800000000745,214878.5,9045,ATS,B,3
3,test,1,B,mfborder.png,0,z,Tue Jun 30 2026 11:10:03 GMT-0400 (Eastern Daylight Time),223278.30000000075,CFD-BF-051-043-A.jpg,1000,dash,I,m,374,4,3,8399.800000000745,214878.5,9045,ATS,B,4
4,test,1,B,mfborder.png,1,z,Tue Jun 30 2026 11:10:03 GMT-0400 (Eastern Daylight Time),225395.0,CFD-BF-035-007-HC.jpg,1400,dash,I,z,686,7,3,10516.5,214878.5,9045,ATS,B,5
5,test,1,B,mfborder.png,1,m,Tue Jun 30 2026 11:10:03 GMT-0400 (Eastern Daylight Time),228061.60000000056,CFD-BM-037-041-A.jpg,2000,dash,I,m,641,5,3,13183.100000000559,214878.5,9045,ATS,B,6
6,test,1,B,mfborder.png,1,m,Tue Jun 30 2026 11:10:03 GMT-0400 (Eastern Daylight Time),230278.40000000037,CFD-WM-012-007-HC.jpg,1600,dash,I,m,583,10,3,15399.900000000373,214878.5,9045,ATS,B,7
7,test,1,B,mfborder.png,1,m,Tue Jun 30 2026 11:10:03 GMT-0400 (Eastern Daylight Time),232111.60000000056,CFD-WM-037-060-A.jpg,1200,dash,I,m,606,6,3,17233.10000000056,214878.5,9045,ATS,B,8
7,test,1,B,mfborder.png,0,m,Tue Jun 30 2026 11:10:03 GMT-0400 (Eastern Daylight Time),234495.0,CFD-WM-012-007-HC.jpg,1600,dash,I,z,757,10,3,19616.5,214878.5,9045,ATS,B,9
8,test,1,B,mfborder.png,1,m,Tue Jun 30 2026 11:10:03 GMT-0400 (Eastern Daylight Time),237278.30000000075,CFD-WM-009-009-A.jpg,1700,dash,I,m,1058,9,3,22399.800000000745,214878.5,9045,ATS,B,10
9,test,1,B,mfborder.png,1,m,Tue Jun 30 2026 11:10:03 GMT-0400 (Eastern Daylight Time),239045.0,CFD-WM-037-060-A.jpg,1200,dash,I,m,534,6,3,24166.5,214878.5,9045,ATS,B,11
10,test,1,B,mfborder.png,1,m,Tue Jun 30 2026 11:10:03 GMT-0400 (Eastern Daylight Time),241545.0,CFD-BM-037-041-A.jpg,2000,dash,I,m,480,5,3,26666.5,214878.5,9045,ATS,B,12
11,test,1,B,mfborder.png,1,z,Tue Jun 30 2026 11:10:03 GMT-0400 (Eastern Daylight Time),243244.5,CFD-WF-011-006-HC.jpg,1000,dash,I,z,674,12,3,28366.0,214878.5,9045,ATS,B,13
12,test,1,B,mfborder.png,1,m,Tue Jun 30 2026 11:10:03 GMT-0400 (Eastern Daylight Time),245461.7000000002,CFD-BM-041-048-A.jpg,1600,dash,I,m,583,2,3,30583.200000000186,214878.5,9045,ATS,B,14
13,test,1,B,mfborder.png,1,m,Tue Jun 30 2026 11:10:03 GMT-0400 (Eastern Daylight Time),247845.0,CFD-WM-009-009-A.jpg,1700,dash,I,m,651,9,3,32966.5,214878.5,9045,ATS,B,15
14,test,1,B,mfborder.png,1,z,Tue Jun 30 2026 11:10:03 GMT-0400 (Eastern Daylight Time),249995.0,CFD-BF-035-007-HC.jpg,1400,dash,I,z,728,7,3,35116.5,214878.5,9045,ATS,B,16
15,test,1,B,mfborder.png,1,z,Tue Jun 30 2026 11:10:03 GMT-0400 (Eastern Daylight Time),252545.0,CFD-WF-027-007-HC.jpg,1900,dash,I,z,621,8,3,37666.5,214878.5,9045,ATS,B,17
16,test,1,B,mfborder.png,1,m,Tue Jun 30 2026 11:10:03 GMT-0400 (Eastern Daylight Time),254961.60000000056,CFD-BM-020-024-HC.jpg,1700,dash,I,m,688,1,3,40083.10000000056,214878.5,9045,ATS,B,18
17,test,1,B,mfborder.png,1,z,Tue Jun 30 2026 11:10:03 GMT-0400 (Eastern Daylight Time),256661.5,CFD-WF-011-006-HC.jpg,1000,dash,I,z,667,12,3,41783.0,214878.5,9045,ATS,B,19
18,test,1,B,mfborder.png,1,z,Tue Jun 30 2026 11:10:03 GMT-0400 (Eastern Daylight Time),258994.90000000037,CFD-WF-026-008-A.jpg,1500,dash,I,z,803,11,3,44116.40000000037,214878.5,9045,ATS,B,20
19,test,1,B,mfborder.png,1,z,Tue Jun 30 2026 11:10:03 GMT-0400 (Eastern Daylight Time),261078.30000000075,CFD-WF-026-008-A.jpg,1500,dash,I,z,549,11,3,46199.800000000745,214878.5,9045,ATS,B,21
20,test,1,B,mfborder.png,1,z,Tue Jun 30 2026 11:10:03 GMT-0400 (Eastern Daylight Time),263711.60000000056,CFD-WF-027-007-HC.jpg,1900,dash,I,z,706,8,3,48833.10000000056,214878.5,9045,ATS,B,22
20,test,1,B,mfborder.png,0,z,Tue Jun 30 2026 11:10:03 GMT-0400 (Eastern Daylight Time),266245.0,CFD-BF-051-043-A.jpg,1000,dash,I,None,1516,4,3,51366.5,214878.5,9045,ATS,B,23
21,test,1,B,mfborder.png,1,z,Tue Jun 30 2026 11:10:03 GMT-0400 (Eastern Daylight Time),268428.30000000075,CFD-BF-027-013-HC.jpg,1500,dash,I,z,660,3,3,53549.800000000745,214878.5,9045,ATS,B,24
0,10,1,C,haborder.png,0,m,Tue Jun 30 2026 11:10:03 GMT-0400 (Eastern Daylight Time),307061.7000000002,CFD-BM-020-024-HC.jpg,1500,solid,I,None,1516,prac,3,3800.0,303261.7000000002,9045,ATS,B,1
1,9,1,C,haborder.png,1,z,Tue Jun 30 2026 11:10:03 GMT-0400 (Eastern Daylight Time),310711.60000000056,CFD-WF-026-008-A.jpg,1600,dash,I,z,1262,prac,3,7449.9000000003725,303261.7000000002,9045,ATS,B,2
1,7,1,C,haborder.png,0,z,Tue Jun 30 2026 11:10:03 GMT-0400 (Eastern Daylight Time),314711.60000000056,CFD-BF-051-043-A.jpg,1900,dash,I,m,1313,prac,3,11449.900000000373,303261.7000000002,9045,ATS,B,3
1,4,1,C,mfborder.png,0,m,Tue Jun 30 2026 11:10:03 GMT-0400 (Eastern Daylight Time),318778.2000000002,CFD-BM-015-017-HC.jpg,2000,solid,I,z,1276,prac,3,15516.5,303261.7000000002,9045,ATS,B,4
1,8,1,C,haborder.png,0,z,Tue Jun 30 2026 11:10:03 GMT-0400 (Eastern Daylight Time),322678.2000000002,CFD-BF-050-012-A.jpg,1700,solid,I,m,1415,prac,3,19416.5,303261.7000000002,9045,ATS,B,5
1,1,1,C,mfborder.png,0,z,Tue Jun 30 2026 11:10:03 GMT-0400 (Eastern Daylight Time),326578.10000000056,CFD-WF-011-006-HC.jpg,1600,dash,I,None,1515,prac,3,23316.400000000373,303261.7000000002,9045,ATS,B,6
1,2,1,C,mfborder.png,0,z,Tue Jun 30 2026 11:10:03 GMT-0400 (Eastern Daylight Time),330228.10000000056,CFD-WF-013-015-A.jpg,1500,solid,I,m,1350,prac,3,26966.400000000373,303261.7000000002,9045,ATS,B,7
1,6,1,C,mfborder.png,0,m,Tue Jun 30 2026 11:10:03 GMT-0400 (Eastern Daylight Time),334228.0,CFD-WM-009-009-A.jpg,1700,solid,I,None,1516,prac,3,30966.299999999814,303261.7000000002,9045,ATS,B,8
2,12,1,C,haborder.png,1,m,Tue Jun 30 2026 11:10:03 GMT-0400 (Eastern Daylight Time),337511.5,CFD-WM-011-006-HC.jpg,1400,solid,I,m,1097,prac,3,34249.799999999814,303261.7000000002,9045,ATS,B,9
2,5,1,C,mfborder.png,0,m,Tue Jun 30 2026 11:10:03 GMT-0400 (Eastern Daylight Time),340878.2000000002,CFD-BM-037-041-A.jpg,1200,dash,I,z,1372,prac,3,37616.5,303261.7000000002,9045,ATS,B,10
2,11,1,C,haborder.png,0,m,Tue Jun 30 2026 11:10:03 GMT-0400 (Eastern Daylight Time),344178.0,CFD-WM-011-006-HC.jpg,1000,dash,I,None,1516,prac,3,40916.299999999814,303261.7000000002,9045,ATS,B,11
3,3,1,C,mfborder.png,1,z,Tue Jun 30 2026 11:10:03 GMT-0400 (Eastern Daylight Time),347394.80000000075,CFD-BF-035-007-HC.jpg,1000,dash,I,z,1418,prac,3,44133.10000000056,303261.7000000002,9045,ATS,B,12
1,7,2,C,haborder.png,1,z,Tue Jun 30 2026 11:10:03 GMT-0400 (Eastern Daylight Time),354761.30000000075,CFD-BF-051-043-A.jpg,1900,dash,I,z,1310,prac,3,51499.60000000056,303261.7000000002,9045,ATS,B,1
1,2,2,C,mfborder.png,0,z,Tue Jun 30 2026 11:10:03 GMT-0400 (Eastern Daylight Time),358528.0,CFD-WF-013-015-A.jpg,1500,solid,I,m,1470,prac,3,55266.299999999814,303261.7000000002,9045,ATS,B,2
2,12,2,C,haborder.png,1,m,Tue Jun 30 2026 11:10:03 GMT-0400 (Eastern Daylight Time),361578.2000000002,CFD-WM-011-006-HC.jpg,1400,solid,I,m,861,prac,3,58316.5,303261.7000000002,9045,ATS,B,3
2,8,2,C,haborder.png,0,z,Tue Jun 30 2026 11:10:03 GMT-0400 (Eastern Daylight Time),365578.0,CFD-BF-050-012-A.jpg,1700,solid,I,None,1516,prac,3,62316.299999999814,303261.7000000002,9045,ATS,B,4
3,3,2,C,mfborder.png,1,z,Tue Jun 30 2026 11:10:03 GMT-0400 (Eastern Daylight Time),368511.5,CFD-BF-035-007-HC.jpg,1000,dash,I,z,1138,prac,3,65249.799999999814,303261.7000000002,9045,ATS,B,5
3,4,2,C,mfborder.png,0,m,Tue Jun 30 2026 11:10:03 GMT-0400 (Eastern Daylight Time),372411.4000000004,CFD-BM-015-017-HC.jpg,2000,solid,I,z,1109,prac,3,69149.70000000019,303261.7000000002,9045,ATS,B,6
4,5,2,C,mfborder.png,1,m,Tue Jun 30 2026 11:10:03 GMT-0400 (Eastern Daylight Time),375211.4000000004,CFD-BM-037-041-A.jpg,1200,dash,I,m,809,prac,3,71949.70000000019,303261.7000000002,9045,ATS,B,7
5,10,2,C,haborder.png,1,m,Tue Jun 30 2026 11:10:03 GMT-0400 (Eastern Daylight Time),378478.10000000056,CFD-BM-020-024-HC.jpg,1500,solid,I,m,973,prac,3,75216.40000000037,303261.7000000002,9045,ATS,B,8
6,11,2,C,haborder.png,1,m,Tue Jun 30 2026 11:10:03 GMT-0400 (Eastern Daylight Time),381111.0,CFD-WM-011-006-HC.jpg,1000,dash,I,m,846,prac,3,77849.29999999981,303261.7000000002,9045,ATS,B,9
7,1,2,C,mfborder.png,1,z,Tue Jun 30 2026 11:10:03 GMT-0400 (Eastern Daylight Time),384644.5,CFD-WF-011-006-HC.jpg,1600,dash,I,z,1133,prac,3,81382.79999999981,303261.7000000002,9045,ATS,B,10
8,6,2,C,mfborder.png,1,m,Tue Jun 30 2026 11:10:03 GMT-0400 (Eastern Daylight Time),388578.0,CFD-WM-009-009-A.jpg,1700,solid,I,m,1435,prac,3,85316.29999999981,303261.7000000002,9045,ATS,B,11
9,9,2,C,haborder.png,1,z,Tue Jun 30 2026 11:10:03 GMT-0400 (Eastern Daylight Time),392244.80000000075,CFD-WF-026-008-A.jpg,1600,dash,I,z,1267,prac,3,88983.10000000056,303261.7000000002,9045,ATS,B,12
1,test,1,C,mfborder.png,1,m,Tue Jun 30 2026 11:10:03 GMT-0400 (Eastern Daylight Time),412528.0,CFD-WM-037-060-A.jpg,2000,dash,I,m,1089,5,3,3116.5999999996275,409411.4000000004,9045,ATS,B,1
1,test,1,C,mfborder.png,0,z,Tue Jun 30 2026 11:10:03 GMT-0400 (Eastern Daylight Time),415294.60000000056,CFD-WF-026-008-A.jpg,1500,dash,I,m,1240,3,3,5883.200000000186,409411.4000000004,9045,ATS,B,2
2,test,1,C,haborder.png,1,m,Tue Jun 30 2026 11:10:03 GMT-0400 (Eastern Daylight Time),418127.80000000075,CFD-WF-027-007-HC.jpg,1500,solid,I,m,1305,11,3,8716.400000000373,409411.4000000004,9045,ATS,B,3
2,test,1,C,haborder.png,0,z,Tue Jun 30 2026 11:10:03 GMT-0400 (Eastern Daylight Time),421377.9000000004,CFD-BM-037-041-A.jpg,1900,solid,I,m,1321,8,3,11966.5,409411.4000000004,9045,ATS,B,4
2,test,1,C,haborder.png,0,m,Tue Jun 30 2026 11:10:03 GMT-0400 (Eastern Daylight Time),423911.4000000004,CFD-WF-011-006-HC.jpg,1000,solid,I,None,1516,12,3,14500.0,409411.4000000004,9045,ATS,B,5
2,test,1,C,haborder.png,0,m,Tue Jun 30 2026 11:10:03 GMT-0400 (Eastern Daylight Time),425495.5,CFD-WF-011-006-HC.jpg,1000,solid,I,z,548,12,3,16084.099999999627,409411.4000000004,9045,ATS,B,6
3,test,1,C,haborder.png,1,z,Tue Jun 30 2026 11:10:03 GMT-0400 (Eastern Daylight Time),428277.9000000004,CFD-WM-009-009-A.jpg,1400,solid,I,z,1365,7,3,18866.5,409411.4000000004,9045,ATS,B,7
3,test,1,C,haborder.png,0,z,Tue Jun 30 2026 11:10:03 GMT-0400 (Eastern Daylight Time),430794.4000000004,CFD-BM-041-048-A.jpg,1700,solid,I,m,794,9,3,21383.0,409411.4000000004,9045,ATS,B,8
4,test,1,C,mfborder.png,1,z,Tue Jun 30 2026 11:10:03 GMT-0400 (Eastern Daylight Time),433911.0,CFD-BF-027-013-HC.jpg,1700,dash,I,z,1398,1,3,24499.599999999627,409411.4000000004,9045,ATS,B,9
5,test,1,C,mfborder.png,1,m,Tue Jun 30 2026 11:10:03 GMT-0400 (Eastern Daylight Time),436311.10000000056,CFD-BM-020-024-HC.jpg,1200,dash,I,m,1181,6,3,26899.700000000186,409411.4000000004,9045,ATS,B,10
5,test,1,C,mfborder.png,0,z,Tue Jun 30 2026 11:10:03 GMT-0400 (Eastern Daylight Time),438911.10000000056,CFD-BF-027-013-HC.jpg,1700,dash,I,m,873,1,3,29499.700000000186,409411.4000000004,9045,ATS,B,11
6,test,1,C,mfborder.png,1,m,Tue Jun 30 2026 11:10:03 GMT-0400 (Eastern Daylight Time),441227.80000000075,CFD-WM-012-007-HC.jpg,1000,dash,I,m,1293,4,3,31816.400000000373,409411.4000000004,9045,ATS,B,12
7,test,1,C,haborder.png,1,m,Tue Jun 30 2026 11:10:03 GMT-0400 (Eastern Daylight Time),444011.2000000002,CFD-BF-035-007-HC.jpg,1600,solid,I,m,1161,10,3,34599.799999999814,409411.4000000004,9045,ATS,B,13
7,test,1,C,haborder.png,0,m,Tue Jun 30 2026 11:10:03 GMT-0400 (Eastern Daylight Time),446344.4000000004,CFD-WF-027-007-HC.jpg,1500,solid,I,z,813,11,3,36933.0,409411.4000000004,9045,ATS,B,14
7,test,1,C,haborder.png,0,m,Tue Jun 30 2026 11:10:03 GMT-0400 (Eastern Daylight Time),448727.7000000002,CFD-BF-035-007-HC.jpg,1600,solid,I,z,763,10,3,39316.299999999814,409411.4000000004,9045,ATS,B,15
8,test,1,C,haborder.png,1,z,Tue Jun 30 2026 11:10:03 GMT-0400 (Eastern Daylight Time),451077.80000000075,CFD-WM-009-009-A.jpg,1400,solid,I,z,917,7,3,41666.40000000037,409411.4000000004,9045,ATS,B,16
9,test,1,C,haborder.png,1,z,Tue Jun 30 2026 11:10:03 GMT-0400 (Eastern Daylight Time),453844.4000000004,CFD-BM-041-048-A.jpg,1700,solid,I,z,1034,9,3,44433.0,409411.4000000004,9045,ATS,B,17
10,test,1,C,mfborder.png,1,m,Tue Jun 30 2026 11:10:03 GMT-0400 (Eastern Daylight Time),455961.10000000056,CFD-WM-012-007-HC.jpg,1000,dash,I,m,1096,4,3,46549.700000000186,409411.4000000004,9045,ATS,B,18
10,test,1,C,mfborder.png,0,z,Tue Jun 30 2026 11:10:03 GMT-0400 (Eastern Daylight Time),459094.7000000002,CFD-BF-051-043-A.jpg,1600,dash,I,None,1516,2,3,49683.299999999814,409411.4000000004,9045,ATS,B,19
10,test,1,C,haborder.png,0,z,Tue Jun 30 2026 11:10:03 GMT-0400 (Eastern Daylight Time),461894.2000000002,CFD-BM-037-041-A.jpg,1900,solid,I,m,881,8,3,52482.799999999814,409411.4000000004,9045,ATS,B,20
11,test,1,C,mfborder.png,1,z,Tue Jun 30 2026 11:10:03 GMT-0400 (Eastern Daylight Time),464344.30000000075,CFD-BF-051-043-A.jpg,1600,dash,I,z,829,2,3,54932.90000000037,409411.4000000004,9045,ATS,B,21
12,test,1,C,mfborder.png,1,m,Tue Jun 30 2026 11:10:03 GMT-0400 (Eastern Daylight Time),467027.80000000075,CFD-WM-037-060-A.jpg,2000,dash,I,m,651,5,3,57616.40000000037,409411.4000000004,9045,ATS,B,22
13,test,1,C,mfborder.png,1,z,Tue Jun 30 2026 11:10:03 GMT-0400 (Eastern Daylight Time),469394.4000000004,CFD-WF-026-008-A.jpg,1500,dash,I,z,836,3,3,59983.0,409411.4000000004,9045,ATS,B,23
14,test,1,C,mfborder.png,1,m,Tue Jun 30 2026 11:10:03 GMT-0400 (Eastern Daylight Time),471977.7000000002,CFD-BM-020-024-HC.jpg,1200,dash,I,m,1361,6,3,62566.299999999814,409411.4000000004,9045,ATS,B,24
0,test,2,C,haborder.png,0,z,Tue Jun 30 2026 11:10:03 GMT-0400 (Eastern Daylight Time),477478.10000000056,CFD-BF-050-012-A.jpg,1900,solid,I,m,1082,8,3,3000.100000000559,474478.0,9045,ATS,B,1
1,test,2,C,mfborder.png,1,m,Tue Jun 30 2026 11:10:03 GMT-0400 (Eastern Daylight Time),480593.80000000075,CFD-BM-037-041-A.jpg,2000,dash,I,m,1085,5,3,6115.800000000745,474478.0,9045,ATS,B,2
1,test,2,C,mfborder.png,0,z,Tue Jun 30 2026 11:10:03 GMT-0400 (Eastern Daylight Time),483460.80000000075,CFD-WF-013-015-A.jpg,1600,dash,I,m,1233,2,3,8982.800000000745,474478.0,9045,ATS,B,3
2,test,2,C,mfborder.png,1,z,Tue Jun 30 2026 11:10:03 GMT-0400 (Eastern Daylight Time),486011.0,CFD-BF-035-007-HC.jpg,1500,dash,I,z,1027,3,3,11533.0,474478.0,9045,ATS,B,4
2,test,2,C,haborder.png,0,m,Tue Jun 30 2026 11:10:03 GMT-0400 (Eastern Daylight Time),489144.4000000004,CFD-BM-020-024-HC.jpg,1600,solid,I,None,1516,10,3,14666.400000000373,474478.0,9045,ATS,B,5
3,test,2,C,mfborder.png,1,m,Tue Jun 30 2026 11:10:03 GMT-0400 (Eastern Daylight Time),491277.7000000002,CFD-BM-015-017-HC.jpg,1000,dash,I,m,1108,4,3,16799.700000000186,474478.0,9045,ATS,B,6
3,test,2,C,mfborder.png,0,z,Tue Jun 30 2026 11:10:03 GMT-0400 (Eastern Daylight Time),493660.9000000004,CFD-WF-013-015-A.jpg,1600,dash,I,m,758,2,3,19182.900000000373,474478.0,9045,ATS,B,7
4,test,2,C,mfborder.png,1,z,Tue Jun 30 2026 11:10:03 GMT-0400 (Eastern Daylight Time),496027.60000000056,CFD-BF-035-007-HC.jpg,1500,dash,I,z,843,3,3,21549.60000000056,474478.0,9045,ATS,B,8
5,test,2,C,mfborder.png,1,m,Tue Jun 30 2026 11:10:03 GMT-0400 (Eastern Daylight Time),498477.7000000002,CFD-WM-009-009-A.jpg,1200,dash,I,m,1224,6,3,23999.700000000186,474478.0,9045,ATS,B,9
5,test,2,C,mfborder.png,0,z,Tue Jun 30 2026 11:10:03 GMT-0400 (Eastern Daylight Time),501327.7000000002,CFD-WF-011-006-HC.jpg,1700,dash,I,m,1122,1,3,26849.700000000186,474478.0,9045,ATS,B,10
5,test,2,C,haborder.png,0,m,Tue Jun 30 2026 11:10:03 GMT-0400 (Eastern Daylight Time),504361.10000000056,CFD-WM-011-006-HC.jpg,1500,solid,I,None,1516,11,3,29883.10000000056,474478.0,9045,ATS,B,11
6,test,2,C,haborder.png,1,m,Tue Jun 30 2026 11:10:03 GMT-0400 (Eastern Daylight Time),506644.4000000004,CFD-BM-020-024-HC.jpg,1600,solid,I,m,651,10,3,32166.400000000373,474478.0,9045,ATS,B,12
7,test,2,C,haborder.png,1,z,Tue Jun 30 2026 11:10:03 GMT-0400 (Eastern Daylight Time),508994.30000000075,CFD-BF-051-043-A.jpg,1400,solid,I,z,920,7,3,34516.300000000745,474478.0,9045,ATS,B,13
8,test,2,C,haborder.png,1,z,Tue Jun 30 2026 11:10:03 GMT-0400 (Eastern Daylight Time),511611.0,CFD-BF-050-012-A.jpg,1900,solid,I,z,693,8,3,37133.0,474478.0,9045,ATS,B,14
9,test,2,C,haborder.png,1,m,Tue Jun 30 2026 11:10:03 GMT-0400 (Eastern Daylight Time),513510.7000000002,CFD-WM-011-006-HC.jpg,1000,solid,I,m,881,12,3,39032.700000000186,474478.0,9045,ATS,B,15
10,test,2,C,haborder.png,1,m,Tue Jun 30 2026 11:10:03 GMT-0400 (Eastern Daylight Time),515677.7000000002,CFD-WM-011-006-HC.jpg,1500,solid,I,m,641,11,3,41199.700000000186,474478.0,9045,ATS,B,16
11,test,2,C,mfborder.png,1,m,Tue Jun 30 2026 11:10:03 GMT-0400 (Eastern Daylight Time),518927.60000000056,CFD-BM-037-041-A.jpg,2000,dash,I,m,1222,5,3,44449.60000000056,474478.0,9045,ATS,B,17
11,test,2,C,mfborder.png,0,m,Tue Jun 30 2026 11:10:03 GMT-0400 (Eastern Daylight Time),521661.0,CFD-WM-009-009-A.jpg,1200,dash,I,None,1516,6,3,47183.0,474478.0,9045,ATS,B,18
12,test,2,C,mfborder.png,1,z,Tue Jun 30 2026 11:10:03 GMT-0400 (Eastern Daylight Time),524310.6000000006,CFD-WF-011-006-HC.jpg,1700,dash,I,z,931,1,3,49832.60000000056,474478.0,9045,ATS,B,19
13,test,2,C,haborder.png,1,z,Tue Jun 30 2026 11:10:03 GMT-0400 (Eastern Daylight Time),526944.3000000007,CFD-WF-026-008-A.jpg,1700,solid,I,z,905,9,3,52466.300000000745,474478.0,9045,ATS,B,20
13,test,2,C,haborder.png,0,z,Tue Jun 30 2026 11:10:03 GMT-0400 (Eastern Daylight Time),528861.0,CFD-BF-051-043-A.jpg,1400,solid,I,m,492,7,3,54383.0,474478.0,9045,ATS,B,21
14,test,2,C,haborder.png,1,z,Tue Jun 30 2026 11:10:03 GMT-0400 (Eastern Daylight Time),531477.6000000006,CFD-WF-026-008-A.jpg,1700,solid,I,z,882,9,3,56999.60000000056,474478.0,9045,ATS,B,22
15,test,2,C,haborder.png,1,m,Tue Jun 30 2026 11:10:03 GMT-0400 (Eastern Daylight Time),533927.4000000004,CFD-WM-011-006-HC.jpg,1000,solid,I,m,1430,12,3,59449.40000000037,474478.0,9045,ATS,B,23
16,test,2,C,mfborder.png,1,m,Tue Jun 30 2026 11:10:03 GMT-0400 (Eastern Daylight Time),536177.6000000006,CFD-BM-015-017-HC.jpg,1000,dash,I,m,1220,4,3,61699.60000000056,474478.0,9045,ATS,B,24
0,test,3,C,haborder.png,0,z,Tue Jun 30 2026 11:10:03 GMT-0400 (Eastern Daylight Time),541411.0,CFD-BM-041-048-A.jpg,1700,solid,I,m,1135,9,3,2866.899999999441,538544.1000000006,9045,ATS,B,1
0,test,3,C,haborder.png,0,m,Tue Jun 30 2026 11:10:03 GMT-0400 (Eastern Daylight Time),543227.6000000006,CFD-WF-011-006-HC.jpg,1000,solid,I,z,793,12,3,4683.5,538544.1000000006,9045,ATS,B,2
0,test,3,C,mfborder.png,0,m,Tue Jun 30 2026 11:10:03 GMT-0400 (Eastern Daylight Time),545960.9000000004,CFD-BM-020-024-HC.jpg,1200,dash,I,None,1516,6,3,7416.799999999814,538544.1000000006,9045,ATS,B,3
1,test,3,C,mfborder.png,1,z,Tue Jun 30 2026 11:10:03 GMT-0400 (Eastern Daylight Time),548410.9000000004,CFD-WF-026-008-A.jpg,1500,dash,I,z,927,3,3,9866.799999999814,538544.1000000006,9045,ATS,B,4
2,test,3,C,haborder.png,1,z,Tue Jun 30 2026 11:10:03 GMT-0400 (Eastern Daylight Time),550927.7000000002,CFD-BM-041-048-A.jpg,1700,solid,I,z,789,9,3,12383.599999999627,538544.1000000006,9045,ATS,B,5
3,test,3,C,mfborder.png,1,z,Tue Jun 30 2026 11:10:03 GMT-0400 (Eastern Daylight Time),553677.5,CFD-BF-051-043-A.jpg,1600,dash,I,z,1124,2,3,15133.399999999441,538544.1000000006,9045,ATS,B,6
4,test,3,C,mfborder.png,1,z,Tue Jun 30 2026 11:10:03 GMT-0400 (Eastern Daylight Time),556394.2000000002,CFD-BF-027-013-HC.jpg,1700,dash,I,z,994,1,3,17850.099999999627,538544.1000000006,9045,ATS,B,7
5,test,3,C,mfborder.png,1,m,Tue Jun 30 2026 11:10:03 GMT-0400 (Eastern Daylight Time),559560.8000000007,CFD-WM-037-060-A.jpg,2000,dash,I,m,1145,5,3,21016.700000000186,538544.1000000006,9045,ATS,B,8
5,test,3,C,haborder.png,0,z,Tue Jun 30 2026 11:10:03 GMT-0400 (Eastern Daylight Time),562277.5,CFD-BM-037-041-A.jpg,1900,solid,I,m,783,8,3,23733.39999999944,538544.1000000006,9045,ATS,B,9
6,test,3,C,haborder.png,1,m,Tue Jun 30 2026 11:10:03 GMT-0400 (Eastern Daylight Time),564760.8000000007,CFD-BF-035-007-HC.jpg,1600,solid,I,m,862,10,3,26216.700000000186,538544.1000000006,9045,ATS,B,10
6,test,3,C,haborder.png,0,m,Tue Jun 30 2026 11:10:03 GMT-0400 (Eastern Daylight Time),567794.2000000002,CFD-WF-027-007-HC.jpg,1500,solid,I,None,1516,11,3,29250.099999999627,538544.1000000006,9045,ATS,B,11
7,test,3,C,haborder.png,1,m,Tue Jun 30 2026 11:10:03 GMT-0400 (Eastern Daylight Time),569927.3000000007,CFD-BF-035-007-HC.jpg,1600,solid,I,m,514,10,3,31383.200000000186,538544.1000000006,9045,ATS,B,12
7,test,3,C,haborder.png,0,z,Tue Jun 30 2026 11:10:03 GMT-0400 (Eastern Daylight Time),572277.5,CFD-WM-009-009-A.jpg,1400,solid,I,m,916,7,3,33733.39999999944,538544.1000000006,9045,ATS,B,13
8,test,3,C,mfborder.png,1,m,Tue Jun 30 2026 11:10:03 GMT-0400 (Eastern Daylight Time),574110.9000000004,CFD-WM-012-007-HC.jpg,1000,dash,I,m,807,4,3,35566.799999999814,538544.1000000006,9045,ATS,B,14
9,test,3,C,mfborder.png,1,z,Tue Jun 30 2026 11:10:03 GMT-0400 (Eastern Daylight Time),576494.2000000002,CFD-BF-051-043-A.jpg,1600,dash,I,z,757,2,3,37950.09999999963,538544.1000000006,9045,ATS,B,15
9,test,3,C,mfborder.png,0,m,Tue Jun 30 2026 11:10:03 GMT-0400 (Eastern Daylight Time),579377.5,CFD-WM-037-060-A.jpg,2000,dash,I,z,854,5,3,40833.39999999944,538544.1000000006,9045,ATS,B,16
9,test,3,C,mfborder.png,0,m,Tue Jun 30 2026 11:10:03 GMT-0400 (Eastern Daylight Time),581294.1000000006,CFD-WM-012-007-HC.jpg,1000,dash,I,z,890,4,3,42750.0,538544.1000000006,9045,ATS,B,17
10,test,3,C,mfborder.png,1,m,Tue Jun 30 2026 11:10:03 GMT-0400 (Eastern Daylight Time),583594.2000000002,CFD-BM-020-024-HC.jpg,1200,dash,I,m,1078,6,3,45050.09999999963,538544.1000000006,9045,ATS,B,18
10,test,3,C,haborder.png,0,m,Tue Jun 30 2026 11:10:03 GMT-0400 (Eastern Daylight Time),585527.2000000002,CFD-WF-011-006-HC.jpg,1000,solid,I,z,914,12,3,46983.09999999963,538544.1000000006,9045,ATS,B,19
11,test,3,C,mfborder.png,1,z,Tue Jun 30 2026 11:10:03 GMT-0400 (Eastern Daylight Time),588444.2000000002,CFD-WF-026-008-A.jpg,1500,dash,I,z,1392,3,3,49900.09999999963,538544.1000000006,9045,ATS,B,20
11,test,3,C,haborder.png,0,z,Tue Jun 30 2026 11:10:03 GMT-0400 (Eastern Daylight Time),590777.4000000004,CFD-BM-037-041-A.jpg,1900,solid,I,m,412,8,3,52233.299999999814,538544.1000000006,9045,ATS,B,21
11,test,3,C,haborder.png,0,z,Tue Jun 30 2026 11:10:03 GMT-0400 (Eastern Daylight Time),592760.8000000007,CFD-WM-009-009-A.jpg,1400,solid,I,m,562,7,3,54216.700000000186,538544.1000000006,9045,ATS,B,22
11,test,3,C,haborder.png,0,m,Tue Jun 30 2026 11:10:03 GMT-0400 (Eastern Daylight Time),595594.1000000006,CFD-WF-027-007-HC.jpg,1500,solid,I,z,1311,11,3,57050.0,538544.1000000006,9045,ATS,B,23
11,test,3,C,mfborder.png,0,z,Tue Jun 30 2026 11:10:03 GMT-0400 (Eastern Daylight Time),598627.6000000006,CFD-BF-027-013-HC.jpg,1700,dash,I,m,1302,1,3,60083.5,538544.1000000006,9045,ATS,B,24
0,test,4,C,mfborder.png,0,m,Tue Jun 30 2026 11:10:03 GMT-0400 (Eastern Daylight Time),603227.8000000007,CFD-WM-009-009-A.jpg,1200,dash,I,None,1516,6,3,2733.5,600494.3000000007,9045,ATS,B,1
1,test,4,C,haborder.png,1,m,Tue Jun 30 2026 11:10:03 GMT-0400 (Eastern Daylight Time),605594.1000000006,CFD-BM-020-024-HC.jpg,1600,solid,I,m,744,10,3,5099.799999999814,600494.3000000007,9045,ATS,B,2
2,test,4,C,mfborder.png,1,z,Tue Jun 30 2026 11:10:03 GMT-0400 (Eastern Daylight Time),608044.0,CFD-BF-035-007-HC.jpg,1500,dash,I,z,926,3,3,7549.699999999255,600494.3000000007,9045,ATS,B,3
3,test,4,C,mfborder.png,1,m,Tue Jun 30 2026 11:10:03 GMT-0400 (Eastern Daylight Time),609877.6000000006,CFD-BM-015-017-HC.jpg,1000,dash,I,m,816,4,3,9383.299999999814,600494.3000000007,9045,ATS,B,4
4,test,4,C,haborder.png,1,m,Tue Jun 30 2026 11:10:03 GMT-0400 (Eastern Daylight Time),611627.4000000004,CFD-WM-011-006-HC.jpg,1000,solid,I,m,726,12,3,11133.099999999627,600494.3000000007,9045,ATS,B,5
5,test,4,C,haborder.png,1,m,Tue Jun 30 2026 11:10:03 GMT-0400 (Eastern Daylight Time),613710.8000000007,CFD-WM-011-006-HC.jpg,1500,solid,I,m,556,11,3,13216.5,600494.3000000007,9045,ATS,B,6
5,test,4,C,mfborder.png,0,z,Tue Jun 30 2026 11:10:03 GMT-0400 (Eastern Daylight Time),616677.5,CFD-WF-011-006-HC.jpg,1700,dash,I,m,1249,1,3,16183.199999999255,600494.3000000007,9045,ATS,B,7
5,test,4,C,mfborder.png,0,m,Tue Jun 30 2026 11:10:03 GMT-0400 (Eastern Daylight Time),620210.9000000004,CFD-BM-037-041-A.jpg,2000,dash,I,None,1516,5,3,19716.599999999627,600494.3000000007,9045,ATS,B,8
6,test,4,C,haborder.png,1,z,Tue Jun 30 2026 11:10:03 GMT-0400 (Eastern Daylight Time),622695.0,CFD-WF-026-008-A.jpg,1700,solid,I,z,765,9,3,22200.699999999255,600494.3000000007,9045,ATS,B,9
6,test,4,C,haborder.png,0,m,Tue Jun 30 2026 11:10:03 GMT-0400 (Eastern Daylight Time),624744.0,CFD-WM-011-006-HC.jpg,1000,solid,I,z,1030,12,3,24249.699999999255,600494.3000000007,9045,ATS,B,10
7,test,4,C,haborder.png,1,z,Tue Jun 30 2026 11:10:03 GMT-0400 (Eastern Daylight Time),627777.4000000004,CFD-BF-050-012-A.jpg,1900,solid,I,z,1104,8,3,27283.099999999627,600494.3000000007,9045,ATS,B,11
8,test,4,C,mfborder.png,1,z,Tue Jun 30 2026 11:10:03 GMT-0400 (Eastern Daylight Time),630077.4000000004,CFD-WF-013-015-A.jpg,1600,dash,I,z,674,2,3,29583.099999999627,600494.3000000007,9045,ATS,B,12
9,test,4,C,mfborder.png,1,m,Tue Jun 30 2026 11:10:03 GMT-0400 (Eastern Daylight Time),632894.1000000006,CFD-BM-037-041-A.jpg,2000,dash,I,m,790,5,3,32399.799999999814,600494.3000000007,9045,ATS,B,13
9,test,4,C,mfborder.png,0,z,Tue Jun 30 2026 11:10:03 GMT-0400 (Eastern Daylight Time),635677.3000000007,CFD-BF-035-007-HC.jpg,1500,dash,I,m,1258,3,3,35183.0,600494.3000000007,9045,ATS,B,14
10,test,4,C,haborder.png,1,z,Tue Jun 30 2026 11:10:03 GMT-0400 (Eastern Daylight Time),637910.5,CFD-BF-051-043-A.jpg,1400,solid,I,z,814,7,3,37416.199999999255,600494.3000000007,9045,ATS,B,15
11,test,4,C,mfborder.png,1,m,Tue Jun 30 2026 11:10:03 GMT-0400 (Eastern Daylight Time),640094.1000000006,CFD-WM-009-009-A.jpg,1200,dash,I,m,957,6,3,39599.799999999814,600494.3000000007,9045,ATS,B,16
11,test,4,C,mfborder.png,0,z,Tue Jun 30 2026 11:10:03 GMT-0400 (Eastern Daylight Time),642927.4000000004,CFD-WF-011-006-HC.jpg,1700,dash,I,m,1106,1,3,42433.09999999963,600494.3000000007,9045,ATS,B,17
12,test,4,C,mfborder.png,1,z,Tue Jun 30 2026 11:10:03 GMT-0400 (Eastern Daylight Time),645694.0,CFD-WF-013-015-A.jpg,1600,dash,I,z,1140,2,3,45199.699999999255,600494.3000000007,9045,ATS,B,18
12,test,4,C,mfborder.png,0,m,Tue Jun 30 2026 11:10:03 GMT-0400 (Eastern Daylight Time),647910.4000000004,CFD-BM-015-017-HC.jpg,1000,dash,I,z,1198,4,3,47416.09999999963,600494.3000000007,9045,ATS,B,19
13,test,4,C,haborder.png,1,m,Tue Jun 30 2026 11:10:03 GMT-0400 (Eastern Daylight Time),650127.4000000004,CFD-WM-011-006-HC.jpg,1500,solid,I,m,689,11,3,49633.09999999963,600494.3000000007,9045,ATS,B,20
14,test,4,C,haborder.png,1,z,Tue Jun 30 2026 11:10:03 GMT-0400 (Eastern Daylight Time),652927.3000000007,CFD-WF-026-008-A.jpg,1700,solid,I,z,1072,9,3,52433.0,600494.3000000007,9045,ATS,B,21
15,test,4,C,haborder.png,1,m,Tue Jun 30 2026 11:10:03 GMT-0400 (Eastern Daylight Time),655444.0,CFD-BM-020-024-HC.jpg,1600,solid,I,m,885,10,3,54949.699999999255,600494.3000000007,9045,ATS,B,22
16,test,4,C,haborder.png,1,z,Tue Jun 30 2026 11:10:03 GMT-0400 (Eastern Daylight Time),657793.9000000004,CFD-BF-051-043-A.jpg,1400,solid,I,z,920,7,3,57299.59999999963,600494.3000000007,9045,ATS,B,23
17,test,4,C,haborder.png,1,z,Tue Jun 30 2026 11:10:03 GMT-0400 (Eastern Daylight Time),660660.7000000002,CFD-BF-050-012-A.jpg,1900,solid,I,z,934,8,3,60166.39999999944,600494.3000000007,9045,ATS,B,24
