acc_sum,block,block_c,change,condition,correct,correct_response,datetime,endtime,face,project,response,response_time,row_sel,session_number,start_end,starttime,subject_id,task,task_vers,trial
0,prac,1,,1-Back,,,Fri May 30 2025 14:27:27 GMT-0500 (Central Daylight Time),,097_m_f_n_a.png,I,space,3652,1,2,,,8035,NNB,B,0
1,prac,1,0.0,1-Back,1,m,Fri May 30 2025 14:27:27 GMT-0500 (Central Daylight Time),95240.09999999404,152_y_f_n_a.png,I,m,1531,2,2,2409.2999999821186,92830.80000001192,8035,NNB,B,1
2,prac,1,1.0,1-Back,1,z,Fri May 30 2025 14:27:27 GMT-0500 (Central Daylight Time),97355.80000001192,152_y_f_n_a.png,I,z,1340,3,2,2109.800000011921,95246.0,8035,NNB,B,2
3,prac,1,0.0,1-Back,1,m,Fri May 30 2025 14:27:27 GMT-0500 (Central Daylight Time),99105.40000000596,176_o_m_n_a.png,I,m,856,4,2,1742.2000000178814,97363.19999998808,8035,NNB,B,3
4,prac,1,0.0,1-Back,1,m,Fri May 30 2025 14:27:27 GMT-0500 (Central Daylight Time),100754.90000000596,126_m_m_n_a.png,I,m,868,5,2,1644.2000000178814,99110.69999998808,8035,NNB,B,4
5,prac,1,1.0,1-Back,1,z,Fri May 30 2025 14:27:27 GMT-0500 (Central Daylight Time),102454.5,126_m_m_n_a.png,I,z,922,6,2,1694.199999988079,100760.30000001192,8035,NNB,B,5
6,prac,1,0.0,1-Back,1,m,Fri May 30 2025 14:27:27 GMT-0500 (Central Daylight Time),104370.59999999404,086_o_f_n_a.png,I,m,1132,7,2,1908.199999988079,102462.40000000596,8035,NNB,B,6
7,prac,1,0.0,1-Back,1,m,Fri May 30 2025 14:27:27 GMT-0500 (Central Daylight Time),106003.19999998808,178_m_m_n_a.png,I,m,759,8,2,1626.3999999761581,104376.80000001192,8035,NNB,B,7
8,prac,1,0.0,1-Back,1,m,Fri May 30 2025 14:27:27 GMT-0500 (Central Daylight Time),107686.0,097_m_f_n_a.png,I,m,904,9,2,1675.5,106010.5,8035,NNB,B,8
9,prac,1,1.0,1-Back,1,z,Fri May 30 2025 14:27:27 GMT-0500 (Central Daylight Time),109368.69999998808,097_m_f_n_a.png,I,z,895,10,2,1677.199999988079,107691.5,8035,NNB,B,9
10,prac,1,0.0,1-Back,1,m,Fri May 30 2025 14:27:27 GMT-0500 (Central Daylight Time),110835.09999999404,176_o_m_n_a.png,I,m,679,11,2,1455.5,109379.59999999404,8035,NNB,B,10
11,prac,1,0.0,1-Back,1,m,Fri May 30 2025 14:27:27 GMT-0500 (Central Daylight Time),112884.19999998808,173_y_f_n_a.png,I,m,1192,12,2,2041.3999999761581,110842.80000001192,8035,NNB,B,11
0,test,1,0.0,1-Back,,,Fri May 30 2025 14:27:27 GMT-0500 (Central Daylight Time),112884.19999998808,152_y_f_n_a.png,I,space,7095,1,2,2041.3999999761581,110842.80000001192,8035,NNB,B,0
1,test,1,0.0,1-Back,1,m,Fri May 30 2025 14:27:27 GMT-0500 (Central Daylight Time),130978.59999999404,029_m_f_n_a.png,I,m,1633,2,2,2660.4000000059605,128318.19999998808,8035,NNB,B,1
2,test,1,0.0,1-Back,1,m,Fri May 30 2025 14:27:27 GMT-0500 (Central Daylight Time),132728.09999999404,173_y_f_n_a.png,I,m,727,3,2,1745.4000000059605,130982.69999998808,8035,NNB,B,2
3,test,1,1.0,1-Back,1,z,Fri May 30 2025 14:27:27 GMT-0500 (Central Daylight Time),134394.19999998808,173_y_f_n_a.png,I,z,634,4,2,1661.5999999940395,132732.59999999404,8035,NNB,B,3
4,test,1,0.0,1-Back,1,m,Fri May 30 2025 14:27:27 GMT-0500 (Central Daylight Time),136027.0,029_m_f_n_a.png,I,m,616,5,2,1629.5,134397.5,8035,NNB,B,4
5,test,1,0.0,1-Back,1,m,Fri May 30 2025 14:27:27 GMT-0500 (Central Daylight Time),137793.19999998808,176_o_m_n_a.png,I,m,743,6,2,1762.0,136031.19999998808,8035,NNB,B,5
6,test,1,1.0,1-Back,1,z,Fri May 30 2025 14:27:27 GMT-0500 (Central Daylight Time),139659.30000001192,176_o_m_n_a.png,I,z,841,7,2,1862.1000000238419,137797.19999998808,8035,NNB,B,6
7,test,1,0.0,1-Back,1,m,Fri May 30 2025 14:27:27 GMT-0500 (Central Daylight Time),141475.80000001192,126_m_m_n_a.png,I,m,799,8,2,1812.1000000238419,139663.69999998808,8035,NNB,B,7
8,test,1,0.0,1-Back,1,m,Fri May 30 2025 14:27:27 GMT-0500 (Central Daylight Time),143341.40000000596,086_o_f_n_a.png,I,m,847,9,2,1860.7000000178814,141480.69999998808,8035,NNB,B,8
9,test,1,0.0,1-Back,1,m,Fri May 30 2025 14:27:27 GMT-0500 (Central Daylight Time),145240.80000001192,126_m_m_n_a.png,I,m,869,10,2,1895.0,143345.80000001192,8035,NNB,B,9
10,test,1,0.0,1-Back,1,m,Fri May 30 2025 14:27:27 GMT-0500 (Central Daylight Time),146973.59999999404,153_y_m_n_a.png,I,m,705,11,2,1729.5999999940395,145244.0,8035,NNB,B,10
11,test,1,1.0,1-Back,1,z,Fri May 30 2025 14:27:27 GMT-0500 (Central Daylight Time),148706.40000000596,153_y_m_n_a.png,I,z,700,12,2,1728.9000000059605,146977.5,8035,NNB,B,11
12,test,1,0.0,1-Back,1,m,Fri May 30 2025 14:27:27 GMT-0500 (Central Daylight Time),150555.90000000596,110_o_f_n_a.png,I,m,823,13,2,1845.800000011921,148710.09999999404,8035,NNB,B,12
12,test,1,1.0,1-Back,0,z,Fri May 30 2025 14:27:27 GMT-0500 (Central Daylight Time),152205.40000000596,110_o_f_n_a.png,I,m,630,14,2,1645.4000000059605,150560.0,8035,NNB,B,13
13,test,1,0.0,1-Back,1,m,Fri May 30 2025 14:27:27 GMT-0500 (Central Daylight Time),154488.09999999404,013_y_m_n_a.png,I,m,1253,15,2,2278.199999988079,152209.90000000596,8035,NNB,B,14
14,test,1,0.0,1-Back,1,m,Fri May 30 2025 14:27:27 GMT-0500 (Central Daylight Time),156437.5,097_m_f_n_a.png,I,m,930,16,2,1945.0999999940395,154492.40000000596,8035,NNB,B,15
15,test,1,0.0,1-Back,1,m,Fri May 30 2025 14:27:27 GMT-0500 (Central Daylight Time),158086.80000001192,065_o_m_n_a.png,I,m,621,17,2,1645.7000000178814,156441.09999999404,8035,NNB,B,16
16,test,1,0.0,1-Back,1,m,Fri May 30 2025 14:27:27 GMT-0500 (Central Daylight Time),160069.40000000596,097_m_f_n_a.png,I,m,955,18,2,1978.800000011921,158090.59999999404,8035,NNB,B,17
0,test,2,0.0,1-Back,,,Fri May 30 2025 14:27:27 GMT-0500 (Central Daylight Time),160069.40000000596,126_m_m_n_a.png,I,space,1677,1,2,1978.800000011921,158090.59999999404,8035,NNB,B,0
1,test,2,0.0,1-Back,1,m,Fri May 30 2025 14:27:27 GMT-0500 (Central Daylight Time),165717.80000001192,029_m_f_n_a.png,I,m,922,2,2,1945.0,163772.80000001192,8035,NNB,B,1
2,test,2,1.0,1-Back,1,z,Fri May 30 2025 14:27:27 GMT-0500 (Central Daylight Time),167417.19999998808,029_m_f_n_a.png,I,z,676,3,2,1696.199999988079,165721.0,8035,NNB,B,2
3,test,2,0.0,1-Back,1,m,Fri May 30 2025 14:27:27 GMT-0500 (Central Daylight Time),169133.5,126_m_m_n_a.png,I,m,697,4,2,1711.9000000059605,167421.59999999404,8035,NNB,B,3
4,test,2,0.0,1-Back,1,m,Fri May 30 2025 14:27:27 GMT-0500 (Central Daylight Time),170882.90000000596,153_y_m_n_a.png,I,m,717,5,2,1745.0,169137.90000000596,8035,NNB,B,4
5,test,2,0.0,1-Back,1,m,Fri May 30 2025 14:27:27 GMT-0500 (Central Daylight Time),172765.19999998808,152_y_f_n_a.png,I,m,863,6,2,1878.199999988079,170887.0,8035,NNB,B,5
6,test,2,1.0,1-Back,1,z,Fri May 30 2025 14:27:27 GMT-0500 (Central Daylight Time),174598.30000001192,152_y_f_n_a.png,I,z,813,7,2,1828.9000000059605,172769.40000000596,8035,NNB,B,6
7,test,2,0.0,1-Back,1,m,Fri May 30 2025 14:27:27 GMT-0500 (Central Daylight Time),176264.40000000596,153_y_m_n_a.png,I,m,644,8,2,1661.5,174602.90000000596,8035,NNB,B,7
8,test,2,0.0,1-Back,1,m,Fri May 30 2025 14:27:27 GMT-0500 (Central Daylight Time),178097.30000001192,110_o_f_n_a.png,I,m,802,9,2,1828.300000011921,176269.0,8035,NNB,B,8
9,test,2,0.0,1-Back,1,m,Fri May 30 2025 14:27:27 GMT-0500 (Central Daylight Time),179763.30000001192,178_m_m_n_a.png,I,m,649,10,2,1661.7000000178814,178101.59999999404,8035,NNB,B,9
9,test,2,1.0,1-Back,0,z,Fri May 30 2025 14:27:27 GMT-0500 (Central Daylight Time),181579.59999999404,178_m_m_n_a.png,I,m,784,11,2,1812.0999999940395,179767.5,8035,NNB,B,10
10,test,2,0.0,1-Back,1,m,Fri May 30 2025 14:27:27 GMT-0500 (Central Daylight Time),183262.19999998808,110_o_f_n_a.png,I,m,655,12,2,1679.199999988079,181583.0,8035,NNB,B,11
11,test,2,0.0,1-Back,1,m,Fri May 30 2025 14:27:27 GMT-0500 (Central Daylight Time),184928.5,086_o_f_n_a.png,I,m,644,13,2,1662.300000011921,183266.19999998808,8035,NNB,B,12
12,test,2,0.0,1-Back,1,m,Fri May 30 2025 14:27:27 GMT-0500 (Central Daylight Time),186561.40000000596,176_o_m_n_a.png,I,m,610,14,2,1628.800000011921,184932.59999999404,8035,NNB,B,13
13,test,2,0.0,1-Back,1,m,Fri May 30 2025 14:27:27 GMT-0500 (Central Daylight Time),188127.0,065_o_m_n_a.png,I,m,545,15,2,1561.4000000059605,186565.59999999404,8035,NNB,B,14
14,test,2,1.0,1-Back,1,z,Fri May 30 2025 14:27:27 GMT-0500 (Central Daylight Time),189710.19999998808,065_o_m_n_a.png,I,z,555,16,2,1579.0,188131.19999998808,8035,NNB,B,15
15,test,2,0.0,1-Back,1,m,Fri May 30 2025 14:27:27 GMT-0500 (Central Daylight Time),191409.59999999404,013_y_m_n_a.png,I,m,676,17,2,1695.4000000059605,189714.19999998808,8035,NNB,B,16
16,test,2,1.0,1-Back,1,z,Fri May 30 2025 14:27:27 GMT-0500 (Central Daylight Time),193075.90000000596,013_y_m_n_a.png,I,z,633,18,2,1662.300000011921,191413.59999999404,8035,NNB,B,17
0,test,3,1.0,1-Back,,,Fri May 30 2025 14:27:27 GMT-0500 (Central Daylight Time),193075.90000000596,173_y_f_n_a.png,I,space,1318,1,2,1662.300000011921,191413.59999999404,8035,NNB,B,0
1,test,3,0.0,1-Back,1,m,Fri May 30 2025 14:27:27 GMT-0500 (Central Daylight Time),198274.19999998808,065_o_m_n_a.png,I,m,726,1,2,1744.8999999761581,196529.30000001192,8035,NNB,B,1
2,test,3,1.0,1-Back,1,z,Fri May 30 2025 14:27:27 GMT-0500 (Central Daylight Time),200157.30000001192,065_o_m_n_a.png,I,z,855,1,2,1879.1000000238419,198278.19999998808,8035,NNB,B,2
3,test,3,0.0,1-Back,1,m,Fri May 30 2025 14:27:27 GMT-0500 (Central Daylight Time),202106.30000001192,097_m_f_n_a.png,I,m,925,1,2,1944.9000000059605,200161.40000000596,8035,NNB,B,3
4,test,3,1.0,1-Back,1,z,Fri May 30 2025 14:27:27 GMT-0500 (Central Daylight Time),203722.40000000596,097_m_f_n_a.png,I,z,592,1,2,1612.300000011921,202110.09999999404,8035,NNB,B,4
5,test,3,0.0,1-Back,1,m,Fri May 30 2025 14:27:27 GMT-0500 (Central Daylight Time),205338.69999998808,110_o_f_n_a.png,I,m,584,1,2,1612.5999999940395,203726.09999999404,8035,NNB,B,5
6,test,3,0.0,1-Back,1,m,Fri May 30 2025 14:27:27 GMT-0500 (Central Daylight Time),207204.80000001192,153_y_m_n_a.png,I,m,774,1,2,1861.7000000178814,205343.09999999404,8035,NNB,B,6
7,test,3,0.0,1-Back,1,m,Fri May 30 2025 14:27:27 GMT-0500 (Central Daylight Time),209170.69999998808,110_o_f_n_a.png,I,m,933,1,2,1961.0999999940395,207209.59999999404,8035,NNB,B,7
8,test,3,0.0,1-Back,1,m,Fri May 30 2025 14:27:27 GMT-0500 (Central Daylight Time),211153.69999998808,013_y_m_n_a.png,I,m,959,1,2,1979.0999999940395,209174.59999999404,8035,NNB,B,8
9,test,3,1.0,1-Back,1,z,Fri May 30 2025 14:27:27 GMT-0500 (Central Daylight Time),212786.30000001192,013_y_m_n_a.png,I,z,601,1,2,1628.800000011921,211157.5,8035,NNB,B,9
10,test,3,0.0,1-Back,1,m,Fri May 30 2025 14:27:27 GMT-0500 (Central Daylight Time),214635.90000000596,029_m_f_n_a.png,I,m,824,1,2,1845.4000000059605,212790.5,8035,NNB,B,10
11,test,3,0.0,1-Back,1,m,Fri May 30 2025 14:27:27 GMT-0500 (Central Daylight Time),216451.69999998808,152_y_f_n_a.png,I,m,798,1,2,1811.8999999761581,214639.80000001192,8035,NNB,B,11
11,test,3,1.0,1-Back,0,z,Fri May 30 2025 14:27:27 GMT-0500 (Central Daylight Time),218267.69999998808,152_y_f_n_a.png,I,m,798,1,2,1811.5999999940395,216456.09999999404,8035,NNB,B,12
12,test,3,0.0,1-Back,1,m,Fri May 30 2025 14:27:27 GMT-0500 (Central Daylight Time),220300.59999999404,029_m_f_n_a.png,I,m,1014,1,2,2028.5999999940395,218272.0,8035,NNB,B,13
13,test,3,0.0,1-Back,1,m,Fri May 30 2025 14:27:27 GMT-0500 (Central Daylight Time),221916.69999998808,126_m_m_n_a.png,I,m,589,1,2,1613.0999999940395,220303.59999999404,8035,NNB,B,14
14,test,3,1.0,1-Back,1,z,Fri May 30 2025 14:27:27 GMT-0500 (Central Daylight Time),223932.90000000596,126_m_m_n_a.png,I,z,990,1,2,2012.2000000178814,221920.69999998808,8035,NNB,B,15
15,test,3,0.0,1-Back,1,m,Fri May 30 2025 14:27:27 GMT-0500 (Central Daylight Time),226082.09999999404,086_o_f_n_a.png,I,m,1118,1,2,2144.699999988079,223937.40000000596,8035,NNB,B,16
16,test,3,1.0,1-Back,1,z,Fri May 30 2025 14:27:27 GMT-0500 (Central Daylight Time),227631.59999999404,086_o_f_n_a.png,I,z,528,1,2,1546.2999999821186,226085.30000001192,8035,NNB,B,17
0,test,4,1.0,1-Back,,,Fri May 30 2025 14:27:27 GMT-0500 (Central Daylight Time),227631.59999999404,097_m_f_n_a.png,I,space,1171,1,2,1546.2999999821186,226085.30000001192,8035,NNB,B,0
1,test,4,0.0,1-Back,1,m,Fri May 30 2025 14:27:27 GMT-0500 (Central Daylight Time),232596.69999998808,065_o_m_n_a.png,I,m,639,2,2,1662.3999999761581,230934.30000001192,8035,NNB,B,1
2,test,4,0.0,1-Back,1,m,Fri May 30 2025 14:27:27 GMT-0500 (Central Daylight Time),234629.59999999404,097_m_f_n_a.png,I,m,1005,3,2,2029.2999999821186,232600.30000001192,8035,NNB,B,2
3,test,4,0.0,1-Back,1,m,Fri May 30 2025 14:27:27 GMT-0500 (Central Daylight Time),236162.30000001192,110_o_f_n_a.png,I,m,507,4,2,1529.5,234632.80000001192,8035,NNB,B,3
4,test,4,1.0,1-Back,1,z,Fri May 30 2025 14:27:27 GMT-0500 (Central Daylight Time),237678.40000000596,110_o_f_n_a.png,I,z,496,5,2,1512.300000011921,236166.09999999404,8035,NNB,B,4
5,test,4,0.0,1-Back,1,m,Fri May 30 2025 14:27:27 GMT-0500 (Central Daylight Time),239277.90000000596,152_y_f_n_a.png,I,m,580,6,2,1595.0999999940395,237682.80000001192,8035,NNB,B,5
6,test,4,0.0,1-Back,1,m,Fri May 30 2025 14:27:27 GMT-0500 (Central Daylight Time),241010.59999999404,153_y_m_n_a.png,I,m,708,7,2,1728.5,239282.09999999404,8035,NNB,B,6
7,test,4,1.0,1-Back,1,z,Fri May 30 2025 14:27:27 GMT-0500 (Central Daylight Time),242827.09999999404,153_y_m_n_a.png,I,z,784,8,2,1812.5999999940395,241014.5,8035,NNB,B,7
8,test,4,0.0,1-Back,1,m,Fri May 30 2025 14:27:27 GMT-0500 (Central Daylight Time),244793.0,152_y_f_n_a.png,I,m,935,9,2,1961.800000011921,242831.19999998808,8035,NNB,B,8
9,test,4,0.0,1-Back,1,m,Fri May 30 2025 14:27:27 GMT-0500 (Central Daylight Time),246492.5,178_m_m_n_a.png,I,m,673,10,2,1695.0999999940395,244797.40000000596,8035,NNB,B,9
10,test,4,1.0,1-Back,1,z,Fri May 30 2025 14:27:27 GMT-0500 (Central Daylight Time),248091.90000000596,178_m_m_n_a.png,I,z,574,11,2,1595.7000000178814,246496.19999998808,8035,NNB,B,10
11,test,4,0.0,1-Back,1,m,Fri May 30 2025 14:27:27 GMT-0500 (Central Daylight Time),249674.90000000596,086_o_f_n_a.png,I,m,558,12,2,1579.800000011921,248095.09999999404,8035,NNB,B,11
12,test,4,0.0,1-Back,1,m,Fri May 30 2025 14:27:27 GMT-0500 (Central Daylight Time),251290.90000000596,176_o_m_n_a.png,I,m,592,13,2,1611.800000011921,249679.09999999404,8035,NNB,B,12
13,test,4,0.0,1-Back,1,m,Fri May 30 2025 14:27:27 GMT-0500 (Central Daylight Time),252807.0,086_o_f_n_a.png,I,m,487,14,2,1509.5999999940395,251297.40000000596,8035,NNB,B,13
14,test,4,0.0,1-Back,1,m,Fri May 30 2025 14:27:27 GMT-0500 (Central Daylight Time),254456.5,173_y_f_n_a.png,I,m,619,15,2,1645.699999988079,252810.80000001192,8035,NNB,B,14
15,test,4,1.0,1-Back,1,z,Fri May 30 2025 14:27:27 GMT-0500 (Central Daylight Time),256122.90000000596,173_y_f_n_a.png,I,z,634,16,2,1662.5,254460.40000000596,8035,NNB,B,15
16,test,4,0.0,1-Back,1,m,Fri May 30 2025 14:27:27 GMT-0500 (Central Daylight Time),257971.90000000596,029_m_f_n_a.png,I,m,831,17,2,1844.800000011921,256127.09999999404,8035,NNB,B,16
17,test,4,1.0,1-Back,1,z,Fri May 30 2025 14:27:27 GMT-0500 (Central Daylight Time),259471.80000001192,029_m_f_n_a.png,I,z,470,18,2,1496.0,257975.80000001192,8035,NNB,B,17
0,test,5,1.0,1-Back,,,Fri May 30 2025 14:27:27 GMT-0500 (Central Daylight Time),259471.80000001192,176_o_m_n_a.png,I,space,1067,1,2,1496.0,257975.80000001192,8035,NNB,B,0
1,test,5,1.0,1-Back,1,z,Fri May 30 2025 14:27:27 GMT-0500 (Central Daylight Time),264386.5,176_o_m_n_a.png,I,z,784,2,2,1811.300000011921,262575.1999999881,8035,NNB,B,1
2,test,5,0.0,1-Back,1,m,Fri May 30 2025 14:27:27 GMT-0500 (Central Daylight Time),266136.09999999404,152_y_f_n_a.png,I,m,728,3,2,1745.0,264391.09999999404,8035,NNB,B,2
3,test,5,0.0,1-Back,1,m,Fri May 30 2025 14:27:27 GMT-0500 (Central Daylight Time),268119.0,153_y_m_n_a.png,I,m,962,4,2,1979.5999999940395,266139.40000000596,8035,NNB,B,3
4,test,5,0.0,1-Back,1,m,Fri May 30 2025 14:27:27 GMT-0500 (Central Daylight Time),269751.6999999881,152_y_f_n_a.png,I,m,603,5,2,1629.0999999940395,268122.59999999404,8035,NNB,B,4
5,test,5,0.0,1-Back,1,m,Fri May 30 2025 14:27:27 GMT-0500 (Central Daylight Time),271551.1999999881,126_m_m_n_a.png,I,m,770,6,2,1795.0999999940395,269756.09999999404,8035,NNB,B,5
5,test,5,1.0,1-Back,0,z,Fri May 30 2025 14:27:27 GMT-0500 (Central Daylight Time),273150.6999999881,126_m_m_n_a.png,I,m,579,7,2,1595.3999999761581,271555.3000000119,8035,NNB,B,6
6,test,5,0.0,1-Back,1,m,Fri May 30 2025 14:27:27 GMT-0500 (Central Daylight Time),274817.09999999404,173_y_f_n_a.png,I,m,644,8,2,1663.0,273154.09999999404,8035,NNB,B,7
7,test,5,0.0,1-Back,1,m,Fri May 30 2025 14:27:27 GMT-0500 (Central Daylight Time),276533.09999999404,013_y_m_n_a.png,I,m,689,9,2,1712.199999988079,274820.90000000596,8035,NNB,B,8
8,test,5,0.0,1-Back,1,m,Fri May 30 2025 14:27:27 GMT-0500 (Central Daylight Time),278149.09999999404,173_y_f_n_a.png,I,m,597,10,2,1612.0999999940395,276537.0,8035,NNB,B,9
9,test,5,0.0,1-Back,1,m,Fri May 30 2025 14:27:27 GMT-0500 (Central Daylight Time),279798.6999999881,086_o_f_n_a.png,I,m,621,11,2,1645.5,278153.1999999881,8035,NNB,B,10
10,test,5,1.0,1-Back,1,z,Fri May 30 2025 14:27:27 GMT-0500 (Central Daylight Time),281232.59999999404,086_o_f_n_a.png,I,z,404,12,2,1430.2999999821186,279802.3000000119,8035,NNB,B,11
11,test,5,0.0,1-Back,1,m,Fri May 30 2025 14:27:27 GMT-0500 (Central Daylight Time),282764.1999999881,065_o_m_n_a.png,I,m,515,13,2,1527.0999999940395,281237.09999999404,8035,NNB,B,12
12,test,5,0.0,1-Back,1,m,Fri May 30 2025 14:27:27 GMT-0500 (Central Daylight Time),284430.40000000596,097_m_f_n_a.png,I,m,646,14,2,1662.0999999940395,282768.3000000119,8035,NNB,B,13
13,test,5,1.0,1-Back,1,z,Fri May 30 2025 14:27:27 GMT-0500 (Central Daylight Time),286096.59999999404,097_m_f_n_a.png,I,z,644,15,2,1662.5999999940395,284434.0,8035,NNB,B,14
14,test,5,0.0,1-Back,1,m,Fri May 30 2025 14:27:27 GMT-0500 (Central Daylight Time),287696.09999999404,065_o_m_n_a.png,I,m,577,16,2,1595.5999999940395,286100.5,8035,NNB,B,15
15,test,5,0.0,1-Back,1,m,Fri May 30 2025 14:27:27 GMT-0500 (Central Daylight Time),289295.59999999404,029_m_f_n_a.png,I,m,570,17,2,1595.5999999940395,287700.0,8035,NNB,B,16
16,test,5,0.0,1-Back,1,m,Fri May 30 2025 14:27:27 GMT-0500 (Central Daylight Time),291161.59999999404,178_m_m_n_a.png,I,m,835,18,2,1862.4000000059605,289299.1999999881,8035,NNB,B,17
0,prac,1,0.0,2-Back,,,Fri May 30 2025 14:27:27 GMT-0500 (Central Daylight Time),291161.59999999404,013_y_m_n_a.png,I,space,4630,1,2,1862.4000000059605,289299.1999999881,8035,NNB,B,0
0,prac,1,0.0,2-Back,,,Fri May 30 2025 14:27:27 GMT-0500 (Central Daylight Time),291161.59999999404,029_m_f_n_a.png,I,space,4630,2,2,1862.4000000059605,289299.1999999881,8035,NNB,B,0
1,prac,1,1.0,2-Back,1,m,Fri May 30 2025 14:27:27 GMT-0500 (Central Daylight Time),395962.40000000596,065_o_m_n_a.png,I,m,1257,3,2,2127.300000011921,393835.09999999404,8035,NNB,B,1
1,prac,1,0.0,2-Back,0,m,Fri May 30 2025 14:27:27 GMT-0500 (Central Daylight Time),398862.3000000119,086_o_f_n_a.png,I,None,2005,4,2,2893.300000011921,395969.0,8035,NNB,B,2
2,prac,1,0.0,2-Back,1,z,Fri May 30 2025 14:27:27 GMT-0500 (Central Daylight Time),401194.40000000596,065_o_m_n_a.png,I,z,1541,5,2,2325.2000000178814,398869.1999999881,8035,NNB,B,3
2,prac,1,1.0,2-Back,0,z,Fri May 30 2025 14:27:27 GMT-0500 (Central Daylight Time),403493.0,086_o_f_n_a.png,I,m,1521,6,2,2292.0999999940395,401200.90000000596,8035,NNB,B,4
2,prac,1,0.0,2-Back,0,m,Fri May 30 2025 14:27:27 GMT-0500 (Central Daylight Time),406375.5,178_m_m_n_a.png,I,None,2010,7,2,2877.0999999940395,403498.40000000596,8035,NNB,B,5
3,prac,1,0.0,2-Back,1,m,Fri May 30 2025 14:27:27 GMT-0500 (Central Daylight Time),408358.40000000596,176_o_m_n_a.png,I,m,1092,8,2,1976.5999999940395,406381.8000000119,8035,NNB,B,6
4,prac,1,0.0,2-Back,1,m,Fri May 30 2025 14:27:27 GMT-0500 (Central Daylight Time),410374.5,173_y_f_n_a.png,I,m,1142,9,2,2009.5,408365.0,8035,NNB,B,7
5,prac,1,1.0,2-Back,1,z,Fri May 30 2025 14:27:27 GMT-0500 (Central Daylight Time),412157.09999999404,176_o_m_n_a.png,I,z,997,10,2,1775.9000000059605,410381.1999999881,8035,NNB,B,8
6,prac,1,0.0,2-Back,1,m,Fri May 30 2025 14:27:27 GMT-0500 (Central Daylight Time),413872.90000000596,152_y_f_n_a.png,I,m,832,11,2,1709.0,412163.90000000596,8035,NNB,B,9
6,prac,1,0.0,2-Back,0,m,Fri May 30 2025 14:27:27 GMT-0500 (Central Daylight Time),415489.40000000596,178_m_m_n_a.png,I,z,827,12,2,1610.0999999940395,413879.3000000119,8035,NNB,B,10
0,test,1,0.0,2-Back,,,Fri May 30 2025 14:27:27 GMT-0500 (Central Daylight Time),415489.40000000596,153_y_m_n_a.png,I,space,5788,1,2,1610.0999999940395,413879.3000000119,8035,NNB,B,0
0,test,1,0.0,2-Back,,,Fri May 30 2025 14:27:27 GMT-0500 (Central Daylight Time),415489.40000000596,153_y_m_n_a.png,I,space,5788,2,2,1610.0999999940395,413879.3000000119,8035,NNB,B,0
1,test,1,0.0,2-Back,1,m,Fri May 30 2025 14:27:27 GMT-0500 (Central Daylight Time),441581.09999999404,086_o_f_n_a.png,I,m,897,3,2,1911.9000000059605,439669.1999999881,8035,NNB,B,1
1,test,1,0.0,2-Back,0,m,Fri May 30 2025 14:27:27 GMT-0500 (Central Daylight Time),444613.6999999881,126_m_m_n_a.png,I,None,2016,4,2,3029.0999999940395,441584.59999999404,8035,NNB,B,2
2,test,1,1.0,2-Back,1,z,Fri May 30 2025 14:27:27 GMT-0500 (Central Daylight Time),446546.09999999404,086_o_f_n_a.png,I,z,909,5,2,1928.699999988079,444617.40000000596,8035,NNB,B,3
3,test,1,0.0,2-Back,1,m,Fri May 30 2025 14:27:27 GMT-0500 (Central Daylight Time),449261.90000000596,152_y_f_n_a.png,I,m,1696,6,2,2711.300000011921,446550.59999999404,8035,NNB,B,4
4,test,1,0.0,2-Back,1,m,Fri May 30 2025 14:27:27 GMT-0500 (Central Daylight Time),451911.3000000119,126_m_m_n_a.png,I,m,1620,7,2,2645.7000000178814,449265.59999999404,8035,NNB,B,5
4,test,1,1.0,2-Back,0,z,Fri May 30 2025 14:27:27 GMT-0500 (Central Daylight Time),454377.1999999881,152_y_f_n_a.png,I,m,1443,8,2,2462.699999988079,451914.5,8035,NNB,B,6
5,test,1,0.0,2-Back,1,m,Fri May 30 2025 14:27:27 GMT-0500 (Central Daylight Time),456676.3000000119,013_y_m_n_a.png,I,m,1273,9,2,2294.9000000059605,454381.40000000596,8035,NNB,B,7
6,test,1,0.0,2-Back,1,m,Fri May 30 2025 14:27:27 GMT-0500 (Central Daylight Time),458925.59999999404,110_o_f_n_a.png,I,m,1222,10,2,2245.199999988079,456680.40000000596,8035,NNB,B,8
7,test,1,1.0,2-Back,1,z,Fri May 30 2025 14:27:27 GMT-0500 (Central Daylight Time),460774.90000000596,013_y_m_n_a.png,I,z,829,11,2,1845.2000000178814,458929.6999999881,8035,NNB,B,9
8,test,1,0.0,2-Back,1,m,Fri May 30 2025 14:27:27 GMT-0500 (Central Daylight Time),462857.8000000119,029_m_f_n_a.png,I,m,1051,12,2,2079.7000000178814,460778.09999999404,8035,NNB,B,10
9,test,1,0.0,2-Back,1,m,Fri May 30 2025 14:27:27 GMT-0500 (Central Daylight Time),465073.6999999881,029_m_f_n_a.png,I,m,1185,13,2,2212.5,462861.1999999881,8035,NNB,B,11
10,test,1,0.0,2-Back,1,m,Fri May 30 2025 14:27:27 GMT-0500 (Central Daylight Time),467140.6999999881,065_o_m_n_a.png,I,m,1048,14,2,2062.899999976158,465077.8000000119,8035,NNB,B,12
10,test,1,0.0,2-Back,0,m,Fri May 30 2025 14:27:27 GMT-0500 (Central Daylight Time),469022.5,110_o_f_n_a.png,I,z,863,15,2,1877.5999999940395,467144.90000000596,8035,NNB,B,13
10,test,1,1.0,2-Back,0,z,Fri May 30 2025 14:27:27 GMT-0500 (Central Daylight Time),471688.3000000119,065_o_m_n_a.png,I,m,1644,16,2,2662.600000023842,469025.6999999881,8035,NNB,B,14
11,test,1,0.0,2-Back,1,m,Fri May 30 2025 14:27:27 GMT-0500 (Central Daylight Time),473687.8000000119,097_m_f_n_a.png,I,m,970,17,2,1995.2000000178814,471692.59999999404,8035,NNB,B,15
12,test,1,0.0,2-Back,1,m,Fri May 30 2025 14:27:27 GMT-0500 (Central Daylight Time),476003.8000000119,178_m_m_n_a.png,I,m,1289,18,2,2312.0,473691.8000000119,8035,NNB,B,16
0,test,2,0.0,2-Back,,,Fri May 30 2025 14:27:27 GMT-0500 (Central Daylight Time),476003.8000000119,178_m_m_n_a.png,I,space,1510,1,2,2312.0,473691.8000000119,8035,NNB,B,0
0,test,2,0.0,2-Back,,,Fri May 30 2025 14:27:27 GMT-0500 (Central Daylight Time),476003.8000000119,173_y_f_n_a.png,I,space,1510,2,2,2312.0,473691.8000000119,8035,NNB,B,0
1,test,2,1.0,2-Back,1,z,Fri May 30 2025 14:27:27 GMT-0500 (Central Daylight Time),484984.59999999404,178_m_m_n_a.png,I,z,1294,3,2,2312.0999999940395,482672.5,8035,NNB,B,1
2,test,2,0.0,2-Back,1,m,Fri May 30 2025 14:27:27 GMT-0500 (Central Daylight Time),486983.40000000596,097_m_f_n_a.png,I,m,978,4,2,1995.0,484988.40000000596,8035,NNB,B,2
2,test,2,0.0,2-Back,0,m,Fri May 30 2025 14:27:27 GMT-0500 (Central Daylight Time),489180.40000000596,173_y_f_n_a.png,I,z,1034,5,2,2193.5999999940395,486986.8000000119,8035,NNB,B,3
3,test,2,0.0,2-Back,1,m,Fri May 30 2025 14:27:27 GMT-0500 (Central Daylight Time),491515.3000000119,065_o_m_n_a.png,I,m,1300,6,2,2330.2000000178814,489185.09999999404,8035,NNB,B,4
4,test,2,0.0,2-Back,1,m,Fri May 30 2025 14:27:27 GMT-0500 (Central Daylight Time),493531.1999999881,152_y_f_n_a.png,I,m,983,7,2,2012.5999999940395,491518.59999999404,8035,NNB,B,5
5,test,2,1.0,2-Back,1,z,Fri May 30 2025 14:27:27 GMT-0500 (Central Daylight Time),495447.6999999881,065_o_m_n_a.png,I,z,886,8,2,1912.8999999761581,493534.8000000119,8035,NNB,B,6
6,test,2,0.0,2-Back,1,m,Fri May 30 2025 14:27:27 GMT-0500 (Central Daylight Time),497813.40000000596,013_y_m_n_a.png,I,m,1347,9,2,2362.0999999940395,495451.3000000119,8035,NNB,B,7
7,test,2,0.0,2-Back,1,m,Fri May 30 2025 14:27:27 GMT-0500 (Central Daylight Time),500079.3000000119,013_y_m_n_a.png,I,m,1237,10,2,2261.7000000178814,497817.59999999404,8035,NNB,B,8
8,test,2,0.0,2-Back,1,m,Fri May 30 2025 14:27:27 GMT-0500 (Central Daylight Time),502078.8000000119,029_m_f_n_a.png,I,m,971,11,2,1995.4000000059605,500083.40000000596,8035,NNB,B,9
8,test,2,0.0,2-Back,0,m,Fri May 30 2025 14:27:27 GMT-0500 (Central Daylight Time),504077.90000000596,173_y_f_n_a.png,I,z,971,12,2,1994.5,502083.40000000596,8035,NNB,B,10
8,test,2,1.0,2-Back,0,z,Fri May 30 2025 14:27:27 GMT-0500 (Central Daylight Time),506394.09999999404,029_m_f_n_a.png,I,m,1292,13,2,2312.0999999940395,504082.0,8035,NNB,B,11
9,test,2,0.0,2-Back,1,m,Fri May 30 2025 14:27:27 GMT-0500 (Central Daylight Time),508376.90000000596,176_o_m_n_a.png,I,m,952,14,2,1978.9000000059605,506398.0,8035,NNB,B,12
10,test,2,0.0,2-Back,1,m,Fri May 30 2025 14:27:27 GMT-0500 (Central Daylight Time),510392.8000000119,176_o_m_n_a.png,I,m,993,15,2,2012.2000000178814,508380.59999999404,8035,NNB,B,13
11,test,2,0.0,2-Back,1,m,Fri May 30 2025 14:27:27 GMT-0500 (Central Daylight Time),512225.59999999404,110_o_f_n_a.png,I,m,801,16,2,1828.699999988079,510396.90000000596,8035,NNB,B,14
12,test,2,0.0,2-Back,1,m,Fri May 30 2025 14:27:27 GMT-0500 (Central Daylight Time),514108.5,126_m_m_n_a.png,I,m,857,17,2,1878.800000011921,512229.6999999881,8035,NNB,B,15
13,test,2,1.0,2-Back,1,z,Fri May 30 2025 14:27:27 GMT-0500 (Central Daylight Time),516057.6999999881,110_o_f_n_a.png,I,z,918,18,2,1945.199999988079,514112.5,8035,NNB,B,16
0,test,3,1.0,2-Back,,,Fri May 30 2025 14:27:27 GMT-0500 (Central Daylight Time),516057.6999999881,153_y_m_n_a.png,I,space,1561,1,2,1945.199999988079,514112.5,8035,NNB,B,0
0,test,3,1.0,2-Back,,,Fri May 30 2025 14:27:27 GMT-0500 (Central Daylight Time),516057.6999999881,153_y_m_n_a.png,I,space,1561,2,2,1945.199999988079,514112.5,8035,NNB,B,0
1,test,3,0.0,2-Back,1,m,Fri May 30 2025 14:27:27 GMT-0500 (Central Daylight Time),524571.599999994,110_o_f_n_a.png,I,m,774,3,2,1794.7999999821186,522776.8000000119,8035,NNB,B,1
2,test,3,0.0,2-Back,1,m,Fri May 30 2025 14:27:27 GMT-0500 (Central Daylight Time),526572.1999999881,178_m_m_n_a.png,I,m,967,4,2,1996.8999999761581,524575.3000000119,8035,NNB,B,2
3,test,3,1.0,2-Back,1,z,Fri May 30 2025 14:27:27 GMT-0500 (Central Daylight Time),528521.6999999881,110_o_f_n_a.png,I,z,927,5,2,1945.5999999940395,526576.099999994,8035,NNB,B,3
4,test,3,0.0,2-Back,1,m,Fri May 30 2025 14:27:27 GMT-0500 (Central Daylight Time),530520.0,013_y_m_n_a.png,I,m,978,6,2,1994.800000011921,528525.1999999881,8035,NNB,B,4
5,test,3,0.0,2-Back,1,m,Fri May 30 2025 14:27:27 GMT-0500 (Central Daylight Time),532552.5,178_m_m_n_a.png,I,m,1010,7,2,2028.5,530524.0,8035,NNB,B,5
6,test,3,1.0,2-Back,1,z,Fri May 30 2025 14:27:27 GMT-0500 (Central Daylight Time),534384.900000006,013_y_m_n_a.png,I,z,810,8,2,1828.4000000059605,532556.5,8035,NNB,B,6
7,test,3,0.0,2-Back,1,m,Fri May 30 2025 14:27:27 GMT-0500 (Central Daylight Time),536934.5,173_y_f_n_a.png,I,m,1521,9,2,2545.4000000059605,534389.099999994,8035,NNB,B,7
8,test,3,0.0,2-Back,1,m,Fri May 30 2025 14:27:27 GMT-0500 (Central Daylight Time),538783.8000000119,126_m_m_n_a.png,I,m,820,10,2,1845.2000000178814,536938.599999994,8035,NNB,B,8
8,test,3,1.0,2-Back,0,z,Fri May 30 2025 14:27:27 GMT-0500 (Central Daylight Time),540849.900000006,173_y_f_n_a.png,I,m,1042,11,2,2062.800000011921,538787.099999994,8035,NNB,B,9
9,test,3,1.0,2-Back,1,z,Fri May 30 2025 14:27:27 GMT-0500 (Central Daylight Time),542699.3000000119,126_m_m_n_a.png,I,z,832,12,2,1845.800000011921,540853.5,8035,NNB,B,10
10,test,3,0.0,2-Back,1,m,Fri May 30 2025 14:27:27 GMT-0500 (Central Daylight Time),544832.099999994,110_o_f_n_a.png,I,m,1103,13,2,2128.7999999821186,542703.3000000119,8035,NNB,B,11
11,test,3,0.0,2-Back,1,m,Fri May 30 2025 14:27:27 GMT-0500 (Central Daylight Time),546914.6999999881,097_m_f_n_a.png,I,m,1050,14,2,2078.699999988079,544836.0,8035,NNB,B,12
12,test,3,0.0,2-Back,1,m,Fri May 30 2025 14:27:27 GMT-0500 (Central Daylight Time),549413.900000006,065_o_m_n_a.png,I,m,1479,15,2,2495.2000000178814,546918.6999999881,8035,NNB,B,13
13,test,3,1.0,2-Back,1,z,Fri May 30 2025 14:27:27 GMT-0500 (Central Daylight Time),551530.0,097_m_f_n_a.png,I,z,1092,16,2,2111.9000000059605,549418.099999994,8035,NNB,B,14
13,test,3,0.0,2-Back,0,m,Fri May 30 2025 14:27:27 GMT-0500 (Central Daylight Time),553762.5,086_o_f_n_a.png,I,z,1208,17,2,2228.9000000059605,551533.599999994,8035,NNB,B,15
14,test,3,0.0,2-Back,1,m,Fri May 30 2025 14:27:27 GMT-0500 (Central Daylight Time),555828.5,086_o_f_n_a.png,I,m,1040,18,2,2062.300000011921,553766.1999999881,8035,NNB,B,16
0,test,4,0.0,2-Back,,,Fri May 30 2025 14:27:27 GMT-0500 (Central Daylight Time),555828.5,176_o_m_n_a.png,I,space,1166,1,2,2062.300000011921,553766.1999999881,8035,NNB,B,0
0,test,4,0.0,2-Back,,,Fri May 30 2025 14:27:27 GMT-0500 (Central Daylight Time),555828.5,152_y_f_n_a.png,I,space,1166,2,2,2062.300000011921,553766.1999999881,8035,NNB,B,0
0,test,4,1.0,2-Back,0,z,Fri May 30 2025 14:27:27 GMT-0500 (Central Daylight Time),564325.8000000119,176_o_m_n_a.png,I,m,1046,3,2,2062.800000011921,562263.0,8035,NNB,B,1
1,test,4,1.0,2-Back,1,z,Fri May 30 2025 14:27:27 GMT-0500 (Central Daylight Time),566475.1999999881,152_y_f_n_a.png,I,z,1132,4,2,2145.899999976158,564329.3000000119,8035,NNB,B,2
2,test,4,0.0,2-Back,1,m,Fri May 30 2025 14:27:27 GMT-0500 (Central Daylight Time),568424.599999994,110_o_f_n_a.png,I,m,919,5,2,1946.199999988079,566478.400000006,8035,NNB,B,3
3,test,4,0.0,2-Back,1,m,Fri May 30 2025 14:27:27 GMT-0500 (Central Daylight Time),570557.099999994,110_o_f_n_a.png,I,m,1105,6,2,2128.7999999821186,568428.3000000119,8035,NNB,B,4
4,test,4,0.0,2-Back,1,m,Fri May 30 2025 14:27:27 GMT-0500 (Central Daylight Time),572506.599999994,029_m_f_n_a.png,I,m,925,7,2,1945.5999999940395,570561.0,8035,NNB,B,5
5,test,4,0.0,2-Back,1,m,Fri May 30 2025 14:27:27 GMT-0500 (Central Daylight Time),574689.400000006,013_y_m_n_a.png,I,m,1160,8,2,2178.800000011921,572510.599999994,8035,NNB,B,6
6,test,4,1.0,2-Back,1,z,Fri May 30 2025 14:27:27 GMT-0500 (Central Daylight Time),576472.099999994,029_m_f_n_a.png,I,z,761,9,2,1778.7999999821186,574693.3000000119,8035,NNB,B,7
7,test,4,0.0,2-Back,1,m,Fri May 30 2025 14:27:27 GMT-0500 (Central Daylight Time),578254.900000006,126_m_m_n_a.png,I,m,762,10,2,1779.0,576475.900000006,8035,NNB,B,8
7,test,4,0.0,2-Back,0,m,Fri May 30 2025 14:27:27 GMT-0500 (Central Daylight Time),580454.0,013_y_m_n_a.png,I,z,1179,11,2,2195.5999999940395,578258.400000006,8035,NNB,B,9
8,test,4,0.0,2-Back,1,m,Fri May 30 2025 14:27:27 GMT-0500 (Central Daylight Time),582636.8000000119,086_o_f_n_a.png,I,m,1164,12,2,2179.100000023842,580457.6999999881,8035,NNB,B,10
9,test,4,0.0,2-Back,1,m,Fri May 30 2025 14:27:27 GMT-0500 (Central Daylight Time),584436.0,153_y_m_n_a.png,I,m,781,13,2,1795.300000011921,582640.6999999881,8035,NNB,B,11
10,test,4,1.0,2-Back,1,z,Fri May 30 2025 14:27:27 GMT-0500 (Central Daylight Time),586219.099999994,086_o_f_n_a.png,I,z,758,14,2,1779.7999999821186,584439.3000000119,8035,NNB,B,12
10,test,4,1.0,2-Back,0,z,Fri May 30 2025 14:27:27 GMT-0500 (Central Daylight Time),588268.3000000119,153_y_m_n_a.png,I,m,1031,15,2,2045.0,586223.3000000119,8035,NNB,B,13
11,test,4,0.0,2-Back,1,m,Fri May 30 2025 14:27:27 GMT-0500 (Central Daylight Time),590351.1999999881,178_m_m_n_a.png,I,m,1054,16,2,2079.399999976158,588271.8000000119,8035,NNB,B,14
12,test,4,0.0,2-Back,1,m,Fri May 30 2025 14:27:27 GMT-0500 (Central Daylight Time),592150.400000006,097_m_f_n_a.png,I,m,771,17,2,1795.7000000178814,590354.6999999881,8035,NNB,B,15
13,test,4,1.0,2-Back,1,z,Fri May 30 2025 14:27:27 GMT-0500 (Central Daylight Time),594166.400000006,178_m_m_n_a.png,I,z,996,18,2,2012.2000000178814,592154.1999999881,8035,NNB,B,16
0,test,5,1.0,2-Back,,,Fri May 30 2025 14:27:27 GMT-0500 (Central Daylight Time),594166.400000006,153_y_m_n_a.png,I,space,1324,1,2,2012.2000000178814,592154.1999999881,8035,NNB,B,0
0,test,5,1.0,2-Back,,,Fri May 30 2025 14:27:27 GMT-0500 (Central Daylight Time),594166.400000006,097_m_f_n_a.png,I,space,1324,2,2,2012.2000000178814,592154.1999999881,8035,NNB,B,0
1,test,5,1.0,2-Back,1,z,Fri May 30 2025 14:27:27 GMT-0500 (Central Daylight Time),602497.3000000119,153_y_m_n_a.png,I,z,926,3,2,1945.4000000059605,600551.900000006,8035,NNB,B,1
2,test,5,1.0,2-Back,1,z,Fri May 30 2025 14:27:27 GMT-0500 (Central Daylight Time),604979.8000000119,097_m_f_n_a.png,I,z,1457,4,2,2478.600000023842,602501.1999999881,8035,NNB,B,2
3,test,5,0.0,2-Back,1,m,Fri May 30 2025 14:27:27 GMT-0500 (Central Daylight Time),606979.1999999881,086_o_f_n_a.png,I,m,982,5,2,1995.699999988079,604983.5,8035,NNB,B,3
3,test,5,0.0,2-Back,0,m,Fri May 30 2025 14:27:27 GMT-0500 (Central Daylight Time),609211.5,153_y_m_n_a.png,I,z,1215,6,2,2228.5,606983.0,8035,NNB,B,4
4,test,5,0.0,2-Back,1,m,Fri May 30 2025 14:27:27 GMT-0500 (Central Daylight Time),611261.400000006,173_y_f_n_a.png,I,m,1023,7,2,2046.0,609215.400000006,8035,NNB,B,5
4,test,5,0.0,2-Back,0,m,Fri May 30 2025 14:27:27 GMT-0500 (Central Daylight Time),613243.8000000119,086_o_f_n_a.png,I,z,957,8,2,1978.6000000238419,611265.1999999881,8035,NNB,B,6
5,test,5,1.0,2-Back,1,z,Fri May 30 2025 14:27:27 GMT-0500 (Central Daylight Time),615509.6999999881,173_y_f_n_a.png,I,z,1246,9,2,2261.899999976158,613247.8000000119,8035,NNB,B,7
6,test,5,0.0,2-Back,1,m,Fri May 30 2025 14:27:27 GMT-0500 (Central Daylight Time),617425.900000006,065_o_m_n_a.png,I,m,893,10,2,1912.5999999940395,615513.3000000119,8035,NNB,B,8
7,test,5,0.0,2-Back,1,m,Fri May 30 2025 14:27:27 GMT-0500 (Central Daylight Time),619192.0,029_m_f_n_a.png,I,m,736,11,2,1762.5999999940395,617429.400000006,8035,NNB,B,9
8,test,5,0.0,2-Back,1,m,Fri May 30 2025 14:27:27 GMT-0500 (Central Daylight Time),621074.8000000119,126_m_m_n_a.png,I,m,850,12,2,1879.6000000238419,619195.1999999881,8035,NNB,B,10
9,test,5,0.0,2-Back,1,m,Fri May 30 2025 14:27:27 GMT-0500 (Central Daylight Time),623307.5,065_o_m_n_a.png,I,m,1207,13,2,2228.5,621079.0,8035,NNB,B,11
10,test,5,1.0,2-Back,1,z,Fri May 30 2025 14:27:27 GMT-0500 (Central Daylight Time),625223.599999994,126_m_m_n_a.png,I,z,895,14,2,1912.5999999940395,623311.0,8035,NNB,B,12
11,test,5,0.0,2-Back,1,m,Fri May 30 2025 14:27:27 GMT-0500 (Central Daylight Time),627239.3000000119,152_y_f_n_a.png,I,m,987,15,2,2012.1000000238419,625227.1999999881,8035,NNB,B,13
12,test,5,0.0,2-Back,1,m,Fri May 30 2025 14:27:27 GMT-0500 (Central Daylight Time),629855.1999999881,176_o_m_n_a.png,I,m,1595,16,2,2611.899999976158,627243.3000000119,8035,NNB,B,14
13,test,5,0.0,2-Back,1,m,Fri May 30 2025 14:27:27 GMT-0500 (Central Daylight Time),631971.099999994,029_m_f_n_a.png,I,m,1091,17,2,2112.7999999821186,629858.3000000119,8035,NNB,B,15
14,test,5,1.0,2-Back,1,z,Fri May 30 2025 14:27:27 GMT-0500 (Central Daylight Time),633887.400000006,176_o_m_n_a.png,I,z,895,18,2,1912.4000000059605,631975.0,8035,NNB,B,16
