acc_sum,block,block_c,change,condition,correct,correct_response,datetime,endtime,face,project,response,response_time,row_sel,session_number,start_end,starttime,subject_id,task,task_vers,trial
0,prac,1,,1-Back,,,Thu Aug 14 2025 14:51:38 GMT-0500 (Central Daylight Time),,012_o_f_d_a.png,O,space,6100,1,1,,,7200,VNB,C,0
1,prac,1,0.0,1-Back,1.0,m,Thu Aug 14 2025 14:51:38 GMT-0500 (Central Daylight Time),113443.10000002384,022_y_f_n_a.png,O,m,985,2,1,1872.300000011921,111570.80000001192,7200,VNB,C,1
2,prac,1,0.0,1-Back,1.0,m,Thu Aug 14 2025 14:51:38 GMT-0500 (Central Daylight Time),115792.19999998808,014_m_m_h_a.png,O,m,1455,3,1,2338.399999976158,113453.80000001192,7200,VNB,C,2
3,prac,1,0.0,1-Back,1.0,m,Thu Aug 14 2025 14:51:38 GMT-0500 (Central Daylight Time),117721.69999998808,025_y_m_d_a.png,O,m,1054,4,1,1919.0,115802.69999998808,7200,VNB,C,3
4,prac,1,0.0,1-Back,1.0,m,Thu Aug 14 2025 14:51:38 GMT-0500 (Central Daylight Time),119654.30000001192,012_o_f_n_a.png,O,m,1036,5,1,1921.300000011921,117733.0,7200,VNB,C,4
5,prac,1,1.0,1-Back,1.0,z,Thu Aug 14 2025 14:51:38 GMT-0500 (Central Daylight Time),121472.90000003576,025_y_m_n_a.png,O,z,964,6,1,1809.5,119663.40000003576,7200,VNB,C,5
6,prac,1,0.0,1-Back,1.0,m,Thu Aug 14 2025 14:51:38 GMT-0500 (Central Daylight Time),123472.69999998808,015_o_m_h_a.png,O,m,1102,7,1,1988.2999999523163,121484.40000003576,7200,VNB,C,6
6,prac,1,0.0,1-Back,0.0,m,Thu Aug 14 2025 14:51:38 GMT-0500 (Central Daylight Time),125455.30000001192,019_m_f_d_a.png,O,z,1087,8,1,1972.3999999761581,123482.90000003576,7200,VNB,C,7
6,prac,1,1.0,1-Back,0.0,z,Thu Aug 14 2025 14:51:38 GMT-0500 (Central Daylight Time),128353.10000002384,022_y_f_d_a.png,O,None,2010,9,1,2888.400000035763,125464.69999998808,7200,VNB,C,8
7,prac,1,0.0,1-Back,1.0,m,Thu Aug 14 2025 14:51:38 GMT-0500 (Central Daylight Time),130070.90000003576,014_m_m_n_a.png,O,m,862,10,1,1707.9000000357628,128363.0,7200,VNB,C,9
7,prac,1,0.0,1-Back,0.0,m,Thu Aug 14 2025 14:51:38 GMT-0500 (Central Daylight Time),132286.69999998808,012_o_f_h_a.png,O,z,1313,11,1,2204.599999964237,130082.10000002384,7200,VNB,C,10
8,prac,1,0.0,1-Back,1.0,m,Thu Aug 14 2025 14:51:38 GMT-0500 (Central Daylight Time),133869.80000001192,025_y_m_d_a.png,O,m,722,12,1,1573.300000011921,132296.5,7200,VNB,C,11
0,test,1,0.0,1-Back,,,Thu Aug 14 2025 14:51:38 GMT-0500 (Central Daylight Time),133869.80000001192,022_y_f_d_a.png,O,space,7398,1,1,1573.300000011921,132296.5,7200,VNB,C,0
1,test,1,0.0,1-Back,1.0,m,Thu Aug 14 2025 14:51:38 GMT-0500 (Central Daylight Time),155295.40000003576,019_m_f_n_a.png,O,m,1054,2,1,2071.900000035763,153223.5,7200,VNB,C,1
2,test,1,0.0,1-Back,1.0,m,Thu Aug 14 2025 14:51:38 GMT-0500 (Central Daylight Time),157444.60000002384,015_o_m_h_a.png,O,m,1123,3,1,2141.900000035763,155302.69999998808,7200,VNB,C,2
3,test,1,1.0,1-Back,1.0,z,Thu Aug 14 2025 14:51:38 GMT-0500 (Central Daylight Time),159427.60000002384,014_m_m_h_a.png,O,z,957,4,1,1976.199999988079,157451.40000003576,7200,VNB,C,3
4,test,1,0.0,1-Back,1.0,m,Thu Aug 14 2025 14:51:38 GMT-0500 (Central Daylight Time),161243.30000001192,012_o_f_n_a.png,O,m,792,5,1,1806.1000000238419,159437.19999998808,7200,VNB,C,4
5,test,1,0.0,1-Back,1.0,m,Thu Aug 14 2025 14:51:38 GMT-0500 (Central Daylight Time),163476.19999998808,025_y_m_d_a.png,O,m,1200,6,1,2222.7999999523163,161253.40000003576,7200,VNB,C,5
6,test,1,1.0,1-Back,1.0,z,Thu Aug 14 2025 14:51:38 GMT-0500 (Central Daylight Time),165475.10000002384,019_m_f_d_a.png,O,z,976,7,1,1989.0,163486.10000002384,7200,VNB,C,6
7,test,1,0.0,1-Back,1.0,m,Thu Aug 14 2025 14:51:38 GMT-0500 (Central Daylight Time),167360.69999998808,022_y_f_h_a.png,O,m,866,8,1,1877.7999999523163,165482.90000003576,7200,VNB,C,7
8,test,1,0.0,1-Back,1.0,m,Thu Aug 14 2025 14:51:38 GMT-0500 (Central Daylight Time),169708.60000002384,015_o_m_n_a.png,O,m,1327,9,1,2339.800000011921,167368.80000001192,7200,VNB,C,8
9,test,1,0.0,1-Back,1.0,m,Thu Aug 14 2025 14:51:38 GMT-0500 (Central Daylight Time),171839.5,025_y_m_h_a.png,O,m,1112,10,1,2122.699999988079,169716.80000001192,7200,VNB,C,9
10,test,1,0.0,1-Back,1.0,m,Thu Aug 14 2025 14:51:38 GMT-0500 (Central Daylight Time),174055.69999998808,015_o_m_d_a.png,O,m,1188,11,1,2208.599999964237,171847.10000002384,7200,VNB,C,10
11,test,1,1.0,1-Back,1.0,z,Thu Aug 14 2025 14:51:38 GMT-0500 (Central Daylight Time),176171.80000001192,012_o_f_d_a.png,O,z,1083,12,1,2107.199999988079,174064.60000002384,7200,VNB,C,11
12,test,1,0.0,1-Back,1.0,m,Thu Aug 14 2025 14:51:38 GMT-0500 (Central Daylight Time),178172.10000002384,014_m_m_n_a.png,O,m,966,13,1,1991.5,176180.60000002384,7200,VNB,C,12
13,test,1,1.0,1-Back,1.0,z,Thu Aug 14 2025 14:51:38 GMT-0500 (Central Daylight Time),180336.5,022_y_f_n_a.png,O,z,1146,14,1,2157.899999976158,178178.60000002384,7200,VNB,C,13
14,test,1,0.0,1-Back,1.0,m,Thu Aug 14 2025 14:51:38 GMT-0500 (Central Daylight Time),182337.40000003576,019_m_f_h_a.png,O,m,983,15,1,1993.5,180343.90000003576,7200,VNB,C,14
15,test,1,0.0,1-Back,1.0,m,Thu Aug 14 2025 14:51:38 GMT-0500 (Central Daylight Time),184585.30000001192,014_m_m_d_a.png,O,m,1226,16,1,2240.199999988079,182345.10000002384,7200,VNB,C,15
16,test,1,0.0,1-Back,1.0,m,Thu Aug 14 2025 14:51:38 GMT-0500 (Central Daylight Time),186934.0,025_y_m_n_a.png,O,m,1320,17,1,2339.899999976158,184594.10000002384,7200,VNB,C,16
17,test,1,0.0,1-Back,1.0,m,Thu Aug 14 2025 14:51:38 GMT-0500 (Central Daylight Time),189033.40000003576,012_o_f_h_a.png,O,m,1077,18,1,2096.900000035763,186936.5,7200,VNB,C,17
0,test,2,0.0,1-Back,,,Thu Aug 14 2025 14:51:38 GMT-0500 (Central Daylight Time),189033.40000003576,025_y_m_n_a.png,O,space,3531,1,1,2096.900000035763,186936.5,7200,VNB,C,0
1,test,2,0.0,1-Back,1.0,m,Thu Aug 14 2025 14:51:38 GMT-0500 (Central Daylight Time),196514.90000003576,022_y_f_h_a.png,O,m,901,2,1,1923.300000011921,194591.60000002384,7200,VNB,C,1
2,test,2,1.0,1-Back,1.0,m,Thu Aug 14 2025 14:51:38 GMT-0500 (Central Daylight Time),198414.80000001192,015_o_m_n_a.png,O,m,882,3,1,1891.300000011921,196523.5,7200,VNB,C,2
3,test,2,0.0,1-Back,1.0,m,Thu Aug 14 2025 14:51:38 GMT-0500 (Central Daylight Time),200546.69999998808,019_m_f_d_a.png,O,m,1100,4,1,2121.599999964237,198425.10000002384,7200,VNB,C,3
4,test,2,0.0,1-Back,1.0,z,Thu Aug 14 2025 14:51:38 GMT-0500 (Central Daylight Time),202630.10000002384,014_m_m_d_a.png,O,z,1056,5,1,2073.300000011921,200556.80000001192,7200,VNB,C,4
5,test,2,0.0,1-Back,1.0,m,Thu Aug 14 2025 14:51:38 GMT-0500 (Central Daylight Time),204578.69999998808,025_y_m_h_a.png,O,m,918,6,1,1941.199999988079,202637.5,7200,VNB,C,5
6,test,2,1.0,1-Back,1.0,z,Thu Aug 14 2025 14:51:38 GMT-0500 (Central Daylight Time),206745.80000001192,012_o_f_h_a.png,O,z,1145,7,1,2158.399999976158,204587.40000003576,7200,VNB,C,6
7,test,2,0.0,1-Back,1.0,m,Thu Aug 14 2025 14:51:38 GMT-0500 (Central Daylight Time),208794.19999998808,019_m_f_n_a.png,O,m,1027,8,1,2038.5,206755.69999998808,7200,VNB,C,7
7,test,2,0.0,1-Back,0.0,m,Thu Aug 14 2025 14:51:38 GMT-0500 (Central Daylight Time),211027.80000001192,022_y_f_d_a.png,O,z,1203,9,1,2228.699999988079,208799.10000002384,7200,VNB,C,8
8,test,2,0.0,1-Back,1.0,m,Thu Aug 14 2025 14:51:38 GMT-0500 (Central Daylight Time),213277.0,014_m_m_n_a.png,O,m,1225,10,1,2241.199999988079,211035.80000001192,7200,VNB,C,9
9,test,2,1.0,1-Back,1.0,m,Thu Aug 14 2025 14:51:38 GMT-0500 (Central Daylight Time),215340.40000003576,019_m_f_h_a.png,O,m,1038,11,1,2054.100000023842,213286.30000001192,7200,VNB,C,10
10,test,2,0.0,1-Back,1.0,z,Thu Aug 14 2025 14:51:38 GMT-0500 (Central Daylight Time),217291.69999998808,015_o_m_h_a.png,O,z,924,12,1,1947.699999988079,215344.0,7200,VNB,C,11
11,test,2,0.0,1-Back,1.0,m,Thu Aug 14 2025 14:51:38 GMT-0500 (Central Daylight Time),219074.40000003576,025_y_m_d_a.png,O,m,760,13,1,1774.2000000476837,217300.19999998808,7200,VNB,C,12
12,test,2,0.0,1-Back,1.0,m,Thu Aug 14 2025 14:51:38 GMT-0500 (Central Daylight Time),221123.60000002384,012_o_f_n_a.png,O,m,1023,14,1,2040.6000000238419,219083.0,7200,VNB,C,13
13,test,2,0.0,1-Back,1.0,z,Thu Aug 14 2025 14:51:38 GMT-0500 (Central Daylight Time),223124.19999998808,022_y_f_n_a.png,O,z,966,15,1,1993.199999988079,221131.0,7200,VNB,C,14
14,test,2,1.0,1-Back,1.0,m,Thu Aug 14 2025 14:51:38 GMT-0500 (Central Daylight Time),224991.69999998808,014_m_m_h_a.png,O,m,834,16,1,1858.3999999761581,223133.30000001192,7200,VNB,C,15
15,test,2,0.0,1-Back,1.0,m,Thu Aug 14 2025 14:51:38 GMT-0500 (Central Daylight Time),227288.19999998808,012_o_f_d_a.png,O,m,1272,17,1,2287.0,225001.19999998808,7200,VNB,C,16
16,test,2,1.0,1-Back,1.0,z,Thu Aug 14 2025 14:51:38 GMT-0500 (Central Daylight Time),229504.69999998808,015_o_m_d_a.png,O,z,1194,18,1,2208.0,227296.69999998808,7200,VNB,C,17
0,test,3,1.0,1-Back,,,Thu Aug 14 2025 14:51:38 GMT-0500 (Central Daylight Time),229504.69999998808,012_o_f_h_a.png,O,space,2555,1,1,2208.0,227296.69999998808,7200,VNB,C,0
1,test,3,0.0,1-Back,1.0,m,Thu Aug 14 2025 14:51:38 GMT-0500 (Central Daylight Time),236101.60000002384,019_m_f_d_a.png,O,m,897,2,1,1904.699999988079,234196.90000003576,7200,VNB,C,1
2,test,3,1.0,1-Back,1.0,m,Thu Aug 14 2025 14:51:38 GMT-0500 (Central Daylight Time),238001.80000001192,014_m_m_n_a.png,O,m,868,3,1,1892.300000011921,236109.5,7200,VNB,C,2
3,test,3,0.0,1-Back,1.0,z,Thu Aug 14 2025 14:51:38 GMT-0500 (Central Daylight Time),239984.90000003576,012_o_f_n_a.png,O,z,955,4,1,1976.1000000238419,238008.80000001192,7200,VNB,C,3
4,test,3,1.0,1-Back,1.0,m,Thu Aug 14 2025 14:51:38 GMT-0500 (Central Daylight Time),241834.0,015_o_m_d_a.png,O,m,819,5,1,1840.699999988079,239993.30000001192,7200,VNB,C,4
5,test,3,0.0,1-Back,1.0,m,Thu Aug 14 2025 14:51:38 GMT-0500 (Central Daylight Time),243816.60000002384,022_y_f_h_a.png,O,m,953,6,1,1974.300000011921,241842.30000001192,7200,VNB,C,5
6,test,3,0.0,1-Back,1.0,z,Thu Aug 14 2025 14:51:38 GMT-0500 (Central Daylight Time),245865.60000002384,025_y_m_h_a.png,O,z,1027,7,1,2041.300000011921,243824.30000001192,7200,VNB,C,6
7,test,3,0.0,1-Back,1.0,m,Thu Aug 14 2025 14:51:38 GMT-0500 (Central Daylight Time),247816.0,019_m_f_n_a.png,O,m,921,8,1,1942.199999988079,245873.80000001192,7200,VNB,C,7
8,test,3,0.0,1-Back,1.0,m,Thu Aug 14 2025 14:51:38 GMT-0500 (Central Daylight Time),250232.0,022_y_f_d_a.png,O,m,1385,9,1,2407.599999964237,247824.40000003576,7200,VNB,C,8
9,test,3,1.0,1-Back,1.0,m,Thu Aug 14 2025 14:51:38 GMT-0500 (Central Daylight Time),252130.60000002384,015_o_m_n_a.png,O,m,878,10,1,1890.300000011921,250240.30000001192,7200,VNB,C,9
10,test,3,0.0,1-Back,1.0,m,Thu Aug 14 2025 14:51:38 GMT-0500 (Central Daylight Time),253981.30000001192,014_m_m_h_a.png,O,m,817,11,1,1841.699999988079,252139.60000002384,7200,VNB,C,10
11,test,3,0.0,1-Back,1.0,z,Thu Aug 14 2025 14:51:38 GMT-0500 (Central Daylight Time),255879.60000002384,019_m_f_h_a.png,O,z,870,12,1,1891.5,253988.10000002384,7200,VNB,C,11
12,test,3,1.0,1-Back,1.0,m,Thu Aug 14 2025 14:51:38 GMT-0500 (Central Daylight Time),257647.60000002384,012_o_f_d_a.png,O,m,738,13,1,1758.699999988079,255888.90000003576,7200,VNB,C,12
13,test,3,0.0,1-Back,1.0,z,Thu Aug 14 2025 14:51:38 GMT-0500 (Central Daylight Time),259662.0,014_m_m_d_a.png,O,z,990,14,1,2007.0,257655.0,7200,VNB,C,13
14,test,3,0.0,1-Back,1.0,m,Thu Aug 14 2025 14:51:38 GMT-0500 (Central Daylight Time),261461.40000003576,025_y_m_n_a.png,O,m,775,15,1,1789.4000000357628,259672.0,7200,VNB,C,14
15,test,3,1.0,1-Back,1.0,m,Thu Aug 14 2025 14:51:38 GMT-0500 (Central Daylight Time),263577.3000000119,015_o_m_h_a.png,O,m,1085,16,1,2106.199999988079,261471.10000002384,7200,VNB,C,15
16,test,3,0.0,1-Back,1.0,m,Thu Aug 14 2025 14:51:38 GMT-0500 (Central Daylight Time),265743.60000002384,025_y_m_d_a.png,O,m,1139,17,1,2161.600000023842,263582.0,7200,VNB,C,16
17,test,3,1.0,1-Back,1.0,m,Thu Aug 14 2025 14:51:38 GMT-0500 (Central Daylight Time),267843.0,022_y_f_n_a.png,O,m,1077,18,1,2089.800000011921,265753.1999999881,7200,VNB,C,17
0,test,4,1.0,1-Back,,,Thu Aug 14 2025 14:51:38 GMT-0500 (Central Daylight Time),267843.0,014_m_m_d_a.png,O,space,3121,1,1,2089.800000011921,265753.1999999881,7200,VNB,C,0
1,test,4,0.0,1-Back,1.0,z,Thu Aug 14 2025 14:51:38 GMT-0500 (Central Daylight Time),275090.0,015_o_m_d_a.png,O,z,1069,2,1,2089.399999976158,273000.60000002384,7200,VNB,C,1
2,test,4,0.0,1-Back,1.0,m,Thu Aug 14 2025 14:51:38 GMT-0500 (Central Daylight Time),277007.40000003576,025_y_m_h_a.png,O,m,890,3,1,1908.800000011921,275098.60000002384,7200,VNB,C,2
2,test,4,0.0,1-Back,0.0,m,Thu Aug 14 2025 14:51:38 GMT-0500 (Central Daylight Time),279172.5,019_m_f_n_a.png,O,z,1142,4,1,2156.800000011921,277015.6999999881,7200,VNB,C,3
3,test,4,1.0,1-Back,1.0,m,Thu Aug 14 2025 14:51:38 GMT-0500 (Central Daylight Time),281140.6999999881,012_o_f_h_a.png,O,m,934,5,1,1960.5999999642372,279180.10000002384,7200,VNB,C,4
4,test,4,0.0,1-Back,1.0,m,Thu Aug 14 2025 14:51:38 GMT-0500 (Central Daylight Time),282988.10000002384,014_m_m_n_a.png,O,m,826,6,1,1839.9000000357628,281148.1999999881,7200,VNB,C,5
5,test,4,0.0,1-Back,1.0,m,Thu Aug 14 2025 14:51:38 GMT-0500 (Central Daylight Time),284870.1999999881,025_y_m_d_a.png,O,m,866,7,1,1873.5,282996.6999999881,7200,VNB,C,6
6,test,4,1.0,1-Back,1.0,z,Thu Aug 14 2025 14:51:38 GMT-0500 (Central Daylight Time),286769.1999999881,022_y_f_d_a.png,O,z,880,8,1,1892.2999999523163,284876.90000003576,7200,VNB,C,7
7,test,4,0.0,1-Back,1.0,m,Thu Aug 14 2025 14:51:38 GMT-0500 (Central Daylight Time),288636.90000003576,019_m_f_h_a.png,O,m,832,9,1,1858.4000000357628,286778.5,7200,VNB,C,8
8,test,4,0.0,1-Back,1.0,z,Thu Aug 14 2025 14:51:38 GMT-0500 (Central Daylight Time),290651.90000003576,015_o_m_h_a.png,O,z,983,10,1,2007.9000000357628,288644.0,7200,VNB,C,9
9,test,4,1.0,1-Back,1.0,m,Thu Aug 14 2025 14:51:38 GMT-0500 (Central Daylight Time),292535.10000002384,012_o_f_n_a.png,O,m,834,11,1,1875.300000011921,290659.8000000119,7200,VNB,C,10
10,test,4,0.0,1-Back,1.0,m,Thu Aug 14 2025 14:51:38 GMT-0500 (Central Daylight Time),294618.3000000119,019_m_f_d_a.png,O,m,1054,12,1,2073.800000011921,292544.5,7200,VNB,C,11
11,test,4,0.0,1-Back,1.0,m,Thu Aug 14 2025 14:51:38 GMT-0500 (Central Daylight Time),296617.6999999881,022_y_f_n_a.png,O,m,969,13,1,1991.5,294626.1999999881,7200,VNB,C,12
12,test,4,0.0,1-Back,1.0,m,Thu Aug 14 2025 14:51:38 GMT-0500 (Central Daylight Time),298733.90000003576,012_o_f_d_a.png,O,m,1083,14,1,2105.800000011921,296628.10000002384,7200,VNB,C,13
13,test,4,0.0,1-Back,1.0,m,Thu Aug 14 2025 14:51:38 GMT-0500 (Central Daylight Time),300749.40000003576,022_y_f_h_a.png,O,m,984,15,1,2006.4000000357628,298743.0,7200,VNB,C,14
14,test,4,1.0,1-Back,1.0,z,Thu Aug 14 2025 14:51:38 GMT-0500 (Central Daylight Time),302815.1999999881,014_m_m_h_a.png,O,z,1039,16,1,2057.2999999523163,300757.90000003576,7200,VNB,C,15
15,test,4,0.0,1-Back,1.0,m,Thu Aug 14 2025 14:51:38 GMT-0500 (Central Daylight Time),305114.3000000119,015_o_m_n_a.png,O,m,1269,17,1,2291.699999988079,302822.60000002384,7200,VNB,C,16
16,test,4,1.0,1-Back,1.0,z,Thu Aug 14 2025 14:51:38 GMT-0500 (Central Daylight Time),307112.60000002384,025_y_m_n_a.png,O,z,977,18,1,1991.9000000357628,305120.6999999881,7200,VNB,C,17
0,test,5,1.0,1-Back,,,Thu Aug 14 2025 14:51:38 GMT-0500 (Central Daylight Time),307112.60000002384,015_o_m_n_a.png,O,space,1580,1,1,1991.9000000357628,305120.6999999881,7200,VNB,C,0
1,test,5,1.0,1-Back,1.0,m,Thu Aug 14 2025 14:51:38 GMT-0500 (Central Daylight Time),312664.40000003576,012_o_f_h_a.png,O,m,920,2,1,1943.9000000357628,310720.5,7200,VNB,C,1
2,test,5,0.0,1-Back,1.0,m,Thu Aug 14 2025 14:51:38 GMT-0500 (Central Daylight Time),314727.8000000119,025_y_m_d_a.png,O,m,1037,3,1,2055.899999976158,312671.90000003576,7200,VNB,C,2
3,test,5,0.0,1-Back,1.0,z,Thu Aug 14 2025 14:51:38 GMT-0500 (Central Daylight Time),316726.60000002384,015_o_m_d_a.png,O,z,979,4,1,1988.800000011921,314737.8000000119,7200,VNB,C,3
4,test,5,0.0,1-Back,1.0,m,Thu Aug 14 2025 14:51:38 GMT-0500 (Central Daylight Time),318577.0,019_m_f_h_a.png,O,m,821,5,1,1841.5999999642372,316735.40000003576,7200,VNB,C,4
5,test,5,0.0,1-Back,1.0,m,Thu Aug 14 2025 14:51:38 GMT-0500 (Central Daylight Time),320708.60000002384,022_y_f_n_a.png,O,m,1102,6,1,2123.800000011921,318584.8000000119,7200,VNB,C,5
6,test,5,1.0,1-Back,1.0,z,Thu Aug 14 2025 14:51:38 GMT-0500 (Central Daylight Time),322591.3000000119,012_o_f_n_a.png,O,z,855,7,1,1876.0,320715.3000000119,7200,VNB,C,6
7,test,5,0.0,1-Back,1.0,m,Thu Aug 14 2025 14:51:38 GMT-0500 (Central Daylight Time),324441.40000003576,019_m_f_d_a.png,O,m,829,8,1,1840.800000011921,322600.60000002384,7200,VNB,C,7
8,test,5,0.0,1-Back,1.0,m,Thu Aug 14 2025 14:51:38 GMT-0500 (Central Daylight Time),326289.8000000119,025_y_m_h_a.png,O,m,817,9,1,1841.1000000238419,324448.6999999881,7200,VNB,C,8
9,test,5,0.0,1-Back,1.0,m,Thu Aug 14 2025 14:51:38 GMT-0500 (Central Daylight Time),328190.0,022_y_f_d_a.png,O,m,874,10,1,1891.8999999761581,326298.10000002384,7200,VNB,C,9
10,test,5,0.0,1-Back,1.0,m,Thu Aug 14 2025 14:51:38 GMT-0500 (Central Daylight Time),330056.8000000119,014_m_m_n_a.png,O,m,846,11,1,1857.199999988079,328199.60000002384,7200,VNB,C,10
11,test,5,1.0,1-Back,1.0,z,Thu Aug 14 2025 14:51:38 GMT-0500 (Central Daylight Time),332072.3000000119,019_m_f_n_a.png,O,z,988,12,1,2007.199999988079,330065.10000002384,7200,VNB,C,11
12,test,5,0.0,1-Back,1.0,m,Thu Aug 14 2025 14:51:38 GMT-0500 (Central Daylight Time),334053.90000003576,015_o_m_h_a.png,O,m,956,13,1,1972.300000011921,332081.60000002384,7200,VNB,C,12
13,test,5,0.0,1-Back,1.0,z,Thu Aug 14 2025 14:51:38 GMT-0500 (Central Daylight Time),336253.90000003576,014_m_m_h_a.png,O,z,1172,14,1,2191.100000023842,334062.8000000119,7200,VNB,C,13
14,test,5,1.0,1-Back,1.0,m,Thu Aug 14 2025 14:51:38 GMT-0500 (Central Daylight Time),338003.1999999881,012_o_f_d_a.png,O,m,733,15,1,1741.8999999761581,336261.3000000119,7200,VNB,C,14
15,test,5,0.0,1-Back,1.0,m,Thu Aug 14 2025 14:51:38 GMT-0500 (Central Daylight Time),339936.40000003576,025_y_m_n_a.png,O,m,914,16,1,1928.9000000357628,338007.5,7200,VNB,C,15
16,test,5,0.0,1-Back,1.0,m,Thu Aug 14 2025 14:51:38 GMT-0500 (Central Daylight Time),341886.60000002384,022_y_f_h_a.png,O,m,917,17,1,1941.300000011921,339945.3000000119,7200,VNB,C,16
17,test,5,0.0,1-Back,1.0,m,Thu Aug 14 2025 14:51:38 GMT-0500 (Central Daylight Time),343801.10000002384,014_m_m_d_a.png,O,m,894,18,1,1904.9000000357628,341896.1999999881,7200,VNB,C,17
0,prac,1,0.0,2-Back,,,Thu Aug 14 2025 14:51:38 GMT-0500 (Central Daylight Time),343801.10000002384,019_m_f_n_a.png,O,space,6785,1,1,1904.9000000357628,341896.1999999881,7200,VNB,C,0
0,prac,1,0.0,2-Back,,,Thu Aug 14 2025 14:51:38 GMT-0500 (Central Daylight Time),343801.10000002384,012_o_f_h_a.png,O,space,6785,2,1,1904.9000000357628,341896.1999999881,7200,VNB,C,0
1,prac,1,0.0,2-Back,1.0,m,Thu Aug 14 2025 14:51:38 GMT-0500 (Central Daylight Time),440687.40000003576,015_o_m_d_a.png,O,m,1135,3,1,2029.5,438657.90000003576,7200,VNB,C,1
2,prac,1,1.0,2-Back,1.0,z,Thu Aug 14 2025 14:51:38 GMT-0500 (Central Daylight Time),443186.40000003576,014_m_m_h_a.png,O,z,1615,4,1,2489.800000011921,440696.60000002384,7200,VNB,C,2
3,prac,1,0.0,2-Back,1.0,m,Thu Aug 14 2025 14:51:38 GMT-0500 (Central Daylight Time),445418.6999999881,022_y_f_n_a.png,O,m,1337,5,1,2223.399999976158,443195.3000000119,7200,VNB,C,3
3,prac,1,1.0,2-Back,0.0,z,Thu Aug 14 2025 14:51:38 GMT-0500 (Central Daylight Time),447751.40000003576,015_o_m_h_a.png,O,m,1431,6,1,2324.900000035763,445426.5,7200,VNB,C,4
3,prac,1,1.0,2-Back,0.0,z,Thu Aug 14 2025 14:51:38 GMT-0500 (Central Daylight Time),449617.5,025_y_m_n_a.png,O,m,992,7,1,1855.0,447762.5,7200,VNB,C,5
4,prac,1,0.0,2-Back,1.0,m,Thu Aug 14 2025 14:51:38 GMT-0500 (Central Daylight Time),451983.60000002384,019_m_f_d_a.png,O,m,1473,8,1,2356.5,449627.10000002384,7200,VNB,C,6
4,prac,1,0.0,2-Back,0.0,m,Thu Aug 14 2025 14:51:38 GMT-0500 (Central Daylight Time),454882.3000000119,012_o_f_d_a.png,O,None,2002,9,1,2886.0,451996.3000000119,7200,VNB,C,7
4,prac,1,0.0,2-Back,0.0,m,Thu Aug 14 2025 14:51:38 GMT-0500 (Central Daylight Time),456566.1999999881,014_m_m_h_a.png,O,z,896,10,1,1673.5,454892.6999999881,7200,VNB,C,8
4,prac,1,1.0,2-Back,0.0,z,Thu Aug 14 2025 14:51:38 GMT-0500 (Central Daylight Time),459300.5,022_y_f_d_a.png,O,m,1853,11,1,2725.5,456575.0,7200,VNB,C,9
5,prac,1,0.0,2-Back,1.0,m,Thu Aug 14 2025 14:51:38 GMT-0500 (Central Daylight Time),460998.0,015_o_m_n_a.png,O,m,803,12,1,1687.0999999642372,459310.90000003576,7200,VNB,C,10
0,prac,2,0.0,2-Back,,,Thu Aug 14 2025 14:51:38 GMT-0500 (Central Daylight Time),460998.0,019_m_f_n_a.png,O,a,3330,1,1,1687.0999999642372,459310.90000003576,7200,VNB,C,0
0,prac,2,0.0,2-Back,,,Thu Aug 14 2025 14:51:38 GMT-0500 (Central Daylight Time),460998.0,012_o_f_h_a.png,O,a,3330,2,1,1687.0999999642372,459310.90000003576,7200,VNB,C,0
1,prac,2,0.0,2-Back,1.0,m,Thu Aug 14 2025 14:51:38 GMT-0500 (Central Daylight Time),471660.8000000119,015_o_m_d_a.png,O,m,1125,3,1,2019.1000000238419,469641.6999999881,7200,VNB,C,1
2,prac,2,1.0,2-Back,1.0,z,Thu Aug 14 2025 14:51:38 GMT-0500 (Central Daylight Time),473611.5,014_m_m_h_a.png,O,z,1157,4,1,1940.0,471671.5,7200,VNB,C,2
3,prac,2,0.0,2-Back,1.0,m,Thu Aug 14 2025 14:51:38 GMT-0500 (Central Daylight Time),475893.40000003576,022_y_f_n_a.png,O,m,1380,5,1,2272.800000011921,473620.60000002384,7200,VNB,C,3
4,prac,2,1.0,2-Back,1.0,z,Thu Aug 14 2025 14:51:38 GMT-0500 (Central Daylight Time),478442.10000002384,015_o_m_h_a.png,O,z,1643,6,1,2538.699999988079,475903.40000003576,7200,VNB,C,4
5,prac,2,1.0,2-Back,1.0,z,Thu Aug 14 2025 14:51:38 GMT-0500 (Central Daylight Time),480758.60000002384,025_y_m_n_a.png,O,z,1452,7,1,2308.600000023842,478450.0,7200,VNB,C,5
6,prac,2,0.0,2-Back,1.0,m,Thu Aug 14 2025 14:51:38 GMT-0500 (Central Daylight Time),482775.40000003576,019_m_f_d_a.png,O,m,1123,8,1,2006.5,480768.90000003576,7200,VNB,C,6
7,prac,2,0.0,2-Back,1.0,m,Thu Aug 14 2025 14:51:38 GMT-0500 (Central Daylight Time),484924.6999999881,012_o_f_d_a.png,O,m,1251,9,1,2140.5,482784.1999999881,7200,VNB,C,7
8,prac,2,0.0,2-Back,1.0,m,Thu Aug 14 2025 14:51:38 GMT-0500 (Central Daylight Time),487390.8000000119,014_m_m_h_a.png,O,m,1699,10,1,2454.399999976158,484936.40000003576,7200,VNB,C,8
9,prac,2,1.0,2-Back,1.0,z,Thu Aug 14 2025 14:51:38 GMT-0500 (Central Daylight Time),489471.6999999881,022_y_f_d_a.png,O,z,1177,11,1,2072.699999988079,487399.0,7200,VNB,C,9
10,prac,2,0.0,2-Back,1.0,m,Thu Aug 14 2025 14:51:38 GMT-0500 (Central Daylight Time),491472.10000002384,015_o_m_n_a.png,O,m,1097,12,1,1991.699999988079,489480.40000003576,7200,VNB,C,10
0,test,1,0.0,2-Back,,,Thu Aug 14 2025 14:51:38 GMT-0500 (Central Daylight Time),491472.10000002384,025_y_m_h_a.png,O,space,4258,1,1,1991.699999988079,489480.40000003576,7200,VNB,C,0
0,test,1,0.0,2-Back,,,Thu Aug 14 2025 14:51:38 GMT-0500 (Central Daylight Time),491472.10000002384,012_o_f_n_a.png,O,space,4258,2,1,1991.699999988079,489480.40000003576,7200,VNB,C,0
1,test,1,0.0,2-Back,1.0,z,Thu Aug 14 2025 14:51:38 GMT-0500 (Central Daylight Time),516130.5,015_o_m_h_a.png,O,z,1100,3,1,2125.0,514005.5,7200,VNB,C,1
2,test,1,0.0,2-Back,1.0,m,Thu Aug 14 2025 14:51:38 GMT-0500 (Central Daylight Time),518279.10000002384,019_m_f_d_a.png,O,m,1129,4,1,2140.199999988079,516138.90000003576,7200,VNB,C,2
3,test,1,1.0,2-Back,1.0,m,Thu Aug 14 2025 14:51:38 GMT-0500 (Central Daylight Time),520478.1999999881,025_y_m_n_a.png,O,m,1168,5,1,2187.5,518290.6999999881,7200,VNB,C,3
4,test,1,0.0,2-Back,1.0,z,Thu Aug 14 2025 14:51:38 GMT-0500 (Central Daylight Time),523080.40000003576,022_y_f_d_a.png,O,z,1569,6,1,2594.900000035763,520485.5,7200,VNB,C,4
5,test,1,0.0,2-Back,1.0,m,Thu Aug 14 2025 14:51:38 GMT-0500 (Central Daylight Time),525279.4000000358,014_m_m_h_a.png,O,m,1184,7,1,2189.800000011921,523089.60000002384,7200,VNB,C,5
6,test,1,1.0,2-Back,1.0,m,Thu Aug 14 2025 14:51:38 GMT-0500 (Central Daylight Time),527460.4000000358,022_y_f_n_a.png,O,m,1151,8,1,2172.400000035763,525288.0,7200,VNB,C,6
7,test,1,0.0,2-Back,1.0,z,Thu Aug 14 2025 14:51:38 GMT-0500 (Central Daylight Time),530091.9000000358,012_o_f_h_a.png,O,z,1610,9,1,2621.2000000476837,527470.6999999881,7200,VNB,C,7
8,test,1,0.0,2-Back,1.0,m,Thu Aug 14 2025 14:51:38 GMT-0500 (Central Daylight Time),532208.1000000238,015_o_m_d_a.png,O,m,1086,10,1,2107.699999988079,530100.4000000358,7200,VNB,C,8
9,test,1,1.0,2-Back,1.0,m,Thu Aug 14 2025 14:51:38 GMT-0500 (Central Daylight Time),534325.0,014_m_m_d_a.png,O,m,1084,11,1,2107.699999988079,532217.3000000119,7200,VNB,C,9
10,test,1,0.0,2-Back,1.0,m,Thu Aug 14 2025 14:51:38 GMT-0500 (Central Daylight Time),536557.8000000119,019_m_f_n_a.png,O,m,1203,12,1,2223.300000011921,534334.5,7200,VNB,C,10
11,test,1,0.0,2-Back,1.0,m,Thu Aug 14 2025 14:51:38 GMT-0500 (Central Daylight Time),539008.1999999881,022_y_f_h_a.png,O,m,1419,13,1,2441.699999988079,536566.5,7200,VNB,C,11
12,test,1,0.0,2-Back,1.0,z,Thu Aug 14 2025 14:51:38 GMT-0500 (Central Daylight Time),541573.1999999881,014_m_m_n_a.png,O,z,1534,14,1,2556.599999964237,539016.6000000238,7200,VNB,C,12
13,test,1,0.0,2-Back,1.0,m,Thu Aug 14 2025 14:51:38 GMT-0500 (Central Daylight Time),543704.3000000119,025_y_m_d_a.png,O,m,1111,15,1,2123.399999976158,541580.9000000358,7200,VNB,C,13
14,test,1,1.0,2-Back,1.0,m,Thu Aug 14 2025 14:51:38 GMT-0500 (Central Daylight Time),545951.9000000358,019_m_f_h_a.png,O,m,1217,16,1,2239.400000035763,543712.5,7200,VNB,C,14
15,test,1,0.0,2-Back,1.0,z,Thu Aug 14 2025 14:51:38 GMT-0500 (Central Daylight Time),548286.9000000358,012_o_f_d_a.png,O,z,1301,17,1,2329.300000011921,545957.6000000238,7200,VNB,C,15
16,test,1,0.0,2-Back,1.0,m,Thu Aug 14 2025 14:51:38 GMT-0500 (Central Daylight Time),550335.6999999881,015_o_m_n_a.png,O,m,1028,18,1,2040.699999988079,548295.0,7200,VNB,C,16
0,test,2,0.0,2-Back,,,Thu Aug 14 2025 14:51:38 GMT-0500 (Central Daylight Time),550335.6999999881,014_m_m_h_a.png,O,space,3334,1,1,2040.699999988079,548295.0,7200,VNB,C,0
0,test,2,0.0,2-Back,,,Thu Aug 14 2025 14:51:38 GMT-0500 (Central Daylight Time),550335.6999999881,022_y_f_n_a.png,O,space,3334,2,1,2040.699999988079,548295.0,7200,VNB,C,0
1,test,2,1.0,2-Back,1.0,z,Thu Aug 14 2025 14:51:38 GMT-0500 (Central Daylight Time),561298.3000000119,012_o_f_h_a.png,O,z,1327,3,1,2340.199999988079,558958.1000000238,7200,VNB,C,1
2,test,2,0.0,2-Back,1.0,m,Thu Aug 14 2025 14:51:38 GMT-0500 (Central Daylight Time),563231.1000000238,015_o_m_d_a.png,O,m,905,4,1,1922.9000000357628,561308.1999999881,7200,VNB,C,2
3,test,2,0.0,2-Back,1.0,m,Thu Aug 14 2025 14:51:38 GMT-0500 (Central Daylight Time),565397.6999999881,019_m_f_d_a.png,O,m,1140,5,1,2158.5,563239.1999999881,7200,VNB,C,3
4,test,2,0.0,2-Back,1.0,m,Thu Aug 14 2025 14:51:38 GMT-0500 (Central Daylight Time),567363.1999999881,025_y_m_h_a.png,O,m,944,6,1,1957.0999999642372,565406.1000000238,7200,VNB,C,4
5,test,2,0.0,2-Back,1.0,m,Thu Aug 14 2025 14:51:38 GMT-0500 (Central Daylight Time),569629.1000000238,012_o_f_n_a.png,O,m,1242,7,1,2257.699999988079,567371.4000000358,7200,VNB,C,5
6,test,2,1.0,2-Back,1.0,z,Thu Aug 14 2025 14:51:38 GMT-0500 (Central Daylight Time),572093.4000000358,015_o_m_h_a.png,O,z,1444,8,1,2453.800000011921,569639.6000000238,7200,VNB,C,6
7,test,2,0.0,2-Back,1.0,m,Thu Aug 14 2025 14:51:38 GMT-0500 (Central Daylight Time),574194.3000000119,022_y_f_d_a.png,O,m,1077,9,1,2095.5,572098.8000000119,7200,VNB,C,7
8,test,2,0.0,2-Back,1.0,m,Thu Aug 14 2025 14:51:38 GMT-0500 (Central Daylight Time),576293.5,025_y_m_d_a.png,O,m,1082,10,1,2090.300000011921,574203.1999999881,7200,VNB,C,8
9,test,2,0.0,2-Back,1.0,m,Thu Aug 14 2025 14:51:38 GMT-0500 (Central Daylight Time),578393.9000000358,014_m_m_n_a.png,O,m,1069,11,1,2095.300000011921,576298.6000000238,7200,VNB,C,9
10,test,2,0.0,2-Back,1.0,m,Thu Aug 14 2025 14:51:38 GMT-0500 (Central Daylight Time),580509.8000000119,019_m_f_h_a.png,O,m,1091,12,1,2109.300000011921,578400.5,7200,VNB,C,10
11,test,2,1.0,2-Back,1.0,z,Thu Aug 14 2025 14:51:38 GMT-0500 (Central Daylight Time),582742.4000000358,015_o_m_n_a.png,O,z,1206,13,1,2223.300000011921,580519.1000000238,7200,VNB,C,11
12,test,2,0.0,2-Back,1.0,m,Thu Aug 14 2025 14:51:38 GMT-0500 (Central Daylight Time),584791.6999999881,012_o_f_d_a.png,O,m,1021,14,1,2042.7999999523163,582748.9000000358,7200,VNB,C,12
12,test,2,0.0,2-Back,0.0,m,Thu Aug 14 2025 14:51:38 GMT-0500 (Central Daylight Time),587307.4000000358,022_y_f_h_a.png,O,z,1492,15,1,2506.400000035763,584801.0,7200,VNB,C,13
13,test,2,0.0,2-Back,1.0,z,Thu Aug 14 2025 14:51:38 GMT-0500 (Central Daylight Time),589473.3000000119,014_m_m_d_a.png,O,z,1146,16,1,2158.899999976158,587314.4000000358,7200,VNB,C,14
14,test,2,0.0,2-Back,1.0,m,Thu Aug 14 2025 14:51:38 GMT-0500 (Central Daylight Time),591506.3000000119,025_y_m_n_a.png,O,m,1002,17,1,2024.6000000238419,589481.6999999881,7200,VNB,C,15
15,test,2,1.0,2-Back,1.0,m,Thu Aug 14 2025 14:51:38 GMT-0500 (Central Daylight Time),593955.5,019_m_f_n_a.png,O,m,1417,18,1,2440.5,591515.0,7200,VNB,C,16
0,test,3,1.0,2-Back,,,Thu Aug 14 2025 14:51:38 GMT-0500 (Central Daylight Time),593955.5,015_o_m_n_a.png,O,space,3098,1,1,2440.5,591515.0,7200,VNB,C,0
0,test,3,1.0,2-Back,,,Thu Aug 14 2025 14:51:38 GMT-0500 (Central Daylight Time),593955.5,012_o_f_d_a.png,O,space,3098,2,1,2440.5,591515.0,7200,VNB,C,0
1,test,3,0.0,2-Back,1.0,m,Thu Aug 14 2025 14:51:38 GMT-0500 (Central Daylight Time),604168.3000000119,022_y_f_h_a.png,O,m,1028,3,1,2040.5,602127.8000000119,7200,VNB,C,1
2,test,3,0.0,2-Back,1.0,z,Thu Aug 14 2025 14:51:38 GMT-0500 (Central Daylight Time),606250.0,019_m_f_d_a.png,O,z,1058,4,1,2073.300000011921,604176.6999999881,7200,VNB,C,2
3,test,3,1.0,2-Back,1.0,m,Thu Aug 14 2025 14:51:38 GMT-0500 (Central Daylight Time),608350.9000000358,025_y_m_n_a.png,O,m,1073,5,1,2095.7000000476837,606255.1999999881,7200,VNB,C,3
4,test,3,0.0,2-Back,1.0,m,Thu Aug 14 2025 14:51:38 GMT-0500 (Central Daylight Time),610315.9000000358,015_o_m_h_a.png,O,m,941,6,1,1957.4000000357628,608358.5,7200,VNB,C,4
5,test,3,0.0,2-Back,1.0,z,Thu Aug 14 2025 14:51:38 GMT-0500 (Central Daylight Time),612584.4000000358,022_y_f_n_a.png,O,z,1251,7,1,2261.400000035763,610323.0,7200,VNB,C,5
6,test,3,1.0,2-Back,1.0,m,Thu Aug 14 2025 14:51:38 GMT-0500 (Central Daylight Time),614665.0,014_m_m_d_a.png,O,m,1060,8,1,2074.0,612591.0,7200,VNB,C,6
7,test,3,0.0,2-Back,1.0,m,Thu Aug 14 2025 14:51:38 GMT-0500 (Central Daylight Time),616648.5,025_y_m_d_a.png,O,m,962,9,1,1974.699999988079,614673.8000000119,7200,VNB,C,7
8,test,3,0.0,2-Back,1.0,m,Thu Aug 14 2025 14:51:38 GMT-0500 (Central Daylight Time),618713.9000000358,012_o_f_h_a.png,O,m,1034,10,1,2057.100000023842,616656.8000000119,7200,VNB,C,8
9,test,3,1.0,2-Back,1.0,m,Thu Aug 14 2025 14:51:38 GMT-0500 (Central Daylight Time),621380.5,019_m_f_n_a.png,O,m,1634,11,1,2658.699999988079,618721.8000000119,7200,VNB,C,9
10,test,3,1.0,2-Back,1.0,z,Thu Aug 14 2025 14:51:38 GMT-0500 (Central Daylight Time),623295.3000000119,014_m_m_h_a.png,O,z,888,12,1,1903.300000011921,621392.0,7200,VNB,C,10
11,test,3,0.0,2-Back,1.0,m,Thu Aug 14 2025 14:51:38 GMT-0500 (Central Daylight Time),625328.3000000119,022_y_f_d_a.png,O,m,999,13,1,2024.3999999761581,623303.9000000358,7200,VNB,C,11
12,test,3,0.0,2-Back,1.0,m,Thu Aug 14 2025 14:51:38 GMT-0500 (Central Daylight Time),627378.0,012_o_f_n_a.png,O,m,1018,14,1,2042.800000011921,625335.1999999881,7200,VNB,C,12
13,test,3,0.0,2-Back,1.0,z,Thu Aug 14 2025 14:51:38 GMT-0500 (Central Daylight Time),629654.1000000238,015_o_m_d_a.png,O,z,1259,15,1,2268.900000035763,627385.1999999881,7200,VNB,C,13
14,test,3,1.0,2-Back,1.0,m,Thu Aug 14 2025 14:51:38 GMT-0500 (Central Daylight Time),632161.4000000358,019_m_f_h_a.png,O,m,1499,16,1,2504.2000000476837,629657.1999999881,7200,VNB,C,14
15,test,3,0.0,2-Back,1.0,m,Thu Aug 14 2025 14:51:38 GMT-0500 (Central Daylight Time),634175.6000000238,014_m_m_n_a.png,O,m,989,17,1,2006.199999988079,632169.4000000358,7200,VNB,C,15
16,test,3,0.0,2-Back,1.0,z,Thu Aug 14 2025 14:51:38 GMT-0500 (Central Daylight Time),636224.8000000119,025_y_m_h_a.png,O,z,1029,18,1,2041.1000000238419,634183.6999999881,7200,VNB,C,16
0,test,4,0.0,2-Back,,,Thu Aug 14 2025 14:51:38 GMT-0500 (Central Daylight Time),636224.8000000119,019_m_f_n_a.png,O,space,1950,1,1,2041.1000000238419,634183.6999999881,7200,VNB,C,0
0,test,4,0.0,2-Back,,,Thu Aug 14 2025 14:51:38 GMT-0500 (Central Daylight Time),636224.8000000119,015_o_m_n_a.png,O,space,1950,2,1,2041.1000000238419,634183.6999999881,7200,VNB,C,0
1,test,4,1.0,2-Back,1.0,m,Thu Aug 14 2025 14:51:38 GMT-0500 (Central Daylight Time),645472.1999999881,025_y_m_h_a.png,O,m,977,3,1,1987.199999988079,643485.0,7200,VNB,C,1
2,test,4,1.0,2-Back,1.0,m,Thu Aug 14 2025 14:51:38 GMT-0500 (Central Daylight Time),647571.8000000119,012_o_f_d_a.png,O,m,1068,4,1,2091.699999988079,645480.1000000238,7200,VNB,C,2
2,test,4,0.0,2-Back,0.0,z,Thu Aug 14 2025 14:51:38 GMT-0500 (Central Daylight Time),649904.4000000358,015_o_m_h_a.png,O,m,1304,5,1,2325.0,647579.4000000358,7200,VNB,C,3
3,test,4,0.0,2-Back,1.0,m,Thu Aug 14 2025 14:51:38 GMT-0500 (Central Daylight Time),652305.0,014_m_m_n_a.png,O,m,1367,6,1,2393.899999976158,649911.1000000238,7200,VNB,C,4
4,test,4,0.0,2-Back,1.0,m,Thu Aug 14 2025 14:51:38 GMT-0500 (Central Daylight Time),654852.3000000119,019_m_f_d_a.png,O,m,1525,7,1,2538.5,652313.8000000119,7200,VNB,C,5
5,test,4,0.0,2-Back,1.0,z,Thu Aug 14 2025 14:51:38 GMT-0500 (Central Daylight Time),656951.8000000119,022_y_f_n_a.png,O,z,1077,8,1,2091.899999976158,654859.9000000358,7200,VNB,C,6
5,test,4,1.0,2-Back,0.0,m,Thu Aug 14 2025 14:51:38 GMT-0500 (Central Daylight Time),659518.0,012_o_f_h_a.png,O,z,1542,9,1,2558.699999988079,656959.3000000119,7200,VNB,C,7
6,test,4,0.0,2-Back,1.0,m,Thu Aug 14 2025 14:51:38 GMT-0500 (Central Daylight Time),661284.0,014_m_m_h_a.png,O,m,742,10,1,1757.8999999761581,659526.1000000238,7200,VNB,C,8
7,test,4,0.0,2-Back,1.0,m,Thu Aug 14 2025 14:51:38 GMT-0500 (Central Daylight Time),663133.3000000119,022_y_f_d_a.png,O,m,818,11,1,1840.3999999761581,661292.9000000358,7200,VNB,C,9
8,test,4,0.0,2-Back,1.0,m,Thu Aug 14 2025 14:51:38 GMT-0500 (Central Daylight Time),665032.8000000119,025_y_m_n_a.png,O,m,879,12,1,1891.5,663141.3000000119,7200,VNB,C,10
8,test,4,0.0,2-Back,0.0,z,Thu Aug 14 2025 14:51:38 GMT-0500 (Central Daylight Time),667282.1000000238,015_o_m_d_a.png,O,m,1218,13,1,2246.400000035763,665035.6999999881,7200,VNB,C,11
8,test,4,1.0,2-Back,0.0,m,Thu Aug 14 2025 14:51:38 GMT-0500 (Central Daylight Time),669430.6999999881,019_m_f_h_a.png,O,z,1132,14,1,2138.899999976158,667291.8000000119,7200,VNB,C,12
9,test,4,1.0,2-Back,1.0,m,Thu Aug 14 2025 14:51:38 GMT-0500 (Central Daylight Time),671847.6000000238,022_y_f_h_a.png,O,m,1399,15,1,2409.5,669438.1000000238,7200,VNB,C,13
10,test,4,0.0,2-Back,1.0,m,Thu Aug 14 2025 14:51:38 GMT-0500 (Central Daylight Time),674662.6999999881,012_o_f_n_a.png,O,m,1787,16,1,2805.899999976158,671856.8000000119,7200,VNB,C,14
11,test,4,0.0,2-Back,1.0,m,Thu Aug 14 2025 14:51:38 GMT-0500 (Central Daylight Time),677078.1999999881,025_y_m_d_a.png,O,m,1388,17,1,2405.399999976158,674672.8000000119,7200,VNB,C,15
12,test,4,1.0,2-Back,1.0,m,Thu Aug 14 2025 14:51:38 GMT-0500 (Central Daylight Time),679662.6000000238,014_m_m_d_a.png,O,m,1557,18,1,2575.199999988079,677087.4000000358,7200,VNB,C,16
0,test,5,1.0,2-Back,,,Thu Aug 14 2025 14:51:38 GMT-0500 (Central Daylight Time),679662.6000000238,022_y_f_d_a.png,O,space,1415,1,1,2575.199999988079,677087.4000000358,7200,VNB,C,0
0,test,5,1.0,2-Back,,,Thu Aug 14 2025 14:51:38 GMT-0500 (Central Daylight Time),679662.6000000238,012_o_f_h_a.png,O,space,1415,2,1,2575.199999988079,677087.4000000358,7200,VNB,C,0
1,test,5,1.0,2-Back,1.0,z,Thu Aug 14 2025 14:51:38 GMT-0500 (Central Daylight Time),688959.3000000119,015_o_m_d_a.png,O,z,1574,3,1,2591.5,686367.8000000119,7200,VNB,C,1
2,test,5,1.0,2-Back,1.0,m,Thu Aug 14 2025 14:51:38 GMT-0500 (Central Daylight Time),691090.3000000119,019_m_f_n_a.png,O,m,1101,4,1,2122.699999988079,688967.6000000238,7200,VNB,C,2
3,test,5,0.0,2-Back,1.0,m,Thu Aug 14 2025 14:51:38 GMT-0500 (Central Daylight Time),693790.5,014_m_m_h_a.png,O,m,1680,5,1,2691.899999976158,691098.6000000238,7200,VNB,C,3
4,test,5,0.0,2-Back,1.0,z,Thu Aug 14 2025 14:51:38 GMT-0500 (Central Daylight Time),695972.4000000358,022_y_f_n_a.png,O,z,1151,6,1,2174.0,693798.4000000358,7200,VNB,C,4
5,test,5,0.0,2-Back,1.0,m,Thu Aug 14 2025 14:51:38 GMT-0500 (Central Daylight Time),698122.3000000119,012_o_f_d_a.png,O,m,1126,7,1,2140.399999976158,695981.9000000358,7200,VNB,C,5
6,test,5,0.0,2-Back,1.0,m,Thu Aug 14 2025 14:51:38 GMT-0500 (Central Daylight Time),700237.9000000358,015_o_m_h_a.png,O,m,1083,8,1,2106.5,698131.4000000358,7200,VNB,C,6
7,test,5,1.0,2-Back,1.0,z,Thu Aug 14 2025 14:51:38 GMT-0500 (Central Daylight Time),702187.4000000358,019_m_f_d_a.png,O,z,918,9,1,1940.300000011921,700247.1000000238,7200,VNB,C,7
8,test,5,0.0,2-Back,1.0,m,Thu Aug 14 2025 14:51:38 GMT-0500 (Central Daylight Time),704253.6999999881,025_y_m_n_a.png,O,m,1039,10,1,2057.7999999523163,702195.9000000358,7200,VNB,C,8
9,test,5,0.0,2-Back,1.0,m,Thu Aug 14 2025 14:51:38 GMT-0500 (Central Daylight Time),706653.1999999881,014_m_m_n_a.png,O,m,1367,11,1,2390.0,704263.1999999881,7200,VNB,C,9
9,test,5,0.0,2-Back,0.0,m,Thu Aug 14 2025 14:51:38 GMT-0500 (Central Daylight Time),708801.6999999881,022_y_f_h_a.png,O,z,1126,12,1,2138.599999964237,706663.1000000238,7200,VNB,C,10
10,test,5,0.0,2-Back,1.0,m,Thu Aug 14 2025 14:51:38 GMT-0500 (Central Daylight Time),710751.5,025_y_m_d_a.png,O,m,932,13,1,1940.0999999642372,708811.4000000358,7200,VNB,C,11
11,test,5,1.0,2-Back,1.0,z,Thu Aug 14 2025 14:51:38 GMT-0500 (Central Daylight Time),712801.0,019_m_f_h_a.png,O,z,1020,14,1,2041.0999999642372,710759.9000000358,7200,VNB,C,12
12,test,5,0.0,2-Back,1.0,m,Thu Aug 14 2025 14:51:38 GMT-0500 (Central Daylight Time),715050.1999999881,015_o_m_n_a.png,O,m,1218,15,1,2241.5,712808.6999999881,7200,VNB,C,13
13,test,5,0.0,2-Back,1.0,m,Thu Aug 14 2025 14:51:38 GMT-0500 (Central Daylight Time),717165.6999999881,014_m_m_d_a.png,O,m,1085,16,1,2107.399999976158,715058.3000000119,7200,VNB,C,14
14,test,5,0.0,2-Back,1.0,z,Thu Aug 14 2025 14:51:38 GMT-0500 (Central Daylight Time),719548.6000000238,012_o_f_n_a.png,O,z,1359,17,1,2375.699999988079,717172.9000000358,7200,VNB,C,15
14,test,5,1.0,2-Back,0.0,m,Thu Aug 14 2025 14:51:38 GMT-0500 (Central Daylight Time),722280.6999999881,025_y_m_h_a.png,O,z,1711,18,1,2723.399999976158,719557.3000000119,7200,VNB,C,16
