acc_sum,block,block_c,block_cond,con_img,correct,correct_response,datetime,endtime,face,jitter,line,project,response,response_time,row_sel,session_number,start_end,starttime,subject_id,task,task_vers,trial
1,prac,1,A,haborder.png,1,z,Tue Nov 04 2025 11:59:49 GMT-0600 (Central Standard Time),104180.0,CFD-WF-026-008-A.jpg,1600,solid,I,z,720,10,3,3115.7000000029802,101064.29999999702,8039,ATS,B,1
2,prac,1,A,haborder.png,1,z,Tue Nov 04 2025 11:59:49 GMT-0600 (Central Standard Time),106774.29999999702,CFD-BF-050-012-A.jpg,1200,solid,I,z,580,6,3,5710.0,101064.29999999702,8039,ATS,B,2
3,prac,1,A,haborder.png,1,m,Tue Nov 04 2025 11:59:49 GMT-0600 (Central Standard Time),109545.0,CFD-WM-011-006-HC.jpg,1400,solid,I,m,573,7,3,8480.70000000298,101064.29999999702,8039,ATS,B,3
4,prac,1,A,haborder.png,1,m,Tue Nov 04 2025 11:59:49 GMT-0600 (Central Standard Time),112810.29999999702,CFD-BF-035-007-HC.jpg,2000,solid,I,m,480,5,3,11746.0,101064.29999999702,8039,ATS,B,4
5,prac,1,A,haborder.png,1,z,Tue Nov 04 2025 11:59:49 GMT-0600 (Central Standard Time),115776.09999999404,CFD-BM-037-041-A.jpg,1600,solid,I,z,569,2,3,14711.79999999702,101064.29999999702,8039,ATS,B,5
6,prac,1,A,haborder.png,1,z,Tue Nov 04 2025 11:59:49 GMT-0600 (Central Standard Time),119075.39999999106,CFD-WM-009-009-A.jpg,1900,solid,I,z,612,8,3,18011.09999999404,101064.29999999702,8039,ATS,B,6
7,prac,1,A,haborder.png,1,z,Tue Nov 04 2025 11:59:49 GMT-0600 (Central Standard Time),121474.5,CFD-BF-051-043-A.jpg,1000,solid,I,z,605,4,3,20410.20000000298,101064.29999999702,8039,ATS,B,7
8,prac,1,A,haborder.png,1,m,Tue Nov 04 2025 11:59:49 GMT-0600 (Central Standard Time),124506.79999999702,CFD-WM-012-007-HC.jpg,1700,solid,I,m,546,9,3,23442.5,101064.29999999702,8039,ATS,B,8
9,prac,1,A,haborder.png,1,m,Tue Nov 04 2025 11:59:49 GMT-0600 (Central Standard Time),127739.29999999702,CFD-BM-015-017-HC.jpg,1700,solid,I,m,738,1,3,26675.0,101064.29999999702,8039,ATS,B,9
10,prac,1,A,haborder.png,1,m,Tue Nov 04 2025 11:59:49 GMT-0600 (Central Standard Time),130471.5,CFD-WF-011-006-HC.jpg,1500,solid,I,m,441,11,3,29407.20000000298,101064.29999999702,8039,ATS,B,10
11,prac,1,A,haborder.png,1,z,Tue Nov 04 2025 11:59:49 GMT-0600 (Central Standard Time),133137.70000000298,CFD-WF-013-015-A.jpg,1000,solid,I,z,873,12,3,32073.40000000596,101064.29999999702,8039,ATS,B,11
12,prac,1,A,haborder.png,1,m,Tue Nov 04 2025 11:59:49 GMT-0600 (Central Standard Time),136086.59999999404,CFD-BM-020-024-HC.jpg,1500,solid,I,m,666,3,3,35022.29999999702,101064.29999999702,8039,ATS,B,12
1,prac,1,B,mfborder.png,1,m,Tue Nov 04 2025 11:59:49 GMT-0600 (Central Standard Time),189886.59999999404,CFD-BM-020-024-HC.jpg,1700,dash,I,m,776,1,3,3265.8999999910593,186620.70000000298,8039,ATS,B,1
2,prac,1,B,mfborder.png,1,z,Tue Nov 04 2025 11:59:49 GMT-0600 (Central Standard Time),193051.89999999106,CFD-WF-027-007-HC.jpg,1900,dash,I,z,469,8,3,6431.199999988079,186620.70000000298,8039,ATS,B,2
3,prac,1,B,mfborder.png,1,m,Tue Nov 04 2025 11:59:49 GMT-0600 (Central Standard Time),196351.0,CFD-BM-037-041-A.jpg,2000,dash,I,m,500,5,3,9730.29999999702,186620.70000000298,8039,ATS,B,3
3,prac,1,B,mfborder.png,0,z,Tue Nov 04 2025 11:59:49 GMT-0600 (Central Standard Time),198650.5,CFD-WF-011-006-HC.jpg,1000,dash,I,m,513,12,3,12029.79999999702,186620.70000000298,8039,ATS,B,4
4,prac,1,B,mfborder.png,1,z,Tue Nov 04 2025 11:59:49 GMT-0600 (Central Standard Time),201549.5,CFD-BF-027-013-HC.jpg,1500,dash,I,z,627,3,3,14928.79999999702,186620.70000000298,8039,ATS,B,5
5,prac,1,B,mfborder.png,1,z,Tue Nov 04 2025 11:59:49 GMT-0600 (Central Standard Time),203882.0,CFD-BF-051-043-A.jpg,1000,dash,I,z,539,4,3,17261.29999999702,186620.70000000298,8039,ATS,B,6
6,prac,1,B,mfborder.png,1,m,Tue Nov 04 2025 11:59:49 GMT-0600 (Central Standard Time),206764.39999999106,CFD-BM-041-048-A.jpg,1600,dash,I,m,485,2,3,20143.69999998808,186620.70000000298,8039,ATS,B,7
7,prac,1,B,mfborder.png,1,z,Tue Nov 04 2025 11:59:49 GMT-0600 (Central Standard Time),209563.89999999106,CFD-WF-026-008-A.jpg,1500,dash,I,z,511,11,3,22943.19999998808,186620.70000000298,8039,ATS,B,8
8,prac,1,B,mfborder.png,1,m,Tue Nov 04 2025 11:59:49 GMT-0600 (Central Standard Time),212346.29999999702,CFD-WM-037-060-A.jpg,1200,dash,I,m,789,6,3,25725.59999999404,186620.70000000298,8039,ATS,B,9
9,prac,1,B,mfborder.png,1,m,Tue Nov 04 2025 11:59:49 GMT-0600 (Central Standard Time),215328.5,CFD-WM-012-007-HC.jpg,1600,dash,I,m,598,10,3,28707.79999999702,186620.70000000298,8039,ATS,B,10
10,prac,1,B,mfborder.png,1,z,Tue Nov 04 2025 11:59:49 GMT-0600 (Central Standard Time),217944.39999999106,CFD-BF-035-007-HC.jpg,1400,dash,I,z,423,7,3,31323.69999998808,186620.70000000298,8039,ATS,B,11
11,prac,1,B,mfborder.png,1,m,Tue Nov 04 2025 11:59:49 GMT-0600 (Central Standard Time),220976.89999999106,CFD-WM-009-009-A.jpg,1700,dash,I,m,540,9,3,34356.19999998808,186620.70000000298,8039,ATS,B,12
1,test,1,A,haborder.png,1,z,Tue Nov 04 2025 11:59:49 GMT-0600 (Central Standard Time),258465.0,CFD-WF-026-008-A.jpg,1600,solid,I,z,716,10,3,2332.7999999970198,256132.20000000298,8039,ATS,B,1
2,test,1,A,haborder.png,1,z,Tue Nov 04 2025 11:59:49 GMT-0600 (Central Standard Time),260714.20000000298,CFD-BM-037-041-A.jpg,1600,solid,I,z,623,2,3,4582.0,256132.20000000298,8039,ATS,B,2
3,test,1,A,haborder.png,1,m,Tue Nov 04 2025 11:59:49 GMT-0600 (Central Standard Time),263180.09999999404,CFD-BF-035-007-HC.jpg,2000,solid,I,m,446,5,3,7047.899999991059,256132.20000000298,8039,ATS,B,3
4,test,1,A,haborder.png,1,m,Tue Nov 04 2025 11:59:49 GMT-0600 (Central Standard Time),265113.0,CFD-WM-011-006-HC.jpg,1400,solid,I,m,516,7,3,8980.79999999702,256132.20000000298,8039,ATS,B,4
5,test,1,A,haborder.png,1,z,Tue Nov 04 2025 11:59:49 GMT-0600 (Central Standard Time),266962.09999999404,CFD-BF-050-012-A.jpg,1200,solid,I,z,623,6,3,10829.89999999106,256132.20000000298,8039,ATS,B,5
6,test,1,A,haborder.png,1,z,Tue Nov 04 2025 11:59:49 GMT-0600 (Central Standard Time),268745.0,CFD-WF-013-015-A.jpg,1000,solid,I,z,766,12,3,12612.79999999702,256132.20000000298,8039,ATS,B,6
7,test,1,A,haborder.png,1,m,Tue Nov 04 2025 11:59:49 GMT-0600 (Central Standard Time),271261.299999997,CFD-BF-035-007-HC.jpg,2000,solid,I,m,488,5,3,15129.09999999404,256132.20000000298,8039,ATS,B,7
8,test,1,A,haborder.png,1,m,Tue Nov 04 2025 11:59:49 GMT-0600 (Central Standard Time),273277.0,CFD-BM-020-024-HC.jpg,1500,solid,I,m,487,3,3,17144.79999999702,256132.20000000298,8039,ATS,B,8
9,test,1,A,haborder.png,1,m,Tue Nov 04 2025 11:59:49 GMT-0600 (Central Standard Time),275542.799999997,CFD-BM-015-017-HC.jpg,1700,solid,I,m,535,1,3,19410.59999999404,256132.20000000298,8039,ATS,B,9
10,test,1,A,haborder.png,1,z,Tue Nov 04 2025 11:59:49 GMT-0600 (Central Standard Time),277925.59999999404,CFD-WM-009-009-A.jpg,1900,solid,I,z,453,8,3,21793.39999999106,256132.20000000298,8039,ATS,B,10
11,test,1,A,haborder.png,1,m,Tue Nov 04 2025 11:59:49 GMT-0600 (Central Standard Time),279908.39999999106,CFD-WM-011-006-HC.jpg,1400,solid,I,m,563,7,3,23776.19999998808,256132.20000000298,8039,ATS,B,11
12,test,1,A,haborder.png,1,m,Tue Nov 04 2025 11:59:49 GMT-0600 (Central Standard Time),282024.200000003,CFD-BM-020-024-HC.jpg,1500,solid,I,m,592,3,3,25892.0,256132.20000000298,8039,ATS,B,12
13,test,1,A,haborder.png,1,z,Tue Nov 04 2025 11:59:49 GMT-0600 (Central Standard Time),284190.299999997,CFD-WF-026-008-A.jpg,1600,solid,I,z,544,10,3,28058.09999999404,256132.20000000298,8039,ATS,B,13
14,test,1,A,haborder.png,1,z,Tue Nov 04 2025 11:59:49 GMT-0600 (Central Standard Time),285823.0,CFD-WF-013-015-A.jpg,1000,solid,I,z,610,12,3,29690.79999999702,256132.20000000298,8039,ATS,B,14
15,test,1,A,haborder.png,1,z,Tue Nov 04 2025 11:59:49 GMT-0600 (Central Standard Time),287372.59999999404,CFD-BF-051-043-A.jpg,1000,solid,I,z,521,4,3,31240.39999999106,256132.20000000298,8039,ATS,B,15
16,test,1,A,haborder.png,1,m,Tue Nov 04 2025 11:59:49 GMT-0600 (Central Standard Time),289771.700000003,CFD-BM-015-017-HC.jpg,1700,solid,I,m,672,1,3,33639.5,256132.20000000298,8039,ATS,B,16
17,test,1,A,haborder.png,1,m,Tue Nov 04 2025 11:59:49 GMT-0600 (Central Standard Time),291837.59999999404,CFD-WF-011-006-HC.jpg,1500,solid,I,m,536,11,3,35705.39999999106,256132.20000000298,8039,ATS,B,17
18,test,1,A,haborder.png,1,z,Tue Nov 04 2025 11:59:49 GMT-0600 (Central Standard Time),293637.5,CFD-BF-051-043-A.jpg,1000,solid,I,z,778,4,3,37505.29999999702,256132.20000000298,8039,ATS,B,18
19,test,1,A,haborder.png,1,m,Tue Nov 04 2025 11:59:49 GMT-0600 (Central Standard Time),296036.5,CFD-WM-012-007-HC.jpg,1700,solid,I,m,679,9,3,39904.29999999702,256132.20000000298,8039,ATS,B,19
19,test,1,A,haborder.png,0,z,Tue Nov 04 2025 11:59:49 GMT-0600 (Central Standard Time),298619.09999999404,CFD-WM-009-009-A.jpg,1900,solid,I,m,656,8,3,42486.89999999106,256132.20000000298,8039,ATS,B,20
20,test,1,A,haborder.png,1,z,Tue Nov 04 2025 11:59:49 GMT-0600 (Central Standard Time),300485.299999997,CFD-BF-050-012-A.jpg,1200,solid,I,z,645,6,3,44353.09999999404,256132.20000000298,8039,ATS,B,21
21,test,1,A,haborder.png,1,m,Tue Nov 04 2025 11:59:49 GMT-0600 (Central Standard Time),302784.5,CFD-WM-012-007-HC.jpg,1700,solid,I,m,575,9,3,46652.29999999702,256132.20000000298,8039,ATS,B,22
22,test,1,A,haborder.png,1,m,Tue Nov 04 2025 11:59:49 GMT-0600 (Central Standard Time),304816.89999999106,CFD-WF-011-006-HC.jpg,1500,solid,I,m,508,11,3,48684.69999998808,256132.20000000298,8039,ATS,B,23
23,test,1,A,haborder.png,1,z,Tue Nov 04 2025 11:59:49 GMT-0600 (Central Standard Time),306933.09999999404,CFD-BM-037-041-A.jpg,1600,solid,I,z,487,2,3,50800.89999999106,256132.20000000298,8039,ATS,B,24
1,test,1,B,mfborder.png,1,m,Tue Nov 04 2025 11:59:49 GMT-0600 (Central Standard Time),335057.700000003,CFD-WM-012-007-HC.jpg,1600,dash,I,m,716,10,3,2349.1000000089407,332708.59999999404,8039,ATS,B,1
2,test,1,B,mfborder.png,1,m,Tue Nov 04 2025 11:59:49 GMT-0600 (Central Standard Time),336857.39999999106,CFD-WM-037-060-A.jpg,1200,dash,I,m,567,6,3,4148.79999999702,332708.59999999404,8039,ATS,B,2
3,test,1,B,mfborder.png,1,z,Tue Nov 04 2025 11:59:49 GMT-0600 (Central Standard Time),338839.799999997,CFD-BF-027-013-HC.jpg,1500,dash,I,z,450,3,3,6131.20000000298,332708.59999999404,8039,ATS,B,3
3,test,1,B,mfborder.png,0,m,Tue Nov 04 2025 11:59:49 GMT-0600 (Central Standard Time),341155.89999999106,CFD-BM-020-024-HC.jpg,1700,dash,I,z,597,1,3,8447.29999999702,332708.59999999404,8039,ATS,B,4
4,test,1,B,mfborder.png,1,m,Tue Nov 04 2025 11:59:49 GMT-0600 (Central Standard Time),343539.5,CFD-WM-009-009-A.jpg,1700,dash,I,m,665,9,3,10830.90000000596,332708.59999999404,8039,ATS,B,5
5,test,1,B,mfborder.png,1,z,Tue Nov 04 2025 11:59:49 GMT-0600 (Central Standard Time),345138.89999999106,CFD-BF-051-043-A.jpg,1000,dash,I,z,582,4,3,12430.29999999702,332708.59999999404,8039,ATS,B,6
6,test,1,B,mfborder.png,1,z,Tue Nov 04 2025 11:59:49 GMT-0600 (Central Standard Time),346670.700000003,CFD-BF-051-043-A.jpg,1000,dash,I,z,509,4,3,13962.10000000894,332708.59999999404,8039,ATS,B,7
7,test,1,B,mfborder.png,1,m,Tue Nov 04 2025 11:59:49 GMT-0600 (Central Standard Time),349220.0,CFD-BM-037-041-A.jpg,2000,dash,I,m,522,5,3,16511.40000000596,332708.59999999404,8039,ATS,B,8
8,test,1,B,mfborder.png,1,m,Tue Nov 04 2025 11:59:49 GMT-0600 (Central Standard Time),351319.0,CFD-WM-012-007-HC.jpg,1600,dash,I,m,469,10,3,18610.40000000596,332708.59999999404,8039,ATS,B,9
9,test,1,B,mfborder.png,1,m,Tue Nov 04 2025 11:59:49 GMT-0600 (Central Standard Time),353635.39999999106,CFD-BM-041-048-A.jpg,1600,dash,I,m,697,2,3,20926.79999999702,332708.59999999404,8039,ATS,B,10
10,test,1,B,mfborder.png,1,m,Tue Nov 04 2025 11:59:49 GMT-0600 (Central Standard Time),355418.0,CFD-WM-037-060-A.jpg,1200,dash,I,m,557,6,3,22709.40000000596,332708.59999999404,8039,ATS,B,11
11,test,1,B,mfborder.png,1,z,Tue Nov 04 2025 11:59:49 GMT-0600 (Central Standard Time),357001.0,CFD-WF-011-006-HC.jpg,1000,dash,I,z,550,12,3,24292.40000000596,332708.59999999404,8039,ATS,B,12
12,test,1,B,mfborder.png,1,z,Tue Nov 04 2025 11:59:49 GMT-0600 (Central Standard Time),359500.0,CFD-WF-027-007-HC.jpg,1900,dash,I,z,572,8,3,26791.40000000596,332708.59999999404,8039,ATS,B,13
13,test,1,B,mfborder.png,1,z,Tue Nov 04 2025 11:59:49 GMT-0600 (Central Standard Time),361449.39999999106,CFD-BF-035-007-HC.jpg,1400,dash,I,z,531,7,3,28740.79999999702,332708.59999999404,8039,ATS,B,14
14,test,1,B,mfborder.png,1,z,Tue Nov 04 2025 11:59:49 GMT-0600 (Central Standard Time),363582.0,CFD-WF-026-008-A.jpg,1500,dash,I,z,603,11,3,30873.40000000596,332708.59999999404,8039,ATS,B,15
15,test,1,B,mfborder.png,1,z,Tue Nov 04 2025 11:59:49 GMT-0600 (Central Standard Time),365114.700000003,CFD-WF-011-006-HC.jpg,1000,dash,I,z,514,12,3,32406.10000000894,332708.59999999404,8039,ATS,B,16
16,test,1,B,mfborder.png,1,z,Tue Nov 04 2025 11:59:49 GMT-0600 (Central Standard Time),367181.0,CFD-WF-026-008-A.jpg,1500,dash,I,z,537,11,3,34472.40000000596,332708.59999999404,8039,ATS,B,17
17,test,1,B,mfborder.png,1,m,Tue Nov 04 2025 11:59:49 GMT-0600 (Central Standard Time),369698.200000003,CFD-BM-037-041-A.jpg,2000,dash,I,m,483,5,3,36989.60000000894,332708.59999999404,8039,ATS,B,18
18,test,1,B,mfborder.png,1,m,Tue Nov 04 2025 11:59:49 GMT-0600 (Central Standard Time),372079.5,CFD-BM-020-024-HC.jpg,1700,dash,I,m,652,1,3,39370.90000000596,332708.59999999404,8039,ATS,B,19
19,test,1,B,mfborder.png,1,m,Tue Nov 04 2025 11:59:49 GMT-0600 (Central Standard Time),374195.39999999106,CFD-BM-041-048-A.jpg,1600,dash,I,m,489,2,3,41486.79999999702,332708.59999999404,8039,ATS,B,20
20,test,1,B,mfborder.png,1,z,Tue Nov 04 2025 11:59:49 GMT-0600 (Central Standard Time),376211.299999997,CFD-BF-035-007-HC.jpg,1400,dash,I,z,597,7,3,43502.70000000298,332708.59999999404,8039,ATS,B,21
21,test,1,B,mfborder.png,1,z,Tue Nov 04 2025 11:59:49 GMT-0600 (Central Standard Time),378410.799999997,CFD-BF-027-013-HC.jpg,1500,dash,I,z,673,3,3,45702.20000000298,332708.59999999404,8039,ATS,B,22
22,test,1,B,mfborder.png,1,m,Tue Nov 04 2025 11:59:49 GMT-0600 (Central Standard Time),380609.799999997,CFD-WM-009-009-A.jpg,1700,dash,I,m,482,9,3,47901.20000000298,332708.59999999404,8039,ATS,B,23
23,test,1,B,mfborder.png,1,z,Tue Nov 04 2025 11:59:49 GMT-0600 (Central Standard Time),383075.89999999106,CFD-WF-027-007-HC.jpg,1900,dash,I,z,547,8,3,50367.29999999702,332708.59999999404,8039,ATS,B,24
0,7,1,C,haborder.png,0,z,Tue Nov 04 2025 11:59:49 GMT-0600 (Central Standard Time),456719.59999999404,CFD-BF-051-043-A.jpg,1900,dash,I,None,1516,prac,3,4198.5,452521.09999999404,8039,ATS,B,1
1,4,1,C,mfborder.png,1,m,Tue Nov 04 2025 11:59:49 GMT-0600 (Central Standard Time),460335.299999997,CFD-BM-015-017-HC.jpg,2000,solid,I,m,817,prac,3,7814.20000000298,452521.09999999404,8039,ATS,B,2
2,3,1,C,mfborder.png,1,z,Tue Nov 04 2025 11:59:49 GMT-0600 (Central Standard Time),463084.09999999404,CFD-BF-035-007-HC.jpg,1000,dash,I,z,953,prac,3,10563.0,452521.09999999404,8039,ATS,B,3
2,1,1,C,mfborder.png,0,z,Tue Nov 04 2025 11:59:49 GMT-0600 (Central Standard Time),466450.0,CFD-WF-011-006-HC.jpg,1600,dash,I,m,972,prac,3,13928.90000000596,452521.09999999404,8039,ATS,B,4
3,11,1,C,haborder.png,1,m,Tue Nov 04 2025 11:59:49 GMT-0600 (Central Standard Time),469365.799999997,CFD-WM-011-006-HC.jpg,1000,dash,I,m,1117,prac,3,16844.70000000298,452521.09999999404,8039,ATS,B,5
4,6,1,C,mfborder.png,1,m,Tue Nov 04 2025 11:59:49 GMT-0600 (Central Standard Time),472864.59999999404,CFD-WM-009-009-A.jpg,1700,solid,I,m,1015,prac,3,20343.5,452521.09999999404,8039,ATS,B,6
4,10,1,C,haborder.png,0,m,Tue Nov 04 2025 11:59:49 GMT-0600 (Central Standard Time),476047.0,CFD-BM-020-024-HC.jpg,1500,solid,I,z,884,prac,3,23525.90000000596,452521.09999999404,8039,ATS,B,7
5,5,1,C,mfborder.png,1,m,Tue Nov 04 2025 11:59:49 GMT-0600 (Central Standard Time),478929.39999999106,CFD-BM-037-041-A.jpg,1200,dash,I,m,898,prac,3,26408.29999999702,452521.09999999404,8039,ATS,B,8
5,12,1,C,haborder.png,0,m,Tue Nov 04 2025 11:59:49 GMT-0600 (Central Standard Time),482178.39999999106,CFD-WM-011-006-HC.jpg,1400,solid,I,z,1055,prac,3,29657.29999999702,452521.09999999404,8039,ATS,B,9
6,9,1,C,haborder.png,1,z,Tue Nov 04 2025 11:59:49 GMT-0600 (Central Standard Time),485443.89999999106,CFD-WF-026-008-A.jpg,1600,dash,I,z,871,prac,3,32922.79999999702,452521.09999999404,8039,ATS,B,10
7,2,1,C,mfborder.png,1,z,Tue Nov 04 2025 11:59:49 GMT-0600 (Central Standard Time),488259.799999997,CFD-WF-013-015-A.jpg,1500,solid,I,z,520,prac,3,35738.70000000298,452521.09999999404,8039,ATS,B,11
8,8,1,C,haborder.png,1,z,Tue Nov 04 2025 11:59:49 GMT-0600 (Central Standard Time),491408.89999999106,CFD-BF-050-012-A.jpg,1700,solid,I,z,658,prac,3,38887.79999999702,452521.09999999404,8039,ATS,B,12
0,test,1,C,haborder.png,0,m,Tue Nov 04 2025 11:59:49 GMT-0600 (Central Standard Time),529913.200000003,CFD-WF-011-006-HC.jpg,1000,solid,I,z,840,12,3,1866.0,528047.200000003,8039,ATS,B,1
1,test,1,C,haborder.png,1,z,Tue Nov 04 2025 11:59:49 GMT-0600 (Central Standard Time),532779.299999997,CFD-BM-037-041-A.jpg,1900,solid,I,z,947,8,3,4732.0999999940395,528047.200000003,8039,ATS,B,2
2,test,1,C,mfborder.png,1,m,Tue Nov 04 2025 11:59:49 GMT-0600 (Central Standard Time),534745.200000003,CFD-BM-020-024-HC.jpg,1200,dash,I,m,733,6,3,6698.0,528047.200000003,8039,ATS,B,3
3,test,1,C,mfborder.png,1,m,Tue Nov 04 2025 11:59:49 GMT-0600 (Central Standard Time),537677.799999997,CFD-WM-037-060-A.jpg,2000,dash,I,m,912,5,3,9630.59999999404,528047.200000003,8039,ATS,B,4
4,test,1,C,mfborder.png,1,m,Tue Nov 04 2025 11:59:49 GMT-0600 (Central Standard Time),539743.3999999911,CFD-BM-020-024-HC.jpg,1200,dash,I,m,843,6,3,11696.199999988079,528047.200000003,8039,ATS,B,5
5,test,1,C,mfborder.png,1,m,Tue Nov 04 2025 11:59:49 GMT-0600 (Central Standard Time),541742.8999999911,CFD-WM-012-007-HC.jpg,1000,dash,I,m,977,4,3,13695.699999988079,528047.200000003,8039,ATS,B,6
5,test,1,C,haborder.png,0,m,Tue Nov 04 2025 11:59:49 GMT-0600 (Central Standard Time),543876.799999997,CFD-WF-011-006-HC.jpg,1000,solid,I,z,1113,12,3,15829.59999999404,528047.200000003,8039,ATS,B,7
6,test,1,C,mfborder.png,1,z,Tue Nov 04 2025 11:59:49 GMT-0600 (Central Standard Time),546724.700000003,CFD-BF-027-013-HC.jpg,1700,dash,I,z,1129,1,3,18677.5,528047.200000003,8039,ATS,B,8
7,test,1,C,haborder.png,1,z,Tue Nov 04 2025 11:59:49 GMT-0600 (Central Standard Time),549174.0,CFD-WM-009-009-A.jpg,1400,solid,I,z,1028,7,3,21126.79999999702,528047.200000003,8039,ATS,B,9
8,test,1,C,mfborder.png,1,z,Tue Nov 04 2025 11:59:49 GMT-0600 (Central Standard Time),551973.0,CFD-WF-026-008-A.jpg,1500,dash,I,z,1279,3,3,23925.79999999702,528047.200000003,8039,ATS,B,10
9,test,1,C,haborder.png,1,m,Tue Nov 04 2025 11:59:49 GMT-0600 (Central Standard Time),554889.0,CFD-BF-035-007-HC.jpg,1600,solid,I,m,1292,10,3,26841.79999999702,528047.200000003,8039,ATS,B,11
10,test,1,C,haborder.png,1,m,Tue Nov 04 2025 11:59:49 GMT-0600 (Central Standard Time),557205.0,CFD-BF-035-007-HC.jpg,1600,solid,I,m,696,10,3,29157.79999999702,528047.200000003,8039,ATS,B,12
11,test,1,C,haborder.png,1,z,Tue Nov 04 2025 11:59:49 GMT-0600 (Central Standard Time),559704.200000003,CFD-BM-041-048-A.jpg,1700,solid,I,z,777,9,3,31657.0,528047.200000003,8039,ATS,B,13
12,test,1,C,haborder.png,1,z,Tue Nov 04 2025 11:59:49 GMT-0600 (Central Standard Time),562553.200000003,CFD-BM-037-041-A.jpg,1900,solid,I,z,933,8,3,34506.0,528047.200000003,8039,ATS,B,14
13,test,1,C,mfborder.png,1,z,Tue Nov 04 2025 11:59:49 GMT-0600 (Central Standard Time),564902.5,CFD-BF-051-043-A.jpg,1600,dash,I,z,728,2,3,36855.29999999702,528047.200000003,8039,ATS,B,15
14,test,1,C,haborder.png,1,z,Tue Nov 04 2025 11:59:49 GMT-0600 (Central Standard Time),567001.799999997,CFD-WM-009-009-A.jpg,1400,solid,I,z,682,7,3,38954.59999999404,528047.200000003,8039,ATS,B,16
15,test,1,C,haborder.png,1,z,Tue Nov 04 2025 11:59:49 GMT-0600 (Central Standard Time),569517.599999994,CFD-BM-041-048-A.jpg,1700,solid,I,z,787,9,3,41470.39999999106,528047.200000003,8039,ATS,B,17
16,test,1,C,mfborder.png,1,z,Tue Nov 04 2025 11:59:49 GMT-0600 (Central Standard Time),572033.5,CFD-WF-026-008-A.jpg,1500,dash,I,z,999,3,3,43986.29999999702,528047.200000003,8039,ATS,B,18
17,test,1,C,haborder.png,1,m,Tue Nov 04 2025 11:59:49 GMT-0600 (Central Standard Time),574516.099999994,CFD-WF-027-007-HC.jpg,1500,solid,I,m,955,11,3,46468.89999999106,528047.200000003,8039,ATS,B,19
18,test,1,C,mfborder.png,1,m,Tue Nov 04 2025 11:59:49 GMT-0600 (Central Standard Time),577332.0,CFD-WM-037-060-A.jpg,2000,dash,I,m,797,5,3,49284.79999999702,528047.200000003,8039,ATS,B,20
18,test,1,C,mfborder.png,0,z,Tue Nov 04 2025 11:59:49 GMT-0600 (Central Standard Time),579897.599999994,CFD-BF-027-013-HC.jpg,1700,dash,I,m,834,1,3,51850.39999999106,528047.200000003,8039,ATS,B,21
19,test,1,C,mfborder.png,1,z,Tue Nov 04 2025 11:59:49 GMT-0600 (Central Standard Time),582413.799999997,CFD-BF-051-043-A.jpg,1600,dash,I,z,895,2,3,54366.59999999404,528047.200000003,8039,ATS,B,22
20,test,1,C,mfborder.png,1,m,Tue Nov 04 2025 11:59:49 GMT-0600 (Central Standard Time),584129.700000003,CFD-WM-012-007-HC.jpg,1000,dash,I,m,691,4,3,56082.5,528047.200000003,8039,ATS,B,23
21,test,1,C,haborder.png,1,m,Tue Nov 04 2025 11:59:49 GMT-0600 (Central Standard Time),586646.0,CFD-WF-027-007-HC.jpg,1500,solid,I,m,995,11,3,58598.79999999702,528047.200000003,8039,ATS,B,24
1,test,2,C,mfborder.png,1,m,Tue Nov 04 2025 11:59:49 GMT-0600 (Central Standard Time),591327.5,CFD-BM-037-041-A.jpg,2000,dash,I,m,818,5,3,2849.2000000029802,588478.299999997,8039,ATS,B,1
2,test,2,C,mfborder.png,1,m,Tue Nov 04 2025 11:59:49 GMT-0600 (Central Standard Time),593160.099999994,CFD-WM-009-009-A.jpg,1200,dash,I,m,609,6,3,4681.79999999702,588478.299999997,8039,ATS,B,2
3,test,2,C,haborder.png,1,z,Tue Nov 04 2025 11:59:49 GMT-0600 (Central Standard Time),595743.0,CFD-BF-050-012-A.jpg,1900,solid,I,z,661,8,3,7264.70000000298,588478.299999997,8039,ATS,B,3
4,test,2,C,haborder.png,1,m,Tue Nov 04 2025 11:59:49 GMT-0600 (Central Standard Time),597442.0,CFD-WM-011-006-HC.jpg,1000,solid,I,m,682,12,3,8963.70000000298,588478.299999997,8039,ATS,B,4
4,test,2,C,mfborder.png,0,z,Tue Nov 04 2025 11:59:49 GMT-0600 (Central Standard Time),600141.299999997,CFD-WF-011-006-HC.jpg,1700,dash,I,m,969,1,3,11663.0,588478.299999997,8039,ATS,B,5
5,test,2,C,haborder.png,1,z,Tue Nov 04 2025 11:59:49 GMT-0600 (Central Standard Time),602824.099999994,CFD-WF-026-008-A.jpg,1700,solid,I,z,959,9,3,14345.79999999702,588478.299999997,8039,ATS,B,6
6,test,2,C,haborder.png,1,z,Tue Nov 04 2025 11:59:49 GMT-0600 (Central Standard Time),604856.599999994,CFD-BF-051-043-A.jpg,1400,solid,I,z,601,7,3,16378.29999999702,588478.299999997,8039,ATS,B,7
7,test,2,C,haborder.png,1,z,Tue Nov 04 2025 11:59:49 GMT-0600 (Central Standard Time),606872.700000003,CFD-BF-051-043-A.jpg,1400,solid,I,z,584,7,3,18394.40000000596,588478.299999997,8039,ATS,B,8
8,test,2,C,haborder.png,1,z,Tue Nov 04 2025 11:59:49 GMT-0600 (Central Standard Time),609221.8999999911,CFD-WF-026-008-A.jpg,1700,solid,I,z,628,9,3,20743.59999999404,588478.299999997,8039,ATS,B,9
9,test,2,C,mfborder.png,1,z,Tue Nov 04 2025 11:59:49 GMT-0600 (Central Standard Time),611754.099999994,CFD-BF-035-007-HC.jpg,1500,dash,I,z,1015,3,3,23275.79999999702,588478.299999997,8039,ATS,B,10
10,test,2,C,mfborder.png,1,m,Tue Nov 04 2025 11:59:49 GMT-0600 (Central Standard Time),614436.8999999911,CFD-BM-037-041-A.jpg,2000,dash,I,m,662,5,3,25958.59999999404,588478.299999997,8039,ATS,B,11
11,test,2,C,mfborder.png,1,z,Tue Nov 04 2025 11:59:49 GMT-0600 (Central Standard Time),616936.299999997,CFD-WF-013-015-A.jpg,1600,dash,I,z,868,2,3,28458.0,588478.299999997,8039,ATS,B,12
12,test,2,C,mfborder.png,1,m,Tue Nov 04 2025 11:59:49 GMT-0600 (Central Standard Time),618602.200000003,CFD-BM-015-017-HC.jpg,1000,dash,I,m,648,4,3,30123.90000000596,588478.299999997,8039,ATS,B,13
13,test,2,C,mfborder.png,1,m,Tue Nov 04 2025 11:59:49 GMT-0600 (Central Standard Time),620551.799999997,CFD-WM-009-009-A.jpg,1200,dash,I,m,718,6,3,32073.5,588478.299999997,8039,ATS,B,14
14,test,2,C,mfborder.png,1,m,Tue Nov 04 2025 11:59:49 GMT-0600 (Central Standard Time),622151.099999994,CFD-BM-015-017-HC.jpg,1000,dash,I,m,568,4,3,33672.79999999702,588478.299999997,8039,ATS,B,15
15,test,2,C,mfborder.png,1,z,Tue Nov 04 2025 11:59:49 GMT-0600 (Central Standard Time),624433.700000003,CFD-WF-011-006-HC.jpg,1700,dash,I,z,557,1,3,35955.40000000596,588478.299999997,8039,ATS,B,16
16,test,2,C,mfborder.png,1,z,Tue Nov 04 2025 11:59:49 GMT-0600 (Central Standard Time),626816.299999997,CFD-WF-013-015-A.jpg,1600,dash,I,z,751,2,3,38338.0,588478.299999997,8039,ATS,B,17
17,test,2,C,haborder.png,1,z,Tue Nov 04 2025 11:59:49 GMT-0600 (Central Standard Time),629298.8999999911,CFD-BF-050-012-A.jpg,1900,solid,I,z,564,8,3,40820.59999999404,588478.299999997,8039,ATS,B,18
18,test,2,C,haborder.png,1,m,Tue Nov 04 2025 11:59:49 GMT-0600 (Central Standard Time),631348.099999994,CFD-WM-011-006-HC.jpg,1500,solid,I,m,530,11,3,42869.79999999702,588478.299999997,8039,ATS,B,19
19,test,2,C,mfborder.png,1,z,Tue Nov 04 2025 11:59:49 GMT-0600 (Central Standard Time),633764.099999994,CFD-BF-035-007-HC.jpg,1500,dash,I,z,888,3,3,45285.79999999702,588478.299999997,8039,ATS,B,20
19,test,2,C,haborder.png,0,m,Tue Nov 04 2025 11:59:49 GMT-0600 (Central Standard Time),636696.700000003,CFD-BM-020-024-HC.jpg,1600,solid,I,z,1308,10,3,48218.40000000596,588478.299999997,8039,ATS,B,21
20,test,2,C,haborder.png,1,m,Tue Nov 04 2025 11:59:49 GMT-0600 (Central Standard Time),638912.599999994,CFD-BM-020-024-HC.jpg,1600,solid,I,m,584,10,3,50434.29999999702,588478.299999997,8039,ATS,B,22
21,test,2,C,haborder.png,1,m,Tue Nov 04 2025 11:59:49 GMT-0600 (Central Standard Time),640528.599999994,CFD-WM-011-006-HC.jpg,1000,solid,I,m,584,12,3,52050.29999999702,588478.299999997,8039,ATS,B,23
22,test,2,C,haborder.png,1,m,Tue Nov 04 2025 11:59:49 GMT-0600 (Central Standard Time),642628.099999994,CFD-WM-011-006-HC.jpg,1500,solid,I,m,572,11,3,54149.79999999702,588478.299999997,8039,ATS,B,24
1,test,3,C,mfborder.png,1,z,Tue Nov 04 2025 11:59:49 GMT-0600 (Central Standard Time),646910.0,CFD-BF-051-043-A.jpg,1600,dash,I,z,644,2,3,2265.7000000029802,644644.299999997,8039,ATS,B,1
2,test,3,C,haborder.png,1,m,Tue Nov 04 2025 11:59:49 GMT-0600 (Central Standard Time),648876.200000003,CFD-WF-011-006-HC.jpg,1000,solid,I,m,938,12,3,4231.9000000059605,644644.299999997,8039,ATS,B,2
3,test,3,C,mfborder.png,1,z,Tue Nov 04 2025 11:59:49 GMT-0600 (Central Standard Time),651025.3999999911,CFD-WF-026-008-A.jpg,1500,dash,I,z,632,3,3,6381.0999999940395,644644.299999997,8039,ATS,B,3
4,test,3,C,mfborder.png,1,m,Tue Nov 04 2025 11:59:49 GMT-0600 (Central Standard Time),652758.099999994,CFD-BM-020-024-HC.jpg,1200,dash,I,m,511,6,3,8113.79999999702,644644.299999997,8039,ATS,B,4
5,test,3,C,mfborder.png,1,m,Tue Nov 04 2025 11:59:49 GMT-0600 (Central Standard Time),655424.0,CFD-WM-037-060-A.jpg,2000,dash,I,m,634,5,3,10779.70000000298,644644.299999997,8039,ATS,B,5
5,test,3,C,haborder.png,0,m,Tue Nov 04 2025 11:59:49 GMT-0600 (Central Standard Time),657873.5,CFD-BF-035-007-HC.jpg,1600,solid,I,z,832,10,3,13229.20000000298,644644.299999997,8039,ATS,B,6
6,test,3,C,haborder.png,1,z,Tue Nov 04 2025 11:59:49 GMT-0600 (Central Standard Time),660039.599999994,CFD-WM-009-009-A.jpg,1400,solid,I,z,735,7,3,15395.29999999702,644644.299999997,8039,ATS,B,7
7,test,3,C,mfborder.png,1,m,Tue Nov 04 2025 11:59:49 GMT-0600 (Central Standard Time),661872.299999997,CFD-WM-012-007-HC.jpg,1000,dash,I,m,801,4,3,17228.0,644644.299999997,8039,ATS,B,8
8,test,3,C,haborder.png,1,m,Tue Nov 04 2025 11:59:49 GMT-0600 (Central Standard Time),664221.299999997,CFD-WF-027-007-HC.jpg,1500,solid,I,m,828,11,3,19577.0,644644.299999997,8039,ATS,B,9
9,test,3,C,mfborder.png,1,z,Tue Nov 04 2025 11:59:49 GMT-0600 (Central Standard Time),666520.599999994,CFD-WF-026-008-A.jpg,1500,dash,I,z,775,3,3,21876.29999999702,644644.299999997,8039,ATS,B,10
10,test,3,C,haborder.png,1,m,Tue Nov 04 2025 11:59:49 GMT-0600 (Central Standard Time),669103.299999997,CFD-BF-035-007-HC.jpg,1600,solid,I,m,952,10,3,24459.0,644644.299999997,8039,ATS,B,11
11,test,3,C,mfborder.png,1,z,Tue Nov 04 2025 11:59:49 GMT-0600 (Central Standard Time),671619.099999994,CFD-BF-027-013-HC.jpg,1700,dash,I,z,789,1,3,26974.79999999702,644644.299999997,8039,ATS,B,12
11,test,3,C,haborder.png,0,z,Tue Nov 04 2025 11:59:49 GMT-0600 (Central Standard Time),674634.8999999911,CFD-BM-037-041-A.jpg,1900,solid,I,m,1097,8,3,29990.59999999404,644644.299999997,8039,ATS,B,13
12,test,3,C,mfborder.png,1,m,Tue Nov 04 2025 11:59:49 GMT-0600 (Central Standard Time),676634.099999994,CFD-BM-020-024-HC.jpg,1200,dash,I,m,780,6,3,31989.79999999702,644644.299999997,8039,ATS,B,14
13,test,3,C,haborder.png,1,z,Tue Nov 04 2025 11:59:49 GMT-0600 (Central Standard Time),678850.299999997,CFD-WM-009-009-A.jpg,1400,solid,I,z,791,7,3,34206.0,644644.299999997,8039,ATS,B,15
14,test,3,C,mfborder.png,1,z,Tue Nov 04 2025 11:59:49 GMT-0600 (Central Standard Time),681316.099999994,CFD-BF-027-013-HC.jpg,1700,dash,I,z,738,1,3,36671.79999999702,644644.299999997,8039,ATS,B,16
15,test,3,C,mfborder.png,1,m,Tue Nov 04 2025 11:59:49 GMT-0600 (Central Standard Time),682998.8999999911,CFD-WM-012-007-HC.jpg,1000,dash,I,m,652,4,3,38354.59999999404,644644.299999997,8039,ATS,B,17
16,test,3,C,haborder.png,1,z,Tue Nov 04 2025 11:59:49 GMT-0600 (Central Standard Time),685464.700000003,CFD-BM-041-048-A.jpg,1700,solid,I,z,742,9,3,40820.40000000596,644644.299999997,8039,ATS,B,18
17,test,3,C,mfborder.png,1,z,Tue Nov 04 2025 11:59:49 GMT-0600 (Central Standard Time),687913.8999999911,CFD-BF-051-043-A.jpg,1600,dash,I,z,824,2,3,43269.59999999404,644644.299999997,8039,ATS,B,19
18,test,3,C,haborder.png,1,m,Tue Nov 04 2025 11:59:49 GMT-0600 (Central Standard Time),690196.8999999911,CFD-WF-027-007-HC.jpg,1500,solid,I,m,762,11,3,45552.59999999404,644644.299999997,8039,ATS,B,20
19,test,3,C,haborder.png,1,m,Tue Nov 04 2025 11:59:49 GMT-0600 (Central Standard Time),691812.700000003,CFD-WF-011-006-HC.jpg,1000,solid,I,m,588,12,3,47168.40000000596,644644.299999997,8039,ATS,B,21
20,test,3,C,haborder.png,1,z,Tue Nov 04 2025 11:59:49 GMT-0600 (Central Standard Time),694112.099999994,CFD-BM-041-048-A.jpg,1700,solid,I,z,576,9,3,49467.79999999702,644644.299999997,8039,ATS,B,22
21,test,3,C,mfborder.png,1,m,Tue Nov 04 2025 11:59:49 GMT-0600 (Central Standard Time),696727.799999997,CFD-WM-037-060-A.jpg,2000,dash,I,m,585,5,3,52083.5,644644.299999997,8039,ATS,B,23
22,test,3,C,haborder.png,1,z,Tue Nov 04 2025 11:59:49 GMT-0600 (Central Standard Time),699410.0,CFD-BM-037-041-A.jpg,1900,solid,I,z,765,8,3,54765.70000000298,644644.299999997,8039,ATS,B,24
1,test,4,C,haborder.png,1,z,Tue Nov 04 2025 11:59:49 GMT-0600 (Central Standard Time),703858.8999999911,CFD-BF-051-043-A.jpg,1400,solid,I,z,781,7,3,2199.199999988079,701659.700000003,8039,ATS,B,1
2,test,4,C,haborder.png,1,z,Tue Nov 04 2025 11:59:49 GMT-0600 (Central Standard Time),705791.700000003,CFD-BF-051-043-A.jpg,1400,solid,I,z,500,7,3,4132.0,701659.700000003,8039,ATS,B,2
2,test,4,C,mfborder.png,0,z,Tue Nov 04 2025 11:59:49 GMT-0600 (Central Standard Time),707990.8999999911,CFD-WF-013-015-A.jpg,1600,dash,I,m,569,2,3,6331.199999988079,701659.700000003,8039,ATS,B,3
3,test,4,C,haborder.png,1,z,Tue Nov 04 2025 11:59:49 GMT-0600 (Central Standard Time),710474.5,CFD-WF-026-008-A.jpg,1700,solid,I,z,765,9,3,8814.79999999702,701659.700000003,8039,ATS,B,4
4,test,4,C,haborder.png,1,z,Tue Nov 04 2025 11:59:49 GMT-0600 (Central Standard Time),713022.700000003,CFD-BF-050-012-A.jpg,1900,solid,I,z,627,8,3,11363.0,701659.700000003,8039,ATS,B,5
5,test,4,C,mfborder.png,1,z,Tue Nov 04 2025 11:59:49 GMT-0600 (Central Standard Time),715621.8999999911,CFD-WF-011-006-HC.jpg,1700,dash,I,z,871,1,3,13962.199999988079,701659.700000003,8039,ATS,B,6
6,test,4,C,mfborder.png,1,z,Tue Nov 04 2025 11:59:49 GMT-0600 (Central Standard Time),717672.5,CFD-BF-035-007-HC.jpg,1500,dash,I,z,519,3,3,16012.79999999702,701659.700000003,8039,ATS,B,7
7,test,4,C,mfborder.png,1,m,Tue Nov 04 2025 11:59:49 GMT-0600 (Central Standard Time),720337.099999994,CFD-BM-037-041-A.jpg,2000,dash,I,m,632,5,3,18677.39999999106,701659.700000003,8039,ATS,B,8
8,test,4,C,haborder.png,1,m,Tue Nov 04 2025 11:59:49 GMT-0600 (Central Standard Time),722219.700000003,CFD-WM-011-006-HC.jpg,1000,solid,I,m,863,12,3,20560.0,701659.700000003,8039,ATS,B,9
9,test,4,C,haborder.png,1,m,Tue Nov 04 2025 11:59:49 GMT-0600 (Central Standard Time),724219.099999994,CFD-WM-011-006-HC.jpg,1500,solid,I,m,481,11,3,22559.39999999106,701659.700000003,8039,ATS,B,10
10,test,4,C,haborder.png,1,m,Tue Nov 04 2025 11:59:49 GMT-0600 (Central Standard Time),726485.099999994,CFD-BM-020-024-HC.jpg,1600,solid,I,m,645,10,3,24825.39999999106,701659.700000003,8039,ATS,B,11
11,test,4,C,haborder.png,1,m,Tue Nov 04 2025 11:59:49 GMT-0600 (Central Standard Time),728101.3999999911,CFD-WM-011-006-HC.jpg,1000,solid,I,m,587,12,3,26441.69999998808,701659.700000003,8039,ATS,B,12
12,test,4,C,mfborder.png,1,z,Tue Nov 04 2025 11:59:49 GMT-0600 (Central Standard Time),730385.299999997,CFD-WF-013-015-A.jpg,1600,dash,I,z,659,2,3,28725.59999999404,701659.700000003,8039,ATS,B,13
13,test,4,C,mfborder.png,1,m,Tue Nov 04 2025 11:59:49 GMT-0600 (Central Standard Time),732166.799999997,CFD-WM-009-009-A.jpg,1200,dash,I,m,552,6,3,30507.09999999404,701659.700000003,8039,ATS,B,14
14,test,4,C,mfborder.png,1,m,Tue Nov 04 2025 11:59:49 GMT-0600 (Central Standard Time),734798.8999999911,CFD-BM-037-041-A.jpg,2000,dash,I,m,609,5,3,33139.19999998808,701659.700000003,8039,ATS,B,15
14,test,4,C,haborder.png,0,m,Tue Nov 04 2025 11:59:49 GMT-0600 (Central Standard Time),737315.200000003,CFD-BM-020-024-HC.jpg,1600,solid,I,z,897,10,3,35655.5,701659.700000003,8039,ATS,B,16
15,test,4,C,mfborder.png,1,m,Tue Nov 04 2025 11:59:49 GMT-0600 (Central Standard Time),738981.200000003,CFD-BM-015-017-HC.jpg,1000,dash,I,m,646,4,3,37321.5,701659.700000003,8039,ATS,B,17
16,test,4,C,mfborder.png,1,m,Tue Nov 04 2025 11:59:49 GMT-0600 (Central Standard Time),740580.8999999911,CFD-BM-015-017-HC.jpg,1000,dash,I,m,571,4,3,38921.19999998808,701659.700000003,8039,ATS,B,18
17,test,4,C,haborder.png,1,z,Tue Nov 04 2025 11:59:49 GMT-0600 (Central Standard Time),743146.3999999911,CFD-BF-050-012-A.jpg,1900,solid,I,z,648,8,3,41486.69999998808,701659.700000003,8039,ATS,B,19
18,test,4,C,haborder.png,1,z,Tue Nov 04 2025 11:59:49 GMT-0600 (Central Standard Time),745429.200000003,CFD-WF-026-008-A.jpg,1700,solid,I,z,562,9,3,43769.5,701659.700000003,8039,ATS,B,20
19,test,4,C,mfborder.png,1,z,Tue Nov 04 2025 11:59:49 GMT-0600 (Central Standard Time),747928.299999997,CFD-WF-011-006-HC.jpg,1700,dash,I,z,775,1,3,46268.59999999404,701659.700000003,8039,ATS,B,21
20,test,4,C,haborder.png,1,m,Tue Nov 04 2025 11:59:49 GMT-0600 (Central Standard Time),750144.3999999911,CFD-WM-011-006-HC.jpg,1500,solid,I,m,684,11,3,48484.69999998808,701659.700000003,8039,ATS,B,22
21,test,4,C,mfborder.png,1,z,Tue Nov 04 2025 11:59:49 GMT-0600 (Central Standard Time),752493.3999999911,CFD-BF-035-007-HC.jpg,1500,dash,I,z,821,3,3,50833.69999998808,701659.700000003,8039,ATS,B,23
22,test,4,C,mfborder.png,1,m,Tue Nov 04 2025 11:59:49 GMT-0600 (Central Standard Time),754426.3999999911,CFD-WM-009-009-A.jpg,1200,dash,I,m,707,6,3,52766.69999998808,701659.700000003,8039,ATS,B,24
