acc_sum,block,block_c,block_cond,con_img,correct,correct_response,datetime,endtime,face,jitter,line,project,response,response_time,row_sel,session_number,start_end,starttime,subject_id,task,task_vers,trial
1,prac,1,A,haborder.png,1,z,Mon Jul 14 2025 13:37:47 GMT-0500 (Central Daylight Time),68288.0,CFD-BM-005-010-A.jpg,1600,solid,I,z,634,2,2,3032.5,65255.5,8039,ATS,A,1
2,prac,1,A,haborder.png,1,m,Mon Jul 14 2025 13:37:47 GMT-0500 (Central Daylight Time),71237.20000001788,CFD-BM-029-026-HC.jpg,1500,solid,I,m,661,3,2,5981.700000017881,65255.5,8039,ATS,A,2
3,prac,1,A,haborder.png,1,m,Mon Jul 14 2025 13:37:47 GMT-0500 (Central Daylight Time),74148.70000001788,CFD-WM-004-005-HC.jpg,1400,solid,I,m,644,7,2,8893.200000017881,65255.5,8039,ATS,A,3
4,prac,1,A,haborder.png,1,m,Mon Jul 14 2025 13:37:47 GMT-0500 (Central Daylight Time),77368.60000002384,CFD-WF-017-016-HC.jpg,1500,solid,I,m,925,11,2,12113.100000023842,65255.5,8039,ATS,A,4
5,prac,1,A,haborder.png,1,m,Mon Jul 14 2025 13:37:47 GMT-0500 (Central Daylight Time),80434.10000002384,CFD-WM-006-013-HC.jpg,1700,solid,I,m,573,9,2,15178.600000023842,65255.5,8039,ATS,A,5
6,prac,1,A,haborder.png,1,z,Mon Jul 14 2025 13:37:47 GMT-0500 (Central Daylight Time),82667.0,CFD-BF-023-013-A.jpg,1000,solid,I,z,447,4,2,17411.5,65255.5,8039,ATS,A,6
7,prac,1,A,haborder.png,1,z,Mon Jul 14 2025 13:37:47 GMT-0500 (Central Daylight Time),85933.40000000596,CFD-WM-013-015-A.jpg,1900,solid,I,z,579,8,2,20677.90000000596,65255.5,8039,ATS,A,7
8,prac,1,A,haborder.png,1,m,Mon Jul 14 2025 13:37:47 GMT-0500 (Central Daylight Time),88998.10000002384,CFD-BM-017-052-HC.jpg,1700,solid,I,m,577,1,2,23742.600000023842,65255.5,8039,ATS,A,8
9,prac,1,A,haborder.png,1,z,Mon Jul 14 2025 13:37:47 GMT-0500 (Central Daylight Time),92014.0,CFD-WF-003-014-A.jpg,1600,solid,I,z,627,10,2,26758.5,65255.5,8039,ATS,A,9
10,prac,1,A,haborder.png,1,m,Mon Jul 14 2025 13:37:47 GMT-0500 (Central Daylight Time),95479.30000001192,CFD-BF-028-020-HC.jpg,2000,solid,I,m,668,5,2,30223.80000001192,65255.5,8039,ATS,A,10
11,prac,1,A,haborder.png,1,z,Mon Jul 14 2025 13:37:47 GMT-0500 (Central Daylight Time),97902.40000000596,CFD-WF-019-015-A.jpg,1000,solid,I,z,634,12,2,32646.90000000596,65255.5,8039,ATS,A,11
12,prac,1,A,haborder.png,1,z,Mon Jul 14 2025 13:37:47 GMT-0500 (Central Daylight Time),100544.10000002384,CFD-BF-039-039-A.jpg,1200,solid,I,z,649,6,2,35288.60000002384,65255.5,8039,ATS,A,12
1,prac,1,B,mfborder.png,1,z,Mon Jul 14 2025 13:37:47 GMT-0500 (Central Daylight Time),124920.20000001788,CFD-BF-023-013-A.jpg,1000,dash,I,z,567,4,2,2365.9000000059605,122554.30000001192,8039,ATS,A,1
2,prac,1,B,mfborder.png,1,z,Mon Jul 14 2025 13:37:47 GMT-0500 (Central Daylight Time),127686.0,CFD-BF-010-005-HC.jpg,1500,dash,I,z,477,3,2,5131.699999988079,122554.30000001192,8039,ATS,A,2
3,prac,1,B,mfborder.png,1,z,Mon Jul 14 2025 13:37:47 GMT-0500 (Central Daylight Time),129968.5,CFD-WF-017-016-HC.jpg,1000,dash,I,z,483,12,2,7414.199999988079,122554.30000001192,8039,ATS,A,3
4,prac,1,B,mfborder.png,1,z,Mon Jul 14 2025 13:37:47 GMT-0500 (Central Daylight Time),132701.20000001788,CFD-BF-028-020-HC.jpg,1400,dash,I,z,536,7,2,10146.90000000596,122554.30000001192,8039,ATS,A,4
5,prac,1,B,mfborder.png,1,m,Mon Jul 14 2025 13:37:47 GMT-0500 (Central Daylight Time),135666.90000000596,CFD-WM-013-015-A.jpg,1700,dash,I,m,472,9,2,13112.59999999404,122554.30000001192,8039,ATS,A,5
6,prac,1,B,mfborder.png,1,m,Mon Jul 14 2025 13:37:47 GMT-0500 (Central Daylight Time),138465.90000000596,CFD-WM-019-013-A.jpg,1200,dash,I,m,806,6,2,15911.59999999404,122554.30000001192,8039,ATS,A,6
7,prac,1,B,mfborder.png,1,z,Mon Jul 14 2025 13:37:47 GMT-0500 (Central Daylight Time),141664.80000001192,CFD-WF-002-008-HC.jpg,1900,dash,I,z,507,8,2,19110.5,122554.30000001192,8039,ATS,A,7
8,prac,1,B,mfborder.png,1,m,Mon Jul 14 2025 13:37:47 GMT-0500 (Central Daylight Time),144664.10000002384,CFD-BM-029-026-HC.jpg,1700,dash,I,m,508,1,2,22109.80000001192,122554.30000001192,8039,ATS,A,8
9,prac,1,B,mfborder.png,1,z,Mon Jul 14 2025 13:37:47 GMT-0500 (Central Daylight Time),147496.60000002384,CFD-WF-003-014-A.jpg,1500,dash,I,z,533,11,2,24942.30000001192,122554.30000001192,8039,ATS,A,9
10,prac,1,B,mfborder.png,1,m,Mon Jul 14 2025 13:37:47 GMT-0500 (Central Daylight Time),150828.80000001192,CFD-BM-005-010-A.jpg,2000,dash,I,m,535,5,2,28274.5,122554.30000001192,8039,ATS,A,10
11,prac,1,B,mfborder.png,1,m,Mon Jul 14 2025 13:37:47 GMT-0500 (Central Daylight Time),153844.30000001192,CFD-WM-006-013-HC.jpg,1600,dash,I,m,621,10,2,31290.0,122554.30000001192,8039,ATS,A,11
12,prac,1,B,mfborder.png,1,m,Mon Jul 14 2025 13:37:47 GMT-0500 (Central Daylight Time),156826.90000000596,CFD-BM-010-019-A.jpg,1600,dash,I,m,589,2,2,34272.59999999404,122554.30000001192,8039,ATS,A,12
1,test,1,A,haborder.png,1,m,Mon Jul 14 2025 13:37:47 GMT-0500 (Central Daylight Time),174571.20000001788,CFD-WM-004-005-HC.jpg,1400,solid,I,m,820,7,2,2249.0,172322.20000001788,8039,ATS,A,1
2,test,1,A,haborder.png,1,m,Mon Jul 14 2025 13:37:47 GMT-0500 (Central Daylight Time),177353.80000001192,CFD-BF-028-020-HC.jpg,2000,solid,I,m,758,5,2,5031.5999999940395,172322.20000001788,8039,ATS,A,2
3,test,1,A,haborder.png,1,z,Mon Jul 14 2025 13:37:47 GMT-0500 (Central Daylight Time),179002.90000000596,CFD-WF-019-015-A.jpg,1000,solid,I,z,628,12,2,6680.699999988079,172322.20000001788,8039,ATS,A,3
4,test,1,A,haborder.png,1,z,Mon Jul 14 2025 13:37:47 GMT-0500 (Central Daylight Time),180535.90000000596,CFD-BF-023-013-A.jpg,1000,solid,I,z,499,4,2,8213.699999988079,172322.20000001788,8039,ATS,A,4
5,test,1,A,haborder.png,1,m,Mon Jul 14 2025 13:37:47 GMT-0500 (Central Daylight Time),182934.90000000596,CFD-BM-029-026-HC.jpg,1500,solid,I,m,877,3,2,10612.699999988079,172322.20000001788,8039,ATS,A,5
6,test,1,A,haborder.png,1,m,Mon Jul 14 2025 13:37:47 GMT-0500 (Central Daylight Time),185134.5,CFD-WF-017-016-HC.jpg,1500,solid,I,m,678,11,2,12812.299999982119,172322.20000001788,8039,ATS,A,6
7,test,1,A,haborder.png,1,z,Mon Jul 14 2025 13:37:47 GMT-0500 (Central Daylight Time),187367.40000000596,CFD-WF-003-014-A.jpg,1600,solid,I,z,611,10,2,15045.199999988079,172322.20000001788,8039,ATS,A,7
8,test,1,A,haborder.png,1,m,Mon Jul 14 2025 13:37:47 GMT-0500 (Central Daylight Time),189966.40000000596,CFD-BF-028-020-HC.jpg,2000,solid,I,m,578,5,2,17644.19999998808,172322.20000001788,8039,ATS,A,8
9,test,1,A,haborder.png,1,z,Mon Jul 14 2025 13:37:47 GMT-0500 (Central Daylight Time),192198.60000002384,CFD-BM-005-010-A.jpg,1600,solid,I,z,604,2,2,19876.40000000596,172322.20000001788,8039,ATS,A,9
10,test,1,A,haborder.png,1,z,Mon Jul 14 2025 13:37:47 GMT-0500 (Central Daylight Time),193864.90000000596,CFD-BF-023-013-A.jpg,1000,solid,I,z,639,4,2,21542.69999998808,172322.20000001788,8039,ATS,A,10
11,test,1,A,haborder.png,1,z,Mon Jul 14 2025 13:37:47 GMT-0500 (Central Daylight Time),196532.10000002384,CFD-WM-013-015-A.jpg,1900,solid,I,z,745,8,2,24209.90000000596,172322.20000001788,8039,ATS,A,11
12,test,1,A,haborder.png,1,z,Mon Jul 14 2025 13:37:47 GMT-0500 (Central Daylight Time),198797.10000002384,CFD-BM-005-010-A.jpg,1600,solid,I,z,638,2,2,26474.90000000596,172322.20000001788,8039,ATS,A,12
13,test,1,A,haborder.png,1,z,Mon Jul 14 2025 13:37:47 GMT-0500 (Central Daylight Time),200712.90000000596,CFD-BF-039-039-A.jpg,1200,solid,I,z,681,6,2,28390.69999998808,172322.20000001788,8039,ATS,A,13
14,test,1,A,haborder.png,1,m,Mon Jul 14 2025 13:37:47 GMT-0500 (Central Daylight Time),203178.90000000596,CFD-WF-017-016-HC.jpg,1500,solid,I,m,937,11,2,30856.69999998808,172322.20000001788,8039,ATS,A,14
15,test,1,A,haborder.png,1,z,Mon Jul 14 2025 13:37:47 GMT-0500 (Central Daylight Time),205461.5,CFD-WF-003-014-A.jpg,1600,solid,I,z,651,10,2,33139.29999998212,172322.20000001788,8039,ATS,A,15
16,test,1,A,haborder.png,1,z,Mon Jul 14 2025 13:37:47 GMT-0500 (Central Daylight Time),208043.90000000596,CFD-WM-013-015-A.jpg,1900,solid,I,z,652,8,2,35721.69999998808,172322.20000001788,8039,ATS,A,16
16,test,1,A,haborder.png,0,m,Mon Jul 14 2025 13:37:47 GMT-0500 (Central Daylight Time),210110.10000002384,CFD-BM-029-026-HC.jpg,1500,solid,I,z,537,3,2,37787.90000000596,172322.20000001788,8039,ATS,A,17
17,test,1,A,haborder.png,1,z,Mon Jul 14 2025 13:37:47 GMT-0500 (Central Daylight Time),211826.40000000596,CFD-WF-019-015-A.jpg,1000,solid,I,z,699,12,2,39504.19999998808,172322.20000001788,8039,ATS,A,18
18,test,1,A,haborder.png,1,z,Mon Jul 14 2025 13:37:47 GMT-0500 (Central Daylight Time),213608.90000000596,CFD-BF-039-039-A.jpg,1200,solid,I,z,556,6,2,41286.69999998808,172322.20000001788,8039,ATS,A,19
19,test,1,A,haborder.png,1,m,Mon Jul 14 2025 13:37:47 GMT-0500 (Central Daylight Time),215924.90000000596,CFD-WM-006-013-HC.jpg,1700,solid,I,m,588,9,2,43602.69999998808,172322.20000001788,8039,ATS,A,20
20,test,1,A,haborder.png,1,m,Mon Jul 14 2025 13:37:47 GMT-0500 (Central Daylight Time),218274.10000002384,CFD-BM-017-052-HC.jpg,1700,solid,I,m,629,1,2,45951.90000000596,172322.20000001788,8039,ATS,A,21
21,test,1,A,haborder.png,1,m,Mon Jul 14 2025 13:37:47 GMT-0500 (Central Daylight Time),220256.90000000596,CFD-WM-004-005-HC.jpg,1400,solid,I,m,559,7,2,47934.69999998808,172322.20000001788,8039,ATS,A,22
22,test,1,A,haborder.png,1,m,Mon Jul 14 2025 13:37:47 GMT-0500 (Central Daylight Time),222506.0,CFD-WM-006-013-HC.jpg,1700,solid,I,m,533,9,2,50183.79999998212,172322.20000001788,8039,ATS,A,23
23,test,1,A,haborder.png,1,m,Mon Jul 14 2025 13:37:47 GMT-0500 (Central Daylight Time),224722.0,CFD-BM-017-052-HC.jpg,1700,solid,I,m,495,1,2,52399.79999998212,172322.20000001788,8039,ATS,A,24
1,test,1,B,mfborder.png,1,z,Mon Jul 14 2025 13:37:47 GMT-0500 (Central Daylight Time),244366.0,CFD-WF-003-014-A.jpg,1500,dash,I,z,758,11,2,2282.699999988079,242083.30000001192,8039,ATS,A,1
2,test,1,B,mfborder.png,1,m,Mon Jul 14 2025 13:37:47 GMT-0500 (Central Daylight Time),246498.5,CFD-WM-006-013-HC.jpg,1600,dash,I,m,512,10,2,4415.199999988079,242083.30000001192,8039,ATS,A,2
3,test,1,B,mfborder.png,1,m,Mon Jul 14 2025 13:37:47 GMT-0500 (Central Daylight Time),248764.5,CFD-BM-010-019-A.jpg,1600,dash,I,m,647,2,2,6681.199999988079,242083.30000001192,8039,ATS,A,3
4,test,1,B,mfborder.png,1,m,Mon Jul 14 2025 13:37:47 GMT-0500 (Central Daylight Time),250980.40000000596,CFD-BM-029-026-HC.jpg,1700,dash,I,m,497,1,2,8897.09999999404,242083.30000001192,8039,ATS,A,4
5,test,1,B,mfborder.png,1,m,Mon Jul 14 2025 13:37:47 GMT-0500 (Central Daylight Time),253213.20000001788,CFD-WM-006-013-HC.jpg,1600,dash,I,m,613,10,2,11129.90000000596,242083.30000001192,8039,ATS,A,5
6,test,1,B,mfborder.png,1,z,Mon Jul 14 2025 13:37:47 GMT-0500 (Central Daylight Time),255162.20000001788,CFD-BF-010-005-HC.jpg,1500,dash,I,z,424,3,2,13078.90000000596,242083.30000001192,8039,ATS,A,6
7,test,1,B,mfborder.png,1,z,Mon Jul 14 2025 13:37:47 GMT-0500 (Central Daylight Time),257195.10000002384,CFD-BF-010-005-HC.jpg,1500,dash,I,z,503,3,2,15111.800000011921,242083.30000001192,8039,ATS,A,7
8,test,1,B,mfborder.png,1,z,Mon Jul 14 2025 13:37:47 GMT-0500 (Central Daylight Time),259211.10000002384,CFD-BF-028-020-HC.jpg,1400,dash,I,z,598,7,2,17127.80000001192,242083.30000001192,8039,ATS,A,8
9,test,1,B,mfborder.png,1,z,Mon Jul 14 2025 13:37:47 GMT-0500 (Central Daylight Time),261643.70000001788,CFD-WF-002-008-HC.jpg,1900,dash,I,z,514,8,2,19560.40000000596,242083.30000001192,8039,ATS,A,9
10,test,1,B,mfborder.png,1,m,Mon Jul 14 2025 13:37:47 GMT-0500 (Central Daylight Time),264192.90000000596,CFD-BM-005-010-A.jpg,2000,dash,I,m,514,5,2,22109.59999999404,242083.30000001192,8039,ATS,A,10
11,test,1,B,mfborder.png,1,m,Mon Jul 14 2025 13:37:47 GMT-0500 (Central Daylight Time),265958.90000000596,CFD-WM-019-013-A.jpg,1200,dash,I,m,541,6,2,23875.59999999404,242083.30000001192,8039,ATS,A,11
12,test,1,B,mfborder.png,1,m,Mon Jul 14 2025 13:37:47 GMT-0500 (Central Daylight Time),268158.3000000119,CFD-WM-013-015-A.jpg,1700,dash,I,m,470,9,2,26075.0,242083.30000001192,8039,ATS,A,12
13,test,1,B,mfborder.png,1,m,Mon Jul 14 2025 13:37:47 GMT-0500 (Central Daylight Time),270374.10000002384,CFD-WM-013-015-A.jpg,1700,dash,I,m,484,9,2,28290.80000001192,242083.30000001192,8039,ATS,A,13
14,test,1,B,mfborder.png,1,z,Mon Jul 14 2025 13:37:47 GMT-0500 (Central Daylight Time),272723.8000000119,CFD-WF-002-008-HC.jpg,1900,dash,I,z,431,8,2,30640.5,242083.30000001192,8039,ATS,A,14
15,test,1,B,mfborder.png,1,z,Mon Jul 14 2025 13:37:47 GMT-0500 (Central Daylight Time),274173.3000000119,CFD-WF-017-016-HC.jpg,1000,dash,I,z,422,12,2,32090.0,242083.30000001192,8039,ATS,A,15
16,test,1,B,mfborder.png,1,z,Mon Jul 14 2025 13:37:47 GMT-0500 (Central Daylight Time),276189.2000000179,CFD-WF-003-014-A.jpg,1500,dash,I,z,488,11,2,34105.90000000596,242083.30000001192,8039,ATS,A,16
17,test,1,B,mfborder.png,1,m,Mon Jul 14 2025 13:37:47 GMT-0500 (Central Daylight Time),277855.40000000596,CFD-WM-019-013-A.jpg,1200,dash,I,m,436,6,2,35772.09999999404,242083.30000001192,8039,ATS,A,17
18,test,1,B,mfborder.png,1,m,Mon Jul 14 2025 13:37:47 GMT-0500 (Central Daylight Time),279921.40000000596,CFD-BM-010-019-A.jpg,1600,dash,I,m,442,2,2,37838.09999999404,242083.30000001192,8039,ATS,A,18
19,test,1,B,mfborder.png,1,m,Mon Jul 14 2025 13:37:47 GMT-0500 (Central Daylight Time),282205.3000000119,CFD-BM-029-026-HC.jpg,1700,dash,I,m,556,1,2,40122.0,242083.30000001192,8039,ATS,A,19
20,test,1,B,mfborder.png,1,z,Mon Jul 14 2025 13:37:47 GMT-0500 (Central Daylight Time),283870.2000000179,CFD-BF-023-013-A.jpg,1000,dash,I,z,636,4,2,41786.90000000596,242083.30000001192,8039,ATS,A,20
21,test,1,B,mfborder.png,1,z,Mon Jul 14 2025 13:37:47 GMT-0500 (Central Daylight Time),285369.90000000596,CFD-BF-023-013-A.jpg,1000,dash,I,z,475,4,2,43286.59999999404,242083.30000001192,8039,ATS,A,21
22,test,1,B,mfborder.png,1,m,Mon Jul 14 2025 13:37:47 GMT-0500 (Central Daylight Time),287968.8000000119,CFD-BM-005-010-A.jpg,2000,dash,I,m,567,5,2,45885.5,242083.30000001192,8039,ATS,A,22
23,test,1,B,mfborder.png,1,z,Mon Jul 14 2025 13:37:47 GMT-0500 (Central Daylight Time),289518.5,CFD-WF-017-016-HC.jpg,1000,dash,I,z,524,12,2,47435.19999998808,242083.30000001192,8039,ATS,A,23
24,test,1,B,mfborder.png,1,z,Mon Jul 14 2025 13:37:47 GMT-0500 (Central Daylight Time),291601.0,CFD-BF-028-020-HC.jpg,1400,dash,I,z,655,7,2,49517.69999998808,242083.30000001192,8039,ATS,A,24
1,prac,1,C,haborder.png,1,z,Mon Jul 14 2025 13:37:47 GMT-0500 (Central Daylight Time),333464.7000000179,CFD-WF-003-014-A.jpg,1600,dash,I,z,945,9,2,3391.2000000178814,330073.5,8039,ATS,A,1
2,prac,1,C,mfborder.png,1,m,Mon Jul 14 2025 13:37:47 GMT-0500 (Central Daylight Time),336786.90000000596,CFD-BM-017-052-HC.jpg,2000,solid,I,m,530,4,2,6713.4000000059605,330073.5,8039,ATS,A,2
3,prac,1,C,mfborder.png,1,m,Mon Jul 14 2025 13:37:47 GMT-0500 (Central Daylight Time),339569.8000000119,CFD-BM-005-010-A.jpg,1200,dash,I,m,798,5,2,9496.300000011921,330073.5,8039,ATS,A,3
4,prac,1,C,haborder.png,1,m,Mon Jul 14 2025 13:37:47 GMT-0500 (Central Daylight Time),343068.2000000179,CFD-BM-029-026-HC.jpg,1500,solid,I,m,1204,10,2,12994.700000017881,330073.5,8039,ATS,A,4
5,prac,1,C,haborder.png,1,z,Mon Jul 14 2025 13:37:47 GMT-0500 (Central Daylight Time),346633.8000000119,CFD-BF-023-013-A.jpg,1900,dash,I,z,881,7,2,16560.30000001192,330073.5,8039,ATS,A,5
6,prac,1,C,mfborder.png,1,m,Mon Jul 14 2025 13:37:47 GMT-0500 (Central Daylight Time),349782.90000000596,CFD-WM-013-015-A.jpg,1700,solid,I,m,652,6,2,19709.40000000596,330073.5,8039,ATS,A,6
7,prac,1,C,mfborder.png,1,z,Mon Jul 14 2025 13:37:47 GMT-0500 (Central Daylight Time),352865.2000000179,CFD-WF-019-015-A.jpg,1500,solid,I,z,791,2,2,22791.70000001788,330073.5,8039,ATS,A,7
8,prac,1,C,haborder.png,1,z,Mon Jul 14 2025 13:37:47 GMT-0500 (Central Daylight Time),356197.5,CFD-BF-039-039-A.jpg,1700,solid,I,z,836,8,2,26124.0,330073.5,8039,ATS,A,8
9,prac,1,C,haborder.png,1,m,Mon Jul 14 2025 13:37:47 GMT-0500 (Central Daylight Time),359246.7000000179,CFD-WM-004-005-HC.jpg,1400,solid,I,m,852,12,2,29173.20000001788,330073.5,8039,ATS,A,9
10,prac,1,C,haborder.png,1,m,Mon Jul 14 2025 13:37:47 GMT-0500 (Central Daylight Time),361629.0,CFD-WM-004-005-HC.jpg,1000,dash,I,m,595,11,2,31555.5,330073.5,8039,ATS,A,10
11,prac,1,C,mfborder.png,1,z,Mon Jul 14 2025 13:37:47 GMT-0500 (Central Daylight Time),364528.10000002384,CFD-BF-028-020-HC.jpg,1000,dash,I,z,1108,3,2,34454.60000002384,330073.5,8039,ATS,A,11
12,prac,1,C,mfborder.png,1,z,Mon Jul 14 2025 13:37:47 GMT-0500 (Central Daylight Time),367610.60000002384,CFD-WF-017-016-HC.jpg,1600,dash,I,z,697,1,2,37537.10000002384,330073.5,8039,ATS,A,12
1,test,1,C,mfborder.png,1,m,Mon Jul 14 2025 13:37:47 GMT-0500 (Central Daylight Time),381555.90000000596,CFD-WM-019-013-A.jpg,2000,dash,I,m,981,5,2,3014.199999988079,378541.7000000179,8039,ATS,A,1
2,test,1,C,haborder.png,1,m,Mon Jul 14 2025 13:37:47 GMT-0500 (Central Daylight Time),384138.3000000119,CFD-BF-028-020-HC.jpg,1600,solid,I,m,957,10,2,5596.5999999940395,378541.7000000179,8039,ATS,A,2
3,test,1,C,mfborder.png,1,m,Mon Jul 14 2025 13:37:47 GMT-0500 (Central Daylight Time),386171.3000000119,CFD-BM-029-026-HC.jpg,1200,dash,I,m,815,6,2,7629.5999999940395,378541.7000000179,8039,ATS,A,3
3,test,1,C,haborder.png,0,z,Mon Jul 14 2025 13:37:47 GMT-0500 (Central Daylight Time),388870.2000000179,CFD-BM-010-019-A.jpg,1700,solid,I,m,970,9,2,10328.5,378541.7000000179,8039,ATS,A,4
4,test,1,C,haborder.png,1,z,Mon Jul 14 2025 13:37:47 GMT-0500 (Central Daylight Time),391069.60000002384,CFD-WM-013-015-A.jpg,1400,solid,I,z,771,7,2,12527.90000000596,378541.7000000179,8039,ATS,A,5
5,test,1,C,mfborder.png,1,z,Mon Jul 14 2025 13:37:47 GMT-0500 (Central Daylight Time),393402.0,CFD-BF-010-005-HC.jpg,1700,dash,I,z,615,1,2,14860.299999982119,378541.7000000179,8039,ATS,A,6
6,test,1,C,mfborder.png,1,m,Mon Jul 14 2025 13:37:47 GMT-0500 (Central Daylight Time),395201.8000000119,CFD-WM-006-013-HC.jpg,1000,dash,I,m,783,4,2,16660.09999999404,378541.7000000179,8039,ATS,A,7
7,test,1,C,mfborder.png,1,m,Mon Jul 14 2025 13:37:47 GMT-0500 (Central Daylight Time),396834.2000000179,CFD-WM-006-013-HC.jpg,1000,dash,I,m,616,4,2,18292.5,378541.7000000179,8039,ATS,A,8
8,test,1,C,mfborder.png,1,z,Mon Jul 14 2025 13:37:47 GMT-0500 (Central Daylight Time),399283.5,CFD-BF-023-013-A.jpg,1600,dash,I,z,831,2,2,20741.79999998212,378541.7000000179,8039,ATS,A,9
9,test,1,C,mfborder.png,1,m,Mon Jul 14 2025 13:37:47 GMT-0500 (Central Daylight Time),401266.60000002384,CFD-BM-029-026-HC.jpg,1200,dash,I,m,757,6,2,22724.90000000596,378541.7000000179,8039,ATS,A,10
9,test,1,C,haborder.png,0,z,Mon Jul 14 2025 13:37:47 GMT-0500 (Central Daylight Time),403977.90000000596,CFD-BM-010-019-A.jpg,1700,solid,I,m,991,9,2,25436.19999998808,378541.7000000179,8039,ATS,A,11
10,test,1,C,mfborder.png,1,z,Mon Jul 14 2025 13:37:47 GMT-0500 (Central Daylight Time),406397.90000000596,CFD-BF-010-005-HC.jpg,1700,dash,I,z,687,1,2,27856.19999998808,378541.7000000179,8039,ATS,A,12
11,test,1,C,mfborder.png,1,z,Mon Jul 14 2025 13:37:47 GMT-0500 (Central Daylight Time),408597.8000000119,CFD-WF-003-014-A.jpg,1500,dash,I,z,679,3,2,30056.09999999404,378541.7000000179,8039,ATS,A,13
12,test,1,C,mfborder.png,1,z,Mon Jul 14 2025 13:37:47 GMT-0500 (Central Daylight Time),410846.60000002384,CFD-BF-023-013-A.jpg,1600,dash,I,z,628,2,2,32304.90000000596,378541.7000000179,8039,ATS,A,14
13,test,1,C,haborder.png,1,z,Mon Jul 14 2025 13:37:47 GMT-0500 (Central Daylight Time),413396.7000000179,CFD-BM-005-010-A.jpg,1900,solid,I,z,627,8,2,34855.0,378541.7000000179,8039,ATS,A,15
14,test,1,C,haborder.png,1,z,Mon Jul 14 2025 13:37:47 GMT-0500 (Central Daylight Time),415428.60000002384,CFD-WM-013-015-A.jpg,1400,solid,I,z,601,7,2,36886.90000000596,378541.7000000179,8039,ATS,A,16
15,test,1,C,haborder.png,1,m,Mon Jul 14 2025 13:37:47 GMT-0500 (Central Daylight Time),417594.3000000119,CFD-WF-002-008-HC.jpg,1500,solid,I,m,640,11,2,39052.59999999404,378541.7000000179,8039,ATS,A,17
16,test,1,C,haborder.png,1,m,Mon Jul 14 2025 13:37:47 GMT-0500 (Central Daylight Time),419177.3000000119,CFD-WF-017-016-HC.jpg,1000,solid,I,m,554,12,2,40635.59999999404,378541.7000000179,8039,ATS,A,18
17,test,1,C,mfborder.png,1,z,Mon Jul 14 2025 13:37:47 GMT-0500 (Central Daylight Time),421443.40000000596,CFD-WF-003-014-A.jpg,1500,dash,I,z,740,3,2,42901.69999998808,378541.7000000179,8039,ATS,A,19
18,test,1,C,haborder.png,1,m,Mon Jul 14 2025 13:37:47 GMT-0500 (Central Daylight Time),423492.5,CFD-WF-017-016-HC.jpg,1000,solid,I,m,1025,12,2,44950.79999998212,378541.7000000179,8039,ATS,A,20
19,test,1,C,haborder.png,1,m,Mon Jul 14 2025 13:37:47 GMT-0500 (Central Daylight Time),425692.0,CFD-BF-028-020-HC.jpg,1600,solid,I,m,572,10,2,47150.29999998212,378541.7000000179,8039,ATS,A,21
20,test,1,C,haborder.png,1,z,Mon Jul 14 2025 13:37:47 GMT-0500 (Central Daylight Time),428441.10000002384,CFD-BM-005-010-A.jpg,1900,solid,I,z,723,8,2,49899.40000000596,378541.7000000179,8039,ATS,A,22
21,test,1,C,haborder.png,1,m,Mon Jul 14 2025 13:37:47 GMT-0500 (Central Daylight Time),430723.8000000119,CFD-WF-002-008-HC.jpg,1500,solid,I,m,752,11,2,52182.09999999404,378541.7000000179,8039,ATS,A,23
22,test,1,C,mfborder.png,1,m,Mon Jul 14 2025 13:37:47 GMT-0500 (Central Daylight Time),433706.10000002384,CFD-WM-019-013-A.jpg,2000,dash,I,m,961,5,2,55164.40000000596,378541.7000000179,8039,ATS,A,24
1,test,2,C,haborder.png,1,z,Mon Jul 14 2025 13:37:47 GMT-0500 (Central Daylight Time),439770.90000000596,CFD-BF-023-013-A.jpg,1400,solid,I,z,744,7,2,2165.7999999821186,437605.10000002384,8039,ATS,A,1
2,test,2,C,haborder.png,1,m,Mon Jul 14 2025 13:37:47 GMT-0500 (Central Daylight Time),442053.60000002384,CFD-WM-004-005-HC.jpg,1500,solid,I,m,750,11,2,4448.5,437605.10000002384,8039,ATS,A,2
3,test,2,C,haborder.png,1,m,Mon Jul 14 2025 13:37:47 GMT-0500 (Central Daylight Time),444386.10000002384,CFD-BM-029-026-HC.jpg,1600,solid,I,m,695,10,2,6781.0,437605.10000002384,8039,ATS,A,3
4,test,2,C,mfborder.png,1,m,Mon Jul 14 2025 13:37:47 GMT-0500 (Central Daylight Time),447018.5,CFD-BM-005-010-A.jpg,2000,dash,I,m,603,5,2,9413.399999976158,437605.10000002384,8039,ATS,A,4
5,test,2,C,haborder.png,1,z,Mon Jul 14 2025 13:37:47 GMT-0500 (Central Daylight Time),449601.2000000179,CFD-BF-039-039-A.jpg,1900,solid,I,z,654,8,2,11996.09999999404,437605.10000002384,8039,ATS,A,5
6,test,2,C,haborder.png,1,z,Mon Jul 14 2025 13:37:47 GMT-0500 (Central Daylight Time),452000.5,CFD-BF-039-039-A.jpg,1900,solid,I,z,468,8,2,14395.399999976158,437605.10000002384,8039,ATS,A,6
7,test,2,C,haborder.png,1,m,Mon Jul 14 2025 13:37:47 GMT-0500 (Central Daylight Time),454216.2000000179,CFD-WM-004-005-HC.jpg,1000,solid,I,m,1181,12,2,16611.09999999404,437605.10000002384,8039,ATS,A,7
8,test,2,C,haborder.png,1,z,Mon Jul 14 2025 13:37:47 GMT-0500 (Central Daylight Time),457082.10000002384,CFD-WF-003-014-A.jpg,1700,solid,I,z,1129,9,2,19477.0,437605.10000002384,8039,ATS,A,8
9,test,2,C,haborder.png,1,m,Mon Jul 14 2025 13:37:47 GMT-0500 (Central Daylight Time),459281.90000000596,CFD-BM-029-026-HC.jpg,1600,solid,I,m,579,10,2,21676.79999998212,437605.10000002384,8039,ATS,A,9
10,test,2,C,mfborder.png,1,m,Mon Jul 14 2025 13:37:47 GMT-0500 (Central Daylight Time),461130.7000000179,CFD-WM-013-015-A.jpg,1200,dash,I,m,627,6,2,23525.59999999404,437605.10000002384,8039,ATS,A,10
11,test,2,C,haborder.png,1,m,Mon Jul 14 2025 13:37:47 GMT-0500 (Central Daylight Time),463113.60000002384,CFD-WM-004-005-HC.jpg,1000,solid,I,m,946,12,2,25508.5,437605.10000002384,8039,ATS,A,11
12,test,2,C,mfborder.png,1,m,Mon Jul 14 2025 13:37:47 GMT-0500 (Central Daylight Time),465129.90000000596,CFD-WM-013-015-A.jpg,1200,dash,I,m,796,6,2,27524.79999998212,437605.10000002384,8039,ATS,A,12
13,test,2,C,mfborder.png,1,z,Mon Jul 14 2025 13:37:47 GMT-0500 (Central Daylight Time),467212.2000000179,CFD-BF-028-020-HC.jpg,1500,dash,I,z,560,3,2,29607.09999999404,437605.10000002384,8039,ATS,A,13
14,test,2,C,mfborder.png,1,m,Mon Jul 14 2025 13:37:47 GMT-0500 (Central Daylight Time),468994.90000000596,CFD-BM-017-052-HC.jpg,1000,dash,I,m,761,4,2,31389.79999998212,437605.10000002384,8039,ATS,A,14
14,test,2,C,mfborder.png,0,z,Mon Jul 14 2025 13:37:47 GMT-0500 (Central Daylight Time),471544.2000000179,CFD-WF-019-015-A.jpg,1600,dash,I,m,925,2,2,33939.09999999404,437605.10000002384,8039,ATS,A,15
15,test,2,C,mfborder.png,1,z,Mon Jul 14 2025 13:37:47 GMT-0500 (Central Daylight Time),473893.3000000119,CFD-WF-019-015-A.jpg,1600,dash,I,z,720,2,2,36288.19999998808,437605.10000002384,8039,ATS,A,16
16,test,2,C,haborder.png,1,z,Mon Jul 14 2025 13:37:47 GMT-0500 (Central Daylight Time),476675.7000000179,CFD-WF-003-014-A.jpg,1700,solid,I,z,1051,9,2,39070.59999999404,437605.10000002384,8039,ATS,A,17
17,test,2,C,mfborder.png,1,m,Mon Jul 14 2025 13:37:47 GMT-0500 (Central Daylight Time),478442.10000002384,CFD-BM-017-052-HC.jpg,1000,dash,I,m,745,4,2,40837.0,437605.10000002384,8039,ATS,A,18
18,test,2,C,mfborder.png,1,z,Mon Jul 14 2025 13:37:47 GMT-0500 (Central Daylight Time),480908.90000000596,CFD-WF-017-016-HC.jpg,1700,dash,I,z,744,1,2,43303.79999998212,437605.10000002384,8039,ATS,A,19
19,test,2,C,mfborder.png,1,z,Mon Jul 14 2025 13:37:47 GMT-0500 (Central Daylight Time),483057.2000000179,CFD-BF-028-020-HC.jpg,1500,dash,I,z,620,3,2,45452.09999999404,437605.10000002384,8039,ATS,A,20
20,test,2,C,haborder.png,1,z,Mon Jul 14 2025 13:37:47 GMT-0500 (Central Daylight Time),485440.0,CFD-BF-023-013-A.jpg,1400,solid,I,z,960,7,2,47834.89999997616,437605.10000002384,8039,ATS,A,21
21,test,2,C,haborder.png,1,m,Mon Jul 14 2025 13:37:47 GMT-0500 (Central Daylight Time),487422.5,CFD-WM-004-005-HC.jpg,1500,solid,I,m,457,11,2,49817.39999997616,437605.10000002384,8039,ATS,A,22
22,test,2,C,mfborder.png,1,m,Mon Jul 14 2025 13:37:47 GMT-0500 (Central Daylight Time),490188.3000000119,CFD-BM-005-010-A.jpg,2000,dash,I,m,735,5,2,52583.19999998808,437605.10000002384,8039,ATS,A,23
23,test,2,C,mfborder.png,1,z,Mon Jul 14 2025 13:37:47 GMT-0500 (Central Daylight Time),492620.8000000119,CFD-WF-017-016-HC.jpg,1700,dash,I,z,704,1,2,55015.69999998808,437605.10000002384,8039,ATS,A,24
1,test,3,C,mfborder.png,1,m,Mon Jul 14 2025 13:37:47 GMT-0500 (Central Daylight Time),497286.10000002384,CFD-BM-029-026-HC.jpg,1200,dash,I,m,656,6,2,1882.6000000238419,495403.5,8039,ATS,A,1
2,test,3,C,mfborder.png,1,z,Mon Jul 14 2025 13:37:47 GMT-0500 (Central Daylight Time),499385.7000000179,CFD-WF-003-014-A.jpg,1500,dash,I,z,567,3,2,3982.2000000178814,495403.5,8039,ATS,A,2
3,test,3,C,mfborder.png,1,m,Mon Jul 14 2025 13:37:47 GMT-0500 (Central Daylight Time),502184.7000000179,CFD-WM-019-013-A.jpg,2000,dash,I,m,768,5,2,6781.200000017881,495403.5,8039,ATS,A,3
4,test,3,C,mfborder.png,1,m,Mon Jul 14 2025 13:37:47 GMT-0500 (Central Daylight Time),503834.0,CFD-WM-006-013-HC.jpg,1000,dash,I,m,621,4,2,8430.5,495403.5,8039,ATS,A,4
4,test,3,C,haborder.png,0,z,Mon Jul 14 2025 13:37:47 GMT-0500 (Central Daylight Time),506833.10000002384,CFD-BM-005-010-A.jpg,1900,solid,I,m,1062,8,2,11429.600000023842,495403.5,8039,ATS,A,5
4,test,3,C,haborder.png,0,m,Mon Jul 14 2025 13:37:47 GMT-0500 (Central Daylight Time),509065.90000000596,CFD-WF-002-008-HC.jpg,1500,solid,I,z,700,11,2,13662.40000000596,495403.5,8039,ATS,A,6
4,test,3,C,haborder.png,0,z,Mon Jul 14 2025 13:37:47 GMT-0500 (Central Daylight Time),511865.0,CFD-BM-010-019-A.jpg,1700,solid,I,m,1068,9,2,16461.5,495403.5,8039,ATS,A,7
5,test,3,C,mfborder.png,1,z,Mon Jul 14 2025 13:37:47 GMT-0500 (Central Daylight Time),514148.40000000596,CFD-BF-023-013-A.jpg,1600,dash,I,z,651,2,2,18744.90000000596,495403.5,8039,ATS,A,8
6,test,3,C,haborder.png,1,m,Mon Jul 14 2025 13:37:47 GMT-0500 (Central Daylight Time),516929.90000000596,CFD-BF-028-020-HC.jpg,1600,solid,I,m,1150,10,2,21526.40000000596,495403.5,8039,ATS,A,9
7,test,3,C,mfborder.png,1,z,Mon Jul 14 2025 13:37:47 GMT-0500 (Central Daylight Time),519345.8000000119,CFD-BF-023-013-A.jpg,1600,dash,I,z,799,2,2,23942.30000001192,495403.5,8039,ATS,A,10
7,test,3,C,haborder.png,0,z,Mon Jul 14 2025 13:37:47 GMT-0500 (Central Daylight Time),521978.5,CFD-BM-010-019-A.jpg,1700,solid,I,m,910,9,2,26575.0,495403.5,8039,ATS,A,11
8,test,3,C,haborder.png,1,z,Mon Jul 14 2025 13:37:47 GMT-0500 (Central Daylight Time),524327.5,CFD-WM-013-015-A.jpg,1400,solid,I,z,919,7,2,28924.0,495403.5,8039,ATS,A,12
9,test,3,C,haborder.png,1,m,Mon Jul 14 2025 13:37:47 GMT-0500 (Central Daylight Time),526860.3000000119,CFD-BF-028-020-HC.jpg,1600,solid,I,m,906,10,2,31456.80000001192,495403.5,8039,ATS,A,13
10,test,3,C,mfborder.png,1,m,Mon Jul 14 2025 13:37:47 GMT-0500 (Central Daylight Time),528759.6000000238,CFD-BM-029-026-HC.jpg,1200,dash,I,m,677,6,2,33356.10000002384,495403.5,8039,ATS,A,14
11,test,3,C,mfborder.png,1,m,Mon Jul 14 2025 13:37:47 GMT-0500 (Central Daylight Time),531392.0,CFD-WM-019-013-A.jpg,2000,dash,I,m,610,5,2,35988.5,495403.5,8039,ATS,A,15
12,test,3,C,mfborder.png,1,m,Mon Jul 14 2025 13:37:47 GMT-0500 (Central Daylight Time),533041.900000006,CFD-WM-006-013-HC.jpg,1000,dash,I,m,629,4,2,37638.40000000596,495403.5,8039,ATS,A,16
13,test,3,C,haborder.png,1,z,Mon Jul 14 2025 13:37:47 GMT-0500 (Central Daylight Time),535890.7000000179,CFD-BM-005-010-A.jpg,1900,solid,I,z,920,8,2,40487.20000001788,495403.5,8039,ATS,A,17
14,test,3,C,haborder.png,1,m,Mon Jul 14 2025 13:37:47 GMT-0500 (Central Daylight Time),538189.8000000119,CFD-WF-002-008-HC.jpg,1500,solid,I,m,778,11,2,42786.30000001192,495403.5,8039,ATS,A,18
15,test,3,C,haborder.png,1,m,Mon Jul 14 2025 13:37:47 GMT-0500 (Central Daylight Time),539822.900000006,CFD-WF-017-016-HC.jpg,1000,solid,I,m,599,12,2,44419.40000000596,495403.5,8039,ATS,A,19
16,test,3,C,haborder.png,1,m,Mon Jul 14 2025 13:37:47 GMT-0500 (Central Daylight Time),541339.0,CFD-WF-017-016-HC.jpg,1000,solid,I,m,494,12,2,45935.5,495403.5,8039,ATS,A,20
17,test,3,C,haborder.png,1,z,Mon Jul 14 2025 13:37:47 GMT-0500 (Central Daylight Time),543471.7000000179,CFD-WM-013-015-A.jpg,1400,solid,I,z,706,7,2,48068.20000001788,495403.5,8039,ATS,A,21
18,test,3,C,mfborder.png,1,z,Mon Jul 14 2025 13:37:47 GMT-0500 (Central Daylight Time),545970.900000006,CFD-BF-010-005-HC.jpg,1700,dash,I,z,684,1,2,50567.40000000596,495403.5,8039,ATS,A,22
19,test,3,C,mfborder.png,1,z,Mon Jul 14 2025 13:37:47 GMT-0500 (Central Daylight Time),548303.5,CFD-BF-010-005-HC.jpg,1700,dash,I,z,611,1,2,52900.0,495403.5,8039,ATS,A,23
20,test,3,C,mfborder.png,1,z,Mon Jul 14 2025 13:37:47 GMT-0500 (Central Daylight Time),550519.5,CFD-WF-003-014-A.jpg,1500,dash,I,z,690,3,2,55116.0,495403.5,8039,ATS,A,24
1,test,4,C,mfborder.png,1,z,Mon Jul 14 2025 13:37:47 GMT-0500 (Central Daylight Time),556351.0,CFD-WF-019-015-A.jpg,1600,dash,I,z,578,2,2,2199.399999976158,554151.6000000238,8039,ATS,A,1
1,test,4,C,haborder.png,0,z,Mon Jul 14 2025 13:37:47 GMT-0500 (Central Daylight Time),558666.900000006,CFD-BF-023-013-A.jpg,1400,solid,I,m,894,7,2,4515.299999982119,554151.6000000238,8039,ATS,A,2
2,test,4,C,mfborder.png,1,z,Mon Jul 14 2025 13:37:47 GMT-0500 (Central Daylight Time),560882.8000000119,CFD-BF-028-020-HC.jpg,1500,dash,I,z,698,3,2,6731.199999988079,554151.6000000238,8039,ATS,A,3
3,test,4,C,haborder.png,1,z,Mon Jul 14 2025 13:37:47 GMT-0500 (Central Daylight Time),563382.1000000238,CFD-WF-003-014-A.jpg,1700,solid,I,z,779,9,2,9230.5,554151.6000000238,8039,ATS,A,4
4,test,4,C,haborder.png,1,m,Mon Jul 14 2025 13:37:47 GMT-0500 (Central Daylight Time),565681.3000000119,CFD-BM-029-026-HC.jpg,1600,solid,I,m,670,10,2,11529.699999988079,554151.6000000238,8039,ATS,A,5
5,test,4,C,mfborder.png,1,z,Mon Jul 14 2025 13:37:47 GMT-0500 (Central Daylight Time),568013.900000006,CFD-WF-019-015-A.jpg,1600,dash,I,z,703,2,2,13862.299999982119,554151.6000000238,8039,ATS,A,6
6,test,4,C,mfborder.png,1,z,Mon Jul 14 2025 13:37:47 GMT-0500 (Central Daylight Time),569996.6000000238,CFD-BF-028-020-HC.jpg,1500,dash,I,z,450,3,2,15845.0,554151.6000000238,8039,ATS,A,7
7,test,4,C,mfborder.png,1,m,Mon Jul 14 2025 13:37:47 GMT-0500 (Central Daylight Time),571762.6000000238,CFD-WM-013-015-A.jpg,1200,dash,I,m,541,6,2,17611.0,554151.6000000238,8039,ATS,A,8
8,test,4,C,haborder.png,1,z,Mon Jul 14 2025 13:37:47 GMT-0500 (Central Daylight Time),573911.900000006,CFD-BF-023-013-A.jpg,1400,solid,I,z,713,7,2,19760.29999998212,554151.6000000238,8039,ATS,A,9
9,test,4,C,mfborder.png,1,m,Mon Jul 14 2025 13:37:47 GMT-0500 (Central Daylight Time),575544.8000000119,CFD-BM-017-052-HC.jpg,1000,dash,I,m,597,4,2,21393.19999998808,554151.6000000238,8039,ATS,A,10
10,test,4,C,mfborder.png,1,m,Mon Jul 14 2025 13:37:47 GMT-0500 (Central Daylight Time),578277.3000000119,CFD-BM-005-010-A.jpg,2000,dash,I,m,705,5,2,24125.69999998808,554151.6000000238,8039,ATS,A,11
11,test,4,C,mfborder.png,1,z,Mon Jul 14 2025 13:37:47 GMT-0500 (Central Daylight Time),580876.7000000179,CFD-WF-017-016-HC.jpg,1700,dash,I,z,880,1,2,26725.09999999404,554151.6000000238,8039,ATS,A,12
12,test,4,C,haborder.png,1,z,Mon Jul 14 2025 13:37:47 GMT-0500 (Central Daylight Time),583409.0,CFD-WF-003-014-A.jpg,1700,solid,I,z,809,9,2,29257.399999976158,554151.6000000238,8039,ATS,A,13
13,test,4,C,haborder.png,1,m,Mon Jul 14 2025 13:37:47 GMT-0500 (Central Daylight Time),585624.8000000119,CFD-WM-004-005-HC.jpg,1500,solid,I,m,687,11,2,31473.19999998808,554151.6000000238,8039,ATS,A,14
14,test,4,C,mfborder.png,1,z,Mon Jul 14 2025 13:37:47 GMT-0500 (Central Daylight Time),587940.900000006,CFD-WF-017-016-HC.jpg,1700,dash,I,z,592,1,2,33789.29999998212,554151.6000000238,8039,ATS,A,15
15,test,4,C,haborder.png,1,m,Mon Jul 14 2025 13:37:47 GMT-0500 (Central Daylight Time),590440.2000000179,CFD-BM-029-026-HC.jpg,1600,solid,I,m,868,10,2,36288.59999999404,554151.6000000238,8039,ATS,A,16
16,test,4,C,mfborder.png,1,m,Mon Jul 14 2025 13:37:47 GMT-0500 (Central Daylight Time),593189.3000000119,CFD-BM-005-010-A.jpg,2000,dash,I,m,608,5,2,39037.69999998808,554151.6000000238,8039,ATS,A,17
17,test,4,C,haborder.png,1,m,Mon Jul 14 2025 13:37:47 GMT-0500 (Central Daylight Time),595222.0,CFD-WM-004-005-HC.jpg,1000,solid,I,m,1000,12,2,41070.39999997616,554151.6000000238,8039,ATS,A,18
18,test,4,C,haborder.png,1,m,Mon Jul 14 2025 13:37:47 GMT-0500 (Central Daylight Time),597387.900000006,CFD-WM-004-005-HC.jpg,1500,solid,I,m,642,11,2,43236.29999998212,554151.6000000238,8039,ATS,A,19
19,test,4,C,mfborder.png,1,m,Mon Jul 14 2025 13:37:47 GMT-0500 (Central Daylight Time),599220.8000000119,CFD-BM-017-052-HC.jpg,1000,dash,I,m,804,4,2,45069.19999998808,554151.6000000238,8039,ATS,A,20
20,test,4,C,haborder.png,1,m,Mon Jul 14 2025 13:37:47 GMT-0500 (Central Daylight Time),601003.5,CFD-WM-004-005-HC.jpg,1000,solid,I,m,752,12,2,46851.89999997616,554151.6000000238,8039,ATS,A,21
21,test,4,C,haborder.png,1,z,Mon Jul 14 2025 13:37:47 GMT-0500 (Central Daylight Time),603569.3000000119,CFD-BF-039-039-A.jpg,1900,solid,I,z,637,8,2,49417.69999998808,554151.6000000238,8039,ATS,A,22
22,test,4,C,haborder.png,1,z,Mon Jul 14 2025 13:37:47 GMT-0500 (Central Daylight Time),606118.6000000238,CFD-BF-039-039-A.jpg,1900,solid,I,z,615,8,2,51967.0,554151.6000000238,8039,ATS,A,23
23,test,4,C,mfborder.png,1,m,Mon Jul 14 2025 13:37:47 GMT-0500 (Central Daylight Time),608067.900000006,CFD-WM-013-015-A.jpg,1200,dash,I,m,726,6,2,53916.29999998212,554151.6000000238,8039,ATS,A,24
