block_c,block_dur,condition,countdown,datetime,endtime,list,multichar_response,project,response,response_time,session_number,start_end,starttime,subject_id,task,task_vers,trial
,,,,Tue Mar 10 2026 14:53:49 GMT-0500 (Central Daylight Time),,,,O,space,1099,1,,,7775,WL,A,
prac,,0,,Tue Mar 10 2026 14:53:49 GMT-0500 (Central Daylight Time),,NA,b,O,b,3400,1,,,7775,WL,A,1.0
prac,,0,,Tue Mar 10 2026 14:53:49 GMT-0500 (Central Daylight Time),,NA,bo,O,o,330,1,,,7775,WL,A,1.0
prac,,0,,Tue Mar 10 2026 14:53:49 GMT-0500 (Central Daylight Time),,NA,boo,O,o,142,1,,,7775,WL,A,1.0
prac,,0,,Tue Mar 10 2026 14:53:49 GMT-0500 (Central Daylight Time),,NA,bood,O,d,145,1,,,7775,WL,A,1.0
prac,,0,,Tue Mar 10 2026 14:53:49 GMT-0500 (Central Daylight Time),,NA,boo,O,backspace,899,1,,,7775,WL,A,1.0
prac,,0,,Tue Mar 10 2026 14:53:49 GMT-0500 (Central Daylight Time),,NA,boos,O,s,470,1,,,7775,WL,A,1.0
prac,,0,,Tue Mar 10 2026 14:53:49 GMT-0500 (Central Daylight Time),,NA,boost,O,t,115,1,,,7775,WL,A,1.0
prac,,0,,Tue Mar 10 2026 14:53:49 GMT-0500 (Central Daylight Time),,NA,boostenter,O,enter,3109,1,,,7775,WL,A,1.0
1,8.864000082015991,learn,51135.99991798401,Tue Mar 10 2026 14:53:49 GMT-0500 (Central Daylight Time),172972.79999999702,A,b,O,b,8854,1,8863.90000000596,164108.89999999106,7775,WL,A,1.0
1,9.246999979019165,learn,50753.000020980835,Tue Mar 10 2026 14:53:49 GMT-0500 (Central Daylight Time),173355.79999999702,A,bo,O,o,365,1,9246.90000000596,164108.89999999106,7775,WL,A,1.0
1,9.397000074386597,learn,50602.9999256134,Tue Mar 10 2026 14:53:49 GMT-0500 (Central Daylight Time),173505.70000000298,A,boo,O,o,144,1,9396.800000011921,164108.89999999106,7775,WL,A,1.0
1,9.579999923706055,learn,50420.000076293945,Tue Mar 10 2026 14:53:49 GMT-0500 (Central Daylight Time),173688.89999999106,A,book,O,k,161,1,9580.0,164108.89999999106,7775,WL,A,1.0
1,9.597000122070312,learn,50402.99987792969,Tue Mar 10 2026 14:53:49 GMT-0500 (Central Daylight Time),173705.70000000298,A,bookm,O,m,2,1,9596.800000011921,164108.89999999106,7775,WL,A,1.0
1,11.263000011444092,learn,48736.99998855591,Tue Mar 10 2026 14:53:49 GMT-0500 (Central Daylight Time),175371.70000000298,A,book,O,backspace,1658,1,11262.800000011921,164108.89999999106,7775,WL,A,1.0
1,12.696000099182129,learn,47303.99990081787,Tue Mar 10 2026 14:53:49 GMT-0500 (Central Daylight Time),176804.59999999404,A,bookenter,O,enter,1416,1,12695.70000000298,164108.89999999106,7775,WL,A,1.0
1,14.01200008392334,learn,45987.99991607666,Tue Mar 10 2026 14:53:49 GMT-0500 (Central Daylight Time),178121.29999999702,A,f,O,f,1295,1,1316.0999999940395,176805.20000000298,7775,WL,A,2.0
1,14.111999988555908,learn,45888.00001144409,Tue Mar 10 2026 14:53:49 GMT-0500 (Central Daylight Time),178221.09999999404,A,fl,O,l,82,1,1415.8999999910593,176805.20000000298,7775,WL,A,2.0
1,14.312000036239624,learn,45687.999963760376,Tue Mar 10 2026 14:53:49 GMT-0500 (Central Daylight Time),178421.0,A,flo,O,o,181,1,1615.7999999970198,176805.20000000298,7775,WL,A,2.0
1,14.995000123977661,learn,45004.99987602234,Tue Mar 10 2026 14:53:49 GMT-0500 (Central Daylight Time),179103.79999999702,A,flow,O,w,670,1,2298.5999999940395,176805.20000000298,7775,WL,A,2.0
1,15.260999917984009,learn,44739.00008201599,Tue Mar 10 2026 14:53:49 GMT-0500 (Central Daylight Time),179370.39999999106,A,flowe,O,e,252,1,2565.199999988079,176805.20000000298,7775,WL,A,2.0
1,15.611999988555908,learn,44388.00001144409,Tue Mar 10 2026 14:53:49 GMT-0500 (Central Daylight Time),179720.5,A,flower,O,r,330,1,2915.2999999970198,176805.20000000298,7775,WL,A,2.0
1,16.07800006866455,learn,43921.99993133545,Tue Mar 10 2026 14:53:49 GMT-0500 (Central Daylight Time),180187.09999999404,A,flowerenter,O,enter,451,1,3381.8999999910593,176805.20000000298,7775,WL,A,2.0
1,16.795000076293945,learn,43204.999923706055,Tue Mar 10 2026 14:53:49 GMT-0500 (Central Daylight Time),180903.5,A,t,O,t,704,1,716.0,180187.5,7775,WL,A,3.0
1,16.99399995803833,learn,43006.00004196167,Tue Mar 10 2026 14:53:49 GMT-0500 (Central Daylight Time),181103.39999999106,A,tr,O,r,180,1,915.8999999910593,180187.5,7775,WL,A,3.0
1,17.64400005340576,learn,42355.99994659424,Tue Mar 10 2026 14:53:49 GMT-0500 (Central Daylight Time),181752.89999999106,A,tra,O,a,636,1,1565.3999999910593,180187.5,7775,WL,A,3.0
1,17.776999950408936,learn,42223.000049591064,Tue Mar 10 2026 14:53:49 GMT-0500 (Central Daylight Time),181886.29999999702,A,trai,O,i,122,1,1698.7999999970198,180187.5,7775,WL,A,3.0
1,18.043999910354614,learn,41956.000089645386,Tue Mar 10 2026 14:53:49 GMT-0500 (Central Daylight Time),182153.0,A,train,O,n,254,1,1965.5,180187.5,7775,WL,A,3.0
1,18.710000038146973,learn,41289.99996185303,Tue Mar 10 2026 14:53:49 GMT-0500 (Central Daylight Time),182819.5,A,trainenter,O,enter,651,1,2632.0,180187.5,7775,WL,A,3.0
1,20.042999982833862,learn,39957.00001716614,Tue Mar 10 2026 14:53:49 GMT-0500 (Central Daylight Time),184152.39999999106,A,r,O,r,1313,1,1332.5999999940395,182819.79999999702,7775,WL,A,4.0
1,20.127000093460083,learn,39872.99990653992,Tue Mar 10 2026 14:53:49 GMT-0500 (Central Daylight Time),184235.59999999404,A,ru,O,u,67,1,1415.7999999970198,182819.79999999702,7775,WL,A,4.0
1,21.009999990463257,learn,38990.00000953674,Tue Mar 10 2026 14:53:49 GMT-0500 (Central Daylight Time),185118.59999999404,A,rug,O,g,865,1,2298.7999999970198,182819.79999999702,7775,WL,A,4.0
1,21.7260000705719,learn,38273.9999294281,Tue Mar 10 2026 14:53:49 GMT-0500 (Central Daylight Time),185835.09999999404,A,rugenter,O,enter,709,1,3015.2999999970198,182819.79999999702,7775,WL,A,4.0
1,25.22499990463257,learn,34775.00009536743,Tue Mar 10 2026 14:53:49 GMT-0500 (Central Daylight Time),189334.09999999404,A,g,O,g,3489,1,3498.7000000029802,185835.39999999106,7775,WL,A,5.0
1,25.308000087738037,learn,34691.99991226196,Tue Mar 10 2026 14:53:49 GMT-0500 (Central Daylight Time),189417.39999999106,A,go,O,o,69,1,3582.0,185835.39999999106,7775,WL,A,5.0
1,25.492000102996826,learn,34507.999897003174,Tue Mar 10 2026 14:53:49 GMT-0500 (Central Daylight Time),189600.59999999404,A,gol,O,l,170,1,3765.2000000029802,185835.39999999106,7775,WL,A,5.0
1,25.89199995994568,learn,34108.00004005432,Tue Mar 10 2026 14:53:49 GMT-0500 (Central Daylight Time),190000.5,A,gold,O,d,387,1,4165.100000008941,185835.39999999106,7775,WL,A,5.0
1,26.45799994468689,learn,33542.00005531311,Tue Mar 10 2026 14:53:49 GMT-0500 (Central Daylight Time),190567.09999999404,A,goldenter,O,enter,547,1,4731.70000000298,185835.39999999106,7775,WL,A,5.0
1,52.0,learn,8000.0,Tue Mar 10 2026 14:53:49 GMT-0500 (Central Daylight Time),216109.09999999404,A,enter,O,enter,25524,1,25541.70000000298,190567.39999999106,7775,WL,A,6.0
1,55.29900002479553,learn,4700.999975204468,Tue Mar 10 2026 14:53:49 GMT-0500 (Central Daylight Time),219407.89999999106,A,enter,O,enter,3286,1,3298.3999999910593,216109.5,7775,WL,A,7.0
1,56.81500005722046,learn,3184.999942779541,Tue Mar 10 2026 14:53:49 GMT-0500 (Central Daylight Time),220924.09999999404,A,enter,O,enter,1508,1,1515.8999999910593,219408.20000000298,7775,WL,A,8.0
1,57.33299994468689,learn,2667.0000553131104,Tue Mar 10 2026 14:53:49 GMT-0500 (Central Daylight Time),221441.79999999702,A,enter,O,enter,504,1,517.4000000059605,220924.39999999106,7775,WL,A,9.0
1,57.848000049591064,learn,2151.9999504089355,Tue Mar 10 2026 14:53:49 GMT-0500 (Central Daylight Time),221957.0,A,enter,O,enter,497,1,514.9000000059605,221442.09999999404,7775,WL,A,10.0
1,58.79800009727478,learn,1201.9999027252197,Tue Mar 10 2026 14:53:49 GMT-0500 (Central Daylight Time),222906.79999999702,A,enter,O,enter,943,1,949.4000000059605,221957.39999999106,7775,WL,A,11.0
1,59.64800000190735,learn,351.99999809265137,Tue Mar 10 2026 14:53:49 GMT-0500 (Central Daylight Time),223756.79999999702,A,enter,O,enter,834,1,849.7000000029802,222907.09999999404,7775,WL,A,12.0
1,60.013999938964844,learn,-13.99993896484375,Tue Mar 10 2026 14:53:49 GMT-0500 (Central Daylight Time),224123.20000000298,A,None,O,None,361,1,366.1000000089407,223757.09999999404,7775,WL,A,13.0
2,2.0829999446868896,learn,57917.00005531311,Tue Mar 10 2026 14:53:49 GMT-0500 (Central Daylight Time),324658.299999997,A,n,O,n,2077,1,2082.4000000059605,322575.89999999106,7775,WL,A,1.0
2,4.181999921798706,learn,55818.000078201294,Tue Mar 10 2026 14:53:49 GMT-0500 (Central Daylight Time),326757.89999999106,A,,O,backspace,2081,1,4182.0,322575.89999999106,7775,WL,A,1.0
2,5.48199987411499,learn,54518.00012588501,Tue Mar 10 2026 14:53:49 GMT-0500 (Central Daylight Time),328057.5,A,m,O,m,1287,1,5481.600000008941,322575.89999999106,7775,WL,A,1.0
2,5.997999906539917,learn,54002.00009346008,Tue Mar 10 2026 14:53:49 GMT-0500 (Central Daylight Time),328573.799999997,A,me,O,e,505,1,5997.9000000059605,322575.89999999106,7775,WL,A,1.0
2,6.097999811172485,learn,53902.000188827515,Tue Mar 10 2026 14:53:49 GMT-0500 (Central Daylight Time),328673.700000003,A,mea,O,a,95,1,6097.800000011921,322575.89999999106,7775,WL,A,1.0
2,6.23199987411499,learn,53768.00012588501,Tue Mar 10 2026 14:53:49 GMT-0500 (Central Daylight Time),328807.09999999404,A,mead,O,d,122,1,6231.20000000298,322575.89999999106,7775,WL,A,1.0
2,7.197999954223633,learn,52802.00004577637,Tue Mar 10 2026 14:53:49 GMT-0500 (Central Daylight Time),329773.39999999106,A,meado,O,o,949,1,7197.5,322575.89999999106,7775,WL,A,1.0
2,7.297999858856201,learn,52702.0001411438,Tue Mar 10 2026 14:53:49 GMT-0500 (Central Daylight Time),329873.39999999106,A,meadow,O,w,79,1,7297.5,322575.89999999106,7775,WL,A,1.0
2,8.247999906539917,learn,51752.00009346008,Tue Mar 10 2026 14:53:49 GMT-0500 (Central Daylight Time),330823.200000003,A,meadowenter,O,enter,939,1,8247.300000011921,322575.89999999106,7775,WL,A,1.0
2,8.94700002670288,learn,51052.99997329712,Tue Mar 10 2026 14:53:49 GMT-0500 (Central Daylight Time),331522.89999999106,A,s,O,s,685,1,699.3999999910593,330823.5,7775,WL,A,2.0
2,9.531999826431274,learn,50468.000173568726,Tue Mar 10 2026 14:53:49 GMT-0500 (Central Daylight Time),332107.200000003,A,sa,O,a,577,1,1283.7000000029802,330823.5,7775,WL,A,2.0
2,9.71399998664856,learn,50286.00001335144,Tue Mar 10 2026 14:53:49 GMT-0500 (Central Daylight Time),332289.299999997,A,sal,O,l,169,1,1465.7999999970198,330823.5,7775,WL,A,2.0
2,10.179999828338623,learn,49820.00017166138,Tue Mar 10 2026 14:53:49 GMT-0500 (Central Daylight Time),332755.799999997,A,salt,O,t,451,1,1932.2999999970198,330823.5,7775,WL,A,2.0
2,10.575000047683716,learn,49424.999952316284,Tue Mar 10 2026 14:53:49 GMT-0500 (Central Daylight Time),333150.5,A,saltenter,O,enter,257,1,2327.0,330823.5,7775,WL,A,2.0
2,11.079999923706055,learn,48920.000076293945,Tue Mar 10 2026 14:53:49 GMT-0500 (Central Daylight Time),333655.5,A,f,O,f,493,1,504.70000000298023,333150.799999997,7775,WL,A,3.0
2,11.19700002670288,learn,48802.99997329712,Tue Mar 10 2026 14:53:49 GMT-0500 (Central Daylight Time),333772.200000003,A,fi,O,i,100,1,621.4000000059605,333150.799999997,7775,WL,A,3.0
2,11.429999828338623,learn,48570.00017166138,Tue Mar 10 2026 14:53:49 GMT-0500 (Central Daylight Time),334005.39999999106,A,fin,O,n,216,1,854.5999999940395,333150.799999997,7775,WL,A,3.0
2,11.77999997138977,learn,48220.00002861023,Tue Mar 10 2026 14:53:49 GMT-0500 (Central Daylight Time),334355.299999997,A,fing,O,g,335,1,1204.5,333150.799999997,7775,WL,A,3.0
2,11.912999868392944,learn,48087.000131607056,Tue Mar 10 2026 14:53:49 GMT-0500 (Central Daylight Time),334488.700000003,A,finge,O,e,121,1,1337.9000000059605,333150.799999997,7775,WL,A,3.0
2,12.162999868392944,learn,47837.000131607056,Tue Mar 10 2026 14:53:49 GMT-0500 (Central Daylight Time),334738.5,A,finger,O,r,235,1,1587.7000000029802,333150.799999997,7775,WL,A,3.0
2,12.629999876022339,learn,47370.00012397766,Tue Mar 10 2026 14:53:49 GMT-0500 (Central Daylight Time),335205.200000003,A,fingerenter,O,enter,450,1,2054.4000000059605,333150.799999997,7775,WL,A,3.0
2,12.995999813079834,learn,47004.000186920166,Tue Mar 10 2026 14:53:49 GMT-0500 (Central Daylight Time),335571.59999999404,A,a,O,a,351,1,366.09999999403954,335205.5,7775,WL,A,4.0
2,13.279000043869019,learn,46720.99995613098,Tue Mar 10 2026 14:53:49 GMT-0500 (Central Daylight Time),335854.799999997,A,ap,O,p,272,1,649.2999999970198,335205.5,7775,WL,A,4.0
2,13.428999900817871,learn,46571.00009918213,Tue Mar 10 2026 14:53:49 GMT-0500 (Central Daylight Time),336004.700000003,A,app,O,p,142,1,799.2000000029802,335205.5,7775,WL,A,4.0
2,13.662999868392944,learn,46337.000131607056,Tue Mar 10 2026 14:53:49 GMT-0500 (Central Daylight Time),336238.09999999404,A,appl,O,l,215,1,1032.5999999940395,335205.5,7775,WL,A,4.0
2,13.995999813079834,learn,46004.000186920166,Tue Mar 10 2026 14:53:49 GMT-0500 (Central Daylight Time),336571.39999999106,A,applenter,O,enter,318,1,1365.8999999910593,335205.5,7775,WL,A,4.0
2,14.178999900817871,learn,45821.00009918213,Tue Mar 10 2026 14:53:49 GMT-0500 (Central Daylight Time),336754.700000003,A,e,O,e,169,1,183.0,336571.700000003,7775,WL,A,5.0
2,15.01199984550476,learn,44988.00015449524,Tue Mar 10 2026 14:53:49 GMT-0500 (Central Daylight Time),337587.700000003,A,et,O,t,818,1,1016.0,336571.700000003,7775,WL,A,5.0
2,15.19599986076355,learn,44804.00013923645,Tue Mar 10 2026 14:53:49 GMT-0500 (Central Daylight Time),337771.0,A,etr,O,r,178,1,1199.2999999970198,336571.700000003,7775,WL,A,5.0
2,15.228999853134155,learn,44771.000146865845,Tue Mar 10 2026 14:53:49 GMT-0500 (Central Daylight Time),337804.09999999404,A,etra,O,a,17,1,1232.3999999910593,336571.700000003,7775,WL,A,5.0
2,15.878999948501587,learn,44121.00005149841,Tue Mar 10 2026 14:53:49 GMT-0500 (Central Daylight Time),338454.0,A,etrai,O,i,640,1,1882.2999999970198,336571.700000003,7775,WL,A,5.0
2,16.161999940872192,learn,43838.00005912781,Tue Mar 10 2026 14:53:49 GMT-0500 (Central Daylight Time),338737.200000003,A,etrain,O,n,270,1,2165.5,336571.700000003,7775,WL,A,5.0
2,17.544999837875366,learn,42455.000162124634,Tue Mar 10 2026 14:53:49 GMT-0500 (Central Daylight Time),340120.299999997,A,etrai,O,backspace,1371,1,3548.5999999940395,336571.700000003,7775,WL,A,5.0
2,17.76199984550476,learn,42238.00015449524,Tue Mar 10 2026 14:53:49 GMT-0500 (Central Daylight Time),340338.0,A,etra,O,backspace,204,1,3766.2999999970198,336571.700000003,7775,WL,A,5.0
2,17.944999933242798,learn,42055.0000667572,Tue Mar 10 2026 14:53:49 GMT-0500 (Central Daylight Time),340520.0,A,etr,O,backspace,170,1,3948.2999999970198,336571.700000003,7775,WL,A,5.0
2,18.09500002861023,learn,41904.99997138977,Tue Mar 10 2026 14:53:49 GMT-0500 (Central Daylight Time),340670.0,A,et,O,backspace,140,1,4098.29999999702,336571.700000003,7775,WL,A,5.0
2,18.244999885559082,learn,41755.00011444092,Tue Mar 10 2026 14:53:49 GMT-0500 (Central Daylight Time),340820.0,A,e,O,backspace,143,1,4248.29999999702,336571.700000003,7775,WL,A,5.0
2,18.41100001335144,learn,41588.99998664856,Tue Mar 10 2026 14:53:49 GMT-0500 (Central Daylight Time),340986.5,A,,O,backspace,160,1,4414.79999999702,336571.700000003,7775,WL,A,5.0
2,19.26099991798401,learn,40739.00008201599,Tue Mar 10 2026 14:53:49 GMT-0500 (Central Daylight Time),341836.200000003,A,t,O,t,842,1,5264.5,336571.700000003,7775,WL,A,5.0
2,19.460999965667725,learn,40539.000034332275,Tue Mar 10 2026 14:53:49 GMT-0500 (Central Daylight Time),342036.200000003,A,tr,O,r,192,1,5464.5,336571.700000003,7775,WL,A,5.0
2,20.109999895095825,learn,39890.000104904175,Tue Mar 10 2026 14:53:49 GMT-0500 (Central Daylight Time),342685.89999999106,A,tra,O,a,632,1,6114.199999988079,336571.700000003,7775,WL,A,5.0
2,20.194000005722046,learn,39805.999994277954,Tue Mar 10 2026 14:53:49 GMT-0500 (Central Daylight Time),342769.299999997,A,trai,O,i,70,1,6197.5999999940395,336571.700000003,7775,WL,A,5.0
2,20.41100001335144,learn,39588.99998664856,Tue Mar 10 2026 14:53:49 GMT-0500 (Central Daylight Time),342986.0,A,train,O,n,211,1,6414.29999999702,336571.700000003,7775,WL,A,5.0
2,21.143999814987183,learn,38856.00018501282,Tue Mar 10 2026 14:53:49 GMT-0500 (Central Daylight Time),343719.0,A,trainenter,O,enter,722,1,7147.29999999702,336571.700000003,7775,WL,A,5.0
2,23.625999927520752,learn,36374.00007247925,Tue Mar 10 2026 14:53:49 GMT-0500 (Central Daylight Time),346201.59999999404,A,r,O,r,2462,1,2482.3999999910593,343719.200000003,7775,WL,A,6.0
2,23.72599983215332,learn,36274.00016784668,Tue Mar 10 2026 14:53:49 GMT-0500 (Central Daylight Time),346301.5,A,ra,O,a,91,1,2582.2999999970198,343719.200000003,7775,WL,A,6.0
2,23.942999839782715,learn,36057.000160217285,Tue Mar 10 2026 14:53:49 GMT-0500 (Central Daylight Time),346518.200000003,A,rat,O,t,199,1,2799.0,343719.200000003,7775,WL,A,6.0
2,24.075999975204468,learn,35924.00002479553,Tue Mar 10 2026 14:53:49 GMT-0500 (Central Daylight Time),346651.5,A,ratt,O,t,118,1,2932.2999999970198,343719.200000003,7775,WL,A,6.0
2,24.95899987220764,learn,35041.00012779236,Tue Mar 10 2026 14:53:49 GMT-0500 (Central Daylight Time),347534.5,A,rattl,O,l,873,1,3815.2999999970198,343719.200000003,7775,WL,A,6.0
2,25.075999975204468,learn,34924.00002479553,Tue Mar 10 2026 14:53:49 GMT-0500 (Central Daylight Time),347651.200000003,A,rattle,O,e,102,1,3932.0,343719.200000003,7775,WL,A,6.0
2,25.89199995994568,learn,34108.00004005432,Tue Mar 10 2026 14:53:49 GMT-0500 (Central Daylight Time),348467.5,A,rattleenter,O,enter,801,1,4748.29999999702,343719.200000003,7775,WL,A,6.0
2,32.02300000190735,learn,27976.99999809265,Tue Mar 10 2026 14:53:49 GMT-0500 (Central Daylight Time),354598.89999999106,A,g,O,g,6113,1,6131.199999988079,348467.700000003,7775,WL,A,7.0
2,32.139999866485596,learn,27860.000133514404,Tue Mar 10 2026 14:53:49 GMT-0500 (Central Daylight Time),354715.799999997,A,go,O,o,101,1,6248.0999999940395,348467.700000003,7775,WL,A,7.0
2,32.306999921798706,learn,27693.000078201294,Tue Mar 10 2026 14:53:49 GMT-0500 (Central Daylight Time),354882.299999997,A,gol,O,l,160,1,6414.5999999940395,348467.700000003,7775,WL,A,7.0
2,32.889999866485596,learn,27110.000133514404,Tue Mar 10 2026 14:53:49 GMT-0500 (Central Daylight Time),355465.39999999106,A,gold,O,d,561,1,6997.699999988079,348467.700000003,7775,WL,A,7.0
2,34.621999979019165,learn,25378.000020980835,Tue Mar 10 2026 14:53:49 GMT-0500 (Central Daylight Time),357198.200000003,A,goldenter,O,enter,1723,1,8730.5,348467.700000003,7775,WL,A,7.0
2,35.305999994277954,learn,24694.000005722046,Tue Mar 10 2026 14:53:49 GMT-0500 (Central Daylight Time),357881.299999997,A,r,O,r,662,1,682.9000000059605,357198.39999999106,7775,WL,A,8.0
2,35.47199988365173,learn,24528.000116348267,Tue Mar 10 2026 14:53:49 GMT-0500 (Central Daylight Time),358047.799999997,A,ru,O,u,147,1,849.4000000059605,357198.39999999106,7775,WL,A,8.0
2,35.92199993133545,learn,24078.00006866455,Tue Mar 10 2026 14:53:49 GMT-0500 (Central Daylight Time),358497.89999999106,A,rug,O,g,428,1,1299.5,357198.39999999106,7775,WL,A,8.0
2,36.871999979019165,learn,23128.000020980835,Tue Mar 10 2026 14:53:49 GMT-0500 (Central Daylight Time),359447.299999997,A,rugenter,O,enter,931,1,2248.9000000059605,357198.39999999106,7775,WL,A,8.0
2,40.32099986076355,learn,19679.00013923645,Tue Mar 10 2026 14:53:49 GMT-0500 (Central Daylight Time),362896.5,A,f,O,f,3437,1,3449.0,359447.5,7775,WL,A,9.0
2,40.437000036239624,learn,19562.999963760376,Tue Mar 10 2026 14:53:49 GMT-0500 (Central Daylight Time),363013.0,A,fl,O,l,100,1,3565.5,359447.5,7775,WL,A,9.0
2,40.63699984550476,learn,19363.00015449524,Tue Mar 10 2026 14:53:49 GMT-0500 (Central Daylight Time),363212.799999997,A,flo,O,o,183,1,3765.2999999970198,359447.5,7775,WL,A,9.0
2,41.05399990081787,learn,18946.00009918213,Tue Mar 10 2026 14:53:49 GMT-0500 (Central Daylight Time),363629.5,A,flow,O,w,407,1,4182.0,359447.5,7775,WL,A,9.0
2,41.32099986076355,learn,18679.00013923645,Tue Mar 10 2026 14:53:49 GMT-0500 (Central Daylight Time),363896.200000003,A,flowe,O,e,247,1,4448.70000000298,359447.5,7775,WL,A,9.0
2,41.50399994850159,learn,18496.000051498413,Tue Mar 10 2026 14:53:49 GMT-0500 (Central Daylight Time),364079.39999999106,A,flower,O,r,172,1,4631.899999991059,359447.5,7775,WL,A,9.0
2,42.53699994087219,learn,17463.000059127808,Tue Mar 10 2026 14:53:49 GMT-0500 (Central Daylight Time),365112.5,A,flowerenter,O,enter,1021,1,5665.0,359447.5,7775,WL,A,9.0
2,52.53399991989136,learn,7466.000080108643,Tue Mar 10 2026 14:53:49 GMT-0500 (Central Daylight Time),375109.299999997,A,enter,O,enter,9988,1,9996.5,365112.799999997,7775,WL,A,10.0
2,52.93400001525879,learn,7065.999984741211,Tue Mar 10 2026 14:53:49 GMT-0500 (Central Daylight Time),375509.39999999106,A,enter,O,enter,383,1,399.79999999701977,375109.59999999404,7775,WL,A,11.0
2,53.09999990463257,learn,6900.000095367432,Tue Mar 10 2026 14:53:49 GMT-0500 (Central Daylight Time),375675.700000003,A,enter,O,enter,159,1,165.90000000596046,375509.799999997,7775,WL,A,12.0
2,53.26699995994568,learn,6733.000040054321,Tue Mar 10 2026 14:53:49 GMT-0500 (Central Daylight Time),375842.200000003,A,enter,O,enter,161,1,166.20000000298023,375676.0,7775,WL,A,13.0
2,53.450000047683716,learn,6549.999952316284,Tue Mar 10 2026 14:53:49 GMT-0500 (Central Daylight Time),376025.700000003,A,enter,O,enter,162,1,183.0,375842.700000003,7775,WL,A,14.0
2,53.615999937057495,learn,6384.000062942505,Tue Mar 10 2026 14:53:49 GMT-0500 (Central Daylight Time),376192.09999999404,A,enter,O,enter,147,1,166.09999999403954,376026.0,7775,WL,A,15.0
3,1.25,learn,58750.0,Tue Mar 10 2026 14:53:49 GMT-0500 (Central Daylight Time),446753.700000003,A,k,O,k,1245,1,1249.5,445504.200000003,7775,WL,A,1.0
3,1.7660000324249268,learn,58233.99996757507,Tue Mar 10 2026 14:53:49 GMT-0500 (Central Daylight Time),447270.0,A,ke,O,e,505,1,1765.7999999970198,445504.200000003,7775,WL,A,1.0
3,1.8829998970031738,learn,58117.000102996826,Tue Mar 10 2026 14:53:49 GMT-0500 (Central Daylight Time),447386.59999999404,A,ket,O,t,102,1,1882.3999999910593,445504.200000003,7775,WL,A,1.0
3,2.881999969482422,learn,57118.00003051758,Tue Mar 10 2026 14:53:49 GMT-0500 (Central Daylight Time),448386.299999997,A,ke,O,backspace,986,1,2882.0999999940395,445504.200000003,7775,WL,A,1.0
3,3.6989998817443848,learn,56301.000118255615,Tue Mar 10 2026 14:53:49 GMT-0500 (Central Daylight Time),449202.700000003,A,key,O,y,802,1,3698.5,445504.200000003,7775,WL,A,1.0
3,4.414999961853027,learn,55585.00003814697,Tue Mar 10 2026 14:53:49 GMT-0500 (Central Daylight Time),449919.5,A,keyenter,O,enter,705,1,4415.29999999702,445504.200000003,7775,WL,A,1.0
3,5.014999866485596,learn,54985.000133514404,Tue Mar 10 2026 14:53:49 GMT-0500 (Central Daylight Time),450519.0,A,r,O,r,589,1,599.2999999970198,449919.700000003,7775,WL,A,2.0
3,5.131999969482422,learn,54868.00003051758,Tue Mar 10 2026 14:53:49 GMT-0500 (Central Daylight Time),450635.700000003,A,ra,O,a,109,1,716.0,449919.700000003,7775,WL,A,2.0
3,5.297999858856201,learn,54702.0001411438,Tue Mar 10 2026 14:53:49 GMT-0500 (Central Daylight Time),450802.299999997,A,rat,O,t,161,1,882.5999999940395,449919.700000003,7775,WL,A,2.0
3,5.44599986076355,learn,54554.00013923645,Tue Mar 10 2026 14:53:49 GMT-0500 (Central Daylight Time),450949.59999999404,A,ratt,O,t,142,1,1029.8999999910593,449919.700000003,7775,WL,A,2.0
3,6.565000057220459,learn,53434.99994277954,Tue Mar 10 2026 14:53:49 GMT-0500 (Central Daylight Time),452068.5,A,rattl,O,l,1102,1,2148.7999999970198,449919.700000003,7775,WL,A,2.0
3,6.680999994277954,learn,53319.000005722046,Tue Mar 10 2026 14:53:49 GMT-0500 (Central Daylight Time),452185.200000003,A,rattle,O,e,104,1,2265.5,449919.700000003,7775,WL,A,2.0
3,7.047999858856201,learn,52952.0001411438,Tue Mar 10 2026 14:53:49 GMT-0500 (Central Daylight Time),452551.59999999404,A,rattleenter,O,enter,355,1,2631.8999999910593,449919.700000003,7775,WL,A,2.0
3,7.914000034332275,learn,52085.999965667725,Tue Mar 10 2026 14:53:49 GMT-0500 (Central Daylight Time),453418.200000003,A,g,O,g,853,1,866.3000000119209,452551.89999999106,7775,WL,A,3.0
3,8.013999938964844,learn,51986.000061035156,Tue Mar 10 2026 14:53:49 GMT-0500 (Central Daylight Time),453518.0,A,go,O,o,82,1,966.1000000089407,452551.89999999106,7775,WL,A,3.0
3,8.631999969482422,learn,51368.00003051758,Tue Mar 10 2026 14:53:49 GMT-0500 (Central Daylight Time),454135.89999999106,A,gol,O,l,606,1,1584.0,452551.89999999106,7775,WL,A,3.0
3,8.813999891281128,learn,51186.00010871887,Tue Mar 10 2026 14:53:49 GMT-0500 (Central Daylight Time),454317.89999999106,A,gold,O,d,165,1,1766.0,452551.89999999106,7775,WL,A,3.0
3,9.513999938964844,learn,50486.000061035156,Tue Mar 10 2026 14:53:49 GMT-0500 (Central Daylight Time),455017.59999999404,A,goldenter,O,enter,679,1,2465.7000000029802,452551.89999999106,7775,WL,A,3.0
3,10.11299991607666,learn,49887.00008392334,Tue Mar 10 2026 14:53:49 GMT-0500 (Central Daylight Time),455617.39999999106,A,b,O,b,587,1,599.5999999940395,455017.799999997,7775,WL,A,4.0
3,10.763000011444092,learn,49236.99998855591,Tue Mar 10 2026 14:53:49 GMT-0500 (Central Daylight Time),456267.299999997,A,bo,O,o,635,1,1249.5,455017.799999997,7775,WL,A,4.0
3,10.912999868392944,learn,49087.000131607056,Tue Mar 10 2026 14:53:49 GMT-0500 (Central Daylight Time),456417.09999999404,A,boo,O,o,128,1,1399.2999999970198,455017.799999997,7775,WL,A,4.0
3,11.11299991607666,learn,48887.00008392334,Tue Mar 10 2026 14:53:49 GMT-0500 (Central Daylight Time),456617.09999999404,A,book,O,k,179,1,1599.2999999970198,455017.799999997,7775,WL,A,4.0
3,12.329999923706055,learn,47670.000076293945,Tue Mar 10 2026 14:53:49 GMT-0500 (Central Daylight Time),457833.799999997,A,bookenter,O,enter,1203,1,2816.0,455017.799999997,7775,WL,A,4.0
3,13.645999908447266,learn,46354.000091552734,Tue Mar 10 2026 14:53:49 GMT-0500 (Central Daylight Time),459149.799999997,A,r,O,r,1298,1,1315.7000000029802,457834.09999999404,7775,WL,A,5.0
3,13.878999948501587,learn,46121.00005149841,Tue Mar 10 2026 14:53:49 GMT-0500 (Central Daylight Time),459383.0,A,ru,O,u,222,1,1548.9000000059605,457834.09999999404,7775,WL,A,5.0
3,14.562000036239624,learn,45437.999963760376,Tue Mar 10 2026 14:53:49 GMT-0500 (Central Daylight Time),460066.09999999404,A,rug,O,g,677,1,2232.0,457834.09999999404,7775,WL,A,5.0
3,16.144999980926514,learn,43855.000019073486,Tue Mar 10 2026 14:53:49 GMT-0500 (Central Daylight Time),461648.89999999106,A,rugf,O,f,1570,1,3814.7999999970198,457834.09999999404,7775,WL,A,5.0
3,16.227999925613403,learn,43772.0000743866,Tue Mar 10 2026 14:53:49 GMT-0500 (Central Daylight Time),461732.200000003,A,rugfi,O,i,68,1,3898.1000000089407,457834.09999999404,7775,WL,A,5.0
3,16.461999893188477,learn,43538.00010681152,Tue Mar 10 2026 14:53:49 GMT-0500 (Central Daylight Time),461965.39999999106,A,rugfin,O,n,216,1,4131.29999999702,457834.09999999404,7775,WL,A,5.0
3,16.812000036239624,learn,43187.999963760376,Tue Mar 10 2026 14:53:49 GMT-0500 (Central Daylight Time),462315.39999999106,A,rugfing,O,g,343,1,4481.29999999702,457834.09999999404,7775,WL,A,5.0
3,17.044999837875366,learn,42955.000162124634,Tue Mar 10 2026 14:53:49 GMT-0500 (Central Daylight Time),462548.59999999404,A,rugfinge,O,e,218,1,4714.5,457834.09999999404,7775,WL,A,5.0
3,17.17799997329712,learn,42822.00002670288,Tue Mar 10 2026 14:53:49 GMT-0500 (Central Daylight Time),462681.799999997,A,rugfinger,O,r,120,1,4847.70000000298,457834.09999999404,7775,WL,A,5.0
3,17.92799997329712,learn,42072.00002670288,Tue Mar 10 2026 14:53:49 GMT-0500 (Central Daylight Time),463431.59999999404,A,rugfingers,O,s,739,1,5597.5,457834.09999999404,7775,WL,A,5.0
3,18.294999837875366,learn,41705.000162124634,Tue Mar 10 2026 14:53:49 GMT-0500 (Central Daylight Time),463798.59999999404,A,rugfingersa,O,a,358,1,5964.5,457834.09999999404,7775,WL,A,5.0
3,18.427000045776367,learn,41572.99995422363,Tue Mar 10 2026 14:53:49 GMT-0500 (Central Daylight Time),463931.299999997,A,rugfingersal,O,l,126,1,6097.20000000298,457834.09999999404,7775,WL,A,5.0
3,19.626999855041504,learn,40373.000144958496,Tue Mar 10 2026 14:53:49 GMT-0500 (Central Daylight Time),465130.89999999106,A,rugfingersalt,O,t,1193,1,7296.79999999702,457834.09999999404,7775,WL,A,5.0
3,20.376999855041504,learn,39623.000144958496,Tue Mar 10 2026 14:53:49 GMT-0500 (Central Daylight Time),465880.700000003,A,rugfingersaltt,O,t,737,1,8046.600000008941,457834.09999999404,7775,WL,A,5.0
3,20.592999935150146,learn,39407.00006484985,Tue Mar 10 2026 14:53:49 GMT-0500 (Central Daylight Time),466097.39999999106,A,rugfingersalttr,O,r,204,1,8263.29999999702,457834.09999999404,7775,WL,A,5.0
3,21.14299988746643,learn,38857.00011253357,Tue Mar 10 2026 14:53:49 GMT-0500 (Central Daylight Time),466647.200000003,A,rugfingersalttra,O,a,531,1,8813.10000000894,457834.09999999404,7775,WL,A,5.0
3,21.243000030517578,learn,38756.99996948242,Tue Mar 10 2026 14:53:49 GMT-0500 (Central Daylight Time),466747.200000003,A,rugfingersalttrai,O,i,93,1,8913.10000000894,457834.09999999404,7775,WL,A,5.0
3,21.57699990272522,learn,38423.00009727478,Tue Mar 10 2026 14:53:49 GMT-0500 (Central Daylight Time),467080.5,A,rugfingersalttrain,O,n,313,1,9246.40000000596,457834.09999999404,7775,WL,A,5.0
3,23.14299988746643,learn,36857.00011253357,Tue Mar 10 2026 14:53:49 GMT-0500 (Central Daylight Time),468646.700000003,A,rugfingersalttrai,O,backspace,1548,1,10812.60000000894,457834.09999999404,7775,WL,A,5.0
3,23.292999982833862,learn,36707.00001716614,Tue Mar 10 2026 14:53:49 GMT-0500 (Central Daylight Time),468796.59999999404,A,rugfingersalttra,O,backspace,141,1,10962.5,457834.09999999404,7775,WL,A,5.0
3,23.45899987220764,learn,36541.00012779236,Tue Mar 10 2026 14:53:49 GMT-0500 (Central Daylight Time),468963.200000003,A,rugfingersalttr,O,backspace,152,1,11129.10000000894,457834.09999999404,7775,WL,A,5.0
3,23.609999895095825,learn,36390.000104904175,Tue Mar 10 2026 14:53:49 GMT-0500 (Central Daylight Time),469113.59999999404,A,rugfingersaltt,O,backspace,145,1,11279.5,457834.09999999404,7775,WL,A,5.0
3,23.776000022888184,learn,36223.99997711182,Tue Mar 10 2026 14:53:49 GMT-0500 (Central Daylight Time),469279.799999997,A,rugfingersalt,O,backspace,155,1,11445.70000000298,457834.09999999404,7775,WL,A,5.0
3,23.942999839782715,learn,36057.000160217285,Tue Mar 10 2026 14:53:49 GMT-0500 (Central Daylight Time),469446.799999997,A,rugfingersal,O,backspace,149,1,11612.70000000298,457834.09999999404,7775,WL,A,5.0
3,24.108999967575073,learn,35891.00003242493,Tue Mar 10 2026 14:53:49 GMT-0500 (Central Daylight Time),469613.299999997,A,rugfingersa,O,backspace,150,1,11779.20000000298,457834.09999999404,7775,WL,A,5.0
3,24.259000062942505,learn,35740.999937057495,Tue Mar 10 2026 14:53:49 GMT-0500 (Central Daylight Time),469763.39999999106,A,rugfingers,O,backspace,144,1,11929.29999999702,457834.09999999404,7775,WL,A,5.0
3,24.792999982833862,learn,35207.00001716614,Tue Mar 10 2026 14:53:49 GMT-0500 (Central Daylight Time),470296.59999999404,A,rugfinger,O,backspace,513,1,12462.5,457834.09999999404,7775,WL,A,5.0
3,25.759000062942505,learn,34240.999937057495,Tue Mar 10 2026 14:53:49 GMT-0500 (Central Daylight Time),471262.89999999106,A,rugfinge,O,backspace,948,1,13428.79999999702,457834.09999999404,7775,WL,A,5.0
3,25.95899987220764,learn,34041.00012779236,Tue Mar 10 2026 14:53:49 GMT-0500 (Central Daylight Time),471463.09999999404,A,rugfing,O,backspace,183,1,13629.0,457834.09999999404,7775,WL,A,5.0
3,26.125,learn,33875.0,Tue Mar 10 2026 14:53:49 GMT-0500 (Central Daylight Time),471629.39999999106,A,rugfin,O,backspace,149,1,13795.29999999702,457834.09999999404,7775,WL,A,5.0
3,26.276000022888184,learn,33723.99997711182,Tue Mar 10 2026 14:53:49 GMT-0500 (Central Daylight Time),471779.39999999106,A,rugfi,O,backspace,136,1,13945.29999999702,457834.09999999404,7775,WL,A,5.0
3,26.441999912261963,learn,33558.00008773804,Tue Mar 10 2026 14:53:49 GMT-0500 (Central Daylight Time),471946.09999999404,A,rugf,O,backspace,153,1,14112.0,457834.09999999404,7775,WL,A,5.0
3,26.625,learn,33375.0,Tue Mar 10 2026 14:53:49 GMT-0500 (Central Daylight Time),472129.0,A,rug,O,backspace,163,1,14294.90000000596,457834.09999999404,7775,WL,A,5.0
3,28.174999952316284,learn,31825.000047683716,Tue Mar 10 2026 14:53:49 GMT-0500 (Central Daylight Time),473678.799999997,A,rugenter,O,enter,1533,1,15844.70000000298,457834.09999999404,7775,WL,A,5.0
3,29.45799994468689,learn,30542.00005531311,Tue Mar 10 2026 14:53:49 GMT-0500 (Central Daylight Time),474961.89999999106,A,f,O,f,1263,1,1282.7999999970198,473679.09999999404,7775,WL,A,6.0
3,29.573999881744385,learn,30426.000118255615,Tue Mar 10 2026 14:53:49 GMT-0500 (Central Daylight Time),475078.299999997,A,fi,O,i,99,1,1399.2000000029802,473679.09999999404,7775,WL,A,6.0
3,29.823999881744385,learn,30176.000118255615,Tue Mar 10 2026 14:53:49 GMT-0500 (Central Daylight Time),475328.39999999106,A,fin,O,n,231,1,1649.2999999970198,473679.09999999404,7775,WL,A,6.0
3,30.141000032424927,learn,29858.999967575073,Tue Mar 10 2026 14:53:49 GMT-0500 (Central Daylight Time),475645.200000003,A,fing,O,g,301,1,1966.1000000089407,473679.09999999404,7775,WL,A,6.0
3,30.29099988937378,learn,29709.00011062622,Tue Mar 10 2026 14:53:49 GMT-0500 (Central Daylight Time),475794.799999997,A,finge,O,e,128,1,2115.7000000029802,473679.09999999404,7775,WL,A,6.0
3,30.391000032424927,learn,29608.999967575073,Tue Mar 10 2026 14:53:49 GMT-0500 (Central Daylight Time),475894.700000003,A,finger,O,r,91,1,2215.6000000089407,473679.09999999404,7775,WL,A,6.0
3,32.85699987411499,learn,27143.00012588501,Tue Mar 10 2026 14:53:49 GMT-0500 (Central Daylight Time),478360.59999999404,A,fingerenter,O,enter,2446,1,4681.5,473679.09999999404,7775,WL,A,6.0
3,34.055999994277954,learn,25944.000005722046,Tue Mar 10 2026 14:53:49 GMT-0500 (Central Daylight Time),479560.5,A,s,O,s,1181,1,1199.5,478361.0,7775,WL,A,7.0
3,34.388999938964844,learn,25611.000061035156,Tue Mar 10 2026 14:53:49 GMT-0500 (Central Daylight Time),479893.5,A,sa,O,a,325,1,1532.5,478361.0,7775,WL,A,7.0
3,34.52300000190735,learn,25476.99999809265,Tue Mar 10 2026 14:53:49 GMT-0500 (Central Daylight Time),480026.799999997,A,sal,O,l,119,1,1665.7999999970198,478361.0,7775,WL,A,7.0
3,34.98899984359741,learn,25011.000156402588,Tue Mar 10 2026 14:53:49 GMT-0500 (Central Daylight Time),480493.59999999404,A,salt,O,t,459,1,2132.5999999940395,478361.0,7775,WL,A,7.0
3,36.638999938964844,learn,23361.000061035156,Tue Mar 10 2026 14:53:49 GMT-0500 (Central Daylight Time),482143.09999999404,A,saltenter,O,enter,1631,1,3782.0999999940395,478361.0,7775,WL,A,7.0
3,38.50499987602234,learn,21495.00012397766,Tue Mar 10 2026 14:53:49 GMT-0500 (Central Daylight Time),484009.0,A,t,O,t,1845,1,1865.7000000029802,482143.299999997,7775,WL,A,8.0
3,38.73799991607666,learn,21262.00008392334,Tue Mar 10 2026 14:53:49 GMT-0500 (Central Daylight Time),484242.09999999404,A,tr,O,r,212,1,2098.7999999970198,482143.299999997,7775,WL,A,8.0
3,39.437999963760376,learn,20562.000036239624,Tue Mar 10 2026 14:53:49 GMT-0500 (Central Daylight Time),484941.89999999106,A,tra,O,a,690,1,2798.5999999940395,482143.299999997,7775,WL,A,8.0
3,39.537999868392944,learn,20462.000131607056,Tue Mar 10 2026 14:53:49 GMT-0500 (Central Daylight Time),485041.700000003,A,trai,O,i,86,1,2898.4000000059605,482143.299999997,7775,WL,A,8.0
3,39.83800005912781,learn,20161.999940872192,Tue Mar 10 2026 14:53:49 GMT-0500 (Central Daylight Time),485341.700000003,A,train,O,n,283,1,3198.4000000059605,482143.299999997,7775,WL,A,8.0
3,41.42199993133545,learn,18578.00006866455,Tue Mar 10 2026 14:53:49 GMT-0500 (Central Daylight Time),486925.700000003,A,trainenter,O,enter,1575,1,4782.4000000059605,482143.299999997,7775,WL,A,8.0
3,42.103999853134155,learn,17896.000146865845,Tue Mar 10 2026 14:53:49 GMT-0500 (Central Daylight Time),487607.59999999404,A,r,O,r,671,1,681.5,486926.09999999404,7775,WL,A,9.0
3,42.2039999961853,learn,17796.000003814697,Tue Mar 10 2026 14:53:49 GMT-0500 (Central Daylight Time),487707.59999999404,A,ra,O,a,92,1,781.5,486926.09999999404,7775,WL,A,9.0
3,42.38699984550476,learn,17613.00015449524,Tue Mar 10 2026 14:53:49 GMT-0500 (Central Daylight Time),487890.700000003,A,rat,O,t,178,1,964.6000000089407,486926.09999999404,7775,WL,A,9.0
3,42.53699994087219,learn,17463.000059127808,Tue Mar 10 2026 14:53:49 GMT-0500 (Central Daylight Time),488040.89999999106,A,ratt,O,t,130,1,1114.7999999970198,486926.09999999404,7775,WL,A,9.0
3,43.169999837875366,learn,16830.000162124634,Tue Mar 10 2026 14:53:49 GMT-0500 (Central Daylight Time),488673.799999997,A,rattk,O,k,611,1,1747.7000000029802,486926.09999999404,7775,WL,A,9.0
3,43.3199999332428,learn,16680.000066757202,Tue Mar 10 2026 14:53:49 GMT-0500 (Central Daylight Time),488823.799999997,A,rattke,O,e,139,1,1897.7000000029802,486926.09999999404,7775,WL,A,9.0
3,43.48699998855591,learn,16513.00001144409,Tue Mar 10 2026 14:53:49 GMT-0500 (Central Daylight Time),488990.700000003,A,rattkeenter,O,enter,157,1,2064.6000000089407,486926.09999999404,7775,WL,A,9.0
3,44.05299997329712,learn,15947.00002670288,Tue Mar 10 2026 14:53:49 GMT-0500 (Central Daylight Time),489557.0,A,c,O,c,551,1,566.1000000089407,488990.89999999106,7775,WL,A,10.0
3,44.18599987030029,learn,15814.000129699707,Tue Mar 10 2026 14:53:49 GMT-0500 (Central Daylight Time),489690.200000003,A,ch,O,h,119,1,699.3000000119209,488990.89999999106,7775,WL,A,10.0
3,44.753000020980835,learn,15246.999979019165,Tue Mar 10 2026 14:53:49 GMT-0500 (Central Daylight Time),490257.0,A,chi,O,i,546,1,1266.1000000089407,488990.89999999106,7775,WL,A,10.0
3,45.003000020980835,learn,14996.999979019165,Tue Mar 10 2026 14:53:49 GMT-0500 (Central Daylight Time),490506.799999997,A,chin,O,n,245,1,1515.9000000059605,488990.89999999106,7775,WL,A,10.0
3,46.20199990272522,learn,13798.00009727478,Tue Mar 10 2026 14:53:49 GMT-0500 (Central Daylight Time),491706.299999997,A,chi,O,backspace,1194,1,2715.4000000059605,488990.89999999106,7775,WL,A,10.0
3,46.63599991798401,learn,13364.000082015991,Tue Mar 10 2026 14:53:49 GMT-0500 (Central Daylight Time),492139.700000003,A,chim,O,m,419,1,3148.800000011921,488990.89999999106,7775,WL,A,10.0
3,46.95199990272522,learn,13048.00009727478,Tue Mar 10 2026 14:53:49 GMT-0500 (Central Daylight Time),492456.299999997,A,chimn,O,n,306,1,3465.4000000059605,488990.89999999106,7775,WL,A,10.0
3,47.63499999046326,learn,12365.000009536743,Tue Mar 10 2026 14:53:49 GMT-0500 (Central Daylight Time),493139.200000003,A,chimne,O,e,677,1,4148.300000011921,488990.89999999106,7775,WL,A,10.0
3,47.751999855041504,learn,12248.000144958496,Tue Mar 10 2026 14:53:49 GMT-0500 (Central Daylight Time),493255.89999999106,A,chimney,O,y,107,1,4265.0,488990.89999999106,7775,WL,A,10.0
3,50.41799998283386,learn,9582.000017166138,Tue Mar 10 2026 14:53:49 GMT-0500 (Central Daylight Time),495921.89999999106,A,chimneyenter,O,enter,2653,1,6931.0,488990.89999999106,7775,WL,A,10.0
3,56.365999937057495,learn,3634.000062942505,Tue Mar 10 2026 14:53:49 GMT-0500 (Central Daylight Time),501869.89999999106,A,enter,O,enter,5939,1,5947.699999988079,495922.200000003,7775,WL,A,11.0
3,56.532999992370605,learn,3467.0000076293945,Tue Mar 10 2026 14:53:49 GMT-0500 (Central Daylight Time),502036.799999997,A,enter,O,enter,151,1,166.5,501870.299999997,7775,WL,A,12.0
3,56.698999881744385,learn,3301.0001182556152,Tue Mar 10 2026 14:53:49 GMT-0500 (Central Daylight Time),502203.200000003,A,enter,O,enter,152,1,166.1000000089407,502037.09999999404,7775,WL,A,13.0
3,56.865999937057495,learn,3134.000062942505,Tue Mar 10 2026 14:53:49 GMT-0500 (Central Daylight Time),502369.799999997,A,enter,O,enter,146,1,166.09999999403954,502203.700000003,7775,WL,A,14.0
3,57.01699995994568,learn,2983.0000400543213,Tue Mar 10 2026 14:53:49 GMT-0500 (Central Daylight Time),502520.89999999106,A,enter,O,enter,139,1,150.59999999403954,502370.299999997,7775,WL,A,15.0
4,0.9170000553131104,learn,59082.99994468689,Tue Mar 10 2026 14:53:49 GMT-0500 (Central Daylight Time),573214.5,A,f,O,f,908,1,916.2999999970198,572298.200000003,7775,WL,A,1.0
4,1.0329999923706055,learn,58967.000007629395,Tue Mar 10 2026 14:53:49 GMT-0500 (Central Daylight Time),573330.8999999911,A,fi,O,i,94,1,1032.699999988079,572298.200000003,7775,WL,A,1.0
4,1.2330000400543213,learn,58766.99995994568,Tue Mar 10 2026 14:53:49 GMT-0500 (Central Daylight Time),573530.700000003,A,fin,O,n,185,1,1232.5,572298.200000003,7775,WL,A,1.0
4,1.6329998970031738,learn,58367.000102996826,Tue Mar 10 2026 14:53:49 GMT-0500 (Central Daylight Time),573930.799999997,A,fing,O,g,394,1,1632.5999999940395,572298.200000003,7775,WL,A,1.0
4,2.0329999923706055,learn,57967.000007629395,Tue Mar 10 2026 14:53:49 GMT-0500 (Central Daylight Time),574330.5,A,finge,O,e,395,1,2032.2999999970198,572298.200000003,7775,WL,A,1.0
4,2.1659998893737793,learn,57834.00011062622,Tue Mar 10 2026 14:53:49 GMT-0500 (Central Daylight Time),574464.0,A,finger,O,r,114,1,2165.7999999970198,572298.200000003,7775,WL,A,1.0
4,3.566999912261963,learn,56433.00008773804,Tue Mar 10 2026 14:53:49 GMT-0500 (Central Daylight Time),575864.599999994,A,fingerenter,O,enter,1382,1,3566.3999999910593,572298.200000003,7775,WL,A,1.0
4,4.749000072479248,learn,55250.99992752075,Tue Mar 10 2026 14:53:49 GMT-0500 (Central Daylight Time),577046.3999999911,A,l,O,l,1165,1,1181.3999999910593,575865.0,7775,WL,A,2.0
4,4.915999889373779,learn,55084.00011062622,Tue Mar 10 2026 14:53:49 GMT-0500 (Central Daylight Time),577213.200000003,A,lo,O,o,158,1,1348.2000000029802,575865.0,7775,WL,A,2.0
4,5.448999881744385,learn,54551.000118255615,Tue Mar 10 2026 14:53:49 GMT-0500 (Central Daylight Time),577746.3999999911,A,log,O,g,520,1,1881.3999999910593,575865.0,7775,WL,A,2.0
4,7.148000001907349,learn,52851.99999809265,Tue Mar 10 2026 14:53:49 GMT-0500 (Central Daylight Time),579445.599999994,A,logenter,O,enter,1691,1,3580.5999999940395,575865.0,7775,WL,A,2.0
4,7.8480000495910645,learn,52151.999950408936,Tue Mar 10 2026 14:53:49 GMT-0500 (Central Daylight Time),580145.700000003,A,c,O,c,679,1,699.8000000119209,579445.8999999911,7775,WL,A,3.0
4,8.247999906539917,learn,51752.00009346008,Tue Mar 10 2026 14:53:49 GMT-0500 (Central Daylight Time),580545.5,A,ch,O,h,386,1,1099.6000000089407,579445.8999999911,7775,WL,A,3.0
4,8.71399998664856,learn,51286.00001335144,Tue Mar 10 2026 14:53:49 GMT-0500 (Central Daylight Time),581011.799999997,A,chi,O,i,451,1,1565.9000000059605,579445.8999999911,7775,WL,A,3.0
4,8.980999946594238,learn,51019.00005340576,Tue Mar 10 2026 14:53:49 GMT-0500 (Central Daylight Time),581278.599999994,A,chin,O,n,257,1,1832.7000000029802,579445.8999999911,7775,WL,A,3.0
4,10.864000082015991,learn,49135.99991798401,Tue Mar 10 2026 14:53:49 GMT-0500 (Central Daylight Time),583161.799999997,A,chi,O,backspace,1878,1,3715.9000000059605,579445.8999999911,7775,WL,A,3.0
4,12.04699993133545,learn,47953.00006866455,Tue Mar 10 2026 14:53:49 GMT-0500 (Central Daylight Time),584344.299999997,A,chim,O,m,1164,1,4898.4000000059605,579445.8999999911,7775,WL,A,3.0
4,13.145999908447266,learn,46854.000091552734,Tue Mar 10 2026 14:53:49 GMT-0500 (Central Daylight Time),585443.799999997,A,chimn,O,n,1085,1,5997.9000000059605,579445.8999999911,7775,WL,A,3.0
4,13.312999963760376,learn,46687.000036239624,Tue Mar 10 2026 14:53:49 GMT-0500 (Central Daylight Time),585610.299999997,A,chimne,O,e,154,1,6164.4000000059605,579445.8999999911,7775,WL,A,3.0
4,13.895999908447266,learn,46104.000091552734,Tue Mar 10 2026 14:53:49 GMT-0500 (Central Daylight Time),586193.599999994,A,chimney,O,y,571,1,6747.70000000298,579445.8999999911,7775,WL,A,3.0
4,17.045000076293945,learn,42954.999923706055,Tue Mar 10 2026 14:53:49 GMT-0500 (Central Daylight Time),589342.599999994,A,chimneyr,O,r,3131,1,9896.70000000298,579445.8999999911,7775,WL,A,3.0
4,17.51099991798401,learn,42489.00008201599,Tue Mar 10 2026 14:53:49 GMT-0500 (Central Daylight Time),589809.099999994,A,chimneyra,O,a,455,1,10363.20000000298,579445.8999999911,7775,WL,A,3.0
4,17.977999925613403,learn,42022.0000743866,Tue Mar 10 2026 14:53:49 GMT-0500 (Central Daylight Time),590275.3999999911,A,chimneyrat,O,t,460,1,10829.5,579445.8999999911,7775,WL,A,3.0
4,18.144999980926514,learn,41855.000019073486,Tue Mar 10 2026 14:53:49 GMT-0500 (Central Daylight Time),590442.200000003,A,chimneyratt,O,t,154,1,10996.300000011921,579445.8999999911,7775,WL,A,3.0
4,18.876999855041504,learn,41123.000144958496,Tue Mar 10 2026 14:53:49 GMT-0500 (Central Daylight Time),591175.099999994,A,chimneyrattl,O,l,714,1,11729.20000000298,579445.8999999911,7775,WL,A,3.0
4,18.960999965667725,learn,41039.000034332275,Tue Mar 10 2026 14:53:49 GMT-0500 (Central Daylight Time),591258.3999999911,A,chimneyrattle,O,e,78,1,11812.5,579445.8999999911,7775,WL,A,3.0
4,19.67799997329712,learn,40322.00002670288,Tue Mar 10 2026 14:53:49 GMT-0500 (Central Daylight Time),591975.200000003,A,chimneyrattleenter,O,enter,707,1,12529.300000011921,579445.8999999911,7775,WL,A,3.0
4,20.776999950408936,learn,39223.000049591064,Tue Mar 10 2026 14:53:49 GMT-0500 (Central Daylight Time),593074.599999994,A,k,O,k,1079,1,1099.0999999940395,591975.5,7775,WL,A,4.0
4,21.126999855041504,learn,38873.000144958496,Tue Mar 10 2026 14:53:49 GMT-0500 (Central Daylight Time),593424.8999999911,A,ke,O,e,331,1,1449.3999999910593,591975.5,7775,WL,A,4.0
4,21.22699999809265,learn,38773.00000190735,Tue Mar 10 2026 14:53:49 GMT-0500 (Central Daylight Time),593524.700000003,A,key,O,y,93,1,1549.2000000029802,591975.5,7775,WL,A,4.0
4,22.0939998626709,learn,37906.0001373291,Tue Mar 10 2026 14:53:49 GMT-0500 (Central Daylight Time),594391.5,A,keyg,O,g,848,1,2416.0,591975.5,7775,WL,A,4.0
4,22.16000008583069,learn,37839.99991416931,Tue Mar 10 2026 14:53:49 GMT-0500 (Central Daylight Time),594457.8999999911,A,keygo,O,o,62,1,2482.3999999910593,591975.5,7775,WL,A,4.0
4,22.359999895095825,learn,37640.000104904175,Tue Mar 10 2026 14:53:49 GMT-0500 (Central Daylight Time),594657.599999994,A,keygol,O,l,187,1,2682.0999999940395,591975.5,7775,WL,A,4.0
4,23.10800004005432,learn,36891.99995994568,Tue Mar 10 2026 14:53:49 GMT-0500 (Central Daylight Time),595407.299999997,A,keygo,O,backspace,732,1,3431.7999999970198,591975.5,7775,WL,A,4.0
4,23.325000047683716,learn,36674.999952316284,Tue Mar 10 2026 14:53:49 GMT-0500 (Central Daylight Time),595624.0,A,keyg,O,backspace,205,1,3648.5,591975.5,7775,WL,A,4.0
4,23.774999856948853,learn,36225.00014305115,Tue Mar 10 2026 14:53:49 GMT-0500 (Central Daylight Time),596073.8999999911,A,key,O,backspace,437,1,4098.399999991059,591975.5,7775,WL,A,4.0
4,24.524999856948853,learn,35475.00014305115,Tue Mar 10 2026 14:53:49 GMT-0500 (Central Daylight Time),596823.700000003,A,keyenter,O,enter,731,1,4848.20000000298,591975.5,7775,WL,A,4.0
4,25.141000032424927,learn,34858.99996757507,Tue Mar 10 2026 14:53:49 GMT-0500 (Central Daylight Time),597440.099999994,A,g,O,g,606,1,616.0999999940395,596824.0,7775,WL,A,5.0
4,25.240999937057495,learn,34759.000062942505,Tue Mar 10 2026 14:53:49 GMT-0500 (Central Daylight Time),597540.099999994,A,go,O,o,86,1,716.0999999940395,596824.0,7775,WL,A,5.0
4,25.45799994468689,learn,34542.00005531311,Tue Mar 10 2026 14:53:49 GMT-0500 (Central Daylight Time),597756.799999997,A,gol,O,l,202,1,932.7999999970198,596824.0,7775,WL,A,5.0
4,25.874000072479248,learn,34125.99992752075,Tue Mar 10 2026 14:53:49 GMT-0500 (Central Daylight Time),598173.299999997,A,gold,O,d,407,1,1349.2999999970198,596824.0,7775,WL,A,5.0
4,26.823999881744385,learn,33176.000118255615,Tue Mar 10 2026 14:53:49 GMT-0500 (Central Daylight Time),599122.700000003,A,goldenter,O,enter,928,1,2298.7000000029802,596824.0,7775,WL,A,5.0
4,29.655999898910522,learn,30344.000101089478,Tue Mar 10 2026 14:53:49 GMT-0500 (Central Daylight Time),601955.200000003,A,b,O,b,2827,1,2832.2000000029802,599123.0,7775,WL,A,6.0
4,30.27300000190735,learn,29726.99999809265,Tue Mar 10 2026 14:53:49 GMT-0500 (Central Daylight Time),602571.8999999911,A,bo,O,o,602,1,3448.8999999910593,599123.0,7775,WL,A,6.0
4,30.4229998588562,learn,29577.0001411438,Tue Mar 10 2026 14:53:49 GMT-0500 (Central Daylight Time),602721.8999999911,A,boo,O,o,129,1,3598.8999999910593,599123.0,7775,WL,A,6.0
4,30.822999954223633,learn,29177.000045776367,Tue Mar 10 2026 14:53:49 GMT-0500 (Central Daylight Time),603121.3999999911,A,book,O,k,388,1,3998.3999999910593,599123.0,7775,WL,A,6.0
4,33.42199993133545,learn,26578.00006866455,Tue Mar 10 2026 14:53:49 GMT-0500 (Central Daylight Time),605720.700000003,A,bookenter,O,enter,2580,1,6597.70000000298,599123.0,7775,WL,A,6.0
4,35.40499997138977,learn,24595.00002861023,Tue Mar 10 2026 14:53:49 GMT-0500 (Central Daylight Time),607703.700000003,A,t,O,t,1972,1,1982.7000000029802,605721.0,7775,WL,A,7.0
4,35.58800005912781,learn,24411.999940872192,Tue Mar 10 2026 14:53:49 GMT-0500 (Central Daylight Time),607886.799999997,A,tr,O,r,174,1,2165.7999999970198,605721.0,7775,WL,A,7.0
4,36.287999868392944,learn,23712.000131607056,Tue Mar 10 2026 14:53:49 GMT-0500 (Central Daylight Time),608587.0,A,tra,O,a,679,1,2866.0,605721.0,7775,WL,A,7.0
4,36.37100005149841,learn,23628.999948501587,Tue Mar 10 2026 14:53:49 GMT-0500 (Central Daylight Time),608670.099999994,A,trai,O,i,74,1,2949.0999999940395,605721.0,7775,WL,A,7.0
4,36.687999963760376,learn,23312.000036239624,Tue Mar 10 2026 14:53:49 GMT-0500 (Central Daylight Time),608986.599999994,A,train,O,n,304,1,3265.5999999940395,605721.0,7775,WL,A,7.0
4,37.854000091552734,learn,22145.999908447266,Tue Mar 10 2026 14:53:49 GMT-0500 (Central Daylight Time),610152.799999997,A,trainenter,O,enter,1146,1,4431.79999999702,605721.0,7775,WL,A,7.0
4,38.90299987792969,learn,21097.000122070312,Tue Mar 10 2026 14:53:49 GMT-0500 (Central Daylight Time),611202.099999994,A,m,O,m,1044,1,1049.0999999940395,610153.0,7775,WL,A,8.0
4,39.08699989318848,learn,20913.000106811523,Tue Mar 10 2026 14:53:49 GMT-0500 (Central Daylight Time),611385.599999994,A,me,O,e,162,1,1232.5999999940395,610153.0,7775,WL,A,8.0
4,39.354000091552734,learn,20645.999908447266,Tue Mar 10 2026 14:53:49 GMT-0500 (Central Daylight Time),611652.599999994,A,mea,O,a,252,1,1499.5999999940395,610153.0,7775,WL,A,8.0
4,39.670000076293945,learn,20329.999923706055,Tue Mar 10 2026 14:53:49 GMT-0500 (Central Daylight Time),611968.799999997,A,mead,O,d,304,1,1815.7999999970198,610153.0,7775,WL,A,8.0
4,40.65299987792969,learn,19347.000122070312,Tue Mar 10 2026 14:53:49 GMT-0500 (Central Daylight Time),612952.0,A,meado,O,o,965,1,2799.0,610153.0,7775,WL,A,8.0
4,40.736000061035156,learn,19263.999938964844,Tue Mar 10 2026 14:53:49 GMT-0500 (Central Daylight Time),613035.299999997,A,meadow,O,w,69,1,2882.2999999970198,610153.0,7775,WL,A,8.0
4,41.93599987030029,learn,18064.000129699707,Tue Mar 10 2026 14:53:49 GMT-0500 (Central Daylight Time),614235.0,A,meadowenter,O,enter,1179,1,4082.0,610153.0,7775,WL,A,8.0
4,46.45099997520447,learn,13549.000024795532,Tue Mar 10 2026 14:53:49 GMT-0500 (Central Daylight Time),618750.0,A,k,O,k,4507,1,4514.5,614235.5,7775,WL,A,9.0
4,46.550999879837036,learn,13449.000120162964,Tue Mar 10 2026 14:53:49 GMT-0500 (Central Daylight Time),618850.0,A,ke,O,e,95,1,4614.5,614235.5,7775,WL,A,9.0
4,46.75099992752075,learn,13249.000072479248,Tue Mar 10 2026 14:53:49 GMT-0500 (Central Daylight Time),619050.0,A,key,O,y,180,1,4814.5,614235.5,7775,WL,A,9.0
4,47.64999985694885,learn,12350.000143051147,Tue Mar 10 2026 14:53:49 GMT-0500 (Central Daylight Time),619949.3999999911,A,keyenter,O,enter,890,1,5713.899999991059,614235.5,7775,WL,A,9.0
4,48.68400001525879,learn,11315.999984741211,Tue Mar 10 2026 14:53:49 GMT-0500 (Central Daylight Time),620982.8999999911,A,g,O,g,1024,1,1033.199999988079,619949.700000003,7775,WL,A,10.0
4,48.76699995994568,learn,11233.000040054321,Tue Mar 10 2026 14:53:49 GMT-0500 (Central Daylight Time),621066.0,A,go,O,o,71,1,1116.2999999970198,619949.700000003,7775,WL,A,10.0
4,48.93400001525879,learn,11065.999984741211,Tue Mar 10 2026 14:53:49 GMT-0500 (Central Daylight Time),621232.700000003,A,gol,O,l,155,1,1283.0,619949.700000003,7775,WL,A,10.0
4,49.48300004005432,learn,10516.999959945679,Tue Mar 10 2026 14:53:49 GMT-0500 (Central Daylight Time),621782.3999999911,A,gold,O,d,533,1,1832.699999988079,619949.700000003,7775,WL,A,10.0
4,49.884000062942505,learn,10115.999937057495,Tue Mar 10 2026 14:53:49 GMT-0500 (Central Daylight Time),622182.599999994,A,goldenter,O,enter,391,1,2232.8999999910593,619949.700000003,7775,WL,A,10.0
4,52.73300004005432,learn,7266.999959945679,Tue Mar 10 2026 14:53:49 GMT-0500 (Central Daylight Time),625031.5,A,f,O,f,2831,1,2848.5,622183.0,7775,WL,A,11.0
4,52.84999990463257,learn,7150.000095367432,Tue Mar 10 2026 14:53:49 GMT-0500 (Central Daylight Time),625148.799999997,A,fl,O,l,110,1,2965.7999999970198,622183.0,7775,WL,A,11.0
4,53.04900002479553,learn,6950.999975204468,Tue Mar 10 2026 14:53:49 GMT-0500 (Central Daylight Time),625347.8999999911,A,flo,O,o,193,1,3164.8999999910593,622183.0,7775,WL,A,11.0
4,53.74900007247925,learn,6250.999927520752,Tue Mar 10 2026 14:53:49 GMT-0500 (Central Daylight Time),626047.8999999911,A,flow,O,w,681,1,3864.8999999910593,622183.0,7775,WL,A,11.0
4,54.03200006484985,learn,5967.9999351501465,Tue Mar 10 2026 14:53:49 GMT-0500 (Central Daylight Time),626331.099999994,A,flowe,O,e,269,1,4148.0999999940395,622183.0,7775,WL,A,11.0
4,54.21600008010864,learn,5783.999919891357,Tue Mar 10 2026 14:53:49 GMT-0500 (Central Daylight Time),626514.5,A,flower,O,r,179,1,4331.5,622183.0,7775,WL,A,11.0
4,55.24799990653992,learn,4752.000093460083,Tue Mar 10 2026 14:53:49 GMT-0500 (Central Daylight Time),627547.299999997,A,flowerenter,O,enter,1027,1,5364.29999999702,622183.0,7775,WL,A,11.0
4,60.013999938964844,learn,-13.99993896484375,Tue Mar 10 2026 14:53:49 GMT-0500 (Central Daylight Time),632312.599999994,A,None,O,None,4760,1,4765.0,627547.599999994,7775,WL,A,12.0
5,0.8499999046325684,learn,60000.0,Tue Mar 10 2026 14:53:49 GMT-0500 (Central Daylight Time),707689.099999994,A,b,O,b,839,1,849.7000000029802,706839.3999999911,7775,WL,A,1.0
5,1.6499998569488525,learn,60000.0,Tue Mar 10 2026 14:53:49 GMT-0500 (Central Daylight Time),708488.799999997,A,bo,O,o,787,1,1649.4000000059605,706839.3999999911,7775,WL,A,1.0
5,1.7990000247955322,learn,60000.0,Tue Mar 10 2026 14:53:49 GMT-0500 (Central Daylight Time),708638.700000003,A,boo,O,o,132,1,1799.300000011921,706839.3999999911,7775,WL,A,1.0
5,3.0160000324249268,learn,60000.0,Tue Mar 10 2026 14:53:49 GMT-0500 (Central Daylight Time),709855.200000003,A,book,O,k,1207,1,3015.800000011921,706839.3999999911,7775,WL,A,1.0
5,3.9149999618530273,learn,60000.0,Tue Mar 10 2026 14:53:49 GMT-0500 (Central Daylight Time),710754.5,A,bookenter,O,enter,894,1,3915.1000000089407,706839.3999999911,7775,WL,A,1.0
5,4.881999969482422,learn,60000.0,Tue Mar 10 2026 14:53:49 GMT-0500 (Central Daylight Time),711720.8999999911,A,r,O,r,955,1,966.0999999940395,710754.799999997,7775,WL,A,2.0
5,4.997999906539917,learn,60000.0,Tue Mar 10 2026 14:53:49 GMT-0500 (Central Daylight Time),711837.599999994,A,ru,O,u,109,1,1082.7999999970198,710754.799999997,7775,WL,A,2.0
5,5.431999921798706,learn,60000.0,Tue Mar 10 2026 14:53:49 GMT-0500 (Central Daylight Time),712270.8999999911,A,rug,O,g,424,1,1516.0999999940395,710754.799999997,7775,WL,A,2.0
5,8.098000049591064,learn,60000.0,Tue Mar 10 2026 14:53:49 GMT-0500 (Central Daylight Time),714936.700000003,A,rugenter,O,enter,2647,1,4181.9000000059605,710754.799999997,7775,WL,A,2.0
5,9.478999853134155,learn,60000.0,Tue Mar 10 2026 14:53:49 GMT-0500 (Central Daylight Time),716319.599999994,A,f,O,f,1365,1,1382.5,714937.099999994,7775,WL,A,3.0
5,9.628999948501587,learn,60000.0,Tue Mar 10 2026 14:53:49 GMT-0500 (Central Daylight Time),716469.5,A,fl,O,l,134,1,1532.4000000059605,714937.099999994,7775,WL,A,3.0
5,9.812999963760376,learn,60000.0,Tue Mar 10 2026 14:53:49 GMT-0500 (Central Daylight Time),716652.8999999911,A,flo,O,o,176,1,1715.7999999970198,714937.099999994,7775,WL,A,3.0
5,10.246000051498413,learn,60000.0,Tue Mar 10 2026 14:53:49 GMT-0500 (Central Daylight Time),717086.0,A,flow,O,w,417,1,2148.9000000059605,714937.099999994,7775,WL,A,3.0
5,10.529000043869019,learn,60000.0,Tue Mar 10 2026 14:53:49 GMT-0500 (Central Daylight Time),717369.3999999911,A,flowe,O,e,272,1,2432.2999999970198,714937.099999994,7775,WL,A,3.0
5,10.794999837875366,learn,60000.0,Tue Mar 10 2026 14:53:49 GMT-0500 (Central Daylight Time),717635.8999999911,A,flower,O,r,252,1,2698.7999999970198,714937.099999994,7775,WL,A,3.0
5,13.010999917984009,learn,60000.0,Tue Mar 10 2026 14:53:49 GMT-0500 (Central Daylight Time),719851.8999999911,A,flowerenter,O,enter,2209,1,4914.79999999702,714937.099999994,7775,WL,A,3.0
5,14.91100001335144,learn,60000.0,Tue Mar 10 2026 14:53:49 GMT-0500 (Central Daylight Time),721751.200000003,A,t,O,t,1890,1,1898.9000000059605,719852.299999997,7775,WL,A,4.0
5,15.110999822616577,learn,60000.0,Tue Mar 10 2026 14:53:49 GMT-0500 (Central Daylight Time),721951.099999994,A,tr,O,r,190,1,2098.7999999970198,719852.299999997,7775,WL,A,4.0
5,15.726999998092651,learn,60000.0,Tue Mar 10 2026 14:53:49 GMT-0500 (Central Daylight Time),722567.5,A,tra,O,a,598,1,2715.2000000029802,719852.299999997,7775,WL,A,4.0
5,15.82699990272522,learn,60000.0,Tue Mar 10 2026 14:53:49 GMT-0500 (Central Daylight Time),722667.200000003,A,trai,O,i,94,1,2814.9000000059605,719852.299999997,7775,WL,A,4.0
5,16.109999895095825,learn,60000.0,Tue Mar 10 2026 14:53:49 GMT-0500 (Central Daylight Time),722950.799999997,A,train,O,n,267,1,3098.5,719852.299999997,7775,WL,A,4.0
5,18.759999990463257,learn,60000.0,Tue Mar 10 2026 14:53:49 GMT-0500 (Central Daylight Time),725600.299999997,A,trainenter,O,enter,2631,1,5748.0,719852.299999997,7775,WL,A,4.0
5,20.825999975204468,learn,60000.0,Tue Mar 10 2026 14:53:49 GMT-0500 (Central Daylight Time),727665.8999999911,A,s,O,s,2062,1,2065.2999999970198,725600.599999994,7775,WL,A,5.0
5,21.875,learn,60000.0,Tue Mar 10 2026 14:53:49 GMT-0500 (Central Daylight Time),728715.700000003,A,sa,O,a,1036,1,3115.1000000089407,725600.599999994,7775,WL,A,5.0
5,22.024999856948853,learn,60000.0,Tue Mar 10 2026 14:53:49 GMT-0500 (Central Daylight Time),728865.599999994,A,sal,O,l,137,1,3265.0,725600.599999994,7775,WL,A,5.0
5,22.657999992370605,learn,60000.0,Tue Mar 10 2026 14:53:49 GMT-0500 (Central Daylight Time),729498.799999997,A,salt,O,t,620,1,3898.2000000029802,725600.599999994,7775,WL,A,5.0
5,23.72499990463257,learn,60000.0,Tue Mar 10 2026 14:53:49 GMT-0500 (Central Daylight Time),730565.200000003,A,saltenter,O,enter,1050,1,4964.600000008941,725600.599999994,7775,WL,A,5.0
5,24.823999881744385,learn,60000.0,Tue Mar 10 2026 14:53:49 GMT-0500 (Central Daylight Time),731664.700000003,A,f,O,f,1087,1,1099.1000000089407,730565.599999994,7775,WL,A,6.0
5,24.95799994468689,learn,60000.0,Tue Mar 10 2026 14:53:49 GMT-0500 (Central Daylight Time),731798.200000003,A,fi,O,i,117,1,1232.6000000089407,730565.599999994,7775,WL,A,6.0
5,25.20799994468689,learn,60000.0,Tue Mar 10 2026 14:53:49 GMT-0500 (Central Daylight Time),732048.200000003,A,fin,O,n,232,1,1482.6000000089407,730565.599999994,7775,WL,A,6.0
5,25.557999849319458,learn,60000.0,Tue Mar 10 2026 14:53:49 GMT-0500 (Central Daylight Time),732398.099999994,A,fing,O,g,341,1,1832.5,730565.599999994,7775,WL,A,6.0
5,25.70899987220764,learn,60000.0,Tue Mar 10 2026 14:53:49 GMT-0500 (Central Daylight Time),732548.8999999911,A,finge,O,e,136,1,1983.2999999970198,730565.599999994,7775,WL,A,6.0
5,25.840999841690063,learn,60000.0,Tue Mar 10 2026 14:53:49 GMT-0500 (Central Daylight Time),732681.3999999911,A,finger,O,r,113,1,2115.7999999970198,730565.599999994,7775,WL,A,6.0
5,26.69099998474121,learn,60000.0,Tue Mar 10 2026 14:53:49 GMT-0500 (Central Daylight Time),733531.799999997,A,fingerenter,O,enter,844,1,2966.2000000029802,730565.599999994,7775,WL,A,6.0
5,27.194000005722046,learn,60000.0,Tue Mar 10 2026 14:53:49 GMT-0500 (Central Daylight Time),734034.0,A,a,O,a,481,1,501.90000000596046,733532.099999994,7775,WL,A,7.0
5,27.490000009536743,learn,60000.0,Tue Mar 10 2026 14:53:49 GMT-0500 (Central Daylight Time),734330.599999994,A,ap,O,p,284,1,798.5,733532.099999994,7775,WL,A,7.0
5,27.622999906539917,learn,60000.0,Tue Mar 10 2026 14:53:49 GMT-0500 (Central Daylight Time),734463.799999997,A,app,O,p,123,1,931.7000000029802,733532.099999994,7775,WL,A,7.0
5,27.973000049591064,learn,60000.0,Tue Mar 10 2026 14:53:49 GMT-0500 (Central Daylight Time),734813.799999997,A,appl,O,l,342,1,1281.7000000029802,733532.099999994,7775,WL,A,7.0
5,28.10699987411499,learn,60000.0,Tue Mar 10 2026 14:53:49 GMT-0500 (Central Daylight Time),734947.099999994,A,apple,O,e,127,1,1415.0,733532.099999994,7775,WL,A,7.0
5,29.1729998588562,learn,60000.0,Tue Mar 10 2026 14:53:49 GMT-0500 (Central Daylight Time),736013.599999994,A,appleenter,O,enter,1058,1,2481.5,733532.099999994,7775,WL,A,7.0
5,30.155999898910522,learn,60000.0,Tue Mar 10 2026 14:53:49 GMT-0500 (Central Daylight Time),736996.299999997,A,b,O,b,976,1,982.5,736013.799999997,7775,WL,A,8.0
5,30.372999906539917,learn,60000.0,Tue Mar 10 2026 14:53:49 GMT-0500 (Central Daylight Time),737213.200000003,A,bi,O,i,201,1,1199.4000000059605,736013.799999997,7775,WL,A,8.0
5,31.83899998664856,learn,60000.0,Tue Mar 10 2026 14:53:49 GMT-0500 (Central Daylight Time),738679.299999997,A,b,O,backspace,1448,1,2665.5,736013.799999997,7775,WL,A,8.0
5,32.57200002670288,learn,60000.0,Tue Mar 10 2026 14:53:49 GMT-0500 (Central Daylight Time),739412.099999994,A,bu,O,u,726,1,3398.2999999970198,736013.799999997,7775,WL,A,8.0
5,33.00499987602234,learn,60000.0,Tue Mar 10 2026 14:53:49 GMT-0500 (Central Daylight Time),739845.200000003,A,but,O,t,416,1,3831.4000000059605,736013.799999997,7775,WL,A,8.0
5,33.15499997138977,learn,60000.0,Tue Mar 10 2026 14:53:49 GMT-0500 (Central Daylight Time),739995.0,A,butt,O,t,135,1,3981.2000000029802,736013.799999997,7775,WL,A,8.0
5,33.355000019073486,learn,60000.0,Tue Mar 10 2026 14:53:49 GMT-0500 (Central Daylight Time),740195.299999997,A,butto,O,o,195,1,4181.5,736013.799999997,7775,WL,A,8.0
5,34.58799982070923,learn,60000.0,Tue Mar 10 2026 14:53:49 GMT-0500 (Central Daylight Time),741428.5,A,button,O,n,1219,1,5414.70000000298,736013.799999997,7775,WL,A,8.0
5,35.537999868392944,learn,60000.0,Tue Mar 10 2026 14:53:49 GMT-0500 (Central Daylight Time),742378.0,A,buttonenter,O,enter,929,1,6364.20000000298,736013.799999997,7775,WL,A,8.0
5,36.2039999961853,learn,60000.0,Tue Mar 10 2026 14:53:49 GMT-0500 (Central Daylight Time),743044.3999999911,A,c,O,c,652,1,666.0999999940395,742378.299999997,7775,WL,A,9.0
5,36.33699989318848,learn,60000.0,Tue Mar 10 2026 14:53:49 GMT-0500 (Central Daylight Time),743177.700000003,A,ch,O,h,128,1,799.4000000059605,742378.299999997,7775,WL,A,9.0
5,37.98699998855591,learn,60000.0,Tue Mar 10 2026 14:53:49 GMT-0500 (Central Daylight Time),744827.299999997,A,chi,O,i,1644,1,2449.0,742378.299999997,7775,WL,A,9.0
5,38.3199999332428,learn,60000.0,Tue Mar 10 2026 14:53:49 GMT-0500 (Central Daylight Time),745160.5,A,chim,O,m,314,1,2782.2000000029802,742378.299999997,7775,WL,A,9.0
5,38.753000020980835,learn,60000.0,Tue Mar 10 2026 14:53:49 GMT-0500 (Central Daylight Time),745593.700000003,A,chimn,O,n,421,1,3215.4000000059605,742378.299999997,7775,WL,A,9.0
5,39.38599991798401,learn,60000.0,Tue Mar 10 2026 14:53:49 GMT-0500 (Central Daylight Time),746226.799999997,A,chimne,O,e,620,1,3848.5,742378.299999997,7775,WL,A,9.0
5,40.05299997329712,learn,60000.0,Tue Mar 10 2026 14:53:49 GMT-0500 (Central Daylight Time),746893.299999997,A,chimney,O,y,651,1,4515.0,742378.299999997,7775,WL,A,9.0
5,42.18599987030029,learn,60000.0,Tue Mar 10 2026 14:53:49 GMT-0500 (Central Daylight Time),749026.0,A,chimneyg,O,g,2112,1,6647.70000000298,742378.299999997,7775,WL,A,9.0
5,42.28600001335144,learn,60000.0,Tue Mar 10 2026 14:53:49 GMT-0500 (Central Daylight Time),749126.099999994,A,chimneygo,O,o,84,1,6747.79999999702,742378.299999997,7775,WL,A,9.0
5,42.48599982261658,learn,60000.0,Tue Mar 10 2026 14:53:49 GMT-0500 (Central Daylight Time),749325.8999999911,A,chimneygol,O,l,184,1,6947.5999999940395,742378.299999997,7775,WL,A,9.0
5,43.30200004577637,learn,60000.0,Tue Mar 10 2026 14:53:49 GMT-0500 (Central Daylight Time),750142.5,A,chimneygold,O,d,800,1,7764.20000000298,742378.299999997,7775,WL,A,9.0
5,43.80200004577637,learn,60000.0,Tue Mar 10 2026 14:53:49 GMT-0500 (Central Daylight Time),750642.099999994,A,chimneygoldenter,O,enter,479,1,8263.79999999702,742378.299999997,7775,WL,A,9.0
5,45.60099983215332,learn,60000.0,Tue Mar 10 2026 14:53:49 GMT-0500 (Central Daylight Time),752441.3999999911,A,k,O,k,1786,1,1798.7999999970198,750642.599999994,7775,WL,A,10.0
5,45.800999879837036,learn,60000.0,Tue Mar 10 2026 14:53:49 GMT-0500 (Central Daylight Time),752641.599999994,A,ke,O,e,188,1,1999.0,750642.599999994,7775,WL,A,10.0
5,45.98399996757507,learn,60000.0,Tue Mar 10 2026 14:53:49 GMT-0500 (Central Daylight Time),752824.8999999911,A,key,O,y,172,1,2182.2999999970198,750642.599999994,7775,WL,A,10.0
5,47.133999824523926,learn,60000.0,Tue Mar 10 2026 14:53:49 GMT-0500 (Central Daylight Time),753974.299999997,A,keyenter,O,enter,1141,1,3331.7000000029802,750642.599999994,7775,WL,A,10.0
5,54.86500000953674,learn,60000.0,Tue Mar 10 2026 14:53:49 GMT-0500 (Central Daylight Time),761705.5,A,r,O,r,7719,1,7730.79999999702,753974.700000003,7775,WL,A,11.0
5,55.38199996948242,learn,60000.0,Tue Mar 10 2026 14:53:49 GMT-0500 (Central Daylight Time),762222.0,A,ra,O,a,500,1,8247.29999999702,753974.700000003,7775,WL,A,11.0
5,55.89800000190735,learn,60000.0,Tue Mar 10 2026 14:53:49 GMT-0500 (Central Daylight Time),762738.5,A,rat,O,t,504,1,8763.79999999702,753974.700000003,7775,WL,A,11.0
5,56.0479998588562,learn,60000.0,Tue Mar 10 2026 14:53:49 GMT-0500 (Central Daylight Time),762888.3999999911,A,ratt,O,t,130,1,8913.699999988079,753974.700000003,7775,WL,A,11.0
5,56.598000049591064,learn,60000.0,Tue Mar 10 2026 14:53:49 GMT-0500 (Central Daylight Time),763438.200000003,A,rattl,O,l,541,1,9463.5,753974.700000003,7775,WL,A,11.0
5,56.71499991416931,learn,60000.0,Tue Mar 10 2026 14:53:49 GMT-0500 (Central Daylight Time),763555.099999994,A,rattle,O,e,103,1,9580.39999999106,753974.700000003,7775,WL,A,11.0
5,57.83099985122681,learn,60000.0,Tue Mar 10 2026 14:53:49 GMT-0500 (Central Daylight Time),764671.299999997,A,rattleenter,O,enter,1106,1,10696.59999999404,753974.700000003,7775,WL,A,11.0
5,66.29499983787537,learn,60000.0,Tue Mar 10 2026 14:53:49 GMT-0500 (Central Daylight Time),773135.099999994,A,s,O,s,8454,1,8463.5,764671.599999994,7775,WL,A,12.0
6,0.6660001277923584,distr,59333.99987220764,Tue Mar 10 2026 14:53:49 GMT-0500 (Central Daylight Time),857908.5,B,m,O,m,659,1,666.1000000089407,857242.3999999911,7775,WL,A,1.0
6,1.2160000801086426,distr,58783.99991989136,Tue Mar 10 2026 14:53:49 GMT-0500 (Central Daylight Time),858458.299999997,B,me,O,e,530,1,1215.9000000059605,857242.3999999911,7775,WL,A,1.0
6,1.315999984741211,distr,58684.00001525879,Tue Mar 10 2026 14:53:49 GMT-0500 (Central Daylight Time),858558.5,B,mea,O,a,91,1,1316.1000000089407,857242.3999999911,7775,WL,A,1.0
6,1.9820001125335693,distr,58017.99988746643,Tue Mar 10 2026 14:53:49 GMT-0500 (Central Daylight Time),859224.8999999911,B,meal,O,l,647,1,1982.5,857242.3999999911,7775,WL,A,1.0
6,4.0320000648498535,distr,55967.99993515015,Tue Mar 10 2026 14:53:49 GMT-0500 (Central Daylight Time),861274.3999999911,B,mealenter,O,enter,2029,1,4032.0,857242.3999999911,7775,WL,A,1.0
6,4.449000120162964,distr,55550.999879837036,Tue Mar 10 2026 14:53:49 GMT-0500 (Central Daylight Time),861691.099999994,B,c,O,c,403,1,416.29999999701977,861274.799999997,7775,WL,A,2.0
6,4.883000135421753,distr,55116.99986457825,Tue Mar 10 2026 14:53:49 GMT-0500 (Central Daylight Time),862125.099999994,B,co,O,o,425,1,850.2999999970198,861274.799999997,7775,WL,A,2.0
6,5.315000057220459,distr,54684.99994277954,Tue Mar 10 2026 14:53:49 GMT-0500 (Central Daylight Time),862557.299999997,B,coa,O,a,417,1,1282.5,861274.799999997,7775,WL,A,2.0
6,5.898000001907349,distr,54101.99999809265,Tue Mar 10 2026 14:53:49 GMT-0500 (Central Daylight Time),863140.0,B,coat,O,t,567,1,1865.2000000029802,861274.799999997,7775,WL,A,2.0
6,6.331000089645386,distr,53668.999910354614,Tue Mar 10 2026 14:53:49 GMT-0500 (Central Daylight Time),863573.3999999911,B,coatenter,O,enter,417,1,2298.5999999940395,861274.799999997,7775,WL,A,2.0
6,7.014000177383423,distr,52985.99982261658,Tue Mar 10 2026 14:53:49 GMT-0500 (Central Daylight Time),864256.700000003,B,b,O,b,664,1,683.1000000089407,863573.599999994,7775,WL,A,3.0
6,7.21399998664856,distr,52786.00001335144,Tue Mar 10 2026 14:53:49 GMT-0500 (Central Daylight Time),864456.599999994,B,bo,O,o,181,1,883.0,863573.599999994,7775,WL,A,3.0
6,8.46399998664856,distr,51536.00001335144,Tue Mar 10 2026 14:53:49 GMT-0500 (Central Daylight Time),865706.099999994,B,bot,O,t,1229,1,2132.5,863573.599999994,7775,WL,A,3.0
6,8.597000122070312,distr,51402.99987792969,Tue Mar 10 2026 14:53:49 GMT-0500 (Central Daylight Time),865839.299999997,B,bott,O,t,116,1,2265.7000000029802,863573.599999994,7775,WL,A,3.0
6,8.814000129699707,distr,51185.99987030029,Tue Mar 10 2026 14:53:49 GMT-0500 (Central Daylight Time),866056.0,B,bottl,O,l,206,1,2482.4000000059605,863573.599999994,7775,WL,A,3.0
6,9.047000169754028,distr,50952.99983024597,Tue Mar 10 2026 14:53:49 GMT-0500 (Central Daylight Time),866289.3999999911,B,bottle,O,e,213,1,2715.7999999970198,863573.599999994,7775,WL,A,3.0
6,9.897000074386597,distr,50102.9999256134,Tue Mar 10 2026 14:53:49 GMT-0500 (Central Daylight Time),867139.099999994,B,bottleenter,O,enter,835,1,3565.5,863573.599999994,7775,WL,A,3.0
6,11.080000162124634,distr,48919.999837875366,Tue Mar 10 2026 14:53:49 GMT-0500 (Central Daylight Time),868322.200000003,B,c,O,c,1171,1,1182.800000011921,867139.3999999911,7775,WL,A,4.0
6,11.246000051498413,distr,48753.99994850159,Tue Mar 10 2026 14:53:49 GMT-0500 (Central Daylight Time),868488.799999997,B,ch,O,h,154,1,1349.4000000059605,867139.3999999911,7775,WL,A,4.0
6,12.02999997138977,distr,47970.00002861023,Tue Mar 10 2026 14:53:49 GMT-0500 (Central Daylight Time),869272.0,B,cha,O,a,773,1,2132.6000000089407,867139.3999999911,7775,WL,A,4.0
6,12.163000106811523,distr,47836.99989318848,Tue Mar 10 2026 14:53:49 GMT-0500 (Central Daylight Time),869405.299999997,B,chai,O,i,118,1,2265.9000000059605,867139.3999999911,7775,WL,A,4.0
6,12.42900013923645,distr,47570.99986076355,Tue Mar 10 2026 14:53:49 GMT-0500 (Central Daylight Time),869671.599999994,B,chair,O,r,248,1,2532.2000000029802,867139.3999999911,7775,WL,A,4.0
6,14.111999988555908,distr,45888.00001144409,Tue Mar 10 2026 14:53:49 GMT-0500 (Central Daylight Time),871354.3999999911,B,chairenter,O,enter,1662,1,4215.0,867139.3999999911,7775,WL,A,4.0
6,18.427000045776367,distr,41572.99995422363,Tue Mar 10 2026 14:53:49 GMT-0500 (Central Daylight Time),875669.700000003,B,c,O,c,4299,1,4315.100000008941,871354.599999994,7775,WL,A,5.0
6,18.57800006866455,distr,41421.99993133545,Tue Mar 10 2026 14:53:49 GMT-0500 (Central Daylight Time),875820.0,B,co,O,o,136,1,4465.4000000059605,871354.599999994,7775,WL,A,5.0
6,18.778000116348267,distr,41221.99988365173,Tue Mar 10 2026 14:53:49 GMT-0500 (Central Daylight Time),876020.0,B,cou,O,u,187,1,4665.4000000059605,871354.599999994,7775,WL,A,5.0
6,18.97699999809265,distr,41023.00000190735,Tue Mar 10 2026 14:53:49 GMT-0500 (Central Daylight Time),876219.299999997,B,coun,O,n,194,1,4864.70000000298,871354.599999994,7775,WL,A,5.0
6,19.47699999809265,distr,40523.00000190735,Tue Mar 10 2026 14:53:49 GMT-0500 (Central Daylight Time),876719.200000003,B,count,O,t,482,1,5364.600000008941,871354.599999994,7775,WL,A,5.0
6,19.594000101089478,distr,40405.99989891052,Tue Mar 10 2026 14:53:49 GMT-0500 (Central Daylight Time),876836.099999994,B,county,O,y,102,1,5481.5,871354.599999994,7775,WL,A,5.0
6,21.128000020980835,distr,38871.999979019165,Tue Mar 10 2026 14:53:49 GMT-0500 (Central Daylight Time),878370.299999997,B,countyenter,O,enter,1513,1,7015.70000000298,871354.599999994,7775,WL,A,5.0
6,60.01400017738342,distr,-14.000177383422852,Tue Mar 10 2026 14:53:49 GMT-0500 (Central Daylight Time),917257.099999994,B,None,O,None,38882,1,38886.5,878370.599999994,7775,WL,A,6.0
7,1.4160001277923584,immed,58583.99987220764,Tue Mar 10 2026 14:53:49 GMT-0500 (Central Daylight Time),938300.099999994,A,t,O,t,1410,1,1416.2999999970198,936883.799999997,7775,WL,A,1.0
7,1.6159999370574951,immed,58384.000062942505,Tue Mar 10 2026 14:53:49 GMT-0500 (Central Daylight Time),938500.200000003,A,tr,O,r,193,1,1616.4000000059605,936883.799999997,7775,WL,A,1.0
7,2.2160000801086426,immed,57783.99991989136,Tue Mar 10 2026 14:53:49 GMT-0500 (Central Daylight Time),939099.8999999911,A,tra,O,a,586,1,2216.0999999940395,936883.799999997,7775,WL,A,1.0
7,2.383000135421753,immed,57616.99986457825,Tue Mar 10 2026 14:53:49 GMT-0500 (Central Daylight Time),939266.5,A,trai,O,i,154,1,2382.7000000029802,936883.799999997,7775,WL,A,1.0
7,2.8489999771118164,immed,57151.00002288818,Tue Mar 10 2026 14:53:49 GMT-0500 (Central Daylight Time),939733.099999994,A,train,O,n,451,1,2849.2999999970198,936883.799999997,7775,WL,A,1.0
7,6.0320000648498535,immed,53967.99993515015,Tue Mar 10 2026 14:53:49 GMT-0500 (Central Daylight Time),942915.700000003,A,trainenter,O,enter,3170,1,6031.9000000059605,936883.799999997,7775,WL,A,1.0
7,6.682000160217285,immed,53317.999839782715,Tue Mar 10 2026 14:53:49 GMT-0500 (Central Daylight Time),943565.5,A,f,O,f,642,1,649.5,942916.0,7775,WL,A,2.0
7,6.781000137329102,immed,53218.9998626709,Tue Mar 10 2026 14:53:49 GMT-0500 (Central Daylight Time),943665.200000003,A,fi,O,i,80,1,749.2000000029802,942916.0,7775,WL,A,2.0
7,7.065000057220459,immed,52934.99994277954,Tue Mar 10 2026 14:53:49 GMT-0500 (Central Daylight Time),943948.599999994,A,fin,O,n,270,1,1032.5999999940395,942916.0,7775,WL,A,2.0
7,7.531000137329102,immed,52468.9998626709,Tue Mar 10 2026 14:53:49 GMT-0500 (Central Daylight Time),944415.0,A,fing,O,g,449,1,1499.0,942916.0,7775,WL,A,2.0
7,8.114000082015991,immed,51885.99991798401,Tue Mar 10 2026 14:53:49 GMT-0500 (Central Daylight Time),944997.799999997,A,finge,O,e,567,1,2081.7999999970198,942916.0,7775,WL,A,2.0
7,8.197999954223633,immed,51802.00004577637,Tue Mar 10 2026 14:53:49 GMT-0500 (Central Daylight Time),945081.5,A,finger,O,r,72,1,2165.5,942916.0,7775,WL,A,2.0
7,8.746999979019165,immed,51253.000020980835,Tue Mar 10 2026 14:53:49 GMT-0500 (Central Daylight Time),945631.200000003,A,fingerenter,O,enter,532,1,2715.2000000029802,942916.0,7775,WL,A,2.0
7,9.914000034332275,immed,50085.999965667725,Tue Mar 10 2026 14:53:49 GMT-0500 (Central Daylight Time),946797.599999994,A,g,O,g,1158,1,1166.0999999940395,945631.5,7775,WL,A,3.0
7,10.02999997138977,immed,49970.00002861023,Tue Mar 10 2026 14:53:49 GMT-0500 (Central Daylight Time),946914.0,A,go,O,o,104,1,1282.5,945631.5,7775,WL,A,3.0
7,10.21399998664856,immed,49786.00001335144,Tue Mar 10 2026 14:53:49 GMT-0500 (Central Daylight Time),947097.599999994,A,gol,O,l,172,1,1466.0999999940395,945631.5,7775,WL,A,3.0
7,11.04699993133545,immed,48953.00006866455,Tue Mar 10 2026 14:53:49 GMT-0500 (Central Daylight Time),947930.3999999911,A,gold,O,d,828,1,2298.8999999910593,945631.5,7775,WL,A,3.0
7,11.513000011444092,immed,48486.99998855591,Tue Mar 10 2026 14:53:49 GMT-0500 (Central Daylight Time),948396.8999999911,A,goldenter,O,enter,459,1,2765.3999999910593,945631.5,7775,WL,A,3.0
7,12.196000099182129,immed,47803.99990081787,Tue Mar 10 2026 14:53:49 GMT-0500 (Central Daylight Time),949080.0,A,k,O,k,673,1,682.7999999970198,948397.200000003,7775,WL,A,4.0
7,12.680000066757202,immed,47319.9999332428,Tue Mar 10 2026 14:53:49 GMT-0500 (Central Daylight Time),949563.299999997,A,ke,O,e,469,1,1166.0999999940395,948397.200000003,7775,WL,A,4.0
7,12.763000011444092,immed,47236.99998855591,Tue Mar 10 2026 14:53:49 GMT-0500 (Central Daylight Time),949646.5,A,key,O,y,74,1,1249.2999999970198,948397.200000003,7775,WL,A,4.0
7,13.546000003814697,immed,46453.9999961853,Tue Mar 10 2026 14:53:49 GMT-0500 (Central Daylight Time),950429.799999997,A,keyenter,O,enter,775,1,2032.5999999940395,948397.200000003,7775,WL,A,4.0
7,14.229000091552734,immed,45770.999908447266,Tue Mar 10 2026 14:53:49 GMT-0500 (Central Daylight Time),951112.799999997,A,r,O,r,672,1,682.7000000029802,950430.099999994,7775,WL,A,5.0
7,14.345999956130981,immed,45654.00004386902,Tue Mar 10 2026 14:53:49 GMT-0500 (Central Daylight Time),951229.5,A,ra,O,a,101,1,799.4000000059605,950430.099999994,7775,WL,A,5.0
7,14.513000011444092,immed,45486.99998855591,Tue Mar 10 2026 14:53:49 GMT-0500 (Central Daylight Time),951396.200000003,A,rat,O,t,160,1,966.1000000089407,950430.099999994,7775,WL,A,5.0
7,14.646000146865845,immed,45353.999853134155,Tue Mar 10 2026 14:53:49 GMT-0500 (Central Daylight Time),951529.5,A,ratt,O,t,121,1,1099.4000000059605,950430.099999994,7775,WL,A,5.0
7,15.562000036239624,immed,44437.999963760376,Tue Mar 10 2026 14:53:49 GMT-0500 (Central Daylight Time),952445.8999999911,A,rattl,O,l,900,1,2015.7999999970198,950430.099999994,7775,WL,A,5.0
7,15.67900013923645,immed,44320.99986076355,Tue Mar 10 2026 14:53:49 GMT-0500 (Central Daylight Time),952562.3999999911,A,rattle,O,e,96,1,2132.2999999970198,950430.099999994,7775,WL,A,5.0
7,16.944999933242798,immed,43055.0000667572,Tue Mar 10 2026 14:53:49 GMT-0500 (Central Daylight Time),953828.599999994,A,rattleenter,O,enter,1252,1,3398.5,950430.099999994,7775,WL,A,5.0
7,19.694000005722046,immed,40305.999994277954,Tue Mar 10 2026 14:53:49 GMT-0500 (Central Daylight Time),956577.8999999911,A,b,O,b,2729,1,2748.8999999910593,953829.0,7775,WL,A,6.0
7,20.210000038146973,immed,39789.99996185303,Tue Mar 10 2026 14:53:49 GMT-0500 (Central Daylight Time),957094.200000003,A,bo,O,o,500,1,3265.2000000029802,953829.0,7775,WL,A,6.0
7,20.344000101089478,immed,39655.99989891052,Tue Mar 10 2026 14:53:49 GMT-0500 (Central Daylight Time),957227.700000003,A,boo,O,o,119,1,3398.7000000029802,953829.0,7775,WL,A,6.0
7,20.526999950408936,immed,39473.000049591064,Tue Mar 10 2026 14:53:49 GMT-0500 (Central Daylight Time),957410.8999999911,A,book,O,k,163,1,3581.8999999910593,953829.0,7775,WL,A,6.0
7,22.210000038146973,immed,37789.99996185303,Tue Mar 10 2026 14:53:49 GMT-0500 (Central Daylight Time),959093.700000003,A,bookenter,O,enter,1667,1,5264.70000000298,953829.0,7775,WL,A,6.0
7,26.009000062942505,immed,33990.999937057495,Tue Mar 10 2026 14:53:49 GMT-0500 (Central Daylight Time),962892.8999999911,A,b,O,b,3793,1,3799.0,959093.8999999911,7775,WL,A,7.0
7,26.342000007629395,immed,33657.999992370605,Tue Mar 10 2026 14:53:49 GMT-0500 (Central Daylight Time),963225.700000003,A,bu,O,u,313,1,4131.800000011921,959093.8999999911,7775,WL,A,7.0
7,26.875,immed,33125.0,Tue Mar 10 2026 14:53:49 GMT-0500 (Central Daylight Time),963758.8999999911,A,but,O,t,523,1,4665.0,959093.8999999911,7775,WL,A,7.0
7,27.04100012779236,immed,32958.99987220764,Tue Mar 10 2026 14:53:49 GMT-0500 (Central Daylight Time),963925.3999999911,A,butt,O,t,151,1,4831.5,959093.8999999911,7775,WL,A,7.0
7,27.174999952316284,immed,32825.000047683716,Tue Mar 10 2026 14:53:49 GMT-0500 (Central Daylight Time),964058.599999994,A,butto,O,o,128,1,4964.70000000298,959093.8999999911,7775,WL,A,7.0
7,28.008000135421753,immed,31991.999864578247,Tue Mar 10 2026 14:53:49 GMT-0500 (Central Daylight Time),964891.8999999911,A,button,O,n,819,1,5798.0,959093.8999999911,7775,WL,A,7.0
7,28.624000072479248,immed,31375.999927520752,Tue Mar 10 2026 14:53:49 GMT-0500 (Central Daylight Time),965508.200000003,A,buttonenter,O,enter,601,1,6414.300000011921,959093.8999999911,7775,WL,A,7.0
7,29.374000072479248,immed,30625.999927520752,Tue Mar 10 2026 14:53:49 GMT-0500 (Central Daylight Time),966257.8999999911,A,c,O,c,729,1,749.3999999910593,965508.5,7775,WL,A,8.0
7,30.074000120162964,immed,29925.999879837036,Tue Mar 10 2026 14:53:49 GMT-0500 (Central Daylight Time),966957.8999999911,A,ch,O,h,683,1,1449.3999999910593,965508.5,7775,WL,A,8.0
7,30.60700011253357,immed,29392.99988746643,Tue Mar 10 2026 14:53:49 GMT-0500 (Central Daylight Time),967490.8999999911,A,chi,O,i,520,1,1982.3999999910593,965508.5,7775,WL,A,8.0
7,31.074000120162964,immed,28925.999879837036,Tue Mar 10 2026 14:53:49 GMT-0500 (Central Daylight Time),967957.799999997,A,chim,O,m,459,1,2449.2999999970198,965508.5,7775,WL,A,8.0
7,31.42300009727478,immed,28576.99990272522,Tue Mar 10 2026 14:53:49 GMT-0500 (Central Daylight Time),968307.299999997,A,chimn,O,n,329,1,2798.7999999970198,965508.5,7775,WL,A,8.0
7,32.91000008583069,immed,27089.99991416931,Tue Mar 10 2026 14:53:49 GMT-0500 (Central Daylight Time),969793.5,A,chimne,O,e,1466,1,4285.0,965508.5,7775,WL,A,8.0
7,32.98900008201599,immed,27010.99991798401,Tue Mar 10 2026 14:53:49 GMT-0500 (Central Daylight Time),969873.5,A,chimney,O,y,59,1,4365.0,965508.5,7775,WL,A,8.0
7,33.98900008201599,immed,26010.99991798401,Tue Mar 10 2026 14:53:49 GMT-0500 (Central Daylight Time),970873.3999999911,A,chimneyenter,O,enter,977,1,5364.899999991059,965508.5,7775,WL,A,8.0
7,36.17199993133545,immed,23828.00006866455,Tue Mar 10 2026 14:53:49 GMT-0500 (Central Daylight Time),973056.0,A,r,O,r,2172,1,2182.2000000029802,970873.799999997,7775,WL,A,9.0
7,36.63800001144409,immed,23361.99998855591,Tue Mar 10 2026 14:53:49 GMT-0500 (Central Daylight Time),973522.299999997,A,ru,O,u,462,1,2648.5,970873.799999997,7775,WL,A,9.0
7,37.03800010681152,immed,22961.999893188477,Tue Mar 10 2026 14:53:49 GMT-0500 (Central Daylight Time),973922.200000003,A,rug,O,g,395,1,3048.4000000059605,970873.799999997,7775,WL,A,9.0
7,37.937999963760376,immed,22062.000036239624,Tue Mar 10 2026 14:53:49 GMT-0500 (Central Daylight Time),974822.3999999911,A,rugenter,O,enter,884,1,3948.5999999940395,970873.799999997,7775,WL,A,9.0
7,60.013999938964844,immed,-13.99993896484375,Tue Mar 10 2026 14:53:49 GMT-0500 (Central Daylight Time),996898.5,A,None,O,None,22072,1,22075.90000000596,974822.599999994,7775,WL,A,10.0
