acc_sum,block,block_c,change,condition,correct,correct_response,datetime,endtime,face,project,response,response_time,row_sel,session_number,start_end,starttime,subject_id,task,task_vers,trial
0,prac,1,,1-Back,,,Wed Jan 07 2026 09:30:42 GMT-0600 (Central Standard Time),,005_o_f_d_a.png,I,space,4004,1,3,,,8036,VNB,B,0
0,prac,1,0.0,1-Back,0.0,m,Wed Jan 07 2026 09:30:42 GMT-0600 (Central Standard Time),106612.70000004768,020_y_f_n_a.png,I,None,2006,2,3,2854.2000000476837,103758.5,8036,VNB,B,1
1,prac,1,0.0,1-Back,1.0,m,Wed Jan 07 2026 09:30:42 GMT-0600 (Central Standard Time),109061.90000009537,007_m_m_h_a.png,I,m,1572,3,3,2439.5,106622.40000009537,8036,VNB,B,2
2,prac,1,0.0,1-Back,1.0,m,Wed Jan 07 2026 09:30:42 GMT-0600 (Central Standard Time),110911.40000009537,016_y_m_d_a.png,I,m,972,4,3,1841.1000000238419,109070.30000007153,8036,VNB,B,3
3,prac,1,0.0,1-Back,1.0,m,Wed Jan 07 2026 09:30:42 GMT-0600 (Central Standard Time),112810.60000002384,005_o_f_n_a.png,I,m,1016,5,3,1889.7999999523163,110920.80000007153,8036,VNB,B,4
3,prac,1,1.0,1-Back,0.0,z,Wed Jan 07 2026 09:30:42 GMT-0600 (Central Standard Time),114643.60000002384,016_y_m_n_a.png,I,m,938,6,3,1822.5,112821.10000002384,8036,VNB,B,5
4,prac,1,0.0,1-Back,1.0,m,Wed Jan 07 2026 09:30:42 GMT-0600 (Central Standard Time),117009.60000002384,004_o_m_h_a.png,I,m,1522,7,3,2357.0,114652.60000002384,8036,VNB,B,6
5,prac,1,0.0,1-Back,1.0,m,Wed Jan 07 2026 09:30:42 GMT-0600 (Central Standard Time),118975.80000007153,011_m_f_d_a.png,I,m,1085,8,3,1957.2000000476837,117018.60000002384,8036,VNB,B,7
5,prac,1,1.0,1-Back,0.0,z,Wed Jan 07 2026 09:30:42 GMT-0600 (Central Standard Time),121224.70000004768,020_y_f_d_a.png,I,m,1375,9,3,2240.7000000476837,118984.0,8036,VNB,B,8
6,prac,1,0.0,1-Back,1.0,m,Wed Jan 07 2026 09:30:42 GMT-0600 (Central Standard Time),123740.70000004768,007_m_m_n_a.png,I,m,1633,10,3,2506.600000023842,121234.10000002384,8036,VNB,B,9
7,prac,1,0.0,1-Back,1.0,m,Wed Jan 07 2026 09:30:42 GMT-0600 (Central Standard Time),126289.70000004768,005_o_f_h_a.png,I,m,1667,11,3,2541.100000023842,123748.60000002384,8036,VNB,B,10
8,prac,1,0.0,1-Back,1.0,m,Wed Jan 07 2026 09:30:42 GMT-0600 (Central Standard Time),128455.80000007153,016_y_m_d_a.png,I,m,1282,12,3,2153.600000023842,126302.20000004768,8036,VNB,B,11
0,test,1,0.0,1-Back,,,Wed Jan 07 2026 09:30:42 GMT-0600 (Central Standard Time),128455.80000007153,020_y_f_d_a.png,I,space,5566,1,3,2153.600000023842,126302.20000004768,8036,VNB,B,0
1,test,1,0.0,1-Back,1.0,m,Wed Jan 07 2026 09:30:42 GMT-0600 (Central Standard Time),157414.30000007153,011_m_f_n_a.png,I,m,1660,2,3,2676.8000000715256,154737.5,8036,VNB,B,1
2,test,1,0.0,1-Back,1.0,m,Wed Jan 07 2026 09:30:42 GMT-0600 (Central Standard Time),159279.5,004_o_m_h_a.png,I,m,834,3,3,1859.7999999523163,157419.70000004768,8036,VNB,B,2
3,test,1,1.0,1-Back,1.0,z,Wed Jan 07 2026 09:30:42 GMT-0600 (Central Standard Time),161362.30000007153,007_m_m_h_a.png,I,z,1055,4,3,2077.100000023842,159285.20000004768,8036,VNB,B,3
4,test,1,0.0,1-Back,1.0,m,Wed Jan 07 2026 09:30:42 GMT-0600 (Central Standard Time),163294.40000009537,005_o_f_n_a.png,I,m,900,5,3,1926.4000000953674,161368.0,8036,VNB,B,4
5,test,1,0.0,1-Back,1.0,m,Wed Jan 07 2026 09:30:42 GMT-0600 (Central Standard Time),165344.30000007153,016_y_m_d_a.png,I,m,1025,6,3,2044.6000000238419,163299.70000004768,8036,VNB,B,5
5,test,1,1.0,1-Back,0.0,z,Wed Jan 07 2026 09:30:42 GMT-0600 (Central Standard Time),167327.20000004768,011_m_f_d_a.png,I,m,950,7,3,1976.2999999523163,165350.90000009537,8036,VNB,B,6
6,test,1,0.0,1-Back,1.0,m,Wed Jan 07 2026 09:30:42 GMT-0600 (Central Standard Time),169609.5,020_y_f_h_a.png,I,m,1256,8,3,2276.5,167333.0,8036,VNB,B,7
7,test,1,0.0,1-Back,1.0,m,Wed Jan 07 2026 09:30:42 GMT-0600 (Central Standard Time),171975.60000002384,004_o_m_n_a.png,I,m,1342,9,3,2360.1999999284744,169615.40000009537,8036,VNB,B,8
8,test,1,0.0,1-Back,1.0,m,Wed Jan 07 2026 09:30:42 GMT-0600 (Central Standard Time),173991.5,016_y_m_h_a.png,I,m,990,10,3,2010.2999999523163,171981.20000004768,8036,VNB,B,9
9,test,1,0.0,1-Back,1.0,m,Wed Jan 07 2026 09:30:42 GMT-0600 (Central Standard Time),176024.20000004768,004_o_m_d_a.png,I,m,1007,11,3,2027.5,173996.70000004768,8036,VNB,B,10
10,test,1,1.0,1-Back,1.0,z,Wed Jan 07 2026 09:30:42 GMT-0600 (Central Standard Time),178423.60000002384,005_o_f_d_a.png,I,z,1367,12,3,2393.6999999284744,176029.90000009537,8036,VNB,B,11
11,test,1,0.0,1-Back,1.0,m,Wed Jan 07 2026 09:30:42 GMT-0600 (Central Standard Time),181039.40000009537,007_m_m_n_a.png,I,m,1584,13,3,2610.4000000953674,178429.0,8036,VNB,B,12
12,test,1,1.0,1-Back,1.0,z,Wed Jan 07 2026 09:30:42 GMT-0600 (Central Standard Time),183688.40000009537,020_y_f_n_a.png,I,z,1623,14,3,2643.7000000476837,181044.70000004768,8036,VNB,B,13
13,test,1,0.0,1-Back,1.0,m,Wed Jan 07 2026 09:30:42 GMT-0600 (Central Standard Time),185871.0,011_m_f_h_a.png,I,m,1150,15,3,2176.899999976158,183694.10000002384,8036,VNB,B,14
13,test,1,0.0,1-Back,0.0,m,Wed Jan 07 2026 09:30:42 GMT-0600 (Central Standard Time),188120.10000002384,007_m_m_d_a.png,I,z,1232,16,3,2243.7999999523163,185876.30000007153,8036,VNB,B,15
14,test,1,0.0,1-Back,1.0,m,Wed Jan 07 2026 09:30:42 GMT-0600 (Central Standard Time),190719.5,016_y_m_n_a.png,I,m,1574,17,3,2593.6999999284744,188125.80000007153,8036,VNB,B,16
15,test,1,0.0,1-Back,1.0,m,Wed Jan 07 2026 09:30:42 GMT-0600 (Central Standard Time),192902.20000004768,005_o_f_h_a.png,I,m,1151,18,3,2177.600000023842,190724.60000002384,8036,VNB,B,17
0,test,2,0.0,1-Back,,,Wed Jan 07 2026 09:30:42 GMT-0600 (Central Standard Time),192902.20000004768,016_y_m_n_a.png,I,space,2488,1,3,2177.600000023842,190724.60000002384,8036,VNB,B,0
1,test,2,0.0,1-Back,1.0,m,Wed Jan 07 2026 09:30:42 GMT-0600 (Central Standard Time),199783.30000007153,020_y_f_h_a.png,I,m,1333,2,3,2360.0,197423.30000007153,8036,VNB,B,1
2,test,2,1.0,1-Back,1.0,m,Wed Jan 07 2026 09:30:42 GMT-0600 (Central Standard Time),201849.30000007153,004_o_m_n_a.png,I,m,1047,3,3,2060.899999976158,199788.40000009537,8036,VNB,B,2
3,test,2,0.0,1-Back,1.0,m,Wed Jan 07 2026 09:30:42 GMT-0600 (Central Standard Time),204348.5,011_m_f_d_a.png,I,m,1469,4,3,2493.2999999523163,201855.20000004768,8036,VNB,B,3
3,test,2,0.0,1-Back,0.0,z,Wed Jan 07 2026 09:30:42 GMT-0600 (Central Standard Time),206681.40000009537,007_m_m_d_a.png,I,m,1313,5,3,2326.2000000476837,204355.20000004768,8036,VNB,B,4
4,test,2,0.0,1-Back,1.0,m,Wed Jan 07 2026 09:30:42 GMT-0600 (Central Standard Time),208730.70000004768,016_y_m_h_a.png,I,m,1030,6,3,2044.1000000238419,206686.60000002384,8036,VNB,B,5
5,test,2,1.0,1-Back,1.0,z,Wed Jan 07 2026 09:30:42 GMT-0600 (Central Standard Time),210946.5,005_o_f_h_a.png,I,z,1195,7,3,2208.6999999284744,208737.80000007153,8036,VNB,B,6
6,test,2,0.0,1-Back,1.0,m,Wed Jan 07 2026 09:30:42 GMT-0600 (Central Standard Time),212995.70000004768,011_m_f_n_a.png,I,m,1020,8,3,2043.2999999523163,210952.40000009537,8036,VNB,B,7
7,test,2,0.0,1-Back,1.0,m,Wed Jan 07 2026 09:30:42 GMT-0600 (Central Standard Time),215378.5,020_y_f_d_a.png,I,m,1353,9,3,2376.5999999046326,213001.90000009537,8036,VNB,B,8
8,test,2,0.0,1-Back,1.0,m,Wed Jan 07 2026 09:30:42 GMT-0600 (Central Standard Time),217611.20000004768,007_m_m_n_a.png,I,m,1212,10,3,2227.399999976158,215383.80000007153,8036,VNB,B,9
9,test,2,1.0,1-Back,1.0,m,Wed Jan 07 2026 09:30:42 GMT-0600 (Central Standard Time),219743.80000007153,011_m_f_h_a.png,I,m,1116,11,3,2126.3000000715256,217617.5,8036,VNB,B,10
10,test,2,0.0,1-Back,1.0,z,Wed Jan 07 2026 09:30:42 GMT-0600 (Central Standard Time),221643.10000002384,004_o_m_h_a.png,I,z,872,12,3,1893.6999999284744,219749.40000009537,8036,VNB,B,11
11,test,2,0.0,1-Back,1.0,m,Wed Jan 07 2026 09:30:42 GMT-0600 (Central Standard Time),223675.90000009537,016_y_m_d_a.png,I,m,1012,13,3,2027.7000000476837,221648.20000004768,8036,VNB,B,12
12,test,2,0.0,1-Back,1.0,m,Wed Jan 07 2026 09:30:42 GMT-0600 (Central Standard Time),225891.80000007153,005_o_f_n_a.png,I,m,1195,14,3,2210.100000023842,223681.70000004768,8036,VNB,B,13
12,test,2,0.0,1-Back,0.0,z,Wed Jan 07 2026 09:30:42 GMT-0600 (Central Standard Time),228375.20000004768,020_y_f_n_a.png,I,m,1450,15,3,2477.7000000476837,225897.5,8036,VNB,B,14
13,test,2,1.0,1-Back,1.0,m,Wed Jan 07 2026 09:30:42 GMT-0600 (Central Standard Time),230857.0,007_m_m_h_a.png,I,m,1456,16,3,2476.0,228381.0,8036,VNB,B,15
14,test,2,0.0,1-Back,1.0,m,Wed Jan 07 2026 09:30:42 GMT-0600 (Central Standard Time),232939.80000007153,005_o_f_d_a.png,I,m,1062,17,3,2077.2000000476837,230862.60000002384,8036,VNB,B,16
15,test,2,1.0,1-Back,1.0,z,Wed Jan 07 2026 09:30:42 GMT-0600 (Central Standard Time),235455.70000004768,004_o_m_d_a.png,I,z,1491,18,3,2509.7999999523163,232945.90000009537,8036,VNB,B,17
0,test,3,1.0,1-Back,,,Wed Jan 07 2026 09:30:42 GMT-0600 (Central Standard Time),235455.70000004768,005_o_f_h_a.png,I,space,2559,1,3,2509.7999999523163,232945.90000009537,8036,VNB,B,0
1,test,3,0.0,1-Back,1.0,m,Wed Jan 07 2026 09:30:42 GMT-0600 (Central Standard Time),242303.70000004768,011_m_f_d_a.png,I,m,1149,2,3,2176.600000023842,240127.10000002384,8036,VNB,B,1
2,test,3,1.0,1-Back,1.0,m,Wed Jan 07 2026 09:30:42 GMT-0600 (Central Standard Time),244302.90000009537,007_m_m_n_a.png,I,m,975,3,3,1993.9000000953674,242309.0,8036,VNB,B,2
2,test,3,0.0,1-Back,0.0,z,Wed Jan 07 2026 09:30:42 GMT-0600 (Central Standard Time),246685.60000002384,005_o_f_n_a.png,I,m,1352,4,3,2375.899999976158,244309.70000004768,8036,VNB,B,3
3,test,3,1.0,1-Back,1.0,m,Wed Jan 07 2026 09:30:42 GMT-0600 (Central Standard Time),248568.0,004_o_m_d_a.png,I,m,857,5,3,1876.5,246691.5,8036,VNB,B,4
4,test,3,0.0,1-Back,1.0,m,Wed Jan 07 2026 09:30:42 GMT-0600 (Central Standard Time),250584.20000004768,020_y_f_h_a.png,I,m,991,6,3,2010.2000000476837,248574.0,8036,VNB,B,5
5,test,3,0.0,1-Back,1.0,z,Wed Jan 07 2026 09:30:42 GMT-0600 (Central Standard Time),252500.20000004768,016_y_m_h_a.png,I,z,887,7,3,1910.7000000476837,250589.5,8036,VNB,B,6
6,test,3,0.0,1-Back,1.0,m,Wed Jan 07 2026 09:30:42 GMT-0600 (Central Standard Time),254333.20000004768,011_m_f_n_a.png,I,m,811,8,3,1827.6000000238419,252505.60000002384,8036,VNB,B,7
7,test,3,0.0,1-Back,1.0,m,Wed Jan 07 2026 09:30:42 GMT-0600 (Central Standard Time),256332.5,020_y_f_d_a.png,I,m,977,9,3,1993.0,254339.5,8036,VNB,B,8
8,test,3,1.0,1-Back,1.0,m,Wed Jan 07 2026 09:30:42 GMT-0600 (Central Standard Time),258298.30000007153,004_o_m_n_a.png,I,m,938,10,3,1959.8999999761581,256338.40000009537,8036,VNB,B,9
9,test,3,0.0,1-Back,1.0,m,Wed Jan 07 2026 09:30:42 GMT-0600 (Central Standard Time),260247.70000004768,007_m_m_h_a.png,I,m,924,11,3,1943.2000000476837,258304.5,8036,VNB,B,10
10,test,3,0.0,1-Back,1.0,z,Wed Jan 07 2026 09:30:42 GMT-0600 (Central Standard Time),261981.0,011_m_f_h_a.png,I,z,710,12,3,1728.1999999284744,260252.80000007153,8036,VNB,B,11
11,test,3,1.0,1-Back,1.0,m,Wed Jan 07 2026 09:30:42 GMT-0600 (Central Standard Time),263846.7000000477,005_o_f_d_a.png,I,m,841,13,3,1860.2000000476837,261986.5,8036,VNB,B,12
11,test,3,0.0,1-Back,0.0,z,Wed Jan 07 2026 09:30:42 GMT-0600 (Central Standard Time),265879.60000002384,007_m_m_d_a.png,I,m,1008,14,3,2027.1000000238419,263852.5,8036,VNB,B,13
12,test,3,0.0,1-Back,1.0,m,Wed Jan 07 2026 09:30:42 GMT-0600 (Central Standard Time),267778.7000000477,016_y_m_n_a.png,I,m,871,15,3,1893.7000000476837,265885.0,8036,VNB,B,14
13,test,3,1.0,1-Back,1.0,m,Wed Jan 07 2026 09:30:42 GMT-0600 (Central Standard Time),269728.0,004_o_m_h_a.png,I,m,932,16,3,1943.5,267784.5,8036,VNB,B,15
14,test,3,0.0,1-Back,1.0,m,Wed Jan 07 2026 09:30:42 GMT-0600 (Central Standard Time),271711.0,016_y_m_d_a.png,I,m,959,17,3,1977.7999999523163,269733.2000000477,8036,VNB,B,16
15,test,3,1.0,1-Back,1.0,m,Wed Jan 07 2026 09:30:42 GMT-0600 (Central Standard Time),273543.8000000715,020_y_f_n_a.png,I,m,799,18,3,1827.1000000238419,271716.7000000477,8036,VNB,B,17
0,test,4,1.0,1-Back,,,Wed Jan 07 2026 09:30:42 GMT-0600 (Central Standard Time),273543.8000000715,007_m_m_d_a.png,I,space,3663,1,3,1827.1000000238419,271716.7000000477,8036,VNB,B,0
0,test,4,0.0,1-Back,0.0,z,Wed Jan 07 2026 09:30:42 GMT-0600 (Central Standard Time),281539.2000000477,004_o_m_d_a.png,I,m,1297,2,3,2308.0,279231.2000000477,8036,VNB,B,1
1,test,4,0.0,1-Back,1.0,m,Wed Jan 07 2026 09:30:42 GMT-0600 (Central Standard Time),283473.90000009537,016_y_m_h_a.png,I,m,905,3,3,1928.4000000953674,281545.5,8036,VNB,B,2
2,test,4,0.0,1-Back,1.0,m,Wed Jan 07 2026 09:30:42 GMT-0600 (Central Standard Time),285606.40000009537,011_m_f_n_a.png,I,m,1101,4,3,2127.2000000476837,283479.2000000477,8036,VNB,B,3
3,test,4,1.0,1-Back,1.0,m,Wed Jan 07 2026 09:30:42 GMT-0600 (Central Standard Time),287456.3000000715,005_o_f_h_a.png,I,m,824,5,3,1844.3999999761581,285611.90000009537,8036,VNB,B,4
4,test,4,0.0,1-Back,1.0,m,Wed Jan 07 2026 09:30:42 GMT-0600 (Central Standard Time),289322.10000002384,007_m_m_n_a.png,I,m,839,6,3,1859.6999999284744,287462.40000009537,8036,VNB,B,5
5,test,4,0.0,1-Back,1.0,m,Wed Jan 07 2026 09:30:42 GMT-0600 (Central Standard Time),291204.8000000715,016_y_m_d_a.png,I,m,852,7,3,1876.2000000476837,289328.60000002384,8036,VNB,B,6
6,test,4,1.0,1-Back,1.0,z,Wed Jan 07 2026 09:30:42 GMT-0600 (Central Standard Time),293037.60000002384,020_y_f_d_a.png,I,z,802,8,3,1827.3999999761581,291210.2000000477,8036,VNB,B,7
7,test,4,0.0,1-Back,1.0,m,Wed Jan 07 2026 09:30:42 GMT-0600 (Central Standard Time),294837.10000002384,011_m_f_h_a.png,I,m,775,9,3,1793.6000000238419,293043.5,8036,VNB,B,8
8,test,4,0.0,1-Back,1.0,z,Wed Jan 07 2026 09:30:42 GMT-0600 (Central Standard Time),296869.60000002384,004_o_m_h_a.png,I,z,1002,10,3,2024.3999999761581,294845.2000000477,8036,VNB,B,9
9,test,4,1.0,1-Back,1.0,m,Wed Jan 07 2026 09:30:42 GMT-0600 (Central Standard Time),298702.3000000715,005_o_f_n_a.png,I,m,801,11,3,1827.0,296875.3000000715,8036,VNB,B,10
10,test,4,0.0,1-Back,1.0,m,Wed Jan 07 2026 09:30:42 GMT-0600 (Central Standard Time),300751.8000000715,011_m_f_d_a.png,I,m,1015,12,3,2044.7000000476837,298707.10000002384,8036,VNB,B,11
11,test,4,0.0,1-Back,1.0,m,Wed Jan 07 2026 09:30:42 GMT-0600 (Central Standard Time),303017.90000009537,020_y_f_n_a.png,I,m,1238,13,3,2259.7000000476837,300758.2000000477,8036,VNB,B,12
12,test,4,0.0,1-Back,1.0,m,Wed Jan 07 2026 09:30:42 GMT-0600 (Central Standard Time),305417.40000009537,005_o_f_d_a.png,I,m,1373,14,3,2393.5,303023.90000009537,8036,VNB,B,13
13,test,4,0.0,1-Back,1.0,m,Wed Jan 07 2026 09:30:42 GMT-0600 (Central Standard Time),307433.0,020_y_f_h_a.png,I,m,997,15,3,2010.3999999761581,305422.60000002384,8036,VNB,B,14
14,test,4,1.0,1-Back,1.0,z,Wed Jan 07 2026 09:30:42 GMT-0600 (Central Standard Time),309632.40000009537,007_m_m_h_a.png,I,z,1173,16,3,2193.5,307438.90000009537,8036,VNB,B,15
15,test,4,0.0,1-Back,1.0,m,Wed Jan 07 2026 09:30:42 GMT-0600 (Central Standard Time),311681.7000000477,004_o_m_n_a.png,I,m,1030,17,3,2043.2000000476837,309638.5,8036,VNB,B,16
15,test,4,1.0,1-Back,0.0,z,Wed Jan 07 2026 09:30:42 GMT-0600 (Central Standard Time),314181.3000000715,016_y_m_n_a.png,I,m,1478,18,3,2493.8000000715256,311687.5,8036,VNB,B,17
0,test,5,1.0,1-Back,,,Wed Jan 07 2026 09:30:42 GMT-0600 (Central Standard Time),314181.3000000715,004_o_m_n_a.png,I,space,2753,1,3,2493.8000000715256,311687.5,8036,VNB,B,0
1,test,5,1.0,1-Back,1.0,m,Wed Jan 07 2026 09:30:42 GMT-0600 (Central Standard Time),320845.5,005_o_f_h_a.png,I,m,853,2,3,1877.5,318968.0,8036,VNB,B,1
2,test,5,0.0,1-Back,1.0,m,Wed Jan 07 2026 09:30:42 GMT-0600 (Central Standard Time),322695.0,016_y_m_d_a.png,I,m,826,3,3,1843.3999999761581,320851.60000002384,8036,VNB,B,2
2,test,5,0.0,1-Back,0.0,z,Wed Jan 07 2026 09:30:42 GMT-0600 (Central Standard Time),324910.8000000715,004_o_m_d_a.png,I,m,1191,4,3,2209.7000000476837,322701.10000002384,8036,VNB,B,3
3,test,5,0.0,1-Back,1.0,m,Wed Jan 07 2026 09:30:42 GMT-0600 (Central Standard Time),327009.90000009537,011_m_f_h_a.png,I,m,1080,5,3,2093.9000000953674,324916.0,8036,VNB,B,4
4,test,5,0.0,1-Back,1.0,m,Wed Jan 07 2026 09:30:42 GMT-0600 (Central Standard Time),329009.40000009537,020_y_f_n_a.png,I,m,981,6,3,1994.0,327015.40000009537,8036,VNB,B,5
5,test,5,1.0,1-Back,1.0,z,Wed Jan 07 2026 09:30:42 GMT-0600 (Central Standard Time),331408.60000002384,005_o_f_n_a.png,I,z,1381,7,3,2394.0,329014.60000002384,8036,VNB,B,6
6,test,5,0.0,1-Back,1.0,m,Wed Jan 07 2026 09:30:42 GMT-0600 (Central Standard Time),333424.8000000715,011_m_f_d_a.png,I,m,990,8,3,2010.2000000476837,331414.60000002384,8036,VNB,B,7
7,test,5,0.0,1-Back,1.0,m,Wed Jan 07 2026 09:30:42 GMT-0600 (Central Standard Time),335274.3000000715,016_y_m_h_a.png,I,m,822,9,3,1843.1000000238419,333431.2000000477,8036,VNB,B,8
8,test,5,0.0,1-Back,1.0,m,Wed Jan 07 2026 09:30:42 GMT-0600 (Central Standard Time),337223.8000000715,020_y_f_d_a.png,I,m,921,10,3,1943.8000000715256,335280.0,8036,VNB,B,9
9,test,5,0.0,1-Back,1.0,m,Wed Jan 07 2026 09:30:42 GMT-0600 (Central Standard Time),339356.3000000715,007_m_m_n_a.png,I,m,1112,11,3,2127.399999976158,337228.90000009537,8036,VNB,B,10
10,test,5,1.0,1-Back,1.0,z,Wed Jan 07 2026 09:30:42 GMT-0600 (Central Standard Time),341555.60000002384,011_m_f_n_a.png,I,z,1178,12,3,2193.7999999523163,339361.8000000715,8036,VNB,B,11
11,test,5,0.0,1-Back,1.0,m,Wed Jan 07 2026 09:30:42 GMT-0600 (Central Standard Time),343671.90000009537,004_o_m_h_a.png,I,m,1092,13,3,2111.3000000715256,341560.60000002384,8036,VNB,B,12
12,test,5,0.0,1-Back,1.0,z,Wed Jan 07 2026 09:30:42 GMT-0600 (Central Standard Time),345770.90000009537,007_m_m_h_a.png,I,z,1080,14,3,2093.7000000476837,343677.2000000477,8036,VNB,B,13
13,test,5,1.0,1-Back,1.0,m,Wed Jan 07 2026 09:30:42 GMT-0600 (Central Standard Time),347587.2000000477,005_o_f_d_a.png,I,m,795,15,3,1810.8999999761581,345776.3000000715,8036,VNB,B,14
14,test,5,0.0,1-Back,1.0,m,Wed Jan 07 2026 09:30:42 GMT-0600 (Central Standard Time),349836.3000000715,016_y_m_n_a.png,I,m,1219,16,3,2242.5,347593.8000000715,8036,VNB,B,15
14,test,5,0.0,1-Back,0.0,m,Wed Jan 07 2026 09:30:42 GMT-0600 (Central Standard Time),351785.90000009537,020_y_f_h_a.png,I,z,931,17,3,1944.2000000476837,349841.7000000477,8036,VNB,B,16
15,test,5,0.0,1-Back,1.0,m,Wed Jan 07 2026 09:30:42 GMT-0600 (Central Standard Time),353735.2000000477,007_m_m_d_a.png,I,m,925,18,3,1943.7000000476837,351791.5,8036,VNB,B,17
0,prac,1,0.0,2-Back,,,Wed Jan 07 2026 09:30:42 GMT-0600 (Central Standard Time),353735.2000000477,011_m_f_n_a.png,I,space,3441,1,3,1943.7000000476837,351791.5,8036,VNB,B,0
0,prac,1,0.0,2-Back,,,Wed Jan 07 2026 09:30:42 GMT-0600 (Central Standard Time),353735.2000000477,005_o_f_h_a.png,I,space,3441,2,3,1943.7000000476837,351791.5,8036,VNB,B,0
0,prac,1,0.0,2-Back,0.0,m,Wed Jan 07 2026 09:30:42 GMT-0600 (Central Standard Time),446824.60000002384,004_o_m_d_a.png,I,None,2007,3,3,2840.7999999523163,443983.8000000715,8036,VNB,B,1
0,prac,1,1.0,2-Back,0.0,z,Wed Jan 07 2026 09:30:42 GMT-0600 (Central Standard Time),449455.2000000477,007_m_m_h_a.png,I,m,1729,4,3,2619.5,446835.7000000477,8036,VNB,B,2
0,prac,1,0.0,2-Back,0.0,m,Wed Jan 07 2026 09:30:42 GMT-0600 (Central Standard Time),452321.0,020_y_f_n_a.png,I,None,2002,5,3,2853.7999999523163,449467.2000000477,8036,VNB,B,3
0,prac,1,1.0,2-Back,0.0,z,Wed Jan 07 2026 09:30:42 GMT-0600 (Central Standard Time),454337.10000002384,004_o_m_h_a.png,I,m,1154,6,3,2007.2999999523163,452329.8000000715,8036,VNB,B,4
1,prac,1,1.0,2-Back,1.0,z,Wed Jan 07 2026 09:30:42 GMT-0600 (Central Standard Time),457136.0,016_y_m_n_a.png,I,z,1918,7,3,2789.5,454346.5,8036,VNB,B,5
2,prac,1,0.0,2-Back,1.0,m,Wed Jan 07 2026 09:30:42 GMT-0600 (Central Standard Time),459601.90000009537,011_m_f_d_a.png,I,m,1594,8,3,2458.2000000476837,457143.7000000477,8036,VNB,B,6
3,prac,1,0.0,2-Back,1.0,m,Wed Jan 07 2026 09:30:42 GMT-0600 (Central Standard Time),461668.2000000477,005_o_f_d_a.png,I,m,1180,9,3,2057.2000000476837,459611.0,8036,VNB,B,7
4,prac,1,0.0,2-Back,1.0,m,Wed Jan 07 2026 09:30:42 GMT-0600 (Central Standard Time),463484.3000000715,007_m_m_h_a.png,I,m,1034,10,3,1808.1000000238419,461676.2000000477,8036,VNB,B,8
4,prac,1,1.0,2-Back,0.0,z,Wed Jan 07 2026 09:30:42 GMT-0600 (Central Standard Time),465616.90000009537,020_y_f_d_a.png,I,m,1267,11,3,2121.600000023842,463495.3000000715,8036,VNB,B,9
4,prac,1,0.0,2-Back,0.0,m,Wed Jan 07 2026 09:30:42 GMT-0600 (Central Standard Time),467799.3000000715,004_o_m_n_a.png,I,z,1322,12,3,2172.3000000715256,465627.0,8036,VNB,B,10
0,test,1,0.0,2-Back,,,Wed Jan 07 2026 09:30:42 GMT-0600 (Central Standard Time),467799.3000000715,016_y_m_h_a.png,I,space,5403,1,3,2172.3000000715256,465627.0,8036,VNB,B,0
0,test,1,0.0,2-Back,,,Wed Jan 07 2026 09:30:42 GMT-0600 (Central Standard Time),467799.3000000715,005_o_f_n_a.png,I,space,5403,2,3,2172.3000000715256,465627.0,8036,VNB,B,0
0,test,1,0.0,2-Back,0.0,z,Wed Jan 07 2026 09:30:42 GMT-0600 (Central Standard Time),487160.0,004_o_m_h_a.png,I,m,1923,3,3,2944.399999976158,484215.60000002384,8036,VNB,B,1
0,test,1,0.0,2-Back,0.0,m,Wed Jan 07 2026 09:30:42 GMT-0600 (Central Standard Time),490192.5,011_m_f_d_a.png,I,None,2016,4,3,3027.1999999284744,487165.3000000715,8036,VNB,B,2
1,test,1,1.0,2-Back,1.0,m,Wed Jan 07 2026 09:30:42 GMT-0600 (Central Standard Time),492358.7000000477,016_y_m_n_a.png,I,m,1142,5,3,2161.0,490197.7000000477,8036,VNB,B,3
1,test,1,0.0,2-Back,0.0,z,Wed Jan 07 2026 09:30:42 GMT-0600 (Central Standard Time),494491.2000000477,020_y_f_d_a.png,I,m,1104,6,3,2126.7000000476837,492364.5,8036,VNB,B,4
2,test,1,0.0,2-Back,1.0,m,Wed Jan 07 2026 09:30:42 GMT-0600 (Central Standard Time),496690.40000009537,007_m_m_h_a.png,I,m,1172,7,3,2194.0,494496.40000009537,8036,VNB,B,5
3,test,1,1.0,2-Back,1.0,m,Wed Jan 07 2026 09:30:42 GMT-0600 (Central Standard Time),498806.40000009537,020_y_f_n_a.png,I,m,1092,8,3,2110.3000000715256,496696.10000002384,8036,VNB,B,6
4,test,1,0.0,2-Back,1.0,z,Wed Jan 07 2026 09:30:42 GMT-0600 (Central Standard Time),500705.8000000715,005_o_f_h_a.png,I,z,873,9,3,1893.7000000476837,498812.10000002384,8036,VNB,B,7
4,test,1,0.0,2-Back,0.0,m,Wed Jan 07 2026 09:30:42 GMT-0600 (Central Standard Time),502671.8000000715,004_o_m_d_a.png,I,z,934,10,3,1959.8000000715256,500712.0,8036,VNB,B,8
5,test,1,1.0,2-Back,1.0,m,Wed Jan 07 2026 09:30:42 GMT-0600 (Central Standard Time),504321.3000000715,007_m_m_d_a.png,I,m,630,11,3,1643.5,502677.8000000715,8036,VNB,B,9
6,test,1,0.0,2-Back,1.0,m,Wed Jan 07 2026 09:30:42 GMT-0600 (Central Standard Time),506237.2000000477,011_m_f_n_a.png,I,m,893,12,3,1909.3999999761581,504327.8000000715,8036,VNB,B,10
7,test,1,0.0,2-Back,1.0,m,Wed Jan 07 2026 09:30:42 GMT-0600 (Central Standard Time),507936.90000009537,020_y_f_h_a.png,I,m,673,13,3,1693.8000000715256,506243.10000002384,8036,VNB,B,11
7,test,1,0.0,2-Back,0.0,z,Wed Jan 07 2026 09:30:42 GMT-0600 (Central Standard Time),509936.3000000715,007_m_m_n_a.png,I,m,975,14,3,1994.3000000715256,507942.0,8036,VNB,B,12
8,test,1,0.0,2-Back,1.0,m,Wed Jan 07 2026 09:30:42 GMT-0600 (Central Standard Time),511452.5,016_y_m_d_a.png,I,m,494,15,3,1510.7999999523163,509941.7000000477,8036,VNB,B,13
9,test,1,1.0,2-Back,1.0,m,Wed Jan 07 2026 09:30:42 GMT-0600 (Central Standard Time),514218.2000000477,011_m_f_h_a.png,I,m,1738,16,3,2760.600000023842,511457.60000002384,8036,VNB,B,14
9,test,1,0.0,2-Back,0.0,z,Wed Jan 07 2026 09:30:42 GMT-0600 (Central Standard Time),516917.40000009537,005_o_f_d_a.png,I,m,1676,17,3,2693.7000000476837,514223.7000000477,8036,VNB,B,15
9,test,1,0.0,2-Back,0.0,m,Wed Jan 07 2026 09:30:42 GMT-0600 (Central Standard Time),519099.7000000477,004_o_m_n_a.png,I,z,1153,18,3,2176.600000023842,516923.10000002384,8036,VNB,B,16
0,test,2,0.0,2-Back,,,Wed Jan 07 2026 09:30:42 GMT-0600 (Central Standard Time),519099.7000000477,007_m_m_h_a.png,I,space,1547,1,3,2176.600000023842,516923.10000002384,8036,VNB,B,0
0,test,2,0.0,2-Back,,,Wed Jan 07 2026 09:30:42 GMT-0600 (Central Standard Time),519099.7000000477,020_y_f_n_a.png,I,space,1547,2,3,2176.600000023842,516923.10000002384,8036,VNB,B,0
1,test,2,1.0,2-Back,1.0,z,Wed Jan 07 2026 09:30:42 GMT-0600 (Central Standard Time),528780.3000000715,005_o_f_h_a.png,I,z,1886,3,3,2909.0,525871.3000000715,8036,VNB,B,1
2,test,2,0.0,2-Back,1.0,m,Wed Jan 07 2026 09:30:42 GMT-0600 (Central Standard Time),531346.2000000477,004_o_m_d_a.png,I,m,1539,4,3,2560.7000000476837,528785.5,8036,VNB,B,2
2,test,2,0.0,2-Back,0.0,m,Wed Jan 07 2026 09:30:42 GMT-0600 (Central Standard Time),534378.8000000715,011_m_f_d_a.png,I,None,2016,5,3,3026.3000000715256,531352.5,8036,VNB,B,3
2,test,2,0.0,2-Back,0.0,m,Wed Jan 07 2026 09:30:42 GMT-0600 (Central Standard Time),537227.6000000238,016_y_m_h_a.png,I,z,1820,6,3,2843.7999999523163,534383.8000000715,8036,VNB,B,4
3,test,2,0.0,2-Back,1.0,m,Wed Jan 07 2026 09:30:42 GMT-0600 (Central Standard Time),539361.4000000954,005_o_f_n_a.png,I,m,1115,7,3,2128.3000000715256,537233.1000000238,8036,VNB,B,5
3,test,2,1.0,2-Back,0.0,z,Wed Jan 07 2026 09:30:42 GMT-0600 (Central Standard Time),541676.3000000715,004_o_m_h_a.png,I,m,1294,8,3,2310.0,539366.3000000715,8036,VNB,B,6
3,test,2,0.0,2-Back,0.0,m,Wed Jan 07 2026 09:30:42 GMT-0600 (Central Standard Time),544009.2000000477,020_y_f_d_a.png,I,z,1315,9,3,2327.600000023842,541681.6000000238,8036,VNB,B,7
4,test,2,0.0,2-Back,1.0,m,Wed Jan 07 2026 09:30:42 GMT-0600 (Central Standard Time),546574.7000000477,016_y_m_d_a.png,I,m,1541,10,3,2559.5,544015.2000000477,8036,VNB,B,8
5,test,2,0.0,2-Back,1.0,m,Wed Jan 07 2026 09:30:42 GMT-0600 (Central Standard Time),548707.4000000954,007_m_m_n_a.png,I,m,1112,11,3,2127.600000023842,546579.8000000715,8036,VNB,B,9
6,test,2,0.0,2-Back,1.0,m,Wed Jan 07 2026 09:30:42 GMT-0600 (Central Standard Time),551589.9000000954,011_m_f_h_a.png,I,m,1859,12,3,2876.9000000953674,548713.0,8036,VNB,B,10
7,test,2,1.0,2-Back,1.0,z,Wed Jan 07 2026 09:30:42 GMT-0600 (Central Standard Time),553239.4000000954,004_o_m_n_a.png,I,z,632,13,3,1643.7000000476837,551595.7000000477,8036,VNB,B,11
7,test,2,0.0,2-Back,0.0,m,Wed Jan 07 2026 09:30:42 GMT-0600 (Central Standard Time),554772.1000000238,005_o_f_d_a.png,I,z,511,14,3,1526.7999999523163,553245.3000000715,8036,VNB,B,12
8,test,2,0.0,2-Back,1.0,m,Wed Jan 07 2026 09:30:42 GMT-0600 (Central Standard Time),556605.4000000954,020_y_f_h_a.png,I,m,810,15,3,1828.5,554776.9000000954,8036,VNB,B,13
9,test,2,0.0,2-Back,1.0,z,Wed Jan 07 2026 09:30:42 GMT-0600 (Central Standard Time),558204.6000000238,007_m_m_d_a.png,I,z,577,16,3,1594.1999999284744,556610.4000000954,8036,VNB,B,14
10,test,2,0.0,2-Back,1.0,m,Wed Jan 07 2026 09:30:42 GMT-0600 (Central Standard Time),560087.1000000238,016_y_m_n_a.png,I,m,858,17,3,1876.7999999523163,558210.3000000715,8036,VNB,B,15
11,test,2,1.0,2-Back,1.0,m,Wed Jan 07 2026 09:30:42 GMT-0600 (Central Standard Time),561636.6000000238,011_m_f_n_a.png,I,m,519,18,3,1543.8999999761581,560092.7000000477,8036,VNB,B,16
0,test,3,1.0,2-Back,,,Wed Jan 07 2026 09:30:42 GMT-0600 (Central Standard Time),561636.6000000238,004_o_m_n_a.png,I,space,1690,1,3,1543.8999999761581,560092.7000000477,8036,VNB,B,0
0,test,3,1.0,2-Back,,,Wed Jan 07 2026 09:30:42 GMT-0600 (Central Standard Time),561636.6000000238,005_o_f_d_a.png,I,space,1690,2,3,1543.8999999761581,560092.7000000477,8036,VNB,B,0
0,test,3,0.0,2-Back,0.0,m,Wed Jan 07 2026 09:30:42 GMT-0600 (Central Standard Time),571417.0,020_y_f_h_a.png,I,None,2016,3,3,3025.399999976158,568391.6000000238,8036,VNB,B,1
0,test,3,0.0,2-Back,0.0,z,Wed Jan 07 2026 09:30:42 GMT-0600 (Central Standard Time),573999.4000000954,011_m_f_d_a.png,I,m,1565,4,3,2576.5,571422.9000000954,8036,VNB,B,2
1,test,3,1.0,2-Back,1.0,m,Wed Jan 07 2026 09:30:42 GMT-0600 (Central Standard Time),576115.4000000954,016_y_m_n_a.png,I,m,1095,5,3,2110.3000000715256,574005.1000000238,8036,VNB,B,3
1,test,3,0.0,2-Back,0.0,m,Wed Jan 07 2026 09:30:42 GMT-0600 (Central Standard Time),578248.2000000477,004_o_m_h_a.png,I,z,1107,6,3,2127.0,576121.2000000477,8036,VNB,B,4
1,test,3,0.0,2-Back,0.0,z,Wed Jan 07 2026 09:30:42 GMT-0600 (Central Standard Time),580164.3000000715,020_y_f_n_a.png,I,m,886,7,3,1910.3000000715256,578254.0,8036,VNB,B,5
2,test,3,1.0,2-Back,1.0,m,Wed Jan 07 2026 09:30:42 GMT-0600 (Central Standard Time),582530.1000000238,007_m_m_d_a.png,I,m,1338,8,3,2360.0,580170.1000000238,8036,VNB,B,6
3,test,3,0.0,2-Back,1.0,m,Wed Jan 07 2026 09:30:42 GMT-0600 (Central Standard Time),584929.4000000954,016_y_m_d_a.png,I,m,1374,9,3,2394.100000023842,582535.3000000715,8036,VNB,B,7
3,test,3,0.0,2-Back,0.0,m,Wed Jan 07 2026 09:30:42 GMT-0600 (Central Standard Time),587045.4000000954,005_o_f_h_a.png,I,z,1085,10,3,2110.7000000476837,584934.7000000477,8036,VNB,B,8
4,test,3,1.0,2-Back,1.0,m,Wed Jan 07 2026 09:30:42 GMT-0600 (Central Standard Time),589278.0,011_m_f_n_a.png,I,m,1208,11,3,2227.0,587051.0,8036,VNB,B,9
5,test,3,1.0,2-Back,1.0,z,Wed Jan 07 2026 09:30:42 GMT-0600 (Central Standard Time),591310.8000000715,007_m_m_h_a.png,I,z,1000,12,3,2027.0,589283.8000000715,8036,VNB,B,10
6,test,3,0.0,2-Back,1.0,m,Wed Jan 07 2026 09:30:42 GMT-0600 (Central Standard Time),593076.8000000715,020_y_f_d_a.png,I,m,735,13,3,1761.1000000238419,591315.7000000477,8036,VNB,B,11
7,test,3,0.0,2-Back,1.0,m,Wed Jan 07 2026 09:30:42 GMT-0600 (Central Standard Time),594792.9000000954,005_o_f_n_a.png,I,m,690,14,3,1710.8000000715256,593082.1000000238,8036,VNB,B,12
7,test,3,0.0,2-Back,0.0,z,Wed Jan 07 2026 09:30:42 GMT-0600 (Central Standard Time),596275.9000000954,004_o_m_d_a.png,I,m,453,15,3,1478.1000000238419,594797.8000000715,8036,VNB,B,13
8,test,3,1.0,2-Back,1.0,m,Wed Jan 07 2026 09:30:42 GMT-0600 (Central Standard Time),598192.0,011_m_f_h_a.png,I,m,890,16,3,1910.0999999046326,596281.9000000954,8036,VNB,B,14
8,test,3,0.0,2-Back,0.0,m,Wed Jan 07 2026 09:30:42 GMT-0600 (Central Standard Time),599841.3000000715,007_m_m_n_a.png,I,z,623,17,3,1644.2000000476837,598197.1000000238,8036,VNB,B,15
8,test,3,0.0,2-Back,0.0,z,Wed Jan 07 2026 09:30:42 GMT-0600 (Central Standard Time),601907.3000000715,016_y_m_h_a.png,I,m,1045,18,3,2061.2000000476837,599846.1000000238,8036,VNB,B,16
0,test,4,0.0,2-Back,,,Wed Jan 07 2026 09:30:42 GMT-0600 (Central Standard Time),601907.3000000715,011_m_f_n_a.png,I,space,1643,1,3,2061.2000000476837,599846.1000000238,8036,VNB,B,0
0,test,4,0.0,2-Back,,,Wed Jan 07 2026 09:30:42 GMT-0600 (Central Standard Time),601907.3000000715,004_o_m_n_a.png,I,space,1643,2,3,2061.2000000476837,599846.1000000238,8036,VNB,B,0
1,test,4,1.0,2-Back,1.0,m,Wed Jan 07 2026 09:30:42 GMT-0600 (Central Standard Time),609938.3000000715,016_y_m_h_a.png,I,m,146,3,3,1161.6000000238419,608776.7000000477,8036,VNB,B,1
2,test,4,1.0,2-Back,1.0,m,Wed Jan 07 2026 09:30:42 GMT-0600 (Central Standard Time),611571.0,005_o_f_d_a.png,I,m,604,4,3,1629.3999999761581,609941.6000000238,8036,VNB,B,2
3,test,4,0.0,2-Back,1.0,z,Wed Jan 07 2026 09:30:42 GMT-0600 (Central Standard Time),613037.2000000477,004_o_m_h_a.png,I,z,435,5,3,1462.2000000476837,611575.0,8036,VNB,B,3
4,test,4,0.0,2-Back,1.0,m,Wed Jan 07 2026 09:30:42 GMT-0600 (Central Standard Time),614886.7000000477,007_m_m_n_a.png,I,m,825,6,3,1843.2000000476837,613043.5,8036,VNB,B,4
5,test,4,0.0,2-Back,1.0,m,Wed Jan 07 2026 09:30:42 GMT-0600 (Central Standard Time),617068.8000000715,011_m_f_d_a.png,I,m,1152,7,3,2177.5,614891.3000000715,8036,VNB,B,5
5,test,4,0.0,2-Back,0.0,z,Wed Jan 07 2026 09:30:42 GMT-0600 (Central Standard Time),618152.1000000238,020_y_f_n_a.png,I,m,50,8,3,1078.8999999761581,617073.2000000477,8036,VNB,B,6
6,test,4,1.0,2-Back,1.0,m,Wed Jan 07 2026 09:30:42 GMT-0600 (Central Standard Time),619202.0,005_o_f_h_a.png,I,m,29,9,3,1045.1999999284744,618156.8000000715,8036,VNB,B,7
6,test,4,0.0,2-Back,0.0,m,Wed Jan 07 2026 09:30:42 GMT-0600 (Central Standard Time),620668.2000000477,007_m_m_h_a.png,I,z,436,10,3,1461.6000000238419,619206.6000000238,8036,VNB,B,8
7,test,4,0.0,2-Back,1.0,m,Wed Jan 07 2026 09:30:42 GMT-0600 (Central Standard Time),622500.9000000954,020_y_f_d_a.png,I,m,802,11,3,1829.3000000715256,620671.6000000238,8036,VNB,B,9
8,test,4,0.0,2-Back,1.0,m,Wed Jan 07 2026 09:30:42 GMT-0600 (Central Standard Time),624133.6000000238,016_y_m_n_a.png,I,m,609,12,3,1629.1999999284744,622504.4000000954,8036,VNB,B,10
8,test,4,0.0,2-Back,0.0,z,Wed Jan 07 2026 09:30:42 GMT-0600 (Central Standard Time),625666.6000000238,004_o_m_d_a.png,I,m,506,13,3,1529.2999999523163,624137.3000000715,8036,VNB,B,11
8,test,4,1.0,2-Back,0.0,m,Wed Jan 07 2026 09:30:42 GMT-0600 (Central Standard Time),627499.2000000477,011_m_f_h_a.png,I,z,804,14,3,1828.7000000476837,625670.5,8036,VNB,B,12
9,test,4,1.0,2-Back,1.0,m,Wed Jan 07 2026 09:30:42 GMT-0600 (Central Standard Time),628682.3000000715,020_y_f_h_a.png,I,m,163,15,3,1177.8000000715256,627504.5,8036,VNB,B,13
10,test,4,0.0,2-Back,1.0,m,Wed Jan 07 2026 09:30:42 GMT-0600 (Central Standard Time),630381.9000000954,005_o_f_n_a.png,I,m,669,16,3,1695.9000000953674,628686.0,8036,VNB,B,14
11,test,4,0.0,2-Back,1.0,m,Wed Jan 07 2026 09:30:42 GMT-0600 (Central Standard Time),631981.2000000477,016_y_m_d_a.png,I,m,577,17,3,1595.3999999761581,630385.8000000715,8036,VNB,B,15
12,test,4,1.0,2-Back,1.0,m,Wed Jan 07 2026 09:30:42 GMT-0600 (Central Standard Time),633581.2000000477,007_m_m_d_a.png,I,m,569,18,3,1596.0,631985.2000000477,8036,VNB,B,16
0,test,5,1.0,2-Back,,,Wed Jan 07 2026 09:30:42 GMT-0600 (Central Standard Time),633581.2000000477,020_y_f_d_a.png,I,space,1545,1,3,1596.0,631985.2000000477,8036,VNB,B,0
0,test,5,1.0,2-Back,,,Wed Jan 07 2026 09:30:42 GMT-0600 (Central Standard Time),633581.2000000477,005_o_f_h_a.png,I,space,1545,2,3,1596.0,631985.2000000477,8036,VNB,B,0
0,test,5,1.0,2-Back,0.0,z,Wed Jan 07 2026 09:30:42 GMT-0600 (Central Standard Time),643377.7000000477,004_o_m_d_a.png,I,None,2016,3,3,3029.0,640348.7000000477,8036,VNB,B,1
0,test,5,1.0,2-Back,0.0,m,Wed Jan 07 2026 09:30:42 GMT-0600 (Central Standard Time),646410.2000000477,011_m_f_n_a.png,I,None,2016,4,3,3026.7999999523163,643383.4000000954,8036,VNB,B,2
0,test,5,0.0,2-Back,0.0,m,Wed Jan 07 2026 09:30:42 GMT-0600 (Central Standard Time),649242.7000000477,007_m_m_h_a.png,I,z,1804,5,3,2829.2000000476837,646413.5,8036,VNB,B,3
1,test,5,0.0,2-Back,1.0,z,Wed Jan 07 2026 09:30:42 GMT-0600 (Central Standard Time),651591.9000000954,020_y_f_n_a.png,I,z,1324,6,3,2345.2000000476837,649246.7000000477,8036,VNB,B,4
2,test,5,0.0,2-Back,1.0,m,Wed Jan 07 2026 09:30:42 GMT-0600 (Central Standard Time),654241.0,005_o_f_d_a.png,I,m,1631,7,3,2645.5999999046326,651595.4000000954,8036,VNB,B,5
3,test,5,0.0,2-Back,1.0,m,Wed Jan 07 2026 09:30:42 GMT-0600 (Central Standard Time),656673.4000000954,004_o_m_h_a.png,I,m,1413,8,3,2428.5,654244.9000000954,8036,VNB,B,6
4,test,5,1.0,2-Back,1.0,z,Wed Jan 07 2026 09:30:42 GMT-0600 (Central Standard Time),658622.9000000954,011_m_f_d_a.png,I,z,925,9,3,1945.7000000476837,656677.2000000477,8036,VNB,B,7
5,test,5,0.0,2-Back,1.0,m,Wed Jan 07 2026 09:30:42 GMT-0600 (Central Standard Time),660405.5,016_y_m_n_a.png,I,m,753,10,3,1779.3999999761581,658626.1000000238,8036,VNB,B,8
6,test,5,0.0,2-Back,1.0,m,Wed Jan 07 2026 09:30:42 GMT-0600 (Central Standard Time),661955.1000000238,007_m_m_n_a.png,I,m,528,11,3,1546.0,660409.1000000238,8036,VNB,B,9
7,test,5,0.0,2-Back,1.0,m,Wed Jan 07 2026 09:30:42 GMT-0600 (Central Standard Time),663637.9000000954,020_y_f_h_a.png,I,m,659,12,3,1678.3000000715256,661959.6000000238,8036,VNB,B,10
8,test,5,0.0,2-Back,1.0,m,Wed Jan 07 2026 09:30:42 GMT-0600 (Central Standard Time),665337.3000000715,016_y_m_d_a.png,I,m,680,13,3,1696.0,663641.3000000715,8036,VNB,B,11
8,test,5,1.0,2-Back,0.0,z,Wed Jan 07 2026 09:30:42 GMT-0600 (Central Standard Time),667586.8000000715,011_m_f_h_a.png,I,m,1230,14,3,2245.899999976158,665340.9000000954,8036,VNB,B,12
9,test,5,0.0,2-Back,1.0,m,Wed Jan 07 2026 09:30:42 GMT-0600 (Central Standard Time),669952.7000000477,004_o_m_n_a.png,I,m,1340,15,3,2362.2999999523163,667590.4000000954,8036,VNB,B,13
10,test,5,0.0,2-Back,1.0,m,Wed Jan 07 2026 09:30:42 GMT-0600 (Central Standard Time),672351.9000000954,007_m_m_d_a.png,I,m,1374,16,3,2395.2000000476837,669956.7000000477,8036,VNB,B,14
10,test,5,0.0,2-Back,0.0,z,Wed Jan 07 2026 09:30:42 GMT-0600 (Central Standard Time),674118.3000000715,005_o_f_n_a.png,I,m,742,17,3,1762.2000000476837,672356.1000000238,8036,VNB,B,15
10,test,5,1.0,2-Back,0.0,m,Wed Jan 07 2026 09:30:42 GMT-0600 (Central Standard Time),676034.3000000715,016_y_m_h_a.png,I,z,888,18,3,1912.3999999761581,674121.9000000954,8036,VNB,B,16
