block_c,block_dur,condition,countdown,datetime,endtime,list,multichar_response,project,response,response_time,session_number,start_end,starttime,subject_id,task,task_vers,trial
,,,,Thu Oct 16 2025 17:22:42 GMT-0500 (Central Daylight Time),,,,O,space,1867,1,,,7205,WL,C,
prac,,0,,Thu Oct 16 2025 17:22:42 GMT-0500 (Central Daylight Time),,NA,b,O,b,3665,1,,,7205,WL,C,1.0
prac,,0,,Thu Oct 16 2025 17:22:42 GMT-0500 (Central Daylight Time),,NA,bo,O,o,452,1,,,7205,WL,C,1.0
prac,,0,,Thu Oct 16 2025 17:22:42 GMT-0500 (Central Daylight Time),,NA,boo,O,o,129,1,,,7205,WL,C,1.0
prac,,0,,Thu Oct 16 2025 17:22:42 GMT-0500 (Central Daylight Time),,NA,boos,O,s,26,1,,,7205,WL,C,1.0
prac,,0,,Thu Oct 16 2025 17:22:42 GMT-0500 (Central Daylight Time),,NA,boost,O,t,542,1,,,7205,WL,C,1.0
prac,,0,,Thu Oct 16 2025 17:22:42 GMT-0500 (Central Daylight Time),,NA,boostenter,O,enter,361,1,,,7205,WL,C,1.0
1,0.5,learn,59500.0,Thu Oct 16 2025 17:22:42 GMT-0500 (Central Daylight Time),124782.20000000019,A,t,O,t,483,1,499.1000000005588,124283.09999999963,7205,WL,C,1.0
1,0.8510000705718994,learn,59148.9999294281,Thu Oct 16 2025 17:22:42 GMT-0500 (Central Daylight Time),125133.39999999944,A,tw,O,w,347,1,850.2999999998137,124283.09999999963,7205,WL,C,1.0
1,1.0520000457763672,learn,58947.99995422363,Thu Oct 16 2025 17:22:42 GMT-0500 (Central Daylight Time),125333.70000000019,A,two,O,o,191,1,1050.6000000005588,124283.09999999963,7205,WL,C,1.0
1,1.816999912261963,learn,58183.00008773804,Thu Oct 16 2025 17:22:42 GMT-0500 (Central Daylight Time),126098.70000000019,A,tw,O,backspace,749,1,1815.6000000005588,124283.09999999963,7205,WL,C,1.0
1,1.9830000400543213,learn,58016.99995994568,Thu Oct 16 2025 17:22:42 GMT-0500 (Central Daylight Time),126264.89999999944,A,t,O,backspace,161,1,1981.7999999998137,124283.09999999963,7205,WL,C,1.0
1,2.615999937057495,learn,57384.000062942505,Thu Oct 16 2025 17:22:42 GMT-0500 (Central Daylight Time),126898.29999999981,A,to,O,o,627,1,2615.2000000001863,124283.09999999963,7205,WL,C,1.0
1,2.8980000019073486,learn,57101.99999809265,Thu Oct 16 2025 17:22:42 GMT-0500 (Central Daylight Time),127180.29999999981,A,tow,O,w,271,1,2897.2000000001863,124283.09999999963,7205,WL,C,1.0
1,2.9820001125335693,learn,57017.99988746643,Thu Oct 16 2025 17:22:42 GMT-0500 (Central Daylight Time),127264.09999999963,A,towe,O,e,63,1,2981.0,124283.09999999963,7205,WL,C,1.0
1,3.117000102996826,learn,56882.999897003174,Thu Oct 16 2025 17:22:42 GMT-0500 (Central Daylight Time),127398.89999999944,A,tower,O,r,116,1,3115.7999999998137,124283.09999999963,7205,WL,C,1.0
1,4.9649999141693115,learn,55035.00008583069,Thu Oct 16 2025 17:22:42 GMT-0500 (Central Daylight Time),129247.39999999944,A,towerq,O,q,1826,1,4964.299999999814,124283.09999999963,7205,WL,C,1.0
1,5.082000017166138,learn,54917.99998283386,Thu Oct 16 2025 17:22:42 GMT-0500 (Central Daylight Time),129364.20000000019,A,towerqu,O,u,98,1,5081.100000000559,124283.09999999963,7205,WL,C,1.0
1,5.3480000495910645,learn,54651.999950408936,Thu Oct 16 2025 17:22:42 GMT-0500 (Central Daylight Time),129630.09999999963,A,towerque,O,e,246,1,5347.0,124283.09999999963,7205,WL,C,1.0
1,5.831000089645386,learn,54168.999910354614,Thu Oct 16 2025 17:22:42 GMT-0500 (Central Daylight Time),130113.5,A,towerques,O,s,468,1,5830.4000000003725,124283.09999999963,7205,WL,C,1.0
1,6.049000024795532,learn,53950.99997520447,Thu Oct 16 2025 17:22:42 GMT-0500 (Central Daylight Time),130330.79999999981,A,towerquess,O,s,201,1,6047.700000000186,124283.09999999963,7205,WL,C,1.0
1,6.348999977111816,learn,53651.00002288818,Thu Oct 16 2025 17:22:42 GMT-0500 (Central Daylight Time),130631.39999999944,A,towerquessn,O,n,280,1,6348.299999999814,124283.09999999963,7205,WL,C,1.0
1,8.930000066757202,learn,51069.9999332428,Thu Oct 16 2025 17:22:42 GMT-0500 (Central Daylight Time),133212.2000000002,A,towerquessnenter,O,enter,2572,1,8929.100000000559,124283.09999999963,7205,WL,C,1.0
1,10.312999963760376,learn,49687.000036239624,Thu Oct 16 2025 17:22:42 GMT-0500 (Central Daylight Time),134595.0,A,b,O,b,1366,1,1382.5,133212.5,7205,WL,C,2.0
1,10.581000089645386,learn,49418.999910354614,Thu Oct 16 2025 17:22:42 GMT-0500 (Central Daylight Time),134863.2999999998,A,bo,O,o,258,1,1650.7999999998137,133212.5,7205,WL,C,2.0
1,10.782999992370605,learn,49217.000007629395,Thu Oct 16 2025 17:22:42 GMT-0500 (Central Daylight Time),135065.0,A,bod,O,d,195,1,1852.5,133212.5,7205,WL,C,2.0
1,11.680000066757202,learn,48319.9999332428,Thu Oct 16 2025 17:22:42 GMT-0500 (Central Daylight Time),135962.09999999963,A,body,O,y,882,1,2749.5999999996275,133212.5,7205,WL,C,2.0
1,13.69700002670288,learn,46302.99997329712,Thu Oct 16 2025 17:22:42 GMT-0500 (Central Daylight Time),137978.89999999944,A,bodyenter,O,enter,2013,1,4766.399999999441,133212.5,7205,WL,C,2.0
1,14.130000114440918,learn,45869.99988555908,Thu Oct 16 2025 17:22:42 GMT-0500 (Central Daylight Time),138412.09999999963,A,c,O,c,425,1,432.8999999994412,137979.2000000002,7205,WL,C,3.0
1,14.344000101089478,learn,45655.99989891052,Thu Oct 16 2025 17:22:42 GMT-0500 (Central Daylight Time),138626.5,A,ca,O,a,199,1,647.2999999998137,137979.2000000002,7205,WL,C,3.0
1,14.614000082015991,learn,45385.99991798401,Thu Oct 16 2025 17:22:42 GMT-0500 (Central Daylight Time),138896.5,A,cam,O,m,249,1,917.2999999998137,137979.2000000002,7205,WL,C,3.0
1,14.84500002861023,learn,45154.99997138977,Thu Oct 16 2025 17:22:42 GMT-0500 (Central Daylight Time),139127.59999999963,A,camp,O,p,210,1,1148.3999999994412,137979.2000000002,7205,WL,C,3.0
1,15.611999988555908,learn,44388.00001144409,Thu Oct 16 2025 17:22:42 GMT-0500 (Central Daylight Time),139893.59999999963,A,campenter,O,enter,754,1,1914.3999999994412,137979.2000000002,7205,WL,C,3.0
1,17.194000005722046,learn,42805.999994277954,Thu Oct 16 2025 17:22:42 GMT-0500 (Central Daylight Time),141476.2999999998,A,f,O,f,1574,1,1582.4000000003725,139893.89999999944,7205,WL,C,4.0
1,17.32800006866455,learn,42671.99993133545,Thu Oct 16 2025 17:22:42 GMT-0500 (Central Daylight Time),141610.39999999944,A,fl,O,l,117,1,1716.5,139893.89999999944,7205,WL,C,4.0
1,17.545000076293945,learn,42454.999923706055,Thu Oct 16 2025 17:22:42 GMT-0500 (Central Daylight Time),141827.39999999944,A,fla,O,a,200,1,1933.5,139893.89999999944,7205,WL,C,4.0
1,17.977999925613403,learn,42022.0000743866,Thu Oct 16 2025 17:22:42 GMT-0500 (Central Daylight Time),142260.09999999963,A,flad,O,d,417,1,2366.2000000001863,139893.89999999944,7205,WL,C,4.0
1,18.22699999809265,learn,41773.00000190735,Thu Oct 16 2025 17:22:42 GMT-0500 (Central Daylight Time),142509.5,A,fladenter,O,enter,240,1,2615.600000000559,139893.89999999944,7205,WL,C,4.0
1,18.66100001335144,learn,41338.99998664856,Thu Oct 16 2025 17:22:42 GMT-0500 (Central Daylight Time),142943.5,A,s,O,s,424,1,433.70000000018626,142509.7999999998,7205,WL,C,5.0
1,19.128999948501587,learn,40871.00005149841,Thu Oct 16 2025 17:22:42 GMT-0500 (Central Daylight Time),143411.2999999998,A,sh,O,h,462,1,901.5,142509.7999999998,7205,WL,C,5.0
1,19.52900004386902,learn,40470.99995613098,Thu Oct 16 2025 17:22:42 GMT-0500 (Central Daylight Time),143811.0,A,sho,O,o,381,1,1301.2000000001863,142509.7999999998,7205,WL,C,5.0
1,19.74500012397766,learn,40254.99987602234,Thu Oct 16 2025 17:22:42 GMT-0500 (Central Daylight Time),144027.0,A,shor,O,r,210,1,1517.2000000001863,142509.7999999998,7205,WL,C,5.0
1,19.89400005340576,learn,40105.99994659424,Thu Oct 16 2025 17:22:42 GMT-0500 (Central Daylight Time),144175.7999999998,A,shore,O,e,137,1,1666.0,142509.7999999998,7205,WL,C,5.0
1,20.177000045776367,learn,39822.99995422363,Thu Oct 16 2025 17:22:42 GMT-0500 (Central Daylight Time),144459.39999999944,A,shoreenter,O,enter,266,1,1949.5999999996275,142509.7999999998,7205,WL,C,5.0
1,23.860000133514404,learn,36139.999866485596,Thu Oct 16 2025 17:22:42 GMT-0500 (Central Daylight Time),148141.59999999963,A,f,O,f,3664,1,3681.899999999441,144459.7000000002,7205,WL,C,6.0
1,24.20900011062622,learn,35790.99988937378,Thu Oct 16 2025 17:22:42 GMT-0500 (Central Daylight Time),148491.2999999998,A,fl,O,l,335,1,4031.5999999996275,144459.7000000002,7205,WL,C,6.0
1,24.375999927520752,learn,35624.00007247925,Thu Oct 16 2025 17:22:42 GMT-0500 (Central Daylight Time),148657.89999999944,A,fla,O,a,155,1,4198.199999999255,144459.7000000002,7205,WL,C,6.0
1,24.89199995994568,learn,35108.00004005432,Thu Oct 16 2025 17:22:42 GMT-0500 (Central Daylight Time),149173.89999999944,A,flag,O,g,508,1,4714.199999999255,144459.7000000002,7205,WL,C,6.0
1,25.29200005531311,learn,34707.99994468689,Thu Oct 16 2025 17:22:42 GMT-0500 (Central Daylight Time),149574.39999999944,A,flagenter,O,enter,381,1,5114.699999999255,144459.7000000002,7205,WL,C,6.0
1,26.792999982833862,learn,33207.00001716614,Thu Oct 16 2025 17:22:42 GMT-0500 (Central Daylight Time),151074.59999999963,A,h,O,h,1494,1,1499.8999999994412,149574.7000000002,7205,WL,C,7.0
1,26.975000143051147,learn,33024.99985694885,Thu Oct 16 2025 17:22:42 GMT-0500 (Central Daylight Time),151257.5,A,ho,O,o,175,1,1682.7999999998137,149574.7000000002,7205,WL,C,7.0
1,27.193000078201294,learn,32806.999921798706,Thu Oct 16 2025 17:22:42 GMT-0500 (Central Daylight Time),151474.89999999944,A,hon,O,n,202,1,1900.199999999255,149574.7000000002,7205,WL,C,7.0
1,27.475000143051147,learn,32524.999856948853,Thu Oct 16 2025 17:22:42 GMT-0500 (Central Daylight Time),151756.89999999944,A,hone,O,e,273,1,2182.199999999255,149574.7000000002,7205,WL,C,7.0
1,27.70799994468689,learn,32292.00005531311,Thu Oct 16 2025 17:22:42 GMT-0500 (Central Daylight Time),151990.2999999998,A,honey,O,y,215,1,2415.5999999996275,149574.7000000002,7205,WL,C,7.0
1,28.391000032424927,learn,31608.999967575073,Thu Oct 16 2025 17:22:42 GMT-0500 (Central Daylight Time),152673.5,A,honeyenter,O,enter,677,1,3098.7999999998137,149574.7000000002,7205,WL,C,7.0
1,30.342000007629395,learn,29657.999992370605,Thu Oct 16 2025 17:22:42 GMT-0500 (Central Daylight Time),154623.7999999998,A,b,O,b,1938,1,1949.9000000003725,152673.89999999944,7205,WL,C,8.0
1,30.60800004005432,learn,29391.99995994568,Thu Oct 16 2025 17:22:42 GMT-0500 (Central Daylight Time),154890.39999999944,A,bo,O,o,255,1,2216.5,152673.89999999944,7205,WL,C,8.0
1,30.924000024795532,learn,29075.999975204468,Thu Oct 16 2025 17:22:42 GMT-0500 (Central Daylight Time),155205.7000000002,A,boy,O,y,306,1,2531.800000000745,152673.89999999944,7205,WL,C,8.0
1,31.473999977111816,learn,28526.000022888184,Thu Oct 16 2025 17:22:42 GMT-0500 (Central Daylight Time),155755.89999999944,A,boyenter,O,enter,533,1,3082.0,152673.89999999944,7205,WL,C,8.0
1,32.289000034332275,learn,27710.999965667725,Thu Oct 16 2025 17:22:42 GMT-0500 (Central Daylight Time),156571.2999999998,A,c,O,c,799,1,815.0,155756.2999999998,7205,WL,C,9.0
1,32.45700001716614,learn,27542.999982833862,Thu Oct 16 2025 17:22:42 GMT-0500 (Central Daylight Time),156739.2000000002,A,ca,O,a,153,1,982.9000000003725,155756.2999999998,7205,WL,C,9.0
1,32.6560001373291,learn,27343.9998626709,Thu Oct 16 2025 17:22:42 GMT-0500 (Central Daylight Time),156938.5,A,cam,O,m,193,1,1182.2000000001863,155756.2999999998,7205,WL,C,9.0
1,32.9060001373291,learn,27093.9998626709,Thu Oct 16 2025 17:22:42 GMT-0500 (Central Daylight Time),157188.5,A,camp,O,p,243,1,1432.2000000001863,155756.2999999998,7205,WL,C,9.0
1,33.490999937057495,learn,26509.000062942505,Thu Oct 16 2025 17:22:42 GMT-0500 (Central Daylight Time),157772.7000000002,A,campenter,O,enter,575,1,2016.4000000003725,155756.2999999998,7205,WL,C,9.0
1,35.92199993133545,learn,24078.00006866455,Thu Oct 16 2025 17:22:42 GMT-0500 (Central Daylight Time),160204.2000000002,A,q,O,q,2411,1,2431.2000000001863,157773.0,7205,WL,C,10.0
1,36.0220000743866,learn,23977.999925613403,Thu Oct 16 2025 17:22:42 GMT-0500 (Central Daylight Time),160304.09999999963,A,qu,O,u,87,1,2531.0999999996275,157773.0,7205,WL,C,10.0
1,36.22200012207031,learn,23777.999877929688,Thu Oct 16 2025 17:22:42 GMT-0500 (Central Daylight Time),160504.59999999963,A,que,O,e,187,1,2731.5999999996275,157773.0,7205,WL,C,10.0
1,36.87100005149841,learn,23128.999948501587,Thu Oct 16 2025 17:22:42 GMT-0500 (Central Daylight Time),161153.39999999944,A,quee,O,e,636,1,3380.399999999441,157773.0,7205,WL,C,10.0
1,37.25500011444092,learn,22744.999885559082,Thu Oct 16 2025 17:22:42 GMT-0500 (Central Daylight Time),161536.7999999998,A,queen,O,n,362,1,3763.7999999998137,157773.0,7205,WL,C,10.0
1,37.723000049591064,learn,22276.999950408936,Thu Oct 16 2025 17:22:42 GMT-0500 (Central Daylight Time),162005.39999999944,A,queenenter,O,enter,452,1,4232.399999999441,157773.0,7205,WL,C,10.0
1,40.78600001335144,learn,19213.99998664856,Thu Oct 16 2025 17:22:42 GMT-0500 (Central Daylight Time),165067.59999999963,A,t,O,t,3047,1,3062.0999999996275,162005.5,7205,WL,C,11.0
1,41.40400004386902,learn,18595.99995613098,Thu Oct 16 2025 17:22:42 GMT-0500 (Central Daylight Time),165685.59999999963,A,,O,backspace,601,1,3680.0999999996275,162005.5,7205,WL,C,11.0
1,43.769999980926514,learn,16230.000019073486,Thu Oct 16 2025 17:22:42 GMT-0500 (Central Daylight Time),168051.89999999944,A,n,O,n,2353,1,6046.399999999441,162005.5,7205,WL,C,11.0
1,43.97000002861023,learn,16029.99997138977,Thu Oct 16 2025 17:22:42 GMT-0500 (Central Daylight Time),168251.7999999998,A,na,O,a,185,1,6246.299999999814,162005.5,7205,WL,C,11.0
1,44.104000091552734,learn,15895.999908447266,Thu Oct 16 2025 17:22:42 GMT-0500 (Central Daylight Time),168386.2000000002,A,nai,O,i,130,1,6380.700000000186,162005.5,7205,WL,C,11.0
1,44.35199999809265,learn,15648.000001907349,Thu Oct 16 2025 17:22:42 GMT-0500 (Central Daylight Time),168634.39999999944,A,nail,O,l,232,1,6628.899999999441,162005.5,7205,WL,C,11.0
1,45.1029999256134,learn,14897.000074386597,Thu Oct 16 2025 17:22:42 GMT-0500 (Central Daylight Time),169385.0,A,nailenter,O,enter,746,1,7379.5,162005.5,7205,WL,C,11.0
1,49.967000007629395,learn,10032.999992370605,Thu Oct 16 2025 17:22:42 GMT-0500 (Central Daylight Time),174249.39999999944,A,s,O,s,4859,1,4864.0999999996275,169385.2999999998,7205,WL,C,12.0
1,50.08500003814697,learn,9914.999961853027,Thu Oct 16 2025 17:22:42 GMT-0500 (Central Daylight Time),174366.89999999944,A,sh,O,h,103,1,4981.5999999996275,169385.2999999998,7205,WL,C,12.0
1,50.25099992752075,learn,9749.000072479248,Thu Oct 16 2025 17:22:42 GMT-0500 (Central Daylight Time),174533.5,A,sho,O,o,153,1,5148.200000000186,169385.2999999998,7205,WL,C,12.0
1,50.467000007629395,learn,9532.999992370605,Thu Oct 16 2025 17:22:42 GMT-0500 (Central Daylight Time),174749.39999999944,A,shor,O,r,198,1,5364.0999999996275,169385.2999999998,7205,WL,C,12.0
1,50.717000007629395,learn,9282.999992370605,Thu Oct 16 2025 17:22:42 GMT-0500 (Central Daylight Time),174998.7999999998,A,shore,O,e,228,1,5613.5,169385.2999999998,7205,WL,C,12.0
1,50.93400001525879,learn,9065.999984741211,Thu Oct 16 2025 17:22:42 GMT-0500 (Central Daylight Time),175215.59999999963,A,shoreenter,O,enter,209,1,5830.299999999814,169385.2999999998,7205,WL,C,12.0
1,56.66499996185303,learn,3335.0000381469727,Thu Oct 16 2025 17:22:42 GMT-0500 (Central Daylight Time),180947.5,A,s,O,s,5718,1,5731.600000000559,175215.89999999944,7205,WL,C,13.0
1,56.94799995422363,learn,3052.000045776367,Thu Oct 16 2025 17:22:42 GMT-0500 (Central Daylight Time),181230.5,A,sh,O,h,261,1,6014.600000000559,175215.89999999944,7205,WL,C,13.0
1,57.44799995422363,learn,2552.000045776367,Thu Oct 16 2025 17:22:42 GMT-0500 (Central Daylight Time),181730.39999999944,A,sho,O,o,477,1,6514.5,175215.89999999944,7205,WL,C,13.0
1,57.64800000190735,learn,2351.9999980926514,Thu Oct 16 2025 17:22:42 GMT-0500 (Central Daylight Time),181930.59999999963,A,shor,O,r,183,1,6714.700000000186,175215.89999999944,7205,WL,C,13.0
1,57.799999952316284,learn,2200.000047683716,Thu Oct 16 2025 17:22:42 GMT-0500 (Central Daylight Time),182082.2000000002,A,shore,O,e,141,1,6866.300000000745,175215.89999999944,7205,WL,C,13.0
1,57.96499991416931,learn,2035.0000858306885,Thu Oct 16 2025 17:22:42 GMT-0500 (Central Daylight Time),182247.09999999963,A,shoreenter,O,enter,153,1,7031.200000000186,175215.89999999944,7205,WL,C,13.0
1,60.01600003242493,learn,-16.000032424926758,Thu Oct 16 2025 17:22:42 GMT-0500 (Central Daylight Time),184298.2000000002,A,None,O,None,2046,1,2050.9000000003725,182247.2999999998,7205,WL,C,14.0
2,1.4000000953674316,learn,58599.99990463257,Thu Oct 16 2025 17:22:42 GMT-0500 (Central Daylight Time),253824.59999999963,A,t,O,t,1394,1,1399.5,252425.09999999963,7205,WL,C,1.0
2,2.614000082015991,learn,57385.99991798401,Thu Oct 16 2025 17:22:42 GMT-0500 (Central Daylight Time),255039.2999999998,A,to,O,o,1129,1,2614.2000000001863,252425.09999999963,7205,WL,C,1.0
2,2.868000030517578,learn,57131.99996948242,Thu Oct 16 2025 17:22:42 GMT-0500 (Central Daylight Time),255292.5,A,tow,O,w,249,1,2867.4000000003725,252425.09999999963,7205,WL,C,1.0
2,3.430999994277954,learn,56569.000005722046,Thu Oct 16 2025 17:22:42 GMT-0500 (Central Daylight Time),255856.0,A,towe,O,e,551,1,3430.9000000003725,252425.09999999963,7205,WL,C,1.0
2,3.5810000896453857,learn,56418.999910354614,Thu Oct 16 2025 17:22:42 GMT-0500 (Central Daylight Time),256006.2999999998,A,tower,O,r,140,1,3581.2000000001863,252425.09999999963,7205,WL,C,1.0
2,4.0980000495910645,learn,55901.999950408936,Thu Oct 16 2025 17:22:42 GMT-0500 (Central Daylight Time),256522.7000000002,A,towern,O,n,510,1,4097.600000000559,252425.09999999963,7205,WL,C,1.0
2,4.7820000648498535,learn,55217.99993515015,Thu Oct 16 2025 17:22:42 GMT-0500 (Central Daylight Time),257207.09999999963,A,towernenter,O,enter,665,1,4782.0,252425.09999999963,7205,WL,C,1.0
2,6.5980000495910645,learn,53401.999950408936,Thu Oct 16 2025 17:22:42 GMT-0500 (Central Daylight Time),259022.59999999963,A,s,O,s,1796,1,1815.2000000001863,257207.39999999944,7205,WL,C,2.0
2,6.697000026702881,learn,53302.99997329712,Thu Oct 16 2025 17:22:42 GMT-0500 (Central Daylight Time),259122.2999999998,A,sh,O,h,84,1,1914.9000000003725,257207.39999999944,7205,WL,C,2.0
2,6.8480000495910645,learn,53151.999950408936,Thu Oct 16 2025 17:22:42 GMT-0500 (Central Daylight Time),259273.0,A,sho,O,o,136,1,2065.600000000559,257207.39999999944,7205,WL,C,2.0
2,7.067000150680542,learn,52932.99984931946,Thu Oct 16 2025 17:22:42 GMT-0500 (Central Daylight Time),259492.0,A,shor,O,r,213,1,2284.600000000559,257207.39999999944,7205,WL,C,2.0
2,7.297000169754028,learn,52702.99983024597,Thu Oct 16 2025 17:22:42 GMT-0500 (Central Daylight Time),259722.2000000002,A,shore,O,e,216,1,2514.800000000745,257207.39999999944,7205,WL,C,2.0
2,7.863000154495239,learn,52136.99984550476,Thu Oct 16 2025 17:22:42 GMT-0500 (Central Daylight Time),260288.0,A,shoreenter,O,enter,551,1,3080.600000000559,257207.39999999944,7205,WL,C,2.0
2,10.979000091552734,learn,49020.999908447266,Thu Oct 16 2025 17:22:42 GMT-0500 (Central Daylight Time),263404.0999999996,A,c,O,c,3108,1,3115.899999999441,260288.2000000002,7205,WL,C,3.0
2,11.180000066757202,learn,48819.9999332428,Thu Oct 16 2025 17:22:42 GMT-0500 (Central Daylight Time),263604.7999999998,A,ca,O,a,182,1,3316.5999999996275,260288.2000000002,7205,WL,C,3.0
2,11.345999956130981,learn,48654.00004386902,Thu Oct 16 2025 17:22:42 GMT-0500 (Central Daylight Time),263770.7000000002,A,cam,O,m,150,1,3482.5,260288.2000000002,7205,WL,C,3.0
2,11.564000129699707,learn,48435.99987030029,Thu Oct 16 2025 17:22:42 GMT-0500 (Central Daylight Time),263988.89999999944,A,camp,O,p,203,1,3700.699999999255,260288.2000000002,7205,WL,C,3.0
2,12.42900013923645,learn,47570.99986076355,Thu Oct 16 2025 17:22:42 GMT-0500 (Central Daylight Time),264854.2999999998,A,campenter,O,enter,846,1,4566.0999999996275,260288.2000000002,7205,WL,C,3.0
2,13.062999963760376,learn,46937.000036239624,Thu Oct 16 2025 17:22:42 GMT-0500 (Central Daylight Time),265487.39999999944,A,b,O,b,622,1,632.8999999994412,264854.5,7205,WL,C,4.0
2,13.746000051498413,learn,46253.99994850159,Thu Oct 16 2025 17:22:42 GMT-0500 (Central Daylight Time),266170.5999999996,A,bo,O,o,668,1,1316.0999999996275,264854.5,7205,WL,C,4.0
2,13.979000091552734,learn,46020.999908447266,Thu Oct 16 2025 17:22:42 GMT-0500 (Central Daylight Time),266404.2000000002,A,boy,O,y,217,1,1549.7000000001863,264854.5,7205,WL,C,4.0
2,14.945000171661377,learn,45054.99982833862,Thu Oct 16 2025 17:22:42 GMT-0500 (Central Daylight Time),267369.89999999944,A,boyenter,O,enter,958,1,2515.399999999441,264854.5,7205,WL,C,4.0
2,15.396000146865845,learn,44603.999853134155,Thu Oct 16 2025 17:22:42 GMT-0500 (Central Daylight Time),267820.5,A,d,O,d,434,1,450.40000000037253,267370.0999999996,7205,WL,C,5.0
2,15.628999948501587,learn,44371.00005149841,Thu Oct 16 2025 17:22:42 GMT-0500 (Central Daylight Time),268054.2000000002,A,do,O,o,223,1,684.1000000005588,267370.0999999996,7205,WL,C,5.0
2,15.84500002861023,learn,44154.99997138977,Thu Oct 16 2025 17:22:42 GMT-0500 (Central Daylight Time),268269.7999999998,A,doc,O,c,203,1,899.7000000001863,267370.0999999996,7205,WL,C,5.0
2,16.09500002861023,learn,43904.99997138977,Thu Oct 16 2025 17:22:42 GMT-0500 (Central Daylight Time),268519.89999999944,A,doct,O,t,238,1,1149.7999999998137,267370.0999999996,7205,WL,C,5.0
2,16.27900004386902,learn,43720.99995613098,Thu Oct 16 2025 17:22:42 GMT-0500 (Central Daylight Time),268703.89999999944,A,docto,O,o,162,1,1333.7999999998137,267370.0999999996,7205,WL,C,5.0
2,16.444000005722046,learn,43555.999994277954,Thu Oct 16 2025 17:22:42 GMT-0500 (Central Daylight Time),268868.89999999944,A,doctor,O,r,144,1,1498.7999999998137,267370.0999999996,7205,WL,C,5.0
2,16.945000171661377,learn,43054.99982833862,Thu Oct 16 2025 17:22:42 GMT-0500 (Central Daylight Time),269369.5,A,doctorenter,O,enter,487,1,1999.4000000003725,267370.0999999996,7205,WL,C,5.0
2,17.795000076293945,learn,42204.999923706055,Thu Oct 16 2025 17:22:42 GMT-0500 (Central Daylight Time),270219.5,A,c,O,c,834,1,849.7999999998137,269369.7000000002,7205,WL,C,6.0
2,17.89400005340576,learn,42105.99994659424,Thu Oct 16 2025 17:22:42 GMT-0500 (Central Daylight Time),270318.7000000002,A,co,O,o,85,1,949.0,269369.7000000002,7205,WL,C,6.0
2,18.093000173568726,learn,41906.999826431274,Thu Oct 16 2025 17:22:42 GMT-0500 (Central Daylight Time),270518.39999999944,A,cor,O,r,190,1,1148.699999999255,269369.7000000002,7205,WL,C,6.0
2,18.361000061035156,learn,41638.999938964844,Thu Oct 16 2025 17:22:42 GMT-0500 (Central Daylight Time),270786.2000000002,A,corn,O,n,252,1,1416.5,269369.7000000002,7205,WL,C,6.0
2,19.17799997329712,learn,40822.00002670288,Thu Oct 16 2025 17:22:42 GMT-0500 (Central Daylight Time),271602.89999999944,A,cornenter,O,enter,802,1,2233.199999999255,269369.7000000002,7205,WL,C,6.0
2,19.811000108718872,learn,40188.99989128113,Thu Oct 16 2025 17:22:42 GMT-0500 (Central Daylight Time),272236.0999999996,A,l,O,l,624,1,632.8999999994412,271603.2000000002,7205,WL,C,7.0
2,20.009999990463257,learn,39990.00000953674,Thu Oct 16 2025 17:22:42 GMT-0500 (Central Daylight Time),272434.7000000002,A,le,O,e,192,1,831.5,271603.2000000002,7205,WL,C,7.0
2,20.360000133514404,learn,39639.999866485596,Thu Oct 16 2025 17:22:42 GMT-0500 (Central Daylight Time),272785.0999999996,A,let,O,t,336,1,1181.8999999994412,271603.2000000002,7205,WL,C,7.0
2,20.57800006866455,learn,39421.99993133545,Thu Oct 16 2025 17:22:42 GMT-0500 (Central Daylight Time),273002.7999999998,A,lett,O,t,194,1,1399.5999999996275,271603.2000000002,7205,WL,C,7.0
2,20.761000156402588,learn,39238.99984359741,Thu Oct 16 2025 17:22:42 GMT-0500 (Central Daylight Time),273186.0999999996,A,lette,O,e,158,1,1582.8999999994412,271603.2000000002,7205,WL,C,7.0
2,20.87600016593933,learn,39123.99983406067,Thu Oct 16 2025 17:22:42 GMT-0500 (Central Daylight Time),273301.2999999998,A,letter,O,r,104,1,1698.0999999996275,271603.2000000002,7205,WL,C,7.0
2,21.344000101089478,learn,38655.99989891052,Thu Oct 16 2025 17:22:42 GMT-0500 (Central Daylight Time),273769.0,A,letterenter,O,enter,445,1,2165.7999999998137,271603.2000000002,7205,WL,C,7.0
2,22.06000018119812,learn,37939.99981880188,Thu Oct 16 2025 17:22:42 GMT-0500 (Central Daylight Time),274485.0999999996,A,f,O,f,707,1,715.7999999998137,273769.2999999998,7205,WL,C,8.0
2,22.276000022888184,learn,37723.99997711182,Thu Oct 16 2025 17:22:42 GMT-0500 (Central Daylight Time),274701.0,A,fl,O,l,198,1,931.7000000001863,273769.2999999998,7205,WL,C,8.0
2,22.444000005722046,learn,37555.999994277954,Thu Oct 16 2025 17:22:42 GMT-0500 (Central Daylight Time),274868.5,A,fla,O,a,150,1,1099.2000000001863,273769.2999999998,7205,WL,C,8.0
2,23.075999975204468,learn,36924.00002479553,Thu Oct 16 2025 17:22:42 GMT-0500 (Central Daylight Time),275500.89999999944,A,flad,O,d,622,1,1731.5999999996275,273769.2999999998,7205,WL,C,8.0
2,23.877000093460083,learn,36122.99990653992,Thu Oct 16 2025 17:22:42 GMT-0500 (Central Daylight Time),276301.7000000002,A,fla,O,backspace,782,1,2532.4000000003725,273769.2999999998,7205,WL,C,8.0
2,24.026000022888184,learn,35973.99997711182,Thu Oct 16 2025 17:22:42 GMT-0500 (Central Daylight Time),276450.5,A,flaf,O,f,143,1,2681.2000000001863,273769.2999999998,7205,WL,C,8.0
2,25.02500009536743,learn,34974.99990463257,Thu Oct 16 2025 17:22:42 GMT-0500 (Central Daylight Time),277449.7000000002,A,fla,O,backspace,991,1,3680.4000000003725,273769.2999999998,7205,WL,C,8.0
2,25.625,learn,34375.0,Thu Oct 16 2025 17:22:42 GMT-0500 (Central Daylight Time),278049.89999999944,A,flag,O,g,593,1,4280.5999999996275,273769.2999999998,7205,WL,C,8.0
2,26.39199995994568,learn,33608.00004005432,Thu Oct 16 2025 17:22:42 GMT-0500 (Central Daylight Time),278817.2999999998,A,flagenter,O,enter,746,1,5048.0,273769.2999999998,7205,WL,C,8.0
2,27.707000017166138,learn,32292.999982833862,Thu Oct 16 2025 17:22:42 GMT-0500 (Central Daylight Time),280132.0999999996,A,n,O,n,1306,1,1314.5,278817.5999999996,7205,WL,C,9.0
2,27.85800004005432,learn,32141.99995994568,Thu Oct 16 2025 17:22:42 GMT-0500 (Central Daylight Time),280282.5,A,na,O,a,134,1,1464.9000000003725,278817.5999999996,7205,WL,C,9.0
2,27.991000175476074,learn,32008.999824523926,Thu Oct 16 2025 17:22:42 GMT-0500 (Central Daylight Time),280416.2999999998,A,nai,O,i,119,1,1598.7000000001863,278817.5999999996,7205,WL,C,9.0
2,28.192000150680542,learn,31807.999849319458,Thu Oct 16 2025 17:22:42 GMT-0500 (Central Daylight Time),280616.7999999998,A,nail,O,l,178,1,1799.2000000001863,278817.5999999996,7205,WL,C,9.0
2,28.758000135421753,learn,31241.999864578247,Thu Oct 16 2025 17:22:42 GMT-0500 (Central Daylight Time),281182.39999999944,A,nailenter,O,enter,544,1,2364.7999999998137,278817.5999999996,7205,WL,C,9.0
2,29.307000160217285,learn,30692.999839782715,Thu Oct 16 2025 17:22:42 GMT-0500 (Central Daylight Time),281732.0999999996,A,c,O,c,533,1,549.3999999994412,281182.7000000002,7205,WL,C,10.0
2,29.473000049591064,learn,30526.999950408936,Thu Oct 16 2025 17:22:42 GMT-0500 (Central Daylight Time),281898.2000000002,A,co,O,o,160,1,715.5,281182.7000000002,7205,WL,C,10.0
2,29.60700011253357,learn,30392.99988746643,Thu Oct 16 2025 17:22:42 GMT-0500 (Central Daylight Time),282031.5999999996,A,cor,O,r,120,1,848.8999999994412,281182.7000000002,7205,WL,C,10.0
2,30.123000144958496,learn,29876.999855041504,Thu Oct 16 2025 17:22:42 GMT-0500 (Central Daylight Time),282547.89999999944,A,corn,O,n,510,1,1365.199999999255,281182.7000000002,7205,WL,C,10.0
2,30.924000024795532,learn,29075.999975204468,Thu Oct 16 2025 17:22:42 GMT-0500 (Central Daylight Time),283348.5999999996,A,cornenter,O,enter,782,1,2165.899999999441,281182.7000000002,7205,WL,C,10.0
2,31.641000032424927,learn,28358.999967575073,Thu Oct 16 2025 17:22:42 GMT-0500 (Central Daylight Time),284065.89999999944,A,c,O,c,711,1,717.0999999996275,283348.7999999998,7205,WL,C,11.0
2,31.841000080108643,learn,28158.999919891357,Thu Oct 16 2025 17:22:42 GMT-0500 (Central Daylight Time),284265.5999999996,A,ca,O,a,193,1,916.7999999998137,283348.7999999998,7205,WL,C,11.0
2,32.02400016784668,learn,27975.99983215332,Thu Oct 16 2025 17:22:42 GMT-0500 (Central Daylight Time),284449.2999999998,A,cat,O,t,177,1,1100.5,283348.7999999998,7205,WL,C,11.0
2,32.259000062942505,learn,27740.999937057495,Thu Oct 16 2025 17:22:42 GMT-0500 (Central Daylight Time),284684.0,A,catt,O,t,228,1,1335.2000000001863,283348.7999999998,7205,WL,C,11.0
2,32.65700006484985,learn,27342.999935150146,Thu Oct 16 2025 17:22:42 GMT-0500 (Central Daylight Time),285081.5,A,cattl,O,l,382,1,1732.7000000001863,283348.7999999998,7205,WL,C,11.0
2,32.82299995422363,learn,27177.000045776367,Thu Oct 16 2025 17:22:42 GMT-0500 (Central Daylight Time),285248.2000000002,A,cattle,O,e,144,1,1899.4000000003725,283348.7999999998,7205,WL,C,11.0
2,33.25600004196167,learn,26743.99995803833,Thu Oct 16 2025 17:22:42 GMT-0500 (Central Daylight Time),285681.0,A,cattleenter,O,enter,426,1,2332.2000000001863,283348.7999999998,7205,WL,C,11.0
2,37.992000102996826,learn,22007.999897003174,Thu Oct 16 2025 17:22:42 GMT-0500 (Central Daylight Time),290416.7999999998,A,b,O,b,4722,1,4735.5,285681.2999999998,7205,WL,C,12.0
2,38.1710000038147,learn,21828.999996185303,Thu Oct 16 2025 17:22:42 GMT-0500 (Central Daylight Time),290595.5999999996,A,bo,O,o,172,1,4914.299999999814,285681.2999999998,7205,WL,C,12.0
2,38.47099995613098,learn,21529.00004386902,Thu Oct 16 2025 17:22:42 GMT-0500 (Central Daylight Time),290896.2999999998,A,bod,O,d,288,1,5215.0,285681.2999999998,7205,WL,C,12.0
2,38.63900017738342,learn,21360.999822616577,Thu Oct 16 2025 17:22:42 GMT-0500 (Central Daylight Time),291063.89999999944,A,body,O,y,157,1,5382.5999999996275,285681.2999999998,7205,WL,C,12.0
2,39.33899998664856,learn,20661.00001335144,Thu Oct 16 2025 17:22:42 GMT-0500 (Central Daylight Time),291763.7999999998,A,bodyenter,O,enter,683,1,6082.5,285681.2999999998,7205,WL,C,12.0
2,40.521000146865845,learn,19478.999853134155,Thu Oct 16 2025 17:22:42 GMT-0500 (Central Daylight Time),292945.7999999998,A,b,O,b,1169,1,1181.7000000001863,291764.0999999996,7205,WL,C,13.0
2,40.937000036239624,learn,19062.999963760376,Thu Oct 16 2025 17:22:42 GMT-0500 (Central Daylight Time),293361.39999999944,A,bo,O,o,406,1,1597.2999999998137,291764.0999999996,7205,WL,C,13.0
2,41.23699998855591,learn,18763.00001144409,Thu Oct 16 2025 17:22:42 GMT-0500 (Central Daylight Time),293662.2000000002,A,boy,O,y,281,1,1898.1000000005588,291764.0999999996,7205,WL,C,13.0
2,41.753000020980835,learn,18246.999979019165,Thu Oct 16 2025 17:22:42 GMT-0500 (Central Daylight Time),294179.2000000002,A,boyenter,O,enter,500,1,2415.100000000559,291764.0999999996,7205,WL,C,13.0
2,45.88600015640259,learn,14113.999843597412,Thu Oct 16 2025 17:22:42 GMT-0500 (Central Daylight Time),298311.5,A,h,O,h,4113,1,4132.0,294179.5,7205,WL,C,14.0
2,46.43500018119812,learn,13564.99981880188,Thu Oct 16 2025 17:22:42 GMT-0500 (Central Daylight Time),298860.7999999998,A,,O,backspace,532,1,4681.299999999814,294179.5,7205,WL,C,14.0
2,46.53500008583069,learn,13464.999914169312,Thu Oct 16 2025 17:22:42 GMT-0500 (Central Daylight Time),298960.0999999996,A,s,O,s,79,1,4780.5999999996275,294179.5,7205,WL,C,14.0
2,46.98399996757507,learn,13016.000032424927,Thu Oct 16 2025 17:22:42 GMT-0500 (Central Daylight Time),299409.5,A,sh,O,h,428,1,5230.0,294179.5,7205,WL,C,14.0
2,47.867000102996826,learn,12132.999897003174,Thu Oct 16 2025 17:22:42 GMT-0500 (Central Daylight Time),300292.7999999998,A,sho,O,o,865,1,6113.299999999814,294179.5,7205,WL,C,14.0
2,47.98399996757507,learn,12016.000032424927,Thu Oct 16 2025 17:22:42 GMT-0500 (Central Daylight Time),300409.5,A,shor,O,r,109,1,6230.0,294179.5,7205,WL,C,14.0
2,48.53600001335144,learn,11463.99998664856,Thu Oct 16 2025 17:22:42 GMT-0500 (Central Daylight Time),300961.5,A,shore,O,e,527,1,6782.0,294179.5,7205,WL,C,14.0
2,48.68300008773804,learn,11316.999912261963,Thu Oct 16 2025 17:22:42 GMT-0500 (Central Daylight Time),301108.39999999944,A,shoreenter,O,enter,137,1,6928.899999999441,294179.5,7205,WL,C,14.0
2,49.3510000705719,learn,10648.9999294281,Thu Oct 16 2025 17:22:42 GMT-0500 (Central Daylight Time),301776.7000000002,A,f,O,f,654,1,668.1000000005588,301108.5999999996,7205,WL,C,15.0
2,49.51900005340576,learn,10480.999946594238,Thu Oct 16 2025 17:22:42 GMT-0500 (Central Daylight Time),301944.2000000002,A,fl,O,l,147,1,835.6000000005588,301108.5999999996,7205,WL,C,15.0
2,49.65000009536743,learn,10349.999904632568,Thu Oct 16 2025 17:22:42 GMT-0500 (Central Daylight Time),302075.39999999944,A,fla,O,a,122,1,966.7999999998137,301108.5999999996,7205,WL,C,15.0
2,50.15000009536743,learn,9849.999904632568,Thu Oct 16 2025 17:22:42 GMT-0500 (Central Daylight Time),302575.7000000002,A,flag,O,g,489,1,1467.1000000005588,301108.5999999996,7205,WL,C,15.0
2,50.6010000705719,learn,9398.9999294281,Thu Oct 16 2025 17:22:42 GMT-0500 (Central Daylight Time),303026.39999999944,A,flagenter,O,enter,445,1,1917.7999999998137,301108.5999999996,7205,WL,C,15.0
3,1.7839999198913574,learn,58216.00008010864,Thu Oct 16 2025 17:22:42 GMT-0500 (Central Daylight Time),370654.39999999944,A,t,O,t,1774,1,1783.5999999996275,368870.7999999998,7205,WL,C,1.0
3,2.132999897003174,learn,57867.000102996826,Thu Oct 16 2025 17:22:42 GMT-0500 (Central Daylight Time),371004.0,A,to,O,o,341,1,2133.2000000001863,368870.7999999998,7205,WL,C,1.0
3,2.4670000076293945,learn,57532.999992370605,Thu Oct 16 2025 17:22:42 GMT-0500 (Central Daylight Time),371337.5,A,tow,O,w,319,1,2466.7000000001863,368870.7999999998,7205,WL,C,1.0
3,2.6989998817443848,learn,57301.000118255615,Thu Oct 16 2025 17:22:42 GMT-0500 (Central Daylight Time),371569.7000000002,A,towe,O,e,228,1,2698.9000000003725,368870.7999999998,7205,WL,C,1.0
3,2.8369998931884766,learn,57163.00010681152,Thu Oct 16 2025 17:22:42 GMT-0500 (Central Daylight Time),371708.2999999998,A,tower,O,r,123,1,2837.5,368870.7999999998,7205,WL,C,1.0
3,3.5,learn,56500.0,Thu Oct 16 2025 17:22:42 GMT-0500 (Central Daylight Time),372370.5,A,towerenter,O,enter,646,1,3499.7000000001863,368870.7999999998,7205,WL,C,1.0
3,5.797999858856201,learn,54202.0001411438,Thu Oct 16 2025 17:22:42 GMT-0500 (Central Daylight Time),374669.0,A,c,O,c,2281,1,2298.2000000001863,372370.7999999998,7205,WL,C,2.0
3,6.546999931335449,learn,53453.00006866455,Thu Oct 16 2025 17:22:42 GMT-0500 (Central Daylight Time),375417.7999999998,A,,O,backspace,743,1,3047.0,372370.7999999998,7205,WL,C,2.0
3,6.682999849319458,learn,53317.00015068054,Thu Oct 16 2025 17:22:42 GMT-0500 (Central Daylight Time),375553.7999999998,A,s,O,s,131,1,3183.0,372370.7999999998,7205,WL,C,2.0
3,6.930999994277954,learn,53069.000005722046,Thu Oct 16 2025 17:22:42 GMT-0500 (Central Daylight Time),375801.89999999944,A,sw,O,w,233,1,3431.0999999996275,372370.7999999998,7205,WL,C,2.0
3,7.365000009536743,learn,52634.99999046326,Thu Oct 16 2025 17:22:42 GMT-0500 (Central Daylight Time),376235.2999999998,A,s,O,backspace,416,1,3864.5,372370.7999999998,7205,WL,C,2.0
3,7.531999826431274,learn,52468.000173568726,Thu Oct 16 2025 17:22:42 GMT-0500 (Central Daylight Time),376402.5999999996,A,,O,backspace,153,1,4031.7999999998137,372370.7999999998,7205,WL,C,2.0
3,7.699999809265137,learn,52300.00019073486,Thu Oct 16 2025 17:22:42 GMT-0500 (Central Daylight Time),376570.7999999998,A,w,O,w,151,1,4200.0,372370.7999999998,7205,WL,C,2.0
3,8.196999788284302,learn,51803.0002117157,Thu Oct 16 2025 17:22:42 GMT-0500 (Central Daylight Time),377067.89999999944,A,wh,O,h,482,1,4697.0999999996275,372370.7999999998,7205,WL,C,2.0
3,8.531999826431274,learn,51468.000173568726,Thu Oct 16 2025 17:22:42 GMT-0500 (Central Daylight Time),377402.89999999944,A,whe,O,e,321,1,5032.0999999996275,372370.7999999998,7205,WL,C,2.0
3,8.66599988937378,learn,51334.00011062622,Thu Oct 16 2025 17:22:42 GMT-0500 (Central Daylight Time),377536.89999999944,A,whea,O,a,122,1,5166.0999999996275,372370.7999999998,7205,WL,C,2.0
3,8.847999811172485,learn,51152.000188827515,Thu Oct 16 2025 17:22:42 GMT-0500 (Central Daylight Time),377718.7000000002,A,wheat,O,t,163,1,5347.9000000003725,372370.7999999998,7205,WL,C,2.0
3,9.312999963760376,learn,50687.000036239624,Thu Oct 16 2025 17:22:42 GMT-0500 (Central Daylight Time),378183.7999999998,A,wheatenter,O,enter,451,1,5813.0,372370.7999999998,7205,WL,C,2.0
3,13.44599986076355,learn,46554.00013923645,Thu Oct 16 2025 17:22:42 GMT-0500 (Central Daylight Time),382316.5999999996,A,c,O,c,4116,1,4132.5,378184.0999999996,7205,WL,C,3.0
3,13.646999835968018,learn,46353.00016403198,Thu Oct 16 2025 17:22:42 GMT-0500 (Central Daylight Time),382518.0999999996,A,ca,O,a,185,1,4334.0,378184.0999999996,7205,WL,C,3.0
3,13.812999963760376,learn,46187.000036239624,Thu Oct 16 2025 17:22:42 GMT-0500 (Central Daylight Time),382683.7000000002,A,cam,O,m,156,1,4499.600000000559,378184.0999999996,7205,WL,C,3.0
3,14.046000003814697,learn,45953.9999961853,Thu Oct 16 2025 17:22:42 GMT-0500 (Central Daylight Time),382916.2999999998,A,camp,O,p,217,1,4732.200000000186,378184.0999999996,7205,WL,C,3.0
3,14.711999893188477,learn,45288.00010681152,Thu Oct 16 2025 17:22:42 GMT-0500 (Central Daylight Time),383582.7000000002,A,campenter,O,enter,654,1,5398.600000000559,378184.0999999996,7205,WL,C,3.0
3,15.961999893188477,learn,44038.00010681152,Thu Oct 16 2025 17:22:42 GMT-0500 (Central Daylight Time),384832.7999999998,A,l,O,l,1246,1,1249.9000000003725,383582.89999999944,7205,WL,C,4.0
3,16.244999885559082,learn,43755.00011444092,Thu Oct 16 2025 17:22:42 GMT-0500 (Central Daylight Time),385115.7999999998,A,le,O,e,273,1,1532.9000000003725,383582.89999999944,7205,WL,C,4.0
3,16.811999797821045,learn,43188.000202178955,Thu Oct 16 2025 17:22:42 GMT-0500 (Central Daylight Time),385682.5,A,let,O,t,553,1,2099.600000000559,383582.89999999944,7205,WL,C,4.0
3,16.995999813079834,learn,43004.000186920166,Thu Oct 16 2025 17:22:42 GMT-0500 (Central Daylight Time),385866.5999999996,A,lett,O,t,178,1,2283.7000000001863,383582.89999999944,7205,WL,C,4.0
3,17.244999885559082,learn,42755.00011444092,Thu Oct 16 2025 17:22:42 GMT-0500 (Central Daylight Time),386115.7999999998,A,lette,O,e,233,1,2532.9000000003725,383582.89999999944,7205,WL,C,4.0
3,17.378999948501587,learn,42621.00005149841,Thu Oct 16 2025 17:22:42 GMT-0500 (Central Daylight Time),386250.0999999996,A,letter,O,r,113,1,2667.2000000001863,383582.89999999944,7205,WL,C,4.0
3,17.66099977493286,learn,42339.00022506714,Thu Oct 16 2025 17:22:42 GMT-0500 (Central Daylight Time),386531.89999999944,A,letterenter,O,enter,266,1,2949.0,383582.89999999944,7205,WL,C,4.0
3,18.411999940872192,learn,41588.00005912781,Thu Oct 16 2025 17:22:42 GMT-0500 (Central Daylight Time),387283.0,A,f,O,f,748,1,750.9000000003725,386532.0999999996,7205,WL,C,5.0
3,18.644999980926514,learn,41355.000019073486,Thu Oct 16 2025 17:22:42 GMT-0500 (Central Daylight Time),387516.2000000002,A,fl,O,l,227,1,984.1000000005588,386532.0999999996,7205,WL,C,5.0
3,18.859999895095825,learn,41140.000104904175,Thu Oct 16 2025 17:22:42 GMT-0500 (Central Daylight Time),387730.89999999944,A,fla,O,a,199,1,1198.7999999998137,386532.0999999996,7205,WL,C,5.0
3,19.41099977493286,learn,40589.00022506714,Thu Oct 16 2025 17:22:42 GMT-0500 (Central Daylight Time),388281.5,A,flag,O,g,546,1,1749.4000000003725,386532.0999999996,7205,WL,C,5.0
3,19.861999988555908,learn,40138.00001144409,Thu Oct 16 2025 17:22:42 GMT-0500 (Central Daylight Time),388732.5999999996,A,flagenter,O,enter,433,1,2200.5,386532.0999999996,7205,WL,C,5.0
3,21.027999877929688,learn,38972.00012207031,Thu Oct 16 2025 17:22:42 GMT-0500 (Central Daylight Time),389898.39999999944,A,b,O,b,1160,1,1165.3999999994412,388733.0,7205,WL,C,6.0
3,21.194999933242798,learn,38805.0000667572,Thu Oct 16 2025 17:22:42 GMT-0500 (Central Daylight Time),390066.0,A,bo,O,o,153,1,1333.0,388733.0,7205,WL,C,6.0
3,21.543999910354614,learn,38456.000089645386,Thu Oct 16 2025 17:22:42 GMT-0500 (Central Daylight Time),390414.5999999996,A,boy,O,y,338,1,1681.5999999996275,388733.0,7205,WL,C,6.0
3,22.359999895095825,learn,37640.000104904175,Thu Oct 16 2025 17:22:42 GMT-0500 (Central Daylight Time),391230.5,A,boyenter,O,enter,799,1,2497.5,388733.0,7205,WL,C,6.0
3,22.876999855041504,learn,37123.000144958496,Thu Oct 16 2025 17:22:42 GMT-0500 (Central Daylight Time),391748.0999999996,A,b,O,b,503,1,517.3999999994412,391230.7000000002,7205,WL,C,7.0
3,23.242999792099,learn,36757.000207901,Thu Oct 16 2025 17:22:42 GMT-0500 (Central Daylight Time),392113.7999999998,A,bo,O,o,361,1,883.0999999996275,391230.7000000002,7205,WL,C,7.0
3,24.491999864578247,learn,35508.00013542175,Thu Oct 16 2025 17:22:42 GMT-0500 (Central Daylight Time),393362.5999999996,A,bod,O,d,1241,1,2131.899999999441,391230.7000000002,7205,WL,C,7.0
3,24.89299988746643,learn,35107.00011253357,Thu Oct 16 2025 17:22:42 GMT-0500 (Central Daylight Time),393764.0,A,body,O,y,396,1,2533.2999999998137,391230.7000000002,7205,WL,C,7.0
3,25.72499990463257,learn,34275.00009536743,Thu Oct 16 2025 17:22:42 GMT-0500 (Central Daylight Time),394595.5,A,bodyenter,O,enter,822,1,3364.7999999998137,391230.7000000002,7205,WL,C,7.0
3,26.174999952316284,learn,33825.000047683716,Thu Oct 16 2025 17:22:42 GMT-0500 (Central Daylight Time),395045.5999999996,A,d,O,d,433,1,449.8999999994412,394595.7000000002,7205,WL,C,8.0
3,26.39299988746643,learn,33607.00011253357,Thu Oct 16 2025 17:22:42 GMT-0500 (Central Daylight Time),395263.5999999996,A,do,O,o,197,1,667.8999999994412,394595.7000000002,7205,WL,C,8.0
3,26.608999967575073,learn,33391.00003242493,Thu Oct 16 2025 17:22:42 GMT-0500 (Central Daylight Time),395479.2999999998,A,doc,O,c,203,1,883.5999999996275,394595.7000000002,7205,WL,C,8.0
3,26.858999967575073,learn,33141.00003242493,Thu Oct 16 2025 17:22:42 GMT-0500 (Central Daylight Time),395729.5999999996,A,doct,O,t,237,1,1133.8999999994412,394595.7000000002,7205,WL,C,8.0
3,26.97499990463257,learn,33025.00009536743,Thu Oct 16 2025 17:22:42 GMT-0500 (Central Daylight Time),395845.89999999944,A,docto,O,o,106,1,1250.199999999255,394595.7000000002,7205,WL,C,8.0
3,27.157999992370605,learn,32842.000007629395,Thu Oct 16 2025 17:22:42 GMT-0500 (Central Daylight Time),396028.2000000002,A,doctor,O,r,166,1,1432.5,394595.7000000002,7205,WL,C,8.0
3,27.82699990272522,learn,32173.00009727478,Thu Oct 16 2025 17:22:42 GMT-0500 (Central Daylight Time),396697.7999999998,A,doctorenter,O,enter,664,1,2102.0999999996275,394595.7000000002,7205,WL,C,8.0
3,29.925999879837036,learn,30074.000120162964,Thu Oct 16 2025 17:22:42 GMT-0500 (Central Daylight Time),398796.5,A,n,O,n,2094,1,2098.4000000003725,396698.0999999996,7205,WL,C,9.0
3,30.056999921798706,learn,29943.000078201294,Thu Oct 16 2025 17:22:42 GMT-0500 (Central Daylight Time),398927.7000000002,A,na,O,a,108,1,2229.600000000559,396698.0999999996,7205,WL,C,9.0
3,30.173999786376953,learn,29826.000213623047,Thu Oct 16 2025 17:22:42 GMT-0500 (Central Daylight Time),399045.0,A,nai,O,i,101,1,2346.9000000003725,396698.0999999996,7205,WL,C,9.0
3,30.35699987411499,learn,29643.00012588501,Thu Oct 16 2025 17:22:42 GMT-0500 (Central Daylight Time),399228.0,A,nail,O,l,167,1,2529.9000000003725,396698.0999999996,7205,WL,C,9.0
3,31.057999849319458,learn,28942.000150680542,Thu Oct 16 2025 17:22:42 GMT-0500 (Central Daylight Time),399928.5,A,nailenter,O,enter,680,1,3230.4000000003725,396698.0999999996,7205,WL,C,9.0
3,32.18899989128113,learn,27811.000108718872,Thu Oct 16 2025 17:22:42 GMT-0500 (Central Daylight Time),401060.2000000002,A,s,O,s,1115,1,1131.4000000003725,399928.7999999998,7205,WL,C,10.0
3,32.29099988937378,learn,27709.00011062622,Thu Oct 16 2025 17:22:42 GMT-0500 (Central Daylight Time),401161.7999999998,A,sh,O,h,97,1,1233.0,399928.7999999998,7205,WL,C,10.0
3,32.43899989128113,learn,27561.000108718872,Thu Oct 16 2025 17:22:42 GMT-0500 (Central Daylight Time),401309.89999999944,A,sho,O,o,137,1,1381.0999999996275,399928.7999999998,7205,WL,C,10.0
3,32.62299990653992,learn,27377.000093460083,Thu Oct 16 2025 17:22:42 GMT-0500 (Central Daylight Time),401494.2000000002,A,shor,O,r,174,1,1565.4000000003725,399928.7999999998,7205,WL,C,10.0
3,33.00599980354309,learn,26994.00019645691,Thu Oct 16 2025 17:22:42 GMT-0500 (Central Daylight Time),401877.2000000002,A,shore,O,e,365,1,1948.4000000003725,399928.7999999998,7205,WL,C,10.0
3,33.28999996185303,learn,26710.000038146973,Thu Oct 16 2025 17:22:42 GMT-0500 (Central Daylight Time),402161.2000000002,A,shoreenter,O,enter,260,1,2232.4000000003725,399928.7999999998,7205,WL,C,10.0
3,33.95699977874756,learn,26043.00022125244,Thu Oct 16 2025 17:22:42 GMT-0500 (Central Daylight Time),402827.2999999998,A,c,O,c,661,1,665.9000000003725,402161.39999999944,7205,WL,C,11.0
3,34.138999938964844,learn,25861.000061035156,Thu Oct 16 2025 17:22:42 GMT-0500 (Central Daylight Time),403009.2999999998,A,ca,O,a,167,1,847.9000000003725,402161.39999999944,7205,WL,C,11.0
3,34.32299995422363,learn,25677.000045776367,Thu Oct 16 2025 17:22:42 GMT-0500 (Central Daylight Time),403193.39999999944,A,cat,O,t,171,1,1032.0,402161.39999999944,7205,WL,C,11.0
3,34.60499978065491,learn,25395.000219345093,Thu Oct 16 2025 17:22:42 GMT-0500 (Central Daylight Time),403475.7000000002,A,catt,O,t,266,1,1314.300000000745,402161.39999999944,7205,WL,C,11.0
3,34.871999979019165,learn,25128.000020980835,Thu Oct 16 2025 17:22:42 GMT-0500 (Central Daylight Time),403743.0999999996,A,cattl,O,l,248,1,1581.7000000001863,402161.39999999944,7205,WL,C,11.0
3,35.02199983596802,learn,24978.000164031982,Thu Oct 16 2025 17:22:42 GMT-0500 (Central Daylight Time),403892.39999999944,A,cattle,O,e,141,1,1731.0,402161.39999999944,7205,WL,C,11.0
3,35.43899989128113,learn,24561.000108718872,Thu Oct 16 2025 17:22:42 GMT-0500 (Central Daylight Time),404309.5999999996,A,cattleenter,O,enter,402,1,2148.2000000001863,402161.39999999944,7205,WL,C,11.0
3,36.32499980926514,learn,23675.000190734863,Thu Oct 16 2025 17:22:42 GMT-0500 (Central Daylight Time),405195.7000000002,A,c,O,c,865,1,885.8000000007451,404309.89999999944,7205,WL,C,12.0
3,36.38800001144409,learn,23611.99998855591,Thu Oct 16 2025 17:22:42 GMT-0500 (Central Daylight Time),405258.89999999944,A,co,O,o,48,1,949.0,404309.89999999944,7205,WL,C,12.0
3,36.58899998664856,learn,23411.00001335144,Thu Oct 16 2025 17:22:42 GMT-0500 (Central Daylight Time),405460.2999999998,A,cor,O,r,196,1,1150.4000000003725,404309.89999999944,7205,WL,C,12.0
3,38.10599994659424,learn,21894.00005340576,Thu Oct 16 2025 17:22:42 GMT-0500 (Central Daylight Time),406977.2000000002,A,corn,O,n,1513,1,2667.300000000745,404309.89999999944,7205,WL,C,12.0
3,38.40499997138977,learn,21595.00002861023,Thu Oct 16 2025 17:22:42 GMT-0500 (Central Daylight Time),407275.2999999998,A,cornenter,O,enter,290,1,2965.4000000003725,404309.89999999944,7205,WL,C,12.0
3,38.75599980354309,learn,21244.00019645691,Thu Oct 16 2025 17:22:42 GMT-0500 (Central Daylight Time),407626.89999999944,A,w,O,w,336,1,351.3999999994412,407275.5,7205,WL,C,13.0
3,39.10599994659424,learn,20894.00005340576,Thu Oct 16 2025 17:22:42 GMT-0500 (Central Daylight Time),407977.2000000002,A,wh,O,h,337,1,701.7000000001863,407275.5,7205,WL,C,13.0
3,39.20899987220764,learn,20791.00012779236,Thu Oct 16 2025 17:22:42 GMT-0500 (Central Daylight Time),408080.0999999996,A,wha,O,a,80,1,804.5999999996275,407275.5,7205,WL,C,13.0
3,39.937999963760376,learn,20062.000036239624,Thu Oct 16 2025 17:22:42 GMT-0500 (Central Daylight Time),408809.0999999996,A,whae,O,e,726,1,1533.5999999996275,407275.5,7205,WL,C,13.0
3,40.120999813079834,learn,19879.000186920166,Thu Oct 16 2025 17:22:42 GMT-0500 (Central Daylight Time),408991.39999999944,A,whaea,O,a,161,1,1715.8999999994412,407275.5,7205,WL,C,13.0
3,40.30399990081787,learn,19696.00009918213,Thu Oct 16 2025 17:22:42 GMT-0500 (Central Daylight Time),409174.5999999996,A,whaeat,O,t,163,1,1899.0999999996275,407275.5,7205,WL,C,13.0
3,40.86999988555908,learn,19130.000114440918,Thu Oct 16 2025 17:22:42 GMT-0500 (Central Daylight Time),409741.0999999996,A,whaea,O,backspace,555,1,2465.5999999996275,407275.5,7205,WL,C,13.0
3,41.03699994087219,learn,18963.000059127808,Thu Oct 16 2025 17:22:42 GMT-0500 (Central Daylight Time),409907.5999999996,A,whae,O,backspace,145,1,2632.0999999996275,407275.5,7205,WL,C,13.0
3,41.186999797821045,learn,18813.000202178955,Thu Oct 16 2025 17:22:42 GMT-0500 (Central Daylight Time),410057.5999999996,A,wha,O,backspace,140,1,2782.0999999996275,407275.5,7205,WL,C,13.0
3,41.36999988555908,learn,18630.000114440918,Thu Oct 16 2025 17:22:42 GMT-0500 (Central Daylight Time),410240.7999999998,A,wh,O,backspace,173,1,2965.2999999998137,407275.5,7205,WL,C,13.0
3,41.70299983024597,learn,18297.00016975403,Thu Oct 16 2025 17:22:42 GMT-0500 (Central Daylight Time),410574.0999999996,A,whe,O,e,321,1,3298.5999999996275,407275.5,7205,WL,C,13.0
3,41.83699989318848,learn,18163.000106811523,Thu Oct 16 2025 17:22:42 GMT-0500 (Central Daylight Time),410707.5,A,whea,O,a,122,1,3432.0,407275.5,7205,WL,C,13.0
3,42.020999908447266,learn,17979.000091552734,Thu Oct 16 2025 17:22:42 GMT-0500 (Central Daylight Time),410891.7999999998,A,wheat,O,t,175,1,3616.2999999998137,407275.5,7205,WL,C,13.0
3,42.319000005722046,learn,17680.999994277954,Thu Oct 16 2025 17:22:42 GMT-0500 (Central Daylight Time),411189.7999999998,A,wheatenter,O,enter,286,1,3914.2999999998137,407275.5,7205,WL,C,13.0
3,43.335999965667725,learn,16664.000034332275,Thu Oct 16 2025 17:22:42 GMT-0500 (Central Daylight Time),412206.89999999944,A,h,O,h,998,1,1016.8999999994412,411190.0,7205,WL,C,14.0
3,43.48699998855591,learn,16513.00001144409,Thu Oct 16 2025 17:22:42 GMT-0500 (Central Daylight Time),412357.7000000002,A,ho,O,o,130,1,1167.7000000001863,411190.0,7205,WL,C,14.0
3,43.70299983024597,learn,16297.000169754028,Thu Oct 16 2025 17:22:42 GMT-0500 (Central Daylight Time),412573.5999999996,A,hon,O,n,196,1,1383.5999999996275,411190.0,7205,WL,C,14.0
3,43.90299987792969,learn,16097.000122070312,Thu Oct 16 2025 17:22:42 GMT-0500 (Central Daylight Time),412773.5,A,hone,O,e,187,1,1583.5,411190.0,7205,WL,C,14.0
3,44.18599987030029,learn,15814.000129699707,Thu Oct 16 2025 17:22:42 GMT-0500 (Central Daylight Time),413057.0999999996,A,honey,O,y,258,1,1867.0999999996275,411190.0,7205,WL,C,14.0
3,44.73599982261658,learn,15264.000177383423,Thu Oct 16 2025 17:22:42 GMT-0500 (Central Daylight Time),413607.0,A,honeyenter,O,enter,526,1,2417.0,411190.0,7205,WL,C,14.0
3,46.16799998283386,learn,13832.000017166138,Thu Oct 16 2025 17:22:42 GMT-0500 (Central Daylight Time),415038.89999999944,A,q,O,q,1420,1,1431.699999999255,413607.2000000002,7205,WL,C,15.0
3,46.28499984741211,learn,13715.00015258789,Thu Oct 16 2025 17:22:42 GMT-0500 (Central Daylight Time),415156.2999999998,A,qu,O,u,102,1,1549.0999999996275,413607.2000000002,7205,WL,C,15.0
3,46.501999855041504,learn,13498.000144958496,Thu Oct 16 2025 17:22:42 GMT-0500 (Central Daylight Time),415372.5999999996,A,que,O,e,204,1,1765.3999999994412,413607.2000000002,7205,WL,C,15.0
3,47.00399994850159,learn,12996.000051498413,Thu Oct 16 2025 17:22:42 GMT-0500 (Central Daylight Time),415875.0,A,quee,O,e,493,1,2267.7999999998137,413607.2000000002,7205,WL,C,15.0
3,47.43599987030029,learn,12564.000129699707,Thu Oct 16 2025 17:22:42 GMT-0500 (Central Daylight Time),416306.7999999998,A,queen,O,n,414,1,2699.5999999996275,413607.2000000002,7205,WL,C,15.0
3,48.41799998283386,learn,11582.000017166138,Thu Oct 16 2025 17:22:42 GMT-0500 (Central Daylight Time),417289.2000000002,A,queenenter,O,enter,973,1,3682.0,413607.2000000002,7205,WL,C,15.0
4,1.3489999771118164,learn,58651.00002288818,Thu Oct 16 2025 17:22:42 GMT-0500 (Central Daylight Time),483751.0999999996,A,t,O,t,1329,1,1348.7000000001863,482402.39999999944,7205,WL,C,1.0
4,1.5820000171661377,learn,58417.99998283386,Thu Oct 16 2025 17:22:42 GMT-0500 (Central Daylight Time),483984.0,A,to,O,o,221,1,1581.6000000005588,482402.39999999944,7205,WL,C,1.0
4,1.8840000629425049,learn,58115.999937057495,Thu Oct 16 2025 17:22:42 GMT-0500 (Central Daylight Time),484285.7999999998,A,tow,O,w,291,1,1883.4000000003725,482402.39999999944,7205,WL,C,1.0
4,2.0989999771118164,learn,57901.00002288818,Thu Oct 16 2025 17:22:42 GMT-0500 (Central Daylight Time),484501.2000000002,A,towe,O,e,199,1,2098.800000000745,482402.39999999944,7205,WL,C,1.0
4,2.2330000400543213,learn,57766.99995994568,Thu Oct 16 2025 17:22:42 GMT-0500 (Central Daylight Time),484634.89999999944,A,tower,O,r,118,1,2232.5,482402.39999999944,7205,WL,C,1.0
4,2.697999954223633,learn,57302.00004577637,Thu Oct 16 2025 17:22:42 GMT-0500 (Central Daylight Time),485100.7000000002,A,towerenter,O,enter,456,1,2698.300000000745,482402.39999999944,7205,WL,C,1.0
4,3.8989999294281006,learn,56101.0000705719,Thu Oct 16 2025 17:22:42 GMT-0500 (Central Daylight Time),486301.2999999998,A,h,O,h,1197,1,1200.4000000003725,485100.89999999944,7205,WL,C,2.0
4,4.04800009727478,learn,55951.99990272522,Thu Oct 16 2025 17:22:42 GMT-0500 (Central Daylight Time),486450.39999999944,A,ho,O,o,142,1,1349.5,485100.89999999944,7205,WL,C,2.0
4,4.265000104904175,learn,55734.999895095825,Thu Oct 16 2025 17:22:42 GMT-0500 (Central Daylight Time),486666.89999999944,A,hom,O,m,213,1,1566.0,485100.89999999944,7205,WL,C,2.0
4,4.430999994277954,learn,55569.000005722046,Thu Oct 16 2025 17:22:42 GMT-0500 (Central Daylight Time),486833.0,A,home,O,e,161,1,1732.1000000005588,485100.89999999944,7205,WL,C,2.0
4,5.013999938964844,learn,54986.000061035156,Thu Oct 16 2025 17:22:42 GMT-0500 (Central Daylight Time),487416.2999999998,A,homeenter,O,enter,571,1,2315.4000000003725,485100.89999999944,7205,WL,C,2.0
4,5.414999961853027,learn,54585.00003814697,Thu Oct 16 2025 17:22:42 GMT-0500 (Central Daylight Time),487817.39999999944,A,w,O,w,396,1,400.79999999981374,487416.5999999996,7205,WL,C,3.0
4,5.650000095367432,learn,54349.99990463257,Thu Oct 16 2025 17:22:42 GMT-0500 (Central Daylight Time),488051.89999999944,A,wh,O,h,228,1,635.2999999998137,487416.5999999996,7205,WL,C,3.0
4,5.7809998989105225,learn,54219.00010108948,Thu Oct 16 2025 17:22:42 GMT-0500 (Central Daylight Time),488183.0999999996,A,whe,O,e,120,1,766.5,487416.5999999996,7205,WL,C,3.0
4,5.914000034332275,learn,54085.999965667725,Thu Oct 16 2025 17:22:42 GMT-0500 (Central Daylight Time),488316.0,A,whea,O,a,116,1,899.4000000003725,487416.5999999996,7205,WL,C,3.0
4,6.263999938964844,learn,53736.000061035156,Thu Oct 16 2025 17:22:42 GMT-0500 (Central Daylight Time),488666.0999999996,A,wheat,O,t,344,1,1249.5,487416.5999999996,7205,WL,C,3.0
4,6.4649999141693115,learn,53535.00008583069,Thu Oct 16 2025 17:22:42 GMT-0500 (Central Daylight Time),488867.39999999944,A,wheatenter,O,enter,186,1,1450.7999999998137,487416.5999999996,7205,WL,C,3.0
4,7.246999979019165,learn,52753.000020980835,Thu Oct 16 2025 17:22:42 GMT-0500 (Central Daylight Time),489648.7999999998,A,c,O,c,777,1,781.0999999996275,488867.7000000002,7205,WL,C,4.0
4,7.397000074386597,learn,52602.9999256134,Thu Oct 16 2025 17:22:42 GMT-0500 (Central Daylight Time),489798.89999999944,A,co,O,o,132,1,931.1999999992549,488867.7000000002,7205,WL,C,4.0
4,7.5299999713897705,learn,52470.00002861023,Thu Oct 16 2025 17:22:42 GMT-0500 (Central Daylight Time),489932.2999999998,A,cor,O,r,123,1,1064.5999999996275,488867.7000000002,7205,WL,C,4.0
4,8.062999963760376,learn,51937.000036239624,Thu Oct 16 2025 17:22:42 GMT-0500 (Central Daylight Time),490465.0999999996,A,corn,O,n,513,1,1597.3999999994412,488867.7000000002,7205,WL,C,4.0
4,8.46399998664856,learn,51536.00001335144,Thu Oct 16 2025 17:22:42 GMT-0500 (Central Daylight Time),490866.0999999996,A,cornenter,O,enter,395,1,1998.3999999994412,488867.7000000002,7205,WL,C,4.0
4,9.430999994277954,learn,50569.000005722046,Thu Oct 16 2025 17:22:42 GMT-0500 (Central Daylight Time),491833.5,A,c,O,c,962,1,967.2000000001863,490866.2999999998,7205,WL,C,5.0
4,9.61299991607666,learn,50387.00008392334,Thu Oct 16 2025 17:22:42 GMT-0500 (Central Daylight Time),492015.39999999944,A,ca,O,a,161,1,1149.0999999996275,490866.2999999998,7205,WL,C,5.0
4,9.77999997138977,learn,50220.00002861023,Thu Oct 16 2025 17:22:42 GMT-0500 (Central Daylight Time),492181.7999999998,A,cam,O,m,157,1,1315.5,490866.2999999998,7205,WL,C,5.0
4,9.980000019073486,learn,50019.999980926514,Thu Oct 16 2025 17:22:42 GMT-0500 (Central Daylight Time),492382.0,A,camp,O,p,182,1,1515.7000000001863,490866.2999999998,7205,WL,C,5.0
4,10.730999946594238,learn,49269.00005340576,Thu Oct 16 2025 17:22:42 GMT-0500 (Central Daylight Time),493132.89999999944,A,campenter,O,enter,744,1,2266.5999999996275,490866.2999999998,7205,WL,C,5.0
4,11.36299991607666,learn,48637.00008392334,Thu Oct 16 2025 17:22:42 GMT-0500 (Central Daylight Time),493764.7000000002,A,h,O,h,616,1,631.7000000001863,493133.0,7205,WL,C,6.0
4,11.545000076293945,learn,48454.999923706055,Thu Oct 16 2025 17:22:42 GMT-0500 (Central Daylight Time),493947.2999999998,A,ho,O,o,169,1,814.2999999998137,493133.0,7205,WL,C,6.0
4,11.76200008392334,learn,48237.99991607666,Thu Oct 16 2025 17:22:42 GMT-0500 (Central Daylight Time),494164.2999999998,A,hom,O,m,200,1,1031.2999999998137,493133.0,7205,WL,C,6.0
4,11.911999940872192,learn,48088.00005912781,Thu Oct 16 2025 17:22:42 GMT-0500 (Central Daylight Time),494314.5999999996,A,home,O,e,135,1,1181.5999999996275,493133.0,7205,WL,C,6.0
4,12.194999933242798,learn,47805.0000667572,Thu Oct 16 2025 17:22:42 GMT-0500 (Central Daylight Time),494597.0999999996,A,homeenter,O,enter,266,1,1464.0999999996275,493133.0,7205,WL,C,6.0
4,12.913000106811523,learn,47086.99989318848,Thu Oct 16 2025 17:22:42 GMT-0500 (Central Daylight Time),495315.2999999998,A,f,O,f,713,1,718.0,494597.2999999998,7205,WL,C,7.0
4,13.09500002861023,learn,46904.99997138977,Thu Oct 16 2025 17:22:42 GMT-0500 (Central Daylight Time),495497.0999999996,A,fl,O,l,167,1,899.7999999998137,494597.2999999998,7205,WL,C,7.0
4,13.246000051498413,learn,46753.99994850159,Thu Oct 16 2025 17:22:42 GMT-0500 (Central Daylight Time),495647.7999999998,A,fla,O,a,130,1,1050.5,494597.2999999998,7205,WL,C,7.0
4,14.211999893188477,learn,45788.00010681152,Thu Oct 16 2025 17:22:42 GMT-0500 (Central Daylight Time),496614.2999999998,A,flag,O,g,955,1,2017.0,494597.2999999998,7205,WL,C,7.0
4,14.444999933242798,learn,45555.0000667572,Thu Oct 16 2025 17:22:42 GMT-0500 (Central Daylight Time),496847.2000000002,A,flagenter,O,enter,214,1,2249.9000000003725,494597.2999999998,7205,WL,C,7.0
4,14.944000005722046,learn,45055.999994277954,Thu Oct 16 2025 17:22:42 GMT-0500 (Central Daylight Time),497346.0,A,l,O,l,492,1,498.6000000005588,496847.39999999944,7205,WL,C,8.0
4,15.161999940872192,learn,44838.00005912781,Thu Oct 16 2025 17:22:42 GMT-0500 (Central Daylight Time),497564.39999999944,A,le,O,e,203,1,717.0,496847.39999999944,7205,WL,C,8.0
4,15.461999893188477,learn,44538.00010681152,Thu Oct 16 2025 17:22:42 GMT-0500 (Central Daylight Time),497864.2000000002,A,let,O,t,278,1,1016.8000000007451,496847.39999999944,7205,WL,C,8.0
4,15.976999998092651,learn,44023.00000190735,Thu Oct 16 2025 17:22:42 GMT-0500 (Central Daylight Time),498379.2000000002,A,lett,O,t,498,1,1531.800000000745,496847.39999999944,7205,WL,C,8.0
4,16.17899990081787,learn,43821.00009918213,Thu Oct 16 2025 17:22:42 GMT-0500 (Central Daylight Time),498581.5999999996,A,lette,O,e,193,1,1734.2000000001863,496847.39999999944,7205,WL,C,8.0
4,16.277999877929688,learn,43722.00012207031,Thu Oct 16 2025 17:22:42 GMT-0500 (Central Daylight Time),498679.7999999998,A,letter,O,r,85,1,1832.4000000003725,496847.39999999944,7205,WL,C,8.0
4,16.460000038146973,learn,43539.99996185303,Thu Oct 16 2025 17:22:42 GMT-0500 (Central Daylight Time),498861.89999999944,A,letterenter,O,enter,163,1,2014.5,496847.39999999944,7205,WL,C,8.0
4,17.594000101089478,learn,42405.99989891052,Thu Oct 16 2025 17:22:42 GMT-0500 (Central Daylight Time),499996.0,A,b,O,b,1118,1,1133.9000000003725,498862.0999999996,7205,WL,C,9.0
4,17.710000038146973,learn,42289.99996185303,Thu Oct 16 2025 17:22:42 GMT-0500 (Central Daylight Time),500112.5,A,bo,O,o,110,1,1250.4000000003725,498862.0999999996,7205,WL,C,9.0
4,18.111000061035156,learn,41888.999938964844,Thu Oct 16 2025 17:22:42 GMT-0500 (Central Daylight Time),500513.2999999998,A,bod,O,d,378,1,1651.2000000001863,498862.0999999996,7205,WL,C,9.0
4,19.243000030517578,learn,40756.99996948242,Thu Oct 16 2025 17:22:42 GMT-0500 (Central Daylight Time),501644.89999999944,A,bo,O,backspace,1110,1,2782.7999999998137,498862.0999999996,7205,WL,C,9.0
4,20.063999891281128,learn,39936.00010871887,Thu Oct 16 2025 17:22:42 GMT-0500 (Central Daylight Time),502466.0999999996,A,boy,O,y,800,1,3604.0,498862.0999999996,7205,WL,C,9.0
4,20.609999895095825,learn,39390.000104904175,Thu Oct 16 2025 17:22:42 GMT-0500 (Central Daylight Time),503012.0,A,boyenter,O,enter,540,1,4149.9000000003725,498862.0999999996,7205,WL,C,9.0
4,21.2260000705719,learn,38773.9999294281,Thu Oct 16 2025 17:22:42 GMT-0500 (Central Daylight Time),503628.39999999944,A,d,O,d,610,1,616.1999999992549,503012.2000000002,7205,WL,C,10.0
4,22.158999919891357,learn,37841.00008010864,Thu Oct 16 2025 17:22:42 GMT-0500 (Central Daylight Time),504561.5999999996,A,do,O,o,920,1,1549.3999999994412,503012.2000000002,7205,WL,C,10.0
4,22.29200005531311,learn,37707.99994468689,Thu Oct 16 2025 17:22:42 GMT-0500 (Central Daylight Time),504694.5,A,doc,O,c,122,1,1682.2999999998137,503012.2000000002,7205,WL,C,10.0
4,22.543999910354614,learn,37456.000089645386,Thu Oct 16 2025 17:22:42 GMT-0500 (Central Daylight Time),504945.89999999944,A,doct,O,t,237,1,1933.699999999255,503012.2000000002,7205,WL,C,10.0
4,22.72499990463257,learn,37275.00009536743,Thu Oct 16 2025 17:22:42 GMT-0500 (Central Daylight Time),505127.5,A,docto,O,o,161,1,2115.2999999998137,503012.2000000002,7205,WL,C,10.0
4,22.842000007629395,learn,37157.999992370605,Thu Oct 16 2025 17:22:42 GMT-0500 (Central Daylight Time),505244.5999999996,A,doctor,O,r,98,1,2232.399999999441,503012.2000000002,7205,WL,C,10.0
4,23.20900011062622,learn,36790.99988937378,Thu Oct 16 2025 17:22:42 GMT-0500 (Central Daylight Time),505611.0999999996,A,doctorenter,O,enter,350,1,2598.899999999441,503012.2000000002,7205,WL,C,10.0
4,23.674999952316284,learn,36325.000047683716,Thu Oct 16 2025 17:22:42 GMT-0500 (Central Daylight Time),506077.2999999998,A,b,O,b,451,1,466.0,505611.2999999998,7205,WL,C,11.0
4,23.907999992370605,learn,36092.000007629395,Thu Oct 16 2025 17:22:42 GMT-0500 (Central Daylight Time),506310.5999999996,A,bo,O,o,223,1,699.2999999998137,505611.2999999998,7205,WL,C,11.0
4,24.092000007629395,learn,35907.999992370605,Thu Oct 16 2025 17:22:42 GMT-0500 (Central Daylight Time),506493.7999999998,A,bod,O,d,165,1,882.5,505611.2999999998,7205,WL,C,11.0
4,24.257999897003174,learn,35742.000102996826,Thu Oct 16 2025 17:22:42 GMT-0500 (Central Daylight Time),506659.89999999944,A,body,O,y,157,1,1048.5999999996275,505611.2999999998,7205,WL,C,11.0
4,24.759999990463257,learn,35240.00000953674,Thu Oct 16 2025 17:22:42 GMT-0500 (Central Daylight Time),507161.7999999998,A,bodyenter,O,enter,499,1,1550.5,505611.2999999998,7205,WL,C,11.0
4,25.45799994468689,learn,34542.00005531311,Thu Oct 16 2025 17:22:42 GMT-0500 (Central Daylight Time),507860.39999999944,A,n,O,n,681,1,698.3999999994412,507162.0,7205,WL,C,12.0
4,25.558000087738037,learn,34441.99991226196,Thu Oct 16 2025 17:22:42 GMT-0500 (Central Daylight Time),507960.5,A,na,O,a,79,1,798.5,507162.0,7205,WL,C,12.0
4,25.70799994468689,learn,34292.00005531311,Thu Oct 16 2025 17:22:42 GMT-0500 (Central Daylight Time),508110.2000000002,A,nai,O,i,129,1,948.2000000001863,507162.0,7205,WL,C,12.0
4,26.259000062942505,learn,33740.999937057495,Thu Oct 16 2025 17:22:42 GMT-0500 (Central Daylight Time),508661.39999999944,A,nail,O,l,543,1,1499.3999999994412,507162.0,7205,WL,C,12.0
4,26.808000087738037,learn,33191.99991226196,Thu Oct 16 2025 17:22:42 GMT-0500 (Central Daylight Time),509209.7000000002,A,nailenter,O,enter,536,1,2047.7000000001863,507162.0,7205,WL,C,12.0
4,27.425999879837036,learn,32574.000120162964,Thu Oct 16 2025 17:22:42 GMT-0500 (Central Daylight Time),509827.7000000002,A,c,O,c,602,1,617.7000000001863,509210.0,7205,WL,C,13.0
4,27.591000080108643,learn,32408.999919891357,Thu Oct 16 2025 17:22:42 GMT-0500 (Central Daylight Time),509993.2999999998,A,ca,O,a,153,1,783.2999999998137,509210.0,7205,WL,C,13.0
4,27.740999937057495,learn,32259.000062942505,Thu Oct 16 2025 17:22:42 GMT-0500 (Central Daylight Time),510143.5999999996,A,cat,O,t,138,1,933.5999999996275,509210.0,7205,WL,C,13.0
4,27.94099998474121,learn,32059.00001525879,Thu Oct 16 2025 17:22:42 GMT-0500 (Central Daylight Time),510343.5,A,catt,O,t,188,1,1133.5,509210.0,7205,WL,C,13.0
4,28.19099998474121,learn,31809.00001525879,Thu Oct 16 2025 17:22:42 GMT-0500 (Central Daylight Time),510592.7000000002,A,cattl,O,l,228,1,1382.7000000001863,509210.0,7205,WL,C,13.0
4,28.32200002670288,learn,31677.99997329712,Thu Oct 16 2025 17:22:42 GMT-0500 (Central Daylight Time),510724.5999999996,A,cattle,O,e,115,1,1514.5999999996275,509210.0,7205,WL,C,13.0
4,28.77300000190735,learn,31226.99999809265,Thu Oct 16 2025 17:22:42 GMT-0500 (Central Daylight Time),511175.5,A,cattleenter,O,enter,441,1,1965.5,509210.0,7205,WL,C,13.0
4,29.44000005722046,learn,30559.99994277954,Thu Oct 16 2025 17:22:42 GMT-0500 (Central Daylight Time),511842.5999999996,A,w,O,w,652,1,666.8999999994412,511175.7000000002,7205,WL,C,14.0
4,29.624000072479248,learn,30375.999927520752,Thu Oct 16 2025 17:22:42 GMT-0500 (Central Daylight Time),512025.7000000002,A,wh,O,h,170,1,850.0,511175.7000000002,7205,WL,C,14.0
4,29.75600004196167,learn,30243.99995803833,Thu Oct 16 2025 17:22:42 GMT-0500 (Central Daylight Time),512158.2999999998,A,whe,O,e,122,1,982.5999999996275,511175.7000000002,7205,WL,C,14.0
4,29.891000032424927,learn,30108.999967575073,Thu Oct 16 2025 17:22:42 GMT-0500 (Central Daylight Time),512293.0,A,whea,O,a,118,1,1117.2999999998137,511175.7000000002,7205,WL,C,14.0
4,30.072999954223633,learn,29927.000045776367,Thu Oct 16 2025 17:22:42 GMT-0500 (Central Daylight Time),512475.2999999998,A,wheat,O,t,165,1,1299.5999999996275,511175.7000000002,7205,WL,C,14.0
4,30.240000009536743,learn,29759.999990463257,Thu Oct 16 2025 17:22:42 GMT-0500 (Central Daylight Time),512642.5,A,wheatenter,O,enter,151,1,1466.7999999998137,511175.7000000002,7205,WL,C,14.0
4,31.42199993133545,learn,28578.00006866455,Thu Oct 16 2025 17:22:42 GMT-0500 (Central Daylight Time),513824.5,A,c,O,c,1169,1,1181.7000000001863,512642.7999999998,7205,WL,C,15.0
4,31.48799991607666,learn,28512.00008392334,Thu Oct 16 2025 17:22:42 GMT-0500 (Central Daylight Time),513890.5,A,co,O,o,51,1,1247.7000000001863,512642.7999999998,7205,WL,C,15.0
4,31.721999883651733,learn,28278.000116348267,Thu Oct 16 2025 17:22:42 GMT-0500 (Central Daylight Time),514124.5999999996,A,cor,O,r,225,1,1481.7999999998137,512642.7999999998,7205,WL,C,15.0
4,32.473000049591064,learn,27526.999950408936,Thu Oct 16 2025 17:22:42 GMT-0500 (Central Daylight Time),514874.89999999944,A,corn,O,n,736,1,2232.0999999996275,512642.7999999998,7205,WL,C,15.0
4,32.823999881744385,learn,27176.000118255615,Thu Oct 16 2025 17:22:42 GMT-0500 (Central Daylight Time),515225.7000000002,A,cornenter,O,enter,348,1,2582.9000000003725,512642.7999999998,7205,WL,C,15.0
5,1.6160001754760742,learn,60000.0,Thu Oct 16 2025 17:22:42 GMT-0500 (Central Daylight Time),582786.7000000002,A,t,O,t,1603,1,1616.300000000745,581170.3999999994,7205,WL,C,1.0
5,1.8500001430511475,learn,60000.0,Thu Oct 16 2025 17:22:42 GMT-0500 (Central Daylight Time),583020.2000000002,A,to,O,o,215,1,1849.800000000745,581170.3999999994,7205,WL,C,1.0
5,2.06600022315979,learn,60000.0,Thu Oct 16 2025 17:22:42 GMT-0500 (Central Daylight Time),583236.0,A,tow,O,w,206,1,2065.600000000559,581170.3999999994,7205,WL,C,1.0
5,2.7150001525878906,learn,60000.0,Thu Oct 16 2025 17:22:42 GMT-0500 (Central Daylight Time),583885.3999999994,A,towe,O,e,639,1,2715.0,581170.3999999994,7205,WL,C,1.0
5,2.8310000896453857,learn,60000.0,Thu Oct 16 2025 17:22:42 GMT-0500 (Central Daylight Time),584001.2000000002,A,tower,O,r,111,1,2830.800000000745,581170.3999999994,7205,WL,C,1.0
5,3.5480000972747803,learn,60000.0,Thu Oct 16 2025 17:22:42 GMT-0500 (Central Daylight Time),584718.2000000002,A,towerenter,O,enter,708,1,3547.800000000745,581170.3999999994,7205,WL,C,1.0
5,4.383000135421753,learn,60000.0,Thu Oct 16 2025 17:22:42 GMT-0500 (Central Daylight Time),585553.0,A,q,O,q,829,1,834.6000000005588,584718.3999999994,7205,WL,C,2.0
5,4.632000207901001,learn,60000.0,Thu Oct 16 2025 17:22:42 GMT-0500 (Central Daylight Time),585802.5,A,qu,O,u,243,1,1084.1000000005588,584718.3999999994,7205,WL,C,2.0
5,4.799000024795532,learn,60000.0,Thu Oct 16 2025 17:22:42 GMT-0500 (Central Daylight Time),585969.0,A,que,O,e,144,1,1250.6000000005588,584718.3999999994,7205,WL,C,2.0
5,5.1650002002716064,learn,60000.0,Thu Oct 16 2025 17:22:42 GMT-0500 (Central Daylight Time),586335.0999999996,A,quee,O,e,355,1,1616.7000000001863,584718.3999999994,7205,WL,C,2.0
5,5.814000129699707,learn,60000.0,Thu Oct 16 2025 17:22:42 GMT-0500 (Central Daylight Time),586984.0,A,queen,O,n,636,1,2265.600000000559,584718.3999999994,7205,WL,C,2.0
5,6.648000001907349,learn,60000.0,Thu Oct 16 2025 17:22:42 GMT-0500 (Central Daylight Time),587817.8999999994,A,queenenter,O,enter,829,1,3099.5,584718.3999999994,7205,WL,C,2.0
5,7.5990002155303955,learn,60000.0,Thu Oct 16 2025 17:22:42 GMT-0500 (Central Daylight Time),588769.0999999996,A,s,O,s,946,1,950.8999999994412,587818.2000000002,7205,WL,C,3.0
5,7.714000225067139,learn,60000.0,Thu Oct 16 2025 17:22:42 GMT-0500 (Central Daylight Time),588884.5999999996,A,su,O,u,98,1,1066.3999999994412,587818.2000000002,7205,WL,C,3.0
5,7.964000225067139,learn,60000.0,Thu Oct 16 2025 17:22:42 GMT-0500 (Central Daylight Time),589134.2000000002,A,sug,O,g,237,1,1316.0,587818.2000000002,7205,WL,C,3.0
5,8.230000019073486,learn,60000.0,Thu Oct 16 2025 17:22:42 GMT-0500 (Central Daylight Time),589400.5,A,suge,O,e,256,1,1582.2999999998137,587818.2000000002,7205,WL,C,3.0
5,8.313000202178955,learn,60000.0,Thu Oct 16 2025 17:22:42 GMT-0500 (Central Daylight Time),589483.2999999998,A,suger,O,r,75,1,1665.0999999996275,587818.2000000002,7205,WL,C,3.0
5,8.781000137329102,learn,60000.0,Thu Oct 16 2025 17:22:42 GMT-0500 (Central Daylight Time),589951.5,A,sugerenter,O,enter,448,1,2133.2999999998137,587818.2000000002,7205,WL,C,3.0
5,10.44700002670288,learn,60000.0,Thu Oct 16 2025 17:22:42 GMT-0500 (Central Daylight Time),591617.5999999996,A,h,O,h,1655,1,1665.7999999998137,589951.7999999998,7205,WL,C,4.0
5,10.61300015449524,learn,60000.0,Thu Oct 16 2025 17:22:42 GMT-0500 (Central Daylight Time),591783.0,A,ho,O,o,156,1,1831.2000000001863,589951.7999999998,7205,WL,C,4.0
5,10.864000082015991,learn,60000.0,Thu Oct 16 2025 17:22:42 GMT-0500 (Central Daylight Time),592034.5,A,hom,O,m,236,1,2082.7000000001863,589951.7999999998,7205,WL,C,4.0
5,10.979000091552734,learn,60000.0,Thu Oct 16 2025 17:22:42 GMT-0500 (Central Daylight Time),592149.0999999996,A,home,O,e,106,1,2197.2999999998137,589951.7999999998,7205,WL,C,4.0
5,11.396000146865845,learn,60000.0,Thu Oct 16 2025 17:22:42 GMT-0500 (Central Daylight Time),592566.5999999996,A,homeenter,O,enter,404,1,2614.7999999998137,589951.7999999998,7205,WL,C,4.0
5,12.646000146865845,learn,60000.0,Thu Oct 16 2025 17:22:42 GMT-0500 (Central Daylight Time),593816.0999999996,A,q,O,q,1238,1,1249.2000000001863,592566.8999999994,7205,WL,C,5.0
5,12.812000036239624,learn,60000.0,Thu Oct 16 2025 17:22:42 GMT-0500 (Central Daylight Time),593982.0999999996,A,qu,O,u,149,1,1415.2000000001863,592566.8999999994,7205,WL,C,5.0
5,12.996000051498413,learn,60000.0,Thu Oct 16 2025 17:22:42 GMT-0500 (Central Daylight Time),594166.5,A,que,O,e,166,1,1599.6000000005588,592566.8999999994,7205,WL,C,5.0
5,13.880000114440918,learn,60000.0,Thu Oct 16 2025 17:22:42 GMT-0500 (Central Daylight Time),595050.0999999996,A,quee,O,e,870,1,2483.2000000001863,592566.8999999994,7205,WL,C,5.0
5,14.34500002861023,learn,60000.0,Thu Oct 16 2025 17:22:42 GMT-0500 (Central Daylight Time),595515.7000000002,A,queen,O,n,460,1,2948.800000000745,592566.8999999994,7205,WL,C,5.0
5,15.111999988555908,learn,60000.0,Thu Oct 16 2025 17:22:42 GMT-0500 (Central Daylight Time),596282.2999999998,A,queenenter,O,enter,761,1,3715.4000000003725,592566.8999999994,7205,WL,C,5.0
5,15.561000108718872,learn,60000.0,Thu Oct 16 2025 17:22:42 GMT-0500 (Central Daylight Time),596730.7999999998,A,b,O,b,439,1,448.20000000018626,596282.5999999996,7205,WL,C,6.0
5,15.815000057220459,learn,60000.0,Thu Oct 16 2025 17:22:42 GMT-0500 (Central Daylight Time),596985.3999999994,A,bo,O,o,241,1,702.7999999998137,596282.5999999996,7205,WL,C,6.0
5,16.011000156402588,learn,60000.0,Thu Oct 16 2025 17:22:42 GMT-0500 (Central Daylight Time),597181.5,A,bod,O,d,186,1,898.9000000003725,596282.5999999996,7205,WL,C,6.0
5,16.17900013923645,learn,60000.0,Thu Oct 16 2025 17:22:42 GMT-0500 (Central Daylight Time),597349.3999999994,A,body,O,y,162,1,1066.7999999998137,596282.5999999996,7205,WL,C,6.0
5,16.761000156402588,learn,60000.0,Thu Oct 16 2025 17:22:42 GMT-0500 (Central Daylight Time),597931.2999999998,A,bodyenter,O,enter,576,1,1648.7000000001863,596282.5999999996,7205,WL,C,6.0
5,17.759999990463257,learn,60000.0,Thu Oct 16 2025 17:22:42 GMT-0500 (Central Daylight Time),598930.8999999994,A,d,O,d,985,1,999.2999999998137,597931.5999999996,7205,WL,C,7.0
5,17.859000205993652,learn,60000.0,Thu Oct 16 2025 17:22:42 GMT-0500 (Central Daylight Time),599030.0,A,do,O,o,81,1,1098.4000000003725,597931.5999999996,7205,WL,C,7.0
5,18.377000093460083,learn,60000.0,Thu Oct 16 2025 17:22:42 GMT-0500 (Central Daylight Time),599547.3999999994,A,doc,O,c,502,1,1615.7999999998137,597931.5999999996,7205,WL,C,7.0
5,18.72699999809265,learn,60000.0,Thu Oct 16 2025 17:22:42 GMT-0500 (Central Daylight Time),599897.5999999996,A,doct,O,t,337,1,1966.0,597931.5999999996,7205,WL,C,7.0
5,18.99400019645691,learn,60000.0,Thu Oct 16 2025 17:22:42 GMT-0500 (Central Daylight Time),600164.2000000002,A,doctr,O,r,259,1,2232.600000000559,597931.5999999996,7205,WL,C,7.0
5,19.659000158309937,learn,60000.0,Thu Oct 16 2025 17:22:42 GMT-0500 (Central Daylight Time),600830.0,A,doct,O,backspace,649,1,2898.4000000003725,597931.5999999996,7205,WL,C,7.0
5,20.026000022888184,learn,60000.0,Thu Oct 16 2025 17:22:42 GMT-0500 (Central Daylight Time),601196.3999999994,A,docto,O,o,359,1,3264.7999999998137,597931.5999999996,7205,WL,C,7.0
5,20.176000118255615,learn,60000.0,Thu Oct 16 2025 17:22:42 GMT-0500 (Central Daylight Time),601346.7999999998,A,doctor,O,r,137,1,3415.2000000001863,597931.5999999996,7205,WL,C,7.0
5,20.55900001525879,learn,60000.0,Thu Oct 16 2025 17:22:42 GMT-0500 (Central Daylight Time),601729.2000000002,A,doctorenter,O,enter,370,1,3797.600000000559,597931.5999999996,7205,WL,C,7.0
5,21.37600016593933,learn,60000.0,Thu Oct 16 2025 17:22:42 GMT-0500 (Central Daylight Time),602546.5,A,b,O,b,802,1,817.0,601729.5,7205,WL,C,8.0
5,21.54300022125244,learn,60000.0,Thu Oct 16 2025 17:22:42 GMT-0500 (Central Daylight Time),602713.5999999996,A,bo,O,o,161,1,984.0999999996275,601729.5,7205,WL,C,8.0
5,23.326000213623047,learn,60000.0,Thu Oct 16 2025 17:22:42 GMT-0500 (Central Daylight Time),604496.5999999996,A,boy,O,y,1769,1,2767.0999999996275,601729.5,7205,WL,C,8.0
5,23.892000198364258,learn,60000.0,Thu Oct 16 2025 17:22:42 GMT-0500 (Central Daylight Time),605062.0999999996,A,boyenter,O,enter,547,1,3332.5999999996275,601729.5,7205,WL,C,8.0
5,24.29200005531311,learn,60000.0,Thu Oct 16 2025 17:22:42 GMT-0500 (Central Daylight Time),605462.5,A,c,O,c,381,1,400.1000000005588,605062.3999999994,7205,WL,C,9.0
5,24.44100022315979,learn,60000.0,Thu Oct 16 2025 17:22:42 GMT-0500 (Central Daylight Time),605611.5,A,ca,O,a,141,1,549.1000000005588,605062.3999999994,7205,WL,C,9.0
5,24.741000175476074,learn,60000.0,Thu Oct 16 2025 17:22:42 GMT-0500 (Central Daylight Time),605911.8999999994,A,cam,O,m,289,1,849.5,605062.3999999994,7205,WL,C,9.0
5,24.991000175476074,learn,60000.0,Thu Oct 16 2025 17:22:42 GMT-0500 (Central Daylight Time),606161.5,A,camp,O,p,237,1,1099.1000000005588,605062.3999999994,7205,WL,C,9.0
5,25.825000047683716,learn,60000.0,Thu Oct 16 2025 17:22:42 GMT-0500 (Central Daylight Time),606996.0,A,campenter,O,enter,813,1,1933.6000000005588,605062.3999999994,7205,WL,C,9.0
5,26.674000024795532,learn,60000.0,Thu Oct 16 2025 17:22:42 GMT-0500 (Central Daylight Time),607844.7999999998,A,f,O,f,840,1,848.5999999996275,606996.2000000002,7205,WL,C,10.0
5,26.79200005531311,learn,60000.0,Thu Oct 16 2025 17:22:42 GMT-0500 (Central Daylight Time),607962.0999999996,A,fl,O,l,112,1,965.8999999994412,606996.2000000002,7205,WL,C,10.0
5,26.992000102996826,learn,60000.0,Thu Oct 16 2025 17:22:42 GMT-0500 (Central Daylight Time),608162.7999999998,A,fla,O,a,184,1,1166.5999999996275,606996.2000000002,7205,WL,C,10.0
5,27.507000207901,learn,60000.0,Thu Oct 16 2025 17:22:42 GMT-0500 (Central Daylight Time),608677.5999999996,A,flag,O,g,496,1,1681.3999999994412,606996.2000000002,7205,WL,C,10.0
5,27.907000064849854,learn,60000.0,Thu Oct 16 2025 17:22:42 GMT-0500 (Central Daylight Time),609077.0,A,flagenter,O,enter,389,1,2080.7999999998137,606996.2000000002,7205,WL,C,10.0
5,28.392000198364258,learn,60000.0,Thu Oct 16 2025 17:22:42 GMT-0500 (Central Daylight Time),609562.7000000002,A,l,O,l,464,1,485.40000000037253,609077.2999999998,7205,WL,C,11.0
5,28.557000160217285,learn,60000.0,Thu Oct 16 2025 17:22:42 GMT-0500 (Central Daylight Time),609727.5,A,le,O,e,153,1,650.2000000001863,609077.2999999998,7205,WL,C,11.0
5,28.874000072479248,learn,60000.0,Thu Oct 16 2025 17:22:42 GMT-0500 (Central Daylight Time),610044.5,A,let,O,t,301,1,967.2000000001863,609077.2999999998,7205,WL,C,11.0
5,29.055999994277954,learn,60000.0,Thu Oct 16 2025 17:22:42 GMT-0500 (Central Daylight Time),610226.3999999994,A,lett,O,t,174,1,1149.0999999996275,609077.2999999998,7205,WL,C,11.0
5,29.272000074386597,learn,60000.0,Thu Oct 16 2025 17:22:42 GMT-0500 (Central Daylight Time),610442.5999999996,A,lette,O,e,202,1,1365.2999999998137,609077.2999999998,7205,WL,C,11.0
5,29.356000185012817,learn,60000.0,Thu Oct 16 2025 17:22:42 GMT-0500 (Central Daylight Time),610527.0,A,letter,O,r,66,1,1449.7000000001863,609077.2999999998,7205,WL,C,11.0
5,29.973000049591064,learn,60000.0,Thu Oct 16 2025 17:22:42 GMT-0500 (Central Daylight Time),611143.7000000002,A,letterenter,O,enter,604,1,2066.4000000003725,609077.2999999998,7205,WL,C,11.0
5,30.558000087738037,learn,60000.0,Thu Oct 16 2025 17:22:42 GMT-0500 (Central Daylight Time),611728.2999999998,A,h,O,h,564,1,584.2999999998137,611144.0,7205,WL,C,12.0
5,30.67300009727478,learn,60000.0,Thu Oct 16 2025 17:22:42 GMT-0500 (Central Daylight Time),611844.0,A,ho,O,o,98,1,700.0,611144.0,7205,WL,C,12.0
5,30.94000005722046,learn,60000.0,Thu Oct 16 2025 17:22:42 GMT-0500 (Central Daylight Time),612110.3999999994,A,hom,O,m,248,1,966.3999999994412,611144.0,7205,WL,C,12.0
5,31.04100012779236,learn,60000.0,Thu Oct 16 2025 17:22:42 GMT-0500 (Central Daylight Time),612211.2999999998,A,home,O,e,96,1,1067.2999999998137,611144.0,7205,WL,C,12.0
5,31.372000217437744,learn,60000.0,Thu Oct 16 2025 17:22:42 GMT-0500 (Central Daylight Time),612542.8999999994,A,homeenter,O,enter,319,1,1398.8999999994412,611144.0,7205,WL,C,12.0
5,32.7720000743866,learn,60000.0,Thu Oct 16 2025 17:22:42 GMT-0500 (Central Daylight Time),613942.2000000002,A,c,O,c,1388,1,1399.1000000005588,612543.0999999996,7205,WL,C,13.0
5,32.97200012207031,learn,60000.0,Thu Oct 16 2025 17:22:42 GMT-0500 (Central Daylight Time),614142.5999999996,A,ca,O,a,183,1,1599.5,612543.0999999996,7205,WL,C,13.0
5,33.12600016593933,learn,60000.0,Thu Oct 16 2025 17:22:42 GMT-0500 (Central Daylight Time),614297.0999999996,A,cat,O,t,133,1,1754.0,612543.0999999996,7205,WL,C,13.0
5,33.34000015258789,learn,60000.0,Thu Oct 16 2025 17:22:42 GMT-0500 (Central Daylight Time),614510.2999999998,A,catt,O,t,196,1,1967.2000000001863,612543.0999999996,7205,WL,C,13.0
5,33.640000104904175,learn,60000.0,Thu Oct 16 2025 17:22:42 GMT-0500 (Central Daylight Time),614810.2999999998,A,cattl,O,l,294,1,2267.2000000001863,612543.0999999996,7205,WL,C,13.0
5,33.82200002670288,learn,60000.0,Thu Oct 16 2025 17:22:42 GMT-0500 (Central Daylight Time),614992.0999999996,A,cattle,O,e,177,1,2449.0,612543.0999999996,7205,WL,C,13.0
5,34.19000005722046,learn,60000.0,Thu Oct 16 2025 17:22:42 GMT-0500 (Central Daylight Time),615360.0999999996,A,cattleenter,O,enter,349,1,2817.0,612543.0999999996,7205,WL,C,13.0
5,34.938000202178955,learn,60000.0,Thu Oct 16 2025 17:22:42 GMT-0500 (Central Daylight Time),616108.7999999998,A,c,O,c,740,1,748.4000000003725,615360.3999999994,7205,WL,C,14.0
5,35.10700011253357,learn,60000.0,Thu Oct 16 2025 17:22:42 GMT-0500 (Central Daylight Time),616277.8999999994,A,co,O,o,148,1,917.5,615360.3999999994,7205,WL,C,14.0
5,35.3050000667572,learn,60000.0,Thu Oct 16 2025 17:22:42 GMT-0500 (Central Daylight Time),616475.5,A,cor,O,r,181,1,1115.1000000005588,615360.3999999994,7205,WL,C,14.0
5,35.605000019073486,learn,60000.0,Thu Oct 16 2025 17:22:42 GMT-0500 (Central Daylight Time),616775.5,A,corn,O,n,289,1,1415.1000000005588,615360.3999999994,7205,WL,C,14.0
5,36.004000186920166,learn,60000.0,Thu Oct 16 2025 17:22:42 GMT-0500 (Central Daylight Time),617174.3999999994,A,cornenter,O,enter,388,1,1814.0,615360.3999999994,7205,WL,C,14.0
5,36.32200002670288,learn,60000.0,Thu Oct 16 2025 17:22:42 GMT-0500 (Central Daylight Time),617492.2000000002,A,w,O,w,301,1,317.6000000005588,617174.5999999996,7205,WL,C,15.0
5,36.504000186920166,learn,60000.0,Thu Oct 16 2025 17:22:42 GMT-0500 (Central Daylight Time),617674.5,A,wh,O,h,176,1,499.90000000037253,617174.5999999996,7205,WL,C,15.0
5,36.65500020980835,learn,60000.0,Thu Oct 16 2025 17:22:42 GMT-0500 (Central Daylight Time),617825.0999999996,A,wha,O,a,145,1,650.5,617174.5999999996,7205,WL,C,15.0
5,37.455000162124634,learn,60000.0,Thu Oct 16 2025 17:22:42 GMT-0500 (Central Daylight Time),618625.0999999996,A,whae,O,e,796,1,1450.5,617174.5999999996,7205,WL,C,15.0
5,38.337000131607056,learn,60000.0,Thu Oct 16 2025 17:22:42 GMT-0500 (Central Daylight Time),619508.0999999996,A,wha,O,backspace,866,1,2333.5,617174.5999999996,7205,WL,C,15.0
5,38.53700017929077,learn,60000.0,Thu Oct 16 2025 17:22:42 GMT-0500 (Central Daylight Time),619707.3999999994,A,wh,O,backspace,190,1,2532.7999999998137,617174.5999999996,7205,WL,C,15.0
5,38.77000021934509,learn,60000.0,Thu Oct 16 2025 17:22:42 GMT-0500 (Central Daylight Time),619940.5999999996,A,whe,O,e,217,1,2766.0,617174.5999999996,7205,WL,C,15.0
5,38.88600015640259,learn,60000.0,Thu Oct 16 2025 17:22:42 GMT-0500 (Central Daylight Time),620056.5999999996,A,whea,O,a,111,1,2882.0,617174.5999999996,7205,WL,C,15.0
5,39.12400007247925,learn,60000.0,Thu Oct 16 2025 17:22:42 GMT-0500 (Central Daylight Time),620294.5999999996,A,wheat,O,t,228,1,3120.0,617174.5999999996,7205,WL,C,15.0
5,39.61900019645691,learn,60000.0,Thu Oct 16 2025 17:22:42 GMT-0500 (Central Daylight Time),620789.7000000002,A,wheatenter,O,enter,486,1,3615.100000000559,617174.5999999996,7205,WL,C,15.0
6,2.0460000038146973,distr,57953.9999961853,Thu Oct 16 2025 17:22:42 GMT-0500 (Central Daylight Time),688517.8999999994,B,c,O,c,2037,1,2046.199999999255,686471.7000000002,7205,WL,C,1.0
6,2.1470000743865967,distr,57852.9999256134,Thu Oct 16 2025 17:22:42 GMT-0500 (Central Daylight Time),688619.2000000002,B,ch,O,h,94,1,2147.5,686471.7000000002,7205,WL,C,1.0
6,2.747999906539917,distr,57252.00009346008,Thu Oct 16 2025 17:22:42 GMT-0500 (Central Daylight Time),689219.8999999994,B,chr,O,r,595,1,2748.199999999255,686471.7000000002,7205,WL,C,1.0
6,3.0799999237060547,distr,56920.000076293945,Thu Oct 16 2025 17:22:42 GMT-0500 (Central Daylight Time),689551.2999999998,B,chrs,O,s,319,1,3079.5999999996275,686471.7000000002,7205,WL,C,1.0
6,4.413000106811523,distr,55586.99989318848,Thu Oct 16 2025 17:22:42 GMT-0500 (Central Daylight Time),690884.2999999998,B,chr,O,backspace,1326,1,4412.5999999996275,686471.7000000002,7205,WL,C,1.0
6,4.828000068664551,distr,55171.99993133545,Thu Oct 16 2025 17:22:42 GMT-0500 (Central Daylight Time),691300.0999999996,B,chri,O,i,405,1,4828.399999999441,686471.7000000002,7205,WL,C,1.0
6,5.546000003814697,distr,54453.9999961853,Thu Oct 16 2025 17:22:42 GMT-0500 (Central Daylight Time),692017.3999999994,B,chrit,O,t,714,1,5545.699999999255,686471.7000000002,7205,WL,C,1.0
6,6.463000059127808,distr,53536.99994087219,Thu Oct 16 2025 17:22:42 GMT-0500 (Central Daylight Time),692934.5999999996,B,chri,O,backspace,907,1,6462.899999999441,686471.7000000002,7205,WL,C,1.0
6,7.161999940872192,distr,52838.00005912781,Thu Oct 16 2025 17:22:42 GMT-0500 (Central Daylight Time),693633.7000000002,B,chris,O,s,693,1,7162.0,686471.7000000002,7205,WL,C,1.0
6,7.36299991607666,distr,52637.00008392334,Thu Oct 16 2025 17:22:42 GMT-0500 (Central Daylight Time),693834.3999999994,B,christ,O,t,196,1,7362.699999999255,686471.7000000002,7205,WL,C,1.0
6,7.5950000286102295,distr,52404.99997138977,Thu Oct 16 2025 17:22:42 GMT-0500 (Central Daylight Time),694066.5999999996,B,christm,O,m,224,1,7594.899999999441,686471.7000000002,7205,WL,C,1.0
6,7.694999933242798,distr,52305.0000667572,Thu Oct 16 2025 17:22:42 GMT-0500 (Central Daylight Time),694167.0999999996,B,christma,O,a,88,1,7695.399999999441,686471.7000000002,7205,WL,C,1.0
6,8.095999956130981,distr,51904.00004386902,Thu Oct 16 2025 17:22:42 GMT-0500 (Central Daylight Time),694567.5,B,christmas,O,s,379,1,8095.799999999814,686471.7000000002,7205,WL,C,1.0
6,8.446000099182129,distr,51553.99990081787,Thu Oct 16 2025 17:22:42 GMT-0500 (Central Daylight Time),694917.3999999994,B,christmasenter,O,enter,333,1,8445.699999999255,686471.7000000002,7205,WL,C,1.0
6,9.11299991607666,distr,50887.00008392334,Thu Oct 16 2025 17:22:42 GMT-0500 (Central Daylight Time),695584.2999999998,B,w,O,w,662,1,666.5999999996275,694917.7000000002,7205,WL,C,2.0
6,9.27999997138977,distr,50720.00002861023,Thu Oct 16 2025 17:22:42 GMT-0500 (Central Daylight Time),695751.3999999994,B,wi,O,i,146,1,833.6999999992549,694917.7000000002,7205,WL,C,2.0
6,9.510999917984009,distr,50489.00008201599,Thu Oct 16 2025 17:22:42 GMT-0500 (Central Daylight Time),695982.8999999994,B,win,O,n,219,1,1065.199999999255,694917.7000000002,7205,WL,C,2.0
6,9.744999885559082,distr,50255.00011444092,Thu Oct 16 2025 17:22:42 GMT-0500 (Central Daylight Time),696217.2000000002,B,wint,O,t,228,1,1299.5,694917.7000000002,7205,WL,C,2.0
6,9.928999900817871,distr,50071.00009918213,Thu Oct 16 2025 17:22:42 GMT-0500 (Central Daylight Time),696401.2000000002,B,winte,O,e,169,1,1483.5,694917.7000000002,7205,WL,C,2.0
6,10.043999910354614,distr,49956.000089645386,Thu Oct 16 2025 17:22:42 GMT-0500 (Central Daylight Time),696515.8999999994,B,winter,O,r,97,1,1598.199999999255,694917.7000000002,7205,WL,C,2.0
6,10.329999923706055,distr,49670.000076293945,Thu Oct 16 2025 17:22:42 GMT-0500 (Central Daylight Time),696801.5,B,winterenter,O,enter,280,1,1883.7999999998137,694917.7000000002,7205,WL,C,2.0
6,13.2260000705719,distr,46773.9999294281,Thu Oct 16 2025 17:22:42 GMT-0500 (Central Daylight Time),699698.0999999996,B,s,O,s,2883,1,2896.2999999998137,696801.7999999998,7205,WL,C,3.0
6,13.41100001335144,distr,46588.99998664856,Thu Oct 16 2025 17:22:42 GMT-0500 (Central Daylight Time),699882.5999999996,B,sk,O,k,172,1,3080.7999999998137,696801.7999999998,7205,WL,C,3.0
6,13.759999990463257,distr,46240.00000953674,Thu Oct 16 2025 17:22:42 GMT-0500 (Central Daylight Time),700232.0,B,sky,O,y,338,1,3430.2000000001863,696801.7999999998,7205,WL,C,3.0
6,14.64299988746643,distr,45357.00011253357,Thu Oct 16 2025 17:22:42 GMT-0500 (Central Daylight Time),701114.8999999994,B,skyenter,O,enter,866,1,4313.0999999996275,696801.7999999998,7205,WL,C,3.0
6,15.109999895095825,distr,44890.000104904175,Thu Oct 16 2025 17:22:42 GMT-0500 (Central Daylight Time),701581.8999999994,B,d,O,d,457,1,466.79999999981374,701115.0999999996,7205,WL,C,4.0
6,15.29200005531311,distr,44707.99994468689,Thu Oct 16 2025 17:22:42 GMT-0500 (Central Daylight Time),701764.0,B,do,O,o,163,1,648.9000000003725,701115.0999999996,7205,WL,C,4.0
6,15.560999870300293,distr,44439.00012969971,Thu Oct 16 2025 17:22:42 GMT-0500 (Central Daylight Time),702032.3999999994,B,dol,O,l,248,1,917.2999999998137,701115.0999999996,7205,WL,C,4.0
6,15.7260000705719,distr,44273.9999294281,Thu Oct 16 2025 17:22:42 GMT-0500 (Central Daylight Time),702197.8999999994,B,doll,O,l,146,1,1082.7999999998137,701115.0999999996,7205,WL,C,4.0
6,15.875999927520752,distr,44124.00007247925,Thu Oct 16 2025 17:22:42 GMT-0500 (Central Daylight Time),702348.0999999996,B,dolla,O,a,133,1,1233.0,701115.0999999996,7205,WL,C,4.0
6,15.993000030517578,distr,44006.99996948242,Thu Oct 16 2025 17:22:42 GMT-0500 (Central Daylight Time),702464.7000000002,B,dollar,O,r,111,1,1349.6000000005588,701115.0999999996,7205,WL,C,4.0
6,16.193000078201294,distr,43806.999921798706,Thu Oct 16 2025 17:22:42 GMT-0500 (Central Daylight Time),702664.3999999994,B,dollarenter,O,enter,195,1,1549.2999999998137,701115.0999999996,7205,WL,C,4.0
6,17.573999881744385,distr,42426.000118255615,Thu Oct 16 2025 17:22:42 GMT-0500 (Central Daylight Time),704046.0,B,m,O,m,1371,1,1381.4000000003725,702664.5999999996,7205,WL,C,5.0
6,17.759999990463257,distr,42240.00000953674,Thu Oct 16 2025 17:22:42 GMT-0500 (Central Daylight Time),704231.5999999996,B,mo,O,o,166,1,1567.0,702664.5999999996,7205,WL,C,5.0
6,17.925999879837036,distr,42074.000120162964,Thu Oct 16 2025 17:22:42 GMT-0500 (Central Daylight Time),704397.8999999994,B,mon,O,n,153,1,1733.2999999998137,702664.5999999996,7205,WL,C,5.0
6,18.14299988746643,distr,41857.00011253357,Thu Oct 16 2025 17:22:42 GMT-0500 (Central Daylight Time),704614.7000000002,B,mone,O,e,197,1,1950.1000000005588,702664.5999999996,7205,WL,C,5.0
6,18.35800004005432,distr,41641.99995994568,Thu Oct 16 2025 17:22:42 GMT-0500 (Central Daylight Time),704829.5999999996,B,money,O,y,204,1,2165.0,702664.5999999996,7205,WL,C,5.0
6,18.924999952316284,distr,41075.000047683716,Thu Oct 16 2025 17:22:42 GMT-0500 (Central Daylight Time),705396.3999999994,B,moneyenter,O,enter,557,1,2731.7999999998137,702664.5999999996,7205,WL,C,5.0
6,22.924000024795532,distr,37075.99997520447,Thu Oct 16 2025 17:22:42 GMT-0500 (Central Daylight Time),709395.5999999996,B,h,O,h,3992,1,3998.899999999441,705396.7000000002,7205,WL,C,6.0
6,23.091000080108643,distr,36908.99991989136,Thu Oct 16 2025 17:22:42 GMT-0500 (Central Daylight Time),709562.8999999994,B,ho,O,o,151,1,4166.199999999255,705396.7000000002,7205,WL,C,6.0
6,23.35699987411499,distr,36643.00012588501,Thu Oct 16 2025 17:22:42 GMT-0500 (Central Daylight Time),709828.7000000002,B,hom,O,m,256,1,4432.0,705396.7000000002,7205,WL,C,6.0
6,23.60800004005432,distr,36391.99995994568,Thu Oct 16 2025 17:22:42 GMT-0500 (Central Daylight Time),710079.7999999998,B,home,O,e,239,1,4683.0999999996275,705396.7000000002,7205,WL,C,6.0
6,24.02300000190735,distr,35976.99999809265,Thu Oct 16 2025 17:22:42 GMT-0500 (Central Daylight Time),710494.7000000002,B,homeenter,O,enter,396,1,5098.0,705396.7000000002,7205,WL,C,6.0
6,25.305999994277954,distr,34694.000005722046,Thu Oct 16 2025 17:22:42 GMT-0500 (Central Daylight Time),711778.2000000002,B,m,O,m,1269,1,1283.300000000745,710494.8999999994,7205,WL,C,7.0
6,25.507999897003174,distr,34492.000102996826,Thu Oct 16 2025 17:22:42 GMT-0500 (Central Daylight Time),711979.7000000002,B,mo,O,o,186,1,1484.800000000745,710494.8999999994,7205,WL,C,7.0
6,25.723999977111816,distr,34276.00002288818,Thu Oct 16 2025 17:22:42 GMT-0500 (Central Daylight Time),712195.5,B,mot,O,t,196,1,1700.6000000005588,710494.8999999994,7205,WL,C,7.0
6,25.85599994659424,distr,34144.00005340576,Thu Oct 16 2025 17:22:42 GMT-0500 (Central Daylight Time),712327.2999999998,B,moth,O,h,119,1,1832.4000000003725,710494.8999999994,7205,WL,C,7.0
6,26.006999969482422,distr,33993.00003051758,Thu Oct 16 2025 17:22:42 GMT-0500 (Central Daylight Time),712478.2999999998,B,mothe,O,e,133,1,1983.4000000003725,710494.8999999994,7205,WL,C,7.0
6,26.10599994659424,distr,33894.00005340576,Thu Oct 16 2025 17:22:42 GMT-0500 (Central Daylight Time),712577.7000000002,B,mother,O,r,93,1,2082.800000000745,710494.8999999994,7205,WL,C,7.0
6,26.372999906539917,distr,33627.00009346008,Thu Oct 16 2025 17:22:42 GMT-0500 (Central Daylight Time),712844.3999999994,B,motherenter,O,enter,250,1,2349.5,710494.8999999994,7205,WL,C,7.0
6,28.105000019073486,distr,31894.999980926514,Thu Oct 16 2025 17:22:42 GMT-0500 (Central Daylight Time),714576.3999999994,B,m,O,m,1723,1,1731.7999999998137,712844.5999999996,7205,WL,C,8.0
6,28.259999990463257,distr,31740.000009536743,Thu Oct 16 2025 17:22:42 GMT-0500 (Central Daylight Time),714734.0999999996,B,me,O,e,139,1,1889.5,712844.5999999996,7205,WL,C,8.0
6,28.359999895095825,distr,31640.000104904175,Thu Oct 16 2025 17:22:42 GMT-0500 (Central Daylight Time),714831.5,B,mea,O,a,88,1,1986.9000000003725,712844.5999999996,7205,WL,C,8.0
6,28.98900008201599,distr,31010.99991798401,Thu Oct 16 2025 17:22:42 GMT-0500 (Central Daylight Time),715460.5,B,meat,O,t,613,1,2615.9000000003725,712844.5999999996,7205,WL,C,8.0
6,29.503999948501587,distr,30496.000051498413,Thu Oct 16 2025 17:22:42 GMT-0500 (Central Daylight Time),715975.8999999994,B,meatenter,O,enter,503,1,3131.2999999998137,712844.5999999996,7205,WL,C,8.0
6,31.687999963760376,distr,28312.000036239624,Thu Oct 16 2025 17:22:42 GMT-0500 (Central Daylight Time),718159.8999999994,B,d,O,d,2172,1,2183.699999999255,715976.2000000002,7205,WL,C,9.0
6,31.805000066757202,distr,28194.999933242798,Thu Oct 16 2025 17:22:42 GMT-0500 (Central Daylight Time),718276.3999999994,B,di,O,i,99,1,2300.199999999255,715976.2000000002,7205,WL,C,9.0
6,32.020999908447266,distr,27979.000091552734,Thu Oct 16 2025 17:22:42 GMT-0500 (Central Daylight Time),718492.8999999994,B,dia,O,a,198,1,2516.699999999255,715976.2000000002,7205,WL,C,9.0
6,32.47099995613098,distr,27529.00004386902,Thu Oct 16 2025 17:22:42 GMT-0500 (Central Daylight Time),718942.7999999998,B,diam,O,m,429,1,2966.5999999996275,715976.2000000002,7205,WL,C,9.0
6,32.63800001144409,distr,27361.99998855591,Thu Oct 16 2025 17:22:42 GMT-0500 (Central Daylight Time),719109.5999999996,B,diamo,O,o,148,1,3133.399999999441,715976.2000000002,7205,WL,C,9.0
6,32.80399990081787,distr,27196.00009918213,Thu Oct 16 2025 17:22:42 GMT-0500 (Central Daylight Time),719275.8999999994,B,diamon,O,n,149,1,3299.699999999255,715976.2000000002,7205,WL,C,9.0
6,33.187000036239624,distr,26812.999963760376,Thu Oct 16 2025 17:22:42 GMT-0500 (Central Daylight Time),719658.8999999994,B,diamond,O,d,368,1,3682.699999999255,715976.2000000002,7205,WL,C,9.0
6,33.6029999256134,distr,26397.000074386597,Thu Oct 16 2025 17:22:42 GMT-0500 (Central Daylight Time),720075.2000000002,B,diamondenter,O,enter,401,1,4099.0,715976.2000000002,7205,WL,C,9.0
6,38.121999979019165,distr,21878.000020980835,Thu Oct 16 2025 17:22:42 GMT-0500 (Central Daylight Time),724593.5,B,v,O,v,4497,1,4518.0,720075.5,7205,WL,C,10.0
6,38.30200004577637,distr,21697.999954223633,Thu Oct 16 2025 17:22:42 GMT-0500 (Central Daylight Time),724774.0999999996,B,va,O,a,169,1,4698.5999999996275,720075.5,7205,WL,C,10.0
6,38.53699994087219,distr,21463.000059127808,Thu Oct 16 2025 17:22:42 GMT-0500 (Central Daylight Time),725008.7000000002,B,val,O,l,228,1,4933.200000000186,720075.5,7205,WL,C,10.0
6,38.72000002861023,distr,21279.99997138977,Thu Oct 16 2025 17:22:42 GMT-0500 (Central Daylight Time),725191.5,B,vall,O,l,168,1,5116.0,720075.5,7205,WL,C,10.0
6,38.937000036239624,distr,21062.999963760376,Thu Oct 16 2025 17:22:42 GMT-0500 (Central Daylight Time),725408.7000000002,B,valle,O,e,197,1,5333.200000000186,720075.5,7205,WL,C,10.0
6,39.13800001144409,distr,20861.99998855591,Thu Oct 16 2025 17:22:42 GMT-0500 (Central Daylight Time),725610.0,B,valley,O,y,179,1,5534.5,720075.5,7205,WL,C,10.0
6,39.53600001335144,distr,20463.99998664856,Thu Oct 16 2025 17:22:42 GMT-0500 (Central Daylight Time),726007.7999999998,B,valleyenter,O,enter,387,1,5932.299999999814,720075.5,7205,WL,C,10.0
6,39.85199999809265,distr,20148.00000190735,Thu Oct 16 2025 17:22:42 GMT-0500 (Central Daylight Time),726324.0999999996,B,s,O,s,311,1,316.09999999962747,726008.0,7205,WL,C,11.0
6,40.10199999809265,distr,19898.00000190735,Thu Oct 16 2025 17:22:42 GMT-0500 (Central Daylight Time),726574.0999999996,B,sk,O,k,231,1,566.0999999996275,726008.0,7205,WL,C,11.0
6,40.51799988746643,distr,19482.00011253357,Thu Oct 16 2025 17:22:42 GMT-0500 (Central Daylight Time),726989.8999999994,B,sky,O,y,397,1,981.8999999994412,726008.0,7205,WL,C,11.0
6,41.00099992752075,distr,18999.000072479248,Thu Oct 16 2025 17:22:42 GMT-0500 (Central Daylight Time),727473.2000000002,B,skyenter,O,enter,479,1,1465.2000000001863,726008.0,7205,WL,C,11.0
6,60.01200008392334,distr,-12.000083923339844,Thu Oct 16 2025 17:22:42 GMT-0500 (Central Daylight Time),746483.3999999994,B,None,O,None,19005,1,19010.0,727473.3999999994,7205,WL,C,12.0
7,2.0889999866485596,immed,57911.00001335144,Thu Oct 16 2025 17:22:42 GMT-0500 (Central Daylight Time),764111.2000000002,A,c,O,c,2071,1,2089.300000000745,762021.8999999994,7205,WL,C,1.0
7,2.2750000953674316,immed,57724.99990463257,Thu Oct 16 2025 17:22:42 GMT-0500 (Central Daylight Time),764296.7999999998,A,ca,O,a,180,1,2274.9000000003725,762021.8999999994,7205,WL,C,1.0
7,3.439000129699707,immed,56560.99987030029,Thu Oct 16 2025 17:22:42 GMT-0500 (Central Daylight Time),765461.0999999996,A,cam,O,m,1154,1,3439.2000000001863,762021.8999999994,7205,WL,C,1.0
7,3.822999954223633,immed,56177.00004577637,Thu Oct 16 2025 17:22:42 GMT-0500 (Central Daylight Time),765845.0999999996,A,camp,O,p,366,1,3823.2000000001863,762021.8999999994,7205,WL,C,1.0
7,4.855999946594238,immed,55144.00005340576,Thu Oct 16 2025 17:22:42 GMT-0500 (Central Daylight Time),766877.5,A,campenter,O,enter,1022,1,4855.600000000559,762021.8999999994,7205,WL,C,1.0
7,6.937999963760376,immed,53062.000036239624,Thu Oct 16 2025 17:22:42 GMT-0500 (Central Daylight Time),768959.5999999996,A,l,O,l,2071,1,2081.899999999441,766877.7000000002,7205,WL,C,2.0
7,7.158999919891357,immed,52841.00008010864,Thu Oct 16 2025 17:22:42 GMT-0500 (Central Daylight Time),769180.5999999996,A,le,O,e,217,1,2302.899999999441,766877.7000000002,7205,WL,C,2.0
7,7.4709999561309814,immed,52529.00004386902,Thu Oct 16 2025 17:22:42 GMT-0500 (Central Daylight Time),769492.5,A,let,O,t,296,1,2614.7999999998137,766877.7000000002,7205,WL,C,2.0
7,7.888000011444092,immed,52111.99998855591,Thu Oct 16 2025 17:22:42 GMT-0500 (Central Daylight Time),769910.2000000002,A,lett,O,t,408,1,3032.5,766877.7000000002,7205,WL,C,2.0
7,8.17199993133545,immed,51828.00006866455,Thu Oct 16 2025 17:22:42 GMT-0500 (Central Daylight Time),770194.2000000002,A,lette,O,e,261,1,3316.5,766877.7000000002,7205,WL,C,2.0
7,8.253000020980835,immed,51746.999979019165,Thu Oct 16 2025 17:22:42 GMT-0500 (Central Daylight Time),770275.2999999998,A,letter,O,r,61,1,3397.5999999996275,766877.7000000002,7205,WL,C,2.0
7,8.421000003814697,immed,51578.9999961853,Thu Oct 16 2025 17:22:42 GMT-0500 (Central Daylight Time),770442.5,A,letterenter,O,enter,162,1,3564.7999999998137,766877.7000000002,7205,WL,C,2.0
7,9.170000076293945,immed,50829.999923706055,Thu Oct 16 2025 17:22:42 GMT-0500 (Central Daylight Time),771191.5,A,q,O,q,738,1,748.9000000003725,770442.5999999996,7205,WL,C,3.0
7,9.352999925613403,immed,50647.0000743866,Thu Oct 16 2025 17:22:42 GMT-0500 (Central Daylight Time),771374.2999999998,A,qu,O,u,164,1,931.7000000001863,770442.5999999996,7205,WL,C,3.0
7,9.469000101089478,immed,50530.99989891052,Thu Oct 16 2025 17:22:42 GMT-0500 (Central Daylight Time),771491.0,A,que,O,e,109,1,1048.4000000003725,770442.5999999996,7205,WL,C,3.0
7,9.919000148773193,immed,50080.99985122681,Thu Oct 16 2025 17:22:42 GMT-0500 (Central Daylight Time),771940.8999999994,A,quee,O,e,433,1,1498.2999999998137,770442.5999999996,7205,WL,C,3.0
7,10.253000020980835,immed,49746.999979019165,Thu Oct 16 2025 17:22:42 GMT-0500 (Central Daylight Time),772275.0999999996,A,queen,O,n,320,1,1832.5,770442.5999999996,7205,WL,C,3.0
7,10.769000053405762,immed,49230.99994659424,Thu Oct 16 2025 17:22:42 GMT-0500 (Central Daylight Time),772790.8999999994,A,queenenter,O,enter,506,1,2348.2999999998137,770442.5999999996,7205,WL,C,3.0
7,12.552000045776367,immed,47447.99995422363,Thu Oct 16 2025 17:22:42 GMT-0500 (Central Daylight Time),774574.2999999998,A,s,O,s,1766,1,1783.2000000001863,772791.0999999996,7205,WL,C,4.0
7,12.635999917984009,immed,47364.00008201599,Thu Oct 16 2025 17:22:42 GMT-0500 (Central Daylight Time),774658.2999999998,A,su,O,u,80,1,1867.2000000001863,772791.0999999996,7205,WL,C,4.0
