block_c,block_dur,condition,countdown,datetime,endtime,list,multichar_response,project,response,response_time,session_number,start_end,starttime,subject_id,task,task_vers,trial
,,,,Tue Jun 09 2026 14:06:48 GMT-0500 (Central Daylight Time),,,,I,space,680,1,,,8121,WL,A,
prac,,0,,Tue Jun 09 2026 14:06:48 GMT-0500 (Central Daylight Time),,NA,b,I,b,1064,1,,,8121,WL,A,1.0
prac,,0,,Tue Jun 09 2026 14:06:48 GMT-0500 (Central Daylight Time),,NA,bo,I,o,505,1,,,8121,WL,A,1.0
prac,,0,,Tue Jun 09 2026 14:06:48 GMT-0500 (Central Daylight Time),,NA,boo,I,o,165,1,,,8121,WL,A,1.0
prac,,0,,Tue Jun 09 2026 14:06:48 GMT-0500 (Central Daylight Time),,NA,boos,I,s,159,1,,,8121,WL,A,1.0
prac,,0,,Tue Jun 09 2026 14:06:48 GMT-0500 (Central Daylight Time),,NA,boost,I,t,176,1,,,8121,WL,A,1.0
prac,,0,,Tue Jun 09 2026 14:06:48 GMT-0500 (Central Daylight Time),,NA,boostenter,I,enter,585,1,,,8121,WL,A,1.0
1,1.4499998092651367,learn,58550.00019073486,Tue Jun 09 2026 14:06:48 GMT-0500 (Central Daylight Time),121588.20000004768,A,f,I,f,1441,1,1449.2000000476837,120139.0,8121,WL,A,1.0
1,1.565999984741211,learn,58434.00001525879,Tue Jun 09 2026 14:06:48 GMT-0500 (Central Daylight Time),121704.90000009537,A,fl,I,l,101,1,1565.9000000953674,120139.0,8121,WL,A,1.0
1,1.7999999523162842,learn,58200.000047683716,Tue Jun 09 2026 14:06:48 GMT-0500 (Central Daylight Time),121938.09999990463,A,flo,I,o,218,1,1799.0999999046326,120139.0,8121,WL,A,1.0
1,1.932999849319458,learn,58067.00015068054,Tue Jun 09 2026 14:06:48 GMT-0500 (Central Daylight Time),122071.59999990463,A,flow,I,w,113,1,1932.5999999046326,120139.0,8121,WL,A,1.0
1,2.0999999046325684,learn,57900.00009536743,Tue Jun 09 2026 14:06:48 GMT-0500 (Central Daylight Time),122238.20000004768,A,flowe,I,e,156,1,2099.2000000476837,120139.0,8121,WL,A,1.0
1,2.232999801635742,learn,57767.00019836426,Tue Jun 09 2026 14:06:48 GMT-0500 (Central Daylight Time),122371.29999995232,A,flower,I,r,118,1,2232.2999999523163,120139.0,8121,WL,A,1.0
1,3.5319998264312744,learn,56468.000173568726,Tue Jun 09 2026 14:06:48 GMT-0500 (Central Daylight Time),123670.90000009537,A,flowerenter,I,enter,1280,1,3531.9000000953674,120139.0,8121,WL,A,1.0
1,4.498999834060669,learn,55501.00016593933,Tue Jun 09 2026 14:06:48 GMT-0500 (Central Daylight Time),124637.20000004768,A,m,I,m,947,1,965.4000000953674,123671.79999995232,8121,WL,A,2.0
1,4.614999771118164,learn,55385.000228881836,Tue Jun 09 2026 14:06:48 GMT-0500 (Central Daylight Time),124753.79999995232,A,me,I,e,110,1,1082.0,123671.79999995232,8121,WL,A,2.0
1,4.73199987411499,learn,55268.00012588501,Tue Jun 09 2026 14:06:48 GMT-0500 (Central Daylight Time),124870.70000004768,A,mea,I,a,107,1,1198.9000000953674,123671.79999995232,8121,WL,A,2.0
1,4.9649999141693115,learn,55035.00008583069,Tue Jun 09 2026 14:06:48 GMT-0500 (Central Daylight Time),125103.5,A,mead,I,d,213,1,1431.7000000476837,123671.79999995232,8121,WL,A,2.0
1,5.398000001907349,learn,54601.99999809265,Tue Jun 09 2026 14:06:48 GMT-0500 (Central Daylight Time),125536.90000009537,A,meado,I,o,411,1,1865.1000001430511,123671.79999995232,8121,WL,A,2.0
1,5.548999786376953,learn,54451.00021362305,Tue Jun 09 2026 14:06:48 GMT-0500 (Central Daylight Time),125687.09999990463,A,meadow,I,w,132,1,2015.2999999523163,123671.79999995232,8121,WL,A,2.0
1,5.864999771118164,learn,54135.000228881836,Tue Jun 09 2026 14:06:48 GMT-0500 (Central Daylight Time),126003.90000009537,A,meadowenter,I,enter,301,1,2332.100000143051,123671.79999995232,8121,WL,A,2.0
1,8.513999938964844,learn,51486.000061035156,Tue Jun 09 2026 14:06:48 GMT-0500 (Central Daylight Time),128652.59999990463,A,l,I,l,2631,1,2648.199999809265,126004.40000009537,8121,WL,A,3.0
1,8.696999788284302,learn,51303.0002117157,Tue Jun 09 2026 14:06:48 GMT-0500 (Central Daylight Time),128835.79999995232,A,lo,I,o,174,1,2831.399999856949,126004.40000009537,8121,WL,A,3.0
1,8.863999843597412,learn,51136.00015640259,Tue Jun 09 2026 14:06:48 GMT-0500 (Central Daylight Time),129002.59999990463,A,log,I,g,152,1,2998.199999809265,126004.40000009537,8121,WL,A,3.0
1,9.263999938964844,learn,50736.000061035156,Tue Jun 09 2026 14:06:48 GMT-0500 (Central Daylight Time),129402.29999995232,A,logenter,I,enter,394,1,3397.899999856949,126004.40000009537,8121,WL,A,3.0
1,11.27999997138977,learn,48720.00002861023,Tue Jun 09 2026 14:06:48 GMT-0500 (Central Daylight Time),131418.5,A,h,I,h,2003,1,2015.9000000953674,129402.59999990463,8121,WL,A,4.0
1,11.479999780654907,learn,48520.00021934509,Tue Jun 09 2026 14:06:48 GMT-0500 (Central Daylight Time),131618.79999995232,A,ha,I,a,185,1,2216.2000000476837,129402.59999990463,8121,WL,A,4.0
1,11.629999876022339,learn,48370.00012397766,Tue Jun 09 2026 14:06:48 GMT-0500 (Central Daylight Time),131768.70000004768,A,har,I,r,137,1,2366.100000143051,129402.59999990463,8121,WL,A,4.0
1,11.812999963760376,learn,48187.000036239624,Tue Jun 09 2026 14:06:48 GMT-0500 (Central Daylight Time),131951.5,A,harp,I,p,171,1,2548.9000000953674,129402.59999990463,8121,WL,A,4.0
1,12.312999963760376,learn,47687.000036239624,Tue Jun 09 2026 14:06:48 GMT-0500 (Central Daylight Time),132451.40000009537,A,harpenter,I,enter,492,1,3048.800000190735,129402.59999990463,8121,WL,A,4.0
1,12.995999813079834,learn,47004.000186920166,Tue Jun 09 2026 14:06:48 GMT-0500 (Central Daylight Time),133134.5,A,b,I,b,672,1,682.7000000476837,132451.79999995232,8121,WL,A,5.0
1,13.095999956130981,learn,46904.00004386902,Tue Jun 09 2026 14:06:48 GMT-0500 (Central Daylight Time),133234.29999995232,A,bo,I,o,92,1,782.5,132451.79999995232,8121,WL,A,5.0
1,13.295999765396118,learn,46704.00023460388,Tue Jun 09 2026 14:06:48 GMT-0500 (Central Daylight Time),133434.20000004768,A,boo,I,o,193,1,982.4000000953674,132451.79999995232,8121,WL,A,5.0
1,13.478999853134155,learn,46521.000146865845,Tue Jun 09 2026 14:06:48 GMT-0500 (Central Daylight Time),133617.59999990463,A,boot,I,t,169,1,1165.7999999523163,132451.79999995232,8121,WL,A,5.0
1,14.34499979019165,learn,45655.00020980835,Tue Jun 09 2026 14:06:48 GMT-0500 (Central Daylight Time),134484.0,A,bootenter,I,enter,850,1,2032.2000000476837,132451.79999995232,8121,WL,A,5.0
1,17.111999988555908,learn,42888.00001144409,Tue Jun 09 2026 14:06:48 GMT-0500 (Central Daylight Time),137250.20000004768,A,c,I,c,2744,1,2766.0,134484.20000004768,8121,WL,A,6.0
1,17.211999893188477,learn,42788.00010681152,Tue Jun 09 2026 14:06:48 GMT-0500 (Central Daylight Time),137350.20000004768,A,ch,I,h,89,1,2866.0,134484.20000004768,8121,WL,A,6.0
1,17.460999965667725,learn,42539.000034332275,Tue Jun 09 2026 14:06:48 GMT-0500 (Central Daylight Time),137599.90000009537,A,chi,I,i,230,1,3115.7000000476837,134484.20000004768,8121,WL,A,6.0
1,17.693999767303467,learn,42306.00023269653,Tue Jun 09 2026 14:06:48 GMT-0500 (Central Daylight Time),137832.90000009537,A,chim,I,m,210,1,3348.7000000476837,134484.20000004768,8121,WL,A,6.0
1,18.044999837875366,learn,41955.000162124634,Tue Jun 09 2026 14:06:48 GMT-0500 (Central Daylight Time),138183.09999990463,A,chimn,I,n,339,1,3698.899999856949,134484.20000004768,8121,WL,A,6.0
1,18.293999910354614,learn,41706.000089645386,Tue Jun 09 2026 14:06:48 GMT-0500 (Central Daylight Time),138432.90000009537,A,chimne,I,e,229,1,3948.7000000476837,134484.20000004768,8121,WL,A,6.0
1,18.377999782562256,learn,41622.000217437744,Tue Jun 09 2026 14:06:48 GMT-0500 (Central Daylight Time),138516.70000004768,A,chimney,I,y,66,1,4032.5,134484.20000004768,8121,WL,A,6.0
1,19.0719997882843,learn,40928.0002117157,Tue Jun 09 2026 14:06:48 GMT-0500 (Central Daylight Time),139210.20000004768,A,chimneyenter,I,enter,688,1,4726.0,134484.20000004768,8121,WL,A,6.0
1,21.126999855041504,learn,38873.000144958496,Tue Jun 09 2026 14:06:48 GMT-0500 (Central Daylight Time),141265.20000004768,A,b,I,b,2043,1,2054.5,139210.70000004768,8121,WL,A,7.0
1,21.292999982833862,learn,38707.00001716614,Tue Jun 09 2026 14:06:48 GMT-0500 (Central Daylight Time),141431.79999995232,A,bo,I,o,155,1,2221.0999999046326,139210.70000004768,8121,WL,A,7.0
1,21.47699999809265,learn,38523.00000190735,Tue Jun 09 2026 14:06:48 GMT-0500 (Central Daylight Time),141615.40000009537,A,boo,I,o,171,1,2404.7000000476837,139210.70000004768,8121,WL,A,7.0
1,21.64299988746643,learn,38357.00011253357,Tue Jun 09 2026 14:06:48 GMT-0500 (Central Daylight Time),141782.0,A,book,I,k,157,1,2571.2999999523163,139210.70000004768,8121,WL,A,7.0
1,22.209999799728394,learn,37790.00020027161,Tue Jun 09 2026 14:06:48 GMT-0500 (Central Daylight Time),142348.20000004768,A,bookenter,I,enter,558,1,3137.5,139210.70000004768,8121,WL,A,7.0
1,30.756999969482422,learn,29243.000030517578,Tue Jun 09 2026 14:06:48 GMT-0500 (Central Daylight Time),150895.79999995232,A,s,I,s,8532,1,8547.299999952316,142348.5,8121,WL,A,8.0
1,30.989999771118164,learn,29010.000228881836,Tue Jun 09 2026 14:06:48 GMT-0500 (Central Daylight Time),151128.90000009537,A,sa,I,a,220,1,8780.400000095367,142348.5,8121,WL,A,8.0
1,31.18999981880188,learn,28810.00018119812,Tue Jun 09 2026 14:06:48 GMT-0500 (Central Daylight Time),151328.79999995232,A,sal,I,l,187,1,8980.299999952316,142348.5,8121,WL,A,8.0
1,31.489999771118164,learn,28510.000228881836,Tue Jun 09 2026 14:06:48 GMT-0500 (Central Daylight Time),151628.70000004768,A,salt,I,t,291,1,9280.200000047684,142348.5,8121,WL,A,8.0
1,31.83999991416931,learn,28160.00008583069,Tue Jun 09 2026 14:06:48 GMT-0500 (Central Daylight Time),151978.70000004768,A,saltenter,I,enter,343,1,9630.200000047684,142348.5,8121,WL,A,8.0
1,42.30399990081787,learn,17696.00009918213,Tue Jun 09 2026 14:06:48 GMT-0500 (Central Daylight Time),162442.20000004768,A,h,I,h,10449,1,10462.900000095367,151979.29999995232,8121,WL,A,9.0
1,42.51799988746643,learn,17482.00011253357,Tue Jun 09 2026 14:06:48 GMT-0500 (Central Daylight Time),162656.20000004768,A,ha,I,a,207,1,10676.900000095367,151979.29999995232,8121,WL,A,9.0
1,42.66599988937378,learn,17334.00011062622,Tue Jun 09 2026 14:06:48 GMT-0500 (Central Daylight Time),162804.90000009537,A,har,I,r,143,1,10825.600000143051,151979.29999995232,8121,WL,A,9.0
1,42.78699994087219,learn,17213.000059127808,Tue Jun 09 2026 14:06:48 GMT-0500 (Central Daylight Time),162925.09999990463,A,harp,I,p,104,1,10945.799999952316,151979.29999995232,8121,WL,A,9.0
1,43.2039999961853,learn,16796.000003814697,Tue Jun 09 2026 14:06:48 GMT-0500 (Central Daylight Time),163342.29999995232,A,harpenter,I,enter,396,1,11363.0,151979.29999995232,8121,WL,A,9.0
1,60.013999938964844,learn,-13.99993896484375,Tue Jun 09 2026 14:06:48 GMT-0500 (Central Daylight Time),180153.09999990463,A,None,I,None,16806,1,16810.599999904633,163342.5,8121,WL,A,10.0
2,1.3990001678466797,learn,58600.99983215332,Tue Jun 09 2026 14:06:48 GMT-0500 (Central Daylight Time),247081.90000009537,A,b,I,b,1394,1,1399.2000000476837,245682.70000004768,8121,WL,A,1.0
2,1.5160000324249268,learn,58483.99996757507,Tue Jun 09 2026 14:06:48 GMT-0500 (Central Daylight Time),247198.79999995232,A,bo,I,o,107,1,1516.0999999046326,245682.70000004768,8121,WL,A,1.0
2,1.7000000476837158,learn,58299.999952316284,Tue Jun 09 2026 14:06:48 GMT-0500 (Central Daylight Time),247382.29999995232,A,boo,I,o,166,1,1699.5999999046326,245682.70000004768,8121,WL,A,1.0
2,1.9320001602172852,learn,58067.999839782715,Tue Jun 09 2026 14:06:48 GMT-0500 (Central Daylight Time),247615.20000004768,A,book,I,k,222,1,1932.5,245682.70000004768,8121,WL,A,1.0
2,3.3990001678466797,learn,56600.99983215332,Tue Jun 09 2026 14:06:48 GMT-0500 (Central Daylight Time),249081.40000009537,A,bookenter,I,enter,1453,1,3398.7000000476837,245682.70000004768,8121,WL,A,1.0
2,3.9660000801086426,learn,56033.99991989136,Tue Jun 09 2026 14:06:48 GMT-0500 (Central Daylight Time),249648.29999995232,A,f,I,f,556,1,566.5999999046326,249081.70000004768,8121,WL,A,2.0
2,4.065999984741211,learn,55934.00001525879,Tue Jun 09 2026 14:06:48 GMT-0500 (Central Daylight Time),249748.20000004768,A,fl,I,l,93,1,666.5,249081.70000004768,8121,WL,A,2.0
2,4.248000144958496,learn,55751.999855041504,Tue Jun 09 2026 14:06:48 GMT-0500 (Central Daylight Time),249931.09999990463,A,flo,I,o,176,1,849.3999998569489,249081.70000004768,8121,WL,A,2.0
2,4.3480000495910645,learn,55651.999950408936,Tue Jun 09 2026 14:06:48 GMT-0500 (Central Daylight Time),250031.20000004768,A,flow,I,w,81,1,949.5,249081.70000004768,8121,WL,A,2.0
2,4.482000112533569,learn,55517.99988746643,Tue Jun 09 2026 14:06:48 GMT-0500 (Central Daylight Time),250164.29999995232,A,flowe,I,e,124,1,1082.5999999046326,249081.70000004768,8121,WL,A,2.0
2,4.5980000495910645,learn,55401.999950408936,Tue Jun 09 2026 14:06:48 GMT-0500 (Central Daylight Time),250281.0,A,flower,I,r,112,1,1199.2999999523163,249081.70000004768,8121,WL,A,2.0
2,4.8480000495910645,learn,55151.999950408936,Tue Jun 09 2026 14:06:48 GMT-0500 (Central Daylight Time),250531.20000004768,A,flowerenter,I,enter,243,1,1449.5,249081.70000004768,8121,WL,A,2.0
2,5.265000104904175,learn,54734.999895095825,Tue Jun 09 2026 14:06:48 GMT-0500 (Central Daylight Time),250947.5,A,m,I,m,409,1,416.0,250531.5,8121,WL,A,3.0
2,5.398000001907349,learn,54601.99999809265,Tue Jun 09 2026 14:06:48 GMT-0500 (Central Daylight Time),251080.90000009537,A,me,I,e,113,1,549.4000000953674,250531.5,8121,WL,A,3.0
2,5.531000137329102,learn,54468.9998626709,Tue Jun 09 2026 14:06:48 GMT-0500 (Central Daylight Time),251214.09999990463,A,mea,I,a,116,1,682.5999999046326,250531.5,8121,WL,A,3.0
2,5.748000144958496,learn,54251.999855041504,Tue Jun 09 2026 14:06:48 GMT-0500 (Central Daylight Time),251430.70000004768,A,mead,I,d,198,1,899.2000000476837,250531.5,8121,WL,A,3.0
2,5.930999994277954,learn,54069.000005722046,Tue Jun 09 2026 14:06:48 GMT-0500 (Central Daylight Time),251614.09999990463,A,meado,I,o,173,1,1082.5999999046326,250531.5,8121,WL,A,3.0
2,6.148000001907349,learn,53851.99999809265,Tue Jun 09 2026 14:06:48 GMT-0500 (Central Daylight Time),251830.70000004768,A,meadow,I,w,198,1,1299.2000000476837,250531.5,8121,WL,A,3.0
2,6.38100004196167,learn,53618.99995803833,Tue Jun 09 2026 14:06:48 GMT-0500 (Central Daylight Time),252064.20000004768,A,meadowenter,I,enter,213,1,1532.7000000476837,250531.5,8121,WL,A,3.0
2,7.014000177383423,learn,52985.99982261658,Tue Jun 09 2026 14:06:48 GMT-0500 (Central Daylight Time),252697.0,A,s,I,s,620,1,632.2000000476837,252064.79999995232,8121,WL,A,4.0
2,7.231000185012817,learn,52768.99981498718,Tue Jun 09 2026 14:06:48 GMT-0500 (Central Daylight Time),252913.90000009537,A,sa,I,a,204,1,849.1000001430511,252064.79999995232,8121,WL,A,4.0
2,7.398000001907349,learn,52601.99999809265,Tue Jun 09 2026 14:06:48 GMT-0500 (Central Daylight Time),253080.40000009537,A,sal,I,l,155,1,1015.6000001430511,252064.79999995232,8121,WL,A,4.0
2,7.731000185012817,learn,52268.99981498718,Tue Jun 09 2026 14:06:48 GMT-0500 (Central Daylight Time),253413.40000009537,A,salt,I,t,316,1,1348.6000001430511,252064.79999995232,8121,WL,A,4.0
2,8.297000169754028,learn,51702.99983024597,Tue Jun 09 2026 14:06:48 GMT-0500 (Central Daylight Time),253980.09999990463,A,saltenter,I,enter,552,1,1915.2999999523163,252064.79999995232,8121,WL,A,4.0
2,8.63100004196167,learn,51368.99995803833,Tue Jun 09 2026 14:06:48 GMT-0500 (Central Daylight Time),254313.59999990463,A,a,I,a,312,1,333.09999990463257,253980.5,8121,WL,A,5.0
2,8.764000177383423,learn,51235.99982261658,Tue Jun 09 2026 14:06:48 GMT-0500 (Central Daylight Time),254446.90000009537,A,ap,I,p,115,1,466.40000009536743,253980.5,8121,WL,A,5.0
2,8.897000074386597,learn,51102.9999256134,Tue Jun 09 2026 14:06:48 GMT-0500 (Central Daylight Time),254579.59999990463,A,app,I,p,125,1,599.0999999046326,253980.5,8121,WL,A,5.0
2,9.080000162124634,learn,50919.999837875366,Tue Jun 09 2026 14:06:48 GMT-0500 (Central Daylight Time),254762.90000009537,A,appl,I,l,175,1,782.4000000953674,253980.5,8121,WL,A,5.0
2,9.230000019073486,learn,50769.999980926514,Tue Jun 09 2026 14:06:48 GMT-0500 (Central Daylight Time),254912.90000009537,A,apple,I,e,129,1,932.4000000953674,253980.5,8121,WL,A,5.0
2,9.830000162124634,learn,50169.999837875366,Tue Jun 09 2026 14:06:48 GMT-0500 (Central Daylight Time),255512.90000009537,A,appleenter,I,enter,587,1,1532.4000000953674,253980.5,8121,WL,A,5.0
2,10.36300015449524,learn,49636.99984550476,Tue Jun 09 2026 14:06:48 GMT-0500 (Central Daylight Time),256045.90000009537,A,c,I,c,515,1,532.7000000476837,255513.20000004768,8121,WL,A,6.0
2,10.430000066757202,learn,49569.9999332428,Tue Jun 09 2026 14:06:48 GMT-0500 (Central Daylight Time),256112.59999990463,A,ch,I,h,54,1,599.3999998569489,255513.20000004768,8121,WL,A,6.0
2,10.630000114440918,learn,49369.99988555908,Tue Jun 09 2026 14:06:48 GMT-0500 (Central Daylight Time),256312.79999995232,A,chi,I,i,179,1,799.5999999046326,255513.20000004768,8121,WL,A,6.0
2,10.763000011444092,learn,49236.99998855591,Tue Jun 09 2026 14:06:48 GMT-0500 (Central Daylight Time),256446.09999990463,A,chim,I,m,124,1,932.8999998569489,255513.20000004768,8121,WL,A,6.0
2,11.062999963760376,learn,48937.000036239624,Tue Jun 09 2026 14:06:48 GMT-0500 (Central Daylight Time),256745.79999995232,A,chimn,I,n,294,1,1232.5999999046326,255513.20000004768,8121,WL,A,6.0
2,11.444000005722046,learn,48555.999994277954,Tue Jun 09 2026 14:06:48 GMT-0500 (Central Daylight Time),257126.29999995232,A,chimne,I,e,242,1,1613.0999999046326,255513.20000004768,8121,WL,A,6.0
2,11.463000059127808,learn,48536.99994087219,Tue Jun 09 2026 14:06:48 GMT-0500 (Central Daylight Time),257145.59999990463,A,chimney,I,y,5,1,1632.3999998569489,255513.20000004768,8121,WL,A,6.0
2,12.446000099182129,learn,47553.99990081787,Tue Jun 09 2026 14:06:48 GMT-0500 (Central Daylight Time),258128.70000004768,A,chimneyenter,I,enter,970,1,2615.5,255513.20000004768,8121,WL,A,6.0
2,13.42900013923645,learn,46570.99986076355,Tue Jun 09 2026 14:06:48 GMT-0500 (Central Daylight Time),259111.79999995232,A,h,I,h,971,1,982.8999998569489,258128.90000009537,8121,WL,A,7.0
2,13.595999956130981,learn,46404.00004386902,Tue Jun 09 2026 14:06:48 GMT-0500 (Central Daylight Time),259278.20000004768,A,ha,I,a,149,1,1149.2999999523163,258128.90000009537,8121,WL,A,7.0
2,13.795000076293945,learn,46204.999923706055,Tue Jun 09 2026 14:06:48 GMT-0500 (Central Daylight Time),259478.20000004768,A,har,I,r,182,1,1349.2999999523163,258128.90000009537,8121,WL,A,7.0
2,13.945000171661377,learn,46054.99982833862,Tue Jun 09 2026 14:06:48 GMT-0500 (Central Daylight Time),259628.09999990463,A,harp,I,p,134,1,1499.1999998092651,258128.90000009537,8121,WL,A,7.0
2,14.861999988555908,learn,45138.00001144409,Tue Jun 09 2026 14:06:48 GMT-0500 (Central Daylight Time),260544.40000009537,A,harpenter,I,enter,904,1,2415.5,258128.90000009537,8121,WL,A,7.0
2,15.394999980926514,learn,44605.000019073486,Tue Jun 09 2026 14:06:48 GMT-0500 (Central Daylight Time),261077.79999995232,A,k,I,k,525,1,533.0999999046326,260544.70000004768,8121,WL,A,8.0
2,15.545000076293945,learn,44454.999923706055,Tue Jun 09 2026 14:06:48 GMT-0500 (Central Daylight Time),261227.70000004768,A,ke,I,e,134,1,683.0,260544.70000004768,8121,WL,A,8.0
2,15.712000131607056,learn,44287.999868392944,Tue Jun 09 2026 14:06:48 GMT-0500 (Central Daylight Time),261394.40000009537,A,key,I,y,153,1,849.7000000476837,260544.70000004768,8121,WL,A,8.0
2,16.011000156402588,learn,43988.99984359741,Tue Jun 09 2026 14:06:48 GMT-0500 (Central Daylight Time),261694.20000004768,A,keyenter,I,enter,282,1,1149.5,260544.70000004768,8121,WL,A,8.0
2,16.295000076293945,learn,43704.999923706055,Tue Jun 09 2026 14:06:48 GMT-0500 (Central Daylight Time),261977.29999995232,A,f,I,f,270,1,282.89999985694885,261694.40000009537,8121,WL,A,9.0
2,16.460999965667725,learn,43539.000034332275,Tue Jun 09 2026 14:06:48 GMT-0500 (Central Daylight Time),262144.2000000477,A,fi,I,i,147,1,449.7999999523163,261694.40000009537,8121,WL,A,9.0
2,16.59599995613098,learn,43404.00004386902,Tue Jun 09 2026 14:06:48 GMT-0500 (Central Daylight Time),262278.7000000477,A,fin,I,n,124,1,584.2999999523163,261694.40000009537,8121,WL,A,9.0
2,16.710999965667725,learn,43289.000034332275,Tue Jun 09 2026 14:06:48 GMT-0500 (Central Daylight Time),262394.2000000477,A,fing,I,g,102,1,699.7999999523163,261694.40000009537,8121,WL,A,9.0
2,16.878999948501587,learn,43121.00005149841,Tue Jun 09 2026 14:06:48 GMT-0500 (Central Daylight Time),262561.7000000477,A,finge,I,e,146,1,867.2999999523163,261694.40000009537,8121,WL,A,9.0
2,16.99500012397766,learn,43004.99987602234,Tue Jun 09 2026 14:06:48 GMT-0500 (Central Daylight Time),262677.2999999523,A,finger,I,r,98,1,982.8999998569489,261694.40000009537,8121,WL,A,9.0
2,17.761000156402588,learn,42238.99984359741,Tue Jun 09 2026 14:06:48 GMT-0500 (Central Daylight Time),263443.59999990463,A,fingerenter,I,enter,757,1,1749.1999998092651,261694.40000009537,8121,WL,A,9.0
2,24.992000102996826,learn,35007.999897003174,Tue Jun 09 2026 14:06:48 GMT-0500 (Central Daylight Time),270674.7000000477,A,l,I,l,7224,1,7230.799999952316,263443.90000009537,8121,WL,A,10.0
2,25.20800018310547,learn,34791.99981689453,Tue Jun 09 2026 14:06:48 GMT-0500 (Central Daylight Time),270891.2000000477,A,lo,I,o,208,1,7447.299999952316,263443.90000009537,8121,WL,A,10.0
2,25.409000158309937,learn,34590.99984169006,Tue Jun 09 2026 14:06:48 GMT-0500 (Central Daylight Time),271091.40000009537,A,log,I,g,193,1,7647.5,263443.90000009537,8121,WL,A,10.0
2,25.942000150680542,learn,34057.99984931946,Tue Jun 09 2026 14:06:48 GMT-0500 (Central Daylight Time),271624.59999990463,A,logenter,I,enter,512,1,8180.699999809265,263443.90000009537,8121,WL,A,10.0
2,60.01300001144409,learn,-13.000011444091797,Tue Jun 09 2026 14:06:48 GMT-0500 (Central Daylight Time),305697.2999999523,A,None,I,None,34067,1,34072.5,271624.7999999523,8121,WL,A,11.0
3,0.8330001831054688,learn,59166.99981689453,Tue Jun 09 2026 14:06:48 GMT-0500 (Central Daylight Time),371160.2000000477,A,t,I,t,813,1,833.1000001430511,370327.09999990463,8121,WL,A,1.0
3,1.0329999923706055,learn,58967.000007629395,Tue Jun 09 2026 14:06:48 GMT-0500 (Central Daylight Time),371360.0,A,tr,I,r,179,1,1032.9000000953674,370327.09999990463,8121,WL,A,1.0
3,1.2160000801086426,learn,58783.99991989136,Tue Jun 09 2026 14:06:48 GMT-0500 (Central Daylight Time),371543.0,A,tra,I,a,164,1,1215.9000000953674,370327.09999990463,8121,WL,A,1.0
3,1.3990001678466797,learn,58600.99983215332,Tue Jun 09 2026 14:06:48 GMT-0500 (Central Daylight Time),371726.2999999523,A,trai,I,i,172,1,1399.2000000476837,370327.09999990463,8121,WL,A,1.0
3,1.4830000400543213,learn,58516.99995994568,Tue Jun 09 2026 14:06:48 GMT-0500 (Central Daylight Time),371809.7000000477,A,train,I,n,70,1,1482.6000001430511,370327.09999990463,8121,WL,A,1.0
3,2.4660000801086426,learn,57533.99991989136,Tue Jun 09 2026 14:06:48 GMT-0500 (Central Daylight Time),372792.59999990463,A,trainenter,I,enter,970,1,2465.5,370327.09999990463,8121,WL,A,1.0
3,4.115000009536743,learn,55884.99999046326,Tue Jun 09 2026 14:06:48 GMT-0500 (Central Daylight Time),374442.2000000477,A,g,I,g,1636,1,1649.4000000953674,372792.7999999523,8121,WL,A,2.0
3,4.199000120162964,learn,55800.999879837036,Tue Jun 09 2026 14:06:48 GMT-0500 (Central Daylight Time),374525.7999999523,A,go,I,o,75,1,1733.0,372792.7999999523,8121,WL,A,2.0
3,4.416000127792358,learn,55583.99987220764,Tue Jun 09 2026 14:06:48 GMT-0500 (Central Daylight Time),374743.2000000477,A,gol,I,l,207,1,1950.4000000953674,372792.7999999523,8121,WL,A,2.0
3,4.565000057220459,learn,55434.99994277954,Tue Jun 09 2026 14:06:48 GMT-0500 (Central Daylight Time),374892.0,A,gold,I,d,140,1,2099.2000000476837,372792.7999999523,8121,WL,A,2.0
3,4.830000162124634,learn,55169.999837875366,Tue Jun 09 2026 14:06:48 GMT-0500 (Central Daylight Time),375156.7999999523,A,goldenter,I,enter,259,1,2364.0,372792.7999999523,8121,WL,A,2.0
3,5.148000001907349,learn,54851.99999809265,Tue Jun 09 2026 14:06:48 GMT-0500 (Central Daylight Time),375475.40000009537,A,r,I,r,302,1,318.2000000476837,375157.2000000477,8121,WL,A,3.0
3,5.331000089645386,learn,54668.999910354614,Tue Jun 09 2026 14:06:48 GMT-0500 (Central Daylight Time),375658.2999999523,A,ra,I,a,175,1,501.09999990463257,375157.2000000477,8121,WL,A,3.0
3,5.5320000648498535,learn,54467.99993515015,Tue Jun 09 2026 14:06:48 GMT-0500 (Central Daylight Time),375858.59999990463,A,rat,I,t,195,1,701.3999998569489,375157.2000000477,8121,WL,A,3.0
3,5.715000152587891,learn,54284.99984741211,Tue Jun 09 2026 14:06:48 GMT-0500 (Central Daylight Time),376041.7000000477,A,ratt,I,t,178,1,884.5,375157.2000000477,8121,WL,A,3.0
3,6.13100004196167,learn,53868.99995803833,Tue Jun 09 2026 14:06:48 GMT-0500 (Central Daylight Time),376458.2000000477,A,rattl,I,l,403,1,1301.0,375157.2000000477,8121,WL,A,3.0
3,6.281000137329102,learn,53718.9998626709,Tue Jun 09 2026 14:06:48 GMT-0500 (Central Daylight Time),376608.0,A,rattle,I,e,138,1,1450.7999999523163,375157.2000000477,8121,WL,A,3.0
3,6.515000104904175,learn,53484.999895095825,Tue Jun 09 2026 14:06:48 GMT-0500 (Central Daylight Time),376841.59999990463,A,rattleenter,I,enter,220,1,1684.3999998569489,375157.2000000477,8121,WL,A,3.0
3,6.714000225067139,learn,53285.99977493286,Tue Jun 09 2026 14:06:48 GMT-0500 (Central Daylight Time),377041.40000009537,A,b,I,b,187,1,199.5,376841.90000009537,8121,WL,A,4.0
3,6.865000009536743,learn,53134.99999046326,Tue Jun 09 2026 14:06:48 GMT-0500 (Central Daylight Time),377191.59999990463,A,bu,I,u,131,1,349.69999980926514,376841.90000009537,8121,WL,A,4.0
3,6.998000144958496,learn,53001.999855041504,Tue Jun 09 2026 14:06:48 GMT-0500 (Central Daylight Time),377324.5,A,but,I,t,124,1,482.59999990463257,376841.90000009537,8121,WL,A,4.0
3,7.180999994277954,learn,52819.000005722046,Tue Jun 09 2026 14:06:48 GMT-0500 (Central Daylight Time),377507.7999999523,A,butt,I,t,167,1,665.8999998569489,376841.90000009537,8121,WL,A,4.0
3,7.314000129699707,learn,52685.99987030029,Tue Jun 09 2026 14:06:48 GMT-0500 (Central Daylight Time),377641.0,A,butto,I,o,120,1,799.0999999046326,376841.90000009537,8121,WL,A,4.0
3,7.464000225067139,learn,52535.99977493286,Tue Jun 09 2026 14:06:48 GMT-0500 (Central Daylight Time),377791.09999990463,A,button,I,n,131,1,949.1999998092651,376841.90000009537,8121,WL,A,4.0
3,7.864000082015991,learn,52135.99991798401,Tue Jun 09 2026 14:06:48 GMT-0500 (Central Daylight Time),378191.2000000477,A,buttonenter,I,enter,388,1,1349.2999999523163,376841.90000009537,8121,WL,A,4.0
3,8.180000066757202,learn,51819.9999332428,Tue Jun 09 2026 14:06:48 GMT-0500 (Central Daylight Time),378507.40000009537,A,f,I,f,309,1,315.90000009536743,378191.5,8121,WL,A,5.0
3,8.264000177383423,learn,51735.99982261658,Tue Jun 09 2026 14:06:48 GMT-0500 (Central Daylight Time),378590.90000009537,A,fl,I,l,73,1,399.40000009536743,378191.5,8121,WL,A,5.0
3,8.497000217437744,learn,51502.999782562256,Tue Jun 09 2026 14:06:48 GMT-0500 (Central Daylight Time),378824.09999990463,A,flo,I,o,212,1,632.5999999046326,378191.5,8121,WL,A,5.0
3,8.597000122070312,learn,51402.99987792969,Tue Jun 09 2026 14:06:48 GMT-0500 (Central Daylight Time),378924.09999990463,A,flow,I,w,92,1,732.5999999046326,378191.5,8121,WL,A,5.0
3,8.747000217437744,learn,51252.999782562256,Tue Jun 09 2026 14:06:48 GMT-0500 (Central Daylight Time),379074.2999999523,A,flowe,I,e,137,1,882.7999999523163,378191.5,8121,WL,A,5.0
3,8.847000122070312,learn,51152.99987792969,Tue Jun 09 2026 14:06:48 GMT-0500 (Central Daylight Time),379174.2000000477,A,flower,I,r,82,1,982.7000000476837,378191.5,8121,WL,A,5.0
3,9.147000074386597,learn,50852.9999256134,Tue Jun 09 2026 14:06:48 GMT-0500 (Central Daylight Time),379474.2000000477,A,flowerenter,I,enter,286,1,1282.7000000476837,378191.5,8121,WL,A,5.0
3,9.53000020980835,learn,50469.99979019165,Tue Jun 09 2026 14:06:48 GMT-0500 (Central Daylight Time),379857.2999999523,A,m,I,m,378,1,382.7000000476837,379474.59999990463,8121,WL,A,6.0
3,9.61300015449524,learn,50386.99984550476,Tue Jun 09 2026 14:06:48 GMT-0500 (Central Daylight Time),379940.40000009537,A,me,I,e,68,1,465.80000019073486,379474.59999990463,8121,WL,A,6.0
3,9.747000217437744,learn,50252.999782562256,Tue Jun 09 2026 14:06:48 GMT-0500 (Central Daylight Time),380073.7000000477,A,mea,I,a,128,1,599.1000001430511,379474.59999990463,8121,WL,A,6.0
3,9.914000034332275,learn,50085.999965667725,Tue Jun 09 2026 14:06:48 GMT-0500 (Central Daylight Time),380240.90000009537,A,mead,I,d,154,1,766.3000001907349,379474.59999990463,8121,WL,A,6.0
3,10.080000162124634,learn,49919.999837875366,Tue Jun 09 2026 14:06:48 GMT-0500 (Central Daylight Time),380407.2999999523,A,meado,I,o,149,1,932.7000000476837,379474.59999990463,8121,WL,A,6.0
3,10.264000177383423,learn,49735.99982261658,Tue Jun 09 2026 14:06:48 GMT-0500 (Central Daylight Time),380590.5,A,meadow,I,w,165,1,1115.9000000953674,379474.59999990463,8121,WL,A,6.0
3,10.547000169754028,learn,49452.99983024597,Tue Jun 09 2026 14:06:48 GMT-0500 (Central Daylight Time),380873.5,A,meadowenter,I,enter,270,1,1398.9000000953674,379474.59999990463,8121,WL,A,6.0
3,12.59600019454956,learn,47403.99980545044,Tue Jun 09 2026 14:06:48 GMT-0500 (Central Daylight Time),382922.90000009537,A,k,I,k,2033,1,2048.9000000953674,380874.0,8121,WL,A,7.0
3,13.828999996185303,learn,46171.0000038147,Tue Jun 09 2026 14:06:48 GMT-0500 (Central Daylight Time),384155.7999999523,A,ke,I,e,1225,1,3281.7999999523163,380874.0,8121,WL,A,7.0
3,14.212000131607056,learn,45787.999868392944,Tue Jun 09 2026 14:06:48 GMT-0500 (Central Daylight Time),384538.90000009537,A,key,I,y,368,1,3664.9000000953674,380874.0,8121,WL,A,7.0
3,14.778000116348267,learn,45221.99988365173,Tue Jun 09 2026 14:06:48 GMT-0500 (Central Daylight Time),385105.40000009537,A,keyenter,I,enter,553,1,4231.400000095367,380874.0,8121,WL,A,7.0
3,15.111999988555908,learn,44888.00001144409,Tue Jun 09 2026 14:06:48 GMT-0500 (Central Daylight Time),385438.7000000477,A,l,I,l,323,1,333.0,385105.7000000477,8121,WL,A,8.0
3,15.312000036239624,learn,44687.999963760376,Tue Jun 09 2026 14:06:48 GMT-0500 (Central Daylight Time),385639.40000009537,A,lo,I,o,189,1,533.7000000476837,385105.7000000477,8121,WL,A,8.0
3,15.57800006866455,learn,44421.99993133545,Tue Jun 09 2026 14:06:48 GMT-0500 (Central Daylight Time),385905.5,A,log,I,g,254,1,799.7999999523163,385105.7000000477,8121,WL,A,8.0
3,16.32800006866455,learn,43671.99993133545,Tue Jun 09 2026 14:06:48 GMT-0500 (Central Daylight Time),386655.0,A,logenter,I,enter,739,1,1549.2999999523163,385105.7000000477,8121,WL,A,8.0
3,18.211000204086304,learn,41788.999795913696,Tue Jun 09 2026 14:06:48 GMT-0500 (Central Daylight Time),388537.7999999523,A,d,I,d,1869,1,1882.5,386655.2999999523,8121,WL,A,9.0
3,18.627000093460083,learn,41372.99990653992,Tue Jun 09 2026 14:06:48 GMT-0500 (Central Daylight Time),388954.2000000477,A,,I,backspace,409,1,2298.9000000953674,386655.2999999523,8121,WL,A,9.0
3,18.74400019645691,learn,41255.99980354309,Tue Jun 09 2026 14:06:48 GMT-0500 (Central Daylight Time),389071.0,A,c,I,c,98,1,2415.7000000476837,386655.2999999523,8121,WL,A,9.0
3,18.8270001411438,learn,41172.9998588562,Tue Jun 09 2026 14:06:48 GMT-0500 (Central Daylight Time),389154.40000009537,A,ch,I,h,77,1,2499.100000143051,386655.2999999523,8121,WL,A,9.0
3,19.0770001411438,learn,40922.9998588562,Tue Jun 09 2026 14:06:48 GMT-0500 (Central Daylight Time),389404.09999990463,A,chm,I,m,241,1,2748.7999999523163,386655.2999999523,8121,WL,A,9.0
3,19.294000148773193,learn,40705.99985122681,Tue Jun 09 2026 14:06:48 GMT-0500 (Central Daylight Time),389620.90000009537,A,chmi,I,i,206,1,2965.600000143051,386655.2999999523,8121,WL,A,9.0
3,19.72699999809265,learn,40273.00000190735,Tue Jun 09 2026 14:06:48 GMT-0500 (Central Daylight Time),390053.90000009537,A,chm,I,backspace,414,1,3398.600000143051,386655.2999999523,8121,WL,A,9.0
3,19.89300012588501,learn,40106.99987411499,Tue Jun 09 2026 14:06:48 GMT-0500 (Central Daylight Time),390220.5,A,ch,I,backspace,149,1,3565.2000000476837,386655.2999999523,8121,WL,A,9.0
3,20.04300022125244,learn,39956.99977874756,Tue Jun 09 2026 14:06:48 GMT-0500 (Central Daylight Time),390370.40000009537,A,chi,I,i,135,1,3715.100000143051,386655.2999999523,8121,WL,A,9.0
3,20.177000045776367,learn,39822.99995422363,Tue Jun 09 2026 14:06:48 GMT-0500 (Central Daylight Time),390503.7999999523,A,chim,I,m,113,1,3848.5,386655.2999999523,8121,WL,A,9.0
3,20.509999990463257,learn,39490.00000953674,Tue Jun 09 2026 14:06:48 GMT-0500 (Central Daylight Time),390836.90000009537,A,chimn,I,n,316,1,4181.600000143051,386655.2999999523,8121,WL,A,9.0
3,20.759999990463257,learn,39240.00000953674,Tue Jun 09 2026 14:06:48 GMT-0500 (Central Daylight Time),391087.0,A,chimne,I,e,231,1,4431.700000047684,386655.2999999523,8121,WL,A,9.0
3,20.860000133514404,learn,39139.999866485596,Tue Jun 09 2026 14:06:48 GMT-0500 (Central Daylight Time),391186.7999999523,A,chimney,I,y,85,1,4531.5,386655.2999999523,8121,WL,A,9.0
3,21.426000118255615,learn,38573.999881744385,Tue Jun 09 2026 14:06:48 GMT-0500 (Central Daylight Time),391753.5,A,chimneyenter,I,enter,550,1,5098.200000047684,386655.2999999523,8121,WL,A,9.0
3,22.026000022888184,learn,37973.99997711182,Tue Jun 09 2026 14:06:48 GMT-0500 (Central Daylight Time),392353.40000009537,A,f,I,f,594,1,599.6000001430511,391753.7999999523,8121,WL,A,10.0
3,22.12600016593933,learn,37873.99983406067,Tue Jun 09 2026 14:06:48 GMT-0500 (Central Daylight Time),392452.90000009537,A,fi,I,i,82,1,699.1000001430511,391753.7999999523,8121,WL,A,10.0
3,22.243000030517578,learn,37756.99996948242,Tue Jun 09 2026 14:06:48 GMT-0500 (Central Daylight Time),392569.7999999523,A,fin,I,n,110,1,816.0,391753.7999999523,8121,WL,A,10.0
3,22.39300012588501,learn,37606.99987411499,Tue Jun 09 2026 14:06:48 GMT-0500 (Central Daylight Time),392720.2999999523,A,fing,I,g,138,1,966.5,391753.7999999523,8121,WL,A,10.0
3,22.54300022125244,learn,37456.99977874756,Tue Jun 09 2026 14:06:48 GMT-0500 (Central Daylight Time),392869.7000000477,A,finge,I,e,138,1,1115.9000000953674,391753.7999999523,8121,WL,A,10.0
3,22.70900011062622,learn,37290.99988937378,Tue Jun 09 2026 14:06:48 GMT-0500 (Central Daylight Time),393036.2999999523,A,finger,I,r,158,1,1282.5,391753.7999999523,8121,WL,A,10.0
3,23.62600016593933,learn,36373.99983406067,Tue Jun 09 2026 14:06:48 GMT-0500 (Central Daylight Time),393952.7999999523,A,fingerenter,I,enter,895,1,2199.0,391753.7999999523,8121,WL,A,10.0
3,30.60700011253357,learn,29392.99988746643,Tue Jun 09 2026 14:06:48 GMT-0500 (Central Daylight Time),400934.0,A,l,I,l,6972,1,6980.799999952316,393953.2000000477,8121,WL,A,11.0
3,30.807000160217285,learn,29192.999839782715,Tue Jun 09 2026 14:06:48 GMT-0500 (Central Daylight Time),401134.0,A,lo,I,o,189,1,7180.799999952316,393953.2000000477,8121,WL,A,11.0
3,31.02500009536743,learn,28974.99990463257,Tue Jun 09 2026 14:06:48 GMT-0500 (Central Daylight Time),401351.7000000477,A,log,I,g,198,1,7398.5,393953.2000000477,8121,WL,A,11.0
3,31.823000192642212,learn,28176.999807357788,Tue Jun 09 2026 14:06:48 GMT-0500 (Central Daylight Time),402150.5,A,logenter,I,enter,789,1,8197.299999952316,393953.2000000477,8121,WL,A,11.0
3,34.855000019073486,learn,25144.999980926514,Tue Jun 09 2026 14:06:48 GMT-0500 (Central Daylight Time),405182.40000009537,A,b,I,b,3014,1,3031.5,402150.90000009537,8121,WL,A,12.0
3,35.0220000743866,learn,24977.999925613403,Tue Jun 09 2026 14:06:48 GMT-0500 (Central Daylight Time),405349.2000000477,A,bo,I,o,157,1,3198.2999999523163,402150.90000009537,8121,WL,A,12.0
3,35.206000089645386,learn,24793.999910354614,Tue Jun 09 2026 14:06:48 GMT-0500 (Central Daylight Time),405532.7000000477,A,boo,I,o,166,1,3381.7999999523163,402150.90000009537,8121,WL,A,12.0
3,35.372000217437744,learn,24627.999782562256,Tue Jun 09 2026 14:06:48 GMT-0500 (Central Daylight Time),405699.2000000477,A,book,I,k,161,1,3548.2999999523163,402150.90000009537,8121,WL,A,12.0
3,35.90500020980835,learn,24094.99979019165,Tue Jun 09 2026 14:06:48 GMT-0500 (Central Daylight Time),406232.2999999523,A,bookenter,I,enter,513,1,4081.399999856949,402150.90000009537,8121,WL,A,12.0
3,44.80200004577637,learn,15197.999954223633,Tue Jun 09 2026 14:06:48 GMT-0500 (Central Daylight Time),415129.2999999523,A,a,I,a,8882,1,8896.599999904633,406232.7000000477,8121,WL,A,13.0
3,44.93500018119812,learn,15064.99981880188,Tue Jun 09 2026 14:06:48 GMT-0500 (Central Daylight Time),415262.7999999523,A,ap,I,p,114,1,9030.099999904633,406232.7000000477,8121,WL,A,13.0
3,45.1010000705719,learn,14898.9999294281,Tue Jun 09 2026 14:06:48 GMT-0500 (Central Daylight Time),415429.2999999523,A,app,I,p,157,1,9196.599999904633,406232.7000000477,8121,WL,A,13.0
3,45.28500008583069,learn,14714.999914169312,Tue Jun 09 2026 14:06:48 GMT-0500 (Central Daylight Time),415612.7000000477,A,appl,I,l,174,1,9380.0,406232.7000000477,8121,WL,A,13.0
3,45.4520001411438,learn,14547.999858856201,Tue Jun 09 2026 14:06:48 GMT-0500 (Central Daylight Time),415779.40000009537,A,apple,I,e,160,1,9546.700000047684,406232.7000000477,8121,WL,A,13.0
3,45.63499999046326,learn,14365.000009536743,Tue Jun 09 2026 14:06:48 GMT-0500 (Central Daylight Time),415962.5,A,appleenter,I,enter,169,1,9729.799999952316,406232.7000000477,8121,WL,A,13.0
3,45.88499999046326,learn,14115.000009536743,Tue Jun 09 2026 14:06:48 GMT-0500 (Central Daylight Time),416212.7000000477,A,s,I,s,235,1,250.0,415962.7000000477,8121,WL,A,14.0
3,46.08400011062622,learn,13915.99988937378,Tue Jun 09 2026 14:06:48 GMT-0500 (Central Daylight Time),416412.2000000477,A,sa,I,a,191,1,449.5,415962.7000000477,8121,WL,A,14.0
3,46.218000173568726,learn,13781.999826431274,Tue Jun 09 2026 14:06:48 GMT-0500 (Central Daylight Time),416545.59999990463,A,sal,I,l,126,1,582.8999998569489,415962.7000000477,8121,WL,A,14.0
3,46.48400020599365,learn,13515.999794006348,Tue Jun 09 2026 14:06:48 GMT-0500 (Central Daylight Time),416812.2999999523,A,salt,I,t,250,1,849.5999999046326,415962.7000000477,8121,WL,A,14.0
3,46.95100021362305,learn,13048.999786376953,Tue Jun 09 2026 14:06:48 GMT-0500 (Central Daylight Time),417278.7000000477,A,saltenter,I,enter,457,1,1316.0,415962.7000000477,8121,WL,A,14.0
3,60.01300001144409,learn,-13.000011444091797,Tue Jun 09 2026 14:06:48 GMT-0500 (Central Daylight Time),430341.2999999523,A,None,I,None,13057,1,13062.5,417278.7999999523,8121,WL,A,15.0
4,0.6160001754760742,learn,59383.999824523926,Tue Jun 09 2026 14:06:48 GMT-0500 (Central Daylight Time),497286.7999999523,A,b,I,b,598,1,615.8999998569489,496670.90000009537,8121,WL,A,1.0
4,1.0340001583099365,learn,58965.99984169006,Tue Jun 09 2026 14:06:48 GMT-0500 (Central Daylight Time),497704.0,A,bo,I,o,405,1,1033.0999999046326,496670.90000009537,8121,WL,A,1.0
4,1.2180001735687256,learn,58781.999826431274,Tue Jun 09 2026 14:06:48 GMT-0500 (Central Daylight Time),497888.2000000477,A,boo,I,o,173,1,1217.2999999523163,496670.90000009537,8121,WL,A,1.0
4,1.433000087738037,learn,58566.99991226196,Tue Jun 09 2026 14:06:48 GMT-0500 (Central Daylight Time),498103.2999999523,A,book,I,k,196,1,1432.3999998569489,496670.90000009537,8121,WL,A,1.0
4,1.7160000801086426,learn,58283.99991989136,Tue Jun 09 2026 14:06:48 GMT-0500 (Central Daylight Time),498386.7000000477,A,bookenter,I,enter,269,1,1715.7999999523163,496670.90000009537,8121,WL,A,1.0
4,2.116000175476074,learn,57883.999824523926,Tue Jun 09 2026 14:06:48 GMT-0500 (Central Daylight Time),498786.59999990463,A,t,I,t,385,1,399.69999980926514,498386.90000009537,8121,WL,A,2.0
4,2.2990000247955322,learn,57700.99997520447,Tue Jun 09 2026 14:06:48 GMT-0500 (Central Daylight Time),498969.7999999523,A,tr,I,r,178,1,582.8999998569489,498386.90000009537,8121,WL,A,2.0
4,2.434000015258789,learn,57565.99998474121,Tue Jun 09 2026 14:06:48 GMT-0500 (Central Daylight Time),499104.5,A,tra,I,a,124,1,717.5999999046326,498386.90000009537,8121,WL,A,2.0
4,2.5990002155303955,learn,57400.999784469604,Tue Jun 09 2026 14:06:48 GMT-0500 (Central Daylight Time),499269.59999990463,A,trai,I,i,156,1,882.6999998092651,498386.90000009537,8121,WL,A,2.0
4,2.699000120162964,learn,57300.999879837036,Tue Jun 09 2026 14:06:48 GMT-0500 (Central Daylight Time),499369.59999990463,A,train,I,n,77,1,982.6999998092651,498386.90000009537,8121,WL,A,2.0
4,3.0490000247955322,learn,56950.99997520447,Tue Jun 09 2026 14:06:48 GMT-0500 (Central Daylight Time),499719.5,A,trainenter,I,enter,338,1,1332.5999999046326,498386.90000009537,8121,WL,A,2.0
4,3.565999984741211,learn,56434.00001525879,Tue Jun 09 2026 14:06:48 GMT-0500 (Central Daylight Time),500236.5,A,r,I,r,501,1,516.5999999046326,499719.90000009537,8121,WL,A,3.0
4,3.699000120162964,learn,56300.999879837036,Tue Jun 09 2026 14:06:48 GMT-0500 (Central Daylight Time),500369.40000009537,A,ru,I,u,128,1,649.5,499719.90000009537,8121,WL,A,3.0
4,3.9820001125335693,learn,56017.99988746643,Tue Jun 09 2026 14:06:48 GMT-0500 (Central Daylight Time),500652.59999990463,A,rug,I,g,266,1,932.6999998092651,499719.90000009537,8121,WL,A,3.0
4,5.3480000495910645,learn,54651.999950408936,Tue Jun 09 2026 14:06:48 GMT-0500 (Central Daylight Time),502018.7999999523,A,rugenter,I,enter,1359,1,2298.899999856949,499719.90000009537,8121,WL,A,3.0
4,5.64900016784668,learn,54350.99983215332,Tue Jun 09 2026 14:06:48 GMT-0500 (Central Daylight Time),502319.0,A,f,I,f,282,1,299.90000009536743,502019.09999990463,8121,WL,A,4.0
4,5.715000152587891,learn,54284.99984741211,Tue Jun 09 2026 14:06:48 GMT-0500 (Central Daylight Time),502385.2999999523,A,fl,I,l,61,1,366.2000000476837,502019.09999990463,8121,WL,A,4.0
4,5.932000160217285,learn,54067.999839782715,Tue Jun 09 2026 14:06:48 GMT-0500 (Central Daylight Time),502602.09999990463,A,flo,I,o,203,1,583.0,502019.09999990463,8121,WL,A,4.0
4,6.015000104904175,learn,53984.999895095825,Tue Jun 09 2026 14:06:48 GMT-0500 (Central Daylight Time),502685.2999999523,A,flow,I,w,74,1,666.2000000476837,502019.09999990463,8121,WL,A,4.0
4,6.180999994277954,learn,53819.000005722046,Tue Jun 09 2026 14:06:48 GMT-0500 (Central Daylight Time),502851.7999999523,A,flowe,I,e,159,1,832.7000000476837,502019.09999990463,8121,WL,A,4.0
4,6.265000104904175,learn,53734.999895095825,Tue Jun 09 2026 14:06:48 GMT-0500 (Central Daylight Time),502935.09999990463,A,flower,I,r,64,1,916.0,502019.09999990463,8121,WL,A,4.0
4,6.465000152587891,learn,53534.99984741211,Tue Jun 09 2026 14:06:48 GMT-0500 (Central Daylight Time),503135.2000000477,A,flowerenter,I,enter,180,1,1116.1000001430511,502019.09999990463,8121,WL,A,4.0
4,6.765000104904175,learn,53234.999895095825,Tue Jun 09 2026 14:06:48 GMT-0500 (Central Daylight Time),503435.09999990463,A,b,I,b,285,1,299.59999990463257,503135.5,8121,WL,A,5.0
4,6.965000152587891,learn,53034.99984741211,Tue Jun 09 2026 14:06:48 GMT-0500 (Central Daylight Time),503635.09999990463,A,be,I,e,184,1,499.59999990463257,503135.5,8121,WL,A,5.0
4,7.71399998664856,learn,52286.00001335144,Tue Jun 09 2026 14:06:48 GMT-0500 (Central Daylight Time),504384.7999999523,A,b,I,backspace,737,1,1249.2999999523163,503135.5,8121,WL,A,5.0
4,7.930999994277954,learn,52069.000005722046,Tue Jun 09 2026 14:06:48 GMT-0500 (Central Daylight Time),504601.7999999523,A,,I,backspace,204,1,1466.2999999523163,503135.5,8121,WL,A,5.0
4,8.165000200271606,learn,51834.99979972839,Tue Jun 09 2026 14:06:48 GMT-0500 (Central Daylight Time),504835.0,A,m,I,m,227,1,1699.5,503135.5,8121,WL,A,5.0
4,8.29800009727478,learn,51701.99990272522,Tue Jun 09 2026 14:06:48 GMT-0500 (Central Daylight Time),504967.90000009537,A,me,I,e,113,1,1832.4000000953674,503135.5,8121,WL,A,5.0
4,8.44700002670288,learn,51552.99997329712,Tue Jun 09 2026 14:06:48 GMT-0500 (Central Daylight Time),505117.7999999523,A,mea,I,a,132,1,1982.2999999523163,503135.5,8121,WL,A,5.0
4,8.63100004196167,learn,51368.99995803833,Tue Jun 09 2026 14:06:48 GMT-0500 (Central Daylight Time),505301.0,A,mead,I,d,174,1,2165.5,503135.5,8121,WL,A,5.0
4,8.797000169754028,learn,51202.99983024597,Tue Jun 09 2026 14:06:48 GMT-0500 (Central Daylight Time),505467.59999990463,A,meado,I,o,159,1,2332.0999999046326,503135.5,8121,WL,A,5.0
4,9.014000177383423,learn,50985.99982261658,Tue Jun 09 2026 14:06:48 GMT-0500 (Central Daylight Time),505684.2000000477,A,meadow,I,w,209,1,2548.7000000476837,503135.5,8121,WL,A,5.0
4,9.348000049591064,learn,50651.999950408936,Tue Jun 09 2026 14:06:48 GMT-0500 (Central Daylight Time),506017.90000009537,A,meadowenter,I,enter,312,1,2882.4000000953674,503135.5,8121,WL,A,5.0
4,9.69700002670288,learn,50302.99997329712,Tue Jun 09 2026 14:06:48 GMT-0500 (Central Daylight Time),506367.2999999523,A,s,I,s,330,1,349.09999990463257,506018.2000000477,8121,WL,A,6.0
4,9.914000034332275,learn,50085.999965667725,Tue Jun 09 2026 14:06:48 GMT-0500 (Central Daylight Time),506584.2000000477,A,sa,I,a,195,1,566.0,506018.2000000477,8121,WL,A,6.0
4,10.047000169754028,learn,49952.99983024597,Tue Jun 09 2026 14:06:48 GMT-0500 (Central Daylight Time),506717.7999999523,A,sal,I,l,115,1,699.5999999046326,506018.2000000477,8121,WL,A,6.0
4,10.564000129699707,learn,49435.99987030029,Tue Jun 09 2026 14:06:48 GMT-0500 (Central Daylight Time),507234.2000000477,A,salt,I,t,502,1,1216.0,506018.2000000477,8121,WL,A,6.0
4,10.813000202178955,learn,49186.999797821045,Tue Jun 09 2026 14:06:48 GMT-0500 (Central Daylight Time),507483.7999999523,A,saltenter,I,enter,233,1,1465.5999999046326,506018.2000000477,8121,WL,A,6.0
4,11.080000162124634,learn,48919.999837875366,Tue Jun 09 2026 14:06:48 GMT-0500 (Central Daylight Time),507750.2999999523,A,a,I,a,248,1,266.2999999523163,507484.0,8121,WL,A,7.0
4,11.19700002670288,learn,48802.99997329712,Tue Jun 09 2026 14:06:48 GMT-0500 (Central Daylight Time),507867.2000000477,A,ap,I,p,111,1,383.2000000476837,507484.0,8121,WL,A,7.0
4,11.364000082015991,learn,48635.99991798401,Tue Jun 09 2026 14:06:48 GMT-0500 (Central Daylight Time),508033.90000009537,A,app,I,p,153,1,549.9000000953674,507484.0,8121,WL,A,7.0
4,11.547000169754028,learn,48452.99983024597,Tue Jun 09 2026 14:06:48 GMT-0500 (Central Daylight Time),508216.90000009537,A,appl,I,l,169,1,732.9000000953674,507484.0,8121,WL,A,7.0
4,11.680000066757202,learn,48319.9999332428,Tue Jun 09 2026 14:06:48 GMT-0500 (Central Daylight Time),508350.5,A,apple,I,e,122,1,866.5,507484.0,8121,WL,A,7.0
4,13.146000146865845,learn,46853.999853134155,Tue Jun 09 2026 14:06:48 GMT-0500 (Central Daylight Time),509816.40000009537,A,appleenter,I,enter,1445,1,2332.4000000953674,507484.0,8121,WL,A,7.0
4,14.529000043869019,learn,45470.99995613098,Tue Jun 09 2026 14:06:48 GMT-0500 (Central Daylight Time),511199.40000009537,A,f,I,f,1372,1,1382.8000001907349,509816.59999990463,8121,WL,A,8.0
4,14.59600019454956,learn,45403.99980545044,Tue Jun 09 2026 14:06:48 GMT-0500 (Central Daylight Time),511266.09999990463,A,fi,I,i,61,1,1449.5,509816.59999990463,8121,WL,A,8.0
4,14.729000091552734,learn,45270.999908447266,Tue Jun 09 2026 14:06:48 GMT-0500 (Central Daylight Time),511399.5,A,fin,I,n,122,1,1582.9000000953674,509816.59999990463,8121,WL,A,8.0
4,15.029000043869019,learn,44970.99995613098,Tue Jun 09 2026 14:06:48 GMT-0500 (Central Daylight Time),511699.2000000477,A,fing,I,g,285,1,1882.6000001430511,509816.59999990463,8121,WL,A,8.0
4,15.212000131607056,learn,44787.999868392944,Tue Jun 09 2026 14:06:48 GMT-0500 (Central Daylight Time),511882.5,A,finge,I,e,169,1,2065.9000000953674,509816.59999990463,8121,WL,A,8.0
4,15.295000076293945,learn,44704.999923706055,Tue Jun 09 2026 14:06:48 GMT-0500 (Central Daylight Time),511965.59999990463,A,finger,I,r,72,1,2149.0,509816.59999990463,8121,WL,A,8.0
4,15.562000036239624,learn,44437.999963760376,Tue Jun 09 2026 14:06:48 GMT-0500 (Central Daylight Time),512232.2999999523,A,fingerenter,I,enter,254,1,2415.7000000476837,509816.59999990463,8121,WL,A,8.0
4,15.84600019454956,learn,44153.99980545044,Tue Jun 09 2026 14:06:48 GMT-0500 (Central Daylight Time),512516.0,A,c,I,c,267,1,283.2999999523163,512232.7000000477,8121,WL,A,9.0
4,15.979000091552734,learn,44020.999908447266,Tue Jun 09 2026 14:06:48 GMT-0500 (Central Daylight Time),512649.0,A,ch,I,h,112,1,416.2999999523163,512232.7000000477,8121,WL,A,9.0
4,16.180000066757202,learn,43819.9999332428,Tue Jun 09 2026 14:06:48 GMT-0500 (Central Daylight Time),512850.0,A,chi,I,i,180,1,617.2999999523163,512232.7000000477,8121,WL,A,9.0
4,16.378000020980835,learn,43621.999979019165,Tue Jun 09 2026 14:06:48 GMT-0500 (Central Daylight Time),513048.59999990463,A,chim,I,m,186,1,815.8999998569489,512232.7000000477,8121,WL,A,9.0
4,16.778000116348267,learn,43221.99988365173,Tue Jun 09 2026 14:06:48 GMT-0500 (Central Daylight Time),513448.59999990463,A,chimn,I,n,388,1,1215.8999998569489,512232.7000000477,8121,WL,A,9.0
4,17.045000076293945,learn,42954.999923706055,Tue Jun 09 2026 14:06:48 GMT-0500 (Central Daylight Time),513715.40000009537,A,chimne,I,e,260,1,1482.7000000476837,512232.7000000477,8121,WL,A,9.0
4,17.195000171661377,learn,42804.99982833862,Tue Jun 09 2026 14:06:48 GMT-0500 (Central Daylight Time),513865.5,A,chimney,I,y,129,1,1632.7999999523163,512232.7000000477,8121,WL,A,9.0
4,17.9280002117157,learn,42071.9997882843,Tue Jun 09 2026 14:06:48 GMT-0500 (Central Daylight Time),514598.59999990463,A,chimneyenter,I,enter,715,1,2365.899999856949,512232.7000000477,8121,WL,A,9.0
4,18.361000061035156,learn,41638.999938964844,Tue Jun 09 2026 14:06:48 GMT-0500 (Central Daylight Time),515031.90000009537,A,k,I,k,414,1,432.90000009536743,514599.0,8121,WL,A,10.0
4,18.544000148773193,learn,41455.99985122681,Tue Jun 09 2026 14:06:48 GMT-0500 (Central Daylight Time),515214.59999990463,A,ke,I,e,165,1,615.5999999046326,514599.0,8121,WL,A,10.0
4,18.711000204086304,learn,41288.999795913696,Tue Jun 09 2026 14:06:48 GMT-0500 (Central Daylight Time),515381.2999999523,A,key,I,y,149,1,782.2999999523163,514599.0,8121,WL,A,10.0
4,19.044000148773193,learn,40955.99985122681,Tue Jun 09 2026 14:06:48 GMT-0500 (Central Daylight Time),515714.7000000477,A,keyenter,I,enter,327,1,1115.7000000476837,514599.0,8121,WL,A,10.0
4,19.39400005340576,learn,40605.99994659424,Tue Jun 09 2026 14:06:48 GMT-0500 (Central Daylight Time),516064.7999999523,A,l,I,l,339,1,350.0,515714.7999999523,8121,WL,A,11.0
4,19.611000061035156,learn,40388.999938964844,Tue Jun 09 2026 14:06:48 GMT-0500 (Central Daylight Time),516281.0,A,lo,I,o,203,1,566.2000000476837,515714.7999999523,8121,WL,A,11.0
4,19.943000078201294,learn,40056.999921798706,Tue Jun 09 2026 14:06:48 GMT-0500 (Central Daylight Time),516613.09999990463,A,log,I,g,179,1,898.2999999523163,515714.7999999523,8121,WL,A,11.0
4,20.844000101089478,learn,39155.99989891052,Tue Jun 09 2026 14:06:48 GMT-0500 (Central Daylight Time),517514.0,A,logenter,I,enter,893,1,1799.2000000476837,515714.7999999523,8121,WL,A,11.0
4,21.594000101089478,learn,38405.99989891052,Tue Jun 09 2026 14:06:48 GMT-0500 (Central Daylight Time),518264.0,A,b,I,b,729,1,749.7000000476837,517514.2999999523,8121,WL,A,12.0
4,21.728000164031982,learn,38271.99983596802,Tue Jun 09 2026 14:06:48 GMT-0500 (Central Daylight Time),518398.40000009537,A,bu,I,u,116,1,884.1000001430511,517514.2999999523,8121,WL,A,12.0
4,21.877000093460083,learn,38122.99990653992,Tue Jun 09 2026 14:06:48 GMT-0500 (Central Daylight Time),518547.0,A,but,I,t,143,1,1032.7000000476837,517514.2999999523,8121,WL,A,12.0
4,22.06000018119812,learn,37939.99981880188,Tue Jun 09 2026 14:06:48 GMT-0500 (Central Daylight Time),518730.2000000477,A,butt,I,t,177,1,1215.9000000953674,517514.2999999523,8121,WL,A,12.0
4,22.2260000705719,learn,37773.9999294281,Tue Jun 09 2026 14:06:48 GMT-0500 (Central Daylight Time),518896.7999999523,A,butto,I,o,154,1,1382.5,517514.2999999523,8121,WL,A,12.0
4,22.360000133514404,learn,37639.999866485596,Tue Jun 09 2026 14:06:48 GMT-0500 (Central Daylight Time),519030.09999990463,A,button,I,n,114,1,1515.7999999523163,517514.2999999523,8121,WL,A,12.0
4,23.37600016593933,learn,36623.99983406067,Tue Jun 09 2026 14:06:48 GMT-0500 (Central Daylight Time),520046.5,A,buttonenter,I,enter,998,1,2532.2000000476837,517514.2999999523,8121,WL,A,12.0
4,25.443000078201294,learn,34556.999921798706,Tue Jun 09 2026 14:06:48 GMT-0500 (Central Daylight Time),522113.59999990463,A,g,I,g,2052,1,2066.899999856949,520046.7000000477,8121,WL,A,13.0
4,25.55900001525879,learn,34440.99998474121,Tue Jun 09 2026 14:06:48 GMT-0500 (Central Daylight Time),522229.09999990463,A,go,I,o,97,1,2182.399999856949,520046.7000000477,8121,WL,A,13.0
4,25.759000062942505,learn,34240.999937057495,Tue Jun 09 2026 14:06:48 GMT-0500 (Central Daylight Time),522429.0,A,gol,I,l,191,1,2382.2999999523163,520046.7000000477,8121,WL,A,13.0
4,26.12600016593933,learn,33873.99983406067,Tue Jun 09 2026 14:06:48 GMT-0500 (Central Daylight Time),522796.0,A,gold,I,d,352,1,2749.2999999523163,520046.7000000477,8121,WL,A,13.0
4,26.642000198364258,learn,33357.99980163574,Tue Jun 09 2026 14:06:48 GMT-0500 (Central Daylight Time),523312.09999990463,A,goldenter,I,enter,504,1,3265.399999856949,520046.7000000477,8121,WL,A,13.0
4,37.88800001144409,learn,22111.99998855591,Tue Jun 09 2026 14:06:48 GMT-0500 (Central Daylight Time),534558.9000000954,A,k,I,k,11229,1,11246.600000143051,523312.2999999523,8121,WL,A,14.0
4,38.12100005149841,learn,21878.999948501587,Tue Jun 09 2026 14:06:48 GMT-0500 (Central Daylight Time),534792.0,A,ke,I,e,213,1,11479.700000047684,523312.2999999523,8121,WL,A,14.0
4,38.28800010681152,learn,21711.999893188477,Tue Jun 09 2026 14:06:48 GMT-0500 (Central Daylight Time),534958.5,A,key,I,y,147,1,11646.200000047684,523312.2999999523,8121,WL,A,14.0
4,38.73800015449524,learn,21261.99984550476,Tue Jun 09 2026 14:06:48 GMT-0500 (Central Daylight Time),535408.5999999046,A,keyenter,I,enter,439,1,12096.299999952316,523312.2999999523,8121,WL,A,14.0
4,41.22000002861023,learn,18779.99997138977,Tue Jun 09 2026 14:06:48 GMT-0500 (Central Daylight Time),537891.0999999046,A,l,I,l,2477,1,2482.2999999523163,535408.7999999523,8121,WL,A,15.0
4,41.437000036239624,learn,18562.999963760376,Tue Jun 09 2026 14:06:48 GMT-0500 (Central Daylight Time),538107.4000000954,A,lo,I,o,201,1,2698.600000143051,535408.7999999523,8121,WL,A,15.0
4,41.62000012397766,learn,18379.99987602234,Tue Jun 09 2026 14:06:48 GMT-0500 (Central Daylight Time),538290.5999999046,A,log,I,g,176,1,2881.7999999523163,535408.7999999523,8121,WL,A,15.0
4,42.18600010871887,learn,17813.999891281128,Tue Jun 09 2026 14:06:48 GMT-0500 (Central Daylight Time),538857.4000000954,A,logenter,I,enter,545,1,3448.600000143051,535408.7999999523,8121,WL,A,15.0
5,0.5169999599456787,learn,60000.0,Tue Jun 09 2026 14:06:48 GMT-0500 (Central Daylight Time),605453.5,A,b,I,b,500,1,516.5,604937.0,8121,WL,A,1.0
5,0.6830000877380371,learn,60000.0,Tue Jun 09 2026 14:06:48 GMT-0500 (Central Daylight Time),605619.7000000477,A,bo,I,o,158,1,682.7000000476837,604937.0,8121,WL,A,1.0
5,0.8840000629425049,learn,60000.0,Tue Jun 09 2026 14:06:48 GMT-0500 (Central Daylight Time),605820.7000000477,A,boo,I,o,193,1,883.7000000476837,604937.0,8121,WL,A,1.0
5,1.1329998970031738,learn,60000.0,Tue Jun 09 2026 14:06:48 GMT-0500 (Central Daylight Time),606069.7999999523,A,book,I,k,239,1,1132.7999999523163,604937.0,8121,WL,A,1.0
5,1.75,learn,60000.0,Tue Jun 09 2026 14:06:48 GMT-0500 (Central Daylight Time),606685.9000000954,A,bookenter,I,enter,607,1,1748.9000000953674,604937.0,8121,WL,A,1.0
5,3.0490000247955322,learn,60000.0,Tue Jun 09 2026 14:06:48 GMT-0500 (Central Daylight Time),607985.5999999046,A,t,I,t,1294,1,1299.5,606686.0999999046,8121,WL,A,2.0
5,3.2820000648498535,learn,60000.0,Tue Jun 09 2026 14:06:48 GMT-0500 (Central Daylight Time),608218.7999999523,A,tr,I,r,226,1,1532.7000000476837,606686.0999999046,8121,WL,A,2.0
5,3.450000047683716,learn,60000.0,Tue Jun 09 2026 14:06:48 GMT-0500 (Central Daylight Time),608385.9000000954,A,tra,I,a,155,1,1699.8000001907349,606686.0999999046,8121,WL,A,2.0
5,3.6489999294281006,learn,60000.0,Tue Jun 09 2026 14:06:48 GMT-0500 (Central Daylight Time),608585.7000000477,A,trai,I,i,179,1,1899.6000001430511,606686.0999999046,8121,WL,A,2.0
5,3.749000072479248,learn,60000.0,Tue Jun 09 2026 14:06:48 GMT-0500 (Central Daylight Time),608685.5999999046,A,train,I,n,83,1,1999.5,606686.0999999046,8121,WL,A,2.0
5,4.115999937057495,learn,60000.0,Tue Jun 09 2026 14:06:48 GMT-0500 (Central Daylight Time),609052.0999999046,A,trainenter,I,enter,351,1,2366.0,606686.0999999046,8121,WL,A,2.0
5,4.381999969482422,learn,60000.0,Tue Jun 09 2026 14:06:48 GMT-0500 (Central Daylight Time),609318.5999999046,A,r,I,r,255,1,266.19999980926514,609052.4000000954,8121,WL,A,3.0
5,4.499000072479248,learn,60000.0,Tue Jun 09 2026 14:06:48 GMT-0500 (Central Daylight Time),609435.0999999046,A,ru,I,u,110,1,382.69999980926514,609052.4000000954,8121,WL,A,3.0
5,4.799000024795532,learn,60000.0,Tue Jun 09 2026 14:06:48 GMT-0500 (Central Daylight Time),609735.5,A,rug,I,g,288,1,683.0999999046326,609052.4000000954,8121,WL,A,3.0
5,5.198999881744385,learn,60000.0,Tue Jun 09 2026 14:06:48 GMT-0500 (Central Daylight Time),610134.9000000954,A,rugenter,I,enter,381,1,1082.5,609052.4000000954,8121,WL,A,3.0
5,5.615000009536743,learn,60000.0,Tue Jun 09 2026 14:06:48 GMT-0500 (Central Daylight Time),610551.5,A,f,I,f,397,1,416.2000000476837,610135.2999999523,8121,WL,A,4.0
5,5.733000040054321,learn,60000.0,Tue Jun 09 2026 14:06:48 GMT-0500 (Central Daylight Time),610669.7000000477,A,fl,I,l,100,1,534.4000000953674,610135.2999999523,8121,WL,A,4.0
5,5.898999929428101,learn,60000.0,Tue Jun 09 2026 14:06:48 GMT-0500 (Central Daylight Time),610834.9000000954,A,flo,I,o,158,1,699.6000001430511,610135.2999999523,8121,WL,A,4.0
5,6.078999996185303,learn,60000.0,Tue Jun 09 2026 14:06:48 GMT-0500 (Central Daylight Time),611015.0,A,flow,I,w,176,1,879.7000000476837,610135.2999999523,8121,WL,A,4.0
5,6.226999998092651,learn,60000.0,Tue Jun 09 2026 14:06:48 GMT-0500 (Central Daylight Time),611163.0,A,flowe,I,e,143,1,1027.7000000476837,610135.2999999523,8121,WL,A,4.0
5,6.2820000648498535,learn,60000.0,Tue Jun 09 2026 14:06:48 GMT-0500 (Central Daylight Time),611218.5999999046,A,flower,I,r,48,1,1083.2999999523163,610135.2999999523,8121,WL,A,4.0
5,6.480999946594238,learn,60000.0,Tue Jun 09 2026 14:06:48 GMT-0500 (Central Daylight Time),611417.7000000477,A,flowerenter,I,enter,189,1,1282.4000000953674,610135.2999999523,8121,WL,A,4.0
5,6.997999906539917,learn,60000.0,Tue Jun 09 2026 14:06:48 GMT-0500 (Central Daylight Time),611934.5,A,m,I,m,498,1,516.5,611418.0,8121,WL,A,5.0
5,7.115000009536743,learn,60000.0,Tue Jun 09 2026 14:06:48 GMT-0500 (Central Daylight Time),612051.2999999523,A,me,I,e,103,1,633.2999999523163,611418.0,8121,WL,A,5.0
5,7.2809998989105225,learn,60000.0,Tue Jun 09 2026 14:06:48 GMT-0500 (Central Daylight Time),612217.7999999523,A,mea,I,a,162,1,799.7999999523163,611418.0,8121,WL,A,5.0
5,7.480999946594238,learn,60000.0,Tue Jun 09 2026 14:06:48 GMT-0500 (Central Daylight Time),612417.7999999523,A,mead,I,d,187,1,999.7999999523163,611418.0,8121,WL,A,5.0
5,7.664000034332275,learn,60000.0,Tue Jun 09 2026 14:06:48 GMT-0500 (Central Daylight Time),612600.7000000477,A,meado,I,o,170,1,1182.7000000476837,611418.0,8121,WL,A,5.0
5,7.864000082015991,learn,60000.0,Tue Jun 09 2026 14:06:48 GMT-0500 (Central Daylight Time),612800.7000000477,A,meadow,I,w,187,1,1382.7000000476837,611418.0,8121,WL,A,5.0
5,8.730999946594238,learn,60000.0,Tue Jun 09 2026 14:06:48 GMT-0500 (Central Daylight Time),613667.0999999046,A,meadowenter,I,enter,859,1,2249.0999999046326,611418.0,8121,WL,A,5.0
5,9.763999938964844,learn,60000.0,Tue Jun 09 2026 14:06:48 GMT-0500 (Central Daylight Time),614700.0999999046,A,h,I,h,1024,1,1032.7999999523163,613667.2999999523,8121,WL,A,6.0
5,9.930000066757202,learn,60000.0,Tue Jun 09 2026 14:06:48 GMT-0500 (Central Daylight Time),614866.7999999523,A,ha,I,a,159,1,1199.5,613667.2999999523,8121,WL,A,6.0
5,10.147000074386597,learn,60000.0,Tue Jun 09 2026 14:06:48 GMT-0500 (Central Daylight Time),615083.2999999523,A,har,I,r,201,1,1416.0,613667.2999999523,8121,WL,A,6.0
5,10.364000082015991,learn,60000.0,Tue Jun 09 2026 14:06:48 GMT-0500 (Central Daylight Time),615300.0999999046,A,harp,I,p,201,1,1632.7999999523163,613667.2999999523,8121,WL,A,6.0
5,10.913000106811523,learn,60000.0,Tue Jun 09 2026 14:06:48 GMT-0500 (Central Daylight Time),615849.7000000477,A,harpenter,I,enter,544,1,2182.4000000953674,613667.2999999523,8121,WL,A,6.0
5,11.296000003814697,learn,60000.0,Tue Jun 09 2026 14:06:48 GMT-0500 (Central Daylight Time),616232.7999999523,A,f,I,f,370,1,382.7000000476837,615850.0999999046,8121,WL,A,7.0
5,11.413000106811523,learn,60000.0,Tue Jun 09 2026 14:06:48 GMT-0500 (Central Daylight Time),616349.5,A,fi,I,i,108,1,499.40000009536743,615850.0999999046,8121,WL,A,7.0
5,11.496999979019165,learn,60000.0,Tue Jun 09 2026 14:06:48 GMT-0500 (Central Daylight Time),616433.4000000954,A,fin,I,n,72,1,583.3000001907349,615850.0999999046,8121,WL,A,7.0
5,11.629999876022339,learn,60000.0,Tue Jun 09 2026 14:06:48 GMT-0500 (Central Daylight Time),616566.5999999046,A,fing,I,g,116,1,716.5,615850.0999999046,8121,WL,A,7.0
5,11.746999979019165,learn,60000.0,Tue Jun 09 2026 14:06:48 GMT-0500 (Central Daylight Time),616683.0999999046,A,finge,I,e,109,1,833.0,615850.0999999046,8121,WL,A,7.0
5,11.879999876022339,learn,60000.0,Tue Jun 09 2026 14:06:48 GMT-0500 (Central Daylight Time),616816.2999999523,A,finger,I,r,113,1,966.2000000476837,615850.0999999046,8121,WL,A,7.0
5,12.180000066757202,learn,60000.0,Tue Jun 09 2026 14:06:48 GMT-0500 (Central Daylight Time),617116.0999999046,A,fingerenter,I,enter,284,1,1266.0,615850.0999999046,8121,WL,A,7.0
5,12.595999956130981,learn,60000.0,Tue Jun 09 2026 14:06:48 GMT-0500 (Central Daylight Time),617532.5,A,g,I,g,400,1,416.09999990463257,617116.4000000954,8121,WL,A,8.0
5,12.713000059127808,learn,60000.0,Tue Jun 09 2026 14:06:48 GMT-0500 (Central Daylight Time),617649.2999999523,A,go,I,o,96,1,532.8999998569489,617116.4000000954,8121,WL,A,8.0
5,12.913000106811523,learn,60000.0,Tue Jun 09 2026 14:06:48 GMT-0500 (Central Daylight Time),617849.7000000477,A,gol,I,l,179,1,733.2999999523163,617116.4000000954,8121,WL,A,8.0
5,13.062999963760376,learn,60000.0,Tue Jun 09 2026 14:06:48 GMT-0500 (Central Daylight Time),617999.5999999046,A,gold,I,d,130,1,883.1999998092651,617116.4000000954,8121,WL,A,8.0
5,14.062999963760376,learn,60000.0,Tue Jun 09 2026 14:06:48 GMT-0500 (Central Daylight Time),618999.2999999523,A,goldenter,I,enter,982,1,1882.8999998569489,617116.4000000954,8121,WL,A,8.0
5,15.944999933242798,learn,60000.0,Tue Jun 09 2026 14:06:48 GMT-0500 (Central Daylight Time),620881.4000000954,A,a,I,a,1877,1,1881.8000001907349,618999.5999999046,8121,WL,A,9.0
5,16.078999996185303,learn,60000.0,Tue Jun 09 2026 14:06:48 GMT-0500 (Central Daylight Time),621015.4000000954,A,ap,I,p,123,1,2015.8000001907349,618999.5999999046,8121,WL,A,9.0
5,16.229000091552734,learn,60000.0,Tue Jun 09 2026 14:06:48 GMT-0500 (Central Daylight Time),621165.2000000477,A,app,I,p,142,1,2165.600000143051,618999.5999999046,8121,WL,A,9.0
5,16.394999980926514,learn,60000.0,Tue Jun 09 2026 14:06:48 GMT-0500 (Central Daylight Time),621331.7000000477,A,appl,I,l,159,1,2332.100000143051,618999.5999999046,8121,WL,A,9.0
5,16.562000036239624,learn,60000.0,Tue Jun 09 2026 14:06:48 GMT-0500 (Central Daylight Time),621498.2999999523,A,apple,I,e,152,1,2498.7000000476837,618999.5999999046,8121,WL,A,9.0
5,16.812000036239624,learn,60000.0,Tue Jun 09 2026 14:06:48 GMT-0500 (Central Daylight Time),621747.9000000954,A,appleenter,I,enter,233,1,2748.300000190735,618999.5999999046,8121,WL,A,9.0
5,17.144999980926514,learn,60000.0,Tue Jun 09 2026 14:06:48 GMT-0500 (Central Daylight Time),622081.5999999046,A,s,I,s,328,1,333.2999999523163,621748.2999999523,8121,WL,A,10.0
5,17.34500002861023,learn,60000.0,Tue Jun 09 2026 14:06:48 GMT-0500 (Central Daylight Time),622281.2999999523,A,sa,I,a,187,1,533.0,621748.2999999523,8121,WL,A,10.0
5,17.461999893188477,learn,60000.0,Tue Jun 09 2026 14:06:48 GMT-0500 (Central Daylight Time),622398.0,A,sal,I,l,107,1,649.7000000476837,621748.2999999523,8121,WL,A,10.0
5,17.76099991798401,learn,60000.0,Tue Jun 09 2026 14:06:48 GMT-0500 (Central Daylight Time),622697.5999999046,A,salt,I,t,294,1,949.2999999523163,621748.2999999523,8121,WL,A,10.0
5,18.67799997329712,learn,60000.0,Tue Jun 09 2026 14:06:48 GMT-0500 (Central Daylight Time),623614.4000000954,A,saltenter,I,enter,899,1,1866.1000001430511,621748.2999999523,8121,WL,A,10.0
5,19.51099991798401,learn,60000.0,Tue Jun 09 2026 14:06:48 GMT-0500 (Central Daylight Time),624447.0999999046,A,b,I,b,814,1,832.2999999523163,623614.7999999523,8121,WL,A,11.0
5,19.594000101089478,learn,60000.0,Tue Jun 09 2026 14:06:48 GMT-0500 (Central Daylight Time),624530.5999999046,A,bu,I,u,78,1,915.7999999523163,623614.7999999523,8121,WL,A,11.0
5,19.776999950408936,learn,60000.0,Tue Jun 09 2026 14:06:48 GMT-0500 (Central Daylight Time),624713.9000000954,A,but,I,t,163,1,1099.1000001430511,623614.7999999523,8121,WL,A,11.0
5,19.960999965667725,learn,60000.0,Tue Jun 09 2026 14:06:48 GMT-0500 (Central Daylight Time),624896.9000000954,A,butt,I,t,170,1,1282.1000001430511,623614.7999999523,8121,WL,A,11.0
5,20.061000108718872,learn,60000.0,Tue Jun 09 2026 14:06:48 GMT-0500 (Central Daylight Time),624997.0,A,butto,I,o,83,1,1382.2000000476837,623614.7999999523,8121,WL,A,11.0
5,20.22699999809265,learn,60000.0,Tue Jun 09 2026 14:06:48 GMT-0500 (Central Daylight Time),625163.4000000954,A,button,I,n,159,1,1548.6000001430511,623614.7999999523,8121,WL,A,11.0
5,22.30999994277954,learn,60000.0,Tue Jun 09 2026 14:06:48 GMT-0500 (Central Daylight Time),627246.2999999523,A,buttonenter,I,enter,2065,1,3631.5,623614.7999999523,8121,WL,A,11.0
5,25.125999927520752,learn,60000.0,Tue Jun 09 2026 14:06:48 GMT-0500 (Central Daylight Time),630062.2999999523,A,c,I,c,2804,1,2815.5,627246.7999999523,8121,WL,A,12.0
5,25.2260000705719,learn,60000.0,Tue Jun 09 2026 14:06:48 GMT-0500 (Central Daylight Time),630161.9000000954,A,ch,I,h,93,1,2915.100000143051,627246.7999999523,8121,WL,A,12.0
5,25.342000007629395,learn,60000.0,Tue Jun 09 2026 14:06:48 GMT-0500 (Central Daylight Time),630278.7000000477,A,chi,I,i,108,1,3031.9000000953674,627246.7999999523,8121,WL,A,12.0
5,25.592000007629395,learn,60000.0,Tue Jun 09 2026 14:06:48 GMT-0500 (Central Daylight Time),630528.7999999523,A,chim,I,m,238,1,3282.0,627246.7999999523,8121,WL,A,12.0
5,25.908999919891357,learn,60000.0,Tue Jun 09 2026 14:06:48 GMT-0500 (Central Daylight Time),630845.2000000477,A,chimn,I,n,308,1,3598.4000000953674,627246.7999999523,8121,WL,A,12.0
5,26.092000007629395,learn,60000.0,Tue Jun 09 2026 14:06:48 GMT-0500 (Central Daylight Time),631028.2999999523,A,chimne,I,e,175,1,3781.5,627246.7999999523,8121,WL,A,12.0
5,26.259000062942505,learn,60000.0,Tue Jun 09 2026 14:06:48 GMT-0500 (Central Daylight Time),631195.0,A,chimney,I,y,153,1,3948.2000000476837,627246.7999999523,8121,WL,A,12.0
5,26.674999952316284,learn,60000.0,Tue Jun 09 2026 14:06:48 GMT-0500 (Central Daylight Time),631611.5999999046,A,chimneyenter,I,enter,410,1,4364.799999952316,627246.7999999523,8121,WL,A,12.0
5,27.02500009536743,learn,60000.0,Tue Jun 09 2026 14:06:48 GMT-0500 (Central Daylight Time),631961.4000000954,A,l,I,l,329,1,349.60000014305115,631611.7999999523,8121,WL,A,13.0
5,27.22499990463257,learn,60000.0,Tue Jun 09 2026 14:06:48 GMT-0500 (Central Daylight Time),632161.2000000477,A,lo,I,o,194,1,549.4000000953674,631611.7999999523,8121,WL,A,13.0
5,27.47499990463257,learn,60000.0,Tue Jun 09 2026 14:06:48 GMT-0500 (Central Daylight Time),632411.5999999046,A,log,I,g,243,1,799.7999999523163,631611.7999999523,8121,WL,A,13.0
5,27.841000080108643,learn,60000.0,Tue Jun 09 2026 14:06:48 GMT-0500 (Central Daylight Time),632777.7000000477,A,logenter,I,enter,361,1,1165.9000000953674,631611.7999999523,8121,WL,A,13.0
5,28.174999952316284,learn,60000.0,Tue Jun 09 2026 14:06:48 GMT-0500 (Central Daylight Time),633110.9000000954,A,k,I,k,314,1,333.0,632777.9000000954,8121,WL,A,14.0
5,28.375,learn,60000.0,Tue Jun 09 2026 14:06:48 GMT-0500 (Central Daylight Time),633311.2000000477,A,ke,I,e,189,1,533.2999999523163,632777.9000000954,8121,WL,A,14.0
5,28.60800004005432,learn,60000.0,Tue Jun 09 2026 14:06:48 GMT-0500 (Central Daylight Time),633544.2999999523,A,key,I,y,211,1,766.3999998569489,632777.9000000954,8121,WL,A,14.0
5,29.44099998474121,learn,60000.0,Tue Jun 09 2026 14:06:48 GMT-0500 (Central Daylight Time),634377.2000000477,A,keyenter,I,enter,820,1,1599.2999999523163,632777.9000000954,8121,WL,A,14.0
5,72.12700009346008,learn,60000.0,Tue Jun 09 2026 14:06:48 GMT-0500 (Central Daylight Time),677064.0999999046,A,enter,I,enter,42676,1,42686.59999990463,634377.5,8121,WL,A,15.0
6,0.6500000953674316,distr,59349.99990463257,Tue Jun 09 2026 14:06:48 GMT-0500 (Central Daylight Time),745759.0999999046,B,b,I,b,632,1,649.3999998569489,745109.7000000477,8121,WL,A,1.0
6,1.0169999599456787,distr,58983.00004005432,Tue Jun 09 2026 14:06:48 GMT-0500 (Central Daylight Time),746126.0,B,bo,I,o,349,1,1016.2999999523163,745109.7000000477,8121,WL,A,1.0
6,1.2829999923706055,distr,58717.000007629395,Tue Jun 09 2026 14:06:48 GMT-0500 (Central Daylight Time),746392.2999999523,B,bow,I,w,255,1,1282.5999999046326,745109.7000000477,8121,WL,A,1.0
6,1.6160001754760742,distr,58383.999824523926,Tue Jun 09 2026 14:06:48 GMT-0500 (Central Daylight Time),746725.5,B,bowl,I,l,324,1,1615.7999999523163,745109.7000000477,8121,WL,A,1.0
6,2.116000175476074,distr,57883.999824523926,Tue Jun 09 2026 14:06:48 GMT-0500 (Central Daylight Time),747225.4000000954,B,bowlenter,I,enter,478,1,2115.7000000476837,745109.7000000477,8121,WL,A,1.0
6,2.6490001678466797,distr,57350.99983215332,Tue Jun 09 2026 14:06:48 GMT-0500 (Central Daylight Time),747758.4000000954,B,d,I,d,523,1,532.7000000476837,747225.7000000477,8121,WL,A,2.0
6,2.9170000553131104,distr,57082.99994468689,Tue Jun 09 2026 14:06:48 GMT-0500 (Central Daylight Time),748026.0999999046,B,da,I,a,253,1,800.3999998569489,747225.7000000477,8121,WL,A,2.0
6,3.2820000648498535,distr,56717.99993515015,Tue Jun 09 2026 14:06:48 GMT-0500 (Central Daylight Time),748391.5,B,daw,I,w,346,1,1165.7999999523163,747225.7000000477,8121,WL,A,2.0
6,3.5320000648498535,distr,56467.99993515015,Tue Jun 09 2026 14:06:48 GMT-0500 (Central Daylight Time),748641.5,B,dawn,I,n,237,1,1415.7999999523163,747225.7000000477,8121,WL,A,2.0
6,3.815000057220459,distr,56184.99994277954,Tue Jun 09 2026 14:06:48 GMT-0500 (Central Daylight Time),748924.7000000477,B,dawnenter,I,enter,275,1,1699.0,747225.7000000477,8121,WL,A,2.0
6,4.14900016784668,distr,55850.99983215332,Tue Jun 09 2026 14:06:48 GMT-0500 (Central Daylight Time),749258.0,B,g,I,g,320,1,333.09999990463257,748924.9000000954,8121,WL,A,3.0
6,4.416000127792358,distr,55583.99987220764,Tue Jun 09 2026 14:06:48 GMT-0500 (Central Daylight Time),749524.9000000954,B,gr,I,r,259,1,600.0,748924.9000000954,8121,WL,A,3.0
6,4.881999969482422,distr,55118.00003051758,Tue Jun 09 2026 14:06:48 GMT-0500 (Central Daylight Time),749991.0,B,gra,I,a,455,1,1066.0999999046326,748924.9000000954,8121,WL,A,3.0
6,5.0980000495910645,distr,54901.999950408936,Tue Jun 09 2026 14:06:48 GMT-0500 (Central Daylight Time),750207.5999999046,B,gran,I,n,197,1,1282.6999998092651,748924.9000000954,8121,WL,A,3.0
6,5.265000104904175,distr,54734.999895095825,Tue Jun 09 2026 14:06:48 GMT-0500 (Central Daylight Time),750374.2999999523,B,grant,I,t,156,1,1449.3999998569489,748924.9000000954,8121,WL,A,3.0
6,5.515000104904175,distr,54484.999895095825,Tue Jun 09 2026 14:06:48 GMT-0500 (Central Daylight Time),750624.7000000477,B,grantenter,I,enter,239,1,1699.7999999523163,748924.9000000954,8121,WL,A,3.0
6,5.799999952316284,distr,54200.000047683716,Tue Jun 09 2026 14:06:48 GMT-0500 (Central Daylight Time),750908.9000000954,B,i,I,i,268,1,283.90000009536743,750625.0,8121,WL,A,4.0
6,5.932000160217285,distr,54067.999839782715,Tue Jun 09 2026 14:06:48 GMT-0500 (Central Daylight Time),751041.0,B,in,I,n,111,1,416.0,750625.0,8121,WL,A,4.0
6,6.065000057220459,distr,53934.99994277954,Tue Jun 09 2026 14:06:48 GMT-0500 (Central Daylight Time),751174.0,B,ins,I,s,123,1,549.0,750625.0,8121,WL,A,4.0
6,6.197999954223633,distr,53802.00004577637,Tue Jun 09 2026 14:06:48 GMT-0500 (Central Daylight Time),751307.2000000477,B,inse,I,e,118,1,682.2000000476837,750625.0,8121,WL,A,4.0
6,6.447999954223633,distr,53552.00004577637,Tue Jun 09 2026 14:06:48 GMT-0500 (Central Daylight Time),751557.2999999523,B,insec,I,c,239,1,932.2999999523163,750625.0,8121,WL,A,4.0
6,6.715000152587891,distr,53284.99984741211,Tue Jun 09 2026 14:06:48 GMT-0500 (Central Daylight Time),751824.0999999046,B,insect,I,t,256,1,1199.0999999046326,750625.0,8121,WL,A,4.0
6,7.683000087738037,distr,52316.99991226196,Tue Jun 09 2026 14:06:48 GMT-0500 (Central Daylight Time),752792.2999999523,B,insectenter,I,enter,948,1,2167.2999999523163,750625.0,8121,WL,A,4.0
6,8.098000049591064,distr,51901.999950408936,Tue Jun 09 2026 14:06:48 GMT-0500 (Central Daylight Time),753207.0,B,c,I,c,396,1,414.40000009536743,752792.5999999046,8121,WL,A,5.0
6,8.197999954223633,distr,51802.00004577637,Tue Jun 09 2026 14:06:48 GMT-0500 (Central Daylight Time),753307.2000000477,B,ch,I,h,85,1,514.6000001430511,752792.5999999046,8121,WL,A,5.0
6,8.398000001907349,distr,51601.99999809265,Tue Jun 09 2026 14:06:48 GMT-0500 (Central Daylight Time),753506.7000000477,B,cha,I,a,185,1,714.1000001430511,752792.5999999046,8121,WL,A,5.0
6,8.496999979019165,distr,51503.000020980835,Tue Jun 09 2026 14:06:48 GMT-0500 (Central Daylight Time),753606.5999999046,B,chai,I,i,81,1,814.0,752792.5999999046,8121,WL,A,5.0
6,8.764000177383423,distr,51235.99982261658,Tue Jun 09 2026 14:06:48 GMT-0500 (Central Daylight Time),753873.2000000477,B,chair,I,r,261,1,1080.6000001430511,752792.5999999046,8121,WL,A,5.0
6,9.830000162124634,distr,50169.999837875366,Tue Jun 09 2026 14:06:48 GMT-0500 (Central Daylight Time),754939.5,B,chairenter,I,enter,1051,1,2146.9000000953674,752792.5999999046,8121,WL,A,5.0
6,10.996999979019165,distr,49003.000020980835,Tue Jun 09 2026 14:06:48 GMT-0500 (Central Daylight Time),756105.9000000954,B,p,I,p,1153,1,1166.2000000476837,754939.7000000477,8121,WL,A,6.0
6,11.097000122070312,distr,48902.99987792969,Tue Jun 09 2026 14:06:48 GMT-0500 (Central Daylight Time),756205.7999999523,B,pe,I,e,81,1,1266.0999999046326,754939.7000000477,8121,WL,A,6.0
6,11.230000019073486,distr,48769.999980926514,Tue Jun 09 2026 14:06:48 GMT-0500 (Central Daylight Time),756339.4000000954,B,pea,I,a,118,1,1399.7000000476837,754939.7000000477,8121,WL,A,6.0
6,11.52999997138977,distr,48470.00002861023,Tue Jun 09 2026 14:06:48 GMT-0500 (Central Daylight Time),756639.5999999046,B,peac,I,c,282,1,1699.8999998569489,754939.7000000477,8121,WL,A,6.0
6,11.69700002670288,distr,48302.99997329712,Tue Jun 09 2026 14:06:48 GMT-0500 (Central Daylight Time),756805.7000000477,B,peach,I,h,157,1,1866.0,754939.7000000477,8121,WL,A,6.0
6,13.116000175476074,distr,46883.999824523926,Tue Jun 09 2026 14:06:48 GMT-0500 (Central Daylight Time),758225.2000000477,B,peachenter,I,enter,1399,1,3285.5,754939.7000000477,8121,WL,A,6.0
6,21.444000005722046,distr,38555.999994277954,Tue Jun 09 2026 14:06:48 GMT-0500 (Central Daylight Time),766552.7999999523,B,i,I,i,8307,1,8327.399999856949,758225.4000000954,8121,WL,A,7.0
6,21.5770001411438,distr,38422.9998588562,Tue Jun 09 2026 14:06:48 GMT-0500 (Central Daylight Time),766685.9000000954,B,in,I,n,116,1,8460.5,758225.4000000954,8121,WL,A,7.0
6,21.776999950408936,distr,38223.000049591064,Tue Jun 09 2026 14:06:48 GMT-0500 (Central Daylight Time),766886.2000000477,B,ins,I,s,182,1,8660.799999952316,758225.4000000954,8121,WL,A,7.0
6,21.943000078201294,distr,38056.999921798706,Tue Jun 09 2026 14:06:48 GMT-0500 (Central Daylight Time),767052.4000000954,B,inse,I,e,150,1,8827.0,758225.4000000954,8121,WL,A,7.0
6,22.210000038146973,distr,37789.99996185303,Tue Jun 09 2026 14:06:48 GMT-0500 (Central Daylight Time),767319.0,B,insec,I,c,247,1,9093.599999904633,758225.4000000954,8121,WL,A,7.0
6,22.4760000705719,distr,37523.9999294281,Tue Jun 09 2026 14:06:48 GMT-0500 (Central Daylight Time),767585.5999999046,B,insect,I,t,245,1,9360.199999809265,758225.4000000954,8121,WL,A,7.0
6,23.075999975204468,distr,36924.00002479553,Tue Jun 09 2026 14:06:48 GMT-0500 (Central Daylight Time),768185.5,B,insectenter,I,enter,595,1,9960.099999904633,758225.4000000954,8121,WL,A,7.0
6,37.8050000667572,distr,22194.999933242798,Tue Jun 09 2026 14:06:48 GMT-0500 (Central Daylight Time),782914.0999999046,B,b,I,b,14723,1,14728.299999952316,768185.7999999523,8121,WL,A,8.0
6,38.00500011444092,distr,21994.999885559082,Tue Jun 09 2026 14:06:48 GMT-0500 (Central Daylight Time),783114.4000000954,B,bo,I,o,178,1,14928.600000143051,768185.7999999523,8121,WL,A,8.0
6,38.28800010681152,distr,21711.999893188477,Tue Jun 09 2026 14:06:48 GMT-0500 (Central Daylight Time),783397.2999999523,B,bot,I,t,266,1,15211.5,768185.7999999523,8121,WL,A,8.0
6,38.437999963760376,distr,21562.000036239624,Tue Jun 09 2026 14:06:48 GMT-0500 (Central Daylight Time),783547.2000000477,B,bott,I,t,143,1,15361.400000095367,768185.7999999523,8121,WL,A,8.0
6,38.62100005149841,distr,21378.999948501587,Tue Jun 09 2026 14:06:48 GMT-0500 (Central Daylight Time),783730.7999999523,B,bottl,I,l,170,1,15545.0,768185.7999999523,8121,WL,A,8.0
6,38.771000146865845,distr,21228.999853134155,Tue Jun 09 2026 14:06:48 GMT-0500 (Central Daylight Time),783880.7999999523,B,bottle,I,e,130,1,15695.0,768185.7999999523,8121,WL,A,8.0
6,39.33800005912781,distr,20661.999940872192,Tue Jun 09 2026 14:06:48 GMT-0500 (Central Daylight Time),784447.0,B,bottleenter,I,enter,548,1,16261.200000047684,768185.7999999523,8121,WL,A,8.0
6,50.98399996757507,distr,9016.000032424927,Tue Jun 09 2026 14:06:48 GMT-0500 (Central Daylight Time),796093.0999999046,B,c,I,c,11637,1,11645.799999952316,784447.2999999523,8121,WL,A,9.0
6,51.10000014305115,distr,8899.999856948853,Tue Jun 09 2026 14:06:48 GMT-0500 (Central Daylight Time),796209.9000000954,B,co,I,o,110,1,11762.600000143051,784447.2999999523,8121,WL,A,9.0
6,51.217000007629395,distr,8782.999992370605,Tue Jun 09 2026 14:06:48 GMT-0500 (Central Daylight Time),796326.7000000477,B,cou,I,u,98,1,11879.400000095367,784447.2999999523,8121,WL,A,9.0
6,51.45099997520447,distr,8549.000024795532,Tue Jun 09 2026 14:06:48 GMT-0500 (Central Daylight Time),796560.0999999046,B,coun,I,n,223,1,12112.799999952316,784447.2999999523,8121,WL,A,9.0
6,51.66799998283386,distr,8332.000017166138,Tue Jun 09 2026 14:06:48 GMT-0500 (Central Daylight Time),796777.7999999523,B,count,I,t,204,1,12330.5,784447.2999999523,8121,WL,A,9.0
6,51.950000047683716,distr,8049.999952316284,Tue Jun 09 2026 14:06:48 GMT-0500 (Central Daylight Time),797059.5999999046,B,county,I,y,274,1,12612.299999952316,784447.2999999523,8121,WL,A,9.0
6,52.450000047683716,distr,7549.999952316284,Tue Jun 09 2026 14:06:48 GMT-0500 (Central Daylight Time),797559.9000000954,B,countyenter,I,enter,489,1,13112.600000143051,784447.2999999523,8121,WL,A,9.0
6,60.01400017738342,distr,-14.000177383422852,Tue Jun 09 2026 14:06:48 GMT-0500 (Central Daylight Time),805123.9000000954,B,None,I,None,7560,1,7563.700000047684,797560.2000000477,8121,WL,A,10.0
7,2.0169999599456787,immed,57983.00004005432,Tue Jun 09 2026 14:06:48 GMT-0500 (Central Daylight Time),815954.0999999046,A,b,I,b,2012,1,2016.0,813938.0999999046,8121,WL,A,1.0
7,2.200000047683716,immed,57799.999952316284,Tue Jun 09 2026 14:06:48 GMT-0500 (Central Daylight Time),816137.2999999523,A,bo,I,o,169,1,2199.2000000476837,813938.0999999046,8121,WL,A,1.0
7,2.4159998893737793,immed,57584.00011062622,Tue Jun 09 2026 14:06:48 GMT-0500 (Central Daylight Time),816353.5999999046,A,boo,I,o,195,1,2415.5,813938.0999999046,8121,WL,A,1.0
7,2.6489999294281006,immed,57351.0000705719,Tue Jun 09 2026 14:06:48 GMT-0500 (Central Daylight Time),816586.7999999523,A,book,I,k,226,1,2648.7000000476837,813938.0999999046,8121,WL,A,1.0
7,3.115999937057495,immed,56884.000062942505,Tue Jun 09 2026 14:06:48 GMT-0500 (Central Daylight Time),817053.5999999046,A,bookf,I,f,450,1,3115.5,813938.0999999046,8121,WL,A,1.0
7,3.25,immed,56750.0,Tue Jun 09 2026 14:06:48 GMT-0500 (Central Daylight Time),817187.0999999046,A,bookfl,I,l,120,1,3249.0,813938.0999999046,8121,WL,A,1.0
7,3.4489998817443848,immed,56551.000118255615,Tue Jun 09 2026 14:06:48 GMT-0500 (Central Daylight Time),817386.5,A,bookflo,I,o,193,1,3448.4000000953674,813938.0999999046,8121,WL,A,1.0
7,3.815999984741211,immed,56184.00001525879,Tue Jun 09 2026 14:06:48 GMT-0500 (Central Daylight Time),817753.4000000954,A,bookfl,I,backspace,361,1,3815.300000190735,813938.0999999046,8121,WL,A,1.0
7,4.0329999923706055,immed,55967.000007629395,Tue Jun 09 2026 14:06:48 GMT-0500 (Central Daylight Time),817970.2999999523,A,bookf,I,backspace,196,1,4032.2000000476837,813938.0999999046,8121,WL,A,1.0
7,4.233000040054321,immed,55766.99995994568,Tue Jun 09 2026 14:06:48 GMT-0500 (Central Daylight Time),818170.0,A,book,I,backspace,187,1,4231.900000095367,813938.0999999046,8121,WL,A,1.0
7,4.7149999141693115,immed,55285.00008583069,Tue Jun 09 2026 14:06:48 GMT-0500 (Central Daylight Time),818652.7999999523,A,bookenter,I,enter,474,1,4714.700000047684,813938.0999999046,8121,WL,A,1.0
7,5.615000009536743,immed,54384.99999046326,Tue Jun 09 2026 14:06:48 GMT-0500 (Central Daylight Time),819552.7000000477,A,t,I,t,888,1,899.6000001430511,818653.0999999046,8121,WL,A,2.0
7,5.832000017166138,immed,54167.99998283386,Tue Jun 09 2026 14:06:48 GMT-0500 (Central Daylight Time),819769.4000000954,A,tr,I,r,212,1,1116.3000001907349,818653.0999999046,8121,WL,A,2.0
7,5.982000112533569,immed,54017.99988746643,Tue Jun 09 2026 14:06:48 GMT-0500 (Central Daylight Time),819919.0999999046,A,tra,I,a,138,1,1266.0,818653.0999999046,8121,WL,A,2.0
7,6.181999921798706,immed,53818.000078201294,Tue Jun 09 2026 14:06:48 GMT-0500 (Central Daylight Time),820119.2999999523,A,trai,I,i,190,1,1466.2000000476837,818653.0999999046,8121,WL,A,2.0
7,6.249000072479248,immed,53750.99992752075,Tue Jun 09 2026 14:06:48 GMT-0500 (Central Daylight Time),820186.0,A,train,I,n,53,1,1532.9000000953674,818653.0999999046,8121,WL,A,2.0
7,6.565000057220459,immed,53434.99994277954,Tue Jun 09 2026 14:06:48 GMT-0500 (Central Daylight Time),820502.5999999046,A,trainenter,I,enter,308,1,1849.5,818653.0999999046,8121,WL,A,2.0
7,6.865000009536743,immed,53134.99999046326,Tue Jun 09 2026 14:06:48 GMT-0500 (Central Daylight Time),820802.2999999523,A,r,I,r,294,1,299.39999985694885,820502.9000000954,8121,WL,A,3.0
7,6.997999906539917,immed,53002.00009346008,Tue Jun 09 2026 14:06:48 GMT-0500 (Central Daylight Time),820935.5,A,ru,I,u,121,1,432.59999990463257,820502.9000000954,8121,WL,A,3.0
7,7.265000104904175,immed,52734.999895095825,Tue Jun 09 2026 14:06:48 GMT-0500 (Central Daylight Time),821202.2000000477,A,rug,I,g,253,1,699.2999999523163,820502.9000000954,8121,WL,A,3.0
7,7.732000112533569,immed,52267.99988746643,Tue Jun 09 2026 14:06:48 GMT-0500 (Central Daylight Time),821669.0,A,rugenter,I,enter,458,1,1166.0999999046326,820502.9000000954,8121,WL,A,3.0
7,8.04800009727478,immed,51951.99990272522,Tue Jun 09 2026 14:06:48 GMT-0500 (Central Daylight Time),821985.2999999523,A,f,I,f,311,1,315.89999985694885,821669.4000000954,8121,WL,A,4.0
7,8.114000082015991,immed,51885.99991798401,Tue Jun 09 2026 14:06:48 GMT-0500 (Central Daylight Time),822051.7000000477,A,fl,I,l,50,1,382.2999999523163,821669.4000000954,8121,WL,A,4.0
7,8.331000089645386,immed,51668.999910354614,Tue Jun 09 2026 14:06:48 GMT-0500 (Central Daylight Time),822268.2999999523,A,flo,I,o,209,1,598.8999998569489,821669.4000000954,8121,WL,A,4.0
7,8.447999954223633,immed,51552.00004577637,Tue Jun 09 2026 14:06:48 GMT-0500 (Central Daylight Time),822385.2999999523,A,flow,I,w,104,1,715.8999998569489,821669.4000000954,8121,WL,A,4.0
7,8.598000049591064,immed,51401.999950408936,Tue Jun 09 2026 14:06:48 GMT-0500 (Central Daylight Time),822535.5,A,flowe,I,e,131,1,866.0999999046326,821669.4000000954,8121,WL,A,4.0
7,8.747999906539917,immed,51252.00009346008,Tue Jun 09 2026 14:06:48 GMT-0500 (Central Daylight Time),822685.0999999046,A,flower,I,r,133,1,1015.6999998092651,821669.4000000954,8121,WL,A,4.0
7,9.996999979019165,immed,50003.000020980835,Tue Jun 09 2026 14:06:48 GMT-0500 (Central Daylight Time),823934.9000000954,A,flowerenter,I,enter,1240,1,2265.5,821669.4000000954,8121,WL,A,4.0
7,10.346999883651733,immed,49653.00011634827,Tue Jun 09 2026 14:06:48 GMT-0500 (Central Daylight Time),824284.5,A,m,I,m,334,1,349.40000009536743,823935.0999999046,8121,WL,A,5.0
7,10.480000019073486,immed,49519.999980926514,Tue Jun 09 2026 14:06:48 GMT-0500 (Central Daylight Time),824417.7999999523,A,me,I,e,119,1,482.7000000476837,823935.0999999046,8121,WL,A,5.0
7,10.629999876022339,immed,49370.00012397766,Tue Jun 09 2026 14:06:48 GMT-0500 (Central Daylight Time),824567.7999999523,A,mea,I,a,130,1,632.7000000476837,823935.0999999046,8121,WL,A,5.0
7,10.77999997138977,immed,49220.00002861023,Tue Jun 09 2026 14:06:48 GMT-0500 (Central Daylight Time),824717.5999999046,A,mead,I,d,140,1,782.5,823935.0999999046,8121,WL,A,5.0
7,10.96399998664856,immed,49036.00001335144,Tue Jun 09 2026 14:06:48 GMT-0500 (Central Daylight Time),824901.4000000954,A,meado,I,o,168,1,966.3000001907349,823935.0999999046,8121,WL,A,5.0
7,11.11299991607666,immed,48887.00008392334,Tue Jun 09 2026 14:06:48 GMT-0500 (Central Daylight Time),825050.9000000954,A,meadow,I,w,144,1,1115.8000001907349,823935.0999999046,8121,WL,A,5.0
7,11.746999979019165,immed,48253.000020980835,Tue Jun 09 2026 14:06:48 GMT-0500 (Central Daylight Time),825684.0,A,meadowenter,I,enter,618,1,1748.9000000953674,823935.0999999046,8121,WL,A,5.0
7,12.02999997138977,immed,47970.00002861023,Tue Jun 09 2026 14:06:48 GMT-0500 (Central Daylight Time),825967.7000000477,A,b,I,b,265,1,283.40000009536743,825684.2999999523,8121,WL,A,6.0
7,12.147000074386597,immed,47852.9999256134,Tue Jun 09 2026 14:06:48 GMT-0500 (Central Daylight Time),826084.2000000477,A,bu,I,u,102,1,399.90000009536743,825684.2999999523,8121,WL,A,6.0
7,12.27999997138977,immed,47720.00002861023,Tue Jun 09 2026 14:06:48 GMT-0500 (Central Daylight Time),826217.2999999523,A,but,I,t,121,1,533.0,825684.2999999523,8121,WL,A,6.0
7,12.480000019073486,immed,47519.999980926514,Tue Jun 09 2026 14:06:48 GMT-0500 (Central Daylight Time),826417.7000000477,A,butt,I,t,179,1,733.4000000953674,825684.2999999523,8121,WL,A,6.0
7,12.629999876022339,immed,47370.00012397766,Tue Jun 09 2026 14:06:48 GMT-0500 (Central Daylight Time),826567.0,A,butto,I,o,138,1,882.7000000476837,825684.2999999523,8121,WL,A,6.0
7,12.77999997138977,immed,47220.00002861023,Tue Jun 09 2026 14:06:48 GMT-0500 (Central Daylight Time),826717.0999999046,A,button,I,n,141,1,1032.7999999523163,825684.2999999523,8121,WL,A,6.0
7,13.480000019073486,immed,46519.999980926514,Tue Jun 09 2026 14:06:48 GMT-0500 (Central Daylight Time),827417.0,A,buttonenter,I,enter,688,1,1732.7000000476837,825684.2999999523,8121,WL,A,6.0
7,14.463000059127808,immed,45536.99994087219,Tue Jun 09 2026 14:06:48 GMT-0500 (Central Daylight Time),828400.2999999523,A,c,I,c,964,1,982.8999998569489,827417.4000000954,8121,WL,A,7.0
7,14.628999948501587,immed,45371.00005149841,Tue Jun 09 2026 14:06:48 GMT-0500 (Central Daylight Time),828566.4000000954,A,ch,I,h,148,1,1149.0,827417.4000000954,8121,WL,A,7.0
7,14.746000051498413,immed,45253.99994850159,Tue Jun 09 2026 14:06:48 GMT-0500 (Central Daylight Time),828683.0,A,chi,I,i,110,1,1265.5999999046326,827417.4000000954,8121,WL,A,7.0
7,14.961999893188477,immed,45038.00010681152,Tue Jun 09 2026 14:06:48 GMT-0500 (Central Daylight Time),828899.5999999046,A,chim,I,m,209,1,1482.1999998092651,827417.4000000954,8121,WL,A,7.0
7,15.229000091552734,immed,44770.999908447266,Tue Jun 09 2026 14:06:48 GMT-0500 (Central Daylight Time),829166.2000000477,A,chimn,I,n,248,1,1748.7999999523163,827417.4000000954,8121,WL,A,7.0
7,15.461999893188477,immed,44538.00010681152,Tue Jun 09 2026 14:06:48 GMT-0500 (Central Daylight Time),829399.5999999046,A,chimne,I,e,215,1,1982.1999998092651,827417.4000000954,8121,WL,A,7.0
7,15.578999996185303,immed,44421.0000038147,Tue Jun 09 2026 14:06:48 GMT-0500 (Central Daylight Time),829516.5999999046,A,chimney,I,y,102,1,2099.199999809265,827417.4000000954,8121,WL,A,7.0
7,15.961999893188477,immed,44038.00010681152,Tue Jun 09 2026 14:06:48 GMT-0500 (Central Daylight Time),829899.5999999046,A,chimneyenter,I,enter,368,1,2482.199999809265,827417.4000000954,8121,WL,A,7.0
7,16.295000076293945,immed,43704.999923706055,Tue Jun 09 2026 14:06:48 GMT-0500 (Central Daylight Time),830232.5,A,h,I,h,320,1,332.5,829900.0,8121,WL,A,8.0
7,16.461999893188477,immed,43538.00010681152,Tue Jun 09 2026 14:06:48 GMT-0500 (Central Daylight Time),830399.2000000477,A,ha,I,a,148,1,499.2000000476837,829900.0,8121,WL,A,8.0
7,16.994999885559082,immed,43005.00011444092,Tue Jun 09 2026 14:06:48 GMT-0500 (Central Daylight Time),830932.4000000954,A,har,I,r,525,1,1032.4000000953674,829900.0,8121,WL,A,8.0
7,17.211999893188477,immed,42788.00010681152,Tue Jun 09 2026 14:06:48 GMT-0500 (Central Daylight Time),831149.0,A,harp,I,p,207,1,1249.0,829900.0,8121,WL,A,8.0
7,17.694999933242798,immed,42305.0000667572,Tue Jun 09 2026 14:06:48 GMT-0500 (Central Daylight Time),831632.2999999523,A,harpenter,I,enter,471,1,1732.2999999523163,829900.0,8121,WL,A,8.0
7,18.045000076293945,immed,41954.999923706055,Tue Jun 09 2026 14:06:48 GMT-0500 (Central Daylight Time),831982.2999999523,A,g,I,g,333,1,349.59999990463257,831632.7000000477,8121,WL,A,9.0
7,18.144999980926514,immed,41855.000019073486,Tue Jun 09 2026 14:06:48 GMT-0500 (Central Daylight Time),832082.0999999046,A,go,I,o,94,1,449.39999985694885,831632.7000000477,8121,WL,A,9.0
7,18.34500002861023,immed,41654.99997138977,Tue Jun 09 2026 14:06:48 GMT-0500 (Central Daylight Time),832282.0,A,gol,I,l,195,1,649.2999999523163,831632.7000000477,8121,WL,A,9.0
7,18.527999877929688,immed,41472.00012207031,Tue Jun 09 2026 14:06:48 GMT-0500 (Central Daylight Time),832465.5999999046,A,gold,I,d,178,1,832.8999998569489,831632.7000000477,8121,WL,A,9.0
7,19.07800006866455,immed,40921.99993133545,Tue Jun 09 2026 14:06:48 GMT-0500 (Central Daylight Time),833015.2000000477,A,goldenter,I,enter,539,1,1382.5,831632.7000000477,8121,WL,A,9.0
7,19.444000005722046,immed,40555.999994277954,Tue Jun 09 2026 14:06:48 GMT-0500 (Central Daylight Time),833381.5,A,f,I,f,357,1,366.0,833015.5,8121,WL,A,10.0
7,19.594000101089478,immed,40405.99989891052,Tue Jun 09 2026 14:06:48 GMT-0500 (Central Daylight Time),833531.4000000954,A,fi,I,i,142,1,515.9000000953674,833015.5,8121,WL,A,10.0
7,19.694000005722046,immed,40305.999994277954,Tue Jun 09 2026 14:06:48 GMT-0500 (Central Daylight Time),833631.5,A,fin,I,n,89,1,616.0,833015.5,8121,WL,A,10.0
7,19.89400005340576,immed,40105.99994659424,Tue Jun 09 2026 14:06:48 GMT-0500 (Central Daylight Time),833831.5,A,fint,I,t,179,1,816.0,833015.5,8121,WL,A,10.0
7,20.194000005722046,immed,39805.999994277954,Tue Jun 09 2026 14:06:48 GMT-0500 (Central Daylight Time),834131.5999999046,A,fin,I,backspace,292,1,1116.0999999046326,833015.5,8121,WL,A,10.0
7,20.32699990272522,immed,39673.00009727478,Tue Jun 09 2026 14:06:48 GMT-0500 (Central Daylight Time),834265.0,A,fing,I,g,120,1,1249.5,833015.5,8121,WL,A,10.0
7,20.526999950408936,immed,39473.000049591064,Tue Jun 09 2026 14:06:48 GMT-0500 (Central Daylight Time),834464.9000000954,A,finge,I,e,179,1,1449.4000000953674,833015.5,8121,WL,A,10.0
7,20.64400005340576,immed,39355.99994659424,Tue Jun 09 2026 14:06:48 GMT-0500 (Central Daylight Time),834581.2000000477,A,finger,I,r,108,1,1565.7000000476837,833015.5,8121,WL,A,10.0
7,21.344000101089478,immed,38655.99989891052,Tue Jun 09 2026 14:06:48 GMT-0500 (Central Daylight Time),835281.5,A,fingerenter,I,enter,679,1,2266.0,833015.5,8121,WL,A,10.0
7,22.627000093460083,immed,37372.99990653992,Tue Jun 09 2026 14:06:48 GMT-0500 (Central Daylight Time),836564.2999999523,A,a,I,a,1268,1,1282.5,835281.7999999523,8121,WL,A,11.0
7,22.776999950408936,immed,37223.000049591064,Tue Jun 09 2026 14:06:48 GMT-0500 (Central Daylight Time),836715.0,A,ap,I,p,137,1,1433.2000000476837,835281.7999999523,8121,WL,A,11.0
7,22.925999879837036,immed,37074.000120162964,Tue Jun 09 2026 14:06:48 GMT-0500 (Central Daylight Time),836863.9000000954,A,app,I,p,137,1,1582.1000001430511,835281.7999999523,8121,WL,A,11.0
7,23.125999927520752,immed,36874.00007247925,Tue Jun 09 2026 14:06:48 GMT-0500 (Central Daylight Time),837063.9000000954,A,appl,I,l,180,1,1782.1000001430511,835281.7999999523,8121,WL,A,11.0
7,23.243000030517578,immed,36756.99996948242,Tue Jun 09 2026 14:06:48 GMT-0500 (Central Daylight Time),837180.4000000954,A,apple,I,e,101,1,1898.6000001430511,835281.7999999523,8121,WL,A,11.0
7,23.4760000705719,immed,36523.9999294281,Tue Jun 09 2026 14:06:48 GMT-0500 (Central Daylight Time),837413.9000000954,A,appleenter,I,enter,224,1,2132.100000143051,835281.7999999523,8121,WL,A,11.0
7,23.70900011062622,immed,36290.99988937378,Tue Jun 09 2026 14:06:48 GMT-0500 (Central Daylight Time),837647.0,A,s,I,s,215,1,232.79999995231628,837414.2000000477,8121,WL,A,12.0
7,23.89299988746643,immed,36107.00011253357,Tue Jun 09 2026 14:06:48 GMT-0500 (Central Daylight Time),837830.2999999523,A,sa,I,a,173,1,416.09999990463257,837414.2000000477,8121,WL,A,12.0
7,24.026000022888184,immed,35973.99997711182,Tue Jun 09 2026 14:06:48 GMT-0500 (Central Daylight Time),837963.5,A,sal,I,l,118,1,549.2999999523163,837414.2000000477,8121,WL,A,12.0
7,24.259000062942505,immed,35740.999937057495,Tue Jun 09 2026 14:06:48 GMT-0500 (Central Daylight Time),838196.7000000477,A,salt,I,t,225,1,782.5,837414.2000000477,8121,WL,A,12.0
7,24.9760000705719,immed,35023.9999294281,Tue Jun 09 2026 14:06:48 GMT-0500 (Central Daylight Time),838913.7999999523,A,saltenter,I,enter,703,1,1499.5999999046326,837414.2000000477,8121,WL,A,12.0
7,28.5239999294281,immed,31476.0000705719,Tue Jun 09 2026 14:06:48 GMT-0500 (Central Daylight Time),842462.0,A,k,I,k,3539,1,3547.9000000953674,838914.0999999046,8121,WL,A,13.0
7,28.757999897003174,immed,31242.000102996826,Tue Jun 09 2026 14:06:48 GMT-0500 (Central Daylight Time),842695.4000000954,A,ke,I,e,220,1,3781.300000190735,838914.0999999046,8121,WL,A,13.0
7,28.95799994468689,immed,31042.00005531311,Tue Jun 09 2026 14:06:48 GMT-0500 (Central Daylight Time),842895.2999999523,A,key,I,y,180,1,3981.2000000476837,838914.0999999046,8121,WL,A,13.0
7,29.874000072479248,immed,30125.999927520752,Tue Jun 09 2026 14:06:48 GMT-0500 (Central Daylight Time),843811.7999999523,A,keyenter,I,enter,910,1,4897.700000047684,838914.0999999046,8121,WL,A,13.0
7,30.591000080108643,immed,29408.999919891357,Tue Jun 09 2026 14:06:48 GMT-0500 (Central Daylight Time),844528.4000000954,A,l,I,l,703,1,716.2000000476837,843812.2000000477,8121,WL,A,14.0
7,30.823999881744385,immed,29176.000118255615,Tue Jun 09 2026 14:06:48 GMT-0500 (Central Daylight Time),844761.5999999046,A,lo,I,o,212,1,949.3999998569489,843812.2000000477,8121,WL,A,14.0
7,31.006999969482422,immed,28993.000030517578,Tue Jun 09 2026 14:06:48 GMT-0500 (Central Daylight Time),844944.7000000477,A,log,I,g,171,1,1132.5,843812.2000000477,8121,WL,A,14.0
7,34.789000034332275,immed,25210.999965667725,Tue Jun 09 2026 14:06:48 GMT-0500 (Central Daylight Time),848726.9000000954,A,logenter,I,enter,3770,1,4914.700000047684,843812.2000000477,8121,WL,A,14.0
7,42.8199999332428,immed,17180.000066757202,Tue Jun 09 2026 14:06:48 GMT-0500 (Central Daylight Time),856757.9000000954,A,r,I,r,8014,1,8030.700000047684,848727.2000000477,8121,WL,A,15.0
7,43.019999980926514,immed,16980.000019073486,Tue Jun 09 2026 14:06:48 GMT-0500 (Central Daylight Time),856957.7999999523,A,ra,I,a,183,1,8230.599999904633,848727.2000000477,8121,WL,A,15.0
7,43.25399994850159,immed,16746.000051498413,Tue Jun 09 2026 14:06:48 GMT-0500 (Central Daylight Time),857191.2000000477,A,rat,I,t,224,1,8464.0,848727.2000000477,8121,WL,A,15.0
7,43.40299987792969,immed,16597.000122070312,Tue Jun 09 2026 14:06:48 GMT-0500 (Central Daylight Time),857341.0,A,ratt,I,t,140,1,8613.799999952316,848727.2000000477,8121,WL,A,15.0
7,43.55299997329712,immed,16447.00002670288,Tue Jun 09 2026 14:06:48 GMT-0500 (Central Daylight Time),857490.7000000477,A,rattl,I,l,141,1,8763.5,848727.2000000477,8121,WL,A,15.0
7,43.70300006866455,immed,16296.99993133545,Tue Jun 09 2026 14:06:48 GMT-0500 (Central Daylight Time),857640.5999999046,A,rattle,I,e,130,1,8913.399999856949,848727.2000000477,8121,WL,A,15.0
7,44.170000076293945,immed,15829.999923706055,Tue Jun 09 2026 14:06:48 GMT-0500 (Central Daylight Time),858107.5,A,rattleenter,I,enter,460,1,9380.299999952316,848727.2000000477,8121,WL,A,15.0
