Q,Q1,Q2,Q3,Q4,acc_sum,block,block_c,correct,correct_response,datetime,endtime,project,response,response_time,row_sel,session_number,squiggle1,squiggle1x,squiggle1y,squiggle2,squiggle2x,squiggle2y,squiggle3,squiggle3x,squiggle3y,squiggle4,squiggle4x,squiggle4y,start_end,starttime,subject_id,target_congruent,task,task_vers,testsquiggle,testsquigglex,testsquiggley,time_practice_delay,time_practice_fixation,time_practice_stimuli,time_practice_study,time_test_delay,time_test_fixation,time_test_stimuli,time_test_study,trial
1,1,0,0,0,1,prac,1,1,z,Mon Aug 04 2025 15:49:54 GMT-0500 (Central Daylight Time),172017.19999998808,I,z,1340,1,2,116.bmp,-120,-120,117.bmp,120,-120,118.bmp,-120,120,119.bmp,120,120,10160.599999964237,161856.60000002384,8023,yes,SM,A,116.bmp,-120,-120,165265,159237,167282,161250,,,,,1
3,0,0,1,0,1,prac,1,0,m,Mon Aug 04 2025 15:49:54 GMT-0500 (Central Daylight Time),182848.19999998808,I,None,2016,2,2,120.bmp,-120,-120,121.bmp,120,-120,122.bmp,-120,120,123.bmp,120,120,10827.399999976158,172020.80000001192,8023,no,SM,A,123.bmp,-120,120,175429,169401,177445,171414,,,,,2
4,0,0,0,1,2,prac,1,1,m,Mon Aug 04 2025 15:49:54 GMT-0500 (Central Daylight Time),193510.5,I,m,1835,3,2,124.bmp,-120,-120,125.bmp,120,-120,126.bmp,-120,120,127.bmp,120,120,10657.599999964237,182852.90000003576,8023,no,SM,A,124.bmp,120,120,186259,180233,188275,182244,,,,,3
2,0,1,0,0,2,prac,1,0,z,Mon Aug 04 2025 15:49:54 GMT-0500 (Central Daylight Time),203857.19999998808,I,m,1524,4,2,128.bmp,-120,-120,129.bmp,120,-120,130.bmp,-120,120,131.bmp,120,120,10342.099999964237,193515.10000002384,8023,yes,SM,A,129.bmp,120,-120,196922,190895,198938,192907,,,,,4
3,0,0,1,0,2,prac,1,0,z,Mon Aug 04 2025 15:49:54 GMT-0500 (Central Daylight Time),214687.30000001192,I,None,2016,5,2,132.bmp,-120,-120,133.bmp,120,-120,134.bmp,-120,120,135.bmp,120,120,10826.399999976158,203860.90000003576,8023,yes,SM,A,134.bmp,-120,120,207269,201241,209285,203254,,,,,5
1,1,0,0,0,3,prac,1,1,m,Mon Aug 04 2025 15:49:54 GMT-0500 (Central Daylight Time),225000.60000002384,I,m,1491,6,2,136.bmp,-120,-120,137.bmp,120,-120,138.bmp,-120,120,139.bmp,120,120,10309.400000035763,214691.19999998808,8023,no,SM,A,139.bmp,-120,-120,218099,212071,220115,214083,,,,,6
2,0,1,0,0,3,prac,1,0,m,Mon Aug 04 2025 15:49:54 GMT-0500 (Central Daylight Time),235830.5,I,None,2016,7,2,140.bmp,-120,-120,141.bmp,120,-120,142.bmp,-120,120,143.bmp,120,120,10826.5,225004.0,8023,no,SM,A,140.bmp,120,-120,228412,222384,230428,224397,,,,,7
4,0,0,0,1,4,prac,1,1,z,Mon Aug 04 2025 15:49:54 GMT-0500 (Central Daylight Time),246277.60000002384,I,z,1620,8,2,144.bmp,-120,-120,145.bmp,120,-120,146.bmp,-120,120,147.bmp,120,120,10443.600000023842,235834.0,8023,yes,SM,A,147.bmp,120,120,239242,233214,241258,235227,,,,,8
4,0,0,0,1,1,test,1,1,m,Mon Aug 04 2025 15:49:54 GMT-0500 (Central Daylight Time),274002.1999999881,I,m,1933,1,2,148.bmp,-120,-120,149.bmp,120,-120,150.bmp,-120,120,143.bmp,120,120,9994.699999988079,264007.5,8023,no,SM,A,150.bmp,120,120,239242,233214,241258,235227,267417.0,261388.0,269433.0,263402.0,1
2,0,1,0,0,2,test,1,1,m,Mon Aug 04 2025 15:49:54 GMT-0500 (Central Daylight Time),283615.40000003576,I,m,1552,2,2,101.bmp,-120,-120,102.bmp,120,-120,103.bmp,-120,120,104.bmp,120,120,9610.100000023842,274005.3000000119,8023,no,SM,A,103.bmp,120,-120,239242,233214,241258,235227,277414.0,271386.0,279430.0,273398.0,2
1,1,0,0,0,3,test,1,1,z,Mon Aug 04 2025 15:49:54 GMT-0500 (Central Daylight Time),292962.60000002384,I,z,1299,3,2,105.bmp,-120,-120,106.bmp,120,-120,107.bmp,-120,120,108.bmp,120,120,9343.800000011921,283618.8000000119,8023,yes,SM,A,105.bmp,-120,-120,239242,233214,241258,235227,287027.0,280999.0,289043.0,283012.0,3
3,0,0,1,0,3,test,1,0,m,Mon Aug 04 2025 15:49:54 GMT-0500 (Central Daylight Time),302359.60000002384,I,z,1336,4,2,109.bmp,-120,-120,110.bmp,120,-120,111.bmp,-120,120,112.bmp,120,120,9393.600000023842,292966.0,8023,no,SM,A,109.bmp,-120,120,239242,233214,241258,235227,296374.0,290346.0,298390.0,292360.0,4
2,0,1,0,0,3,test,1,0,z,Mon Aug 04 2025 15:49:54 GMT-0500 (Central Daylight Time),312423.0,I,None,2016,5,2,113.bmp,-120,-120,114.bmp,120,-120,115.bmp,-120,120,116.bmp,120,120,10060.099999964237,302362.90000003576,8023,yes,SM,A,114.bmp,120,-120,239242,233214,241258,235227,305771.0,299743.0,307787.0,301756.0,5
3,0,0,1,0,3,test,1,0,z,Mon Aug 04 2025 15:49:54 GMT-0500 (Central Daylight Time),322486.8000000119,I,None,2016,6,2,117.bmp,-120,-120,118.bmp,120,-120,119.bmp,-120,120,120.bmp,120,120,10060.399999976158,312426.40000003576,8023,yes,SM,A,119.bmp,-120,120,239242,233214,241258,235227,315835.0,309807.0,317851.0,311820.0,6
4,0,0,0,1,4,test,1,1,z,Mon Aug 04 2025 15:49:54 GMT-0500 (Central Daylight Time),331866.6999999881,I,z,1332,7,2,121.bmp,-120,-120,122.bmp,120,-120,123.bmp,-120,120,124.bmp,120,120,9375.799999952316,322490.90000003576,8023,yes,SM,A,124.bmp,120,120,239242,233214,241258,235227,325898.0,319871.0,327914.0,321883.0,7
2,0,1,0,0,5,test,1,1,m,Mon Aug 04 2025 15:49:54 GMT-0500 (Central Daylight Time),341598.40000003576,I,m,1679,8,2,125.bmp,-120,-120,126.bmp,120,-120,127.bmp,-120,120,128.bmp,120,120,9728.300000011921,331870.10000002384,8023,no,SM,A,125.bmp,120,-120,239242,233214,241258,235227,335279.0,329250.0,337295.0,331263.0,8
3,0,0,1,0,5,test,1,0,m,Mon Aug 04 2025 15:49:54 GMT-0500 (Central Daylight Time),351661.0,I,None,2016,9,2,129.bmp,-120,-120,130.bmp,120,-120,131.bmp,-120,120,132.bmp,120,120,10059.0,341602.0,8023,no,SM,A,130.bmp,-120,120,239242,233214,241258,235227,345009.0,338982.0,347025.0,340994.0,9
4,0,0,0,1,5,test,1,0,z,Mon Aug 04 2025 15:49:54 GMT-0500 (Central Daylight Time),361724.3000000119,I,None,2015,10,2,137.bmp,-120,-120,138.bmp,120,-120,139.bmp,-120,120,140.bmp,120,120,10060.100000023842,351664.1999999881,8023,yes,SM,A,140.bmp,120,120,239242,233214,241258,235227,355072.0,349044.0,357089.0,351057.0,10
3,0,0,1,0,5,test,1,0,z,Mon Aug 04 2025 15:49:54 GMT-0500 (Central Daylight Time),371487.90000003576,I,m,1710,11,2,133.bmp,-120,-120,134.bmp,120,-120,135.bmp,-120,120,136.bmp,120,120,9760.5,361727.40000003576,8023,yes,SM,A,135.bmp,-120,120,239242,233214,241258,235227,365136.0,359108.0,367152.0,361121.0,11
2,0,1,0,0,6,test,1,1,m,Mon Aug 04 2025 15:49:54 GMT-0500 (Central Daylight Time),380818.5,I,m,1267,12,2,141.bmp,-120,-120,142.bmp,120,-120,143.bmp,-120,120,144.bmp,120,120,9327.300000011921,371491.1999999881,8023,no,SM,A,141.bmp,120,-120,239242,233214,241258,235227,374900.0,368871.0,376916.0,370884.0,12
3,0,0,1,0,7,test,1,1,m,Mon Aug 04 2025 15:49:54 GMT-0500 (Central Daylight Time),390215.1999999881,I,m,1344,13,2,145.bmp,-120,-120,146.bmp,120,-120,147.bmp,-120,120,148.bmp,120,120,9392.699999988079,380822.5,8023,no,SM,A,146.bmp,-120,120,239242,233214,241258,235227,384230.0,378203.0,386246.0,380215.0,13
1,1,0,0,0,8,test,1,1,z,Mon Aug 04 2025 15:49:54 GMT-0500 (Central Daylight Time),399512.1999999881,I,z,1235,14,2,149.bmp,-120,-120,150.bmp,120,-120,104.bmp,-120,120,101.bmp,120,120,9293.699999988079,390218.5,8023,yes,SM,A,149.bmp,-120,-120,239242,233214,241258,235227,393627.0,387599.0,395643.0,389612.0,14
4,0,0,0,1,8,test,1,0,m,Mon Aug 04 2025 15:49:54 GMT-0500 (Central Daylight Time),409426.0,I,z,1775,15,2,110.bmp,-120,-120,111.bmp,120,-120,112.bmp,-120,120,113.bmp,120,120,9910.199999988079,399515.8000000119,8023,no,SM,A,111.bmp,120,120,239242,233214,241258,235227,403008.0,396896.0,405023.0,399006.0,15
1,1,0,0,0,9,test,1,1,m,Mon Aug 04 2025 15:49:54 GMT-0500 (Central Daylight Time),418923.1999999881,I,m,1440,16,2,102.bmp,-120,-120,103.bmp,120,-120,104.bmp,-120,120,105.bmp,120,120,9493.699999988079,409429.5,8023,no,SM,A,105.bmp,-120,-120,239242,233214,241258,235227,412838.0,406810.0,414854.0,408822.0,16
3,0,0,1,0,10,test,1,1,m,Mon Aug 04 2025 15:49:54 GMT-0500 (Central Daylight Time),427987.0,I,m,1007,17,2,122.bmp,-120,-120,123.bmp,120,-120,124.bmp,-120,120,125.bmp,120,120,9056.199999988079,418930.8000000119,8023,no,SM,A,122.bmp,-120,120,239242,233214,241258,235227,422335.0,416311.0,424351.0,418319.0,17
1,1,0,0,0,10,test,1,0,z,Mon Aug 04 2025 15:49:54 GMT-0500 (Central Daylight Time),437500.5,I,m,1455,18,2,106.bmp,-120,-120,107.bmp,120,-120,108.bmp,-120,120,109.bmp,120,120,9510.300000011921,427990.1999999881,8023,yes,SM,A,106.bmp,-120,-120,239242,233214,241258,235227,431398.0,425370.0,433415.0,427383.0,18
2,0,1,0,0,11,test,1,1,z,Mon Aug 04 2025 15:49:54 GMT-0500 (Central Daylight Time),446780.90000003576,I,z,1221,19,2,126.bmp,-120,-120,127.bmp,120,-120,128.bmp,-120,120,129.bmp,120,120,9277.200000047684,437503.6999999881,8023,yes,SM,A,127.bmp,120,-120,239242,233214,241258,235227,440912.0,434884.0,442928.0,436897.0,19
3,0,0,1,0,12,test,1,1,z,Mon Aug 04 2025 15:49:54 GMT-0500 (Central Daylight Time),456311.3000000119,I,z,1403,20,2,130.bmp,-120,-120,131.bmp,120,-120,132.bmp,-120,120,133.bmp,120,120,9527.0,446784.3000000119,8023,yes,SM,A,132.bmp,-120,120,239242,233214,241258,235227,450259.0,444165.0,452275.0,446255.0,20
1,1,0,0,0,13,test,1,1,m,Mon Aug 04 2025 15:49:54 GMT-0500 (Central Daylight Time),465641.60000002384,I,m,1275,21,2,114.bmp,-120,-120,115.bmp,120,-120,116.bmp,-120,120,117.bmp,120,120,9327.400000035763,456314.1999999881,8023,no,SM,A,116.bmp,-120,-120,239242,233214,241258,235227,459723.0,453695.0,461739.0,455708.0,21
4,0,0,0,1,14,test,1,1,z,Mon Aug 04 2025 15:49:54 GMT-0500 (Central Daylight Time),474672.3000000119,I,z,977,22,2,118.bmp,-120,-120,119.bmp,120,-120,120.bmp,-120,120,121.bmp,120,120,9027.699999988079,465644.60000002384,8023,yes,SM,A,121.bmp,120,120,239242,233214,241258,235227,469053.0,463025.0,471069.0,465038.0,22
1,1,0,0,0,15,test,1,1,m,Mon Aug 04 2025 15:49:54 GMT-0500 (Central Daylight Time),484085.90000003576,I,m,1362,23,2,134.bmp,-120,-120,135.bmp,120,-120,136.bmp,-120,120,137.bmp,120,120,9410.700000047684,474675.1999999881,8023,no,SM,A,137.bmp,-120,-120,239242,233214,241258,235227,478084.0,472055.0,480100.0,474068.0,23
2,0,1,0,0,15,test,1,0,z,Mon Aug 04 2025 15:49:54 GMT-0500 (Central Daylight Time),494149.5,I,None,2015,24,2,142.bmp,-120,-120,143.bmp,120,-120,144.bmp,-120,120,145.bmp,120,120,10060.899999976158,484088.60000002384,8023,yes,SM,A,143.bmp,120,-120,239242,233214,241258,235227,487497.0,481469.0,489514.0,483482.0,24
4,0,0,0,1,16,test,1,1,m,Mon Aug 04 2025 15:49:54 GMT-0500 (Central Daylight Time),503913.0,I,m,1701,25,2,146.bmp,-120,-120,147.bmp,120,-120,148.bmp,-120,120,149.bmp,120,120,9760.199999988079,494152.8000000119,8023,no,SM,A,148.bmp,120,120,239242,233214,241258,235227,497561.0,491533.0,499577.0,493546.0,25
1,1,0,0,0,17,test,1,1,z,Mon Aug 04 2025 15:49:54 GMT-0500 (Central Daylight Time),513160.10000002384,I,z,1193,26,2,138.bmp,-120,-120,139.bmp,120,-120,140.bmp,-120,120,141.bmp,120,120,9243.699999988079,503916.40000003576,8023,yes,SM,A,138.bmp,-120,-120,239242,233214,241258,235227,507325.0,501297.0,509341.0,503309.0,26
4,0,0,0,1,18,test,1,1,z,Mon Aug 04 2025 15:49:54 GMT-0500 (Central Daylight Time),522406.90000003576,I,z,1187,27,2,150.bmp,-120,-120,111.bmp,120,-120,101.bmp,-120,120,102.bmp,120,120,9242.600000023842,513164.3000000119,8023,yes,SM,A,102.bmp,120,120,239242,233214,241258,235227,516572.0,510545.0,518587.0,512556.0,27
3,0,0,1,0,19,test,1,1,m,Mon Aug 04 2025 15:49:54 GMT-0500 (Central Daylight Time),531970.9000000358,I,m,1507,28,2,103.bmp,-120,-120,104.bmp,120,-120,105.bmp,-120,120,106.bmp,120,120,9561.0,522409.90000003576,8023,no,SM,A,103.bmp,-120,120,239242,233214,241258,235227,525819.0,519790.0,527835.0,521803.0,28
2,0,1,0,0,19,test,1,0,z,Mon Aug 04 2025 15:49:54 GMT-0500 (Central Daylight Time),542035.4000000358,I,None,2016,29,2,107.bmp,-120,-120,108.bmp,120,-120,109.bmp,-120,120,110.bmp,120,120,10061.200000047684,531974.1999999881,8023,yes,SM,A,108.bmp,120,-120,239242,233214,241258,235227,535382.0,529354.0,537399.0,531367.0,29
3,0,0,1,0,20,test,1,1,z,Mon Aug 04 2025 15:49:54 GMT-0500 (Central Daylight Time),551014.9000000358,I,z,928,30,2,111.bmp,-120,-120,112.bmp,120,-120,113.bmp,-120,120,114.bmp,120,120,8976.200000047684,542038.6999999881,8023,yes,SM,A,113.bmp,-120,120,239242,233214,241258,235227,545446.0,539419.0,547462.0,541431.0,30
1,1,0,0,0,21,test,1,1,z,Mon Aug 04 2025 15:49:54 GMT-0500 (Central Daylight Time),560628.3000000119,I,z,1555,31,2,115.bmp,-120,-120,116.bmp,120,-120,117.bmp,-120,120,118.bmp,120,120,9610.5,551017.8000000119,8023,yes,SM,A,115.bmp,-120,-120,239242,233214,241258,235227,554426.0,548398.0,556443.0,550411.0,31
2,0,1,0,0,22,test,1,1,m,Mon Aug 04 2025 15:49:54 GMT-0500 (Central Daylight Time),570358.6999999881,I,m,1678,32,2,119.bmp,-120,-120,120.bmp,120,-120,121.bmp,-120,120,122.bmp,120,120,9727.199999988079,560631.5,8023,no,SM,A,119.bmp,120,-120,239242,233214,241258,235227,564041.0,558012.0,566056.0,560025.0,32
4,0,0,0,1,22,test,1,0,z,Mon Aug 04 2025 15:49:54 GMT-0500 (Central Daylight Time),579972.5,I,m,1556,33,2,131.bmp,-120,-120,132.bmp,120,-120,133.bmp,-120,120,134.bmp,120,120,9610.599999964237,570361.9000000358,8023,yes,SM,A,134.bmp,120,120,239242,233214,241258,235227,573770.0,567742.0,575786.0,569755.0,33
2,0,1,0,0,23,test,1,1,z,Mon Aug 04 2025 15:49:54 GMT-0500 (Central Daylight Time),588953.0,I,z,926,34,2,123.bmp,-120,-120,124.bmp,120,-120,125.bmp,-120,120,126.bmp,120,120,8976.899999976158,579976.1000000238,8023,yes,SM,A,124.bmp,120,-120,239242,233214,241258,235227,583384.0,577356.0,585400.0,579369.0,34
4,0,0,0,1,24,test,1,1,m,Mon Aug 04 2025 15:49:54 GMT-0500 (Central Daylight Time),598749.6000000238,I,m,1737,35,2,127.bmp,-120,-120,128.bmp,120,-120,129.bmp,-120,120,130.bmp,120,120,9793.0,588956.6000000238,8023,no,SM,A,129.bmp,120,120,239242,233214,241258,235227,592365.0,586337.0,594381.0,588349.0,35
3,0,0,1,0,24,test,1,0,m,Mon Aug 04 2025 15:49:54 GMT-0500 (Central Daylight Time),608813.6000000238,I,None,2016,36,2,135.bmp,-120,-120,136.bmp,120,-120,137.bmp,-120,120,138.bmp,120,120,10061.600000023842,598752.0,8023,no,SM,A,135.bmp,-120,120,239242,233214,241258,235227,602161.0,596132.0,604178.0,598146.0,36
1,1,0,0,0,25,test,1,1,m,Mon Aug 04 2025 15:49:54 GMT-0500 (Central Daylight Time),618693.1999999881,I,m,1829,37,2,139.bmp,-120,-120,140.bmp,120,-120,141.bmp,-120,120,142.bmp,120,120,9876.399999976158,608816.8000000119,8023,no,SM,A,140.bmp,-120,-120,239242,233214,241258,235227,612225.0,606197.0,614241.0,608210.0,37
2,0,1,0,0,25,test,1,0,m,Mon Aug 04 2025 15:49:54 GMT-0500 (Central Daylight Time),628757.4000000358,I,None,2016,38,2,143.bmp,-120,-120,144.bmp,120,-120,145.bmp,-120,120,146.bmp,120,120,10061.0,618696.4000000358,8023,no,SM,A,145.bmp,120,-120,239242,233214,241258,235227,622105.0,616077.0,624121.0,618090.0,38
4,0,0,0,1,26,test,1,1,z,Mon Aug 04 2025 15:49:54 GMT-0500 (Central Daylight Time),638787.1000000238,I,z,1981,39,2,147.bmp,-120,-120,148.bmp,120,-120,149.bmp,-120,120,150.bmp,120,120,10027.0,628760.1000000238,8023,yes,SM,A,150.bmp,120,120,239242,233214,241258,235227,632169.0,626141.0,634185.0,628153.0,39
3,0,0,1,0,27,test,1,1,m,Mon Aug 04 2025 15:49:54 GMT-0500 (Central Daylight Time),648167.5,I,m,1319,40,2,104.bmp,-120,-120,105.bmp,120,-120,106.bmp,-120,120,107.bmp,120,120,9377.199999988079,638790.3000000119,8023,no,SM,A,105.bmp,-120,120,239242,233214,241258,235227,642199.0,636170.0,644215.0,638184.0,40
1,1,0,0,0,28,test,1,1,z,Mon Aug 04 2025 15:49:54 GMT-0500 (Central Daylight Time),657281.3000000119,I,z,1059,41,2,108.bmp,-120,-120,109.bmp,120,-120,110.bmp,-120,120,111.bmp,120,120,9109.899999976158,648171.4000000358,8023,yes,SM,A,108.bmp,-120,-120,239242,233214,241258,235227,651579.0,645552.0,653595.0,647564.0,41
4,0,0,0,1,28,test,1,0,z,Mon Aug 04 2025 15:49:54 GMT-0500 (Central Daylight Time),667061.5,I,m,1721,42,2,112.bmp,-120,-120,113.bmp,120,-120,114.bmp,-120,120,115.bmp,120,120,9776.699999988079,657284.8000000119,8023,yes,SM,A,115.bmp,120,120,239242,233214,241258,235227,660693.0,654665.0,662709.0,656678.0,42
1,1,0,0,0,29,test,1,1,z,Mon Aug 04 2025 15:49:54 GMT-0500 (Central Daylight Time),675975.3000000119,I,z,860,43,2,116.bmp,-120,-120,117.bmp,120,-120,118.bmp,-120,120,119.bmp,120,120,8911.0,667064.3000000119,8023,yes,SM,A,116.bmp,-120,-120,239242,233214,241258,235227,670473.0,664444.0,672490.0,666458.0,43
4,0,0,0,1,30,test,1,1,m,Mon Aug 04 2025 15:49:54 GMT-0500 (Central Daylight Time),685189.3000000119,I,m,1155,44,2,104.bmp,-120,-120,101.bmp,120,-120,102.bmp,-120,120,103.bmp,120,120,9210.399999976158,675978.9000000358,8023,no,SM,A,104.bmp,120,120,239242,233214,241258,235227,679388.0,673359.0,681403.0,675372.0,44
1,1,0,0,0,31,test,1,1,m,Mon Aug 04 2025 15:49:54 GMT-0500 (Central Daylight Time),694986.5,I,m,1749,45,2,128.bmp,-120,-120,129.bmp,120,-120,130.bmp,-120,120,131.bmp,120,120,9794.199999988079,685192.3000000119,8023,no,SM,A,131.bmp,-120,-120,239242,233214,241258,235227,688601.0,682572.0,690617.0,684585.0,45
1,1,0,0,0,32,test,1,1,m,Mon Aug 04 2025 15:49:54 GMT-0500 (Central Daylight Time),704149.6999999881,I,m,1112,46,2,120.bmp,-120,-120,121.bmp,120,-120,122.bmp,-120,120,123.bmp,120,120,9160.199999988079,694989.5,8023,no,SM,A,121.bmp,-120,-120,239242,233214,241258,235227,698398.0,692370.0,700414.0,694383.0,46
3,0,0,1,0,33,test,1,1,z,Mon Aug 04 2025 15:49:54 GMT-0500 (Central Daylight Time),713797.1999999881,I,z,1596,47,2,124.bmp,-120,-120,125.bmp,120,-120,126.bmp,-120,120,127.bmp,120,120,9645.0,704152.1999999881,8023,yes,SM,A,126.bmp,-120,120,239242,233214,241258,235227,707562.0,701532.0,709578.0,703546.0,47
3,0,0,1,0,34,test,1,1,z,Mon Aug 04 2025 15:49:54 GMT-0500 (Central Daylight Time),723494.1000000238,I,z,1645,48,2,140.bmp,-120,-120,141.bmp,120,-120,142.bmp,-120,120,143.bmp,120,120,9693.400000035763,713800.6999999881,8023,yes,SM,A,142.bmp,-120,120,239242,233214,241258,235227,717209.0,711181.0,719225.0,713193.0,48
2,0,1,0,0,35,test,1,1,z,Mon Aug 04 2025 15:49:54 GMT-0500 (Central Daylight Time),732890.6000000238,I,z,1341,49,2,136.bmp,-120,-120,137.bmp,120,-120,138.bmp,-120,120,139.bmp,120,120,9389.400000035763,723501.1999999881,8023,yes,SM,A,137.bmp,120,-120,239242,233214,241258,235227,726906.0,720882.0,728921.0,722890.0,49
3,0,0,1,0,36,test,1,1,m,Mon Aug 04 2025 15:49:54 GMT-0500 (Central Daylight Time),742937.6999999881,I,m,1983,50,2,132.bmp,-120,-120,133.bmp,120,-120,134.bmp,-120,120,135.bmp,120,120,10043.899999976158,732893.8000000119,8023,no,SM,A,132.bmp,-120,120,239242,233214,241258,235227,736303.0,730274.0,738319.0,732287.0,50
2,0,1,0,0,37,test,1,1,z,Mon Aug 04 2025 15:49:54 GMT-0500 (Central Daylight Time),752301.5,I,z,1304,51,2,144.bmp,-120,-120,145.bmp,120,-120,146.bmp,-120,120,147.bmp,120,120,9360.699999988079,742940.8000000119,8023,yes,SM,A,145.bmp,120,-120,239242,233214,241258,235227,746350.0,740321.0,748366.0,742334.0,51
4,0,0,0,1,38,test,1,1,m,Mon Aug 04 2025 15:49:54 GMT-0500 (Central Daylight Time),762281.6999999881,I,m,1925,52,2,148.bmp,-120,-120,149.bmp,120,-120,150.bmp,-120,120,131.bmp,120,120,9977.0,752304.6999999881,8023,no,SM,A,148.bmp,120,120,239242,233214,241258,235227,755713.0,749685.0,757729.0,751698.0,52
3,0,0,1,0,39,test,1,1,z,Mon Aug 04 2025 15:49:54 GMT-0500 (Central Daylight Time),771395.6000000238,I,z,1064,53,2,101.bmp,-120,-120,102.bmp,120,-120,103.bmp,-120,120,104.bmp,120,120,9110.699999988079,762284.9000000358,8023,yes,SM,A,103.bmp,-120,120,239242,233214,241258,235227,765693.0,759665.0,767710.0,761678.0,53
1,1,0,0,0,40,test,1,1,m,Mon Aug 04 2025 15:49:54 GMT-0500 (Central Daylight Time),781442.3000000119,I,m,1983,54,2,105.bmp,-120,-120,106.bmp,120,-120,107.bmp,-120,120,108.bmp,120,120,10043.300000011921,771399.0,8023,no,SM,A,107.bmp,-120,-120,239242,233214,241258,235227,774807.0,768779.0,776823.0,770792.0,54
4,0,0,0,1,40,test,1,0,z,Mon Aug 04 2025 15:49:54 GMT-0500 (Central Daylight Time),791122.6999999881,I,m,1616,55,2,109.bmp,-120,-120,110.bmp,120,-120,111.bmp,-120,120,112.bmp,120,120,9677.299999952316,781445.4000000358,8023,yes,SM,A,112.bmp,120,120,239242,233214,241258,235227,784854.0,778826.0,786870.0,780839.0,55
2,0,1,0,0,41,test,1,1,m,Mon Aug 04 2025 15:49:54 GMT-0500 (Central Daylight Time),801052.9000000358,I,m,1879,56,2,113.bmp,-120,-120,114.bmp,120,-120,115.bmp,-120,120,116.bmp,120,120,9927.200000047684,791125.6999999881,8023,no,SM,A,113.bmp,120,-120,239242,233214,241258,235227,794534.0,788506.0,796551.0,790519.0,56
4,0,0,0,1,42,test,1,1,m,Mon Aug 04 2025 15:49:54 GMT-0500 (Central Daylight Time),810083.6000000238,I,m,973,57,2,117.bmp,-120,-120,118.bmp,120,-120,119.bmp,-120,120,120.bmp,120,120,9027.699999988079,801055.9000000358,8023,no,SM,A,118.bmp,120,120,239242,233214,241258,235227,804465.0,798436.0,806481.0,800449.0,57
3,0,0,1,0,42,test,1,0,z,Mon Aug 04 2025 15:49:54 GMT-0500 (Central Daylight Time),820147.0,I,None,2016,58,2,121.bmp,-120,-120,122.bmp,120,-120,123.bmp,-120,120,124.bmp,120,120,10060.199999988079,810086.8000000119,8023,yes,SM,A,123.bmp,-120,120,239242,233214,241258,235227,813495.0,807467.0,815511.0,809480.0,58
2,0,1,0,0,43,test,1,1,m,Mon Aug 04 2025 15:49:54 GMT-0500 (Central Daylight Time),829760.5,I,m,1551,59,2,125.bmp,-120,-120,126.bmp,120,-120,127.bmp,-120,120,128.bmp,120,120,9610.599999964237,820149.9000000358,8023,no,SM,A,128.bmp,120,-120,239242,233214,241258,235227,823558.0,817530.0,825575.0,819543.0,59
1,1,0,0,0,44,test,1,1,z,Mon Aug 04 2025 15:49:54 GMT-0500 (Central Daylight Time),839124.1999999881,I,z,1314,60,2,129.bmp,-120,-120,130.bmp,120,-120,131.bmp,-120,120,132.bmp,120,120,9360.599999964237,829763.6000000238,8023,yes,SM,A,129.bmp,-120,-120,239242,233214,241258,235227,833172.0,827144.0,835188.0,829157.0,60
2,0,1,0,0,45,test,1,1,z,Mon Aug 04 2025 15:49:54 GMT-0500 (Central Daylight Time),848954.5,I,z,1774,61,2,133.bmp,-120,-120,134.bmp,120,-120,135.bmp,-120,120,136.bmp,120,120,9827.0,839127.5,8023,yes,SM,A,134.bmp,120,-120,239242,233214,241258,235227,842536.0,836508.0,844552.0,838521.0,61
4,0,0,0,1,45,test,1,0,z,Mon Aug 04 2025 15:49:54 GMT-0500 (Central Daylight Time),858751.3000000119,I,m,1744,62,2,141.bmp,-120,-120,142.bmp,120,-120,143.bmp,-120,120,144.bmp,120,120,9793.399999976158,848957.9000000358,8023,yes,SM,A,144.bmp,120,120,239242,233214,241258,235227,852366.0,846338.0,854382.0,848351.0,62
1,1,0,0,0,45,test,1,0,m,Mon Aug 04 2025 15:49:54 GMT-0500 (Central Daylight Time),868515.1000000238,I,z,1707,63,2,145.bmp,-120,-120,146.bmp,120,-120,147.bmp,-120,120,148.bmp,120,120,9760.800000011921,858754.3000000119,8023,no,SM,A,145.bmp,-120,120,239242,233214,241258,235227,862163.0,856135.0,864179.0,858148.0,63
2,0,1,0,0,45,test,1,0,z,Mon Aug 04 2025 15:49:54 GMT-0500 (Central Daylight Time),878162.3000000119,I,m,1591,64,2,149.bmp,-120,-120,150.bmp,120,-120,112.bmp,-120,120,101.bmp,120,120,9644.199999988079,868518.1000000238,8023,yes,SM,A,150.bmp,120,-120,239242,233214,241258,235227,871928.0,865898.0,873943.0,867912.0,64
4,0,0,0,1,45,test,1,0,m,Mon Aug 04 2025 15:49:54 GMT-0500 (Central Daylight Time),888042.3000000119,I,z,1824,65,2,102.bmp,-120,-120,103.bmp,120,-120,104.bmp,-120,120,105.bmp,120,120,9877.199999988079,878165.1000000238,8023,no,SM,A,104.bmp,120,120,239242,233214,241258,235227,881574.0,875545.0,883590.0,877558.0,65
3,0,0,1,0,46,test,1,1,m,Mon Aug 04 2025 15:49:54 GMT-0500 (Central Daylight Time),897239.3000000119,I,m,1144,66,2,106.bmp,-120,-120,107.bmp,120,-120,108.bmp,-120,120,109.bmp,120,120,9193.899999976158,888045.4000000358,8023,no,SM,A,109.bmp,-120,120,239242,233214,241258,235227,891454.0,885426.0,893470.0,887438.0,66
2,0,1,0,0,47,test,1,1,m,Mon Aug 04 2025 15:49:54 GMT-0500 (Central Daylight Time),906686.3000000119,I,m,1395,67,2,137.bmp,-120,-120,138.bmp,120,-120,139.bmp,-120,120,140.bmp,120,120,9444.100000023842,897242.1999999881,8023,no,SM,A,139.bmp,120,-120,239242,233214,241258,235227,900651.0,894622.0,902667.0,896635.0,67
3,0,0,1,0,47,test,1,0,z,Mon Aug 04 2025 15:49:54 GMT-0500 (Central Daylight Time),916750.1000000238,I,None,2016,68,2,110.bmp,-120,-120,111.bmp,120,-120,112.bmp,-120,120,113.bmp,120,120,10060.699999988079,906689.4000000358,8023,yes,SM,A,112.bmp,-120,120,239242,233214,241258,235227,910098.0,904070.0,912114.0,906083.0,68
1,1,0,0,0,48,test,1,1,m,Mon Aug 04 2025 15:49:54 GMT-0500 (Central Daylight Time),926447.0,I,m,1636,69,2,114.bmp,-120,-120,115.bmp,120,-120,116.bmp,-120,120,117.bmp,120,120,9693.300000011921,916753.6999999881,8023,no,SM,A,115.bmp,-120,-120,239242,233214,241258,235227,920161.0,914134.0,922178.0,916146.0,69
2,0,1,0,0,49,test,1,1,m,Mon Aug 04 2025 15:49:54 GMT-0500 (Central Daylight Time),935677.1999999881,I,m,1179,70,2,118.bmp,-120,-120,119.bmp,120,-120,120.bmp,-120,120,121.bmp,120,120,9227.299999952316,926449.9000000358,8023,no,SM,A,120.bmp,120,-120,239242,233214,241258,235227,929858.0,923830.0,931875.0,925843.0,70
4,0,0,0,1,50,test,1,1,z,Mon Aug 04 2025 15:49:54 GMT-0500 (Central Daylight Time),945024.1999999881,I,z,1293,71,2,122.bmp,-120,-120,123.bmp,120,-120,124.bmp,-120,120,125.bmp,120,120,9343.5,935680.6999999881,8023,yes,SM,A,125.bmp,120,120,239242,233214,241258,235227,939089.0,933061.0,941105.0,935074.0,71
1,1,0,0,0,51,test,1,1,z,Mon Aug 04 2025 15:49:54 GMT-0500 (Central Daylight Time),954604.6999999881,I,z,1530,72,2,126.bmp,-120,-120,127.bmp,120,-120,128.bmp,-120,120,129.bmp,120,120,9577.5,945027.1999999881,8023,yes,SM,A,126.bmp,-120,-120,239242,233214,241258,235227,948436.0,942407.0,950452.0,944421.0,72
2,0,1,0,0,52,test,1,1,z,Mon Aug 04 2025 15:49:54 GMT-0500 (Central Daylight Time),964201.5,I,z,1542,73,2,130.bmp,-120,-120,131.bmp,120,-120,132.bmp,-120,120,133.bmp,120,120,9593.800000011921,954607.6999999881,8023,yes,SM,A,131.bmp,120,-120,239242,233214,241258,235227,958016.0,951988.0,960032.0,954001.0,73
4,0,0,0,1,52,test,1,0,m,Mon Aug 04 2025 15:49:54 GMT-0500 (Central Daylight Time),974265.1000000238,I,None,2016,74,2,134.bmp,-120,-120,135.bmp,120,-120,136.bmp,-120,120,137.bmp,120,120,10060.600000023842,964204.5,8023,no,SM,A,136.bmp,120,120,239242,233214,241258,235227,967613.0,961585.0,969629.0,963598.0,74
2,0,1,0,0,52,test,1,0,m,Mon Aug 04 2025 15:49:54 GMT-0500 (Central Daylight Time),984328.9000000358,I,None,2016,75,2,138.bmp,-120,-120,139.bmp,120,-120,140.bmp,-120,120,141.bmp,120,120,10060.600000023842,974268.3000000119,8023,no,SM,A,141.bmp,120,-120,239242,233214,241258,235227,977677.0,971649.0,979693.0,973661.0,75
1,1,0,0,0,53,test,1,1,z,Mon Aug 04 2025 15:49:54 GMT-0500 (Central Daylight Time),993442.4000000358,I,z,1050,76,2,142.bmp,-120,-120,143.bmp,120,-120,144.bmp,-120,120,145.bmp,120,120,9110.0,984332.4000000358,8023,yes,SM,A,142.bmp,-120,-120,239242,233214,241258,235227,987740.0,981713.0,989756.0,983725.0,76
3,0,0,1,0,54,test,1,1,z,Mon Aug 04 2025 15:49:54 GMT-0500 (Central Daylight Time),1003456.0,I,z,1952,77,2,150.bmp,-120,-120,111.bmp,120,-120,101.bmp,-120,120,102.bmp,120,120,10010.599999964237,993445.4000000358,8023,yes,SM,A,101.bmp,-120,120,239242,233214,241258,235227,996854.0,990826.0,998870.0,992839.0,77
1,1,0,0,0,55,test,1,1,m,Mon Aug 04 2025 15:49:54 GMT-0500 (Central Daylight Time),1013202.8000000119,I,m,1690,78,2,146.bmp,-120,-120,147.bmp,120,-120,148.bmp,-120,120,149.bmp,120,120,9743.600000023842,1003459.1999999881,8023,no,SM,A,147.bmp,-120,-120,239242,233214,241258,235227,1006868.0,1000839.0,1008884.0,1002853.0,78
4,0,0,0,1,56,test,1,1,m,Mon Aug 04 2025 15:49:54 GMT-0500 (Central Daylight Time),1022666.6000000238,I,m,1401,79,2,107.bmp,-120,-120,108.bmp,120,-120,109.bmp,-120,120,110.bmp,120,120,9456.199999988079,1013210.4000000358,8023,no,SM,A,107.bmp,120,120,239242,233214,241258,235227,1016615.0,1010591.0,1018630.0,1012599.0,79
3,0,0,1,0,56,test,1,0,m,Mon Aug 04 2025 15:49:54 GMT-0500 (Central Daylight Time),1032729.8000000119,I,None,2016,80,2,103.bmp,-120,-120,104.bmp,120,-120,105.bmp,-120,120,106.bmp,120,120,10059.399999976158,1022670.4000000358,8023,no,SM,A,106.bmp,-120,120,239242,233214,241258,235227,1026078.0,1020051.0,1028094.0,1022063.0,80
