acc_sum,block,block_c,block_cond,con_img,correct,correct_response,datetime,endtime,face,jitter,line,project,response,response_time,row_sel,session_number,start_end,starttime,subject_id,task,task_vers,trial
1,prac,1,A,haborder.png,1,z,Mon Nov 24 2025 15:50:35 GMT-0600 (Central Standard Time),60850.90000000596,CFD-BF-051-043-A.jpg,1000,solid,O,z,1464,4,1,3250.2000000178814,57600.69999998808,7709,ATS,B,1
2,prac,1,A,haborder.png,1,z,Mon Nov 24 2025 15:50:35 GMT-0600 (Central Standard Time),64447.69999998808,CFD-WM-009-009-A.jpg,1900,solid,O,z,904,8,1,6847.0,57600.69999998808,7709,ATS,B,2
3,prac,1,A,haborder.png,1,z,Mon Nov 24 2025 15:50:35 GMT-0600 (Central Standard Time),67716.09999999404,CFD-WF-026-008-A.jpg,1600,solid,O,z,894,10,1,10115.40000000596,57600.69999998808,7709,ATS,B,3
4,prac,1,A,haborder.png,1,m,Mon Nov 24 2025 15:50:35 GMT-0600 (Central Standard Time),70697.59999999404,CFD-WF-011-006-HC.jpg,1500,solid,O,m,684,11,1,13096.90000000596,57600.69999998808,7709,ATS,B,4
5,prac,1,A,haborder.png,1,z,Mon Nov 24 2025 15:50:35 GMT-0600 (Central Standard Time),73647.80000001192,CFD-BF-050-012-A.jpg,1200,solid,O,z,960,6,1,16047.100000023842,57600.69999998808,7709,ATS,B,5
6,prac,1,A,haborder.png,1,m,Mon Nov 24 2025 15:50:35 GMT-0600 (Central Standard Time),77545.40000000596,CFD-BM-015-017-HC.jpg,1700,solid,O,m,1408,1,1,19944.70000001788,57600.69999998808,7709,ATS,B,6
6,prac,1,A,haborder.png,0,z,Mon Nov 24 2025 15:50:35 GMT-0600 (Central Standard Time),80393.5,CFD-WF-013-015-A.jpg,1000,solid,O,m,1063,12,1,22792.80000001192,57600.69999998808,7709,ATS,B,7
7,prac,1,A,haborder.png,1,m,Mon Nov 24 2025 15:50:35 GMT-0600 (Central Standard Time),83593.0,CFD-WM-011-006-HC.jpg,1400,solid,O,m,1005,7,1,25992.30000001192,57600.69999998808,7709,ATS,B,8
8,prac,1,A,haborder.png,1,m,Mon Nov 24 2025 15:50:35 GMT-0600 (Central Standard Time),86559.0,CFD-BM-020-024-HC.jpg,1500,solid,O,m,666,3,1,28958.30000001192,57600.69999998808,7709,ATS,B,9
9,prac,1,A,haborder.png,1,m,Mon Nov 24 2025 15:50:35 GMT-0600 (Central Standard Time),89823.59999999404,CFD-WM-012-007-HC.jpg,1700,solid,O,m,773,9,1,32222.90000000596,57600.69999998808,7709,ATS,B,10
10,prac,1,A,haborder.png,1,z,Mon Nov 24 2025 15:50:35 GMT-0600 (Central Standard Time),93289.5,CFD-BM-037-041-A.jpg,1600,solid,O,z,1070,2,1,35688.80000001192,57600.69999998808,7709,ATS,B,11
11,prac,1,A,haborder.png,1,m,Mon Nov 24 2025 15:50:35 GMT-0600 (Central Standard Time),96971.69999998808,CFD-BF-035-007-HC.jpg,2000,solid,O,m,877,5,1,39371.0,57600.69999998808,7709,ATS,B,12
0,prac,1,B,mfborder.png,0,m,Mon Nov 24 2025 15:50:35 GMT-0600 (Central Standard Time),131244.0,CFD-WM-037-060-A.jpg,1200,dash,O,None,1515,6,1,3496.5999999940395,127747.40000000596,7709,ATS,B,1
1,prac,1,B,mfborder.png,1,z,Mon Nov 24 2025 15:50:35 GMT-0600 (Central Standard Time),134276.40000000596,CFD-WF-026-008-A.jpg,1500,dash,O,z,741,11,1,6529.0,127747.40000000596,7709,ATS,B,2
2,prac,1,B,mfborder.png,1,m,Mon Nov 24 2025 15:50:35 GMT-0600 (Central Standard Time),137524.59999999404,CFD-WM-009-009-A.jpg,1700,dash,O,m,751,9,1,9777.199999988079,127747.40000000596,7709,ATS,B,3
2,prac,1,B,mfborder.png,0,m,Mon Nov 24 2025 15:50:35 GMT-0600 (Central Standard Time),140925.5,CFD-BM-020-024-HC.jpg,1700,dash,O,z,901,1,1,13178.09999999404,127747.40000000596,7709,ATS,B,4
3,prac,1,B,mfborder.png,1,z,Mon Nov 24 2025 15:50:35 GMT-0600 (Central Standard Time),143524.0,CFD-WF-011-006-HC.jpg,1000,dash,O,z,810,12,1,15776.59999999404,127747.40000000596,7709,ATS,B,5
4,prac,1,B,mfborder.png,1,z,Mon Nov 24 2025 15:50:35 GMT-0600 (Central Standard Time),146723.69999998808,CFD-BF-027-013-HC.jpg,1500,dash,O,z,904,3,1,18976.29999998212,127747.40000000596,7709,ATS,B,6
5,prac,1,B,mfborder.png,1,m,Mon Nov 24 2025 15:50:35 GMT-0600 (Central Standard Time),149772.30000001192,CFD-BM-041-048-A.jpg,1600,dash,O,m,661,2,1,22024.90000000596,127747.40000000596,7709,ATS,B,7
6,prac,1,B,mfborder.png,1,z,Mon Nov 24 2025 15:50:35 GMT-0600 (Central Standard Time),152888.09999999404,CFD-BF-051-043-A.jpg,1000,dash,O,z,1321,4,1,25140.69999998808,127747.40000000596,7709,ATS,B,8
7,prac,1,B,mfborder.png,1,m,Mon Nov 24 2025 15:50:35 GMT-0600 (Central Standard Time),156103.40000000596,CFD-WM-012-007-HC.jpg,1600,dash,O,m,814,10,1,28356.0,127747.40000000596,7709,ATS,B,9
8,prac,1,B,mfborder.png,1,z,Mon Nov 24 2025 15:50:35 GMT-0600 (Central Standard Time),159202.59999999404,CFD-BF-035-007-HC.jpg,1400,dash,O,z,911,7,1,31455.19999998808,127747.40000000596,7709,ATS,B,10
9,prac,1,B,mfborder.png,1,z,Mon Nov 24 2025 15:50:35 GMT-0600 (Central Standard Time),162984.40000000596,CFD-WF-027-007-HC.jpg,1900,dash,O,z,1080,8,1,35237.0,127747.40000000596,7709,ATS,B,11
10,prac,1,B,mfborder.png,1,m,Mon Nov 24 2025 15:50:35 GMT-0600 (Central Standard Time),166549.5,CFD-BM-037-041-A.jpg,2000,dash,O,m,767,5,1,38802.09999999404,127747.40000000596,7709,ATS,B,12
0,test,1,A,haborder.png,0,z,Mon Nov 24 2025 15:50:35 GMT-0600 (Central Standard Time),185860.80000001192,CFD-BF-050-012-A.jpg,1200,solid,O,None,1501,6,1,2733.800000011921,183127.0,7709,ATS,B,1
1,test,1,A,haborder.png,1,z,Mon Nov 24 2025 15:50:35 GMT-0600 (Central Standard Time),188744.80000001192,CFD-BM-037-041-A.jpg,1600,solid,O,z,1267,2,1,5617.800000011921,183127.0,7709,ATS,B,2
2,test,1,A,haborder.png,1,m,Mon Nov 24 2025 15:50:35 GMT-0600 (Central Standard Time),191576.80000001192,CFD-BF-035-007-HC.jpg,2000,solid,O,m,809,5,1,8449.800000011921,183127.0,7709,ATS,B,3
3,test,1,A,haborder.png,1,z,Mon Nov 24 2025 15:50:35 GMT-0600 (Central Standard Time),194157.30000001192,CFD-WF-026-008-A.jpg,1600,solid,O,z,961,10,1,11030.300000011921,183127.0,7709,ATS,B,4
4,test,1,A,haborder.png,1,m,Mon Nov 24 2025 15:50:35 GMT-0600 (Central Standard Time),196557.0,CFD-BM-015-017-HC.jpg,1700,solid,O,m,670,1,1,13430.0,183127.0,7709,ATS,B,5
5,test,1,A,haborder.png,1,z,Mon Nov 24 2025 15:50:35 GMT-0600 (Central Standard Time),198573.0,CFD-BF-051-043-A.jpg,1000,solid,O,z,987,4,1,15446.0,183127.0,7709,ATS,B,6
6,test,1,A,haborder.png,1,m,Mon Nov 24 2025 15:50:35 GMT-0600 (Central Standard Time),200989.90000000596,CFD-BM-015-017-HC.jpg,1700,solid,O,m,693,1,1,17862.90000000596,183127.0,7709,ATS,B,7
6,test,1,A,haborder.png,0,z,Mon Nov 24 2025 15:50:35 GMT-0600 (Central Standard Time),203504.80000001192,CFD-WF-013-015-A.jpg,1000,solid,O,None,1501,12,1,20377.80000001192,183127.0,7709,ATS,B,8
7,test,1,A,haborder.png,1,m,Mon Nov 24 2025 15:50:35 GMT-0600 (Central Standard Time),206070.09999999404,CFD-WF-011-006-HC.jpg,1500,solid,O,m,1035,11,1,22943.09999999404,183127.0,7709,ATS,B,9
8,test,1,A,haborder.png,1,z,Mon Nov 24 2025 15:50:35 GMT-0600 (Central Standard Time),208685.69999998808,CFD-BF-050-012-A.jpg,1200,solid,O,z,1385,6,1,25558.69999998808,183127.0,7709,ATS,B,10
9,test,1,A,haborder.png,1,m,Mon Nov 24 2025 15:50:35 GMT-0600 (Central Standard Time),211085.69999998808,CFD-WF-011-006-HC.jpg,1500,solid,O,m,869,11,1,27958.69999998808,183127.0,7709,ATS,B,11
10,test,1,A,haborder.png,1,m,Mon Nov 24 2025 15:50:35 GMT-0600 (Central Standard Time),213633.90000000596,CFD-WM-012-007-HC.jpg,1700,solid,O,m,830,9,1,30506.90000000596,183127.0,7709,ATS,B,12
11,test,1,A,haborder.png,1,m,Mon Nov 24 2025 15:50:35 GMT-0600 (Central Standard Time),215817.5,CFD-WM-012-007-HC.jpg,1700,solid,O,m,465,9,1,32690.5,183127.0,7709,ATS,B,13
12,test,1,A,haborder.png,1,m,Mon Nov 24 2025 15:50:35 GMT-0600 (Central Standard Time),217932.5,CFD-WM-011-006-HC.jpg,1400,solid,O,m,687,7,1,34805.5,183127.0,7709,ATS,B,14
13,test,1,A,haborder.png,1,m,Mon Nov 24 2025 15:50:35 GMT-0600 (Central Standard Time),220065.0,CFD-BM-020-024-HC.jpg,1500,solid,O,m,611,3,1,36938.0,183127.0,7709,ATS,B,15
14,test,1,A,haborder.png,1,z,Mon Nov 24 2025 15:50:35 GMT-0600 (Central Standard Time),222382.59999999404,CFD-BM-037-041-A.jpg,1600,solid,O,z,685,2,1,39255.59999999404,183127.0,7709,ATS,B,16
15,test,1,A,haborder.png,1,z,Mon Nov 24 2025 15:50:35 GMT-0600 (Central Standard Time),225681.30000001192,CFD-WM-009-009-A.jpg,1900,solid,O,z,1381,8,1,42554.30000001192,183127.0,7709,ATS,B,17
16,test,1,A,haborder.png,1,z,Mon Nov 24 2025 15:50:35 GMT-0600 (Central Standard Time),227413.40000000596,CFD-BF-051-043-A.jpg,1000,solid,O,z,711,4,1,44286.40000000596,183127.0,7709,ATS,B,18
17,test,1,A,haborder.png,1,z,Mon Nov 24 2025 15:50:35 GMT-0600 (Central Standard Time),229962.0,CFD-WM-009-009-A.jpg,1900,solid,O,z,621,8,1,46835.0,183127.0,7709,ATS,B,19
18,test,1,A,haborder.png,1,m,Mon Nov 24 2025 15:50:35 GMT-0600 (Central Standard Time),232344.69999998808,CFD-WM-011-006-HC.jpg,1400,solid,O,m,966,7,1,49217.69999998808,183127.0,7709,ATS,B,20
19,test,1,A,haborder.png,1,z,Mon Nov 24 2025 15:50:35 GMT-0600 (Central Standard Time),234676.69999998808,CFD-WF-026-008-A.jpg,1600,solid,O,z,707,10,1,51549.69999998808,183127.0,7709,ATS,B,21
20,test,1,A,haborder.png,1,m,Mon Nov 24 2025 15:50:35 GMT-0600 (Central Standard Time),237696.0,CFD-BF-035-007-HC.jpg,2000,solid,O,m,1000,5,1,54569.0,183127.0,7709,ATS,B,22
21,test,1,A,haborder.png,1,m,Mon Nov 24 2025 15:50:35 GMT-0600 (Central Standard Time),240360.19999998808,CFD-BM-020-024-HC.jpg,1500,solid,O,m,1137,3,1,57233.19999998808,183127.0,7709,ATS,B,23
22,test,1,A,haborder.png,1,z,Mon Nov 24 2025 15:50:35 GMT-0600 (Central Standard Time),242242.40000000596,CFD-WF-013-015-A.jpg,1000,solid,O,z,854,12,1,59115.40000000596,183127.0,7709,ATS,B,24
1,test,1,B,mfborder.png,1,m,Mon Nov 24 2025 15:50:35 GMT-0600 (Central Standard Time),258753.40000000596,CFD-WM-012-007-HC.jpg,1600,dash,O,m,1341,10,1,2966.5999999940395,255786.80000001192,7709,ATS,B,1
2,test,1,B,mfborder.png,1,z,Mon Nov 24 2025 15:50:35 GMT-0600 (Central Standard Time),261287.90000000596,CFD-WF-027-007-HC.jpg,1900,dash,O,z,611,8,1,5501.0999999940395,255786.80000001192,7709,ATS,B,2
3,test,1,B,mfborder.png,1,z,Mon Nov 24 2025 15:50:35 GMT-0600 (Central Standard Time),263120.8000000119,CFD-WF-011-006-HC.jpg,1000,dash,O,z,810,12,1,7334.0,255786.80000001192,7709,ATS,B,3
4,test,1,B,mfborder.png,1,m,Mon Nov 24 2025 15:50:35 GMT-0600 (Central Standard Time),265551.1999999881,CFD-WM-009-009-A.jpg,1700,dash,O,m,709,9,1,9764.399999976158,255786.80000001192,7709,ATS,B,4
5,test,1,B,mfborder.png,1,z,Mon Nov 24 2025 15:50:35 GMT-0600 (Central Standard Time),268233.3000000119,CFD-WF-027-007-HC.jpg,1900,dash,O,z,763,8,1,12446.5,255786.80000001192,7709,ATS,B,5
6,test,1,B,mfborder.png,1,m,Mon Nov 24 2025 15:50:35 GMT-0600 (Central Standard Time),270500.5,CFD-WM-037-060-A.jpg,1200,dash,O,m,1037,6,1,14713.699999988079,255786.80000001192,7709,ATS,B,6
7,test,1,B,mfborder.png,1,m,Mon Nov 24 2025 15:50:35 GMT-0600 (Central Standard Time),273049.09999999404,CFD-BM-020-024-HC.jpg,1700,dash,O,m,823,1,1,17262.29999998212,255786.80000001192,7709,ATS,B,7
8,test,1,B,mfborder.png,1,m,Mon Nov 24 2025 15:50:35 GMT-0600 (Central Standard Time),275864.3000000119,CFD-BM-037-041-A.jpg,2000,dash,O,m,790,5,1,20077.5,255786.80000001192,7709,ATS,B,8
9,test,1,B,mfborder.png,1,m,Mon Nov 24 2025 15:50:35 GMT-0600 (Central Standard Time),278197.0,CFD-BM-020-024-HC.jpg,1700,dash,O,m,611,1,1,22410.19999998808,255786.80000001192,7709,ATS,B,9
10,test,1,B,mfborder.png,1,z,Mon Nov 24 2025 15:50:35 GMT-0600 (Central Standard Time),280712.5,CFD-BF-027-013-HC.jpg,1500,dash,O,z,996,3,1,24925.69999998808,255786.80000001192,7709,ATS,B,10
11,test,1,B,mfborder.png,1,z,Mon Nov 24 2025 15:50:35 GMT-0600 (Central Standard Time),282379.3000000119,CFD-WF-011-006-HC.jpg,1000,dash,O,z,646,12,1,26592.5,255786.80000001192,7709,ATS,B,11
11,test,1,B,mfborder.png,0,z,Mon Nov 24 2025 15:50:35 GMT-0600 (Central Standard Time),285311.5,CFD-BF-035-007-HC.jpg,1400,dash,O,None,1515,7,1,29524.69999998808,255786.80000001192,7709,ATS,B,12
11,test,1,B,mfborder.png,0,z,Mon Nov 24 2025 15:50:35 GMT-0600 (Central Standard Time),287210.5,CFD-BF-051-043-A.jpg,1000,dash,O,m,873,4,1,31423.69999998808,255786.80000001192,7709,ATS,B,13
12,test,1,B,mfborder.png,1,m,Mon Nov 24 2025 15:50:35 GMT-0600 (Central Standard Time),289259.6999999881,CFD-WM-037-060-A.jpg,1200,dash,O,m,830,6,1,33472.89999997616,255786.80000001192,7709,ATS,B,14
13,test,1,B,mfborder.png,1,z,Mon Nov 24 2025 15:50:35 GMT-0600 (Central Standard Time),291509.40000000596,CFD-BF-027-013-HC.jpg,1500,dash,O,z,726,3,1,35722.59999999404,255786.80000001192,7709,ATS,B,15
14,test,1,B,mfborder.png,1,m,Mon Nov 24 2025 15:50:35 GMT-0600 (Central Standard Time),293959.40000000596,CFD-WM-009-009-A.jpg,1700,dash,O,m,727,9,1,38172.59999999404,255786.80000001192,7709,ATS,B,16
15,test,1,B,mfborder.png,1,z,Mon Nov 24 2025 15:50:35 GMT-0600 (Central Standard Time),296424.5,CFD-WF-026-008-A.jpg,1500,dash,O,z,934,11,1,40637.69999998808,255786.80000001192,7709,ATS,B,17
16,test,1,B,mfborder.png,1,z,Mon Nov 24 2025 15:50:35 GMT-0600 (Central Standard Time),298140.5,CFD-BF-051-043-A.jpg,1000,dash,O,z,667,4,1,42353.69999998808,255786.80000001192,7709,ATS,B,18
17,test,1,B,mfborder.png,1,z,Mon Nov 24 2025 15:50:35 GMT-0600 (Central Standard Time),300373.0,CFD-WF-026-008-A.jpg,1500,dash,O,z,711,11,1,44586.19999998808,255786.80000001192,7709,ATS,B,19
18,test,1,B,mfborder.png,1,m,Mon Nov 24 2025 15:50:35 GMT-0600 (Central Standard Time),302706.09999999404,CFD-BM-041-048-A.jpg,1600,dash,O,m,706,2,1,46919.29999998212,255786.80000001192,7709,ATS,B,20
19,test,1,B,mfborder.png,1,m,Mon Nov 24 2025 15:50:35 GMT-0600 (Central Standard Time),305471.59999999404,CFD-BM-037-041-A.jpg,2000,dash,O,m,734,5,1,49684.79999998212,255786.80000001192,7709,ATS,B,21
20,test,1,B,mfborder.png,1,m,Mon Nov 24 2025 15:50:35 GMT-0600 (Central Standard Time),307773.0,CFD-BM-041-048-A.jpg,1600,dash,O,m,672,2,1,51986.19999998808,255786.80000001192,7709,ATS,B,22
21,test,1,B,mfborder.png,1,z,Mon Nov 24 2025 15:50:35 GMT-0600 (Central Standard Time),310086.90000000596,CFD-BF-035-007-HC.jpg,1400,dash,O,z,893,7,1,54300.09999999404,255786.80000001192,7709,ATS,B,23
22,test,1,B,mfborder.png,1,m,Mon Nov 24 2025 15:50:35 GMT-0600 (Central Standard Time),312520.40000000596,CFD-WM-012-007-HC.jpg,1600,dash,O,m,808,10,1,56733.59999999404,255786.80000001192,7709,ATS,B,24
0,7,1,C,haborder.png,0,z,Mon Nov 24 2025 15:50:35 GMT-0600 (Central Standard Time),360719.6999999881,CFD-BF-051-043-A.jpg,1900,dash,O,None,1514,prac,1,4195.799999982119,356523.90000000596,7709,ATS,B,1
1,12,1,C,haborder.png,1,m,Mon Nov 24 2025 15:50:35 GMT-0600 (Central Standard Time),363937.3000000119,CFD-WM-011-006-HC.jpg,1400,solid,O,m,1032,prac,1,7413.4000000059605,356523.90000000596,7709,ATS,B,2
2,2,1,C,mfborder.png,1,z,Mon Nov 24 2025 15:50:35 GMT-0600 (Central Standard Time),367522.0,CFD-WF-013-015-A.jpg,1500,solid,O,z,1315,prac,1,10998.09999999404,356523.90000000596,7709,ATS,B,3
3,5,1,C,mfborder.png,1,m,Mon Nov 24 2025 15:50:35 GMT-0600 (Central Standard Time),370317.6999999881,CFD-BM-037-041-A.jpg,1200,dash,O,m,809,prac,1,13793.799999982119,356523.90000000596,7709,ATS,B,4
4,10,1,C,haborder.png,1,m,Mon Nov 24 2025 15:50:35 GMT-0600 (Central Standard Time),373817.59999999404,CFD-BM-020-024-HC.jpg,1500,solid,O,m,1207,prac,1,17293.69999998808,356523.90000000596,7709,ATS,B,5
4,9,1,C,haborder.png,0,z,Mon Nov 24 2025 15:50:35 GMT-0600 (Central Standard Time),377698.59999999404,CFD-WF-026-008-A.jpg,1600,dash,O,None,1501,prac,1,21174.69999998808,356523.90000000596,7709,ATS,B,6
5,3,1,C,mfborder.png,1,z,Mon Nov 24 2025 15:50:35 GMT-0600 (Central Standard Time),380448.6999999881,CFD-BF-035-007-HC.jpg,1000,dash,O,z,957,prac,1,23924.79999998212,356523.90000000596,7709,ATS,B,7
5,8,1,C,haborder.png,0,z,Mon Nov 24 2025 15:50:35 GMT-0600 (Central Standard Time),384447.8000000119,CFD-BF-050-012-A.jpg,1700,solid,O,None,1516,prac,1,27923.90000000596,356523.90000000596,7709,ATS,B,8
5,11,1,C,haborder.png,0,m,Mon Nov 24 2025 15:50:35 GMT-0600 (Central Standard Time),387746.40000000596,CFD-WM-011-006-HC.jpg,1000,dash,O,None,1517,prac,1,31222.5,356523.90000000596,7709,ATS,B,9
5,6,1,C,mfborder.png,0,m,Mon Nov 24 2025 15:50:35 GMT-0600 (Central Standard Time),391729.40000000596,CFD-WM-009-009-A.jpg,1700,solid,O,None,1514,prac,1,35205.5,356523.90000000596,7709,ATS,B,10
5,4,1,C,mfborder.png,0,m,Mon Nov 24 2025 15:50:35 GMT-0600 (Central Standard Time),396026.6999999881,CFD-BM-015-017-HC.jpg,2000,solid,O,None,1513,prac,1,39502.79999998212,356523.90000000596,7709,ATS,B,11
6,1,1,C,mfborder.png,1,z,Mon Nov 24 2025 15:50:35 GMT-0600 (Central Standard Time),399508.3000000119,CFD-WF-011-006-HC.jpg,1600,dash,O,z,1085,prac,1,42984.40000000596,356523.90000000596,7709,ATS,B,12
0,7,2,C,haborder.png,0,z,Mon Nov 24 2025 15:50:35 GMT-0600 (Central Standard Time),408405.8000000119,CFD-BF-051-043-A.jpg,1900,dash,O,None,1515,prac,1,51881.90000000596,356523.90000000596,7709,ATS,B,1
1,3,2,C,mfborder.png,1,z,Mon Nov 24 2025 15:50:35 GMT-0600 (Central Standard Time),411537.90000000596,CFD-BF-035-007-HC.jpg,1000,dash,O,z,1339,prac,1,55014.0,356523.90000000596,7709,ATS,B,2
1,4,2,C,mfborder.png,0,m,Mon Nov 24 2025 15:50:35 GMT-0600 (Central Standard Time),415852.8000000119,CFD-BM-015-017-HC.jpg,2000,solid,O,None,1517,prac,1,59328.90000000596,356523.90000000596,7709,ATS,B,3
1,11,2,C,haborder.png,0,m,Mon Nov 24 2025 15:50:35 GMT-0600 (Central Standard Time),419152.59999999404,CFD-WM-011-006-HC.jpg,1000,dash,O,None,1515,prac,1,62628.69999998808,356523.90000000596,7709,ATS,B,4
1,5,2,C,mfborder.png,0,m,Mon Nov 24 2025 15:50:35 GMT-0600 (Central Standard Time),422051.09999999404,CFD-BM-037-041-A.jpg,1200,dash,O,z,903,prac,1,65527.19999998808,356523.90000000596,7709,ATS,B,5
2,2,2,C,mfborder.png,1,z,Mon Nov 24 2025 15:50:35 GMT-0600 (Central Standard Time),425483.8000000119,CFD-WF-013-015-A.jpg,1500,solid,O,z,1135,prac,1,68959.90000000596,356523.90000000596,7709,ATS,B,6
3,1,2,C,mfborder.png,1,z,Mon Nov 24 2025 15:50:35 GMT-0600 (Central Standard Time),429084.40000000596,CFD-WF-011-006-HC.jpg,1600,dash,O,z,1221,prac,1,72560.5,356523.90000000596,7709,ATS,B,7
3,8,2,C,haborder.png,0,z,Mon Nov 24 2025 15:50:35 GMT-0600 (Central Standard Time),432498.1999999881,CFD-BF-050-012-A.jpg,1700,solid,O,m,922,prac,1,75974.29999998212,356523.90000000596,7709,ATS,B,8
3,10,2,C,haborder.png,0,m,Mon Nov 24 2025 15:50:35 GMT-0600 (Central Standard Time),436298.0,CFD-BM-020-024-HC.jpg,1500,solid,O,None,1515,prac,1,79774.09999999404,356523.90000000596,7709,ATS,B,9
3,12,2,C,haborder.png,0,m,Mon Nov 24 2025 15:50:35 GMT-0600 (Central Standard Time),439562.3000000119,CFD-WM-011-006-HC.jpg,1400,solid,O,z,1077,prac,1,83038.40000000596,356523.90000000596,7709,ATS,B,10
3,6,2,C,mfborder.png,0,m,Mon Nov 24 2025 15:50:35 GMT-0600 (Central Standard Time),443562.5,CFD-WM-009-009-A.jpg,1700,solid,O,None,1516,prac,1,87038.59999999404,356523.90000000596,7709,ATS,B,11
3,9,2,C,haborder.png,0,z,Mon Nov 24 2025 15:50:35 GMT-0600 (Central Standard Time),447359.1999999881,CFD-WF-026-008-A.jpg,1600,dash,O,m,1417,prac,1,90835.29999998212,356523.90000000596,7709,ATS,B,12
0,5,3,C,mfborder.png,0,m,Mon Nov 24 2025 15:50:35 GMT-0600 (Central Standard Time),457540.90000000596,CFD-BM-037-041-A.jpg,1200,dash,O,None,1516,prac,1,101017.0,356523.90000000596,7709,ATS,B,1
1,10,3,C,haborder.png,1,m,Mon Nov 24 2025 15:50:35 GMT-0600 (Central Standard Time),459827.8000000119,CFD-BM-020-024-HC.jpg,1500,solid,O,m,6,prac,1,103303.90000000596,356523.90000000596,7709,ATS,B,2
1,12,3,C,haborder.png,0,m,Mon Nov 24 2025 15:50:35 GMT-0600 (Central Standard Time),463522.90000000596,CFD-WM-011-006-HC.jpg,1400,solid,O,None,1516,prac,1,106999.0,356523.90000000596,7709,ATS,B,3
1,4,3,C,mfborder.png,0,m,Mon Nov 24 2025 15:50:35 GMT-0600 (Central Standard Time),467819.90000000596,CFD-BM-015-017-HC.jpg,2000,solid,O,None,1516,prac,1,111296.0,356523.90000000596,7709,ATS,B,4
1,7,3,C,haborder.png,0,z,Mon Nov 24 2025 15:50:35 GMT-0600 (Central Standard Time),472019.6999999881,CFD-BF-051-043-A.jpg,1900,dash,O,None,1517,prac,1,115495.79999998212,356523.90000000596,7709,ATS,B,5
2,11,3,C,haborder.png,1,m,Mon Nov 24 2025 15:50:35 GMT-0600 (Central Standard Time),475068.6999999881,CFD-WM-011-006-HC.jpg,1000,dash,O,m,1276,prac,1,118544.79999998212,356523.90000000596,7709,ATS,B,6
3,3,3,C,mfborder.png,1,z,Mon Nov 24 2025 15:50:35 GMT-0600 (Central Standard Time),477650.90000000596,CFD-BF-035-007-HC.jpg,1000,dash,O,z,787,prac,1,121127.0,356523.90000000596,7709,ATS,B,7
3,8,3,C,haborder.png,0,z,Mon Nov 24 2025 15:50:35 GMT-0600 (Central Standard Time),481585.40000000596,CFD-BF-050-012-A.jpg,1700,solid,O,m,1465,prac,1,125061.5,356523.90000000596,7709,ATS,B,8
4,6,3,C,mfborder.png,1,m,Mon Nov 24 2025 15:50:35 GMT-0600 (Central Standard Time),485482.5,CFD-WM-009-009-A.jpg,1700,solid,O,m,1428,prac,1,128958.59999999404,356523.90000000596,7709,ATS,B,9
4,1,3,C,mfborder.png,0,z,Mon Nov 24 2025 15:50:35 GMT-0600 (Central Standard Time),489381.1999999881,CFD-WF-011-006-HC.jpg,1600,dash,O,None,1515,prac,1,132857.29999998212,356523.90000000596,7709,ATS,B,10
5,2,3,C,mfborder.png,1,z,Mon Nov 24 2025 15:50:35 GMT-0600 (Central Standard Time),492979.3000000119,CFD-WF-013-015-A.jpg,1500,solid,O,z,1311,prac,1,136455.40000000596,356523.90000000596,7709,ATS,B,11
6,9,3,C,haborder.png,1,z,Mon Nov 24 2025 15:50:35 GMT-0600 (Central Standard Time),496661.0,CFD-WF-026-008-A.jpg,1600,dash,O,z,1277,prac,1,140137.09999999404,356523.90000000596,7709,ATS,B,12
1,test,1,C,mfborder.png,1,m,Mon Nov 24 2025 15:50:35 GMT-0600 (Central Standard Time),539247.900000006,CFD-WM-037-060-A.jpg,2000,dash,O,m,957,5,1,2981.2000000178814,536266.6999999881,7709,ATS,B,1
1,test,1,C,mfborder.png,0,z,Mon Nov 24 2025 15:50:35 GMT-0600 (Central Standard Time),542281.0,CFD-WF-026-008-A.jpg,1500,dash,O,None,1516,3,1,6014.300000011921,536266.6999999881,7709,ATS,B,2
2,test,1,C,mfborder.png,1,m,Mon Nov 24 2025 15:50:35 GMT-0600 (Central Standard Time),544411.8000000119,CFD-BM-020-024-HC.jpg,1200,dash,O,m,903,6,1,8145.100000023842,536266.6999999881,7709,ATS,B,3
3,test,1,C,mfborder.png,1,m,Mon Nov 24 2025 15:50:35 GMT-0600 (Central Standard Time),546244.3000000119,CFD-WM-012-007-HC.jpg,1000,dash,O,m,811,4,1,9977.600000023842,536266.6999999881,7709,ATS,B,4
3,test,1,C,haborder.png,0,m,Mon Nov 24 2025 15:50:35 GMT-0600 (Central Standard Time),548777.6999999881,CFD-WF-011-006-HC.jpg,1000,solid,O,None,1516,12,1,12511.0,536266.6999999881,7709,ATS,B,5
4,test,1,C,haborder.png,1,m,Mon Nov 24 2025 15:50:35 GMT-0600 (Central Standard Time),551143.400000006,CFD-WF-027-007-HC.jpg,1500,solid,O,m,834,11,1,14876.700000017881,536266.6999999881,7709,ATS,B,6
5,test,1,C,haborder.png,1,z,Mon Nov 24 2025 15:50:35 GMT-0600 (Central Standard Time),553510.3000000119,CFD-WM-009-009-A.jpg,1400,solid,O,z,936,7,1,17243.600000023842,536266.6999999881,7709,ATS,B,7
6,test,1,C,mfborder.png,1,z,Mon Nov 24 2025 15:50:35 GMT-0600 (Central Standard Time),556393.8000000119,CFD-BF-027-013-HC.jpg,1700,dash,O,z,1158,1,1,20127.100000023842,536266.6999999881,7709,ATS,B,8
6,test,1,C,haborder.png,0,m,Mon Nov 24 2025 15:50:35 GMT-0600 (Central Standard Time),559491.0,CFD-BF-035-007-HC.jpg,1600,solid,O,z,1482,10,1,23224.30000001192,536266.6999999881,7709,ATS,B,9
6,test,1,C,haborder.png,0,m,Mon Nov 24 2025 15:50:35 GMT-0600 (Central Standard Time),562024.599999994,CFD-WF-027-007-HC.jpg,1500,solid,O,z,1016,11,1,25757.90000000596,536266.6999999881,7709,ATS,B,10
6,test,1,C,mfborder.png,0,z,Mon Nov 24 2025 15:50:35 GMT-0600 (Central Standard Time),564472.900000006,CFD-BF-051-043-A.jpg,1600,dash,O,m,817,2,1,28206.20000001788,536266.6999999881,7709,ATS,B,11
6,test,1,C,haborder.png,0,z,Mon Nov 24 2025 15:50:35 GMT-0600 (Central Standard Time),567705.0,CFD-BM-041-048-A.jpg,1700,solid,O,None,1516,9,1,31438.30000001192,536266.6999999881,7709,ATS,B,12
7,test,1,C,mfborder.png,1,z,Mon Nov 24 2025 15:50:35 GMT-0600 (Central Standard Time),570587.900000006,CFD-BF-027-013-HC.jpg,1700,dash,O,z,1165,1,1,34321.20000001788,536266.6999999881,7709,ATS,B,13
7,test,1,C,haborder.png,0,z,Mon Nov 24 2025 15:50:35 GMT-0600 (Central Standard Time),573337.5,CFD-WM-009-009-A.jpg,1400,solid,O,m,1333,7,1,37070.80000001192,536266.6999999881,7709,ATS,B,14
7,test,1,C,mfborder.png,0,z,Mon Nov 24 2025 15:50:35 GMT-0600 (Central Standard Time),576355.5,CFD-WF-026-008-A.jpg,1500,dash,O,None,1502,3,1,40088.80000001192,536266.6999999881,7709,ATS,B,15
7,test,1,C,haborder.png,0,z,Mon Nov 24 2025 15:50:35 GMT-0600 (Central Standard Time),579285.0,CFD-BM-037-041-A.jpg,1900,solid,O,m,1012,8,1,43018.30000001192,536266.6999999881,7709,ATS,B,16
7,test,1,C,mfborder.png,0,m,Mon Nov 24 2025 15:50:35 GMT-0600 (Central Standard Time),582017.1999999881,CFD-BM-020-024-HC.jpg,1200,dash,O,None,1516,6,1,45750.5,536266.6999999881,7709,ATS,B,17
7,test,1,C,haborder.png,0,z,Mon Nov 24 2025 15:50:35 GMT-0600 (Central Standard Time),585216.400000006,CFD-BM-041-048-A.jpg,1700,solid,O,m,1474,9,1,48949.70000001788,536266.6999999881,7709,ATS,B,18
7,test,1,C,haborder.png,0,m,Mon Nov 24 2025 15:50:35 GMT-0600 (Central Standard Time),588348.8000000119,CFD-BF-035-007-HC.jpg,1600,solid,O,None,1516,10,1,52082.10000002384,536266.6999999881,7709,ATS,B,19
7,test,1,C,mfborder.png,0,m,Mon Nov 24 2025 15:50:35 GMT-0600 (Central Standard Time),590881.0,CFD-WM-012-007-HC.jpg,1000,dash,O,None,1516,4,1,54614.30000001192,536266.6999999881,7709,ATS,B,20
7,test,1,C,mfborder.png,0,z,Mon Nov 24 2025 15:50:35 GMT-0600 (Central Standard Time),593447.8000000119,CFD-BF-051-043-A.jpg,1600,dash,O,m,934,2,1,57181.10000002384,536266.6999999881,7709,ATS,B,21
7,test,1,C,mfborder.png,0,m,Mon Nov 24 2025 15:50:35 GMT-0600 (Central Standard Time),596978.599999994,CFD-WM-037-060-A.jpg,2000,dash,O,None,1516,5,1,60711.90000000596,536266.6999999881,7709,ATS,B,22
8,test,1,C,haborder.png,1,z,Mon Nov 24 2025 15:50:35 GMT-0600 (Central Standard Time),600295.6999999881,CFD-BM-037-041-A.jpg,1900,solid,O,z,1386,8,1,64029.0,536266.6999999881,7709,ATS,B,23
9,test,1,C,haborder.png,1,m,Mon Nov 24 2025 15:50:35 GMT-0600 (Central Standard Time),602044.099999994,CFD-WF-011-006-HC.jpg,1000,solid,O,m,718,12,1,65777.40000000596,536266.6999999881,7709,ATS,B,24
0,test,2,C,haborder.png,0,z,Mon Nov 24 2025 15:50:35 GMT-0600 (Central Standard Time),608225.3000000119,CFD-BF-050-012-A.jpg,1900,solid,O,None,1514,8,1,3433.4000000059605,604791.900000006,7709,ATS,B,1
0,test,2,C,mfborder.png,0,z,Mon Nov 24 2025 15:50:35 GMT-0600 (Central Standard Time),611258.099999994,CFD-BF-035-007-HC.jpg,1500,dash,O,None,1515,3,1,6466.199999988079,604791.900000006,7709,ATS,B,2
0,test,2,C,haborder.png,0,z,Mon Nov 24 2025 15:50:35 GMT-0600 (Central Standard Time),614489.8000000119,CFD-WF-026-008-A.jpg,1700,solid,O,None,1515,9,1,9697.90000000596,604791.900000006,7709,ATS,B,3
1,test,2,C,mfborder.png,1,m,Mon Nov 24 2025 15:50:35 GMT-0600 (Central Standard Time),617108.900000006,CFD-WM-009-009-A.jpg,1200,dash,O,m,1401,6,1,12317.0,604791.900000006,7709,ATS,B,4
2,test,2,C,haborder.png,1,m,Mon Nov 24 2025 15:50:35 GMT-0600 (Central Standard Time),619488.900000006,CFD-BM-020-024-HC.jpg,1600,solid,O,m,759,10,1,14697.0,604791.900000006,7709,ATS,B,5
3,test,2,C,mfborder.png,1,z,Mon Nov 24 2025 15:50:35 GMT-0600 (Central Standard Time),622171.5,CFD-BF-035-007-HC.jpg,1500,dash,O,z,1166,3,1,17379.59999999404,604791.900000006,7709,ATS,B,6
4,test,2,C,haborder.png,1,m,Mon Nov 24 2025 15:50:35 GMT-0600 (Central Standard Time),624688.0,CFD-WM-011-006-HC.jpg,1500,solid,O,m,982,11,1,19896.09999999404,604791.900000006,7709,ATS,B,7
5,test,2,C,haborder.png,1,m,Mon Nov 24 2025 15:50:35 GMT-0600 (Central Standard Time),627205.1999999881,CFD-BM-020-024-HC.jpg,1600,solid,O,m,900,10,1,22413.29999998212,604791.900000006,7709,ATS,B,8
6,test,2,C,haborder.png,1,z,Mon Nov 24 2025 15:50:35 GMT-0600 (Central Standard Time),630118.5,CFD-BF-050-012-A.jpg,1900,solid,O,z,993,8,1,25326.59999999404,604791.900000006,7709,ATS,B,9
7,test,2,C,haborder.png,1,m,Mon Nov 24 2025 15:50:35 GMT-0600 (Central Standard Time),632884.3000000119,CFD-WM-011-006-HC.jpg,1500,solid,O,m,1245,11,1,28092.40000000596,604791.900000006,7709,ATS,B,10
8,test,2,C,mfborder.png,1,m,Mon Nov 24 2025 15:50:35 GMT-0600 (Central Standard Time),635134.099999994,CFD-WM-009-009-A.jpg,1200,dash,O,m,1020,6,1,30342.19999998808,604791.900000006,7709,ATS,B,11
8,test,2,C,mfborder.png,0,z,Mon Nov 24 2025 15:50:35 GMT-0600 (Central Standard Time),638265.8000000119,CFD-WF-013-015-A.jpg,1600,dash,O,None,1515,2,1,33473.90000000596,604791.900000006,7709,ATS,B,12
8,test,2,C,haborder.png,0,m,Mon Nov 24 2025 15:50:35 GMT-0600 (Central Standard Time),640781.8000000119,CFD-WM-011-006-HC.jpg,1000,solid,O,None,1510,12,1,35989.90000000596,604791.900000006,7709,ATS,B,13
8,test,2,C,mfborder.png,0,m,Mon Nov 24 2025 15:50:35 GMT-0600 (Central Standard Time),644314.0,CFD-BM-037-041-A.jpg,2000,dash,O,None,1517,5,1,39522.09999999404,604791.900000006,7709,ATS,B,14
8,test,2,C,haborder.png,0,z,Mon Nov 24 2025 15:50:35 GMT-0600 (Central Standard Time),647246.1999999881,CFD-BF-051-043-A.jpg,1400,solid,O,None,1515,7,1,42454.29999998212,604791.900000006,7709,ATS,B,15
9,test,2,C,mfborder.png,1,m,Mon Nov 24 2025 15:50:35 GMT-0600 (Central Standard Time),648794.8000000119,CFD-BM-015-017-HC.jpg,1000,dash,O,m,521,4,1,44002.90000000596,604791.900000006,7709,ATS,B,16
10,test,2,C,mfborder.png,1,z,Mon Nov 24 2025 15:50:35 GMT-0600 (Central Standard Time),651478.599999994,CFD-WF-013-015-A.jpg,1600,dash,O,z,1059,2,1,46686.69999998808,604791.900000006,7709,ATS,B,17
11,test,2,C,haborder.png,1,z,Mon Nov 24 2025 15:50:35 GMT-0600 (Central Standard Time),654194.900000006,CFD-WF-026-008-A.jpg,1700,solid,O,z,1000,9,1,49403.0,604791.900000006,7709,ATS,B,18
12,test,2,C,haborder.png,1,z,Mon Nov 24 2025 15:50:35 GMT-0600 (Central Standard Time),656693.1999999881,CFD-BF-051-043-A.jpg,1400,solid,O,z,1070,7,1,51901.29999998212,604791.900000006,7709,ATS,B,19
13,test,2,C,haborder.png,1,m,Mon Nov 24 2025 15:50:35 GMT-0600 (Central Standard Time),658876.900000006,CFD-WM-011-006-HC.jpg,1000,solid,O,m,1163,12,1,54085.0,604791.900000006,7709,ATS,B,20
14,test,2,C,mfborder.png,1,z,Mon Nov 24 2025 15:50:35 GMT-0600 (Central Standard Time),661959.900000006,CFD-WF-011-006-HC.jpg,1700,dash,O,z,1351,1,1,57168.0,604791.900000006,7709,ATS,B,21
15,test,2,C,mfborder.png,1,z,Mon Nov 24 2025 15:50:35 GMT-0600 (Central Standard Time),664540.400000006,CFD-WF-011-006-HC.jpg,1700,dash,O,z,852,1,1,59748.5,604791.900000006,7709,ATS,B,22
16,test,2,C,mfborder.png,1,m,Mon Nov 24 2025 15:50:35 GMT-0600 (Central Standard Time),667606.0,CFD-BM-037-041-A.jpg,2000,dash,O,m,1036,5,1,62814.09999999404,604791.900000006,7709,ATS,B,23
17,test,2,C,mfborder.png,1,m,Mon Nov 24 2025 15:50:35 GMT-0600 (Central Standard Time),669339.099999994,CFD-BM-015-017-HC.jpg,1000,dash,O,m,706,4,1,64547.19999998808,604791.900000006,7709,ATS,B,24
1,test,3,C,mfborder.png,1,m,Mon Nov 24 2025 15:50:35 GMT-0600 (Central Standard Time),675953.1999999881,CFD-WM-037-060-A.jpg,2000,dash,O,m,862,5,1,2881.5,673071.6999999881,7709,ATS,B,1
2,test,3,C,mfborder.png,1,m,Mon Nov 24 2025 15:50:35 GMT-0600 (Central Standard Time),677670.3000000119,CFD-WM-012-007-HC.jpg,1000,dash,O,m,685,4,1,4598.600000023842,673071.6999999881,7709,ATS,B,2
2,test,3,C,haborder.png,0,m,Mon Nov 24 2025 15:50:35 GMT-0600 (Central Standard Time),679869.099999994,CFD-WF-011-006-HC.jpg,1000,solid,O,z,1178,12,1,6797.4000000059605,673071.6999999881,7709,ATS,B,3
2,test,3,C,haborder.png,0,z,Mon Nov 24 2025 15:50:35 GMT-0600 (Central Standard Time),682797.0,CFD-WM-009-009-A.jpg,1400,solid,O,None,1502,7,1,9725.300000011921,673071.6999999881,7709,ATS,B,4
3,test,3,C,haborder.png,1,z,Mon Nov 24 2025 15:50:35 GMT-0600 (Central Standard Time),685633.900000006,CFD-BM-037-041-A.jpg,1900,solid,O,z,924,8,1,12562.200000017881,673071.6999999881,7709,ATS,B,5
4,test,3,C,mfborder.png,1,m,Mon Nov 24 2025 15:50:35 GMT-0600 (Central Standard Time),687749.900000006,CFD-BM-020-024-HC.jpg,1200,dash,O,m,884,6,1,14678.200000017881,673071.6999999881,7709,ATS,B,6
4,test,3,C,haborder.png,0,m,Mon Nov 24 2025 15:50:35 GMT-0600 (Central Standard Time),690482.1999999881,CFD-BF-035-007-HC.jpg,1600,solid,O,z,1114,10,1,17410.5,673071.6999999881,7709,ATS,B,7
4,test,3,C,mfborder.png,0,z,Mon Nov 24 2025 15:50:35 GMT-0600 (Central Standard Time),693615.5,CFD-BF-051-043-A.jpg,1600,dash,O,None,1516,2,1,20543.80000001192,673071.6999999881,7709,ATS,B,8
5,test,3,C,mfborder.png,1,z,Mon Nov 24 2025 15:50:35 GMT-0600 (Central Standard Time),696363.8000000119,CFD-WF-026-008-A.jpg,1500,dash,O,z,1228,3,1,23292.100000023842,673071.6999999881,7709,ATS,B,9
6,test,3,C,haborder.png,1,m,Mon Nov 24 2025 15:50:35 GMT-0600 (Central Standard Time),699130.900000006,CFD-WF-027-007-HC.jpg,1500,solid,O,m,1248,11,1,26059.20000001788,673071.6999999881,7709,ATS,B,10
7,test,3,C,mfborder.png,1,m,Mon Nov 24 2025 15:50:35 GMT-0600 (Central Standard Time),702080.8000000119,CFD-WM-037-060-A.jpg,2000,dash,O,m,933,5,1,29009.100000023842,673071.6999999881,7709,ATS,B,11
7,test,3,C,haborder.png,0,m,Mon Nov 24 2025 15:50:35 GMT-0600 (Central Standard Time),704778.099999994,CFD-BF-035-007-HC.jpg,1600,solid,O,z,1072,10,1,31706.40000000596,673071.6999999881,7709,ATS,B,12
7,test,3,C,haborder.png,0,z,Mon Nov 24 2025 15:50:35 GMT-0600 (Central Standard Time),707761.0,CFD-BM-041-048-A.jpg,1700,solid,O,m,1266,9,1,34689.30000001192,673071.6999999881,7709,ATS,B,13
7,test,3,C,mfborder.png,0,z,Mon Nov 24 2025 15:50:35 GMT-0600 (Central Standard Time),710892.6999999881,CFD-BF-051-043-A.jpg,1600,dash,O,None,1515,2,1,37821.0,673071.6999999881,7709,ATS,B,14
7,test,3,C,mfborder.png,0,m,Mon Nov 24 2025 15:50:35 GMT-0600 (Central Standard Time),713426.6999999881,CFD-WM-012-007-HC.jpg,1000,dash,O,None,1516,4,1,40355.0,673071.6999999881,7709,ATS,B,15
8,test,3,C,mfborder.png,1,z,Mon Nov 24 2025 15:50:35 GMT-0600 (Central Standard Time),715224.6999999881,CFD-BF-027-013-HC.jpg,1700,dash,O,z,75,1,1,42153.0,673071.6999999881,7709,ATS,B,16
8,test,3,C,haborder.png,0,z,Mon Nov 24 2025 15:50:35 GMT-0600 (Central Standard Time),716707.3000000119,CFD-WM-009-009-A.jpg,1400,solid,O,m,55,7,1,43635.60000002384,673071.6999999881,7709,ATS,B,17
8,test,3,C,haborder.png,0,m,Mon Nov 24 2025 15:50:35 GMT-0600 (Central Standard Time),719240.5,CFD-WF-011-006-HC.jpg,1000,solid,O,None,1514,12,1,46168.80000001192,673071.6999999881,7709,ATS,B,18
9,test,3,C,haborder.png,1,m,Mon Nov 24 2025 15:50:35 GMT-0600 (Central Standard Time),721589.5,CFD-WF-027-007-HC.jpg,1500,solid,O,m,819,11,1,48517.80000001192,673071.6999999881,7709,ATS,B,19
9,test,3,C,haborder.png,0,z,Mon Nov 24 2025 15:50:35 GMT-0600 (Central Standard Time),724223.400000006,CFD-BM-041-048-A.jpg,1700,solid,O,m,909,9,1,51151.70000001788,673071.6999999881,7709,ATS,B,20
10,test,3,C,mfborder.png,1,m,Mon Nov 24 2025 15:50:35 GMT-0600 (Central Standard Time),726607.099999994,CFD-BM-020-024-HC.jpg,1200,dash,O,m,1166,6,1,53535.40000000596,673071.6999999881,7709,ATS,B,21
11,test,3,C,mfborder.png,1,z,Mon Nov 24 2025 15:50:35 GMT-0600 (Central Standard Time),729236.599999994,CFD-WF-026-008-A.jpg,1500,dash,O,z,1110,3,1,56164.90000000596,673071.6999999881,7709,ATS,B,22
11,test,3,C,haborder.png,0,z,Mon Nov 24 2025 15:50:35 GMT-0600 (Central Standard Time),732369.5,CFD-BM-037-041-A.jpg,1900,solid,O,m,1199,8,1,59297.80000001192,673071.6999999881,7709,ATS,B,23
11,test,3,C,mfborder.png,0,z,Mon Nov 24 2025 15:50:35 GMT-0600 (Central Standard Time),735601.5,CFD-BF-027-013-HC.jpg,1700,dash,O,None,1517,1,1,62529.80000001192,673071.6999999881,7709,ATS,B,24
0,test,4,C,haborder.png,0,z,Mon Nov 24 2025 15:50:35 GMT-0600 (Central Standard Time),743398.3000000119,CFD-BF-050-012-A.jpg,1900,solid,O,m,1319,8,1,3247.800000011921,740150.5,7709,ATS,B,1
1,test,4,C,haborder.png,1,z,Mon Nov 24 2025 15:50:35 GMT-0600 (Central Standard Time),746581.0,CFD-BF-050-012-A.jpg,1900,solid,O,z,1252,8,1,6430.5,740150.5,7709,ATS,B,2
2,test,4,C,haborder.png,1,m,Mon Nov 24 2025 15:50:35 GMT-0600 (Central Standard Time),749431.900000006,CFD-WM-011-006-HC.jpg,1500,solid,O,m,1316,11,1,9281.40000000596,740150.5,7709,ATS,B,3
3,test,4,C,haborder.png,1,z,Mon Nov 24 2025 15:50:35 GMT-0600 (Central Standard Time),752012.1999999881,CFD-BF-051-043-A.jpg,1400,solid,O,z,1153,7,1,11861.699999988079,740150.5,7709,ATS,B,4
3,test,4,C,mfborder.png,0,z,Mon Nov 24 2025 15:50:35 GMT-0600 (Central Standard Time),755046.6999999881,CFD-BF-035-007-HC.jpg,1500,dash,O,None,1516,3,1,14896.199999988079,740150.5,7709,ATS,B,5
4,test,4,C,haborder.png,1,m,Mon Nov 24 2025 15:50:35 GMT-0600 (Central Standard Time),757243.6999999881,CFD-WM-011-006-HC.jpg,1000,solid,O,m,1179,12,1,17093.19999998808,740150.5,7709,ATS,B,6
4,test,4,C,mfborder.png,0,m,Mon Nov 24 2025 15:50:35 GMT-0600 (Central Standard Time),759995.5,CFD-WM-009-009-A.jpg,1200,dash,O,None,1516,6,1,19845.0,740150.5,7709,ATS,B,7
4,test,4,C,mfborder.png,0,z,Mon Nov 24 2025 15:50:35 GMT-0600 (Central Standard Time),763026.099999994,CFD-BF-035-007-HC.jpg,1500,dash,O,None,1514,3,1,22875.59999999404,740150.5,7709,ATS,B,8
4,test,4,C,haborder.png,0,m,Mon Nov 24 2025 15:50:35 GMT-0600 (Central Standard Time),766159.400000006,CFD-BM-020-024-HC.jpg,1600,solid,O,None,1516,10,1,26008.90000000596,740150.5,7709,ATS,B,9
5,test,4,C,mfborder.png,1,z,Mon Nov 24 2025 15:50:35 GMT-0600 (Central Standard Time),769157.0,CFD-WF-011-006-HC.jpg,1700,dash,O,z,1279,1,1,29006.5,740150.5,7709,ATS,B,10
6,test,4,C,mfborder.png,1,m,Mon Nov 24 2025 15:50:35 GMT-0600 (Central Standard Time),772274.3000000119,CFD-BM-037-041-A.jpg,2000,dash,O,m,1090,5,1,32123.80000001192,740150.5,7709,ATS,B,11
7,test,4,C,mfborder.png,1,z,Mon Nov 24 2025 15:50:35 GMT-0600 (Central Standard Time),775023.1999999881,CFD-WF-013-015-A.jpg,1600,dash,O,z,1129,2,1,34872.69999998808,740150.5,7709,ATS,B,12
8,test,4,C,haborder.png,1,z,Mon Nov 24 2025 15:50:35 GMT-0600 (Central Standard Time),777804.599999994,CFD-BF-051-043-A.jpg,1400,solid,O,z,1362,7,1,37654.09999999404,740150.5,7709,ATS,B,13
9,test,4,C,haborder.png,1,z,Mon Nov 24 2025 15:50:35 GMT-0600 (Central Standard Time),780521.400000006,CFD-WF-026-008-A.jpg,1700,solid,O,z,992,9,1,40370.90000000596,740150.5,7709,ATS,B,14
10,test,4,C,mfborder.png,1,m,Mon Nov 24 2025 15:50:35 GMT-0600 (Central Standard Time),782919.900000006,CFD-BM-015-017-HC.jpg,1000,dash,O,m,1367,4,1,42769.40000000596,740150.5,7709,ATS,B,15
11,test,4,C,haborder.png,1,m,Mon Nov 24 2025 15:50:35 GMT-0600 (Central Standard Time),785319.400000006,CFD-WM-011-006-HC.jpg,1000,solid,O,m,1369,12,1,45168.90000000596,740150.5,7709,ATS,B,16
11,test,4,C,mfborder.png,0,m,Mon Nov 24 2025 15:50:35 GMT-0600 (Central Standard Time),787901.6999999881,CFD-WM-009-009-A.jpg,1200,dash,O,z,1352,6,1,47751.19999998808,740150.5,7709,ATS,B,17
12,test,4,C,haborder.png,1,m,Mon Nov 24 2025 15:50:35 GMT-0600 (Central Standard Time),790368.5,CFD-WM-011-006-HC.jpg,1500,solid,O,m,941,11,1,50218.0,740150.5,7709,ATS,B,18
12,test,4,C,mfborder.png,0,z,Mon Nov 24 2025 15:50:35 GMT-0600 (Central Standard Time),793349.900000006,CFD-WF-011-006-HC.jpg,1700,dash,O,m,1260,1,1,53199.40000000596,740150.5,7709,ATS,B,19
12,test,4,C,mfborder.png,0,m,Mon Nov 24 2025 15:50:35 GMT-0600 (Central Standard Time),795866.599999994,CFD-BM-015-017-HC.jpg,1000,dash,O,None,1501,4,1,55716.09999999404,740150.5,7709,ATS,B,20
12,test,4,C,mfborder.png,0,m,Mon Nov 24 2025 15:50:35 GMT-0600 (Central Standard Time),799397.8000000119,CFD-BM-037-041-A.jpg,2000,dash,O,None,1516,5,1,59247.30000001192,740150.5,7709,ATS,B,21
13,test,4,C,haborder.png,1,z,Mon Nov 24 2025 15:50:35 GMT-0600 (Central Standard Time),802314.5,CFD-WF-026-008-A.jpg,1700,solid,O,z,1198,9,1,62164.0,740150.5,7709,ATS,B,22
14,test,4,C,mfborder.png,1,z,Mon Nov 24 2025 15:50:35 GMT-0600 (Central Standard Time),805312.6999999881,CFD-WF-013-015-A.jpg,1600,dash,O,z,1381,2,1,65162.19999998808,740150.5,7709,ATS,B,23
15,test,4,C,haborder.png,1,m,Mon Nov 24 2025 15:50:35 GMT-0600 (Central Standard Time),807978.1999999881,CFD-BM-020-024-HC.jpg,1600,solid,O,m,1040,10,1,67827.69999998808,740150.5,7709,ATS,B,24
