acc_sum,block_c,block_dur,condition,correct,correct_response,countdown,datetime,endtime,project,response,response_time,response_time_test1_response,response_time_test2_response,row_sel,same,session_number,start_end,starttime,stim1,stim2,subject_id,task,task_vers,time_test1,time_test2,trial
1,1,0.0,prac,1,z,30000.0,Wed Jul 16 2025 11:48:39 GMT-0400 (Eastern Daylight Time),48541.0,I,z,1150,,,1,yes,3,2679.100000023842,45861.89999997616,practrial1.png,practrial1.png,9005,PC,B,,,1
2,1,0.0,prac,1,m,30000.0,Wed Jul 16 2025 11:48:39 GMT-0400 (Eastern Daylight Time),51457.200000047684,I,m,1373,,,2,no,3,2906.100000023842,48551.10000002384,practrial2.png,practrial2b.png,9005,PC,B,,,2
3,1,0.0,prac,1,m,30000.0,Wed Jul 16 2025 11:48:39 GMT-0400 (Eastern Daylight Time),54590.700000047684,I,m,1593,,,4,no,3,3124.2000000476837,51466.5,practrial4.png,practrial4b.png,9005,PC,B,,,3
4,1,0.0,prac,1,z,30000.0,Wed Jul 16 2025 11:48:39 GMT-0400 (Eastern Daylight Time),57474.0,I,z,1357,,,3,yes,3,2874.600000023842,54599.39999997616,practrial3.png,practrial3.png,9005,PC,B,,,4
5,1,0.0,prac,1,z,30000.0,Wed Jul 16 2025 11:48:39 GMT-0400 (Eastern Daylight Time),60574.200000047684,I,z,1562,,,5,yes,3,3092.3000000715256,57481.89999997616,practrial5.png,practrial5.png,9005,PC,B,,,5
6,1,0.0,prac,1,m,30000.0,Wed Jul 16 2025 11:48:39 GMT-0400 (Eastern Daylight Time),63540.60000002384,I,m,1435,,,6,no,3,2955.2000000476837,60585.39999997616,practrial6.png,practrial6b.png,9005,PC,B,,,6
1,1,1.2339999675750732,test,1,z,28766.000032424927,Wed Jul 16 2025 11:48:39 GMT-0400 (Eastern Daylight Time),76924.5,I,z,1222,1222,,1,yes,3,1230.6000000238419,75693.89999997616,test1trial1.png,test1trial1.png,9005,PC,B,71249,,1
2,1,2.2829999923706055,test,1,m,27717.000007629395,Wed Jul 16 2025 11:48:39 GMT-0400 (Eastern Daylight Time),77973.70000004768,I,m,1036,1036,,2,no,3,1038.1000000238419,76935.60000002384,test1trial2.png,test1trial2b.png,9005,PC,B,72491,,2
3,1,3.7669999599456787,test,1,z,26233.00004005432,Wed Jul 16 2025 11:48:39 GMT-0400 (Eastern Daylight Time),79457.39999997616,I,z,1462,1462,,3,yes,3,1476.6000000238419,77980.79999995232,test1trial3.png,test1trial3.png,9005,PC,B,73537,,3
4,1,4.817999839782715,test,1,m,25182.000160217285,Wed Jul 16 2025 11:48:39 GMT-0400 (Eastern Daylight Time),80508.60000002384,I,m,1032,1032,,4,no,3,1042.0,79466.60000002384,test1trial4.png,test1trial4b.png,9005,PC,B,75024,,4
5,1,6.266999959945679,test,1,z,23733.00004005432,Wed Jul 16 2025 11:48:39 GMT-0400 (Eastern Daylight Time),81957.89999997616,I,z,1444,1444,,5,yes,3,1445.7999999523163,80512.10000002384,test1trial5.png,test1trial5.png,9005,PC,B,76067,,5
6,1,7.432999849319458,test,1,m,22567.000150680542,Wed Jul 16 2025 11:48:39 GMT-0400 (Eastern Daylight Time),83124.0,I,m,1137,1137,,6,no,3,1156.3999999761581,81967.60000002384,test1trial6.png,test1trial6b.png,9005,PC,B,77525,,6
7,1,8.566999912261963,test,1,z,21433.000087738037,Wed Jul 16 2025 11:48:39 GMT-0400 (Eastern Daylight Time),84257.60000002384,I,z,1112,1112,,7,yes,3,1125.2000000476837,83132.39999997616,test1trial7.png,test1trial7.png,9005,PC,B,78687,,7
7,1,10.016999959945679,test,0,m,19983.00004005432,Wed Jul 16 2025 11:48:39 GMT-0400 (Eastern Daylight Time),85707.39999997616,I,z,1435,1435,,8,no,3,1442.7999999523163,84264.60000002384,test1trial8.png,test1trial8b.png,9005,PC,B,79820,,8
8,1,11.083999872207642,test,1,z,18916.00012779236,Wed Jul 16 2025 11:48:39 GMT-0400 (Eastern Daylight Time),86774.20000004768,I,z,1055,1055,,9,yes,3,1058.3000000715256,85715.89999997616,test1trial9.png,test1trial9.png,9005,PC,B,81272,,9
9,1,12.099999904632568,test,1,m,17900.00009536743,Wed Jul 16 2025 11:48:39 GMT-0400 (Eastern Daylight Time),87790.60000002384,I,m,998,998,,10,no,3,1009.3000000715256,86781.29999995232,test1trial10.png,test1trial10b.png,9005,PC,B,82336,,10
10,1,13.182999849319458,test,1,z,16817.000150680542,Wed Jul 16 2025 11:48:39 GMT-0400 (Eastern Daylight Time),88874.10000002384,I,z,1074,1074,,11,yes,3,1079.8000000715256,87794.29999995232,test1trial11.png,test1trial11.png,9005,PC,B,83349,,11
10,1,14.866999864578247,test,0,m,15133.000135421753,Wed Jul 16 2025 11:48:39 GMT-0400 (Eastern Daylight Time),90557.39999997616,I,z,1661,1661,,12,no,3,1673.5,88883.89999997616,test1trial12.png,test1trial12b.png,9005,PC,B,84442,,12
11,1,16.01699995994568,test,1,m,13983.000040054321,Wed Jul 16 2025 11:48:39 GMT-0400 (Eastern Daylight Time),91707.5,I,m,1135,1135,,13,no,3,1142.7999999523163,90564.70000004768,test1trial13.png,test1trial13b.png,9005,PC,B,86120,,13
11,1,17.41699981689453,test,0,m,12583.000183105469,Wed Jul 16 2025 11:48:39 GMT-0400 (Eastern Daylight Time),93107.20000004768,I,z,1377,1377,,14,no,3,1393.5,91713.70000004768,test1trial14.png,test1trial14b.png,9005,PC,B,87269,,14
12,1,19.632999897003174,test,1,z,10367.000102996826,Wed Jul 16 2025 11:48:39 GMT-0400 (Eastern Daylight Time),95324.10000002384,I,z,2204,2204,,15,yes,3,2212.5,93111.60000002384,test1trial15.png,test1trial15.png,9005,PC,B,88667,,15
12,1,21.182999849319458,test,0,m,8817.000150680542,Wed Jul 16 2025 11:48:39 GMT-0400 (Eastern Daylight Time),96874.10000002384,I,z,1537,1537,,16,no,3,1543.0,95331.10000002384,test1trial16.png,test1trial16b.png,9005,PC,B,90886,,16
13,1,23.449999809265137,test,1,z,6550.000190734863,Wed Jul 16 2025 11:48:39 GMT-0400 (Eastern Daylight Time),99140.89999997616,I,z,2240,2240,,17,yes,3,2258.1999999284744,96882.70000004768,test1trial17.png,test1trial17.png,9005,PC,B,92439,,17
14,1,24.799999952316284,test,1,m,5200.000047683716,Wed Jul 16 2025 11:48:39 GMT-0400 (Eastern Daylight Time),100490.60000002384,I,m,1339,1339,,18,no,3,1343.2000000476837,99147.39999997616,test1trial18.png,test1trial18b.png,9005,PC,B,94702,,18
15,1,27.783999919891357,test,1,m,2216.0000801086426,Wed Jul 16 2025 11:48:39 GMT-0400 (Eastern Daylight Time),103474.20000004768,I,m,2965,2965,,19,no,3,2979.9000000953674,100494.29999995232,test1trial19.png,test1trial19b.png,9005,PC,B,96050,,19
15,1,30.033999919891357,test,0,z,-33.99991989135742,Wed Jul 16 2025 11:48:39 GMT-0400 (Eastern Daylight Time),105724.5,I,None,2232,2232,,20,yes,3,2241.2000000476837,103483.29999995232,test1trial20.png,test1trial20.png,9005,PC,B,99046,,20
1,2,1.8499999046325684,test,1,m,28150.00009536743,Wed Jul 16 2025 11:48:39 GMT-0400 (Eastern Daylight Time),111057.89999997616,I,m,1831,,1831.0,1,no,3,7574.600000023842,103483.29999995232,test2trial1.png,test2trial1b.png,9005,PC,B,,104768.0,1
2,2,3.8499999046325684,test,1,m,26150.00009536743,Wed Jul 16 2025 11:48:39 GMT-0400 (Eastern Daylight Time),113057.60000002384,I,m,1979,,1979.0,2,no,3,9574.300000071526,103483.29999995232,test2trial2.png,test2trial2b.png,9005,PC,B,,106620.0,2
3,2,5.132999897003174,test,1,z,24867.000102996826,Wed Jul 16 2025 11:48:39 GMT-0400 (Eastern Daylight Time),114340.70000004768,I,z,1260,,1260.0,3,yes,3,10857.400000095367,103483.29999995232,test2trial3.png,test2trial3.png,9005,PC,B,,108619.0,3
4,2,6.5329999923706055,test,1,z,23467.000007629395,Wed Jul 16 2025 11:48:39 GMT-0400 (Eastern Daylight Time),115740.79999995232,I,z,1385,,1385.0,4,yes,3,12257.5,103483.29999995232,test2trial4.png,test2trial4.png,9005,PC,B,,109902.0,4
5,2,7.9670000076293945,test,1,z,22032.999992370605,Wed Jul 16 2025 11:48:39 GMT-0400 (Eastern Daylight Time),117174.39999997616,I,z,1426,,1426.0,5,yes,3,13691.100000023842,103483.29999995232,test2trial5.png,test2trial5.png,9005,PC,B,,111302.0,5
6,2,9.566999912261963,test,1,z,20433.000087738037,Wed Jul 16 2025 11:48:39 GMT-0400 (Eastern Daylight Time),118774.10000002384,I,z,1592,,1592.0,6,yes,3,15290.800000071526,103483.29999995232,test2trial6.png,test2trial6.png,9005,PC,B,,112735.0,6
7,2,10.983000040054321,test,1,m,19016.99995994568,Wed Jul 16 2025 11:48:39 GMT-0400 (Eastern Daylight Time),120190.70000004768,I,m,1403,,1403.0,7,no,3,16707.400000095367,103483.29999995232,test2trial7.png,test2trial7b.png,9005,PC,B,,114333.0,7
8,2,12.149999856948853,test,1,m,17850.000143051147,Wed Jul 16 2025 11:48:39 GMT-0400 (Eastern Daylight Time),121357.60000002384,I,m,1152,,1152.0,8,no,3,17874.300000071526,103483.29999995232,test2trial8.png,test2trial8b.png,9005,PC,B,,115751.0,8
9,2,14.199999809265137,test,1,z,15800.000190734863,Wed Jul 16 2025 11:48:39 GMT-0400 (Eastern Daylight Time),123407.39999997616,I,z,2033,,2033.0,9,yes,3,19924.100000023842,103483.29999995232,test2trial9.png,test2trial9.png,9005,PC,B,,116918.0,9
10,2,15.549999952316284,test,1,z,14450.000047683716,Wed Jul 16 2025 11:48:39 GMT-0400 (Eastern Daylight Time),124757.89999997616,I,z,1342,,1342.0,10,yes,3,21274.600000023842,103483.29999995232,test2trial10.png,test2trial10.png,9005,PC,B,,118969.0,10
11,2,16.83299994468689,test,1,m,13167.00005531311,Wed Jul 16 2025 11:48:39 GMT-0400 (Eastern Daylight Time),126040.60000002384,I,m,1272,,1272.0,11,no,3,22557.300000071526,103483.29999995232,test2trial11.png,test2trial11b.png,9005,PC,B,,120318.0,11
12,2,19.31599998474121,test,1,m,10684.000015258789,Wed Jul 16 2025 11:48:39 GMT-0400 (Eastern Daylight Time),128524.0,I,m,2470,,2470.0,12,no,3,25040.700000047684,103483.29999995232,test2trial12.png,test2trial12b.png,9005,PC,B,,121602.0,12
13,2,21.199999809265137,test,1,z,8800.000190734863,Wed Jul 16 2025 11:48:39 GMT-0400 (Eastern Daylight Time),130407.39999997616,I,z,1874,,1874.0,13,yes,3,26924.100000023842,103483.29999995232,test2trial13.png,test2trial13.png,9005,PC,B,,124085.0,13
13,2,23.199999809265137,test,0,m,6800.000190734863,Wed Jul 16 2025 11:48:39 GMT-0400 (Eastern Daylight Time),132407.29999995232,I,z,1990,,1990.0,14,no,3,28924.0,103483.29999995232,test2trial14.png,test2trial14b.png,9005,PC,B,,125969.0,14
14,2,24.34999990463257,test,1,m,5650.000095367432,Wed Jul 16 2025 11:48:39 GMT-0400 (Eastern Daylight Time),133557.5,I,m,1126,,1126.0,15,no,3,30074.200000047684,103483.29999995232,test2trial15.png,test2trial15b.png,9005,PC,B,,127969.0,15
14,2,25.949999809265137,test,0,m,4050.0001907348633,Wed Jul 16 2025 11:48:39 GMT-0400 (Eastern Daylight Time),135157.60000002384,I,z,1577,,1577.0,16,no,3,31674.300000071526,103483.29999995232,test2trial16.png,test2trial16b.png,9005,PC,B,,129118.0,16
15,2,27.84999990463257,test,1,z,2150.0000953674316,Wed Jul 16 2025 11:48:39 GMT-0400 (Eastern Daylight Time),137057.5,I,z,1880,,1880.0,17,yes,3,33574.200000047684,103483.29999995232,test2trial17.png,test2trial17.png,9005,PC,B,,130719.0,17
16,2,29.08299994468689,test,1,z,917.0000553131104,Wed Jul 16 2025 11:48:39 GMT-0400 (Eastern Daylight Time),138290.89999997616,I,z,1209,,1209.0,18,yes,3,34807.60000002384,103483.29999995232,test2trial18.png,test2trial18.png,9005,PC,B,,132622.0,18
16,2,30.01699995994568,test,0,z,-16.99995994567871,Wed Jul 16 2025 11:48:39 GMT-0400 (Eastern Daylight Time),139224.5,I,None,922,,922.0,19,yes,3,35741.200000047684,103483.29999995232,test2trial19.png,test2trial19.png,9005,PC,B,,133856.0,19
