block_c,block_dur,condition,countdown,datetime,endtime,list,multichar_response,project,response,response_time,session_number,start_end,starttime,subject_id,task,task_vers,trial
,,,,Fri May 01 2026 10:43:12 GMT-0500 (Central Daylight Time),,,,O,space,731,1,,,7793,WL,B,
prac,,0,,Fri May 01 2026 10:43:12 GMT-0500 (Central Daylight Time),,NA,b,O,b,2298,1,,,7793,WL,B,1.0
prac,,0,,Fri May 01 2026 10:43:12 GMT-0500 (Central Daylight Time),,NA,bo,O,o,432,1,,,7793,WL,B,1.0
prac,,0,,Fri May 01 2026 10:43:12 GMT-0500 (Central Daylight Time),,NA,boo,O,o,149,1,,,7793,WL,B,1.0
prac,,0,,Fri May 01 2026 10:43:12 GMT-0500 (Central Daylight Time),,NA,boos,O,s,151,1,,,7793,WL,B,1.0
prac,,0,,Fri May 01 2026 10:43:12 GMT-0500 (Central Daylight Time),,NA,boost,O,t,324,1,,,7793,WL,B,1.0
prac,,0,,Fri May 01 2026 10:43:12 GMT-0500 (Central Daylight Time),,NA,boostenter,O,enter,2530,1,,,7793,WL,B,1.0
1,6.198999881744385,learn,53801.000118255615,Fri May 01 2026 10:43:12 GMT-0500 (Central Daylight Time),159553.70000004768,A,s,O,s,6190,1,6198.899999976158,153354.80000007153,7793,WL,B,1.0
1,6.48199987411499,learn,53518.00012588501,Fri May 01 2026 10:43:12 GMT-0500 (Central Daylight Time),159836.30000007153,A,st,O,t,270,1,6481.5,153354.80000007153,7793,WL,B,1.0
1,6.764999866485596,learn,53235.000133514404,Fri May 01 2026 10:43:12 GMT-0500 (Central Daylight Time),160119.5,A,str,O,r,275,1,6764.699999928474,153354.80000007153,7793,WL,B,1.0
1,7.266000032424927,learn,52733.99996757507,Fri May 01 2026 10:43:12 GMT-0500 (Central Daylight Time),160620.0,A,stre,O,e,475,1,7265.199999928474,153354.80000007153,7793,WL,B,1.0
1,7.865000009536743,learn,52134.99999046326,Fri May 01 2026 10:43:12 GMT-0500 (Central Daylight Time),161219.10000002384,A,stret,O,t,578,1,7864.299999952316,153354.80000007153,7793,WL,B,1.0
1,8.396999835968018,learn,51603.00016403198,Fri May 01 2026 10:43:12 GMT-0500 (Central Daylight Time),161751.5,A,stretenter,O,enter,515,1,8396.699999928474,153354.80000007153,7793,WL,B,1.0
1,9.780999898910522,learn,50219.00010108948,Fri May 01 2026 10:43:12 GMT-0500 (Central Daylight Time),163135.5,A,g,O,g,1367,1,1383.5,161752.0,7793,WL,B,2.0
1,10.062999963760376,learn,49937.000036239624,Fri May 01 2026 10:43:12 GMT-0500 (Central Daylight Time),163417.80000007153,A,gr,O,r,262,1,1665.8000000715256,161752.0,7793,WL,B,2.0
1,10.613999843597412,learn,49386.00015640259,Fri May 01 2026 10:43:12 GMT-0500 (Central Daylight Time),163968.10000002384,A,gra,O,a,533,1,2216.100000023842,161752.0,7793,WL,B,2.0
1,10.929999828338623,learn,49070.00017166138,Fri May 01 2026 10:43:12 GMT-0500 (Central Daylight Time),164284.80000007153,A,gras,O,s,294,1,2532.8000000715256,161752.0,7793,WL,B,2.0
1,11.148000001907349,learn,48851.99999809265,Fri May 01 2026 10:43:12 GMT-0500 (Central Daylight Time),164502.10000002384,A,grass,O,s,209,1,2750.100000023842,161752.0,7793,WL,B,2.0
1,11.579999923706055,learn,48420.000076293945,Fri May 01 2026 10:43:12 GMT-0500 (Central Daylight Time),164934.20000004768,A,grassenter,O,enter,422,1,3182.2000000476837,161752.0,7793,WL,B,2.0
1,12.327999830245972,learn,47672.00016975403,Fri May 01 2026 10:43:12 GMT-0500 (Central Daylight Time),165682.30000007153,A,w,O,w,734,1,747.8000000715256,164934.5,7793,WL,B,3.0
1,12.662999868392944,learn,47337.000131607056,Fri May 01 2026 10:43:12 GMT-0500 (Central Daylight Time),166016.89999997616,A,wi,O,i,326,1,1082.3999999761581,164934.5,7793,WL,B,3.0
1,12.94599986076355,learn,47054.00013923645,Fri May 01 2026 10:43:12 GMT-0500 (Central Daylight Time),166300.89999997616,A,win,O,n,278,1,1366.3999999761581,164934.5,7793,WL,B,3.0
1,13.179999828338623,learn,46820.00017166138,Fri May 01 2026 10:43:12 GMT-0500 (Central Daylight Time),166534.80000007153,A,wind,O,d,227,1,1600.3000000715256,164934.5,7793,WL,B,3.0
1,13.462999820709229,learn,46537.00017929077,Fri May 01 2026 10:43:12 GMT-0500 (Central Daylight Time),166817.70000004768,A,windo,O,o,264,1,1883.2000000476837,164934.5,7793,WL,B,3.0
1,13.730999946594238,learn,46269.00005340576,Fri May 01 2026 10:43:12 GMT-0500 (Central Daylight Time),167085.39999997616,A,window,O,w,244,1,2150.899999976158,164934.5,7793,WL,B,3.0
1,14.129999876022339,learn,45870.00012397766,Fri May 01 2026 10:43:12 GMT-0500 (Central Daylight Time),167484.0,A,windowenter,O,enter,382,1,2549.5,164934.5,7793,WL,B,3.0
1,14.829999923706055,learn,45170.000076293945,Fri May 01 2026 10:43:12 GMT-0500 (Central Daylight Time),168184.20000004768,A,w,O,w,684,1,699.8000000715256,167484.39999997616,7793,WL,B,4.0
1,15.161999940872192,learn,44838.00005912781,Fri May 01 2026 10:43:12 GMT-0500 (Central Daylight Time),168516.89999997616,A,wi,O,i,318,1,1032.5,167484.39999997616,7793,WL,B,4.0
1,15.395999908447266,learn,44604.000091552734,Fri May 01 2026 10:43:12 GMT-0500 (Central Daylight Time),168750.39999997616,A,wif,O,f,225,1,1266.0,167484.39999997616,7793,WL,B,4.0
1,15.694999933242798,learn,44305.0000667572,Fri May 01 2026 10:43:12 GMT-0500 (Central Daylight Time),169049.89999997616,A,wife,O,e,286,1,1565.5,167484.39999997616,7793,WL,B,4.0
1,16.145999908447266,learn,43854.000091552734,Fri May 01 2026 10:43:12 GMT-0500 (Central Daylight Time),169500.30000007153,A,wifeenter,O,enter,437,1,2015.9000000953674,167484.39999997616,7793,WL,B,4.0
1,16.644999980926514,learn,43355.000019073486,Fri May 01 2026 10:43:12 GMT-0500 (Central Daylight Time),169999.60000002384,A,a,O,a,483,1,499.0,169500.60000002384,7793,WL,B,5.0
1,17.444999933242798,learn,42555.0000667572,Fri May 01 2026 10:43:12 GMT-0500 (Central Daylight Time),170799.80000007153,A,ar,O,r,791,1,1299.2000000476837,169500.60000002384,7793,WL,B,5.0
1,18.110999822616577,learn,41889.00017738342,Fri May 01 2026 10:43:12 GMT-0500 (Central Daylight Time),171465.5,A,arm,O,m,654,1,1964.8999999761581,169500.60000002384,7793,WL,B,5.0
1,18.996000051498413,learn,41003.99994850159,Fri May 01 2026 10:43:12 GMT-0500 (Central Daylight Time),172350.30000007153,A,armenter,O,enter,862,1,2849.7000000476837,169500.60000002384,7793,WL,B,5.0
1,19.59500002861023,learn,40404.99997138977,Fri May 01 2026 10:43:12 GMT-0500 (Central Daylight Time),172949.39999997616,A,l,O,l,593,1,598.7999999523163,172350.60000002384,7793,WL,B,6.0
1,19.944000005722046,learn,40055.999994277954,Fri May 01 2026 10:43:12 GMT-0500 (Central Daylight Time),173298.80000007153,A,la,O,a,327,1,948.2000000476837,172350.60000002384,7793,WL,B,6.0
1,20.177000045776367,learn,39822.99995422363,Fri May 01 2026 10:43:12 GMT-0500 (Central Daylight Time),173531.39999997616,A,lak,O,k,211,1,1180.7999999523163,172350.60000002384,7793,WL,B,6.0
1,20.57699990272522,learn,39423.00009727478,Fri May 01 2026 10:43:12 GMT-0500 (Central Daylight Time),173931.30000007153,A,lake,O,e,377,1,1580.7000000476837,172350.60000002384,7793,WL,B,6.0
1,24.304999828338623,learn,35695.00017166138,Fri May 01 2026 10:43:12 GMT-0500 (Central Daylight Time),177662.39999997616,A,lakeenter,O,enter,3720,1,5311.799999952316,172350.60000002384,7793,WL,B,6.0
1,27.621999979019165,learn,32378.000020980835,Fri May 01 2026 10:43:12 GMT-0500 (Central Daylight Time),180978.89999997616,A,d,O,d,3298,1,3316.2999999523163,177662.60000002384,7793,WL,B,7.0
1,27.955999851226807,learn,32044.000148773193,Fri May 01 2026 10:43:12 GMT-0500 (Central Daylight Time),181313.0,A,do,O,o,310,1,3650.399999976158,177662.60000002384,7793,WL,B,7.0
1,28.155999898910522,learn,31844.000101089478,Fri May 01 2026 10:43:12 GMT-0500 (Central Daylight Time),181512.39999997616,A,doo,O,o,190,1,3849.7999999523163,177662.60000002384,7793,WL,B,7.0
1,28.490000009536743,learn,31509.999990463257,Fri May 01 2026 10:43:12 GMT-0500 (Central Daylight Time),181846.80000007153,A,door,O,r,311,1,4184.200000047684,177662.60000002384,7793,WL,B,7.0
1,29.40499997138977,learn,30595.00002861023,Fri May 01 2026 10:43:12 GMT-0500 (Central Daylight Time),182762.39999997616,A,doorenter,O,enter,902,1,5099.799999952316,177662.60000002384,7793,WL,B,7.0
1,46.782999992370605,learn,13217.000007629395,Fri May 01 2026 10:43:12 GMT-0500 (Central Daylight Time),200139.89999997616,A,enter,O,enter,17357,1,17377.099999904633,182762.80000007153,7793,WL,B,8.0
1,60.01300001144409,learn,-13.000011444091797,Fri May 01 2026 10:43:12 GMT-0500 (Central Daylight Time),213369.89999997616,A,None,O,None,13223,1,13229.599999904633,200140.30000007153,7793,WL,B,9.0
2,1.0679998397827148,learn,58932.000160217285,Fri May 01 2026 10:43:12 GMT-0500 (Central Daylight Time),284647.3000000715,A,s,O,s,1064,1,1067.6000000238419,283579.7000000477,7793,WL,B,1.0
2,1.4169998168945312,learn,58583.00018310547,Fri May 01 2026 10:43:12 GMT-0500 (Central Daylight Time),284996.2000000477,A,st,O,t,342,1,1416.5,283579.7000000477,7793,WL,B,1.0
2,1.682999849319458,learn,58317.00015068054,Fri May 01 2026 10:43:12 GMT-0500 (Central Daylight Time),285262.10000002384,A,str,O,r,261,1,1682.3999999761581,283579.7000000477,7793,WL,B,1.0
2,1.9829998016357422,learn,58017.00019836426,Fri May 01 2026 10:43:12 GMT-0500 (Central Daylight Time),285562.7000000477,A,stre,O,e,281,1,1983.0,283579.7000000477,7793,WL,B,1.0
2,2.1659998893737793,learn,57834.00011062622,Fri May 01 2026 10:43:12 GMT-0500 (Central Daylight Time),285745.39999997616,A,stree,O,e,173,1,2165.6999999284744,283579.7000000477,7793,WL,B,1.0
2,2.4839999675750732,learn,57516.00003242493,Fri May 01 2026 10:43:12 GMT-0500 (Central Daylight Time),286063.60000002384,A,street,O,t,310,1,2483.899999976158,283579.7000000477,7793,WL,B,1.0
2,3.0159997940063477,learn,56984.00020599365,Fri May 01 2026 10:43:12 GMT-0500 (Central Daylight Time),286594.89999997616,A,streetenter,O,enter,518,1,3015.1999999284744,283579.7000000477,7793,WL,B,1.0
2,4.08299994468689,learn,55917.00005531311,Fri May 01 2026 10:43:12 GMT-0500 (Central Daylight Time),287662.10000002384,A,g,O,g,1053,1,1066.7999999523163,286595.3000000715,7793,WL,B,2.0
2,4.498999834060669,learn,55501.00016593933,Fri May 01 2026 10:43:12 GMT-0500 (Central Daylight Time),288078.3000000715,A,gr,O,r,410,1,1483.0,286595.3000000715,7793,WL,B,2.0
2,4.865000009536743,learn,55134.99999046326,Fri May 01 2026 10:43:12 GMT-0500 (Central Daylight Time),288444.60000002384,A,gra,O,a,351,1,1849.2999999523163,286595.3000000715,7793,WL,B,2.0
2,5.182999849319458,learn,54817.00015068054,Fri May 01 2026 10:43:12 GMT-0500 (Central Daylight Time),288762.10000002384,A,gras,O,s,298,1,2166.7999999523163,286595.3000000715,7793,WL,B,2.0
2,5.365999937057495,learn,54634.000062942505,Fri May 01 2026 10:43:12 GMT-0500 (Central Daylight Time),288945.5,A,grass,O,s,164,1,2350.1999999284744,286595.3000000715,7793,WL,B,2.0
2,5.680999994277954,learn,54319.000005722046,Fri May 01 2026 10:43:12 GMT-0500 (Central Daylight Time),289260.7000000477,A,grassenter,O,enter,308,1,2665.399999976158,286595.3000000715,7793,WL,B,2.0
2,6.063999891281128,learn,53936.00010871887,Fri May 01 2026 10:43:12 GMT-0500 (Central Daylight Time),289643.8000000715,A,d,O,d,370,1,382.8000000715256,289261.0,7793,WL,B,3.0
2,6.432999849319458,learn,53567.00015068054,Fri May 01 2026 10:43:12 GMT-0500 (Central Daylight Time),290012.7000000477,A,do,O,o,349,1,751.7000000476837,289261.0,7793,WL,B,3.0
2,6.633999824523926,learn,53366.000175476074,Fri May 01 2026 10:43:12 GMT-0500 (Central Daylight Time),290213.2000000477,A,doo,O,o,179,1,952.2000000476837,289261.0,7793,WL,B,3.0
2,6.930999994277954,learn,53069.000005722046,Fri May 01 2026 10:43:12 GMT-0500 (Central Daylight Time),290510.39999997616,A,door,O,r,284,1,1249.3999999761581,289261.0,7793,WL,B,3.0
2,7.281999826431274,learn,52718.000173568726,Fri May 01 2026 10:43:12 GMT-0500 (Central Daylight Time),290861.89999997616,A,doorenter,O,enter,338,1,1600.8999999761581,289261.0,7793,WL,B,3.0
2,7.663999795913696,learn,52336.000204086304,Fri May 01 2026 10:43:12 GMT-0500 (Central Daylight Time),291243.2000000477,A,w,O,w,360,1,381.0,290862.2000000477,7793,WL,B,4.0
2,7.998999834060669,learn,52001.00016593933,Fri May 01 2026 10:43:12 GMT-0500 (Central Daylight Time),291578.10000002384,A,wi,O,i,316,1,715.8999999761581,290862.2000000477,7793,WL,B,4.0
2,8.245999813079834,learn,51754.000186920166,Fri May 01 2026 10:43:12 GMT-0500 (Central Daylight Time),291825.60000002384,A,win,O,n,227,1,963.3999999761581,290862.2000000477,7793,WL,B,4.0
2,8.480000019073486,learn,51519.999980926514,Fri May 01 2026 10:43:12 GMT-0500 (Central Daylight Time),292059.10000002384,A,wind,O,d,222,1,1196.8999999761581,290862.2000000477,7793,WL,B,4.0
2,8.996999979019165,learn,51003.000020980835,Fri May 01 2026 10:43:12 GMT-0500 (Central Daylight Time),292576.39999997616,A,windo,O,o,510,1,1714.1999999284744,290862.2000000477,7793,WL,B,4.0
2,9.31499981880188,learn,50685.00018119812,Fri May 01 2026 10:43:12 GMT-0500 (Central Daylight Time),292894.5,A,window,O,w,312,1,2032.2999999523163,290862.2000000477,7793,WL,B,4.0
2,9.662999868392944,learn,50337.000131607056,Fri May 01 2026 10:43:12 GMT-0500 (Central Daylight Time),293242.5,A,windowenter,O,enter,328,1,2380.2999999523163,290862.2000000477,7793,WL,B,4.0
2,10.96399998664856,learn,49036.00001335144,Fri May 01 2026 10:43:12 GMT-0500 (Central Daylight Time),294543.8000000715,A,w,O,w,1285,1,1301.1000000238419,293242.7000000477,7793,WL,B,5.0
2,11.27999997138977,learn,48720.00002861023,Fri May 01 2026 10:43:12 GMT-0500 (Central Daylight Time),294859.8000000715,A,wi,O,i,295,1,1617.1000000238419,293242.7000000477,7793,WL,B,5.0
2,11.495999813079834,learn,48504.000186920166,Fri May 01 2026 10:43:12 GMT-0500 (Central Daylight Time),295075.8000000715,A,wif,O,f,202,1,1833.1000000238419,293242.7000000477,7793,WL,B,5.0
2,11.79699993133545,learn,48203.00006866455,Fri May 01 2026 10:43:12 GMT-0500 (Central Daylight Time),295376.0,A,wife,O,e,279,1,2133.2999999523163,293242.7000000477,7793,WL,B,5.0
2,12.145999908447266,learn,47854.000091552734,Fri May 01 2026 10:43:12 GMT-0500 (Central Daylight Time),295725.0,A,wifeenter,O,enter,334,1,2482.2999999523163,293242.7000000477,7793,WL,B,5.0
2,12.513000011444092,learn,47486.99998855591,Fri May 01 2026 10:43:12 GMT-0500 (Central Daylight Time),296092.0,A,a,O,a,354,1,366.6999999284744,295725.3000000715,7793,WL,B,6.0
2,12.878999948501587,learn,47121.00005149841,Fri May 01 2026 10:43:12 GMT-0500 (Central Daylight Time),296458.5,A,ar,O,r,342,1,733.1999999284744,295725.3000000715,7793,WL,B,6.0
2,15.026999950408936,learn,44973.000049591064,Fri May 01 2026 10:43:12 GMT-0500 (Central Daylight Time),298608.89999997616,A,arm,O,m,2137,1,2883.5999999046326,295725.3000000715,7793,WL,B,6.0
2,16.158999919891357,learn,43841.00008010864,Fri May 01 2026 10:43:12 GMT-0500 (Central Daylight Time),299741.0,A,armenter,O,enter,1110,1,4015.6999999284744,295725.3000000715,7793,WL,B,6.0
2,16.792999982833862,learn,43207.00001716614,Fri May 01 2026 10:43:12 GMT-0500 (Central Daylight Time),300374.8000000715,A,w,O,w,626,1,633.5,299741.3000000715,7793,WL,B,7.0
2,17.024999856948853,learn,42975.00014305115,Fri May 01 2026 10:43:12 GMT-0500 (Central Daylight Time),300607.0,A,wi,O,i,219,1,865.6999999284744,299741.3000000715,7793,WL,B,7.0
2,17.257999897003174,learn,42742.000102996826,Fri May 01 2026 10:43:12 GMT-0500 (Central Daylight Time),300840.10000002384,A,win,O,n,223,1,1098.7999999523163,299741.3000000715,7793,WL,B,7.0
2,17.47699999809265,learn,42523.00000190735,Fri May 01 2026 10:43:12 GMT-0500 (Central Daylight Time),301058.60000002384,A,wind,O,d,206,1,1317.2999999523163,299741.3000000715,7793,WL,B,7.0
2,17.658999919891357,learn,42341.00008010864,Fri May 01 2026 10:43:12 GMT-0500 (Central Daylight Time),301240.7000000477,A,windo,O,o,165,1,1499.3999999761581,299741.3000000715,7793,WL,B,7.0
2,17.908999919891357,learn,42091.00008010864,Fri May 01 2026 10:43:12 GMT-0500 (Central Daylight Time),301491.39999997616,A,window,O,w,235,1,1750.0999999046326,299741.3000000715,7793,WL,B,7.0
2,18.45899987220764,learn,41541.00012779236,Fri May 01 2026 10:43:12 GMT-0500 (Central Daylight Time),302040.5,A,windowenter,O,enter,529,1,2299.1999999284744,299741.3000000715,7793,WL,B,7.0
2,18.742999792099,learn,41257.000207901,Fri May 01 2026 10:43:12 GMT-0500 (Central Daylight Time),302325.10000002384,A,c,O,c,263,1,284.2999999523163,302040.8000000715,7793,WL,B,8.0
2,19.057999849319458,learn,40942.00015068054,Fri May 01 2026 10:43:12 GMT-0500 (Central Daylight Time),302640.10000002384,A,ca,O,a,303,1,599.2999999523163,302040.8000000715,7793,WL,B,8.0
2,19.524999856948853,learn,40475.00014305115,Fri May 01 2026 10:43:12 GMT-0500 (Central Daylight Time),303107.10000002384,A,cab,O,b,444,1,1066.2999999523163,302040.8000000715,7793,WL,B,8.0
2,19.807999849319458,learn,40192.00015068054,Fri May 01 2026 10:43:12 GMT-0500 (Central Daylight Time),303389.60000002384,A,cabi,O,i,264,1,1348.7999999523163,302040.8000000715,7793,WL,B,8.0
2,20.090999841690063,learn,39909.00015830994,Fri May 01 2026 10:43:12 GMT-0500 (Central Daylight Time),303673.10000002384,A,cabin,O,n,270,1,1632.2999999523163,302040.8000000715,7793,WL,B,8.0
2,20.54099988937378,learn,39459.00011062622,Fri May 01 2026 10:43:12 GMT-0500 (Central Daylight Time),304122.8000000715,A,cabinenter,O,enter,437,1,2082.0,302040.8000000715,7793,WL,B,8.0
2,21.95799994468689,learn,38042.00005531311,Fri May 01 2026 10:43:12 GMT-0500 (Central Daylight Time),305540.10000002384,A,l,O,l,1405,1,1417.0,304123.10000002384,7793,WL,B,9.0
2,22.306999921798706,learn,37693.000078201294,Fri May 01 2026 10:43:12 GMT-0500 (Central Daylight Time),305888.8000000715,A,la,O,a,329,1,1765.7000000476837,304123.10000002384,7793,WL,B,9.0
2,22.941999912261963,learn,37058.00008773804,Fri May 01 2026 10:43:12 GMT-0500 (Central Daylight Time),306524.39999997616,A,lak,O,k,611,1,2401.2999999523163,304123.10000002384,7793,WL,B,9.0
2,23.222999811172485,learn,36777.000188827515,Fri May 01 2026 10:43:12 GMT-0500 (Central Daylight Time),306805.5,A,lake,O,e,272,1,2682.399999976158,304123.10000002384,7793,WL,B,9.0
2,23.52300000190735,learn,36476.99999809265,Fri May 01 2026 10:43:12 GMT-0500 (Central Daylight Time),307105.3000000715,A,lakeenter,O,enter,287,1,2982.2000000476837,304123.10000002384,7793,WL,B,9.0
2,24.205999851226807,learn,35794.00014877319,Fri May 01 2026 10:43:12 GMT-0500 (Central Daylight Time),307788.2000000477,A,p,O,p,662,1,682.7000000476837,307105.5,7793,WL,B,10.0
2,24.539999961853027,learn,35460.00003814697,Fri May 01 2026 10:43:12 GMT-0500 (Central Daylight Time),308121.5,A,pi,O,i,311,1,1016.0,307105.5,7793,WL,B,10.0
2,24.890999794006348,learn,35109.00020599365,Fri May 01 2026 10:43:12 GMT-0500 (Central Daylight Time),308472.5,A,pip,O,p,331,1,1367.0,307105.5,7793,WL,B,10.0
2,25.388999938964844,learn,34611.000061035156,Fri May 01 2026 10:43:12 GMT-0500 (Central Daylight Time),308971.5,A,pipe,O,e,483,1,1866.0,307105.5,7793,WL,B,10.0
2,32.954999923706055,learn,27045.000076293945,Fri May 01 2026 10:43:12 GMT-0500 (Central Daylight Time),316537.2000000477,A,pipef,O,f,7544,1,9431.700000047684,307105.5,7793,WL,B,10.0
2,33.187999963760376,learn,26812.000036239624,Fri May 01 2026 10:43:12 GMT-0500 (Central Daylight Time),316769.60000002384,A,pipefi,O,i,222,1,9664.100000023842,307105.5,7793,WL,B,10.0
2,33.436999797821045,learn,26563.000202178955,Fri May 01 2026 10:43:12 GMT-0500 (Central Daylight Time),317018.7000000477,A,pipefir,O,r,228,1,9913.200000047684,307105.5,7793,WL,B,10.0
2,33.71999979019165,learn,26280.00020980835,Fri May 01 2026 10:43:12 GMT-0500 (Central Daylight Time),317302.0,A,pipefire,O,e,276,1,10196.5,307105.5,7793,WL,B,10.0
2,34.269999980926514,learn,25730.000019073486,Fri May 01 2026 10:43:12 GMT-0500 (Central Daylight Time),317851.5,A,pipefireenter,O,enter,527,1,10746.0,307105.5,7793,WL,B,10.0
2,46.882999897003174,learn,13117.000102996826,Fri May 01 2026 10:43:12 GMT-0500 (Central Daylight Time),330464.60000002384,A,p,O,p,12596,1,12612.899999976158,317851.7000000477,7793,WL,B,11.0
2,48.115999937057495,learn,11884.000062942505,Fri May 01 2026 10:43:12 GMT-0500 (Central Daylight Time),331698.39999997616,A,pi,O,i,1216,1,13846.699999928474,317851.7000000477,7793,WL,B,11.0
2,48.56599998474121,learn,11434.000015258789,Fri May 01 2026 10:43:12 GMT-0500 (Central Daylight Time),332148.2000000477,A,pip,O,p,438,1,14296.5,317851.7000000477,7793,WL,B,11.0
2,48.96499991416931,learn,11035.000085830688,Fri May 01 2026 10:43:12 GMT-0500 (Central Daylight Time),332546.5,A,pipe,O,e,387,1,14694.799999952316,317851.7000000477,7793,WL,B,11.0
2,49.413999795913696,learn,10586.000204086304,Fri May 01 2026 10:43:12 GMT-0500 (Central Daylight Time),332996.0,A,pipeenter,O,enter,434,1,15144.299999952316,317851.7000000477,7793,WL,B,11.0
2,60.01300001144409,learn,-13.000011444091797,Fri May 01 2026 10:43:12 GMT-0500 (Central Daylight Time),343594.8000000715,A,None,O,None,10595,1,10598.600000023842,332996.2000000477,7793,WL,B,12.0
3,0.7000000476837158,learn,59299.999952316284,Fri May 01 2026 10:43:12 GMT-0500 (Central Daylight Time),415337.8000000715,A,s,O,s,682,1,700.0,414637.8000000715,7793,WL,B,1.0
3,1.0490000247955322,learn,58950.99997520447,Fri May 01 2026 10:43:12 GMT-0500 (Central Daylight Time),415686.10000002384,A,st,O,t,339,1,1048.2999999523163,414637.8000000715,7793,WL,B,1.0
3,1.3339998722076416,learn,58666.00012779236,Fri May 01 2026 10:43:12 GMT-0500 (Central Daylight Time),415971.8000000715,A,str,O,r,264,1,1334.0,414637.8000000715,7793,WL,B,1.0
3,1.616999864578247,learn,58383.00013542175,Fri May 01 2026 10:43:12 GMT-0500 (Central Daylight Time),416254.10000002384,A,stre,O,e,262,1,1616.2999999523163,414637.8000000715,7793,WL,B,1.0
3,1.8329999446868896,learn,58167.00005531311,Fri May 01 2026 10:43:12 GMT-0500 (Central Daylight Time),416471.0,A,stree,O,e,199,1,1833.1999999284744,414637.8000000715,7793,WL,B,1.0
3,2.132999897003174,learn,57867.000102996826,Fri May 01 2026 10:43:12 GMT-0500 (Central Daylight Time),416770.39999997616,A,street,O,t,276,1,2132.5999999046326,414637.8000000715,7793,WL,B,1.0
3,2.5490000247955322,learn,57450.99997520447,Fri May 01 2026 10:43:12 GMT-0500 (Central Daylight Time),417186.8000000715,A,streetenter,O,enter,392,1,2549.0,414637.8000000715,7793,WL,B,1.0
3,3.0149998664855957,learn,56985.000133514404,Fri May 01 2026 10:43:12 GMT-0500 (Central Daylight Time),417654.39999997616,A,g,O,g,460,1,467.2999999523163,417187.10000002384,7793,WL,B,2.0
3,3.315999984741211,learn,56684.00001525879,Fri May 01 2026 10:43:12 GMT-0500 (Central Daylight Time),417955.60000002384,A,gr,O,r,290,1,768.5,417187.10000002384,7793,WL,B,2.0
3,3.6459999084472656,learn,56354.000091552734,Fri May 01 2026 10:43:12 GMT-0500 (Central Daylight Time),418286.3000000715,A,gra,O,a,313,1,1099.2000000476837,417187.10000002384,7793,WL,B,2.0
3,3.947000026702881,learn,56052.99997329712,Fri May 01 2026 10:43:12 GMT-0500 (Central Daylight Time),418587.3000000715,A,gras,O,s,284,1,1400.2000000476837,417187.10000002384,7793,WL,B,2.0
3,4.2129998207092285,learn,55787.00017929077,Fri May 01 2026 10:43:12 GMT-0500 (Central Daylight Time),418853.0,A,grass,O,s,250,1,1665.8999999761581,417187.10000002384,7793,WL,B,2.0
3,4.562999963760376,learn,55437.000036239624,Fri May 01 2026 10:43:12 GMT-0500 (Central Daylight Time),419202.89999997616,A,grassenter,O,enter,336,1,2015.7999999523163,417187.10000002384,7793,WL,B,2.0
3,4.8459999561309814,learn,55154.00004386902,Fri May 01 2026 10:43:12 GMT-0500 (Central Daylight Time),419485.89999997616,A,d,O,d,268,1,282.6999999284744,419203.2000000477,7793,WL,B,3.0
3,5.179999828338623,learn,54820.00017166138,Fri May 01 2026 10:43:12 GMT-0500 (Central Daylight Time),419819.89999997616,A,do,O,o,306,1,616.6999999284744,419203.2000000477,7793,WL,B,3.0
3,5.412999868392944,learn,54587.000131607056,Fri May 01 2026 10:43:12 GMT-0500 (Central Daylight Time),420052.7000000477,A,doo,O,o,219,1,849.5,419203.2000000477,7793,WL,B,3.0
3,5.744999885559082,learn,54255.00011444092,Fri May 01 2026 10:43:12 GMT-0500 (Central Daylight Time),420384.7000000477,A,door,O,r,320,1,1181.5,419203.2000000477,7793,WL,B,3.0
3,6.2129998207092285,learn,53787.00017929077,Fri May 01 2026 10:43:12 GMT-0500 (Central Daylight Time),420853.10000002384,A,doorenter,O,enter,454,1,1649.8999999761581,419203.2000000477,7793,WL,B,3.0
3,6.5959999561309814,learn,53404.00004386902,Fri May 01 2026 10:43:12 GMT-0500 (Central Daylight Time),421235.60000002384,A,w,O,w,370,1,382.2999999523163,420853.3000000715,7793,WL,B,4.0
3,6.912999868392944,learn,53087.000131607056,Fri May 01 2026 10:43:12 GMT-0500 (Central Daylight Time),421552.7000000477,A,wi,O,i,305,1,699.3999999761581,420853.3000000715,7793,WL,B,4.0
3,7.179999828338623,learn,52820.00017166138,Fri May 01 2026 10:43:12 GMT-0500 (Central Daylight Time),421819.60000002384,A,win,O,n,247,1,966.2999999523163,420853.3000000715,7793,WL,B,4.0
3,7.412999868392944,learn,52587.000131607056,Fri May 01 2026 10:43:12 GMT-0500 (Central Daylight Time),422052.5,A,wind,O,d,210,1,1199.1999999284744,420853.3000000715,7793,WL,B,4.0
3,7.69599986076355,learn,52304.00013923645,Fri May 01 2026 10:43:12 GMT-0500 (Central Daylight Time),422336.2000000477,A,windo,O,o,267,1,1482.8999999761581,420853.3000000715,7793,WL,B,4.0
3,8.11299991607666,learn,51887.00008392334,Fri May 01 2026 10:43:12 GMT-0500 (Central Daylight Time),422752.7000000477,A,window,O,w,399,1,1899.3999999761581,420853.3000000715,7793,WL,B,4.0
3,8.477999925613403,learn,51522.0000743866,Fri May 01 2026 10:43:12 GMT-0500 (Central Daylight Time),423118.2000000477,A,windowenter,O,enter,355,1,2264.899999976158,420853.3000000715,7793,WL,B,4.0
3,8.92799997329712,learn,51072.00002670288,Fri May 01 2026 10:43:12 GMT-0500 (Central Daylight Time),423567.8000000715,A,w,O,w,432,1,449.40000009536743,423118.39999997616,7793,WL,B,5.0
3,9.394999980926514,learn,50605.000019073486,Fri May 01 2026 10:43:12 GMT-0500 (Central Daylight Time),424034.60000002384,A,wi,O,i,454,1,916.2000000476837,423118.39999997616,7793,WL,B,5.0
3,9.67799997329712,learn,50322.00002670288,Fri May 01 2026 10:43:12 GMT-0500 (Central Daylight Time),424317.7000000477,A,wif,O,f,266,1,1199.3000000715256,423118.39999997616,7793,WL,B,5.0
3,9.977999925613403,learn,50022.0000743866,Fri May 01 2026 10:43:12 GMT-0500 (Central Daylight Time),424617.8000000715,A,wife,O,e,287,1,1499.4000000953674,423118.39999997616,7793,WL,B,5.0
3,10.328999996185303,learn,49671.0000038147,Fri May 01 2026 10:43:12 GMT-0500 (Central Daylight Time),424969.2000000477,A,wifeenter,O,enter,327,1,1850.8000000715256,423118.39999997616,7793,WL,B,5.0
3,11.060999870300293,learn,48939.00012969971,Fri May 01 2026 10:43:12 GMT-0500 (Central Daylight Time),425700.60000002384,A,p,O,p,710,1,731.2000000476837,424969.39999997616,7793,WL,B,6.0
3,11.460999965667725,learn,48539.000034332275,Fri May 01 2026 10:43:12 GMT-0500 (Central Daylight Time),426101.10000002384,A,pu,O,u,389,1,1131.7000000476837,424969.39999997616,7793,WL,B,6.0
3,11.91100001335144,learn,48088.99998664856,Fri May 01 2026 10:43:12 GMT-0500 (Central Daylight Time),426551.0,A,pup,O,p,441,1,1581.6000000238419,424969.39999997616,7793,WL,B,6.0
3,12.294999837875366,learn,47705.000162124634,Fri May 01 2026 10:43:12 GMT-0500 (Central Daylight Time),426935.2000000477,A,pupi,O,i,374,1,1965.8000000715256,424969.39999997616,7793,WL,B,6.0
3,12.677000045776367,learn,47322.99995422363,Fri May 01 2026 10:43:12 GMT-0500 (Central Daylight Time),427317.10000002384,A,pupil,O,l,360,1,2347.7000000476837,424969.39999997616,7793,WL,B,6.0
3,13.043999910354614,learn,46956.000089645386,Fri May 01 2026 10:43:12 GMT-0500 (Central Daylight Time),427683.60000002384,A,pupilenter,O,enter,359,1,2714.2000000476837,424969.39999997616,7793,WL,B,6.0
3,13.416999816894531,learn,46583.00018310547,Fri May 01 2026 10:43:12 GMT-0500 (Central Daylight Time),428056.39999997616,A,f,O,f,349,1,372.59999990463257,427683.8000000715,7793,WL,B,7.0
3,13.692999839782715,learn,46307.000160217285,Fri May 01 2026 10:43:12 GMT-0500 (Central Daylight Time),428333.0,A,fi,O,i,262,1,649.1999999284744,427683.8000000715,7793,WL,B,7.0
3,13.99399995803833,learn,46006.00004196167,Fri May 01 2026 10:43:12 GMT-0500 (Central Daylight Time),428633.5,A,fir,O,r,288,1,949.6999999284744,427683.8000000715,7793,WL,B,7.0
3,14.376999855041504,learn,45623.000144958496,Fri May 01 2026 10:43:12 GMT-0500 (Central Daylight Time),429016.7000000477,A,fire,O,e,364,1,1332.8999999761581,427683.8000000715,7793,WL,B,7.0
3,14.759999990463257,learn,45240.00000953674,Fri May 01 2026 10:43:12 GMT-0500 (Central Daylight Time),429399.8000000715,A,fireenter,O,enter,364,1,1716.0,427683.8000000715,7793,WL,B,7.0
3,15.026000022888184,learn,44973.99997711182,Fri May 01 2026 10:43:12 GMT-0500 (Central Daylight Time),429666.0,A,s,O,s,247,1,265.89999997615814,429400.10000002384,7793,WL,B,8.0
3,15.408999919891357,learn,44591.00008010864,Fri May 01 2026 10:43:12 GMT-0500 (Central Daylight Time),430049.3000000715,A,st,O,t,361,1,649.2000000476837,429400.10000002384,7793,WL,B,8.0
3,16.175999879837036,learn,43824.000120162964,Fri May 01 2026 10:43:12 GMT-0500 (Central Daylight Time),430815.60000002384,A,sta,O,a,756,1,1415.5,429400.10000002384,7793,WL,B,8.0
3,16.858999967575073,learn,43141.00003242493,Fri May 01 2026 10:43:12 GMT-0500 (Central Daylight Time),431499.2000000477,A,star,O,r,661,1,2099.100000023842,429400.10000002384,7793,WL,B,8.0
3,17.97499990463257,learn,42025.00009536743,Fri May 01 2026 10:43:12 GMT-0500 (Central Daylight Time),432615.3000000715,A,starenter,O,enter,1106,1,3215.2000000476837,429400.10000002384,7793,WL,B,8.0
3,18.243000030517578,learn,41756.99996948242,Fri May 01 2026 10:43:12 GMT-0500 (Central Daylight Time),432883.0,A,v,O,v,257,1,267.5,432615.5,7793,WL,B,9.0
3,19.19099998474121,learn,40809.00001525879,Fri May 01 2026 10:43:12 GMT-0500 (Central Daylight Time),433831.3000000715,A,,O,backspace,939,1,1215.8000000715256,432615.5,7793,WL,B,9.0
3,19.592000007629395,learn,40407.999992370605,Fri May 01 2026 10:43:12 GMT-0500 (Central Daylight Time),434231.60000002384,A,c,O,c,382,1,1616.1000000238419,432615.5,7793,WL,B,9.0
3,20.04199981689453,learn,39958.00018310547,Fri May 01 2026 10:43:12 GMT-0500 (Central Daylight Time),434682.0,A,ca,O,a,437,1,2066.5,432615.5,7793,WL,B,9.0
3,20.507999897003174,learn,39492.000102996826,Fri May 01 2026 10:43:12 GMT-0500 (Central Daylight Time),435147.7000000477,A,cab,O,b,450,1,2532.2000000476837,432615.5,7793,WL,B,9.0
3,20.907999992370605,learn,39092.000007629395,Fri May 01 2026 10:43:12 GMT-0500 (Central Daylight Time),435548.39999997616,A,cabi,O,i,385,1,2932.899999976158,432615.5,7793,WL,B,9.0
3,21.2739999294281,learn,38726.0000705719,Fri May 01 2026 10:43:12 GMT-0500 (Central Daylight Time),435914.3000000715,A,cabin,O,n,356,1,3298.8000000715256,432615.5,7793,WL,B,9.0
3,21.723999977111816,learn,38276.00002288818,Fri May 01 2026 10:43:12 GMT-0500 (Central Daylight Time),436363.8000000715,A,cabinenter,O,enter,435,1,3748.3000000715256,432615.5,7793,WL,B,9.0
3,22.122999906539917,learn,37877.00009346008,Fri May 01 2026 10:43:12 GMT-0500 (Central Daylight Time),436762.7000000477,A,l,O,l,387,1,398.60000002384186,436364.10000002384,7793,WL,B,10.0
3,22.807999849319458,learn,37192.00015068054,Fri May 01 2026 10:43:12 GMT-0500 (Central Daylight Time),437448.2000000477,A,la,O,a,669,1,1084.1000000238419,436364.10000002384,7793,WL,B,10.0
3,23.0239999294281,learn,36976.0000705719,Fri May 01 2026 10:43:12 GMT-0500 (Central Daylight Time),437663.60000002384,A,lak,O,k,207,1,1299.5,436364.10000002384,7793,WL,B,10.0
3,23.490000009536743,learn,36509.99999046326,Fri May 01 2026 10:43:12 GMT-0500 (Central Daylight Time),438129.7000000477,A,lake,O,e,445,1,1765.6000000238419,436364.10000002384,7793,WL,B,10.0
3,30.221999883651733,learn,29778.000116348267,Fri May 01 2026 10:43:12 GMT-0500 (Central Daylight Time),444861.60000002384,A,lakeenter,O,enter,6716,1,8497.5,436364.10000002384,7793,WL,B,10.0
3,30.77300000190735,learn,29226.99999809265,Fri May 01 2026 10:43:12 GMT-0500 (Central Daylight Time),445413.3000000715,A,d,O,d,546,1,551.4000000953674,444861.89999997616,7793,WL,B,11.0
3,31.08899998664856,learn,28911.00001335144,Fri May 01 2026 10:43:12 GMT-0500 (Central Daylight Time),445728.8000000715,A,do,O,o,297,1,866.9000000953674,444861.89999997616,7793,WL,B,11.0
3,31.304999828338623,learn,28695.000171661377,Fri May 01 2026 10:43:12 GMT-0500 (Central Daylight Time),445944.5,A,doo,O,o,198,1,1082.6000000238419,444861.89999997616,7793,WL,B,11.0
3,31.687999963760376,learn,28312.000036239624,Fri May 01 2026 10:43:12 GMT-0500 (Central Daylight Time),446328.39999997616,A,door,O,r,363,1,1466.5,444861.89999997616,7793,WL,B,11.0
3,32.770999908447266,learn,27229.000091552734,Fri May 01 2026 10:43:12 GMT-0500 (Central Daylight Time),447410.8000000715,A,doorenter,O,enter,1070,1,2548.9000000953674,444861.89999997616,7793,WL,B,11.0
3,37.11899995803833,learn,22881.00004196167,Fri May 01 2026 10:43:12 GMT-0500 (Central Daylight Time),451759.2000000477,A,a,O,a,4341,1,4348.100000023842,447411.10000002384,7793,WL,B,12.0
3,37.501999855041504,learn,22498.000144958496,Fri May 01 2026 10:43:12 GMT-0500 (Central Daylight Time),452142.0,A,ar,O,r,375,1,4730.899999976158,447411.10000002384,7793,WL,B,12.0
3,38.753000020980835,learn,21246.999979019165,Fri May 01 2026 10:43:12 GMT-0500 (Central Daylight Time),453392.60000002384,A,arm,O,m,1240,1,5981.5,447411.10000002384,7793,WL,B,12.0
3,39.319000005722046,learn,20680.999994277954,Fri May 01 2026 10:43:12 GMT-0500 (Central Daylight Time),453958.7000000477,A,armenter,O,enter,558,1,6547.600000023842,447411.10000002384,7793,WL,B,12.0
3,60.01199984550476,learn,-11.999845504760742,Fri May 01 2026 10:43:12 GMT-0500 (Central Daylight Time),474652.2000000477,A,None,O,None,20688,1,20693.200000047684,453959.0,7793,WL,B,13.0
4,1.1679999828338623,learn,58832.00001716614,Fri May 01 2026 10:43:12 GMT-0500 (Central Daylight Time),544932.1000000238,A,s,O,s,1155,1,1168.1000000238419,543764.0,7793,WL,B,1.0
4,1.5320000648498535,learn,58467.99993515015,Fri May 01 2026 10:43:12 GMT-0500 (Central Daylight Time),545296.0,A,sk,O,k,346,1,1532.0,543764.0,7793,WL,B,1.0
4,1.815999984741211,learn,58184.00001525879,Fri May 01 2026 10:43:12 GMT-0500 (Central Daylight Time),545579.7000000477,A,ski,O,i,263,1,1815.7000000476837,543764.0,7793,WL,B,1.0
4,2.0820000171661377,learn,57917.99998283386,Fri May 01 2026 10:43:12 GMT-0500 (Central Daylight Time),545845.6000000238,A,skin,O,n,251,1,2081.600000023842,543764.0,7793,WL,B,1.0
4,2.5339999198913574,learn,57466.00008010864,Fri May 01 2026 10:43:12 GMT-0500 (Central Daylight Time),546297.8999999762,A,skinenter,O,enter,442,1,2533.899999976158,543764.0,7793,WL,B,1.0
4,2.865000009536743,learn,57134.99999046326,Fri May 01 2026 10:43:12 GMT-0500 (Central Daylight Time),546628.7000000477,A,f,O,f,318,1,330.60000002384186,546298.1000000238,7793,WL,B,2.0
4,3.0829999446868896,learn,56917.00005531311,Fri May 01 2026 10:43:12 GMT-0500 (Central Daylight Time),546846.7000000477,A,fi,O,i,211,1,548.6000000238419,546298.1000000238,7793,WL,B,2.0
4,3.315999984741211,learn,56684.00001525879,Fri May 01 2026 10:43:12 GMT-0500 (Central Daylight Time),547080.2000000477,A,fir,O,r,225,1,782.1000000238419,546298.1000000238,7793,WL,B,2.0
4,3.565999984741211,learn,56434.00001525879,Fri May 01 2026 10:43:12 GMT-0500 (Central Daylight Time),547329.3999999762,A,fire,O,e,231,1,1031.2999999523163,546298.1000000238,7793,WL,B,2.0
4,3.8989999294281006,learn,56101.0000705719,Fri May 01 2026 10:43:12 GMT-0500 (Central Daylight Time),547662.3999999762,A,fireenter,O,enter,309,1,1364.2999999523163,546298.1000000238,7793,WL,B,2.0
4,4.433000087738037,learn,55566.99991226196,Fri May 01 2026 10:43:12 GMT-0500 (Central Daylight Time),548196.8000000715,A,p,O,p,514,1,534.2000000476837,547662.6000000238,7793,WL,B,3.0
4,5.264999866485596,learn,54735.000133514404,Fri May 01 2026 10:43:12 GMT-0500 (Central Daylight Time),549028.3999999762,A,pu,O,u,816,1,1365.7999999523163,547662.6000000238,7793,WL,B,3.0
4,5.648999929428101,learn,54351.0000705719,Fri May 01 2026 10:43:12 GMT-0500 (Central Daylight Time),549413.1000000238,A,pup,O,p,360,1,1750.5,547662.6000000238,7793,WL,B,3.0
4,5.931999921798706,learn,54068.000078201294,Fri May 01 2026 10:43:12 GMT-0500 (Central Daylight Time),549696.1000000238,A,pupi,O,i,264,1,2033.5,547662.6000000238,7793,WL,B,3.0
4,6.315999984741211,learn,53684.00001525879,Fri May 01 2026 10:43:12 GMT-0500 (Central Daylight Time),550079.3000000715,A,pupil,O,l,378,1,2416.7000000476837,547662.6000000238,7793,WL,B,3.0
4,6.730999946594238,learn,53269.00005340576,Fri May 01 2026 10:43:12 GMT-0500 (Central Daylight Time),550494.3999999762,A,pupilenter,O,enter,410,1,2831.7999999523163,547662.6000000238,7793,WL,B,3.0
4,8.733000040054321,learn,51266.99995994568,Fri May 01 2026 10:43:12 GMT-0500 (Central Daylight Time),552496.8999999762,A,w,O,w,1987,1,2002.2999999523163,550494.6000000238,7793,WL,B,4.0
4,9.02999997138977,learn,50970.00002861023,Fri May 01 2026 10:43:12 GMT-0500 (Central Daylight Time),552793.6000000238,A,wi,O,i,277,1,2299.0,550494.6000000238,7793,WL,B,4.0
4,9.29699993133545,learn,50703.00006866455,Fri May 01 2026 10:43:12 GMT-0500 (Central Daylight Time),553060.8999999762,A,win,O,n,252,1,2566.2999999523163,550494.6000000238,7793,WL,B,4.0
4,9.5,learn,50500.0,Fri May 01 2026 10:43:12 GMT-0500 (Central Daylight Time),553264.1000000238,A,wind,O,d,198,1,2769.5,550494.6000000238,7793,WL,B,4.0
4,9.94700002670288,learn,50052.99997329712,Fri May 01 2026 10:43:12 GMT-0500 (Central Daylight Time),553710.8000000715,A,windo,O,o,430,1,3216.2000000476837,550494.6000000238,7793,WL,B,4.0
4,10.230000019073486,learn,49769.999980926514,Fri May 01 2026 10:43:12 GMT-0500 (Central Daylight Time),553993.3999999762,A,window,O,w,264,1,3498.7999999523163,550494.6000000238,7793,WL,B,4.0
4,10.579999923706055,learn,49420.000076293945,Fri May 01 2026 10:43:12 GMT-0500 (Central Daylight Time),554343.6000000238,A,windowenter,O,enter,332,1,3849.0,550494.6000000238,7793,WL,B,4.0
4,11.029000043869019,learn,48970.99995613098,Fri May 01 2026 10:43:12 GMT-0500 (Central Daylight Time),554792.7000000477,A,g,O,g,432,1,449.0,554343.7000000477,7793,WL,B,5.0
4,11.346999883651733,learn,48653.00011634827,Fri May 01 2026 10:43:12 GMT-0500 (Central Daylight Time),555111.1000000238,A,gr,O,r,310,1,767.3999999761581,554343.7000000477,7793,WL,B,5.0
4,11.897000074386597,learn,48102.9999256134,Fri May 01 2026 10:43:12 GMT-0500 (Central Daylight Time),555660.6000000238,A,gra,O,a,536,1,1316.8999999761581,554343.7000000477,7793,WL,B,5.0
4,12.263999938964844,learn,47736.000061035156,Fri May 01 2026 10:43:12 GMT-0500 (Central Daylight Time),556027.8999999762,A,gras,O,s,354,1,1684.1999999284744,554343.7000000477,7793,WL,B,5.0
4,12.513000011444092,learn,47486.99998855591,Fri May 01 2026 10:43:12 GMT-0500 (Central Daylight Time),556276.6000000238,A,grass,O,s,233,1,1932.8999999761581,554343.7000000477,7793,WL,B,5.0
4,12.845999956130981,learn,47154.00004386902,Fri May 01 2026 10:43:12 GMT-0500 (Central Daylight Time),556609.2000000477,A,grassenter,O,enter,320,1,2265.5,554343.7000000477,7793,WL,B,5.0
4,13.79699993133545,learn,46203.00006866455,Fri May 01 2026 10:43:12 GMT-0500 (Central Daylight Time),557560.8999999762,A,l,O,l,930,1,951.2999999523163,556609.6000000238,7793,WL,B,6.0
4,14.096999883651733,learn,45903.00011634827,Fri May 01 2026 10:43:12 GMT-0500 (Central Daylight Time),557860.5,A,la,O,a,283,1,1250.8999999761581,556609.6000000238,7793,WL,B,6.0
4,14.312999963760376,learn,45687.000036239624,Fri May 01 2026 10:43:12 GMT-0500 (Central Daylight Time),558076.5,A,lak,O,k,207,1,1466.8999999761581,556609.6000000238,7793,WL,B,6.0
4,14.578999996185303,learn,45421.0000038147,Fri May 01 2026 10:43:12 GMT-0500 (Central Daylight Time),558342.7000000477,A,lake,O,e,250,1,1733.1000000238419,556609.6000000238,7793,WL,B,6.0
4,14.894999980926514,learn,45105.000019073486,Fri May 01 2026 10:43:12 GMT-0500 (Central Daylight Time),558658.3000000715,A,lakeenter,O,enter,294,1,2048.7000000476837,556609.6000000238,7793,WL,B,6.0
4,15.328999996185303,learn,44671.0000038147,Fri May 01 2026 10:43:12 GMT-0500 (Central Daylight Time),559092.8000000715,A,c,O,c,413,1,434.3000000715256,558658.5,7793,WL,B,7.0
4,16.361000061035156,learn,43638.999938964844,Fri May 01 2026 10:43:12 GMT-0500 (Central Daylight Time),560124.8000000715,A,ca,O,a,1009,1,1466.3000000715256,558658.5,7793,WL,B,7.0
4,17.244999885559082,learn,42755.00011444092,Fri May 01 2026 10:43:12 GMT-0500 (Central Daylight Time),561008.3999999762,A,cab,O,b,865,1,2349.899999976158,558658.5,7793,WL,B,7.0
4,17.49399995803833,learn,42506.00004196167,Fri May 01 2026 10:43:12 GMT-0500 (Central Daylight Time),561257.7000000477,A,cabi,O,i,238,1,2599.2000000476837,558658.5,7793,WL,B,7.0
4,17.810999870300293,learn,42189.00012969971,Fri May 01 2026 10:43:12 GMT-0500 (Central Daylight Time),561574.8999999762,A,cabin,O,n,311,1,2916.399999976158,558658.5,7793,WL,B,7.0
4,18.361000061035156,learn,41638.999938964844,Fri May 01 2026 10:43:12 GMT-0500 (Central Daylight Time),562124.8000000715,A,cabinenter,O,enter,528,1,3466.3000000715256,558658.5,7793,WL,B,7.0
4,18.89400005340576,learn,41105.99994659424,Fri May 01 2026 10:43:12 GMT-0500 (Central Daylight Time),562657.8000000715,A,s,O,s,521,1,532.7000000476837,562125.1000000238,7793,WL,B,8.0
4,19.361000061035156,learn,40638.999938964844,Fri May 01 2026 10:43:12 GMT-0500 (Central Daylight Time),563124.3999999762,A,sk,O,k,444,1,999.2999999523163,562125.1000000238,7793,WL,B,8.0
4,20.009999990463257,learn,39990.00000953674,Fri May 01 2026 10:43:12 GMT-0500 (Central Daylight Time),563773.7000000477,A,ski,O,i,624,1,1648.6000000238419,562125.1000000238,7793,WL,B,8.0
4,20.295000076293945,learn,39704.999923706055,Fri May 01 2026 10:43:12 GMT-0500 (Central Daylight Time),564058.3999999762,A,skin,O,n,263,1,1933.2999999523163,562125.1000000238,7793,WL,B,8.0
4,20.76200008392334,learn,39237.99991607666,Fri May 01 2026 10:43:12 GMT-0500 (Central Daylight Time),564525.5,A,skinenter,O,enter,454,1,2400.399999976158,562125.1000000238,7793,WL,B,8.0
4,21.175999879837036,learn,38824.000120162964,Fri May 01 2026 10:43:12 GMT-0500 (Central Daylight Time),564939.8000000715,A,w,O,w,393,1,414.10000002384186,564525.7000000477,7793,WL,B,9.0
4,21.491999864578247,learn,38508.00013542175,Fri May 01 2026 10:43:12 GMT-0500 (Central Daylight Time),565256.2000000477,A,wi,O,i,298,1,730.5,564525.7000000477,7793,WL,B,9.0
4,21.759999990463257,learn,38240.00000953674,Fri May 01 2026 10:43:12 GMT-0500 (Central Daylight Time),565523.8000000715,A,wif,O,f,253,1,998.1000000238419,564525.7000000477,7793,WL,B,9.0
4,22.092999935150146,learn,37907.00006484985,Fri May 01 2026 10:43:12 GMT-0500 (Central Daylight Time),565857.2000000477,A,wife,O,e,314,1,1331.5,564525.7000000477,7793,WL,B,9.0
4,22.44099998474121,learn,37559.00001525879,Fri May 01 2026 10:43:12 GMT-0500 (Central Daylight Time),566205.0,A,wifeenter,O,enter,342,1,1679.2999999523163,564525.7000000477,7793,WL,B,9.0
4,22.808000087738037,learn,37191.99991226196,Fri May 01 2026 10:43:12 GMT-0500 (Central Daylight Time),566571.6000000238,A,s,O,s,355,1,366.39999997615814,566205.2000000477,7793,WL,B,10.0
4,23.858999967575073,learn,36141.00003242493,Fri May 01 2026 10:43:12 GMT-0500 (Central Daylight Time),567622.5,A,st,O,t,1044,1,1417.2999999523163,566205.2000000477,7793,WL,B,10.0
4,24.509000062942505,learn,35490.999937057495,Fri May 01 2026 10:43:12 GMT-0500 (Central Daylight Time),568272.7000000477,A,sta,O,a,646,1,2067.5,566205.2000000477,7793,WL,B,10.0
4,25.491999864578247,learn,34508.00013542175,Fri May 01 2026 10:43:12 GMT-0500 (Central Daylight Time),569255.3000000715,A,star,O,r,975,1,3050.100000023842,566205.2000000477,7793,WL,B,10.0
4,33.706000089645386,learn,26293.999910354614,Fri May 01 2026 10:43:12 GMT-0500 (Central Daylight Time),577469.3000000715,A,stara,O,a,8192,1,11264.100000023842,566205.2000000477,7793,WL,B,10.0
4,34.206000089645386,learn,25793.999910354614,Fri May 01 2026 10:43:12 GMT-0500 (Central Daylight Time),577969.7000000477,A,starar,O,r,481,1,11764.5,566205.2000000477,7793,WL,B,10.0
4,34.79099988937378,learn,25209.00011062622,Fri May 01 2026 10:43:12 GMT-0500 (Central Daylight Time),578554.7000000477,A,stararm,O,m,566,1,12349.5,566205.2000000477,7793,WL,B,10.0
4,35.33999991416931,learn,24660.00008583069,Fri May 01 2026 10:43:12 GMT-0500 (Central Daylight Time),579103.3000000715,A,stararmenter,O,enter,532,1,12898.100000023842,566205.2000000477,7793,WL,B,10.0
4,60.01200008392334,learn,-12.000083923339844,Fri May 01 2026 10:43:12 GMT-0500 (Central Daylight Time),603778.1000000238,A,None,O,None,24670,1,24674.600000023842,579103.5,7793,WL,B,11.0
5,0.9670000076293945,learn,60000.0,Fri May 01 2026 10:43:12 GMT-0500 (Central Daylight Time),676605.2000000477,A,p,O,p,941,1,966.3000000715256,675638.8999999762,7793,WL,B,1.0
5,1.4820001125335693,learn,60000.0,Fri May 01 2026 10:43:12 GMT-0500 (Central Daylight Time),677120.8999999762,A,pi,O,i,496,1,1482.0,675638.8999999762,7793,WL,B,1.0
5,1.7000000476837158,learn,60000.0,Fri May 01 2026 10:43:12 GMT-0500 (Central Daylight Time),677338.8000000715,A,pip,O,p,194,1,1699.9000000953674,675638.8999999762,7793,WL,B,1.0
5,2.18500018119812,learn,60000.0,Fri May 01 2026 10:43:12 GMT-0500 (Central Daylight Time),677823.2000000477,A,pipe,O,e,474,1,2184.3000000715256,675638.8999999762,7793,WL,B,1.0
5,2.6660001277923584,learn,60000.0,Fri May 01 2026 10:43:12 GMT-0500 (Central Daylight Time),678304.6000000238,A,pipeenter,O,enter,457,1,2665.7000000476837,675638.8999999762,7793,WL,B,1.0
5,2.9650001525878906,learn,60000.0,Fri May 01 2026 10:43:12 GMT-0500 (Central Daylight Time),678603.7000000477,A,s,O,s,278,1,298.89999997615814,678304.8000000715,7793,WL,B,2.0
5,3.4150002002716064,learn,60000.0,Fri May 01 2026 10:43:12 GMT-0500 (Central Daylight Time),679053.3999999762,A,sk,O,k,432,1,748.5999999046326,678304.8000000715,7793,WL,B,2.0
5,3.682000160217285,learn,60000.0,Fri May 01 2026 10:43:12 GMT-0500 (Central Daylight Time),679320.7000000477,A,ski,O,i,248,1,1015.8999999761581,678304.8000000715,7793,WL,B,2.0
5,3.9810001850128174,learn,60000.0,Fri May 01 2026 10:43:12 GMT-0500 (Central Daylight Time),679620.0,A,skin,O,n,284,1,1315.1999999284744,678304.8000000715,7793,WL,B,2.0
5,4.4150002002716064,learn,60000.0,Fri May 01 2026 10:43:12 GMT-0500 (Central Daylight Time),680053.7000000477,A,skinenter,O,enter,424,1,1748.8999999761581,678304.8000000715,7793,WL,B,2.0
5,4.732000112533569,learn,60000.0,Fri May 01 2026 10:43:12 GMT-0500 (Central Daylight Time),680370.7000000477,A,a,O,a,306,1,316.8000000715256,680053.8999999762,7793,WL,B,3.0
5,5.115000009536743,learn,60000.0,Fri May 01 2026 10:43:12 GMT-0500 (Central Daylight Time),680753.7000000477,A,ar,O,r,362,1,699.8000000715256,680053.8999999762,7793,WL,B,3.0
5,5.581000089645386,learn,60000.0,Fri May 01 2026 10:43:12 GMT-0500 (Central Daylight Time),681219.6000000238,A,arm,O,m,450,1,1165.7000000476837,680053.8999999762,7793,WL,B,3.0
5,5.981000185012817,learn,60000.0,Fri May 01 2026 10:43:12 GMT-0500 (Central Daylight Time),681619.2000000477,A,armenter,O,enter,386,1,1565.3000000715256,680053.8999999762,7793,WL,B,3.0
5,6.698000192642212,learn,60000.0,Fri May 01 2026 10:43:12 GMT-0500 (Central Daylight Time),682336.3999999762,A,p,O,p,708,1,717.0,681619.3999999762,7793,WL,B,4.0
5,7.080000162124634,learn,60000.0,Fri May 01 2026 10:43:12 GMT-0500 (Central Daylight Time),682718.7000000477,A,pi,O,i,365,1,1099.3000000715256,681619.3999999762,7793,WL,B,4.0
5,7.397000074386597,learn,60000.0,Fri May 01 2026 10:43:12 GMT-0500 (Central Daylight Time),683035.7000000477,A,pip,O,p,299,1,1416.3000000715256,681619.3999999762,7793,WL,B,4.0
5,7.664000034332275,learn,60000.0,Fri May 01 2026 10:43:12 GMT-0500 (Central Daylight Time),683302.3999999762,A,pipe,O,e,259,1,1683.0,681619.3999999762,7793,WL,B,4.0
5,7.946000099182129,learn,60000.0,Fri May 01 2026 10:43:12 GMT-0500 (Central Daylight Time),683584.5,A,pipeenter,O,enter,269,1,1965.1000000238419,681619.3999999762,7793,WL,B,4.0
5,8.246999979019165,learn,60000.0,Fri May 01 2026 10:43:12 GMT-0500 (Central Daylight Time),683885.1000000238,A,c,O,c,287,1,300.39999997615814,683584.7000000477,7793,WL,B,5.0
5,8.52999997138977,learn,60000.0,Fri May 01 2026 10:43:12 GMT-0500 (Central Daylight Time),684168.2000000477,A,cl,O,l,270,1,583.5,683584.7000000477,7793,WL,B,5.0
5,8.830000162124634,learn,60000.0,Fri May 01 2026 10:43:12 GMT-0500 (Central Daylight Time),684468.6000000238,A,clo,O,o,292,1,883.8999999761581,683584.7000000477,7793,WL,B,5.0
5,9.196000099182129,learn,60000.0,Fri May 01 2026 10:43:12 GMT-0500 (Central Daylight Time),684835.0,A,cloc,O,c,351,1,1250.2999999523163,683584.7000000477,7793,WL,B,5.0
5,9.514000177383423,learn,60000.0,Fri May 01 2026 10:43:12 GMT-0500 (Central Daylight Time),685152.3000000715,A,clock,O,k,294,1,1567.6000000238419,683584.7000000477,7793,WL,B,5.0
5,10.330000162124634,learn,60000.0,Fri May 01 2026 10:43:12 GMT-0500 (Central Daylight Time),685968.8999999762,A,clockenter,O,enter,803,1,2384.1999999284744,683584.7000000477,7793,WL,B,5.0
5,10.945000171661377,learn,60000.0,Fri May 01 2026 10:43:12 GMT-0500 (Central Daylight Time),686583.7000000477,A,s,O,s,606,1,614.6000000238419,685969.1000000238,7793,WL,B,6.0
5,11.279000043869019,learn,60000.0,Fri May 01 2026 10:43:12 GMT-0500 (Central Daylight Time),686917.8999999762,A,st,O,t,328,1,948.7999999523163,685969.1000000238,7793,WL,B,6.0
5,11.84600019454956,learn,60000.0,Fri May 01 2026 10:43:12 GMT-0500 (Central Daylight Time),687484.5,A,sta,O,a,542,1,1515.3999999761581,685969.1000000238,7793,WL,B,6.0
5,12.44700002670288,learn,60000.0,Fri May 01 2026 10:43:12 GMT-0500 (Central Daylight Time),688085.1000000238,A,star,O,r,595,1,2116.0,685969.1000000238,7793,WL,B,6.0
5,12.812000036239624,learn,60000.0,Fri May 01 2026 10:43:12 GMT-0500 (Central Daylight Time),688450.8000000715,A,starenter,O,enter,354,1,2481.7000000476837,685969.1000000238,7793,WL,B,6.0
5,13.879000186920166,learn,60000.0,Fri May 01 2026 10:43:12 GMT-0500 (Central Daylight Time),689517.8000000715,A,c,O,c,1054,1,1066.8000000715256,688451.0,7793,WL,B,7.0
5,14.162000179290771,learn,60000.0,Fri May 01 2026 10:43:12 GMT-0500 (Central Daylight Time),689800.8000000715,A,ca,O,a,274,1,1349.8000000715256,688451.0,7793,WL,B,7.0
5,14.561000108718872,learn,60000.0,Fri May 01 2026 10:43:12 GMT-0500 (Central Daylight Time),690200.0,A,cab,O,b,385,1,1749.0,688451.0,7793,WL,B,7.0
5,14.960000038146973,learn,60000.0,Fri May 01 2026 10:43:12 GMT-0500 (Central Daylight Time),690599.1000000238,A,cabi,O,i,391,1,2148.100000023842,688451.0,7793,WL,B,7.0
5,15.26200008392334,learn,60000.0,Fri May 01 2026 10:43:12 GMT-0500 (Central Daylight Time),690900.5,A,cabin,O,n,298,1,2449.5,688451.0,7793,WL,B,7.0
5,15.67799997329712,learn,60000.0,Fri May 01 2026 10:43:12 GMT-0500 (Central Daylight Time),691316.8999999762,A,cabinenter,O,enter,399,1,2865.899999976158,688451.0,7793,WL,B,7.0
5,16.17799997329712,learn,60000.0,Fri May 01 2026 10:43:12 GMT-0500 (Central Daylight Time),691816.7000000477,A,l,O,l,483,1,499.60000002384186,691317.1000000238,7793,WL,B,8.0
5,16.44600009918213,learn,60000.0,Fri May 01 2026 10:43:12 GMT-0500 (Central Daylight Time),692084.6000000238,A,la,O,a,262,1,767.5,691317.1000000238,7793,WL,B,8.0
5,16.67900013923645,learn,60000.0,Fri May 01 2026 10:43:12 GMT-0500 (Central Daylight Time),692317.3999999762,A,lak,O,k,218,1,1000.2999999523163,691317.1000000238,7793,WL,B,8.0
5,16.95900011062622,learn,60000.0,Fri May 01 2026 10:43:12 GMT-0500 (Central Daylight Time),692597.8000000715,A,lake,O,e,272,1,1280.7000000476837,691317.1000000238,7793,WL,B,8.0
5,17.361999988555908,learn,60000.0,Fri May 01 2026 10:43:12 GMT-0500 (Central Daylight Time),693000.3999999762,A,lakeenter,O,enter,387,1,1683.2999999523163,691317.1000000238,7793,WL,B,8.0
5,17.761000156402588,learn,60000.0,Fri May 01 2026 10:43:12 GMT-0500 (Central Daylight Time),693399.8000000715,A,p,O,p,392,1,399.2000000476837,693000.6000000238,7793,WL,B,9.0
5,18.128000020980835,learn,60000.0,Fri May 01 2026 10:43:12 GMT-0500 (Central Daylight Time),693766.3999999762,A,pu,O,u,350,1,765.7999999523163,693000.6000000238,7793,WL,B,9.0
5,18.478000164031982,learn,60000.0,Fri May 01 2026 10:43:12 GMT-0500 (Central Daylight Time),694116.2000000477,A,pup,O,p,336,1,1115.6000000238419,693000.6000000238,7793,WL,B,9.0
5,18.993000030517578,learn,60000.0,Fri May 01 2026 10:43:12 GMT-0500 (Central Daylight Time),694631.3999999762,A,pupi,O,i,498,1,1630.7999999523163,693000.6000000238,7793,WL,B,9.0
5,19.460000038146973,learn,60000.0,Fri May 01 2026 10:43:12 GMT-0500 (Central Daylight Time),695098.2000000477,A,pupil,O,l,449,1,2097.600000023842,693000.6000000238,7793,WL,B,9.0
5,19.943000078201294,learn,60000.0,Fri May 01 2026 10:43:12 GMT-0500 (Central Daylight Time),695581.6000000238,A,pupilenter,O,enter,470,1,2581.0,693000.6000000238,7793,WL,B,9.0
5,20.942000150680542,learn,60000.0,Fri May 01 2026 10:43:12 GMT-0500 (Central Daylight Time),696581.0,A,w,O,w,993,1,999.1999999284744,695581.8000000715,7793,WL,B,10.0
5,21.210000038146973,learn,60000.0,Fri May 01 2026 10:43:12 GMT-0500 (Central Daylight Time),696848.8999999762,A,wi,O,i,251,1,1267.0999999046326,695581.8000000715,7793,WL,B,10.0
5,21.460000038146973,learn,60000.0,Fri May 01 2026 10:43:12 GMT-0500 (Central Daylight Time),697098.2000000477,A,win,O,n,231,1,1516.3999999761581,695581.8000000715,7793,WL,B,10.0
5,24.258000135421753,learn,60000.0,Fri May 01 2026 10:43:12 GMT-0500 (Central Daylight Time),699896.3999999762,A,wind,O,d,2788,1,4314.599999904633,695581.8000000715,7793,WL,B,10.0
5,24.509999990463257,learn,60000.0,Fri May 01 2026 10:43:12 GMT-0500 (Central Daylight Time),700148.2000000477,A,windo,O,o,230,1,4566.399999976158,695581.8000000715,7793,WL,B,10.0
5,24.759000062942505,learn,60000.0,Fri May 01 2026 10:43:12 GMT-0500 (Central Daylight Time),700397.2000000477,A,window,O,w,234,1,4815.399999976158,695581.8000000715,7793,WL,B,10.0
5,25.657000064849854,learn,60000.0,Fri May 01 2026 10:43:12 GMT-0500 (Central Daylight Time),701295.7000000477,A,windowenter,O,enter,890,1,5713.899999976158,695581.8000000715,7793,WL,B,10.0
5,26.091000080108643,learn,60000.0,Fri May 01 2026 10:43:12 GMT-0500 (Central Daylight Time),701729.6000000238,A,s,O,s,423,1,433.7000000476837,701295.8999999762,7793,WL,B,11.0
5,26.725000143051147,learn,60000.0,Fri May 01 2026 10:43:12 GMT-0500 (Central Daylight Time),702363.1000000238,A,sk,O,k,613,1,1067.2000000476837,701295.8999999762,7793,WL,B,11.0
5,27.02400016784668,learn,60000.0,Fri May 01 2026 10:43:12 GMT-0500 (Central Daylight Time),702663.0,A,ski,O,i,283,1,1367.1000000238419,701295.8999999762,7793,WL,B,11.0
5,27.308000087738037,learn,60000.0,Fri May 01 2026 10:43:12 GMT-0500 (Central Daylight Time),702947.0,A,skin,O,n,266,1,1651.1000000238419,701295.8999999762,7793,WL,B,11.0
5,27.927000045776367,learn,60000.0,Fri May 01 2026 10:43:12 GMT-0500 (Central Daylight Time),703565.5,A,sking,O,g,612,1,2269.600000023842,701295.8999999762,7793,WL,B,11.0
5,28.241000175476074,learn,60000.0,Fri May 01 2026 10:43:12 GMT-0500 (Central Daylight Time),703879.8000000715,A,skingr,O,r,304,1,2583.9000000953674,701295.8999999762,7793,WL,B,11.0
5,28.60700011253357,learn,60000.0,Fri May 01 2026 10:43:12 GMT-0500 (Central Daylight Time),704245.6000000238,A,skingra,O,a,360,1,2949.7000000476837,701295.8999999762,7793,WL,B,11.0
5,28.926000118255615,learn,60000.0,Fri May 01 2026 10:43:12 GMT-0500 (Central Daylight Time),704564.2000000477,A,skingras,O,s,293,1,3268.3000000715256,701295.8999999762,7793,WL,B,11.0
5,29.124000072479248,learn,60000.0,Fri May 01 2026 10:43:12 GMT-0500 (Central Daylight Time),704762.7000000477,A,skingrass,O,s,179,1,3466.8000000715256,701295.8999999762,7793,WL,B,11.0
5,29.424000024795532,learn,60000.0,Fri May 01 2026 10:43:12 GMT-0500 (Central Daylight Time),705063.0,A,skingrassenter,O,enter,277,1,3767.100000023842,701295.8999999762,7793,WL,B,11.0
5,29.823000192642212,learn,60000.0,Fri May 01 2026 10:43:12 GMT-0500 (Central Daylight Time),705462.0,A,a,O,a,386,1,398.6999999284744,705063.3000000715,7793,WL,B,12.0
5,30.223000049591064,learn,60000.0,Fri May 01 2026 10:43:12 GMT-0500 (Central Daylight Time),705861.3999999762,A,ar,O,r,383,1,798.0999999046326,705063.3000000715,7793,WL,B,12.0
5,30.957000017166138,learn,60000.0,Fri May 01 2026 10:43:12 GMT-0500 (Central Daylight Time),706595.3000000715,A,arm,O,m,712,1,1532.0,705063.3000000715,7793,WL,B,12.0
5,32.58899998664856,learn,60000.0,Fri May 01 2026 10:43:12 GMT-0500 (Central Daylight Time),708227.3000000715,A,armenter,O,enter,1610,1,3164.0,705063.3000000715,7793,WL,B,12.0
5,33.25600004196167,learn,60000.0,Fri May 01 2026 10:43:12 GMT-0500 (Central Daylight Time),708894.3999999762,A,w,O,w,659,1,666.8999999761581,708227.5,7793,WL,B,13.0
5,33.57200002670288,learn,60000.0,Fri May 01 2026 10:43:12 GMT-0500 (Central Daylight Time),709211.0,A,wi,O,i,304,1,983.5,708227.5,7793,WL,B,13.0
5,33.82300019264221,learn,60000.0,Fri May 01 2026 10:43:12 GMT-0500 (Central Daylight Time),709462.0,A,win,O,n,236,1,1234.5,708227.5,7793,WL,B,13.0
5,34.121999979019165,learn,60000.0,Fri May 01 2026 10:43:12 GMT-0500 (Central Daylight Time),709760.3000000715,A,wind,O,d,281,1,1532.8000000715256,708227.5,7793,WL,B,13.0
5,34.33800005912781,learn,60000.0,Fri May 01 2026 10:43:12 GMT-0500 (Central Daylight Time),709976.7000000477,A,windo,O,o,197,1,1749.2000000476837,708227.5,7793,WL,B,13.0
5,34.723000049591064,learn,60000.0,Fri May 01 2026 10:43:12 GMT-0500 (Central Daylight Time),710361.2000000477,A,window,O,w,367,1,2133.7000000476837,708227.5,7793,WL,B,13.0
5,35.90499997138977,learn,60000.0,Fri May 01 2026 10:43:12 GMT-0500 (Central Daylight Time),711543.1000000238,A,windowenter,O,enter,1166,1,3315.600000023842,708227.5,7793,WL,B,13.0
5,36.206000089645386,learn,60000.0,Fri May 01 2026 10:43:12 GMT-0500 (Central Daylight Time),711844.5,A,f,O,f,296,1,301.10000002384186,711543.3999999762,7793,WL,B,14.0
5,36.555999994277954,learn,60000.0,Fri May 01 2026 10:43:12 GMT-0500 (Central Daylight Time),712194.1000000238,A,fi,O,i,330,1,650.7000000476837,711543.3999999762,7793,WL,B,14.0
5,36.9210000038147,learn,60000.0,Fri May 01 2026 10:43:12 GMT-0500 (Central Daylight Time),712559.3000000715,A,fir,O,r,350,1,1015.9000000953674,711543.3999999762,7793,WL,B,14.0
5,37.23800015449524,learn,60000.0,Fri May 01 2026 10:43:12 GMT-0500 (Central Daylight Time),712876.3000000715,A,fire,O,e,305,1,1332.9000000953674,711543.3999999762,7793,WL,B,14.0
5,37.80400013923645,learn,60000.0,Fri May 01 2026 10:43:12 GMT-0500 (Central Daylight Time),713442.3000000715,A,fireenter,O,enter,546,1,1898.9000000953674,711543.3999999762,7793,WL,B,14.0
5,38.105000019073486,learn,60000.0,Fri May 01 2026 10:43:12 GMT-0500 (Central Daylight Time),713744.0,A,c,O,c,287,1,301.5,713442.5,7793,WL,B,15.0
5,38.40300011634827,learn,60000.0,Fri May 01 2026 10:43:12 GMT-0500 (Central Daylight Time),714041.8000000715,A,ci,O,i,278,1,599.3000000715256,713442.5,7793,WL,B,15.0
5,38.63700008392334,learn,60000.0,Fri May 01 2026 10:43:12 GMT-0500 (Central Daylight Time),714275.5,A,cit,O,t,216,1,833.0,713442.5,7793,WL,B,15.0
5,38.88800001144409,learn,60000.0,Fri May 01 2026 10:43:12 GMT-0500 (Central Daylight Time),714526.2000000477,A,city,O,y,243,1,1083.7000000476837,713442.5,7793,WL,B,15.0
5,41.57000017166138,learn,60000.0,Fri May 01 2026 10:43:12 GMT-0500 (Central Daylight Time),717208.5,A,cityenter,O,enter,2666,1,3766.0,713442.5,7793,WL,B,15.0
6,0.8969998359680176,distr,59103.00016403198,Fri May 01 2026 10:43:12 GMT-0500 (Central Daylight Time),799531.5,B,b,O,b,884,1,897.1999999284744,798634.3000000715,7793,WL,B,1.0
6,1.4149999618530273,distr,58585.00003814697,Fri May 01 2026 10:43:12 GMT-0500 (Central Daylight Time),800049.2000000477,B,ba,O,a,505,1,1414.8999999761581,798634.3000000715,7793,WL,B,1.0
6,1.8309998512268066,distr,58169.00014877319,Fri May 01 2026 10:43:12 GMT-0500 (Central Daylight Time),800465.2000000477,B,bab,O,b,396,1,1830.8999999761581,798634.3000000715,7793,WL,B,1.0
6,2.179999828338623,distr,57820.00017166138,Fri May 01 2026 10:43:12 GMT-0500 (Central Daylight Time),800814.6000000238,B,baby,O,y,340,1,2180.2999999523163,798634.3000000715,7793,WL,B,1.0
6,2.8469998836517334,distr,57153.00011634827,Fri May 01 2026 10:43:12 GMT-0500 (Central Daylight Time),801481.3999999762,B,babyenter,O,enter,647,1,2847.0999999046326,798634.3000000715,7793,WL,B,1.0
6,3.5460000038146973,distr,56453.9999961853,Fri May 01 2026 10:43:12 GMT-0500 (Central Daylight Time),802180.8999999762,B,o,O,o,687,1,699.2999999523163,801481.6000000238,7793,WL,B,2.0
6,3.9149999618530273,distr,56085.00003814697,Fri May 01 2026 10:43:12 GMT-0500 (Central Daylight Time),802548.8999999762,B,oc,O,c,360,1,1067.2999999523163,801481.6000000238,7793,WL,B,2.0
6,4.264999866485596,distr,55735.000133514404,Fri May 01 2026 10:43:12 GMT-0500 (Central Daylight Time),802899.1000000238,B,oce,O,e,337,1,1417.5,801481.6000000238,7793,WL,B,2.0
6,4.578999996185303,distr,55421.0000038147,Fri May 01 2026 10:43:12 GMT-0500 (Central Daylight Time),803213.7000000477,B,ocea,O,a,299,1,1732.1000000238419,801481.6000000238,7793,WL,B,2.0
6,4.8459999561309814,distr,55154.00004386902,Fri May 01 2026 10:43:12 GMT-0500 (Central Daylight Time),803480.3999999762,B,ocean,O,n,255,1,1998.7999999523163,801481.6000000238,7793,WL,B,2.0
6,5.312999963760376,distr,54687.000036239624,Fri May 01 2026 10:43:12 GMT-0500 (Central Daylight Time),803947.5,B,oceanenter,O,enter,454,1,2465.899999976158,801481.6000000238,7793,WL,B,2.0
6,5.730000019073486,distr,54269.999980926514,Fri May 01 2026 10:43:12 GMT-0500 (Central Daylight Time),804364.7000000477,B,l,O,l,396,1,416.89999997615814,803947.8000000715,7793,WL,B,3.0
6,5.995999813079834,distr,54004.000186920166,Fri May 01 2026 10:43:12 GMT-0500 (Central Daylight Time),804630.1000000238,B,li,O,i,257,1,682.2999999523163,803947.8000000715,7793,WL,B,3.0
6,6.312999963760376,distr,53687.000036239624,Fri May 01 2026 10:43:12 GMT-0500 (Central Daylight Time),804947.3000000715,B,lis,O,s,302,1,999.5,803947.8000000715,7793,WL,B,3.0
6,6.694999933242798,distr,53305.0000667572,Fri May 01 2026 10:43:12 GMT-0500 (Central Daylight Time),805329.8000000715,B,list,O,t,370,1,1382.0,803947.8000000715,7793,WL,B,3.0
6,7.078999996185303,distr,52921.0000038147,Fri May 01 2026 10:43:12 GMT-0500 (Central Daylight Time),805713.2000000477,B,listenter,O,enter,372,1,1765.3999999761581,803947.8000000715,7793,WL,B,3.0
6,7.578999996185303,distr,52421.0000038147,Fri May 01 2026 10:43:12 GMT-0500 (Central Daylight Time),806213.7000000477,B,f,O,f,487,1,500.10000002384186,805713.6000000238,7793,WL,B,4.0
6,7.86299991607666,distr,52137.00008392334,Fri May 01 2026 10:43:12 GMT-0500 (Central Daylight Time),806497.8000000715,B,fr,O,r,262,1,784.2000000476837,805713.6000000238,7793,WL,B,4.0
6,8.09500002861023,distr,51904.99997138977,Fri May 01 2026 10:43:12 GMT-0500 (Central Daylight Time),806729.1000000238,B,fri,O,i,212,1,1015.5,805713.6000000238,7793,WL,B,4.0
6,8.378000020980835,distr,51621.999979019165,Fri May 01 2026 10:43:12 GMT-0500 (Central Daylight Time),807011.8000000715,B,frie,O,e,267,1,1298.2000000476837,805713.6000000238,7793,WL,B,4.0
6,8.678999900817871,distr,51321.00009918213,Fri May 01 2026 10:43:12 GMT-0500 (Central Daylight Time),807313.6000000238,B,frien,O,n,290,1,1600.0,805713.6000000238,7793,WL,B,4.0
6,8.911999940872192,distr,51088.00005912781,Fri May 01 2026 10:43:12 GMT-0500 (Central Daylight Time),807546.2000000477,B,friend,O,d,220,1,1832.6000000238419,805713.6000000238,7793,WL,B,4.0
6,15.809999942779541,distr,44190.00005722046,Fri May 01 2026 10:43:12 GMT-0500 (Central Daylight Time),814444.0,B,friendc,O,c,6886,1,8730.399999976158,805713.6000000238,7793,WL,B,4.0
6,16.075999975204468,distr,43924.00002479553,Fri May 01 2026 10:43:12 GMT-0500 (Central Daylight Time),814710.8000000715,B,friendci,O,i,246,1,8997.200000047684,805713.6000000238,7793,WL,B,4.0
6,16.359999895095825,distr,43640.000104904175,Fri May 01 2026 10:43:12 GMT-0500 (Central Daylight Time),814994.7000000477,B,friendcit,O,t,273,1,9281.100000023842,805713.6000000238,7793,WL,B,4.0
6,16.644999980926514,distr,43355.000019073486,Fri May 01 2026 10:43:12 GMT-0500 (Central Daylight Time),815279.1000000238,B,friendcity,O,y,279,1,9565.5,805713.6000000238,7793,WL,B,4.0
6,18.442999839782715,distr,41557.000160217285,Fri May 01 2026 10:43:12 GMT-0500 (Central Daylight Time),817077.0,B,friendcityb,O,b,1785,1,11363.399999976158,805713.6000000238,7793,WL,B,4.0
6,18.72599983215332,distr,41274.00016784668,Fri May 01 2026 10:43:12 GMT-0500 (Central Daylight Time),817360.0,B,friendcitybu,O,u,266,1,11646.399999976158,805713.6000000238,7793,WL,B,4.0
6,19.14199995994568,distr,40858.00004005432,Fri May 01 2026 10:43:12 GMT-0500 (Central Daylight Time),817776.3000000715,B,friendcitybui,O,i,403,1,12062.700000047684,805713.6000000238,7793,WL,B,4.0
6,20.57699990272522,distr,39423.00009727478,Fri May 01 2026 10:43:12 GMT-0500 (Central Daylight Time),819210.8999999762,B,friendcitybu,O,backspace,1423,1,13497.299999952316,805713.6000000238,7793,WL,B,4.0
6,20.857999801635742,distr,39142.00019836426,Fri May 01 2026 10:43:12 GMT-0500 (Central Daylight Time),819492.3999999762,B,friendcityb,O,backspace,268,1,13778.799999952316,805713.6000000238,7793,WL,B,4.0
6,21.092000007629395,distr,38907.999992370605,Fri May 01 2026 10:43:12 GMT-0500 (Central Daylight Time),819725.8000000715,B,friendcity,O,backspace,226,1,14012.200000047684,805713.6000000238,7793,WL,B,4.0
6,21.375,distr,38625.0,Fri May 01 2026 10:43:12 GMT-0500 (Central Daylight Time),820009.5,B,friendcit,O,backspace,264,1,14295.899999976158,805713.6000000238,7793,WL,B,4.0
6,21.607999801635742,distr,38392.00019836426,Fri May 01 2026 10:43:12 GMT-0500 (Central Daylight Time),820242.6000000238,B,friendci,O,backspace,222,1,14529.0,805713.6000000238,7793,WL,B,4.0
6,21.824999809265137,distr,38175.00019073486,Fri May 01 2026 10:43:12 GMT-0500 (Central Daylight Time),820459.6000000238,B,friendc,O,backspace,206,1,14746.0,805713.6000000238,7793,WL,B,4.0
6,22.10699987411499,distr,37893.00012588501,Fri May 01 2026 10:43:12 GMT-0500 (Central Daylight Time),820741.7000000477,B,friend,O,backspace,278,1,15028.100000023842,805713.6000000238,7793,WL,B,4.0
6,23.258999824523926,distr,36741.000175476074,Fri May 01 2026 10:43:12 GMT-0500 (Central Daylight Time),821893.0,B,friendenter,O,enter,1145,1,16179.399999976158,805713.6000000238,7793,WL,B,4.0
6,24.389999866485596,distr,35610.000133514404,Fri May 01 2026 10:43:12 GMT-0500 (Central Daylight Time),823024.7000000477,B,c,O,c,1115,1,1131.5,821893.2000000477,7793,WL,B,5.0
6,24.656999826431274,distr,35343.000173568726,Fri May 01 2026 10:43:12 GMT-0500 (Central Daylight Time),823291.6000000238,B,ci,O,i,255,1,1398.3999999761581,821893.2000000477,7793,WL,B,5.0
6,24.907999992370605,distr,35092.000007629395,Fri May 01 2026 10:43:12 GMT-0500 (Central Daylight Time),823542.0,B,cit,O,t,244,1,1648.7999999523163,821893.2000000477,7793,WL,B,5.0
6,25.125,distr,34875.0,Fri May 01 2026 10:43:12 GMT-0500 (Central Daylight Time),823759.2000000477,B,city,O,y,207,1,1866.0,821893.2000000477,7793,WL,B,5.0
6,25.674000024795532,distr,34325.99997520447,Fri May 01 2026 10:43:12 GMT-0500 (Central Daylight Time),824307.8999999762,B,cityf,O,f,534,1,2414.6999999284744,821893.2000000477,7793,WL,B,5.0
6,25.9229998588562,distr,34077.0001411438,Fri May 01 2026 10:43:12 GMT-0500 (Central Daylight Time),824557.2000000477,B,cityfr,O,r,236,1,2664.0,821893.2000000477,7793,WL,B,5.0
6,26.10699987411499,distr,33893.00012588501,Fri May 01 2026 10:43:12 GMT-0500 (Central Daylight Time),824741.0,B,cityfri,O,i,176,1,2847.7999999523163,821893.2000000477,7793,WL,B,5.0
6,26.655999898910522,distr,33344.00010108948,Fri May 01 2026 10:43:12 GMT-0500 (Central Daylight Time),825290.7000000477,B,cityfrie,O,e,539,1,3397.5,821893.2000000477,7793,WL,B,5.0
6,26.889999866485596,distr,33110.000133514404,Fri May 01 2026 10:43:12 GMT-0500 (Central Daylight Time),825524.1000000238,B,cityfrien,O,n,220,1,3630.899999976158,821893.2000000477,7793,WL,B,5.0
6,27.122999906539917,distr,32877.00009346008,Fri May 01 2026 10:43:12 GMT-0500 (Central Daylight Time),825757.3000000715,B,cityfriend,O,d,219,1,3864.100000023842,821893.2000000477,7793,WL,B,5.0
6,27.58899998664856,distr,32411.00001335144,Fri May 01 2026 10:43:12 GMT-0500 (Central Daylight Time),826222.8000000715,B,cityfriendp,O,p,450,1,4329.600000023842,821893.2000000477,7793,WL,B,5.0
6,27.871999979019165,distr,32128.000020980835,Fri May 01 2026 10:43:12 GMT-0500 (Central Daylight Time),826506.7000000477,B,cityfriendpa,O,a,272,1,4613.5,821893.2000000477,7793,WL,B,5.0
6,28.055999994277954,distr,31944.000005722046,Fri May 01 2026 10:43:12 GMT-0500 (Central Daylight Time),826689.8999999762,B,cityfriendpal,O,l,171,1,4796.699999928474,821893.2000000477,7793,WL,B,5.0
6,28.288999795913696,distr,31711.000204086304,Fri May 01 2026 10:43:12 GMT-0500 (Central Daylight Time),826923.5,B,cityfriendpala,O,a,214,1,5030.299999952316,821893.2000000477,7793,WL,B,5.0
6,28.555999994277954,distr,31444.000005722046,Fri May 01 2026 10:43:12 GMT-0500 (Central Daylight Time),827190.3999999762,B,cityfriendpalac,O,c,259,1,5297.199999928474,821893.2000000477,7793,WL,B,5.0
6,28.85599994659424,distr,31144.00005340576,Fri May 01 2026 10:43:12 GMT-0500 (Central Daylight Time),827490.7000000477,B,cityfriendpalace,O,e,280,1,5597.5,821893.2000000477,7793,WL,B,5.0
6,29.33999991416931,distr,30660.00008583069,Fri May 01 2026 10:43:12 GMT-0500 (Central Daylight Time),827974.7000000477,B,cityfriendpalaceb,O,b,471,1,6081.5,821893.2000000477,7793,WL,B,5.0
6,29.605000019073486,distr,30394.999980926514,Fri May 01 2026 10:43:12 GMT-0500 (Central Daylight Time),828239.3000000715,B,cityfriendpalacebu,O,u,257,1,6346.100000023842,821893.2000000477,7793,WL,B,5.0
6,29.87399983406067,distr,30126.00016593933,Fri May 01 2026 10:43:12 GMT-0500 (Central Daylight Time),828508.0,B,cityfriendpalacebui,O,i,247,1,6614.799999952316,821893.2000000477,7793,WL,B,5.0
6,30.15399980545044,distr,29846.00019454956,Fri May 01 2026 10:43:12 GMT-0500 (Central Daylight Time),828788.7000000477,B,cityfriendpalacebuil,O,l,274,1,6895.5,821893.2000000477,7793,WL,B,5.0
6,30.370999813079834,distr,29629.000186920166,Fri May 01 2026 10:43:12 GMT-0500 (Central Daylight Time),829005.0,B,cityfriendpalacebuild,O,d,200,1,7111.799999952316,821893.2000000477,7793,WL,B,5.0
6,30.569999933242798,distr,29430.000066757202,Fri May 01 2026 10:43:12 GMT-0500 (Central Daylight Time),829204.6000000238,B,cityfriendpalacebuildi,O,i,195,1,7311.399999976158,821893.2000000477,7793,WL,B,5.0
6,30.819999933242798,distr,29180.000066757202,Fri May 01 2026 10:43:12 GMT-0500 (Central Daylight Time),829454.2000000477,B,cityfriendpalacebuildin,O,n,243,1,7561.0,821893.2000000477,7793,WL,B,5.0
6,31.171000003814697,distr,28828.999996185303,Fri May 01 2026 10:43:12 GMT-0500 (Central Daylight Time),829805.2000000477,B,cityfriendpalacebuilding,O,g,339,1,7912.0,821893.2000000477,7793,WL,B,5.0
6,33.0699999332428,distr,26930.000066757202,Fri May 01 2026 10:43:12 GMT-0500 (Central Daylight Time),831704.2000000477,B,cityfriendpalacebuildin,O,backspace,1887,1,9811.0,821893.2000000477,7793,WL,B,5.0
6,33.3529999256134,distr,26647.000074386597,Fri May 01 2026 10:43:12 GMT-0500 (Central Daylight Time),831987.6000000238,B,cityfriendpalacebuildi,O,backspace,263,1,10094.399999976158,821893.2000000477,7793,WL,B,5.0
6,33.55299997329712,distr,26447.00002670288,Fri May 01 2026 10:43:12 GMT-0500 (Central Daylight Time),832187.3000000715,B,cityfriendpalacebuild,O,backspace,189,1,10294.100000023842,821893.2000000477,7793,WL,B,5.0
6,33.83699989318848,distr,26163.000106811523,Fri May 01 2026 10:43:12 GMT-0500 (Central Daylight Time),832471.3000000715,B,cityfriendpalacebuil,O,backspace,276,1,10578.100000023842,821893.2000000477,7793,WL,B,5.0
6,34.0699999332428,distr,25930.000066757202,Fri May 01 2026 10:43:12 GMT-0500 (Central Daylight Time),832704.6000000238,B,cityfriendpalacebui,O,backspace,215,1,10811.399999976158,821893.2000000477,7793,WL,B,5.0
6,34.33799982070923,distr,25662.00017929077,Fri May 01 2026 10:43:12 GMT-0500 (Central Daylight Time),832972.6000000238,B,cityfriendpalacebu,O,backspace,262,1,11079.399999976158,821893.2000000477,7793,WL,B,5.0
6,34.55499982833862,distr,25445.000171661377,Fri May 01 2026 10:43:12 GMT-0500 (Central Daylight Time),833189.8000000715,B,cityfriendpalaceb,O,backspace,211,1,11296.600000023842,821893.2000000477,7793,WL,B,5.0
6,34.787999868392944,distr,25212.000131607056,Fri May 01 2026 10:43:12 GMT-0500 (Central Daylight Time),833422.1000000238,B,cityfriendpalace,O,backspace,226,1,11528.899999976158,821893.2000000477,7793,WL,B,5.0
6,35.00499987602234,distr,24995.00012397766,Fri May 01 2026 10:43:12 GMT-0500 (Central Daylight Time),833638.8999999762,B,cityfriendpalac,O,backspace,199,1,11745.699999928474,821893.2000000477,7793,WL,B,5.0
6,35.253000020980835,distr,24746.999979019165,Fri May 01 2026 10:43:12 GMT-0500 (Central Daylight Time),833887.5,B,cityfriendpala,O,backspace,244,1,11994.299999952316,821893.2000000477,7793,WL,B,5.0
6,35.5699999332428,distr,24430.000066757202,Fri May 01 2026 10:43:12 GMT-0500 (Central Daylight Time),834204.1000000238,B,cityfriendpal,O,backspace,304,1,12310.899999976158,821893.2000000477,7793,WL,B,5.0
6,36.168999910354614,distr,23831.000089645386,Fri May 01 2026 10:43:12 GMT-0500 (Central Daylight Time),834803.5,B,cityfriendpa,O,backspace,595,1,12910.299999952316,821893.2000000477,7793,WL,B,5.0
6,36.48699998855591,distr,23513.00001144409,Fri May 01 2026 10:43:12 GMT-0500 (Central Daylight Time),835120.8000000715,B,cityfriendp,O,backspace,309,1,13227.600000023842,821893.2000000477,7793,WL,B,5.0
6,36.7039999961853,distr,23296.000003814697,Fri May 01 2026 10:43:12 GMT-0500 (Central Daylight Time),835338.0,B,cityfriend,O,backspace,197,1,13444.799999952316,821893.2000000477,7793,WL,B,5.0
6,36.86899995803833,distr,23131.00004196167,Fri May 01 2026 10:43:12 GMT-0500 (Central Daylight Time),835503.1000000238,B,cityfrien,O,backspace,147,1,13609.899999976158,821893.2000000477,7793,WL,B,5.0
6,37.03499984741211,distr,22965.00015258789,Fri May 01 2026 10:43:12 GMT-0500 (Central Daylight Time),835669.6000000238,B,cityfrie,O,backspace,161,1,13776.399999976158,821893.2000000477,7793,WL,B,5.0
6,37.22000002861023,distr,22779.99997138977,Fri May 01 2026 10:43:12 GMT-0500 (Central Daylight Time),835854.6000000238,B,cityfri,O,backspace,180,1,13961.399999976158,821893.2000000477,7793,WL,B,5.0
6,37.418999910354614,distr,22581.000089645386,Fri May 01 2026 10:43:12 GMT-0500 (Central Daylight Time),836053.7000000477,B,cityfr,O,backspace,185,1,14160.5,821893.2000000477,7793,WL,B,5.0
6,37.603999853134155,distr,22396.000146865845,Fri May 01 2026 10:43:12 GMT-0500 (Central Daylight Time),836238.3999999762,B,cityf,O,backspace,178,1,14345.199999928474,821893.2000000477,7793,WL,B,5.0
6,37.80399990081787,distr,22196.00009918213,Fri May 01 2026 10:43:12 GMT-0500 (Central Daylight Time),836437.8000000715,B,city,O,backspace,178,1,14544.600000023842,821893.2000000477,7793,WL,B,5.0
6,38.93499994277954,distr,21065.00005722046,Fri May 01 2026 10:43:12 GMT-0500 (Central Daylight Time),837568.8999999762,B,cityenter,O,enter,1120,1,15675.699999928474,821893.2000000477,7793,WL,B,5.0
6,40.03399991989136,distr,19966.000080108643,Fri May 01 2026 10:43:12 GMT-0500 (Central Daylight Time),838670.3000000715,B,f,O,f,1098,1,1101.2000000476837,837569.1000000238,7793,WL,B,6.0
6,40.282999992370605,distr,19717.000007629395,Fri May 01 2026 10:43:12 GMT-0500 (Central Daylight Time),838919.3000000715,B,fr,O,r,241,1,1350.2000000476837,837569.1000000238,7793,WL,B,6.0
6,40.5,distr,19500.0,Fri May 01 2026 10:43:12 GMT-0500 (Central Daylight Time),839136.8000000715,B,fri,O,i,199,1,1567.7000000476837,837569.1000000238,7793,WL,B,6.0
6,40.69999980926514,distr,19300.000190734863,Fri May 01 2026 10:43:12 GMT-0500 (Central Daylight Time),839336.3000000715,B,frie,O,e,191,1,1767.2000000476837,837569.1000000238,7793,WL,B,6.0
6,40.91599988937378,distr,19084.00011062622,Fri May 01 2026 10:43:12 GMT-0500 (Central Daylight Time),839552.6000000238,B,frien,O,n,199,1,1983.5,837569.1000000238,7793,WL,B,6.0
6,41.115999937057495,distr,18884.000062942505,Fri May 01 2026 10:43:12 GMT-0500 (Central Daylight Time),839752.5,B,friend,O,d,181,1,2183.399999976158,837569.1000000238,7793,WL,B,6.0
6,41.70099997520447,distr,18299.000024795532,Fri May 01 2026 10:43:12 GMT-0500 (Central Daylight Time),840337.3999999762,B,friendb,O,b,573,1,2768.2999999523163,837569.1000000238,7793,WL,B,6.0
6,41.98299980163574,distr,18017.000198364258,Fri May 01 2026 10:43:12 GMT-0500 (Central Daylight Time),840619.7000000477,B,friendbu,O,u,272,1,3050.600000023842,837569.1000000238,7793,WL,B,6.0
6,42.264999866485596,distr,17735.000133514404,Fri May 01 2026 10:43:12 GMT-0500 (Central Daylight Time),840901.8999999762,B,friendbui,O,i,278,1,3332.7999999523163,837569.1000000238,7793,WL,B,6.0
6,43.031999826431274,distr,16968.000173568726,Fri May 01 2026 10:43:12 GMT-0500 (Central Daylight Time),841669.1000000238,B,friendbu,O,backspace,762,1,4100.0,837569.1000000238,7793,WL,B,6.0
6,43.282999992370605,distr,16717.000007629395,Fri May 01 2026 10:43:12 GMT-0500 (Central Daylight Time),841919.8000000715,B,friendb,O,backspace,245,1,4350.700000047684,837569.1000000238,7793,WL,B,6.0
6,43.49899983406067,distr,16501.00016593933,Fri May 01 2026 10:43:12 GMT-0500 (Central Daylight Time),842136.0,B,friend,O,backspace,210,1,4566.899999976158,837569.1000000238,7793,WL,B,6.0
6,43.73199987411499,distr,16268.00012588501,Fri May 01 2026 10:43:12 GMT-0500 (Central Daylight Time),842368.7000000477,B,frien,O,backspace,226,1,4799.600000023842,837569.1000000238,7793,WL,B,6.0
6,44.96499991416931,distr,15035.000085830688,Fri May 01 2026 10:43:12 GMT-0500 (Central Daylight Time),843601.6000000238,B,friend,O,d,1214,1,6032.5,837569.1000000238,7793,WL,B,6.0
6,45.264999866485596,distr,14735.000133514404,Fri May 01 2026 10:43:12 GMT-0500 (Central Daylight Time),843901.6000000238,B,friendenter,O,enter,286,1,6332.5,837569.1000000238,7793,WL,B,6.0
6,45.763999938964844,distr,14236.000061035156,Fri May 01 2026 10:43:12 GMT-0500 (Central Daylight Time),844401.0,B,b,O,b,489,1,499.10000002384186,843901.8999999762,7793,WL,B,7.0
6,46.21499991416931,distr,13785.000085830688,Fri May 01 2026 10:43:12 GMT-0500 (Central Daylight Time),844851.5,B,bu,O,u,431,1,949.6000000238419,843901.8999999762,7793,WL,B,7.0
6,46.480000019073486,distr,13519.999980926514,Fri May 01 2026 10:43:12 GMT-0500 (Central Daylight Time),845117.1000000238,B,bui,O,i,252,1,1215.2000000476837,843901.8999999762,7793,WL,B,7.0
6,46.746999979019165,distr,13253.000020980835,Fri May 01 2026 10:43:12 GMT-0500 (Central Daylight Time),845383.8999999762,B,buil,O,l,259,1,1482.0,843901.8999999762,7793,WL,B,7.0
6,46.99799990653992,distr,13002.000093460083,Fri May 01 2026 10:43:12 GMT-0500 (Central Daylight Time),845634.3000000715,B,build,O,d,232,1,1732.4000000953674,843901.8999999762,7793,WL,B,7.0
6,47.21399998664856,distr,12786.00001335144,Fri May 01 2026 10:43:12 GMT-0500 (Central Daylight Time),845850.7000000477,B,buildi,O,i,196,1,1948.8000000715256,843901.8999999762,7793,WL,B,7.0
6,47.42999982833862,distr,12570.000171661377,Fri May 01 2026 10:43:12 GMT-0500 (Central Daylight Time),846066.8999999762,B,buildin,O,n,197,1,2165.0,843901.8999999762,7793,WL,B,7.0
6,47.812999963760376,distr,12187.000036239624,Fri May 01 2026 10:43:12 GMT-0500 (Central Daylight Time),846449.8999999762,B,buildinenter,O,enter,374,1,2548.0,843901.8999999762,7793,WL,B,7.0
6,48.98099994659424,distr,11019.000053405762,Fri May 01 2026 10:43:12 GMT-0500 (Central Daylight Time),847618.0,B,p,O,p,1158,1,1167.7999999523163,846450.2000000477,7793,WL,B,8.0
6,49.37999987602234,distr,10620.000123977661,Fri May 01 2026 10:43:12 GMT-0500 (Central Daylight Time),848016.7000000477,B,pa,O,a,383,1,1566.5,846450.2000000477,7793,WL,B,8.0
6,49.61500000953674,distr,10384.999990463257,Fri May 01 2026 10:43:12 GMT-0500 (Central Daylight Time),848251.5,B,pal,O,l,224,1,1801.2999999523163,846450.2000000477,7793,WL,B,8.0
6,49.86500000953674,distr,10134.999990463257,Fri May 01 2026 10:43:12 GMT-0500 (Central Daylight Time),848501.2000000477,B,pala,O,a,245,1,2051.0,846450.2000000477,7793,WL,B,8.0
6,51.44599986076355,distr,8554.00013923645,Fri May 01 2026 10:43:12 GMT-0500 (Central Daylight Time),850082.3000000715,B,palac,O,c,1561,1,3632.100000023842,846450.2000000477,7793,WL,B,8.0
6,51.794999837875366,distr,8205.000162124634,Fri May 01 2026 10:43:12 GMT-0500 (Central Daylight Time),850432.0,B,palace,O,e,341,1,3981.7999999523163,846450.2000000477,7793,WL,B,8.0
6,53.7979998588562,distr,6202.000141143799,Fri May 01 2026 10:43:12 GMT-0500 (Central Daylight Time),852434.2000000477,B,palaceenter,O,enter,1992,1,5984.0,846450.2000000477,7793,WL,B,8.0
6,55.76300001144409,distr,4236.999988555908,Fri May 01 2026 10:43:12 GMT-0500 (Central Daylight Time),854400.0,B,f,O,f,1959,1,1965.5,852434.5,7793,WL,B,9.0
6,56.01199984550476,distr,3988.0001544952393,Fri May 01 2026 10:43:12 GMT-0500 (Central Daylight Time),854648.3999999762,B,fr,O,r,238,1,2213.899999976158,852434.5,7793,WL,B,9.0
6,56.26199984550476,distr,3738.0001544952393,Fri May 01 2026 10:43:12 GMT-0500 (Central Daylight Time),854898.5,B,fri,O,i,229,1,2464.0,852434.5,7793,WL,B,9.0
6,56.4449999332428,distr,3555.000066757202,Fri May 01 2026 10:43:12 GMT-0500 (Central Daylight Time),855081.8000000715,B,frie,O,e,165,1,2647.3000000715256,852434.5,7793,WL,B,9.0
6,56.66199994087219,distr,3338.0000591278076,Fri May 01 2026 10:43:12 GMT-0500 (Central Daylight Time),855298.2000000477,B,frien,O,n,197,1,2863.7000000476837,852434.5,7793,WL,B,9.0
6,56.87899994850159,distr,3121.000051498413,Fri May 01 2026 10:43:12 GMT-0500 (Central Daylight Time),855515.2000000477,B,friend,O,d,195,1,3080.7000000476837,852434.5,7793,WL,B,9.0
6,58.57699990272522,distr,1423.0000972747803,Fri May 01 2026 10:43:12 GMT-0500 (Central Daylight Time),857213.5,B,friendenter,O,enter,1692,1,4779.0,852434.5,7793,WL,B,9.0
6,60.01199984550476,distr,-11.999845504760742,Fri May 01 2026 10:43:12 GMT-0500 (Central Daylight Time),858648.8000000715,B,None,O,None,1430,1,1435.1000000238419,857213.7000000477,7793,WL,B,10.0
7,4.3480000495910645,immed,55651.999950408936,Fri May 01 2026 10:43:12 GMT-0500 (Central Daylight Time),879272.6000000238,A,g,O,g,4337,1,4348.0,874924.6000000238,7793,WL,B,1.0
7,4.682000160217285,immed,55317.999839782715,Fri May 01 2026 10:43:12 GMT-0500 (Central Daylight Time),879606.8000000715,A,gr,O,r,329,1,4682.200000047684,874924.6000000238,7793,WL,B,1.0
7,5.098999977111816,immed,54901.00002288818,Fri May 01 2026 10:43:12 GMT-0500 (Central Daylight Time),880024.1000000238,A,gra,O,a,401,1,5099.5,874924.6000000238,7793,WL,B,1.0
7,5.398999929428101,immed,54601.0000705719,Fri May 01 2026 10:43:12 GMT-0500 (Central Daylight Time),880324.2000000477,A,gras,O,s,278,1,5399.600000023842,874924.6000000238,7793,WL,B,1.0
7,5.5980000495910645,immed,54401.999950408936,Fri May 01 2026 10:43:12 GMT-0500 (Central Daylight Time),880523.0,A,grass,O,s,188,1,5598.399999976158,874924.6000000238,7793,WL,B,1.0
7,6.049000024795532,immed,53950.99997520447,Fri May 01 2026 10:43:12 GMT-0500 (Central Daylight Time),880973.7000000477,A,grassenter,O,enter,443,1,6049.100000023842,874924.6000000238,7793,WL,B,1.0
7,6.365000009536743,immed,53634.99999046326,Fri May 01 2026 10:43:12 GMT-0500 (Central Daylight Time),881290.1000000238,A,w,O,w,308,1,316.2000000476837,880973.8999999762,7793,WL,B,2.0
7,6.664999961853027,immed,53335.00003814697,Fri May 01 2026 10:43:12 GMT-0500 (Central Daylight Time),881589.3999999762,A,wi,O,i,292,1,615.5,880973.8999999762,7793,WL,B,2.0
7,6.897000074386597,immed,53102.9999256134,Fri May 01 2026 10:43:12 GMT-0500 (Central Daylight Time),881821.8999999762,A,win,O,n,224,1,848.0,880973.8999999762,7793,WL,B,2.0
7,7.148999929428101,immed,52851.0000705719,Fri May 01 2026 10:43:12 GMT-0500 (Central Daylight Time),882073.3000000715,A,wind,O,d,232,1,1099.4000000953674,880973.8999999762,7793,WL,B,2.0
7,7.398000001907349,immed,52601.99999809265,Fri May 01 2026 10:43:12 GMT-0500 (Central Daylight Time),882322.7000000477,A,windo,O,o,229,1,1348.8000000715256,880973.8999999762,7793,WL,B,2.0
7,7.699000120162964,immed,52300.999879837036,Fri May 01 2026 10:43:12 GMT-0500 (Central Daylight Time),882623.3000000715,A,window,O,w,284,1,1649.4000000953674,880973.8999999762,7793,WL,B,2.0
7,8.064000129699707,immed,51935.99987030029,Fri May 01 2026 10:43:12 GMT-0500 (Central Daylight Time),882988.7000000477,A,windowenter,O,enter,350,1,2014.8000000715256,880973.8999999762,7793,WL,B,2.0
7,8.365000009536743,immed,51634.99999046326,Fri May 01 2026 10:43:12 GMT-0500 (Central Daylight Time),883289.3000000715,A,s,O,s,282,1,300.3000000715256,882989.0,7793,WL,B,3.0
7,8.664999961853027,immed,51335.00003814697,Fri May 01 2026 10:43:12 GMT-0500 (Central Daylight Time),883589.3000000715,A,st,O,t,292,1,600.3000000715256,882989.0,7793,WL,B,3.0
7,9.131999969482422,immed,50868.00003051758,Fri May 01 2026 10:43:12 GMT-0500 (Central Daylight Time),884056.8000000715,A,sta,O,a,443,1,1067.8000000715256,882989.0,7793,WL,B,3.0
7,9.480999946594238,immed,50519.00005340576,Fri May 01 2026 10:43:12 GMT-0500 (Central Daylight Time),884406.1000000238,A,star,O,r,341,1,1417.1000000238419,882989.0,7793,WL,B,3.0
7,10.031000137329102,immed,49968.9998626709,Fri May 01 2026 10:43:12 GMT-0500 (Central Daylight Time),884955.3000000715,A,starenter,O,enter,528,1,1966.3000000715256,882989.0,7793,WL,B,3.0
7,10.580000162124634,immed,49419.999837875366,Fri May 01 2026 10:43:12 GMT-0500 (Central Daylight Time),885504.7000000477,A,b,O,b,541,1,549.2000000476837,884955.5,7793,WL,B,4.0
7,11.263999938964844,immed,48736.000061035156,Fri May 01 2026 10:43:12 GMT-0500 (Central Daylight Time),886188.5,A,,O,backspace,662,1,1233.0,884955.5,7793,WL,B,4.0
7,12.611999988555908,immed,47388.00001144409,Fri May 01 2026 10:43:12 GMT-0500 (Central Daylight Time),887537.0,A,c,O,c,1329,1,2581.5,884955.5,7793,WL,B,4.0
7,13.04699993133545,immed,46953.00006866455,Fri May 01 2026 10:43:12 GMT-0500 (Central Daylight Time),887971.8999999762,A,ca,O,a,413,1,3016.399999976158,884955.5,7793,WL,B,4.0
7,13.463000059127808,immed,46536.99994087219,Fri May 01 2026 10:43:12 GMT-0500 (Central Daylight Time),888387.8000000715,A,cab,O,b,394,1,3432.3000000715256,884955.5,7793,WL,B,4.0
7,13.845999956130981,immed,46154.00004386902,Fri May 01 2026 10:43:12 GMT-0500 (Central Daylight Time),888770.3999999762,A,cabi,O,i,370,1,3814.899999976158,884955.5,7793,WL,B,4.0
7,14.161999940872192,immed,45838.00005912781,Fri May 01 2026 10:43:12 GMT-0500 (Central Daylight Time),889086.7000000477,A,cabin,O,n,303,1,4131.200000047684,884955.5,7793,WL,B,4.0
7,14.546000003814697,immed,45453.9999961853,Fri May 01 2026 10:43:12 GMT-0500 (Central Daylight Time),889470.2000000477,A,cabinenter,O,enter,376,1,4514.700000047684,884955.5,7793,WL,B,4.0
7,14.979000091552734,immed,45020.999908447266,Fri May 01 2026 10:43:12 GMT-0500 (Central Daylight Time),889904.0,A,l,O,l,412,1,433.5,889470.5,7793,WL,B,5.0
7,15.295000076293945,immed,44704.999923706055,Fri May 01 2026 10:43:12 GMT-0500 (Central Daylight Time),890219.7000000477,A,la,O,a,302,1,749.2000000476837,889470.5,7793,WL,B,5.0
7,15.513000011444092,immed,44486.99998855591,Fri May 01 2026 10:43:12 GMT-0500 (Central Daylight Time),890437.7000000477,A,lak,O,k,212,1,967.2000000476837,889470.5,7793,WL,B,5.0
7,15.830000162124634,immed,44169.999837875366,Fri May 01 2026 10:43:12 GMT-0500 (Central Daylight Time),890754.3999999762,A,lake,O,e,305,1,1283.8999999761581,889470.5,7793,WL,B,5.0
7,16.128999948501587,immed,43871.00005149841,Fri May 01 2026 10:43:12 GMT-0500 (Central Daylight Time),891054.1000000238,A,lakeenter,O,enter,286,1,1583.6000000238419,889470.5,7793,WL,B,5.0
7,16.729000091552734,immed,43270.999908447266,Fri May 01 2026 10:43:12 GMT-0500 (Central Daylight Time),891653.3000000715,A,s,O,s,586,1,598.9000000953674,891054.3999999762,7793,WL,B,6.0
7,17.09500002861023,immed,42904.99997138977,Fri May 01 2026 10:43:12 GMT-0500 (Central Daylight Time),892019.2000000477,A,st,O,t,352,1,964.8000000715256,891054.3999999762,7793,WL,B,6.0
7,17.628000020980835,immed,42371.999979019165,Fri May 01 2026 10:43:12 GMT-0500 (Central Daylight Time),892553.1000000238,A,sta,O,a,517,1,1498.7000000476837,891054.3999999762,7793,WL,B,6.0
7,18.82800006866455,immed,41171.99993133545,Fri May 01 2026 10:43:12 GMT-0500 (Central Daylight Time),893752.3999999762,A,star,O,r,1180,1,2698.0,891054.3999999762,7793,WL,B,6.0
7,20.526999950408936,immed,39473.000049591064,Fri May 01 2026 10:43:12 GMT-0500 (Central Daylight Time),895451.5,A,starenter,O,enter,1686,1,4397.100000023842,891054.3999999762,7793,WL,B,6.0
7,20.992000102996826,immed,39007.999897003174,Fri May 01 2026 10:43:12 GMT-0500 (Central Daylight Time),895917.1000000238,A,p,O,p,450,1,465.2999999523163,895451.8000000715,7793,WL,B,7.0
7,21.360000133514404,immed,38639.999866485596,Fri May 01 2026 10:43:12 GMT-0500 (Central Daylight Time),896284.8000000715,A,pu,O,u,349,1,833.0,895451.8000000715,7793,WL,B,7.0
7,21.694000005722046,immed,38305.999994277954,Fri May 01 2026 10:43:12 GMT-0500 (Central Daylight Time),896618.3999999762,A,pup,O,p,316,1,1166.5999999046326,895451.8000000715,7793,WL,B,7.0
7,22.042999982833862,immed,37957.00001716614,Fri May 01 2026 10:43:12 GMT-0500 (Central Daylight Time),896967.2000000477,A,pupi,O,i,329,1,1515.3999999761581,895451.8000000715,7793,WL,B,7.0
7,22.89300012588501,immed,37106.99987411499,Fri May 01 2026 10:43:12 GMT-0500 (Central Daylight Time),897820.0,A,pupil,O,l,831,1,2368.1999999284744,895451.8000000715,7793,WL,B,7.0
7,23.388999938964844,immed,36611.000061035156,Fri May 01 2026 10:43:12 GMT-0500 (Central Daylight Time),898315.8000000715,A,pupilenter,O,enter,472,1,2864.0,895451.8000000715,7793,WL,B,7.0
7,23.973000049591064,immed,36026.999950408936,Fri May 01 2026 10:43:12 GMT-0500 (Central Daylight Time),898900.2000000477,A,c,O,c,574,1,584.2000000476837,898316.0,7793,WL,B,8.0
7,24.2739999294281,immed,35726.0000705719,Fri May 01 2026 10:43:12 GMT-0500 (Central Daylight Time),899200.5,A,ci,O,i,279,1,884.5,898316.0,7793,WL,B,8.0
7,24.5239999294281,immed,35476.0000705719,Fri May 01 2026 10:43:12 GMT-0500 (Central Daylight Time),899451.3999999762,A,cit,O,t,245,1,1135.3999999761581,898316.0,7793,WL,B,8.0
7,24.85599994659424,immed,35144.00005340576,Fri May 01 2026 10:43:12 GMT-0500 (Central Daylight Time),899783.2000000477,A,city,O,y,311,1,1467.2000000476837,898316.0,7793,WL,B,8.0
7,28.455000162124634,immed,31544.999837875366,Fri May 01 2026 10:43:12 GMT-0500 (Central Daylight Time),903382.0,A,cityw,O,w,3592,1,5066.0,898316.0,7793,WL,B,8.0
7,29.805999994277954,immed,30194.000005722046,Fri May 01 2026 10:43:12 GMT-0500 (Central Daylight Time),904733.3000000715,A,city,O,backspace,1327,1,6417.300000071526,898316.0,7793,WL,B,8.0
7,30.171000003814697,immed,29828.999996185303,Fri May 01 2026 10:43:12 GMT-0500 (Central Daylight Time),905098.2000000477,A,cityenter,O,enter,344,1,6782.200000047684,898316.0,7793,WL,B,8.0
7,30.587000131607056,immed,29412.999868392944,Fri May 01 2026 10:43:12 GMT-0500 (Central Daylight Time),905514.3999999762,A,w,O,w,405,1,415.89999997615814,905098.5,7793,WL,B,9.0
7,32.82100009918213,immed,27178.99990081787,Fri May 01 2026 10:43:12 GMT-0500 (Central Daylight Time),907747.7000000477,A,wi,O,i,2223,1,2649.2000000476837,905098.5,7793,WL,B,9.0
7,33.07200002670288,immed,26927.99997329712,Fri May 01 2026 10:43:12 GMT-0500 (Central Daylight Time),907998.8000000715,A,wif,O,f,235,1,2900.3000000715256,905098.5,7793,WL,B,9.0
7,33.40400004386902,immed,26595.99995613098,Fri May 01 2026 10:43:12 GMT-0500 (Central Daylight Time),908331.1000000238,A,wife,O,e,310,1,3232.600000023842,905098.5,7793,WL,B,9.0
7,34.08899998664856,immed,25911.00001335144,Fri May 01 2026 10:43:12 GMT-0500 (Central Daylight Time),909015.6000000238,A,wifeenter,O,enter,679,1,3917.100000023842,905098.5,7793,WL,B,9.0
7,49.0310001373291,immed,10968.999862670898,Fri May 01 2026 10:43:12 GMT-0500 (Central Daylight Time),923958.1000000238,A,f,O,f,14926,1,14942.200000047684,909015.8999999762,7793,WL,B,10.0
7,49.25,immed,10750.0,Fri May 01 2026 10:43:12 GMT-0500 (Central Daylight Time),924176.8000000715,A,fi,O,i,209,1,15160.900000095367,909015.8999999762,7793,WL,B,10.0
7,49.44700002670288,immed,10552.99997329712,Fri May 01 2026 10:43:12 GMT-0500 (Central Daylight Time),924374.3999999762,A,fir,O,r,191,1,15358.5,909015.8999999762,7793,WL,B,10.0
7,49.73099994659424,immed,10269.000053405762,Fri May 01 2026 10:43:12 GMT-0500 (Central Daylight Time),924658.5,A,fire,O,e,265,1,15642.600000023842,909015.8999999762,7793,WL,B,10.0
7,50.062999963760376,immed,9937.000036239624,Fri May 01 2026 10:43:12 GMT-0500 (Central Daylight Time),924990.3999999762,A,fireenter,O,enter,325,1,15974.5,909015.8999999762,7793,WL,B,10.0
7,60.01300001144409,immed,-13.000011444091797,Fri May 01 2026 10:43:12 GMT-0500 (Central Daylight Time),934940.3999999762,A,None,O,None,9946,1,9949.799999952316,924990.6000000238,7793,WL,B,11.0
