Number,acc_sum,block,block_c,block_cond,con_img,correct,correct_response,datetime,endtime,jitter,project,response,response_time,row_sel,session_number,start_end,starttime,subject_id,task,task_vers,trial
4,1,prac,1,A,circle.png,1,z,Mon Feb 02 2026 16:32:39 GMT-0600 (Central Standard Time),56008.20000000298,1400,I,z,1315,4,2,3493.0,52515.20000000298,8084,NTS,B,1
2,2,prac,1,A,circle.png,1,z,Mon Feb 02 2026 16:32:39 GMT-0600 (Central Standard Time),59656.70000000298,2000,I,z,864,2,2,3640.7000000029802,56016.0,8084,NTS,B,2
1,3,prac,1,A,circle.png,1,z,Mon Feb 02 2026 16:32:39 GMT-0600 (Central Standard Time),62106.20000000298,1000,I,z,663,1,2,2443.89999999851,59662.30000000447,8084,NTS,B,3
3,4,prac,1,A,circle.png,1,z,Mon Feb 02 2026 16:32:39 GMT-0600 (Central Standard Time),64772.10000000149,1200,I,z,670,3,2,2659.0,62113.10000000149,8084,NTS,B,4
7,5,prac,1,A,circle.png,1,m,Mon Feb 02 2026 16:32:39 GMT-0600 (Central Standard Time),68037.60000000149,1700,I,m,768,6,2,3259.7999999970198,64777.80000000447,8084,NTS,B,5
4,6,prac,1,A,circle.png,1,z,Mon Feb 02 2026 16:32:39 GMT-0600 (Central Standard Time),70820.0,1400,I,z,586,4,2,2776.5999999940395,68043.40000000596,8084,NTS,B,6
9,7,prac,1,A,circle.png,1,m,Mon Feb 02 2026 16:32:39 GMT-0600 (Central Standard Time),73685.90000000596,1500,I,m,568,8,2,2860.60000000149,70825.30000000447,8084,NTS,B,7
8,8,prac,1,A,circle.png,1,m,Mon Feb 02 2026 16:32:39 GMT-0600 (Central Standard Time),76951.40000000596,1600,I,m,866,7,2,3260.2000000029802,73691.20000000298,8084,NTS,B,8
7,8,prac,1,A,circle.png,0,m,Mon Feb 02 2026 16:32:39 GMT-0600 (Central Standard Time),80150.40000000596,1700,I,z,701,6,2,3193.8000000044703,76956.60000000149,8084,NTS,B,9
3,9,prac,1,A,circle.png,1,z,Mon Feb 02 2026 16:32:39 GMT-0600 (Central Standard Time),82800.60000000149,1200,I,z,650,3,2,2644.60000000149,80156.0,8084,NTS,B,10
9,10,prac,1,A,circle.png,1,m,Mon Feb 02 2026 16:32:39 GMT-0600 (Central Standard Time),85815.5,1500,I,m,733,8,2,3009.0999999940395,82806.40000000596,8084,NTS,B,11
6,11,prac,1,A,circle.png,1,m,Mon Feb 02 2026 16:32:39 GMT-0600 (Central Standard Time),89247.60000000149,1900,I,m,733,5,2,3426.1999999955297,85821.40000000596,8084,NTS,B,12
2,1,prac,1,B,triangle.png,1,m,Mon Feb 02 2026 16:32:39 GMT-0600 (Central Standard Time),124786.5,1700,I,m,888,2,2,3377.2999999970198,121409.20000000298,8084,NTS,B,1
6,2,prac,1,B,triangle.png,1,m,Mon Feb 02 2026 16:32:39 GMT-0600 (Central Standard Time),127302.30000000447,1000,I,m,726,5,2,2509.8000000044703,124792.5,8084,NTS,B,2
8,3,prac,1,B,triangle.png,1,m,Mon Feb 02 2026 16:32:39 GMT-0600 (Central Standard Time),129801.5,1200,I,m,506,7,2,2493.7999999970198,127307.70000000298,8084,NTS,B,3
3,4,prac,1,B,triangle.png,1,z,Mon Feb 02 2026 16:32:39 GMT-0600 (Central Standard Time),132967.20000000298,1600,I,z,775,3,2,3159.7999999970198,129807.40000000596,8084,NTS,B,4
9,5,prac,1,B,triangle.png,1,z,Mon Feb 02 2026 16:32:39 GMT-0600 (Central Standard Time),136142.90000000596,1400,I,z,889,8,2,3169.8000000044703,132973.1000000015,8084,NTS,B,5
2,6,prac,1,B,triangle.png,1,m,Mon Feb 02 2026 16:32:39 GMT-0600 (Central Standard Time),139298.6000000015,1700,I,m,663,2,2,3147.89999999851,136150.70000000298,8084,NTS,B,6
4,7,prac,1,B,triangle.png,1,m,Mon Feb 02 2026 16:32:39 GMT-0600 (Central Standard Time),142247.6000000015,1500,I,m,650,4,2,2944.0,139303.6000000015,8084,NTS,B,7
6,8,prac,1,B,triangle.png,1,m,Mon Feb 02 2026 16:32:39 GMT-0600 (Central Standard Time),144713.5,1000,I,m,673,5,2,2460.5,142253.0,8084,NTS,B,8
1,9,prac,1,B,triangle.png,1,z,Mon Feb 02 2026 16:32:39 GMT-0600 (Central Standard Time),148829.1000000015,1900,I,z,1419,1,2,4110.19999999553,144718.90000000596,8084,NTS,B,9
7,10,prac,1,B,triangle.png,1,z,Mon Feb 02 2026 16:32:39 GMT-0600 (Central Standard Time),152527.80000000447,2000,I,z,908,6,2,3693.60000000149,148834.20000000298,8084,NTS,B,10
7,11,prac,1,B,triangle.png,1,z,Mon Feb 02 2026 16:32:39 GMT-0600 (Central Standard Time),155910.0,2000,I,z,593,6,2,3377.0999999940395,152532.90000000596,8084,NTS,B,11
8,12,prac,1,B,triangle.png,1,m,Mon Feb 02 2026 16:32:39 GMT-0600 (Central Standard Time),158542.5,1200,I,m,642,7,2,2627.2999999970198,155915.20000000298,8084,NTS,B,12
9,1,test,1,A,circle.png,1,m,Mon Feb 02 2026 16:32:39 GMT-0600 (Central Standard Time),179735.90000000596,1500,I,m,651,8,2,2177.7000000029802,177558.20000000298,8084,NTS,B,1
1,2,test,1,A,circle.png,1,z,Mon Feb 02 2026 16:32:39 GMT-0600 (Central Standard Time),181385.40000000596,1000,I,z,632,1,2,1644.9000000059605,179740.5,8084,NTS,B,2
8,3,test,1,A,circle.png,1,m,Mon Feb 02 2026 16:32:39 GMT-0600 (Central Standard Time),184184.40000000596,1600,I,m,1167,7,2,2795.4000000059605,181389.0,8084,NTS,B,3
8,4,test,1,A,circle.png,1,m,Mon Feb 02 2026 16:32:39 GMT-0600 (Central Standard Time),186383.80000000447,1600,I,m,568,7,2,2195.7000000029802,184188.1000000015,8084,NTS,B,4
3,5,test,1,A,circle.png,1,z,Mon Feb 02 2026 16:32:39 GMT-0600 (Central Standard Time),188283.1000000015,1200,I,z,680,3,2,1895.0,186388.1000000015,8084,NTS,B,5
6,6,test,1,A,circle.png,1,m,Mon Feb 02 2026 16:32:39 GMT-0600 (Central Standard Time),191115.5,1900,I,m,913,5,2,2828.5999999940395,188286.90000000596,8084,NTS,B,6
6,7,test,1,A,circle.png,1,m,Mon Feb 02 2026 16:32:39 GMT-0600 (Central Standard Time),193615.0,1900,I,m,568,5,2,2495.5999999940395,191119.40000000596,8084,NTS,B,7
2,8,test,1,A,circle.png,1,z,Mon Feb 02 2026 16:32:39 GMT-0600 (Central Standard Time),196214.1000000015,2000,I,z,570,2,2,2594.60000000149,193619.5,8084,NTS,B,8
3,8,test,1,A,circle.png,0,z,Mon Feb 02 2026 16:32:39 GMT-0600 (Central Standard Time),198097.0,1200,I,m,666,3,2,1879.3999999985099,196217.6000000015,8084,NTS,B,9
4,9,test,1,A,circle.png,1,z,Mon Feb 02 2026 16:32:39 GMT-0600 (Central Standard Time),200196.0,1400,I,z,672,4,2,2095.39999999851,198100.6000000015,8084,NTS,B,10
1,10,test,1,A,circle.png,1,z,Mon Feb 02 2026 16:32:39 GMT-0600 (Central Standard Time),201745.6000000015,1000,I,z,532,1,2,1545.3999999985099,200200.20000000298,8084,NTS,B,11
1,11,test,1,A,circle.png,1,z,Mon Feb 02 2026 16:32:39 GMT-0600 (Central Standard Time),203328.5,1000,I,z,551,1,2,1579.0,201749.5,8084,NTS,B,12
8,12,test,1,A,circle.png,1,m,Mon Feb 02 2026 16:32:39 GMT-0600 (Central Standard Time),206077.70000000298,1600,I,m,1120,7,2,2745.60000000149,203332.1000000015,8084,NTS,B,13
4,13,test,1,A,circle.png,1,z,Mon Feb 02 2026 16:32:39 GMT-0600 (Central Standard Time),208676.90000000596,1400,I,z,1171,4,2,2595.4000000059605,206081.5,8084,NTS,B,14
4,14,test,1,A,circle.png,1,z,Mon Feb 02 2026 16:32:39 GMT-0600 (Central Standard Time),210659.5,1400,I,z,563,4,2,1978.7999999970198,208680.70000000298,8084,NTS,B,15
7,15,test,1,A,circle.png,1,m,Mon Feb 02 2026 16:32:39 GMT-0600 (Central Standard Time),213375.20000000298,1700,I,m,985,6,2,2712.10000000149,210663.1000000015,8084,NTS,B,16
4,16,test,1,A,circle.png,1,z,Mon Feb 02 2026 16:32:39 GMT-0600 (Central Standard Time),215574.6000000015,1400,I,z,769,4,2,2195.60000000149,213379.0,8084,NTS,B,17
2,17,test,1,A,circle.png,1,z,Mon Feb 02 2026 16:32:39 GMT-0600 (Central Standard Time),218573.5,2000,I,z,970,2,2,2995.1999999955297,215578.30000000447,8084,NTS,B,18
6,18,test,1,A,circle.png,1,m,Mon Feb 02 2026 16:32:39 GMT-0600 (Central Standard Time),221189.5,1900,I,m,686,5,2,2612.5,218577.0,8084,NTS,B,19
9,19,test,1,A,circle.png,1,m,Mon Feb 02 2026 16:32:39 GMT-0600 (Central Standard Time),223305.5,1500,I,m,591,8,2,2112.5,221193.0,8084,NTS,B,20
9,20,test,1,A,circle.png,1,m,Mon Feb 02 2026 16:32:39 GMT-0600 (Central Standard Time),225371.5,1500,I,m,546,8,2,2062.2999999970198,223309.20000000298,8084,NTS,B,21
1,21,test,1,A,circle.png,1,z,Mon Feb 02 2026 16:32:39 GMT-0600 (Central Standard Time),227254.20000000298,1000,I,z,852,1,2,1878.7999999970198,225375.40000000596,8084,NTS,B,22
7,22,test,1,A,circle.png,1,m,Mon Feb 02 2026 16:32:39 GMT-0600 (Central Standard Time),229770.20000000298,1700,I,m,790,6,2,2512.39999999851,227257.80000000447,8084,NTS,B,23
2,23,test,1,A,circle.png,1,z,Mon Feb 02 2026 16:32:39 GMT-0600 (Central Standard Time),232486.1000000015,2000,I,z,694,2,2,2712.1999999955297,229773.90000000596,8084,NTS,B,24
2,1,test,1,B,triangle.png,1,m,Mon Feb 02 2026 16:32:39 GMT-0600 (Central Standard Time),251280.20000000298,1200,I,m,1075,10,2,2296.39999999851,248983.80000000447,8084,NTS,B,1
4,2,test,1,B,triangle.png,1,m,Mon Feb 02 2026 16:32:39 GMT-0600 (Central Standard Time),252796.20000000298,1000,I,m,496,12,2,1511.0,251285.20000000298,8084,NTS,B,2
8,3,test,1,B,triangle.png,1,m,Mon Feb 02 2026 16:32:39 GMT-0600 (Central Standard Time),255145.6000000015,1700,I,m,632,15,2,2345.6999999955297,252799.90000000596,8084,NTS,B,3
4,4,test,1,B,triangle.png,1,m,Mon Feb 02 2026 16:32:39 GMT-0600 (Central Standard Time),256778.30000000447,1000,I,m,615,12,2,1628.6000000014901,255149.70000000298,8084,NTS,B,4
1,5,test,1,B,triangle.png,1,z,Mon Feb 02 2026 16:32:39 GMT-0600 (Central Standard Time),259244.30000000447,1900,I,z,538,1,2,2462.2000000029802,256782.1000000015,8084,NTS,B,5
3,6,test,1,B,triangle.png,1,z,Mon Feb 02 2026 16:32:39 GMT-0600 (Central Standard Time),261743.40000000596,2000,I,z,468,11,2,2495.60000000149,259247.80000000447,8084,NTS,B,6
7,7,test,1,B,triangle.png,1,z,Mon Feb 02 2026 16:32:39 GMT-0600 (Central Standard Time),264692.6000000015,2000,I,z,921,6,2,2945.2999999970198,261747.30000000447,8084,NTS,B,7
7,8,test,1,B,triangle.png,1,z,Mon Feb 02 2026 16:32:39 GMT-0600 (Central Standard Time),266875.200000003,1600,I,z,564,14,2,2179.10000000149,264696.1000000015,8084,NTS,B,8
4,9,test,1,B,triangle.png,1,m,Mon Feb 02 2026 16:32:39 GMT-0600 (Central Standard Time),268991.200000003,1500,I,m,585,4,2,2111.89999999851,266879.30000000447,8084,NTS,B,9
6,10,test,1,B,triangle.png,1,m,Mon Feb 02 2026 16:32:39 GMT-0600 (Central Standard Time),270590.6000000015,1000,I,m,577,5,2,1595.6000000014901,268995.0,8084,NTS,B,10
2,11,test,1,B,triangle.png,1,m,Mon Feb 02 2026 16:32:39 GMT-0600 (Central Standard Time),272857.200000003,1700,I,m,550,2,2,2262.5,270594.700000003,8084,NTS,B,11
6,12,test,1,B,triangle.png,1,m,Mon Feb 02 2026 16:32:39 GMT-0600 (Central Standard Time),275039.40000000596,1500,I,m,660,13,2,2178.0,272861.40000000596,8084,NTS,B,12
9,13,test,1,B,triangle.png,1,z,Mon Feb 02 2026 16:32:39 GMT-0600 (Central Standard Time),277055.30000000447,1400,I,z,593,8,2,2012.3999999985099,275042.90000000596,8084,NTS,B,13
3,14,test,1,B,triangle.png,1,z,Mon Feb 02 2026 16:32:39 GMT-0600 (Central Standard Time),279321.30000000447,1600,I,z,649,3,2,2262.5,277058.80000000447,8084,NTS,B,14
1,15,test,1,B,triangle.png,1,z,Mon Feb 02 2026 16:32:39 GMT-0600 (Central Standard Time),281320.6000000015,1400,I,z,575,9,2,1995.6000000014901,279325.0,8084,NTS,B,15
1,16,test,1,B,triangle.png,1,z,Mon Feb 02 2026 16:32:39 GMT-0600 (Central Standard Time),283753.1000000015,1900,I,z,516,1,2,2428.60000000149,281324.5,8084,NTS,B,16
6,17,test,1,B,triangle.png,1,m,Mon Feb 02 2026 16:32:39 GMT-0600 (Central Standard Time),285852.6000000015,1500,I,m,579,13,2,2095.6999999955297,283756.90000000596,8084,NTS,B,17
3,18,test,1,B,triangle.png,1,z,Mon Feb 02 2026 16:32:39 GMT-0600 (Central Standard Time),288368.6000000015,1600,I,z,884,3,2,2512.39999999851,285856.200000003,8084,NTS,B,18
8,19,test,1,B,triangle.png,1,m,Mon Feb 02 2026 16:32:39 GMT-0600 (Central Standard Time),290301.40000000596,1200,I,m,704,7,2,1929.3000000044703,288372.1000000015,8084,NTS,B,19
9,20,test,1,B,triangle.png,1,z,Mon Feb 02 2026 16:32:39 GMT-0600 (Central Standard Time),292817.1000000015,1900,I,z,599,16,2,2512.2999999970198,290304.80000000447,8084,NTS,B,20
1,21,test,1,B,triangle.png,1,z,Mon Feb 02 2026 16:32:39 GMT-0600 (Central Standard Time),294866.40000000596,1400,I,z,623,9,2,2045.4000000059605,292821.0,8084,NTS,B,21
9,22,test,1,B,triangle.png,1,z,Mon Feb 02 2026 16:32:39 GMT-0600 (Central Standard Time),297699.0,1900,I,z,914,16,2,2828.6999999955297,294870.30000000447,8084,NTS,B,22
6,23,test,1,B,triangle.png,1,m,Mon Feb 02 2026 16:32:39 GMT-0600 (Central Standard Time),299498.30000000447,1000,I,m,781,5,2,1795.2000000029802,297703.1000000015,8084,NTS,B,23
2,24,test,1,B,triangle.png,1,m,Mon Feb 02 2026 16:32:39 GMT-0600 (Central Standard Time),301307.700000003,1200,I,m,582,10,2,1805.7000000029802,299502.0,8084,NTS,B,24
6,1,prac,1,C,circle.png,1,m,Mon Feb 02 2026 16:32:39 GMT-0600 (Central Standard Time),336188.0,2000,I,m,1312,5,2,4077.7999999970198,332110.200000003,8084,NTS,B,1
8,1,prac,1,C,triangle.png,0,m,Mon Feb 02 2026 16:32:39 GMT-0600 (Central Standard Time),339885.700000003,1400,I,None,1516,7,2,3692.0,336193.700000003,8084,NTS,B,2
9,2,prac,1,C,circle.png,1,m,Mon Feb 02 2026 16:32:39 GMT-0600 (Central Standard Time),343518.0,1900,I,m,935,8,2,3627.2999999970198,339890.700000003,8084,NTS,B,3
8,3,prac,1,C,triangle.png,1,m,Mon Feb 02 2026 16:32:39 GMT-0600 (Central Standard Time),346783.700000003,1400,I,m,1074,7,2,3260.7000000029802,343523.0,8084,NTS,B,4
9,3,prac,1,C,circle.png,0,m,Mon Feb 02 2026 16:32:39 GMT-0600 (Central Standard Time),350982.1000000015,1900,I,None,1516,8,2,4192.89999999851,346789.200000003,8084,NTS,B,5
2,4,prac,1,C,triangle.png,1,m,Mon Feb 02 2026 16:32:39 GMT-0600 (Central Standard Time),354197.80000000447,1600,I,m,819,2,2,3210.5,350987.30000000447,8084,NTS,B,6
4,5,prac,1,C,circle.png,1,z,Mon Feb 02 2026 16:32:39 GMT-0600 (Central Standard Time),357197.1000000015,1000,I,z,1211,4,2,2994.2999999970198,354202.80000000447,8084,NTS,B,7
3,5,prac,1,C,triangle.png,0,z,Mon Feb 02 2026 16:32:39 GMT-0600 (Central Standard Time),360212.700000003,1500,I,m,728,3,2,3010.7000000029802,357202.0,8084,NTS,B,8
1,6,prac,1,C,circle.png,1,z,Mon Feb 02 2026 16:32:39 GMT-0600 (Central Standard Time),363828.40000000596,1700,I,z,1120,1,2,3611.0,360217.40000000596,8084,NTS,B,9
7,7,prac,1,C,triangle.png,1,z,Mon Feb 02 2026 16:32:39 GMT-0600 (Central Standard Time),366927.200000003,1200,I,z,1100,6,2,3093.39999999851,363833.80000000447,8084,NTS,B,10
7,7,prac,1,C,triangle.png,0,z,Mon Feb 02 2026 16:32:39 GMT-0600 (Central Standard Time),370426.200000003,1200,I,None,1516,6,2,3494.2000000029802,366932.0,8084,NTS,B,11
1,8,prac,1,C,circle.png,1,z,Mon Feb 02 2026 16:32:39 GMT-0600 (Central Standard Time),373691.90000000596,1700,I,z,776,1,2,3260.4000000059605,370431.5,8084,NTS,B,12
7,0,test,1,C,triangle.png,0,z,Mon Feb 02 2026 16:32:39 GMT-0600 (Central Standard Time),388603.90000000596,1700,I,m,1138,6,2,2862.4000000059605,385741.5,8084,NTS,B,1
8,0,test,1,C,circle.png,0,m,Mon Feb 02 2026 16:32:39 GMT-0600 (Central Standard Time),391336.200000003,1200,I,None,1516,15,2,2727.7999999970198,388608.40000000596,8084,NTS,B,2
7,1,test,1,C,circle.png,1,m,Mon Feb 02 2026 16:32:39 GMT-0600 (Central Standard Time),394735.1000000015,2000,I,m,1377,14,2,3395.10000000149,391340.0,8084,NTS,B,3
2,1,test,1,C,circle.png,0,z,Mon Feb 02 2026 16:32:39 GMT-0600 (Central Standard Time),397967.40000000596,1700,I,None,1515,10,2,3228.3000000044703,394739.1000000015,8084,NTS,B,4
9,1,test,1,C,triangle.png,0,z,Mon Feb 02 2026 16:32:39 GMT-0600 (Central Standard Time),400900.1000000015,1400,I,None,1516,16,2,2928.0,397972.1000000015,8084,NTS,B,5
4,2,test,1,C,circle.png,1,z,Mon Feb 02 2026 16:32:39 GMT-0600 (Central Standard Time),403332.5,1400,I,z,1012,4,2,2428.2999999970198,400904.200000003,8084,NTS,B,6
6,3,test,1,C,triangle.png,1,m,Mon Feb 02 2026 16:32:39 GMT-0600 (Central Standard Time),405265.200000003,1000,I,m,900,13,2,1929.1000000014901,403336.1000000015,8084,NTS,B,7
6,4,test,1,C,circle.png,1,m,Mon Feb 02 2026 16:32:39 GMT-0600 (Central Standard Time),408164.200000003,1900,I,m,971,21,2,2895.0,405269.200000003,8084,NTS,B,8
8,5,test,1,C,triangle.png,1,m,Mon Feb 02 2026 16:32:39 GMT-0600 (Central Standard Time),410746.80000000447,1600,I,m,956,7,2,2578.3000000044703,408168.5,8084,NTS,B,9
9,6,test,1,C,circle.png,1,m,Mon Feb 02 2026 16:32:39 GMT-0600 (Central Standard Time),413029.40000000596,1500,I,m,762,8,2,2278.7000000029802,410750.700000003,8084,NTS,B,10
7,7,test,1,C,triangle.png,1,z,Mon Feb 02 2026 16:32:39 GMT-0600 (Central Standard Time),416145.1000000015,1700,I,z,1391,22,2,3111.60000000149,413033.5,8084,NTS,B,11
3,8,test,1,C,circle.png,1,z,Mon Feb 02 2026 16:32:39 GMT-0600 (Central Standard Time),419009.1000000015,1600,I,z,1247,19,2,2860.10000000149,416149.0,8084,NTS,B,12
4,8,test,1,C,triangle.png,0,m,Mon Feb 02 2026 16:32:39 GMT-0600 (Central Standard Time),422043.40000000596,1500,I,None,1516,12,2,3030.3000000044703,419013.1000000015,8084,NTS,B,13
8,9,test,1,C,triangle.png,1,m,Mon Feb 02 2026 16:32:39 GMT-0600 (Central Standard Time),424875.80000000447,1600,I,m,1213,23,2,2828.7000000029802,422047.1000000015,8084,NTS,B,14
1,10,test,1,C,circle.png,1,z,Mon Feb 02 2026 16:32:39 GMT-0600 (Central Standard Time),426758.5,1000,I,z,861,1,2,1878.7999999970198,424879.700000003,8084,NTS,B,15
4,11,test,1,C,triangle.png,1,m,Mon Feb 02 2026 16:32:39 GMT-0600 (Central Standard Time),429290.90000000596,1500,I,m,1014,20,2,2528.9000000059605,426762.0,8084,NTS,B,16
1,12,test,1,C,triangle.png,1,z,Mon Feb 02 2026 16:32:39 GMT-0600 (Central Standard Time),432390.1000000015,1900,I,z,1169,9,2,3095.0,429295.1000000015,8084,NTS,B,17
2,13,test,1,C,triangle.png,1,m,Mon Feb 02 2026 16:32:39 GMT-0600 (Central Standard Time),435372.5,2000,I,m,963,2,2,2978.7999999970198,432393.700000003,8084,NTS,B,18
3,14,test,1,C,triangle.png,1,z,Mon Feb 02 2026 16:32:39 GMT-0600 (Central Standard Time),437438.5,1200,I,z,836,3,2,2062.0,435376.5,8084,NTS,B,19
3,14,test,1,C,circle.png,0,z,Mon Feb 02 2026 16:32:39 GMT-0600 (Central Standard Time),440370.90000000596,1600,I,m,1306,11,2,2928.60000000149,437442.30000000447,8084,NTS,B,20
1,14,test,1,C,triangle.png,0,z,Mon Feb 02 2026 16:32:39 GMT-0600 (Central Standard Time),443686.40000000596,1900,I,m,1386,17,2,3311.9000000059605,440374.5,8084,NTS,B,21
2,15,test,1,C,circle.png,1,z,Mon Feb 02 2026 16:32:39 GMT-0600 (Central Standard Time),446335.6000000015,1700,I,z,926,18,2,2645.5,443690.1000000015,8084,NTS,B,22
9,16,test,1,C,circle.png,1,m,Mon Feb 02 2026 16:32:39 GMT-0600 (Central Standard Time),448685.1000000015,1500,I,m,829,24,2,2345.60000000149,446339.5,8084,NTS,B,23
6,17,test,1,C,circle.png,1,m,Mon Feb 02 2026 16:32:39 GMT-0600 (Central Standard Time),451684.1000000015,1900,I,m,1072,5,2,2994.1999999955297,448689.90000000596,8084,NTS,B,24
1,0,test,2,C,triangle.png,0,z,Mon Feb 02 2026 16:32:39 GMT-0600 (Central Standard Time),461414.40000000596,1900,I,None,1515,17,2,3429.10000000149,457985.30000000447,8084,NTS,B,1
3,1,test,2,C,triangle.png,1,z,Mon Feb 02 2026 16:32:39 GMT-0600 (Central Standard Time),463663.80000000447,1200,I,z,1018,3,2,2245.10000000149,461418.700000003,8084,NTS,B,2
6,2,test,2,C,triangle.png,1,m,Mon Feb 02 2026 16:32:39 GMT-0600 (Central Standard Time),465629.6000000015,1000,I,m,937,21,2,1962.0,463667.6000000015,8084,NTS,B,3
7,3,test,2,C,circle.png,1,m,Mon Feb 02 2026 16:32:39 GMT-0600 (Central Standard Time),469012.200000003,2000,I,m,1355,14,2,3378.2999999970198,465633.90000000596,8084,NTS,B,4
3,4,test,2,C,circle.png,1,z,Mon Feb 02 2026 16:32:39 GMT-0600 (Central Standard Time),471427.80000000447,1600,I,z,796,11,2,2411.8000000044703,469016.0,8084,NTS,B,5
2,5,test,2,C,circle.png,1,z,Mon Feb 02 2026 16:32:39 GMT-0600 (Central Standard Time),473777.1000000015,1700,I,z,625,10,2,2345.10000000149,471432.0,8084,NTS,B,6
7,6,test,2,C,circle.png,1,m,Mon Feb 02 2026 16:32:39 GMT-0600 (Central Standard Time),476759.40000000596,2000,I,m,952,22,2,2978.7000000029802,473780.700000003,8084,NTS,B,7
9,7,test,2,C,circle.png,1,m,Mon Feb 02 2026 16:32:39 GMT-0600 (Central Standard Time),479158.6000000015,1500,I,m,869,8,2,2395.5,476763.1000000015,8084,NTS,B,8
2,8,test,2,C,circle.png,1,z,Mon Feb 02 2026 16:32:39 GMT-0600 (Central Standard Time),481541.30000000447,1700,I,z,654,18,2,2379.0,479162.30000000447,8084,NTS,B,9
1,8,test,2,C,triangle.png,0,z,Mon Feb 02 2026 16:32:39 GMT-0600 (Central Standard Time),484390.5,1900,I,m,920,9,2,2845.1999999955297,481545.30000000447,8084,NTS,B,10
4,8,test,2,C,triangle.png,0,m,Mon Feb 02 2026 16:32:39 GMT-0600 (Central Standard Time),486923.0,1500,I,z,1014,12,2,2528.2999999970198,484394.700000003,8084,NTS,B,11
7,9,test,2,C,triangle.png,1,z,Mon Feb 02 2026 16:32:39 GMT-0600 (Central Standard Time),489555.700000003,1700,I,z,906,6,2,2628.89999999851,486926.80000000447,8084,NTS,B,12
2,10,test,2,C,triangle.png,1,m,Mon Feb 02 2026 16:32:39 GMT-0600 (Central Standard Time),492454.6000000015,2000,I,m,869,2,2,2894.10000000149,489560.5,8084,NTS,B,13
6,11,test,2,C,circle.png,1,m,Mon Feb 02 2026 16:32:39 GMT-0600 (Central Standard Time),495303.700000003,1900,I,m,926,5,2,2845.10000000149,492458.6000000015,8084,NTS,B,14
4,12,test,2,C,circle.png,1,z,Mon Feb 02 2026 16:32:39 GMT-0600 (Central Standard Time),497819.6000000015,1400,I,z,1089,4,2,2511.7999999970198,495307.80000000447,8084,NTS,B,15
8,13,test,2,C,circle.png,1,m,Mon Feb 02 2026 16:32:39 GMT-0600 (Central Standard Time),499802.30000000447,1200,I,m,765,15,2,1978.8000000044703,497823.5,8084,NTS,B,16
8,14,test,2,C,circle.png,1,m,Mon Feb 02 2026 16:32:39 GMT-0600 (Central Standard Time),501601.80000000447,1200,I,m,574,23,2,1795.8999999985099,499805.90000000596,8084,NTS,B,17
4,14,test,2,C,triangle.png,0,m,Mon Feb 02 2026 16:32:39 GMT-0600 (Central Standard Time),504400.80000000447,1500,I,z,1275,20,2,2795.10000000149,501605.700000003,8084,NTS,B,18
3,15,test,2,C,circle.png,1,z,Mon Feb 02 2026 16:32:39 GMT-0600 (Central Standard Time),507266.5,1600,I,z,1240,19,2,2861.2999999970198,504405.200000003,8084,NTS,B,19
9,15,test,2,C,triangle.png,0,z,Mon Feb 02 2026 16:32:39 GMT-0600 (Central Standard Time),509832.40000000596,1400,I,m,1142,16,2,2561.7000000029802,507270.700000003,8084,NTS,B,20
9,16,test,2,C,triangle.png,1,z,Mon Feb 02 2026 16:32:39 GMT-0600 (Central Standard Time),511898.5,1400,I,z,648,24,2,2062.1999999955297,509836.30000000447,8084,NTS,B,21
8,17,test,2,C,triangle.png,1,m,Mon Feb 02 2026 16:32:39 GMT-0600 (Central Standard Time),514314.30000000447,1600,I,m,761,7,2,2412.0,511902.30000000447,8084,NTS,B,22
1,18,test,2,C,circle.png,1,z,Mon Feb 02 2026 16:32:39 GMT-0600 (Central Standard Time),516397.0,1000,I,z,1062,1,2,2078.89999999851,514318.1000000015,8084,NTS,B,23
6,19,test,2,C,triangle.png,1,m,Mon Feb 02 2026 16:32:39 GMT-0600 (Central Standard Time),518663.0,1000,I,m,1235,13,2,2262.0,516401.0,8084,NTS,B,24
6,1,test,3,C,circle.png,1,m,Mon Feb 02 2026 16:32:39 GMT-0600 (Central Standard Time),523628.200000003,1900,I,m,1129,21,2,3045.7999999970198,520582.40000000596,8084,NTS,B,1
9,2,test,3,C,circle.png,1,m,Mon Feb 02 2026 16:32:39 GMT-0600 (Central Standard Time),525827.5,1500,I,m,672,24,2,2194.6999999955297,523632.80000000447,8084,NTS,B,2
3,3,test,3,C,circle.png,1,z,Mon Feb 02 2026 16:32:39 GMT-0600 (Central Standard Time),528176.8000000045,1600,I,z,717,11,2,2345.2000000029802,525831.6000000015,8084,NTS,B,3
8,3,test,3,C,triangle.png,0,m,Mon Feb 02 2026 16:32:39 GMT-0600 (Central Standard Time),530809.200000003,1600,I,z,1000,7,2,2628.2000000029802,528181.0,8084,NTS,B,4
1,4,test,3,C,triangle.png,1,z,Mon Feb 02 2026 16:32:39 GMT-0600 (Central Standard Time),533525.1000000015,1900,I,z,787,9,2,2712.10000000149,530813.0,8084,NTS,B,5
7,5,test,3,C,triangle.png,1,z,Mon Feb 02 2026 16:32:39 GMT-0600 (Central Standard Time),536107.5,1700,I,z,863,6,2,2578.0,533529.5,8084,NTS,B,6
8,5,test,3,C,triangle.png,0,m,Mon Feb 02 2026 16:32:39 GMT-0600 (Central Standard Time),539239.900000006,1600,I,None,1516,23,2,3128.7000000029802,536111.200000003,8084,NTS,B,7
4,6,test,3,C,circle.png,1,z,Mon Feb 02 2026 16:32:39 GMT-0600 (Central Standard Time),541539.200000003,1400,I,z,881,4,2,2295.5,539243.700000003,8084,NTS,B,8
6,7,test,3,C,circle.png,1,m,Mon Feb 02 2026 16:32:39 GMT-0600 (Central Standard Time),544171.700000003,1900,I,m,706,5,2,2628.89999999851,541542.8000000045,8084,NTS,B,9
3,8,test,3,C,triangle.png,1,z,Mon Feb 02 2026 16:32:39 GMT-0600 (Central Standard Time),546521.1000000015,1200,I,z,1125,3,2,2345.60000000149,544175.5,8084,NTS,B,10
2,8,test,3,C,circle.png,0,z,Mon Feb 02 2026 16:32:39 GMT-0600 (Central Standard Time),549286.8000000045,1700,I,m,1036,10,2,2761.5,546525.3000000045,8084,NTS,B,11
1,8,test,3,C,circle.png,0,z,Mon Feb 02 2026 16:32:39 GMT-0600 (Central Standard Time),551819.400000006,1000,I,None,1515,17,2,2528.60000000149,549290.8000000045,8084,NTS,B,12
9,9,test,3,C,triangle.png,1,z,Mon Feb 02 2026 16:32:39 GMT-0600 (Central Standard Time),554501.700000003,1400,I,z,1253,16,2,2678.39999999851,551823.3000000045,8084,NTS,B,13
4,10,test,3,C,triangle.png,1,m,Mon Feb 02 2026 16:32:39 GMT-0600 (Central Standard Time),557118.0,1500,I,m,1087,12,2,2612.0999999940395,554505.900000006,8084,NTS,B,14
2,11,test,3,C,triangle.png,1,m,Mon Feb 02 2026 16:32:39 GMT-0600 (Central Standard Time),559900.200000003,2000,I,m,763,2,2,2778.2000000029802,557122.0,8084,NTS,B,15
8,12,test,3,C,circle.png,1,m,Mon Feb 02 2026 16:32:39 GMT-0600 (Central Standard Time),561916.0,1200,I,m,788,15,2,2012.0,559904.0,8084,NTS,B,16
7,12,test,3,C,circle.png,0,m,Mon Feb 02 2026 16:32:39 GMT-0600 (Central Standard Time),565181.900000006,2000,I,z,1237,14,2,3262.10000000149,561919.8000000045,8084,NTS,B,17
1,13,test,3,C,circle.png,1,z,Mon Feb 02 2026 16:32:39 GMT-0600 (Central Standard Time),567231.1000000015,1000,I,z,1027,1,2,2045.5,565185.6000000015,8084,NTS,B,18
4,14,test,3,C,circle.png,1,z,Mon Feb 02 2026 16:32:39 GMT-0600 (Central Standard Time),569463.8000000045,1400,I,z,809,20,2,2228.60000000149,567235.200000003,8084,NTS,B,19
7,15,test,3,C,triangle.png,1,z,Mon Feb 02 2026 16:32:39 GMT-0600 (Central Standard Time),572113.0,1700,I,z,917,22,2,2645.2999999970198,569467.700000003,8084,NTS,B,20
3,16,test,3,C,triangle.png,1,z,Mon Feb 02 2026 16:32:39 GMT-0600 (Central Standard Time),574179.0,1200,I,z,840,19,2,2062.0,572117.0,8084,NTS,B,21
2,17,test,3,C,triangle.png,1,m,Mon Feb 02 2026 16:32:39 GMT-0600 (Central Standard Time),577411.3000000045,2000,I,m,1206,18,2,3228.60000000149,574182.700000003,8084,NTS,B,22
6,18,test,3,C,triangle.png,1,m,Mon Feb 02 2026 16:32:39 GMT-0600 (Central Standard Time),579360.6000000015,1000,I,m,924,13,2,1945.3999999985099,577415.200000003,8084,NTS,B,23
9,18,test,3,C,circle.png,0,m,Mon Feb 02 2026 16:32:39 GMT-0600 (Central Standard Time),582243.1000000015,1500,I,z,1356,8,2,2878.7999999970198,579364.3000000045,8084,NTS,B,24
2,0,test,4,C,triangle.png,0,m,Mon Feb 02 2026 16:32:39 GMT-0600 (Central Standard Time),588391.3000000045,2000,I,None,1516,18,2,3529.10000000149,584862.200000003,8084,NTS,B,1
7,1,test,4,C,triangle.png,1,z,Mon Feb 02 2026 16:32:39 GMT-0600 (Central Standard Time),591373.5,1700,I,z,1261,6,2,2978.0,588395.5,8084,NTS,B,2
6,2,test,4,C,circle.png,1,m,Mon Feb 02 2026 16:32:39 GMT-0600 (Central Standard Time),594122.700000003,1900,I,m,823,21,2,2745.39999999851,591377.3000000045,8084,NTS,B,3
8,3,test,4,C,triangle.png,1,m,Mon Feb 02 2026 16:32:39 GMT-0600 (Central Standard Time),596855.1000000015,1600,I,m,1102,23,2,2728.39999999851,594126.700000003,8084,NTS,B,4
1,4,test,4,C,circle.png,1,z,Mon Feb 02 2026 16:32:39 GMT-0600 (Central Standard Time),598604.6000000015,1000,I,z,721,1,2,1745.7999999970198,596858.8000000045,8084,NTS,B,5
4,5,test,4,C,circle.png,1,z,Mon Feb 02 2026 16:32:39 GMT-0600 (Central Standard Time),601103.900000006,1400,I,z,1068,4,2,2495.0,598608.900000006,8084,NTS,B,6
1,6,test,4,C,circle.png,1,z,Mon Feb 02 2026 16:32:39 GMT-0600 (Central Standard Time),603153.200000003,1000,I,z,1025,17,2,2045.6000000014901,601107.6000000015,8084,NTS,B,7
2,7,test,4,C,circle.png,1,z,Mon Feb 02 2026 16:32:39 GMT-0600 (Central Standard Time),605952.3000000045,1700,I,z,1067,10,2,2794.8000000044703,603157.5,8084,NTS,B,8
1,7,test,4,C,triangle.png,0,z,Mon Feb 02 2026 16:32:39 GMT-0600 (Central Standard Time),609134.6000000015,1900,I,m,1258,9,2,3177.7999999970198,605956.8000000045,8084,NTS,B,9
7,7,test,4,C,circle.png,0,m,Mon Feb 02 2026 16:32:39 GMT-0600 (Central Standard Time),612183.700000003,2000,I,z,1026,14,2,3045.2999999970198,609138.400000006,8084,NTS,B,10
4,8,test,4,C,circle.png,1,z,Mon Feb 02 2026 16:32:39 GMT-0600 (Central Standard Time),614383.1000000015,1400,I,z,769,20,2,2194.7999999970198,612188.3000000045,8084,NTS,B,11
8,9,test,4,C,triangle.png,1,m,Mon Feb 02 2026 16:32:39 GMT-0600 (Central Standard Time),617133.5,1600,I,m,1122,7,2,2746.1999999955297,614387.3000000045,8084,NTS,B,12
3,10,test,4,C,circle.png,1,z,Mon Feb 02 2026 16:32:39 GMT-0600 (Central Standard Time),619498.1000000015,1600,I,z,748,11,2,2360.2999999970198,617137.8000000045,8084,NTS,B,13
4,11,test,4,C,triangle.png,1,m,Mon Feb 02 2026 16:32:39 GMT-0600 (Central Standard Time),621830.8000000045,1500,I,m,802,12,2,2328.7000000029802,619502.1000000015,8084,NTS,B,14
3,12,test,4,C,triangle.png,1,z,Mon Feb 02 2026 16:32:39 GMT-0600 (Central Standard Time),623913.400000006,1200,I,z,866,19,2,2078.4000000059605,621835.0,8084,NTS,B,15
9,13,test,4,C,circle.png,1,m,Mon Feb 02 2026 16:32:39 GMT-0600 (Central Standard Time),626329.200000003,1500,I,m,883,8,2,2411.7000000029802,623917.5,8084,NTS,B,16
3,14,test,4,C,triangle.png,1,z,Mon Feb 02 2026 16:32:39 GMT-0600 (Central Standard Time),628412.1000000015,1200,I,z,855,3,2,2079.10000000149,626333.0,8084,NTS,B,17
2,15,test,4,C,triangle.png,1,m,Mon Feb 02 2026 16:32:39 GMT-0600 (Central Standard Time),631512.8000000045,2000,I,m,1069,2,2,3096.39999999851,628416.400000006,8084,NTS,B,18
7,16,test,4,C,triangle.png,1,z,Mon Feb 02 2026 16:32:39 GMT-0600 (Central Standard Time),634326.900000006,1700,I,z,1093,22,2,2809.8000000044703,631517.1000000015,8084,NTS,B,19
8,17,test,4,C,circle.png,1,m,Mon Feb 02 2026 16:32:39 GMT-0600 (Central Standard Time),636659.400000006,1200,I,m,1114,15,2,2328.60000000149,634330.8000000045,8084,NTS,B,20
6,18,test,4,C,circle.png,1,m,Mon Feb 02 2026 16:32:39 GMT-0600 (Central Standard Time),639658.400000006,1900,I,m,1073,5,2,2995.4000000059605,636663.0,8084,NTS,B,21
6,18,test,4,C,triangle.png,0,m,Mon Feb 02 2026 16:32:39 GMT-0600 (Central Standard Time),641974.3000000045,1000,I,z,1294,13,2,2311.89999999851,639662.400000006,8084,NTS,B,22
9,19,test,4,C,triangle.png,1,z,Mon Feb 02 2026 16:32:39 GMT-0600 (Central Standard Time),644290.400000006,1400,I,z,890,16,2,2311.8000000044703,641978.6000000015,8084,NTS,B,23
9,20,test,4,C,circle.png,1,m,Mon Feb 02 2026 16:32:39 GMT-0600 (Central Standard Time),646772.900000006,1500,I,m,954,24,2,2478.8000000044703,644294.1000000015,8084,NTS,B,24
