acc_sum,block_c,block_dur,condition,correct,correct_response,countdown,datetime,endtime,project,response,response_time,response_time_test1_response,response_time_test2_response,row_sel,same,session_number,start_end,starttime,stim1,stim2,subject_id,task,task_vers,time_test1,time_test2,trial
1,1,0.0,prac,1,z,30000.0,Wed May 28 2025 18:31:23 GMT-0500 (Central Daylight Time),28561.39999999106,I,z,3222,,,2,yes,2,4744.70000000298,23816.69999998808,NBGFSM,NBGFSM,8027,LC,A,,,1
2,1,0.0,prac,1,z,30000.0,Wed May 28 2025 18:31:23 GMT-0500 (Central Daylight Time),34526.19999998808,I,z,4435,,,6,yes,2,5960.699999988079,28565.5,CSDBFPHXZ,CSDBFPHXZ,8027,LC,A,,,2
3,1,0.0,prac,1,m,30000.0,Wed May 28 2025 18:31:23 GMT-0500 (Central Daylight Time),37908.39999999106,I,m,1844,,,3,no,2,3377.3999999910593,34531.0,QHZXPC,QHZWPC,8027,LC,A,,,3
4,1,0.0,prac,1,m,30000.0,Wed May 28 2025 18:31:23 GMT-0500 (Central Daylight Time),40807.59999999404,I,m,1375,,,1,no,2,2894.2999999970198,37913.29999999702,RNV,FNV,8027,LC,A,,,4
5,1,0.0,prac,1,m,30000.0,Wed May 28 2025 18:31:23 GMT-0500 (Central Daylight Time),44356.59999999404,I,m,2020,,,5,no,2,3544.7999999970198,40811.79999999702,LNDPRSKQB,LNDPRSJQB,8027,LC,A,,,5
6,1,0.0,prac,1,z,30000.0,Wed May 28 2025 18:31:23 GMT-0500 (Central Daylight Time),46972.19999998808,I,z,1088,,,4,yes,2,2611.5999999940395,44360.59999999404,RSM,RSM,8027,LC,A,,,6
1,1,1.2990000247955322,test,1,m,28700.999975204468,Wed May 28 2025 18:31:23 GMT-0500 (Central Daylight Time),52803.79999999702,I,m,1294,1294,,1,no,2,1296.7999999970198,51507.0,HCF,RCF,8027,LC,A,49641,,1
2,1,3.0820000171661377,test,1,m,26917.999982833862,Wed May 28 2025 18:31:23 GMT-0500 (Central Daylight Time),54586.5,I,m,1769,1769,,2,no,2,1779.4000000059605,52807.09999999404,QTPRJX,QTPNJX,8027,LC,A,50942,,2
3,1,4.563999891281128,test,1,m,25436.000108718872,Wed May 28 2025 18:31:23 GMT-0500 (Central Daylight Time),56069.09999999404,I,m,1474,1474,,3,no,2,1479.2000000029802,54589.89999999106,MZDYGVGKQ,MZDYGLBKQ,8027,LC,A,52725,,3
4,1,5.876999855041504,test,1,m,24123.000144958496,Wed May 28 2025 18:31:23 GMT-0500 (Central Daylight Time),57381.5,I,m,1295,1295,,4,no,2,1308.9000000059605,56072.59999999404,FQTNMK,JQTNMK,8027,LC,A,54207,,4
5,1,7.0289998054504395,test,1,z,22971.00019454956,Wed May 28 2025 18:31:23 GMT-0500 (Central Daylight Time),58535.19999998808,I,z,1135,1135,,5,yes,2,1150.0999999940395,57385.09999999404,CLJ,CLJ,8027,LC,A,55520,,5
5,1,9.92799997329712,test,0,m,20072.00002670288,Wed May 28 2025 18:31:23 GMT-0500 (Central Daylight Time),61434.19999998808,I,z,2894,2894,,6,no,2,2895.8999999910593,58538.29999999702,JGDMNSVPW,JGZMNSVPW,8027,LC,A,56673,,6
6,1,13.626999855041504,test,1,z,16373.000144958496,Wed May 28 2025 18:31:23 GMT-0500 (Central Daylight Time),65133.09999999404,I,z,3683,3683,,7,yes,2,3695.7000000029802,61437.39999999106,FPTVHKCBJ,FPTVHKCBJ,8027,LC,A,59572,,7
7,1,14.843999862670898,test,1,m,15156.000137329102,Wed May 28 2025 18:31:23 GMT-0500 (Central Daylight Time),66349.39999999106,I,m,1208,1208,,8,no,2,1212.8999999910593,65136.5,XRPZBS,ZRPBDH,8027,LC,A,63271,,8
8,1,16.16100001335144,test,1,m,13838.99998664856,Wed May 28 2025 18:31:23 GMT-0500 (Central Daylight Time),67666.59999999404,I,m,1311,1311,,9,no,2,1314.2000000029802,66352.39999999106,ZSQ,ZSP,8027,LC,A,64487,,9
9,1,18.625999927520752,test,1,z,11374.000072479248,Wed May 28 2025 18:31:23 GMT-0500 (Central Daylight Time),70131.5,I,z,2450,2450,,10,yes,2,2461.1000000089407,67670.39999999106,MPZRXL,MPZRXL,8027,LC,A,65805,,10
10,1,19.792999982833862,test,1,m,10207.000017166138,Wed May 28 2025 18:31:23 GMT-0500 (Central Daylight Time),71298.79999999702,I,m,1161,1161,,11,no,2,1163.7999999970198,70135.0,KJH,KRH,8027,LC,A,68270,,11
11,1,25.756999969482422,test,1,z,4243.000030517578,Wed May 28 2025 18:31:23 GMT-0500 (Central Daylight Time),77262.79999999702,I,z,5954,5954,,12,yes,2,5960.70000000298,71302.09999999404,SMNHVTFCB,SMNHVTFCB,8027,LC,A,69437,,12
12,1,28.18999981880188,test,1,z,1810.0001811981201,Wed May 28 2025 18:31:23 GMT-0500 (Central Daylight Time),79695.29999999702,I,z,2414,2414,,13,yes,2,2429.1000000089407,77266.19999998808,KJWTQF,KJWTQF,8027,LC,A,75401,,13
12,1,30.00599980354309,test,0,z,-5.99980354309082,Wed May 28 2025 18:31:23 GMT-0500 (Central Daylight Time),81511.29999999702,I,None,1812,1812,,14,yes,2,1812.9000000059605,79698.39999999106,CHDKQGLMB,CHDKQGLMB,8027,LC,A,77833,,14
1,2,4.265000104904175,test,1,z,25734.999895095825,Wed May 28 2025 18:31:23 GMT-0500 (Central Daylight Time),87575.89999999106,I,z,4246,,4246.0,1,yes,2,7877.5,79698.39999999106,PRDBZTYFN,PRDBZTYFN,8027,LC,A,,81448.0,1
2,2,6.680999994277954,test,1,m,23319.000005722046,Wed May 28 2025 18:31:23 GMT-0500 (Central Daylight Time),89991.89999999106,I,m,2405,,2405.0,2,no,2,10293.5,79698.39999999106,NCWJDZ,NCMJDZ,8027,LC,A,,85714.0,2
3,2,8.814000129699707,test,1,m,21185.999870300293,Wed May 28 2025 18:31:23 GMT-0500 (Central Daylight Time),92124.59999999404,I,m,2125,,2125.0,3,no,2,12426.20000000298,79698.39999999106,KHW,KBW,8027,LC,A,,88130.0,3
4,2,11.34600019454956,test,1,m,18653.99980545044,Wed May 28 2025 18:31:23 GMT-0500 (Central Daylight Time),94657.0,I,m,2512,,2512.0,4,no,2,14958.60000000894,79698.39999999106,ZRBGMF,ZRBCMF,8027,LC,A,,90263.0,4
5,2,12.496000051498413,test,1,m,17503.999948501587,Wed May 28 2025 18:31:23 GMT-0500 (Central Daylight Time),95806.69999998808,I,m,1139,,1139.0,5,no,2,16108.29999999702,79698.39999999106,BTH,BYH,8027,LC,A,,92795.0,5
6,2,15.745000123977661,test,1,z,14254.999876022339,Wed May 28 2025 18:31:23 GMT-0500 (Central Daylight Time),99055.89999999106,I,z,3239,,3239.0,6,yes,2,19357.5,79698.39999999106,XWKQRYCNZ,XWKQRYCNZ,8027,LC,A,,93944.0,6
7,2,18.42799997329712,test,1,z,11572.00002670288,Wed May 28 2025 18:31:23 GMT-0500 (Central Daylight Time),101738.29999999702,I,z,2678,,2678.0,7,yes,2,22039.90000000596,79698.39999999106,HNPDLK,HNPDLK,8027,LC,A,,97193.0,7
8,2,21.360000133514404,test,1,m,8639.999866485596,Wed May 28 2025 18:31:23 GMT-0500 (Central Daylight Time),104670.59999999404,I,m,2915,,2915.0,8,no,2,24972.20000000298,79698.39999999106,WMQTRSGLZ,WMQTRZGLZ,8027,LC,A,,99876.0,8
9,2,22.610000133514404,test,1,z,7389.999866485596,Wed May 28 2025 18:31:23 GMT-0500 (Central Daylight Time),105920.39999999106,I,z,1231,,1231.0,9,yes,2,26222.0,79698.39999999106,JPN,JPN,8027,LC,A,,102808.0,9
10,2,24.509000062942505,test,1,m,5490.999937057495,Wed May 28 2025 18:31:23 GMT-0500 (Central Daylight Time),107819.89999999106,I,m,1884,,1884.0,10,no,2,28121.5,79698.39999999106,QLXSVT,QLNSVT,8027,LC,A,,104058.0,10
11,2,27.85800004005432,test,1,z,2141.9999599456787,Wed May 28 2025 18:31:23 GMT-0500 (Central Daylight Time),111168.79999999702,I,z,3330,,3330.0,11,yes,2,31470.40000000596,79698.39999999106,YXHKZVFPB,YXHKZVFPD,8027,LC,A,,105957.0,11
12,2,29.741000175476074,test,1,z,258.9998245239258,Wed May 28 2025 18:31:23 GMT-0500 (Central Daylight Time),113051.39999999106,I,z,1869,,1869.0,12,yes,2,33353.0,79698.39999999106,RJZ,RJZ,8027,LC,A,,109306.0,12
12,2,30.007000207901,test,0,z,-7.000207901000977,Wed May 28 2025 18:31:23 GMT-0500 (Central Daylight Time),113318.0,I,None,263,,263.0,13,yes,2,33619.60000000894,79698.39999999106,CLNPZD,CLNPZD,8027,LC,A,,111189.0,13
