acc_sum,block_c,block_dur,condition,correct,correct_response,countdown,datetime,endtime,project,response,response_time,response_time_test1_response,response_time_test2_response,row_sel,same,session_number,start_end,starttime,stim1,stim2,subject_id,task,task_vers,time_test1,time_test2,trial
1,1,0.0,prac,1,m,30000.0,Tue Apr 21 2026 15:28:13 GMT-0500 (Central Daylight Time),47125.699999928474,O,m,3684,,,6,no,1,5207.799999952316,41917.89999997616,practrial6.png,practrial6b.png,7790,PC,C,,,1
2,1,0.0,prac,1,z,30000.0,Tue Apr 21 2026 15:28:13 GMT-0500 (Central Daylight Time),50189.699999928474,O,z,1542,,,5,yes,1,3056.1999999284744,47133.5,practrial5.png,practrial5.png,7790,PC,C,,,2
3,1,0.0,prac,1,z,30000.0,Tue Apr 21 2026 15:28:13 GMT-0500 (Central Daylight Time),53139.39999997616,O,z,1427,,,3,yes,1,2945.899999976158,50193.5,practrial3.png,practrial3.png,7790,PC,C,,,3
4,1,0.0,prac,1,m,30000.0,Tue Apr 21 2026 15:28:13 GMT-0500 (Central Daylight Time),56205.799999952316,O,m,1532,,,2,no,1,3062.2999999523163,53143.5,practrial2.png,practrial2b.png,7790,PC,C,,,4
5,1,0.0,prac,1,z,30000.0,Tue Apr 21 2026 15:28:13 GMT-0500 (Central Daylight Time),59222.799999952316,O,z,1479,,,1,yes,1,3010.899999976158,56211.89999997616,practrial1.png,practrial1.png,7790,PC,C,,,5
6,1,0.0,prac,1,m,30000.0,Tue Apr 21 2026 15:28:13 GMT-0500 (Central Daylight Time),63770.60000002384,O,m,3041,,,4,no,1,4542.300000071526,59228.299999952316,practrial4.png,practrial4b.png,7790,PC,C,,,6
1,1,2.8980000019073486,test,1,z,27101.99999809265,Tue Apr 21 2026 15:28:13 GMT-0500 (Central Daylight Time),75183.0,O,z,2875,2875,,1,yes,1,2892.5,72290.5,test1trial1.png,test1trial1.png,7790,PC,C,67350,,1
2,1,4.2149999141693115,test,1,m,25785.00008583069,Tue Apr 21 2026 15:28:13 GMT-0500 (Central Daylight Time),76499.89999997616,O,m,1295,1295,,2,no,1,1311.5,75188.39999997616,test1trial2.png,test1trial2b.png,7790,PC,C,70248,,2
3,1,5.645999908447266,test,1,z,24354.000091552734,Tue Apr 21 2026 15:28:13 GMT-0500 (Central Daylight Time),77931.19999992847,O,z,1425,1425,,3,yes,1,1426.5,76504.69999992847,test1trial3.png,test1trial3.png,7790,PC,C,71565,,3
4,1,6.928999900817871,test,1,m,23071.00009918213,Tue Apr 21 2026 15:28:13 GMT-0500 (Central Daylight Time),79214.5,O,m,1278,1278,,4,no,1,1281.3000000715256,77933.19999992847,test1trial4.png,test1trial4b.png,7790,PC,C,72993,,4
5,1,8.480000019073486,test,1,z,21519.999980926514,Tue Apr 21 2026 15:28:13 GMT-0500 (Central Daylight Time),80764.79999995232,O,z,1538,1538,,5,yes,1,1547.8999999761581,79216.89999997616,test1trial5.png,test1trial5.png,7790,PC,C,74276,,5
6,1,9.995000123977661,test,1,m,20004.99987602234,Tue Apr 21 2026 15:28:13 GMT-0500 (Central Daylight Time),82279.89999997616,O,m,1498,1498,,6,no,1,1510.7999999523163,80769.10000002384,test1trial6.png,test1trial6b.png,7790,PC,C,75829,,6
7,1,11.07800006866455,test,1,z,18921.99993133545,Tue Apr 21 2026 15:28:13 GMT-0500 (Central Daylight Time),83363.10000002384,O,z,1064,1064,,7,yes,1,1078.8000000715256,82284.29999995232,test1trial7.png,test1trial7.png,7790,PC,C,77344,,7
8,1,13.34500002861023,test,1,m,16654.99997138977,Tue Apr 21 2026 15:28:13 GMT-0500 (Central Daylight Time),85630.10000002384,O,m,2249,2249,,8,no,1,2261.100000023842,83369.0,test1trial8.png,test1trial8b.png,7790,PC,C,78430,,8
9,1,14.927000045776367,test,1,z,15072.999954223633,Tue Apr 21 2026 15:28:13 GMT-0500 (Central Daylight Time),87212.10000002384,O,z,1560,1560,,9,yes,1,1578.0,85634.10000002384,test1trial9.png,test1trial9.png,7790,PC,C,80694,,9
10,1,16.342999935150146,test,1,m,13657.000064849854,Tue Apr 21 2026 15:28:13 GMT-0500 (Central Daylight Time),88628.29999995232,O,m,1395,1395,,10,no,1,1411.8999999761581,87216.39999997616,test1trial10.png,test1trial10b.png,7790,PC,C,82277,,10
11,1,17.947999954223633,test,1,z,12052.000045776367,Tue Apr 21 2026 15:28:13 GMT-0500 (Central Daylight Time),90233.0,O,z,1585,1585,,11,yes,1,1599.2000000476837,88633.79999995232,test1trial11.png,test1trial11.png,7790,PC,C,83693,,11
12,1,20.55900001525879,test,1,m,9440.999984741211,Tue Apr 21 2026 15:28:13 GMT-0500 (Central Daylight Time),92843.79999995232,O,m,2600,2600,,12,no,1,2608.7999999523163,90235.0,test1trial12.png,test1trial12b.png,7790,PC,C,85295,,12
13,1,22.47499990463257,test,1,m,7525.000095367432,Tue Apr 21 2026 15:28:13 GMT-0500 (Central Daylight Time),94760.29999995232,O,m,1899,1899,,13,no,1,1912.0,92848.29999995232,test1trial13.png,test1trial13b.png,7790,PC,C,87908,,13
14,1,24.257999897003174,test,1,m,5742.000102996826,Tue Apr 21 2026 15:28:13 GMT-0500 (Central Daylight Time),96543.10000002384,O,m,1762,1762,,14,no,1,1779.4000000953674,94763.69999992847,test1trial14.png,test1trial14b.png,7790,PC,C,89824,,14
15,1,25.92300009727478,test,1,z,4076.9999027252197,Tue Apr 21 2026 15:28:13 GMT-0500 (Central Daylight Time),98208.39999997616,O,z,1646,1646,,15,yes,1,1660.2999999523163,96548.10000002384,test1trial15.png,test1trial15.png,7790,PC,C,91608,,15
16,1,27.124000072479248,test,1,m,2875.999927520752,Tue Apr 21 2026 15:28:13 GMT-0500 (Central Daylight Time),99409.39999997616,O,m,1183,1183,,16,no,1,1197.2999999523163,98212.10000002384,test1trial16.png,test1trial16b.png,7790,PC,C,93272,,16
17,1,28.723000049591064,test,1,z,1276.9999504089355,Tue Apr 21 2026 15:28:13 GMT-0500 (Central Daylight Time),101008.29999995232,O,z,1583,1583,,17,yes,1,1595.5,99412.79999995232,test1trial17.png,test1trial17.png,7790,PC,C,94473,,17
17,1,30.007999897003174,test,0,m,-7.999897003173828,Tue Apr 21 2026 15:28:13 GMT-0500 (Central Daylight Time),102292.79999995232,O,None,1280,1280,,18,no,1,1281.1000000238419,101011.69999992847,test1trial18.png,test1trial18b.png,7790,PC,C,96071,,18
1,2,2.746999979019165,test,1,m,27253.000020980835,Tue Apr 21 2026 15:28:13 GMT-0500 (Central Daylight Time),109072.19999992847,O,m,2731,,2731.0,1,no,1,8060.5,101011.69999992847,test2trial1.png,test2trial1b.png,7790,PC,C,,101388.0,1
2,2,4.2799999713897705,test,1,m,25720.00002861023,Tue Apr 21 2026 15:28:13 GMT-0500 (Central Daylight Time),110605.39999997616,O,m,1525,,1525.0,2,no,1,9593.700000047684,101011.69999992847,test2trial2.png,test2trial2b.png,7790,PC,C,,104138.0,2
3,2,6.979000091552734,test,1,z,23020.999908447266,Tue Apr 21 2026 15:28:13 GMT-0500 (Central Daylight Time),113303.79999995232,O,z,2691,,2691.0,3,yes,1,12292.100000023842,101011.69999992847,test2trial3.png,test2trial3.png,7790,PC,C,,105668.0,3
4,2,8.296000003814697,test,1,z,21703.999996185303,Tue Apr 21 2026 15:28:13 GMT-0500 (Central Daylight Time),114620.79999995232,O,z,1313,,1313.0,4,yes,1,13609.100000023842,101011.69999992847,test2trial4.png,test2trial4.png,7790,PC,C,,108366.0,4
5,2,10.279000043869019,test,1,z,19720.99995613098,Tue Apr 21 2026 15:28:13 GMT-0500 (Central Daylight Time),116604.19999992847,O,z,1979,,1979.0,5,yes,1,15592.5,101011.69999992847,test2trial5.png,test2trial5.png,7790,PC,C,,109684.0,5
6,2,12.075000047683716,test,1,z,17924.999952316284,Tue Apr 21 2026 15:28:13 GMT-0500 (Central Daylight Time),118400.60000002384,O,z,1789,,1789.0,6,yes,1,17388.900000095367,101011.69999992847,test2trial6.png,test2trial6.png,7790,PC,C,,111667.0,6
7,2,13.457000017166138,test,1,m,16542.999982833862,Tue Apr 21 2026 15:28:13 GMT-0500 (Central Daylight Time),119782.29999995232,O,m,1373,,1373.0,7,no,1,18770.600000023842,101011.69999992847,test2trial7.png,test2trial7b.png,7790,PC,C,,113465.0,7
8,2,14.942000150680542,test,1,m,15057.999849319458,Tue Apr 21 2026 15:28:13 GMT-0500 (Central Daylight Time),121267.19999992847,O,m,1481,,1481.0,8,no,1,20255.5,101011.69999992847,test2trial8.png,test2trial8b.png,7790,PC,C,,114845.0,8
9,2,17.24500012397766,test,1,z,12754.999876022339,Tue Apr 21 2026 15:28:13 GMT-0500 (Central Daylight Time),123570.5,O,z,2293,,2293.0,9,yes,1,22558.800000071526,101011.69999992847,test2trial9.png,test2trial9.png,7790,PC,C,,116329.0,9
10,2,18.95799994468689,test,1,z,11042.00005531311,Tue Apr 21 2026 15:28:13 GMT-0500 (Central Daylight Time),125283.69999992847,O,z,1702,,1702.0,10,yes,1,24272.0,101011.69999992847,test2trial10.png,test2trial10.png,7790,PC,C,,118632.0,10
11,2,20.35700011253357,test,1,m,9642.99988746643,Tue Apr 21 2026 15:28:13 GMT-0500 (Central Daylight Time),126682.60000002384,O,m,1390,,1390.0,11,no,1,25670.900000095367,101011.69999992847,test2trial11.png,test2trial11b.png,7790,PC,C,,120345.0,11
12,2,23.19099998474121,test,1,m,6809.000015258789,Tue Apr 21 2026 15:28:13 GMT-0500 (Central Daylight Time),129516.5,O,m,2822,,2822.0,12,no,1,28504.800000071526,101011.69999992847,test2trial12.png,test2trial12b.png,7790,PC,C,,121746.0,12
13,2,24.437999963760376,test,1,z,5562.000036239624,Tue Apr 21 2026 15:28:13 GMT-0500 (Central Daylight Time),130763.69999992847,O,z,1227,,1227.0,13,yes,1,29752.0,101011.69999992847,test2trial13.png,test2trial13.png,7790,PC,C,,124579.0,13
14,2,26.289000034332275,test,1,m,3710.9999656677246,Tue Apr 21 2026 15:28:13 GMT-0500 (Central Daylight Time),132614.0,O,m,1831,,1831.0,14,no,1,31602.300000071526,101011.69999992847,test2trial14.png,test2trial14b.png,7790,PC,C,,125825.0,14
15,2,27.4060001373291,test,1,m,2593.9998626708984,Tue Apr 21 2026 15:28:13 GMT-0500 (Central Daylight Time),133731.79999995232,O,m,1116,,1116.0,15,no,1,32720.100000023842,101011.69999992847,test2trial15.png,test2trial15b.png,7790,PC,C,,127675.0,15
16,2,29.536999940872192,test,1,m,463.0000591278076,Tue Apr 21 2026 15:28:13 GMT-0500 (Central Daylight Time),135862.60000002384,O,m,2125,,2125.0,16,no,1,34850.90000009537,101011.69999992847,test2trial16.png,test2trial16b.png,7790,PC,C,,128793.0,16
16,2,30.003999948501587,test,0,z,-3.999948501586914,Tue Apr 21 2026 15:28:13 GMT-0500 (Central Daylight Time),136329.69999992847,O,None,465,,465.0,17,yes,1,35318.0,101011.69999992847,test2trial17.png,test2trial17.png,7790,PC,C,,130924.0,17
