acc_sum,block,block_c,change,condition,correct,correct_response,datetime,endtime,face,project,response,response_time,row_sel,session_number,start_end,starttime,subject_id,task,task_vers,trial
0,prac,1,,1-Back,,,Tue Dec 02 2025 15:02:14 GMT-0600 (Central Standard Time),,124_o_f_d_a.png,O,space,2619,1,,,,7713,VNB,A,0
0,prac,1,0.0,1-Back,0.0,m,Tue Dec 02 2025 15:02:14 GMT-0600 (Central Standard Time),145068.19999998808,071_y_f_n_a.png,O,z,1972,2,,2772.300000011921,142295.89999997616,7713,VNB,A,1
0,prac,1,0.0,1-Back,0.0,m,Tue Dec 02 2025 15:02:14 GMT-0600 (Central Standard Time),147733.79999998212,165_m_m_h_a.png,O,z,1854,3,,2655.699999988079,145078.09999999404,7713,VNB,A,2
1,prac,1,0.0,1-Back,1.0,m,Tue Dec 02 2025 15:02:14 GMT-0600 (Central Standard Time),150382.89999997616,109_y_m_d_a.png,O,m,1839,4,,2639.199999988079,147743.69999998808,7713,VNB,A,3
1,prac,1,0.0,1-Back,0.0,m,Tue Dec 02 2025 15:02:14 GMT-0600 (Central Standard Time),153015.5,124_o_f_n_a.png,O,z,1793,5,,2623.2000000178814,150392.29999998212,7713,VNB,A,4
1,prac,1,1.0,1-Back,0.0,z,Tue Dec 02 2025 15:02:14 GMT-0600 (Central Standard Time),155831.39999997616,109_y_m_n_a.png,O,None,2009,6,,2806.0,153025.39999997616,7713,VNB,A,5
2,prac,1,0.0,1-Back,1.0,m,Tue Dec 02 2025 15:02:14 GMT-0600 (Central Standard Time),158263.89999997616,039_o_m_h_a.png,O,m,1630,7,,2422.2999999821186,155841.59999999404,7713,VNB,A,6
2,prac,1,0.0,1-Back,0.0,m,Tue Dec 02 2025 15:02:14 GMT-0600 (Central Standard Time),160029.89999997616,139_m_f_d_a.png,O,z,948,8,,1756.3999999761581,158273.5,7713,VNB,A,7
3,prac,1,1.0,1-Back,1.0,z,Tue Dec 02 2025 15:02:14 GMT-0600 (Central Standard Time),162295.89999997616,071_y_f_d_a.png,O,z,1464,9,,2256.5,160039.39999997616,7713,VNB,A,8
3,prac,1,0.0,1-Back,0.0,m,Tue Dec 02 2025 15:02:14 GMT-0600 (Central Standard Time),165036.29999998212,165_m_m_n_a.png,O,z,1803,10,,2730.0999999940395,162306.19999998808,7713,VNB,A,9
4,prac,1,0.0,1-Back,1.0,m,Tue Dec 02 2025 15:02:14 GMT-0600 (Central Standard Time),167561.0,124_o_f_h_a.png,O,m,1686,11,,2511.4000000059605,165049.59999999404,7713,VNB,A,10
4,prac,1,0.0,1-Back,0.0,m,Tue Dec 02 2025 15:02:14 GMT-0600 (Central Standard Time),169277.39999997616,109_y_m_d_a.png,O,z,924,12,,1706.3999999761581,167571.0,7713,VNB,A,11
0,prac,2,0.0,1-Back,,,Tue Dec 02 2025 15:02:14 GMT-0600 (Central Standard Time),169277.39999997616,124_o_f_d_a.png,O,a,3694,1,,1706.3999999761581,167571.0,7713,VNB,A,0
0,prac,2,0.0,1-Back,0.0,m,Tue Dec 02 2025 15:02:14 GMT-0600 (Central Standard Time),178823.89999997616,071_y_f_n_a.png,O,None,2010,2,,2805.0,176018.89999997616,7713,VNB,A,1
0,prac,2,0.0,1-Back,0.0,m,Tue Dec 02 2025 15:02:14 GMT-0600 (Central Standard Time),181639.69999998808,165_m_m_h_a.png,O,None,2014,3,,2805.199999988079,178834.5,7713,VNB,A,2
0,prac,2,0.0,1-Back,0.0,m,Tue Dec 02 2025 15:02:14 GMT-0600 (Central Standard Time),183739.29999998212,109_y_m_d_a.png,O,z,1317,4,,2089.0,181650.29999998212,7713,VNB,A,3
1,prac,2,0.0,1-Back,1.0,m,Tue Dec 02 2025 15:02:14 GMT-0600 (Central Standard Time),186421.5,124_o_f_n_a.png,O,m,1835,5,,2672.4000000059605,183749.09999999404,7713,VNB,A,4
2,prac,2,1.0,1-Back,1.0,z,Tue Dec 02 2025 15:02:14 GMT-0600 (Central Standard Time),188689.39999997616,109_y_m_n_a.png,O,z,1450,6,,2257.899999976158,186431.5,7713,VNB,A,5
3,prac,2,0.0,1-Back,1.0,m,Tue Dec 02 2025 15:02:14 GMT-0600 (Central Standard Time),190770.39999997616,039_o_m_h_a.png,O,m,1264,7,,2067.199999988079,188703.19999998808,7713,VNB,A,6
3,prac,2,0.0,1-Back,0.0,m,Tue Dec 02 2025 15:02:14 GMT-0600 (Central Standard Time),192802.89999997616,139_m_f_d_a.png,O,z,1225,8,,2022.7999999821186,190780.09999999404,7713,VNB,A,7
4,prac,2,1.0,1-Back,1.0,z,Tue Dec 02 2025 15:02:14 GMT-0600 (Central Standard Time),195135.69999998808,071_y_f_d_a.png,O,z,1522,9,,2323.199999988079,192812.5,7713,VNB,A,8
5,prac,2,0.0,1-Back,1.0,m,Tue Dec 02 2025 15:02:14 GMT-0600 (Central Standard Time),197401.59999999404,165_m_m_n_a.png,O,m,1454,10,,2256.800000011921,195144.79999998212,7713,VNB,A,9
6,prac,2,0.0,1-Back,1.0,m,Tue Dec 02 2025 15:02:14 GMT-0600 (Central Standard Time),199817.09999999404,124_o_f_h_a.png,O,m,1584,11,,2404.300000011921,197412.79999998212,7713,VNB,A,10
6,prac,2,0.0,1-Back,0.0,m,Tue Dec 02 2025 15:02:14 GMT-0600 (Central Standard Time),201400.5,109_y_m_d_a.png,O,z,820,12,,1573.6000000238419,199826.89999997616,7713,VNB,A,11
0,test,1,0.0,1-Back,,,Tue Dec 02 2025 15:02:14 GMT-0600 (Central Standard Time),201400.5,071_y_f_d_a.png,O,space,11367,1,,1573.6000000238419,199826.89999997616,7713,VNB,A,0
0,test,1,0.0,1-Back,0.0,m,Tue Dec 02 2025 15:02:14 GMT-0600 (Central Standard Time),235956.29999998212,139_m_f_n_a.png,O,None,2016,2,,3023.199999988079,232933.09999999404,7713,VNB,A,1
1,test,1,0.0,1-Back,1.0,m,Tue Dec 02 2025 15:02:14 GMT-0600 (Central Standard Time),238255.5,039_o_m_h_a.png,O,m,1282,3,,2290.5,235965.0,7713,VNB,A,2
1,test,1,1.0,1-Back,0.0,z,Tue Dec 02 2025 15:02:14 GMT-0600 (Central Standard Time),240421.39999997616,165_m_m_h_a.png,O,m,1136,4,,2157.5999999940395,238263.79999998212,7713,VNB,A,3
1,test,1,0.0,1-Back,0.0,m,Tue Dec 02 2025 15:02:14 GMT-0600 (Central Standard Time),243453.89999997616,124_o_f_n_a.png,O,None,2015,5,,3023.5999999940395,240430.29999998212,7713,VNB,A,4
2,test,1,0.0,1-Back,1.0,m,Tue Dec 02 2025 15:02:14 GMT-0600 (Central Standard Time),245986.39999997616,109_y_m_d_a.png,O,m,1513,6,,2522.7999999821186,243463.59999999404,7713,VNB,A,5
2,test,1,1.0,1-Back,0.0,z,Tue Dec 02 2025 15:02:14 GMT-0600 (Central Standard Time),249018.79999998212,139_m_f_d_a.png,O,None,2015,7,,3023.0999999940395,245995.69999998808,7713,VNB,A,6
3,test,1,0.0,1-Back,1.0,m,Tue Dec 02 2025 15:02:14 GMT-0600 (Central Standard Time),251068.09999999404,071_y_f_h_a.png,O,m,1027,8,,2040.7000000178814,249027.39999997616,7713,VNB,A,7
4,test,1,0.0,1-Back,1.0,m,Tue Dec 02 2025 15:02:14 GMT-0600 (Central Standard Time),253551.0,039_o_m_n_a.png,O,m,1450,9,,2473.800000011921,251077.19999998808,7713,VNB,A,8
5,test,1,0.0,1-Back,1.0,m,Tue Dec 02 2025 15:02:14 GMT-0600 (Central Standard Time),255933.19999998808,109_y_m_h_a.png,O,m,1360,10,,2373.300000011921,253559.89999997616,7713,VNB,A,9
6,test,1,0.0,1-Back,1.0,m,Tue Dec 02 2025 15:02:14 GMT-0600 (Central Standard Time),258132.09999999404,039_o_m_d_a.png,O,m,1169,11,,2190.4000000059605,255941.69999998808,7713,VNB,A,10
6,test,1,1.0,1-Back,0.0,z,Tue Dec 02 2025 15:02:14 GMT-0600 (Central Standard Time),261231.69999998808,124_o_f_d_a.png,O,None,2004,12,,3087.5999999940395,258144.09999999404,7713,VNB,A,11
6,test,1,0.0,1-Back,0.0,m,Tue Dec 02 2025 15:02:14 GMT-0600 (Central Standard Time),264263.89999997616,165_m_m_n_a.png,O,None,2016,13,,3023.199999988079,261240.69999998808,7713,VNB,A,12
7,test,1,1.0,1-Back,1.0,z,Tue Dec 02 2025 15:02:14 GMT-0600 (Central Standard Time),265913.2999999821,071_y_f_n_a.png,O,z,623,14,,1640.7999999821186,264272.5,7713,VNB,A,13
8,test,1,0.0,1-Back,1.0,m,Tue Dec 02 2025 15:02:14 GMT-0600 (Central Standard Time),268562.6999999881,139_m_f_h_a.png,O,m,1630,15,,2640.800000011921,265921.89999997616,7713,VNB,A,14
9,test,1,0.0,1-Back,1.0,m,Tue Dec 02 2025 15:02:14 GMT-0600 (Central Standard Time),271262.0,165_m_m_d_a.png,O,m,1669,16,,2690.7000000178814,268571.2999999821,7713,VNB,A,15
9,test,1,0.0,1-Back,0.0,m,Tue Dec 02 2025 15:02:14 GMT-0600 (Central Standard Time),273594.1999999881,109_y_m_n_a.png,O,z,1313,17,,2323.4000000059605,271270.7999999821,7713,VNB,A,16
10,test,1,0.0,1-Back,1.0,m,Tue Dec 02 2025 15:02:14 GMT-0600 (Central Standard Time),275727.09999999404,124_o_f_h_a.png,O,m,1108,18,,2123.5999999940395,273603.5,7713,VNB,A,17
0,test,2,0.0,1-Back,,,Tue Dec 02 2025 15:02:14 GMT-0600 (Central Standard Time),275727.09999999404,109_y_m_n_a.png,O,space,2183,1,,2123.5999999940395,273603.5,7713,VNB,A,0
1,test,2,0.0,1-Back,1.0,m,Tue Dec 02 2025 15:02:14 GMT-0600 (Central Standard Time),281841.6999999881,071_y_f_h_a.png,O,m,881,2,,1889.199999988079,279952.5,7713,VNB,A,1
2,test,2,1.0,1-Back,1.0,m,Tue Dec 02 2025 15:02:14 GMT-0600 (Central Standard Time),284974.09999999404,039_o_m_n_a.png,O,m,1972,3,,3123.5,281850.59999999404,7713,VNB,A,2
3,test,2,0.0,1-Back,1.0,m,Tue Dec 02 2025 15:02:14 GMT-0600 (Central Standard Time),287823.0,139_m_f_d_a.png,O,m,1816,4,,2840.300000011921,284982.6999999881,7713,VNB,A,3
4,test,2,0.0,1-Back,1.0,z,Tue Dec 02 2025 15:02:14 GMT-0600 (Central Standard Time),290272.89999997616,165_m_m_d_a.png,O,z,1432,5,,2440.899999976158,287832.0,7713,VNB,A,4
5,test,2,0.0,1-Back,1.0,m,Tue Dec 02 2025 15:02:14 GMT-0600 (Central Standard Time),292238.5,109_y_m_h_a.png,O,m,942,6,,1956.800000011921,290281.6999999881,7713,VNB,A,5
5,test,2,1.0,1-Back,0.0,z,Tue Dec 02 2025 15:02:14 GMT-0600 (Central Standard Time),294021.2999999821,124_o_f_h_a.png,O,m,760,7,,1774.0999999940395,292247.1999999881,7713,VNB,A,6
5,test,2,0.0,1-Back,0.0,m,Tue Dec 02 2025 15:02:14 GMT-0600 (Central Standard Time),296087.39999997616,139_m_f_n_a.png,O,z,1041,8,,2057.0999999940395,294030.2999999821,7713,VNB,A,7
5,test,2,0.0,1-Back,0.0,m,Tue Dec 02 2025 15:02:14 GMT-0600 (Central Standard Time),298769.89999997616,071_y_f_d_a.png,O,z,1663,9,,2673.699999988079,296096.1999999881,7713,VNB,A,8
5,test,2,0.0,1-Back,0.0,m,Tue Dec 02 2025 15:02:14 GMT-0600 (Central Standard Time),301102.5,165_m_m_n_a.png,O,z,1310,10,,2323.800000011921,298778.6999999881,7713,VNB,A,9
6,test,2,1.0,1-Back,1.0,m,Tue Dec 02 2025 15:02:14 GMT-0600 (Central Standard Time),303035.1999999881,139_m_f_h_a.png,O,m,913,11,,1923.699999988079,301111.5,7713,VNB,A,10
6,test,2,0.0,1-Back,0.0,z,Tue Dec 02 2025 15:02:14 GMT-0600 (Central Standard Time),304800.89999997616,039_o_m_h_a.png,O,m,748,12,,1756.0999999940395,303044.7999999821,7713,VNB,A,11
7,test,2,0.0,1-Back,1.0,m,Tue Dec 02 2025 15:02:14 GMT-0600 (Central Standard Time),307483.6999999881,109_y_m_d_a.png,O,m,1662,13,,2673.300000011921,304810.39999997616,7713,VNB,A,12
7,test,2,0.0,1-Back,0.0,m,Tue Dec 02 2025 15:02:14 GMT-0600 (Central Standard Time),309849.6999999881,124_o_f_n_a.png,O,z,1348,14,,2357.5999999940395,307492.09999999404,7713,VNB,A,13
8,test,2,0.0,1-Back,1.0,z,Tue Dec 02 2025 15:02:14 GMT-0600 (Central Standard Time),312199.0,071_y_f_n_a.png,O,z,1317,15,,2341.0,309858.0,7713,VNB,A,14
9,test,2,1.0,1-Back,1.0,m,Tue Dec 02 2025 15:02:14 GMT-0600 (Central Standard Time),314498.1999999881,165_m_m_h_a.png,O,m,1280,16,,2290.300000011921,312207.89999997616,7713,VNB,A,15
9,test,2,0.0,1-Back,0.0,m,Tue Dec 02 2025 15:02:14 GMT-0600 (Central Standard Time),316665.2999999821,124_o_f_d_a.png,O,z,1148,17,,2158.2999999821186,314507.0,7713,VNB,A,16
9,test,2,1.0,1-Back,0.0,z,Tue Dec 02 2025 15:02:14 GMT-0600 (Central Standard Time),318996.6999999881,039_o_m_d_a.png,O,m,1302,18,,2321.9000000059605,316674.7999999821,7713,VNB,A,17
0,test,3,1.0,1-Back,,,Tue Dec 02 2025 15:02:14 GMT-0600 (Central Standard Time),318996.6999999881,124_o_f_h_a.png,O,space,1978,1,,2321.9000000059605,316674.7999999821,7713,VNB,A,0
1,test,3,0.0,1-Back,1.0,m,Tue Dec 02 2025 15:02:14 GMT-0600 (Central Standard Time),325361.6999999881,139_m_f_d_a.png,O,m,1289,2,,2307.199999988079,323054.5,7713,VNB,A,1
2,test,3,1.0,1-Back,1.0,m,Tue Dec 02 2025 15:02:14 GMT-0600 (Central Standard Time),327927.39999997616,165_m_m_n_a.png,O,m,1533,3,,2556.7999999821186,325370.59999999404,7713,VNB,A,2
3,test,3,0.0,1-Back,1.0,z,Tue Dec 02 2025 15:02:14 GMT-0600 (Central Standard Time),330137.5,124_o_f_n_a.png,O,z,1178,4,,2201.2000000178814,327936.2999999821,7713,VNB,A,3
4,test,3,1.0,1-Back,1.0,m,Tue Dec 02 2025 15:02:14 GMT-0600 (Central Standard Time),332659.09999999404,039_o_m_d_a.png,O,m,1488,5,,2509.5,330149.59999999404,7713,VNB,A,4
5,test,3,0.0,1-Back,1.0,m,Tue Dec 02 2025 15:02:14 GMT-0600 (Central Standard Time),335091.7999999821,071_y_f_h_a.png,O,m,1403,6,,2424.0,332667.7999999821,7713,VNB,A,5
6,test,3,0.0,1-Back,1.0,z,Tue Dec 02 2025 15:02:14 GMT-0600 (Central Standard Time),337640.89999997616,109_y_m_h_a.png,O,z,1531,7,,2540.199999988079,335100.6999999881,7713,VNB,A,6
7,test,3,0.0,1-Back,1.0,m,Tue Dec 02 2025 15:02:14 GMT-0600 (Central Standard Time),340106.89999997616,139_m_f_n_a.png,O,m,1439,8,,2456.699999988079,337650.1999999881,7713,VNB,A,7
8,test,3,0.0,1-Back,1.0,m,Tue Dec 02 2025 15:02:14 GMT-0600 (Central Standard Time),342572.59999999404,071_y_f_d_a.png,O,m,1435,9,,2456.800000011921,340115.7999999821,7713,VNB,A,8
8,test,3,1.0,1-Back,0.0,m,Tue Dec 02 2025 15:02:14 GMT-0600 (Central Standard Time),345605.1999999881,039_o_m_n_a.png,O,None,2016,10,,3024.199999988079,342581.0,7713,VNB,A,9
9,test,3,0.0,1-Back,1.0,m,Tue Dec 02 2025 15:02:14 GMT-0600 (Central Standard Time),347971.09999999404,165_m_m_h_a.png,O,m,1345,11,,2357.0999999940395,345614.0,7713,VNB,A,10
10,test,3,0.0,1-Back,1.0,z,Tue Dec 02 2025 15:02:14 GMT-0600 (Central Standard Time),350670.39999997616,139_m_f_h_a.png,O,z,1676,12,,2691.0,347979.39999997616,7713,VNB,A,11
11,test,3,1.0,1-Back,1.0,m,Tue Dec 02 2025 15:02:14 GMT-0600 (Central Standard Time),353052.5,124_o_f_d_a.png,O,m,1353,13,,2373.300000011921,350679.1999999881,7713,VNB,A,12
11,test,3,0.0,1-Back,0.0,z,Tue Dec 02 2025 15:02:14 GMT-0600 (Central Standard Time),356085.1999999881,165_m_m_d_a.png,O,None,2016,14,,3024.0,353061.1999999881,7713,VNB,A,13
12,test,3,0.0,1-Back,1.0,m,Tue Dec 02 2025 15:02:14 GMT-0600 (Central Standard Time),358468.09999999404,109_y_m_n_a.png,O,m,1354,15,,2374.2000000178814,356093.89999997616,7713,VNB,A,14
13,test,3,1.0,1-Back,1.0,m,Tue Dec 02 2025 15:02:14 GMT-0600 (Central Standard Time),360667.09999999404,039_o_m_h_a.png,O,m,1179,16,,2190.5,358476.59999999404,7713,VNB,A,15
13,test,3,0.0,1-Back,0.0,m,Tue Dec 02 2025 15:02:14 GMT-0600 (Central Standard Time),362599.59999999404,109_y_m_d_a.png,O,z,915,17,,1923.800000011921,360675.7999999821,7713,VNB,A,16
13,test,3,1.0,1-Back,0.0,m,Tue Dec 02 2025 15:02:14 GMT-0600 (Central Standard Time),365315.6999999881,071_y_f_n_a.png,O,z,1695,18,,2707.300000011921,362608.39999997616,7713,VNB,A,17
0,test,4,1.0,1-Back,,,Tue Dec 02 2025 15:02:14 GMT-0600 (Central Standard Time),365315.6999999881,165_m_m_d_a.png,O,space,2011,1,,2707.300000011921,362608.39999997616,7713,VNB,A,0
1,test,4,0.0,1-Back,1.0,z,Tue Dec 02 2025 15:02:14 GMT-0600 (Central Standard Time),372013.5,039_o_m_d_a.png,O,z,1644,2,,2656.7000000178814,369356.7999999821,7713,VNB,A,1
2,test,4,0.0,1-Back,1.0,m,Tue Dec 02 2025 15:02:14 GMT-0600 (Central Standard Time),374029.5,109_y_m_h_a.png,O,m,994,3,,2007.1000000238419,372022.39999997616,7713,VNB,A,2
2,test,4,0.0,1-Back,0.0,m,Tue Dec 02 2025 15:02:14 GMT-0600 (Central Standard Time),376128.5,139_m_f_n_a.png,O,z,1082,4,,2089.9000000059605,374038.59999999404,7713,VNB,A,3
3,test,4,1.0,1-Back,1.0,m,Tue Dec 02 2025 15:02:14 GMT-0600 (Central Standard Time),379261.1999999881,124_o_f_h_a.png,O,m,1982,5,,3123.300000011921,376137.89999997616,7713,VNB,A,4
4,test,4,0.0,1-Back,1.0,m,Tue Dec 02 2025 15:02:14 GMT-0600 (Central Standard Time),381744.0,165_m_m_n_a.png,O,m,1457,6,,2474.300000011921,379269.6999999881,7713,VNB,A,5
4,test,4,0.0,1-Back,0.0,m,Tue Dec 02 2025 15:02:14 GMT-0600 (Central Standard Time),384293.1999999881,109_y_m_d_a.png,O,z,1524,7,,2540.0999999940395,381753.09999999404,7713,VNB,A,6
5,test,4,1.0,1-Back,1.0,z,Tue Dec 02 2025 15:02:14 GMT-0600 (Central Standard Time),386875.5,071_y_f_d_a.png,O,z,1554,8,,2574.2000000178814,384301.2999999821,7713,VNB,A,7
6,test,4,0.0,1-Back,1.0,m,Tue Dec 02 2025 15:02:14 GMT-0600 (Central Standard Time),388908.1999999881,139_m_f_h_a.png,O,m,1011,9,,2023.699999988079,386884.5,7713,VNB,A,8
7,test,4,0.0,1-Back,1.0,z,Tue Dec 02 2025 15:02:14 GMT-0600 (Central Standard Time),391357.39999997616,039_o_m_h_a.png,O,z,1419,10,,2440.199999988079,388917.1999999881,7713,VNB,A,9
8,test,4,1.0,1-Back,1.0,m,Tue Dec 02 2025 15:02:14 GMT-0600 (Central Standard Time),393806.7999999821,124_o_f_n_a.png,O,m,1426,11,,2440.5,391366.2999999821,7713,VNB,A,10
8,test,4,0.0,1-Back,0.0,m,Tue Dec 02 2025 15:02:14 GMT-0600 (Central Standard Time),395989.2999999821,139_m_f_d_a.png,O,z,1152,12,,2173.4000000059605,393815.89999997616,7713,VNB,A,11
9,test,4,0.0,1-Back,1.0,m,Tue Dec 02 2025 15:02:14 GMT-0600 (Central Standard Time),398372.0,071_y_f_n_a.png,O,m,1362,13,,2373.7000000178814,395998.2999999821,7713,VNB,A,12
9,test,4,0.0,1-Back,0.0,m,Tue Dec 02 2025 15:02:14 GMT-0600 (Central Standard Time),400987.39999997616,124_o_f_d_a.png,O,z,1586,14,,2606.0,398381.39999997616,7713,VNB,A,13
10,test,4,0.0,1-Back,1.0,m,Tue Dec 02 2025 15:02:14 GMT-0600 (Central Standard Time),403420.6999999881,071_y_f_h_a.png,O,m,1404,15,,2424.9000000059605,400995.7999999821,7713,VNB,A,14
11,test,4,1.0,1-Back,1.0,z,Tue Dec 02 2025 15:02:14 GMT-0600 (Central Standard Time),405752.6999999881,165_m_m_h_a.png,O,z,1315,16,,2322.0,403430.6999999881,7713,VNB,A,15
12,test,4,0.0,1-Back,1.0,m,Tue Dec 02 2025 15:02:14 GMT-0600 (Central Standard Time),408068.6999999881,039_o_m_n_a.png,O,m,1285,17,,2307.699999988079,405761.0,7713,VNB,A,16
12,test,4,1.0,1-Back,0.0,z,Tue Dec 02 2025 15:02:14 GMT-0600 (Central Standard Time),411068.09999999404,109_y_m_n_a.png,O,m,1970,18,,2990.0999999940395,408078.0,7713,VNB,A,17
0,test,5,1.0,1-Back,,,Tue Dec 02 2025 15:02:14 GMT-0600 (Central Standard Time),411068.09999999404,039_o_m_n_a.png,O,space,1635,1,,2990.0999999940395,408078.0,7713,VNB,A,0
1,test,5,1.0,1-Back,1.0,m,Tue Dec 02 2025 15:02:14 GMT-0600 (Central Standard Time),416883.09999999404,124_o_f_h_a.png,O,m,1122,2,,2140.4000000059605,414742.6999999881,7713,VNB,A,1
2,test,5,0.0,1-Back,1.0,m,Tue Dec 02 2025 15:02:14 GMT-0600 (Central Standard Time),419365.39999997616,109_y_m_d_a.png,O,m,1450,3,,2473.0999999940395,416892.2999999821,7713,VNB,A,2
3,test,5,0.0,1-Back,1.0,z,Tue Dec 02 2025 15:02:14 GMT-0600 (Central Standard Time),421814.6999999881,039_o_m_d_a.png,O,z,1417,4,,2440.5,419374.1999999881,7713,VNB,A,3
4,test,5,0.0,1-Back,1.0,m,Tue Dec 02 2025 15:02:14 GMT-0600 (Central Standard Time),423764.09999999404,139_m_f_h_a.png,O,m,919,5,,1940.7000000178814,421823.39999997616,7713,VNB,A,4
4,test,5,0.0,1-Back,0.0,m,Tue Dec 02 2025 15:02:14 GMT-0600 (Central Standard Time),425896.2999999821,071_y_f_n_a.png,O,z,1114,6,,2123.7999999821186,423772.5,7713,VNB,A,5
5,test,5,1.0,1-Back,1.0,z,Tue Dec 02 2025 15:02:14 GMT-0600 (Central Standard Time),428512.0,124_o_f_n_a.png,O,z,1599,7,,2606.5,425905.5,7713,VNB,A,6
6,test,5,0.0,1-Back,1.0,m,Tue Dec 02 2025 15:02:14 GMT-0600 (Central Standard Time),430995.09999999404,139_m_f_d_a.png,O,m,1462,8,,2474.0,428521.09999999404,7713,VNB,A,7
7,test,5,0.0,1-Back,1.0,m,Tue Dec 02 2025 15:02:14 GMT-0600 (Central Standard Time),433544.0,109_y_m_h_a.png,O,m,1532,9,,2540.4000000059605,431003.59999999404,7713,VNB,A,8
8,test,5,0.0,1-Back,1.0,m,Tue Dec 02 2025 15:02:14 GMT-0600 (Central Standard Time),436243.39999997616,071_y_f_d_a.png,O,m,1678,10,,2691.0,433552.39999997616,7713,VNB,A,9
8,test,5,0.0,1-Back,0.0,m,Tue Dec 02 2025 15:02:14 GMT-0600 (Central Standard Time),438859.2999999821,165_m_m_n_a.png,O,z,1587,11,,2607.0,436252.2999999821,7713,VNB,A,10
8,test,5,1.0,1-Back,0.0,z,Tue Dec 02 2025 15:02:14 GMT-0600 (Central Standard Time),441874.6999999881,139_m_f_n_a.png,O,m,1987,12,,3005.0,438869.6999999881,7713,VNB,A,11
9,test,5,0.0,1-Back,1.0,m,Tue Dec 02 2025 15:02:14 GMT-0600 (Central Standard Time),444057.5,039_o_m_h_a.png,O,m,1164,13,,2173.4000000059605,441884.09999999404,7713,VNB,A,12
10,test,5,0.0,1-Back,1.0,z,Tue Dec 02 2025 15:02:14 GMT-0600 (Central Standard Time),446906.6999999881,165_m_m_h_a.png,O,z,1830,14,,2839.699999988079,444067.0,7713,VNB,A,13
11,test,5,1.0,1-Back,1.0,m,Tue Dec 02 2025 15:02:14 GMT-0600 (Central Standard Time),449272.6999999881,124_o_f_d_a.png,O,m,1297,15,,2357.0,446915.6999999881,7713,VNB,A,14
12,test,5,0.0,1-Back,1.0,m,Tue Dec 02 2025 15:02:14 GMT-0600 (Central Standard Time),452088.39999997616,109_y_m_n_a.png,O,m,1791,16,,2804.699999988079,449283.6999999881,7713,VNB,A,15
13,test,5,0.0,1-Back,1.0,m,Tue Dec 02 2025 15:02:14 GMT-0600 (Central Standard Time),454370.89999997616,071_y_f_h_a.png,O,m,1254,17,,2271.2999999821186,452099.59999999404,7713,VNB,A,16
13,test,5,0.0,1-Back,0.0,m,Tue Dec 02 2025 15:02:14 GMT-0600 (Central Standard Time),456987.09999999404,165_m_m_d_a.png,O,z,1596,18,,2607.0999999940395,454380.0,7713,VNB,A,17
0,prac,1,0.0,2-Back,,,Tue Dec 02 2025 15:02:14 GMT-0600 (Central Standard Time),456987.09999999404,139_m_f_n_a.png,O,space,2371,1,,2607.0999999940395,454380.0,7713,VNB,A,0
0,prac,1,0.0,2-Back,,,Tue Dec 02 2025 15:02:14 GMT-0600 (Central Standard Time),456987.09999999404,124_o_f_h_a.png,O,space,2371,2,,2607.0999999940395,454380.0,7713,VNB,A,0
1,prac,1,0.0,2-Back,1.0,m,Tue Dec 02 2025 15:02:14 GMT-0600 (Central Standard Time),596426.7999999821,039_o_m_d_a.png,O,m,1943,3,,2739.2999999821186,593687.5,7713,VNB,A,1
1,prac,1,1.0,2-Back,0.0,z,Tue Dec 02 2025 15:02:14 GMT-0600 (Central Standard Time),599242.1999999881,165_m_m_h_a.png,O,None,2012,4,,2804.5999999940395,596437.599999994,7713,VNB,A,2
2,prac,1,0.0,2-Back,1.0,m,Tue Dec 02 2025 15:02:14 GMT-0600 (Central Standard Time),601774.6999999881,071_y_f_n_a.png,O,m,1724,5,,2520.5999999940395,599254.099999994,7713,VNB,A,3
2,prac,1,1.0,2-Back,0.0,z,Tue Dec 02 2025 15:02:14 GMT-0600 (Central Standard Time),604124.2999999821,039_o_m_h_a.png,O,m,1534,6,,2339.9000000059605,601784.3999999762,7713,VNB,A,4
2,prac,1,1.0,2-Back,0.0,z,Tue Dec 02 2025 15:02:14 GMT-0600 (Central Standard Time),606873.1999999881,109_y_m_n_a.png,O,m,1930,7,,2738.699999988079,604134.5,7713,VNB,A,5
2,prac,1,0.0,2-Back,0.0,m,Tue Dec 02 2025 15:02:14 GMT-0600 (Central Standard Time),609405.7999999821,139_m_f_d_a.png,O,z,1729,8,,2522.2999999821186,606883.5,7713,VNB,A,6
2,prac,1,0.0,2-Back,0.0,m,Tue Dec 02 2025 15:02:14 GMT-0600 (Central Standard Time),611921.599999994,124_o_f_d_a.png,O,z,1678,9,,2505.7000000178814,609415.8999999762,7713,VNB,A,7
3,prac,1,0.0,2-Back,1.0,m,Tue Dec 02 2025 15:02:14 GMT-0600 (Central Standard Time),614154.5,165_m_m_h_a.png,O,m,1450,10,,2222.2000000178814,611932.2999999821,7713,VNB,A,8
3,prac,1,1.0,2-Back,0.0,z,Tue Dec 02 2025 15:02:14 GMT-0600 (Central Standard Time),616420.1999999881,071_y_f_d_a.png,O,m,1456,11,,2254.5,614165.6999999881,7713,VNB,A,9
3,prac,1,0.0,2-Back,0.0,m,Tue Dec 02 2025 15:02:14 GMT-0600 (Central Standard Time),619236.0,039_o_m_n_a.png,O,None,2013,12,,2805.5,616430.5,7713,VNB,A,10
0,prac,2,0.0,2-Back,,,Tue Dec 02 2025 15:02:14 GMT-0600 (Central Standard Time),619236.0,139_m_f_n_a.png,O,a,4369,1,,2805.5,616430.5,7713,VNB,A,0
0,prac,2,0.0,2-Back,,,Tue Dec 02 2025 15:02:14 GMT-0600 (Central Standard Time),619236.0,124_o_f_h_a.png,O,a,4369,2,,2805.5,616430.5,7713,VNB,A,0
0,prac,2,0.0,2-Back,0.0,m,Tue Dec 02 2025 15:02:14 GMT-0600 (Central Standard Time),631315.5,039_o_m_d_a.png,O,z,1751,3,,2555.300000011921,628760.1999999881,7713,VNB,A,1
0,prac,2,1.0,2-Back,0.0,z,Tue Dec 02 2025 15:02:14 GMT-0600 (Central Standard Time),634098.099999994,165_m_m_h_a.png,O,None,2005,4,,2771.7000000178814,631326.3999999762,7713,VNB,A,2
1,prac,2,0.0,2-Back,1.0,m,Tue Dec 02 2025 15:02:14 GMT-0600 (Central Standard Time),636813.8999999762,071_y_f_n_a.png,O,m,1898,5,,2700.199999988079,634113.6999999881,7713,VNB,A,3
2,prac,2,1.0,2-Back,1.0,z,Tue Dec 02 2025 15:02:14 GMT-0600 (Central Standard Time),639379.7999999821,039_o_m_h_a.png,O,z,1751,6,,2556.0,636823.7999999821,7713,VNB,A,4
2,prac,2,1.0,2-Back,0.0,z,Tue Dec 02 2025 15:02:14 GMT-0600 (Central Standard Time),641462.5,109_y_m_n_a.png,O,m,1259,7,,2072.4000000059605,639390.099999994,7713,VNB,A,5
3,prac,2,0.0,2-Back,1.0,m,Tue Dec 02 2025 15:02:14 GMT-0600 (Central Standard Time),643928.2999999821,139_m_f_d_a.png,O,m,1653,8,,2456.0,641472.2999999821,7713,VNB,A,6
3,prac,2,0.0,2-Back,0.0,m,Tue Dec 02 2025 15:02:14 GMT-0600 (Central Standard Time),646277.5,124_o_f_d_a.png,O,z,1508,9,,2339.300000011921,643938.1999999881,7713,VNB,A,7
4,prac,2,0.0,2-Back,1.0,m,Tue Dec 02 2025 15:02:14 GMT-0600 (Central Standard Time),648776.5,165_m_m_h_a.png,O,m,1711,10,,2489.0,646287.5,7713,VNB,A,8
5,prac,2,1.0,2-Back,1.0,z,Tue Dec 02 2025 15:02:14 GMT-0600 (Central Standard Time),651093.7999999821,071_y_f_d_a.png,O,z,1507,11,,2307.199999988079,648786.599999994,7713,VNB,A,9
6,prac,2,0.0,2-Back,1.0,m,Tue Dec 02 2025 15:02:14 GMT-0600 (Central Standard Time),653325.3999999762,039_o_m_n_a.png,O,m,1414,12,,2221.5999999940395,651103.7999999821,7713,VNB,A,10
0,test,1,0.0,2-Back,,,Tue Dec 02 2025 15:02:14 GMT-0600 (Central Standard Time),653325.3999999762,109_y_m_h_a.png,O,space,7061,1,,2221.5999999940395,651103.7999999821,7713,VNB,A,0
0,test,1,0.0,2-Back,,,Tue Dec 02 2025 15:02:14 GMT-0600 (Central Standard Time),653325.3999999762,124_o_f_n_a.png,O,space,7061,2,,2221.5999999940395,651103.7999999821,7713,VNB,A,0
0,test,1,0.0,2-Back,0.0,z,Tue Dec 02 2025 15:02:14 GMT-0600 (Central Standard Time),673435.7999999821,039_o_m_h_a.png,O,m,721,3,,1740.2999999821186,671695.5,7713,VNB,A,1
0,test,1,0.0,2-Back,0.0,m,Tue Dec 02 2025 15:02:14 GMT-0600 (Central Standard Time),676468.2999999821,139_m_f_d_a.png,O,None,2016,4,,3023.199999988079,673445.099999994,7713,VNB,A,2
0,test,1,1.0,2-Back,0.0,m,Tue Dec 02 2025 15:02:14 GMT-0600 (Central Standard Time),679367.0,109_y_m_n_a.png,O,z,1874,5,,2889.7000000178814,676477.2999999821,7713,VNB,A,3
0,test,1,0.0,2-Back,0.0,z,Tue Dec 02 2025 15:02:14 GMT-0600 (Central Standard Time),681799.599999994,071_y_f_d_a.png,O,m,1415,6,,2423.2000000178814,679376.3999999762,7713,VNB,A,4
0,test,1,0.0,2-Back,0.0,m,Tue Dec 02 2025 15:02:14 GMT-0600 (Central Standard Time),684132.2999999821,165_m_m_h_a.png,O,z,1311,7,,2323.0,681809.2999999821,7713,VNB,A,5
1,test,1,1.0,2-Back,1.0,m,Tue Dec 02 2025 15:02:14 GMT-0600 (Central Standard Time),686598.2999999821,071_y_f_n_a.png,O,m,1442,8,,2456.5999999940395,684141.6999999881,7713,VNB,A,6
1,test,1,0.0,2-Back,0.0,z,Tue Dec 02 2025 15:02:14 GMT-0600 (Central Standard Time),689330.599999994,124_o_f_h_a.png,O,m,1713,9,,2723.2000000178814,686607.3999999762,7713,VNB,A,7
1,test,1,0.0,2-Back,0.0,m,Tue Dec 02 2025 15:02:14 GMT-0600 (Central Standard Time),691596.6999999881,039_o_m_d_a.png,O,z,1245,10,,2256.5999999940395,689340.099999994,7713,VNB,A,8
1,test,1,1.0,2-Back,0.0,m,Tue Dec 02 2025 15:02:14 GMT-0600 (Central Standard Time),694379.0,165_m_m_d_a.png,O,z,1755,11,,2772.300000011921,691606.6999999881,7713,VNB,A,9
1,test,1,0.0,2-Back,0.0,m,Tue Dec 02 2025 15:02:14 GMT-0600 (Central Standard Time),696811.599999994,139_m_f_n_a.png,O,z,1412,12,,2423.2000000178814,694388.3999999762,7713,VNB,A,10
2,test,1,0.0,2-Back,1.0,m,Tue Dec 02 2025 15:02:14 GMT-0600 (Central Standard Time),698960.8999999762,071_y_f_h_a.png,O,m,1123,13,,2140.199999988079,696820.6999999881,7713,VNB,A,11
3,test,1,0.0,2-Back,1.0,z,Tue Dec 02 2025 15:02:14 GMT-0600 (Central Standard Time),701943.2999999821,165_m_m_n_a.png,O,z,1965,14,,2973.4000000059605,698969.8999999762,7713,VNB,A,12
4,test,1,0.0,2-Back,1.0,m,Tue Dec 02 2025 15:02:14 GMT-0600 (Central Standard Time),704376.1999999881,109_y_m_d_a.png,O,m,1407,15,,2424.0,701952.1999999881,7713,VNB,A,13
4,test,1,1.0,2-Back,0.0,m,Tue Dec 02 2025 15:02:14 GMT-0600 (Central Standard Time),707186.5,139_m_f_h_a.png,O,z,1794,16,,2801.100000023842,704385.3999999762,7713,VNB,A,14
4,test,1,0.0,2-Back,0.0,z,Tue Dec 02 2025 15:02:14 GMT-0600 (Central Standard Time),710074.3999999762,124_o_f_d_a.png,O,m,1856,17,,2875.699999988079,707198.6999999881,7713,VNB,A,15
4,test,1,0.0,2-Back,0.0,m,Tue Dec 02 2025 15:02:14 GMT-0600 (Central Standard Time),713106.7999999821,039_o_m_n_a.png,O,None,2016,18,,3018.4000000059605,710088.3999999762,7713,VNB,A,16
0,test,2,0.0,2-Back,,,Tue Dec 02 2025 15:02:14 GMT-0600 (Central Standard Time),713106.7999999821,165_m_m_h_a.png,O,space,1877,1,,3018.4000000059605,710088.3999999762,7713,VNB,A,0
0,test,2,0.0,2-Back,,,Tue Dec 02 2025 15:02:14 GMT-0600 (Central Standard Time),713106.7999999821,071_y_f_n_a.png,O,space,1877,2,,3018.4000000059605,710088.3999999762,7713,VNB,A,0
0,test,2,1.0,2-Back,0.0,z,Tue Dec 02 2025 15:02:14 GMT-0600 (Central Standard Time),722203.599999994,124_o_f_h_a.png,O,m,1078,3,,2089.7000000178814,720113.8999999762,7713,VNB,A,1
0,test,2,0.0,2-Back,0.0,m,Tue Dec 02 2025 15:02:14 GMT-0600 (Central Standard Time),724636.5,039_o_m_d_a.png,O,z,1412,4,,2423.600000023842,722212.8999999762,7713,VNB,A,2
0,test,2,0.0,2-Back,0.0,m,Tue Dec 02 2025 15:02:14 GMT-0600 (Central Standard Time),727252.099999994,139_m_f_d_a.png,O,z,1595,5,,2606.0999999940395,724646.0,7713,VNB,A,3
1,test,2,0.0,2-Back,1.0,m,Tue Dec 02 2025 15:02:14 GMT-0600 (Central Standard Time),729784.3999999762,109_y_m_h_a.png,O,m,1515,6,,2523.399999976158,727261.0,7713,VNB,A,4
1,test,2,0.0,2-Back,0.0,m,Tue Dec 02 2025 15:02:14 GMT-0600 (Central Standard Time),732283.8999999762,124_o_f_n_a.png,O,z,1476,7,,2490.0999999940395,729793.7999999821,7713,VNB,A,5
1,test,2,1.0,2-Back,0.0,z,Tue Dec 02 2025 15:02:14 GMT-0600 (Central Standard Time),734999.599999994,039_o_m_h_a.png,O,m,1690,8,,2706.2000000178814,732293.3999999762,7713,VNB,A,6
2,test,2,0.0,2-Back,1.0,m,Tue Dec 02 2025 15:02:14 GMT-0600 (Central Standard Time),737931.7999999821,071_y_f_d_a.png,O,m,1903,9,,2923.0999999940395,735008.6999999881,7713,VNB,A,7
2,test,2,0.0,2-Back,0.0,m,Tue Dec 02 2025 15:02:14 GMT-0600 (Central Standard Time),740448.1999999881,109_y_m_d_a.png,O,z,1483,10,,2505.300000011921,737942.8999999762,7713,VNB,A,8
2,test,2,0.0,2-Back,0.0,m,Tue Dec 02 2025 15:02:14 GMT-0600 (Central Standard Time),742664.099999994,165_m_m_n_a.png,O,z,1190,11,,2206.800000011921,740457.2999999821,7713,VNB,A,9
3,test,2,0.0,2-Back,1.0,m,Tue Dec 02 2025 15:02:14 GMT-0600 (Central Standard Time),744913.3999999762,139_m_f_h_a.png,O,m,1223,12,,2240.0,742673.3999999762,7713,VNB,A,10
4,test,2,1.0,2-Back,1.0,z,Tue Dec 02 2025 15:02:14 GMT-0600 (Central Standard Time),747745.8999999762,039_o_m_n_a.png,O,z,1805,13,,2823.5,744922.3999999762,7713,VNB,A,11
5,test,2,0.0,2-Back,1.0,m,Tue Dec 02 2025 15:02:14 GMT-0600 (Central Standard Time),750378.3999999762,124_o_f_d_a.png,O,m,1605,14,,2623.0,747755.3999999762,7713,VNB,A,12
5,test,2,0.0,2-Back,0.0,m,Tue Dec 02 2025 15:02:14 GMT-0600 (Central Standard Time),753327.2999999821,071_y_f_h_a.png,O,z,1932,15,,2939.5,750387.7999999821,7713,VNB,A,13
5,test,2,0.0,2-Back,0.0,z,Tue Dec 02 2025 15:02:14 GMT-0600 (Central Standard Time),755743.099999994,165_m_m_d_a.png,O,m,1390,16,,2406.0999999940395,753337.0,7713,VNB,A,14
5,test,2,0.0,2-Back,0.0,m,Tue Dec 02 2025 15:02:14 GMT-0600 (Central Standard Time),758775.599999994,109_y_m_n_a.png,O,None,2016,17,,3023.0999999940395,755752.5,7713,VNB,A,15
5,test,2,1.0,2-Back,0.0,m,Tue Dec 02 2025 15:02:14 GMT-0600 (Central Standard Time),761241.5,139_m_f_n_a.png,O,z,1447,18,,2456.0,758785.5,7713,VNB,A,16
0,test,3,1.0,2-Back,,,Tue Dec 02 2025 15:02:14 GMT-0600 (Central Standard Time),761241.5,039_o_m_n_a.png,O,space,1901,1,,2456.0,758785.5,7713,VNB,A,0
0,test,3,1.0,2-Back,,,Tue Dec 02 2025 15:02:14 GMT-0600 (Central Standard Time),761241.5,124_o_f_d_a.png,O,space,1901,2,,2456.0,758785.5,7713,VNB,A,0
1,test,3,0.0,2-Back,1.0,m,Tue Dec 02 2025 15:02:14 GMT-0600 (Central Standard Time),770322.0,071_y_f_h_a.png,O,m,1098,3,,2107.0,768215.0,7713,VNB,A,1
2,test,3,0.0,2-Back,1.0,z,Tue Dec 02 2025 15:02:14 GMT-0600 (Central Standard Time),772637.8999999762,139_m_f_d_a.png,O,z,1293,4,,2306.2999999821186,770331.599999994,7713,VNB,A,2
3,test,3,1.0,2-Back,1.0,m,Tue Dec 02 2025 15:02:14 GMT-0600 (Central Standard Time),774937.0,109_y_m_n_a.png,O,m,1281,5,,2289.9000000059605,772647.099999994,7713,VNB,A,3
3,test,3,0.0,2-Back,0.0,m,Tue Dec 02 2025 15:02:14 GMT-0600 (Central Standard Time),777912.3999999762,039_o_m_h_a.png,O,z,1958,6,,2965.699999988079,774946.6999999881,7713,VNB,A,4
4,test,3,0.0,2-Back,1.0,z,Tue Dec 02 2025 15:02:14 GMT-0600 (Central Standard Time),780668.7999999821,071_y_f_n_a.png,O,z,1720,7,,2743.199999988079,777925.599999994,7713,VNB,A,5
5,test,3,1.0,2-Back,1.0,m,Tue Dec 02 2025 15:02:14 GMT-0600 (Central Standard Time),783251.1999999881,165_m_m_d_a.png,O,m,1553,8,,2572.699999988079,780678.5,7713,VNB,A,6
5,test,3,0.0,2-Back,0.0,m,Tue Dec 02 2025 15:02:14 GMT-0600 (Central Standard Time),786283.6999999881,109_y_m_d_a.png,O,None,2016,9,,3022.9000000059605,783260.7999999821,7713,VNB,A,7
6,test,3,0.0,2-Back,1.0,m,Tue Dec 02 2025 15:02:14 GMT-0600 (Central Standard Time),788566.1999999881,124_o_f_h_a.png,O,m,1258,10,,2272.800000011921,786293.3999999762,7713,VNB,A,8
7,test,3,1.0,2-Back,1.0,m,Tue Dec 02 2025 15:02:14 GMT-0600 (Central Standard Time),791532.0,139_m_f_n_a.png,O,m,1944,11,,2956.0,788576.0,7713,VNB,A,9
8,test,3,1.0,2-Back,1.0,z,Tue Dec 02 2025 15:02:14 GMT-0600 (Central Standard Time),793931.1999999881,165_m_m_h_a.png,O,z,1371,12,,2390.0,791541.1999999881,7713,VNB,A,10
8,test,3,0.0,2-Back,0.0,m,Tue Dec 02 2025 15:02:14 GMT-0600 (Central Standard Time),796763.6999999881,071_y_f_d_a.png,O,z,1804,13,,2822.9000000059605,793940.7999999821,7713,VNB,A,11
9,test,3,0.0,2-Back,1.0,m,Tue Dec 02 2025 15:02:14 GMT-0600 (Central Standard Time),799479.7999999821,124_o_f_n_a.png,O,m,1700,14,,2707.0999999940395,796772.6999999881,7713,VNB,A,12
10,test,3,0.0,2-Back,1.0,z,Tue Dec 02 2025 15:02:14 GMT-0600 (Central Standard Time),802261.7999999821,039_o_m_d_a.png,O,z,1751,15,,2772.7999999821186,799489.0,7713,VNB,A,13
11,test,3,1.0,2-Back,1.0,m,Tue Dec 02 2025 15:02:14 GMT-0600 (Central Standard Time),804744.3999999762,139_m_f_h_a.png,O,m,1458,16,,2473.199999988079,802271.1999999881,7713,VNB,A,14
11,test,3,0.0,2-Back,0.0,m,Tue Dec 02 2025 15:02:14 GMT-0600 (Central Standard Time),807777.1999999881,165_m_m_n_a.png,O,None,2016,17,,3023.300000011921,804753.8999999762,7713,VNB,A,15
12,test,3,0.0,2-Back,1.0,z,Tue Dec 02 2025 15:02:14 GMT-0600 (Central Standard Time),810509.2999999821,109_y_m_h_a.png,O,z,1702,18,,2723.199999988079,807786.099999994,7713,VNB,A,16
0,test,4,0.0,2-Back,,,Tue Dec 02 2025 15:02:14 GMT-0600 (Central Standard Time),810509.2999999821,139_m_f_n_a.png,O,space,1865,1,,2723.199999988079,807786.099999994,7713,VNB,A,0
0,test,4,0.0,2-Back,,,Tue Dec 02 2025 15:02:14 GMT-0600 (Central Standard Time),810509.2999999821,039_o_m_n_a.png,O,space,1865,2,,2723.199999988079,807786.099999994,7713,VNB,A,0
1,test,4,1.0,2-Back,1.0,m,Tue Dec 02 2025 15:02:14 GMT-0600 (Central Standard Time),820156.3999999762,109_y_m_h_a.png,O,m,1669,3,,2689.7999999821186,817466.599999994,7713,VNB,A,1
1,test,4,1.0,2-Back,0.0,m,Tue Dec 02 2025 15:02:14 GMT-0600 (Central Standard Time),822655.6999999881,124_o_f_d_a.png,O,z,1475,4,,2490.0999999940395,820165.599999994,7713,VNB,A,2
1,test,4,0.0,2-Back,0.0,z,Tue Dec 02 2025 15:02:14 GMT-0600 (Central Standard Time),825121.1999999881,039_o_m_h_a.png,O,m,1447,5,,2456.0,822665.1999999881,7713,VNB,A,3
1,test,4,0.0,2-Back,0.0,m,Tue Dec 02 2025 15:02:14 GMT-0600 (Central Standard Time),828154.0,165_m_m_n_a.png,O,None,2016,6,,3020.5,825133.5,7713,VNB,A,4
1,test,4,0.0,2-Back,0.0,m,Tue Dec 02 2025 15:02:14 GMT-0600 (Central Standard Time),830454.1999999881,139_m_f_d_a.png,O,z,1277,7,,2290.699999988079,828163.5,7713,VNB,A,5
2,test,4,0.0,2-Back,1.0,z,Tue Dec 02 2025 15:02:14 GMT-0600 (Central Standard Time),832852.2999999821,071_y_f_n_a.png,O,z,1377,8,,2387.7999999821186,830464.5,7713,VNB,A,6
3,test,4,1.0,2-Back,1.0,m,Tue Dec 02 2025 15:02:14 GMT-0600 (Central Standard Time),835084.8999999762,124_o_f_h_a.png,O,m,1210,9,,2223.0999999940395,832861.7999999821,7713,VNB,A,7
3,test,4,0.0,2-Back,0.0,m,Tue Dec 02 2025 15:02:14 GMT-0600 (Central Standard Time),837600.8999999762,165_m_m_h_a.png,O,z,1489,10,,2506.899999976158,835094.0,7713,VNB,A,8
4,test,4,0.0,2-Back,1.0,m,Tue Dec 02 2025 15:02:14 GMT-0600 (Central Standard Time),839967.099999994,071_y_f_d_a.png,O,m,1334,11,,2357.0,837610.099999994,7713,VNB,A,9
5,test,4,0.0,2-Back,1.0,m,Tue Dec 02 2025 15:02:14 GMT-0600 (Central Standard Time),842732.6999999881,109_y_m_n_a.png,O,m,1737,12,,2756.5,839976.1999999881,7713,VNB,A,10
5,test,4,0.0,2-Back,0.0,z,Tue Dec 02 2025 15:02:14 GMT-0600 (Central Standard Time),845348.3999999762,039_o_m_d_a.png,O,m,1587,13,,2605.7999999821186,842742.599999994,7713,VNB,A,11
6,test,4,1.0,2-Back,1.0,m,Tue Dec 02 2025 15:02:14 GMT-0600 (Central Standard Time),847847.599999994,139_m_f_h_a.png,O,m,1482,14,,2489.7000000178814,845357.8999999762,7713,VNB,A,12
6,test,4,1.0,2-Back,0.0,m,Tue Dec 02 2025 15:02:14 GMT-0600 (Central Standard Time),850113.2999999821,071_y_f_h_a.png,O,z,1247,15,,2256.5999999940395,847856.6999999881,7713,VNB,A,13
7,test,4,0.0,2-Back,1.0,m,Tue Dec 02 2025 15:02:14 GMT-0600 (Central Standard Time),852645.8999999762,124_o_f_n_a.png,O,m,1501,16,,2523.199999988079,850122.6999999881,7713,VNB,A,14
8,test,4,0.0,2-Back,1.0,m,Tue Dec 02 2025 15:02:14 GMT-0600 (Central Standard Time),855262.0,109_y_m_d_a.png,O,m,1584,17,,2607.4000000059605,852654.599999994,7713,VNB,A,15
8,test,4,1.0,2-Back,0.0,m,Tue Dec 02 2025 15:02:14 GMT-0600 (Central Standard Time),857594.3999999762,165_m_m_d_a.png,O,z,1313,18,,2321.399999976158,855273.0,7713,VNB,A,16
0,test,5,1.0,2-Back,,,Tue Dec 02 2025 15:02:14 GMT-0600 (Central Standard Time),857594.3999999762,071_y_f_d_a.png,O,space,1853,1,,2321.399999976158,855273.0,7713,VNB,A,0
0,test,5,1.0,2-Back,,,Tue Dec 02 2025 15:02:14 GMT-0600 (Central Standard Time),857594.3999999762,124_o_f_h_a.png,O,space,1853,2,,2321.399999976158,855273.0,7713,VNB,A,0
1,test,5,1.0,2-Back,1.0,z,Tue Dec 02 2025 15:02:14 GMT-0600 (Central Standard Time),867041.3999999762,039_o_m_d_a.png,O,z,1463,3,,2473.5999999940395,864567.7999999821,7713,VNB,A,1
2,test,5,1.0,2-Back,1.0,m,Tue Dec 02 2025 15:02:14 GMT-0600 (Central Standard Time),869691.0,139_m_f_n_a.png,O,m,1622,4,,2640.300000011921,867050.6999999881,7713,VNB,A,2
2,test,5,0.0,2-Back,0.0,m,Tue Dec 02 2025 15:02:14 GMT-0600 (Central Standard Time),872723.5,165_m_m_h_a.png,O,None,2016,5,,3022.800000011921,869700.6999999881,7713,VNB,A,3
2,test,5,0.0,2-Back,0.0,z,Tue Dec 02 2025 15:02:14 GMT-0600 (Central Standard Time),875755.5,071_y_f_n_a.png,O,None,2015,6,,3022.2000000178814,872733.2999999821,7713,VNB,A,4
3,test,5,0.0,2-Back,1.0,m,Tue Dec 02 2025 15:02:14 GMT-0600 (Central Standard Time),878104.5,124_o_f_d_a.png,O,m,1332,7,,2338.5,875766.0,7713,VNB,A,5
3,test,5,0.0,2-Back,0.0,m,Tue Dec 02 2025 15:02:14 GMT-0600 (Central Standard Time),880503.7999999821,039_o_m_h_a.png,O,z,1382,8,,2390.199999988079,878113.599999994,7713,VNB,A,6
3,test,5,1.0,2-Back,0.0,z,Tue Dec 02 2025 15:02:14 GMT-0600 (Central Standard Time),883086.599999994,139_m_f_d_a.png,O,m,1550,9,,2573.0999999940395,880513.5,7713,VNB,A,7
3,test,5,0.0,2-Back,0.0,m,Tue Dec 02 2025 15:02:14 GMT-0600 (Central Standard Time),886118.7999999821,109_y_m_n_a.png,O,None,2016,10,,3022.2999999821186,883096.5,7713,VNB,A,8
3,test,5,0.0,2-Back,0.0,m,Tue Dec 02 2025 15:02:14 GMT-0600 (Central Standard Time),889151.5,165_m_m_n_a.png,O,None,2015,11,,3023.4000000059605,886128.099999994,7713,VNB,A,9
4,test,5,0.0,2-Back,1.0,m,Tue Dec 02 2025 15:02:14 GMT-0600 (Central Standard Time),891467.1999999881,071_y_f_h_a.png,O,m,1288,12,,2306.0999999940395,889161.099999994,7713,VNB,A,10
4,test,5,0.0,2-Back,0.0,m,Tue Dec 02 2025 15:02:14 GMT-0600 (Central Standard Time),893600.6999999881,109_y_m_d_a.png,O,z,1100,13,,2124.0,891476.6999999881,7713,VNB,A,11
5,test,5,1.0,2-Back,1.0,z,Tue Dec 02 2025 15:02:14 GMT-0600 (Central Standard Time),896332.599999994,139_m_f_h_a.png,O,z,1711,14,,2722.9000000059605,893609.6999999881,7713,VNB,A,12
6,test,5,0.0,2-Back,1.0,m,Tue Dec 02 2025 15:02:14 GMT-0600 (Central Standard Time),899264.599999994,039_o_m_n_a.png,O,m,1906,15,,2922.5999999940395,896342.0,7713,VNB,A,13
7,test,5,0.0,2-Back,1.0,m,Tue Dec 02 2025 15:02:14 GMT-0600 (Central Standard Time),902030.5,165_m_m_d_a.png,O,m,1741,16,,2755.800000011921,899274.6999999881,7713,VNB,A,14
8,test,5,0.0,2-Back,1.0,z,Tue Dec 02 2025 15:02:14 GMT-0600 (Central Standard Time),904430.099999994,124_o_f_n_a.png,O,z,1377,17,,2389.5,902040.599999994,7713,VNB,A,15
9,test,5,1.0,2-Back,1.0,m,Tue Dec 02 2025 15:02:14 GMT-0600 (Central Standard Time),906695.7999999821,109_y_m_h_a.png,O,m,1241,18,,2255.5999999940395,904440.1999999881,7713,VNB,A,16
