Q,Q1,Q2,Q3,Q4,acc_sum,block,block_c,correct,correct_response,datetime,endtime,project,response,response_time,row_sel,session_number,squiggle1,squiggle1x,squiggle1y,squiggle2,squiggle2x,squiggle2y,squiggle3,squiggle3x,squiggle3y,squiggle4,squiggle4x,squiggle4y,start_end,starttime,subject_id,target_congruent,task,task_vers,testsquiggle,testsquigglex,testsquiggley,time_practice_delay,time_practice_fixation,time_practice_stimuli,time_practice_study,time_test_delay,time_test_fixation,time_test_stimuli,time_test_study,trial
1,1,0,0,0,1,prac,1,1,z,Thu May 14 2026 11:03:08 GMT-0500 (Central Daylight Time),385247.60000002384,O,z,1825,1,1,66.bmp,-120,-120,67.bmp,120,-120,68.bmp,-120,120,69.bmp,120,120,10645.90000000596,374601.7000000179,7802,yes,SM,C,66.bmp,-120,-120,205989,199960,208006,201977,,,,,1
3,0,0,1,0,1,prac,1,0,m,Thu May 14 2026 11:03:08 GMT-0500 (Central Daylight Time),395259.90000000596,O,z,1185,2,1,70.bmp,-120,-120,71.bmp,120,-120,72.bmp,-120,120,73.bmp,120,120,10008.699999988079,385251.2000000179,7802,no,SM,C,73.bmp,-120,120,216637,210609,218654,212621,,,,,2
4,0,0,0,1,2,prac,1,1,m,Thu May 14 2026 11:03:08 GMT-0500 (Central Daylight Time),405722.60000002384,O,m,1634,3,1,74.bmp,-120,-120,75.bmp,120,-120,76.bmp,-120,120,77.bmp,120,120,10459.600000023842,395263.0,7802,no,SM,C,74.bmp,120,120,226651,220621,228670,222635,,,,,3
2,0,1,0,0,2,prac,1,0,z,Thu May 14 2026 11:03:08 GMT-0500 (Central Daylight Time),416554.0,O,None,2015,4,1,78.bmp,-120,-120,79.bmp,120,-120,80.bmp,-120,120,81.bmp,120,120,10827.899999976158,405726.10000002384,7802,yes,SM,C,79.bmp,120,-120,237114,231084,239130,233099,,,,,4
3,0,0,1,0,2,prac,1,0,z,Thu May 14 2026 11:03:08 GMT-0500 (Central Daylight Time),427383.3000000119,O,None,2015,5,1,82.bmp,-120,-120,83.bmp,120,-120,84.bmp,-120,120,85.bmp,120,120,10825.59999999404,416557.7000000179,7802,yes,SM,C,84.bmp,-120,120,247944,241916,249959,243927,,,,,5
1,1,0,0,0,2,prac,1,0,m,Thu May 14 2026 11:03:08 GMT-0500 (Central Daylight Time),437797.0,O,z,1595,6,1,86.bmp,-120,-120,87.bmp,120,-120,88.bmp,-120,120,89.bmp,120,120,10403.59999999404,427393.40000000596,7802,no,SM,C,89.bmp,-120,-120,258773,252752,260789,254757,,,,,6
2,0,1,0,0,2,prac,1,0,m,Thu May 14 2026 11:03:08 GMT-0500 (Central Daylight Time),448626.0,O,None,2014,7,1,90.bmp,-120,-120,91.bmp,120,-120,92.bmp,-120,120,93.bmp,120,120,10823.5,437802.5,7802,no,SM,C,90.bmp,120,-120,269186,263161,271202,265171,,,,,7
4,0,0,0,1,2,prac,1,0,z,Thu May 14 2026 11:03:08 GMT-0500 (Central Daylight Time),459074.40000000596,O,m,1630,8,1,94.bmp,-120,-120,95.bmp,120,-120,96.bmp,-120,120,97.bmp,120,120,10441.59999999404,448632.8000000119,7802,yes,SM,C,97.bmp,120,120,280017,273991,282033,276001,,,,,8
1,1,0,0,0,0,prac,2,0,z,Thu May 14 2026 11:03:08 GMT-0500 (Central Daylight Time),474084.7000000179,O,m,1882,1,1,66.bmp,-120,-120,67.bmp,120,-120,68.bmp,-120,120,69.bmp,120,120,10709.0,463375.7000000179,7802,yes,SM,C,66.bmp,-120,-120,294761,288734,296780,290746,,,,,1
3,0,0,1,0,1,prac,2,1,m,Thu May 14 2026 11:03:08 GMT-0500 (Central Daylight Time),484149.90000000596,O,m,1235,2,1,70.bmp,-120,-120,71.bmp,120,-120,72.bmp,-120,120,73.bmp,120,120,10060.90000000596,474089.0,7802,no,SM,C,73.bmp,-120,120,305475,299447,307492,301459,,,,,2
4,0,0,0,1,2,prac,2,1,m,Thu May 14 2026 11:03:08 GMT-0500 (Central Daylight Time),494364.10000002384,O,m,1413,3,1,74.bmp,-120,-120,75.bmp,120,-120,76.bmp,-120,120,77.bmp,120,120,10210.300000011921,484153.8000000119,7802,no,SM,C,74.bmp,120,120,315540,309512,317555,311523,,,,,3
2,0,1,0,0,3,prac,2,1,z,Thu May 14 2026 11:03:08 GMT-0500 (Central Daylight Time),504860.0,O,z,1684,4,1,78.bmp,-120,-120,79.bmp,120,-120,80.bmp,-120,120,81.bmp,120,120,10493.799999982119,494366.2000000179,7802,yes,SM,C,79.bmp,120,-120,325752,319724,327767,321737,,,,,4
3,0,0,1,0,4,prac,2,1,z,Thu May 14 2026 11:03:08 GMT-0500 (Central Daylight Time),515154.60000002384,O,z,1472,5,1,82.bmp,-120,-120,83.bmp,120,-120,84.bmp,-120,120,85.bmp,120,120,10290.300000011921,504864.3000000119,7802,yes,SM,C,84.bmp,-120,120,336249,330223,338264,332234,,,,,5
1,1,0,0,0,5,prac,2,1,m,Thu May 14 2026 11:03:08 GMT-0500 (Central Daylight Time),525717.400000006,O,m,1732,6,1,86.bmp,-120,-120,87.bmp,120,-120,88.bmp,-120,120,89.bmp,120,120,10560.299999982119,515157.10000002384,7802,no,SM,C,89.bmp,-120,-120,346546,340515,348562,342530,,,,,6
2,0,1,0,0,6,prac,2,1,m,Thu May 14 2026 11:03:08 GMT-0500 (Central Daylight Time),536066.3000000119,O,m,1523,7,1,90.bmp,-120,-120,91.bmp,120,-120,92.bmp,-120,120,93.bmp,120,120,10345.90000000596,525720.400000006,7802,no,SM,C,90.bmp,120,-120,357109,351079,359125,353093,,,,,7
4,0,0,0,1,6,prac,2,0,z,Thu May 14 2026 11:03:08 GMT-0500 (Central Daylight Time),546296.0,O,m,1401,8,1,94.bmp,-120,-120,95.bmp,120,-120,96.bmp,-120,120,97.bmp,120,120,10225.399999976158,536070.6000000238,7802,yes,SM,C,97.bmp,120,120,367455,361429,369471,363441,,,,,8
4,0,0,0,1,0,test,1,0,m,Thu May 14 2026 11:03:08 GMT-0500 (Central Daylight Time),582767.2000000179,O,None,2015,1,1,98.bmp,-120,-120,99.bmp,120,-120,100.bmp,-120,120,93.bmp,120,120,10057.700000017881,572709.5,7802,yes,SM,C,100.bmp,120,120,367455,361429,369471,363441,404094.0,398068.0,406109.0,400079.0,1
2,0,1,0,0,1,test,1,1,m,Thu May 14 2026 11:03:08 GMT-0500 (Central Daylight Time),591882.0,O,m,1067,2,1,51.bmp,-120,-120,52.bmp,120,-120,53.bmp,-120,120,54.bmp,120,120,9108.299999982119,582773.7000000179,7802,yes,SM,C,53.bmp,120,-120,367455,361429,369471,363441,414159.0,408132.0,416173.0,410142.0,2
1,1,0,0,0,2,test,1,1,z,Thu May 14 2026 11:03:08 GMT-0500 (Central Daylight Time),601542.6000000238,O,z,1606,3,1,55.bmp,-120,-120,56.bmp,120,-120,57.bmp,-120,120,58.bmp,120,120,9656.5,591886.1000000238,7802,yes,SM,C,55.bmp,-120,-120,367455,361429,369471,363441,423271.0,417244.0,425289.0,419256.0,3
3,0,0,1,0,2,test,1,0,m,Thu May 14 2026 11:03:08 GMT-0500 (Central Daylight Time),611607.7000000179,O,None,2014,4,1,59.bmp,-120,-120,60.bmp,120,-120,61.bmp,-120,120,62.bmp,120,120,10062.90000000596,601544.8000000119,7802,yes,SM,C,59.bmp,-120,120,367455,361429,369471,363441,432935.0,426903.0,434952.0,428919.0,4
2,0,1,0,0,3,test,1,1,z,Thu May 14 2026 11:03:08 GMT-0500 (Central Daylight Time),621105.400000006,O,z,1432,5,1,63.bmp,-120,-120,64.bmp,120,-120,65.bmp,-120,120,66.bmp,120,120,9492.799999982119,611612.6000000238,7802,yes,SM,C,64.bmp,120,-120,367455,361429,369471,363441,442999.0,436971.0,445015.0,438983.0,5
3,0,0,1,0,3,test,1,0,z,Thu May 14 2026 11:03:08 GMT-0500 (Central Daylight Time),630768.900000006,O,m,1608,6,1,67.bmp,-120,-120,68.bmp,120,-120,69.bmp,-120,120,70.bmp,120,120,9659.5,621109.400000006,7802,yes,SM,C,69.bmp,-120,120,367455,361429,369471,363441,452495.0,446468.0,454512.0,448481.0,6
4,0,0,0,1,3,test,1,0,z,Thu May 14 2026 11:03:08 GMT-0500 (Central Daylight Time),640832.8000000119,O,None,2015,7,1,71.bmp,-120,-120,72.bmp,120,-120,73.bmp,-120,120,74.bmp,120,120,10060.09999999404,630772.7000000179,7802,yes,SM,C,74.bmp,120,120,367455,361429,369471,363441,462159.0,456131.0,464176.0,458144.0,7
2,0,1,0,0,4,test,1,1,m,Thu May 14 2026 11:03:08 GMT-0500 (Central Daylight Time),650162.400000006,O,m,1274,8,1,75.bmp,-120,-120,76.bmp,120,-120,77.bmp,-120,120,78.bmp,120,120,9325.199999988079,640837.2000000179,7802,yes,SM,C,75.bmp,120,-120,367455,361429,369471,363441,472221.0,466195.0,474238.0,468208.0,8
3,0,0,1,0,5,test,1,1,m,Thu May 14 2026 11:03:08 GMT-0500 (Central Daylight Time),659692.3000000119,O,m,1478,9,1,79.bmp,-120,-120,80.bmp,120,-120,81.bmp,-120,120,82.bmp,120,120,9525.199999988079,650167.1000000238,7802,yes,SM,C,80.bmp,-120,120,367455,361429,369471,363441,481551.0,475525.0,483569.0,477538.0,9
4,0,0,0,1,6,test,1,1,z,Thu May 14 2026 11:03:08 GMT-0500 (Central Daylight Time),669189.8000000119,O,z,1445,10,1,87.bmp,-120,-120,88.bmp,120,-120,89.bmp,-120,120,90.bmp,120,120,9493.40000000596,659696.400000006,7802,yes,SM,C,90.bmp,120,120,367455,361429,369471,363441,491083.0,485055.0,493099.0,487067.0,10
3,0,0,1,0,6,test,1,0,z,Thu May 14 2026 11:03:08 GMT-0500 (Central Daylight Time),678669.3000000119,O,m,1437,11,1,83.bmp,-120,-120,84.bmp,120,-120,85.bmp,-120,120,86.bmp,120,120,9474.90000000596,669194.400000006,7802,yes,SM,C,85.bmp,-120,120,367455,361429,369471,363441,500565.0,494553.0,502579.0,496564.0,11
2,0,1,0,0,7,test,1,1,m,Thu May 14 2026 11:03:08 GMT-0500 (Central Daylight Time),688135.900000006,O,m,1421,12,1,91.bmp,-120,-120,92.bmp,120,-120,93.bmp,-120,120,94.bmp,120,120,9460.0,678675.900000006,7802,yes,SM,C,91.bmp,120,-120,367455,361429,369471,363441,510058.0,504034.0,512059.0,506044.0,12
3,0,0,1,0,8,test,1,1,m,Thu May 14 2026 11:03:08 GMT-0500 (Central Daylight Time),697434.6000000238,O,m,1237,13,1,95.bmp,-120,-120,96.bmp,120,-120,97.bmp,-120,120,98.bmp,120,120,9295.100000023842,688139.5,7802,yes,SM,C,96.bmp,-120,120,367455,361429,369471,363441,519523.0,513498.0,521539.0,515510.0,13
1,1,0,0,0,9,test,1,1,z,Thu May 14 2026 11:03:08 GMT-0500 (Central Daylight Time),706443.8000000119,O,z,966,14,1,99.bmp,-120,-120,100.bmp,120,-120,54.bmp,-120,120,51.bmp,120,120,9005.90000000596,697437.900000006,7802,yes,SM,C,99.bmp,-120,-120,367455,361429,369471,363441,528806.0,522796.0,530819.0,524805.0,14
4,0,0,0,1,10,test,1,1,m,Thu May 14 2026 11:03:08 GMT-0500 (Central Daylight Time),715407.400000006,O,m,900,15,1,60.bmp,-120,-120,61.bmp,120,-120,62.bmp,-120,120,63.bmp,120,120,8957.5,706449.900000006,7802,yes,SM,C,61.bmp,120,120,367455,361429,369471,363441,537834.0,531808.0,539851.0,533820.0,15
1,1,0,0,0,11,test,1,1,m,Thu May 14 2026 11:03:08 GMT-0500 (Central Daylight Time),724504.7000000179,O,m,1041,16,1,52.bmp,-120,-120,53.bmp,120,-120,54.bmp,-120,120,55.bmp,120,120,9091.90000000596,715412.8000000119,7802,yes,SM,C,55.bmp,-120,-120,367455,361429,369471,363441,546796.0,540771.0,548813.0,542784.0,16
3,0,0,1,0,12,test,1,1,m,Thu May 14 2026 11:03:08 GMT-0500 (Central Daylight Time),734021.3000000119,O,m,1449,17,1,72.bmp,-120,-120,73.bmp,120,-120,74.bmp,-120,120,75.bmp,120,120,9514.5,724506.8000000119,7802,yes,SM,C,72.bmp,-120,120,367455,361429,369471,363441,555896.0,549865.0,557913.0,551881.0,17
1,1,0,0,0,12,test,1,0,z,Thu May 14 2026 11:03:08 GMT-0500 (Central Daylight Time),743300.6000000238,O,m,1232,18,1,56.bmp,-120,-120,57.bmp,120,-120,58.bmp,-120,120,59.bmp,120,120,9276.100000023842,734024.5,7802,yes,SM,C,56.bmp,-120,-120,367455,361429,369471,363441,565409.0,559383.0,567426.0,561395.0,18
2,0,1,0,0,13,test,1,1,z,Thu May 14 2026 11:03:08 GMT-0500 (Central Daylight Time),753164.8000000119,O,z,1815,19,1,76.bmp,-120,-120,77.bmp,120,-120,78.bmp,-120,120,79.bmp,120,120,9860.40000000596,743304.400000006,7802,yes,SM,C,77.bmp,120,-120,367455,361429,369471,363441,574690.0,568663.0,576707.0,570674.0,19
3,0,0,1,0,14,test,1,1,z,Thu May 14 2026 11:03:08 GMT-0500 (Central Daylight Time),762176.6000000238,O,z,957,20,1,80.bmp,-120,-120,81.bmp,120,-120,82.bmp,-120,120,83.bmp,120,120,9009.200000017881,753167.400000006,7802,yes,SM,C,82.bmp,-120,120,367455,361429,369471,363441,584554.0,578526.0,586571.0,580538.0,20
1,1,0,0,0,15,test,1,1,m,Thu May 14 2026 11:03:08 GMT-0500 (Central Daylight Time),771323.900000006,O,m,1098,21,1,64.bmp,-120,-120,65.bmp,120,-120,66.bmp,-120,120,67.bmp,120,120,9144.5,762179.400000006,7802,yes,SM,C,66.bmp,-120,-120,367455,361429,369471,363441,593566.0,587538.0,595583.0,589551.0,21
4,0,0,0,1,16,test,1,1,z,Thu May 14 2026 11:03:08 GMT-0500 (Central Daylight Time),780972.6000000238,O,z,1600,22,1,68.bmp,-120,-120,69.bmp,120,-120,70.bmp,-120,120,71.bmp,120,120,9645.0,771327.6000000238,7802,yes,SM,C,71.bmp,120,120,367455,361429,369471,363441,602714.0,596686.0,604730.0,598698.0,22
1,1,0,0,0,17,test,1,1,m,Thu May 14 2026 11:03:08 GMT-0500 (Central Daylight Time),789868.0,O,m,848,23,1,84.bmp,-120,-120,85.bmp,120,-120,86.bmp,-120,120,87.bmp,120,120,8891.399999976158,780976.6000000238,7802,yes,SM,C,87.bmp,-120,-120,367455,361429,369471,363441,612360.0,606335.0,614376.0,608345.0,23
2,0,1,0,0,18,test,1,1,z,Thu May 14 2026 11:03:08 GMT-0500 (Central Daylight Time),799547.3000000119,O,z,1630,24,1,92.bmp,-120,-120,93.bmp,120,-120,94.bmp,-120,120,95.bmp,120,120,9675.800000011921,789871.5,7802,yes,SM,C,93.bmp,120,-120,367455,361429,369471,363441,621256.0,615230.0,623274.0,617242.0,24
4,0,0,0,1,19,test,1,1,m,Thu May 14 2026 11:03:08 GMT-0500 (Central Daylight Time),809178.7000000179,O,m,1582,25,1,96.bmp,-120,-120,97.bmp,120,-120,98.bmp,-120,120,99.bmp,120,120,9625.700000017881,799553.0,7802,yes,SM,C,98.bmp,120,120,367455,361429,369471,363441,630937.0,624911.0,632954.0,626923.0,25
1,1,0,0,0,20,test,1,1,z,Thu May 14 2026 11:03:08 GMT-0500 (Central Daylight Time),818725.2000000179,O,z,1482,26,1,88.bmp,-120,-120,89.bmp,120,-120,90.bmp,-120,120,91.bmp,120,120,9542.300000011921,809182.900000006,7802,yes,SM,C,88.bmp,-120,-120,367455,361429,369471,363441,640568.0,634541.0,642585.0,636553.0,26
4,0,0,0,1,21,test,1,1,z,Thu May 14 2026 11:03:08 GMT-0500 (Central Daylight Time),827956.2000000179,O,z,1181,27,1,100.bmp,-120,-120,61.bmp,120,-120,51.bmp,-120,120,52.bmp,120,120,9227.300000011921,818728.900000006,7802,yes,SM,C,52.bmp,120,120,367455,361429,369471,363441,650115.0,644087.0,652131.0,646100.0,27
3,0,0,1,0,22,test,1,1,m,Thu May 14 2026 11:03:08 GMT-0500 (Central Daylight Time),836985.7000000179,O,m,973,28,1,53.bmp,-120,-120,54.bmp,120,-120,55.bmp,-120,120,56.bmp,120,120,9024.800000011921,827960.900000006,7802,yes,SM,C,53.bmp,-120,120,367455,361429,369471,363441,659346.0,653319.0,661362.0,655330.0,28
2,0,1,0,0,23,test,1,1,z,Thu May 14 2026 11:03:08 GMT-0500 (Central Daylight Time),846582.3000000119,O,z,1536,29,1,57.bmp,-120,-120,58.bmp,120,-120,59.bmp,-120,120,60.bmp,120,120,9591.40000000596,836990.900000006,7802,yes,SM,C,58.bmp,120,-120,367455,361429,369471,363441,668376.0,662349.0,670391.0,664361.0,29
3,0,0,1,0,24,test,1,1,z,Thu May 14 2026 11:03:08 GMT-0500 (Central Daylight Time),855580.400000006,O,z,949,30,1,61.bmp,-120,-120,62.bmp,120,-120,63.bmp,-120,120,64.bmp,120,120,8994.699999988079,846585.7000000179,7802,yes,SM,C,63.bmp,-120,120,367455,361429,369471,363441,677972.0,671944.0,679988.0,673957.0,30
1,1,0,0,0,24,test,1,0,z,Thu May 14 2026 11:03:08 GMT-0500 (Central Daylight Time),865177.1000000238,O,m,1542,31,1,65.bmp,-120,-120,66.bmp,120,-120,67.bmp,-120,120,68.bmp,120,120,9593.0,855584.1000000238,7802,yes,SM,C,65.bmp,-120,-120,367455,361429,369471,363441,686970.0,680942.0,688986.0,682954.0,31
2,0,1,0,0,25,test,1,1,m,Thu May 14 2026 11:03:08 GMT-0500 (Central Daylight Time),874773.900000006,O,m,1544,32,1,69.bmp,-120,-120,70.bmp,120,-120,71.bmp,-120,120,72.bmp,120,120,9594.40000000596,865179.5,7802,yes,SM,C,69.bmp,120,-120,367455,361429,369471,363441,696568.0,690538.0,698583.0,692553.0,32
4,0,0,0,1,26,test,1,1,z,Thu May 14 2026 11:03:08 GMT-0500 (Central Daylight Time),884020.3000000119,O,z,1186,33,1,81.bmp,-120,-120,82.bmp,120,-120,83.bmp,-120,120,84.bmp,120,120,9242.699999988079,874777.6000000238,7802,yes,SM,C,84.bmp,120,120,367455,361429,369471,363441,706164.0,700136.0,708181.0,702148.0,33
2,0,1,0,0,27,test,1,1,z,Thu May 14 2026 11:03:08 GMT-0500 (Central Daylight Time),893501.900000006,O,z,1438,34,1,73.bmp,-120,-120,74.bmp,120,-120,75.bmp,-120,120,76.bmp,120,120,9478.299999982119,884023.6000000238,7802,yes,SM,C,74.bmp,120,-120,367455,361429,369471,363441,715409.0,709382.0,717410.0,711395.0,34
4,0,0,0,1,28,test,1,1,m,Thu May 14 2026 11:03:08 GMT-0500 (Central Daylight Time),903147.8000000119,O,m,1596,35,1,77.bmp,-120,-120,78.bmp,120,-120,79.bmp,-120,120,80.bmp,120,120,9642.90000000596,893504.900000006,7802,yes,SM,C,79.bmp,120,120,367455,361429,369471,363441,724891.0,718863.0,726907.0,720877.0,35
3,0,0,1,0,29,test,1,1,m,Thu May 14 2026 11:03:08 GMT-0500 (Central Daylight Time),912761.8000000119,O,m,1582,36,1,85.bmp,-120,-120,86.bmp,120,-120,87.bmp,-120,120,88.bmp,120,120,9611.699999988079,903150.1000000238,7802,yes,SM,C,85.bmp,-120,120,367455,361429,369471,363441,734537.0,728508.0,736538.0,730523.0,36
1,1,0,0,0,30,test,1,1,m,Thu May 14 2026 11:03:08 GMT-0500 (Central Daylight Time),922075.3000000119,O,m,1257,37,1,89.bmp,-120,-120,90.bmp,120,-120,91.bmp,-120,120,92.bmp,120,120,9309.09999999404,912766.2000000179,7802,yes,SM,C,90.bmp,-120,-120,367455,361429,369471,363441,744151.0,738124.0,746167.0,740136.0,37
2,0,1,0,0,30,test,1,0,m,Thu May 14 2026 11:03:08 GMT-0500 (Central Daylight Time),932138.7000000179,O,None,2016,38,1,93.bmp,-120,-120,94.bmp,120,-120,95.bmp,-120,120,96.bmp,120,120,10058.40000000596,922080.3000000119,7802,yes,SM,C,95.bmp,120,-120,367455,361429,369471,363441,753466.0,747439.0,755481.0,749451.0,38
4,0,0,0,1,31,test,1,1,z,Thu May 14 2026 11:03:08 GMT-0500 (Central Daylight Time),941753.900000006,O,z,1567,39,1,97.bmp,-120,-120,98.bmp,120,-120,99.bmp,-120,120,100.bmp,120,120,9610.5,932143.400000006,7802,yes,SM,C,100.bmp,120,120,367455,361429,369471,363441,763529.0,757502.0,765545.0,759514.0,39
3,0,0,1,0,32,test,1,1,m,Thu May 14 2026 11:03:08 GMT-0500 (Central Daylight Time),951315.8000000119,O,m,1504,40,1,54.bmp,-120,-120,55.bmp,120,-120,56.bmp,-120,120,57.bmp,120,120,9558.40000000596,941757.400000006,7802,yes,SM,C,55.bmp,-120,120,367455,361429,369471,363441,773144.0,767116.0,775160.0,769128.0,40
1,1,0,0,0,32,test,1,0,z,Thu May 14 2026 11:03:08 GMT-0500 (Central Daylight Time),960812.5,O,m,1444,41,1,58.bmp,-120,-120,59.bmp,120,-120,60.bmp,-120,120,61.bmp,120,120,9491.5,951321.0,7802,yes,SM,C,58.bmp,-120,-120,367455,361429,369471,363441,782708.0,776679.0,784723.0,778692.0,41
4,0,0,0,1,33,test,1,1,z,Thu May 14 2026 11:03:08 GMT-0500 (Central Daylight Time),970344.6000000238,O,z,1467,42,1,62.bmp,-120,-120,63.bmp,120,-120,64.bmp,-120,120,65.bmp,120,120,9527.800000011921,960816.8000000119,7802,yes,SM,C,65.bmp,120,120,367455,361429,369471,363441,792203.0,786175.0,794220.0,788187.0,42
1,1,0,0,0,34,test,1,1,z,Thu May 14 2026 11:03:08 GMT-0500 (Central Daylight Time),979407.5,O,z,1010,43,1,66.bmp,-120,-120,67.bmp,120,-120,68.bmp,-120,120,69.bmp,120,120,9059.299999982119,970348.2000000179,7802,yes,SM,C,66.bmp,-120,-120,367455,361429,369471,363441,801733.0,795706.0,803750.0,797718.0,43
4,0,0,0,1,35,test,1,1,m,Thu May 14 2026 11:03:08 GMT-0500 (Central Daylight Time),988689.400000006,O,m,1233,44,1,54.bmp,-120,-120,51.bmp,120,-120,52.bmp,-120,120,53.bmp,120,120,9279.40000000596,979410.0,7802,yes,SM,C,54.bmp,120,120,367455,361429,369471,363441,810795.0,804768.0,812798.0,806783.0,44
1,1,0,0,0,36,test,1,1,m,Thu May 14 2026 11:03:08 GMT-0500 (Central Daylight Time),998150.0,O,m,1409,45,1,78.bmp,-120,-120,79.bmp,120,-120,80.bmp,-120,120,81.bmp,120,120,9456.699999988079,988693.3000000119,7802,yes,SM,C,81.bmp,-120,-120,367455,361429,369471,363441,820078.0,814051.0,822094.0,816063.0,45
1,1,0,0,0,37,test,1,1,m,Thu May 14 2026 11:03:08 GMT-0500 (Central Daylight Time),1007349.5,O,m,1147,46,1,70.bmp,-120,-120,71.bmp,120,-120,72.bmp,-120,120,73.bmp,120,120,9197.299999982119,998152.2000000179,7802,yes,SM,C,71.bmp,-120,-120,367455,361429,369471,363441,829541.0,823510.0,831557.0,825525.0,46
3,0,0,1,0,38,test,1,1,z,Thu May 14 2026 11:03:08 GMT-0500 (Central Daylight Time),1016813.5,O,z,1413,47,1,74.bmp,-120,-120,75.bmp,120,-120,76.bmp,-120,120,77.bmp,120,120,9459.59999999404,1007353.900000006,7802,yes,SM,C,76.bmp,-120,120,367455,361429,369471,363441,838738.0,832712.0,840754.0,834722.0,47
3,0,0,1,0,39,test,1,1,z,Thu May 14 2026 11:03:08 GMT-0500 (Central Daylight Time),1025909.7000000179,O,z,1037,48,1,90.bmp,-120,-120,91.bmp,120,-120,92.bmp,-120,120,93.bmp,120,120,9093.5,1016816.2000000179,7802,yes,SM,C,92.bmp,-120,120,367455,361429,369471,363441,848203.0,842174.0,850219.0,844187.0,48
2,0,1,0,0,40,test,1,1,z,Thu May 14 2026 11:03:08 GMT-0500 (Central Daylight Time),1035457.2000000179,O,z,1483,49,1,86.bmp,-120,-120,87.bmp,120,-120,88.bmp,-120,120,89.bmp,120,120,9543.200000017881,1025914.0,7802,yes,SM,C,87.bmp,120,-120,367455,361429,369471,363441,857299.0,851272.0,859317.0,853284.0,49
3,0,0,1,0,40,test,1,0,m,Thu May 14 2026 11:03:08 GMT-0500 (Central Daylight Time),1044621.0,O,z,1112,50,1,82.bmp,-120,-120,83.bmp,120,-120,84.bmp,-120,120,85.bmp,120,120,9160.299999982119,1035460.7000000179,7802,yes,SM,C,82.bmp,-120,120,367455,361429,369471,363441,866848.0,860819.0,868864.0,862832.0,50
2,0,1,0,0,41,test,1,1,z,Thu May 14 2026 11:03:08 GMT-0500 (Central Daylight Time),1053850.1000000238,O,z,1173,51,1,94.bmp,-120,-120,95.bmp,120,-120,96.bmp,-120,120,97.bmp,120,120,9226.100000023842,1044624.0,7802,yes,SM,C,95.bmp,120,-120,367455,361429,369471,363441,876010.0,869982.0,878027.0,871995.0,51
4,0,0,0,1,41,test,1,0,m,Thu May 14 2026 11:03:08 GMT-0500 (Central Daylight Time),1062933.2000000179,O,z,1033,52,1,98.bmp,-120,-120,99.bmp,120,-120,100.bmp,-120,120,81.bmp,120,120,9078.59999999404,1053854.6000000238,7802,yes,SM,C,98.bmp,120,120,367455,361429,369471,363441,885239.0,879213.0,887257.0,881224.0,52
3,0,0,1,0,42,test,1,1,z,Thu May 14 2026 11:03:08 GMT-0500 (Central Daylight Time),1072778.7000000179,O,z,1799,53,1,51.bmp,-120,-120,52.bmp,120,-120,53.bmp,-120,120,54.bmp,120,120,9841.200000017881,1062937.5,7802,yes,SM,C,53.bmp,-120,120,367455,361429,369471,363441,894321.0,888296.0,896337.0,890306.0,53
1,1,0,0,0,43,test,1,1,m,Thu May 14 2026 11:03:08 GMT-0500 (Central Daylight Time),1082041.900000006,O,m,1209,54,1,55.bmp,-120,-120,56.bmp,120,-120,57.bmp,-120,120,58.bmp,120,120,9259.299999982119,1072782.6000000238,7802,yes,SM,C,57.bmp,-120,-120,367455,361429,369471,363441,904169.0,898141.0,906183.0,900153.0,54
4,0,0,0,1,44,test,1,1,z,Thu May 14 2026 11:03:08 GMT-0500 (Central Daylight Time),1091338.5,O,z,1238,55,1,59.bmp,-120,-120,60.bmp,120,-120,61.bmp,-120,120,62.bmp,120,120,9293.299999982119,1082045.2000000179,7802,yes,SM,C,62.bmp,120,120,367455,361429,369471,363441,913431.0,907403.0,915449.0,909416.0,55
2,0,1,0,0,45,test,1,1,m,Thu May 14 2026 11:03:08 GMT-0500 (Central Daylight Time),1101152.5,O,m,1774,56,1,63.bmp,-120,-120,64.bmp,120,-120,65.bmp,-120,120,66.bmp,120,120,9811.399999976158,1091341.1000000238,7802,yes,SM,C,63.bmp,120,-120,367455,361429,369471,363441,922727.0,916699.0,924730.0,918715.0,56
4,0,0,0,1,46,test,1,1,m,Thu May 14 2026 11:03:08 GMT-0500 (Central Daylight Time),1110398.400000006,O,m,1185,57,1,67.bmp,-120,-120,68.bmp,120,-120,69.bmp,-120,120,70.bmp,120,120,9242.5,1101155.900000006,7802,yes,SM,C,68.bmp,120,120,367455,361429,369471,363441,932543.0,926514.0,934558.0,928528.0,57
3,0,0,1,0,47,test,1,1,z,Thu May 14 2026 11:03:08 GMT-0500 (Central Daylight Time),1119662.6000000238,O,z,1202,58,1,71.bmp,-120,-120,72.bmp,120,-120,73.bmp,-120,120,74.bmp,120,120,9262.40000000596,1110400.2000000179,7802,yes,SM,C,73.bmp,-120,120,367455,361429,369471,363441,941788.0,935758.0,943806.0,937774.0,58
2,0,1,0,0,47,test,1,0,m,Thu May 14 2026 11:03:08 GMT-0500 (Central Daylight Time),1129626.6000000238,O,z,1932,59,1,75.bmp,-120,-120,76.bmp,120,-120,77.bmp,-120,120,78.bmp,120,120,9961.100000023842,1119665.5,7802,yes,SM,C,78.bmp,120,-120,367455,361429,369471,363441,951051.0,945024.0,953052.0,947039.0,59
1,1,0,0,0,47,test,1,0,z,Thu May 14 2026 11:03:08 GMT-0500 (Central Daylight Time),1139091.400000006,O,m,1416,60,1,79.bmp,-120,-120,80.bmp,120,-120,81.bmp,-120,120,82.bmp,120,120,9461.299999982119,1129630.1000000238,7802,yes,SM,C,79.bmp,-120,-120,367455,361429,369471,363441,961016.0,954988.0,963033.0,957002.0,60
2,0,1,0,0,47,test,1,0,z,Thu May 14 2026 11:03:08 GMT-0500 (Central Daylight Time),1149152.900000006,O,None,2016,61,1,83.bmp,-120,-120,84.bmp,120,-120,85.bmp,-120,120,86.bmp,120,120,10058.0,1139094.900000006,7802,yes,SM,C,84.bmp,120,-120,367455,361429,369471,363441,970479.0,964453.0,972495.0,966465.0,61
4,0,0,0,1,48,test,1,1,z,Thu May 14 2026 11:03:08 GMT-0500 (Central Daylight Time),1158216.6000000238,O,z,1009,62,1,91.bmp,-120,-120,92.bmp,120,-120,93.bmp,-120,120,94.bmp,120,120,9057.300000011921,1149159.300000012,7802,yes,SM,C,94.bmp,120,120,367455,361429,369471,363441,980542.0,974518.0,982559.0,976527.0,62
1,1,0,0,0,48,test,1,0,m,Thu May 14 2026 11:03:08 GMT-0500 (Central Daylight Time),1167646.900000006,O,z,1368,63,1,95.bmp,-120,-120,96.bmp,120,-120,97.bmp,-120,120,98.bmp,120,120,9425.199999988079,1158221.7000000179,7802,yes,SM,C,95.bmp,-120,120,367455,361429,369471,363441,989606.0,983580.0,991623.0,985590.0,63
2,0,1,0,0,48,test,1,0,z,Thu May 14 2026 11:03:08 GMT-0500 (Central Daylight Time),1177427.300000012,O,m,1732,64,1,99.bmp,-120,-120,100.bmp,120,-120,62.bmp,-120,120,51.bmp,120,120,9774.5,1167652.800000012,7802,yes,SM,C,100.bmp,120,-120,367455,361429,369471,363441,999038.0,993011.0,1001053.0,995022.0,64
4,0,0,0,1,49,test,1,1,m,Thu May 14 2026 11:03:08 GMT-0500 (Central Daylight Time),1186509.0,O,m,1049,65,1,52.bmp,-120,-120,53.bmp,120,-120,54.bmp,-120,120,55.bmp,120,120,9077.899999976158,1177431.1000000238,7802,yes,SM,C,54.bmp,120,120,367455,361429,369471,363441,1008814.0,1002789.0,1010818.0,1004802.0,65
3,0,0,1,0,50,test,1,1,m,Thu May 14 2026 11:03:08 GMT-0500 (Central Daylight Time),1195754.800000012,O,m,1200,66,1,56.bmp,-120,-120,57.bmp,120,-120,58.bmp,-120,120,59.bmp,120,120,9241.199999988079,1186513.6000000238,7802,yes,SM,C,59.bmp,-120,120,367455,361429,369471,363441,1017898.0,1011872.0,1019912.0,1013884.0,66
2,0,1,0,0,51,test,1,1,m,Thu May 14 2026 11:03:08 GMT-0500 (Central Daylight Time),1205168.900000006,O,m,1360,67,1,87.bmp,-120,-120,88.bmp,120,-120,89.bmp,-120,120,90.bmp,120,120,9409.59999999404,1195759.300000012,7802,yes,SM,C,89.bmp,120,-120,367455,361429,369471,363441,1027144.0,1021117.0,1029160.0,1023130.0,67
3,0,0,1,0,51,test,1,0,z,Thu May 14 2026 11:03:08 GMT-0500 (Central Daylight Time),1214732.6000000238,O,m,1514,68,1,60.bmp,-120,-120,61.bmp,120,-120,62.bmp,-120,120,63.bmp,120,120,9561.300000011921,1205171.300000012,7802,yes,SM,C,62.bmp,-120,120,367455,361429,369471,363441,1036558.0,1030529.0,1038574.0,1032543.0,68
1,1,0,0,0,52,test,1,1,m,Thu May 14 2026 11:03:08 GMT-0500 (Central Daylight Time),1223945.400000006,O,m,1156,69,1,64.bmp,-120,-120,65.bmp,120,-120,66.bmp,-120,120,67.bmp,120,120,9209.0,1214736.400000006,7802,yes,SM,C,65.bmp,-120,-120,367455,361429,369471,363441,1046122.0,1040095.0,1048139.0,1042108.0,69
2,0,1,0,0,53,test,1,1,m,Thu May 14 2026 11:03:08 GMT-0500 (Central Daylight Time),1233360.2000000179,O,m,1360,70,1,68.bmp,-120,-120,69.bmp,120,-120,70.bmp,-120,120,71.bmp,120,120,9412.09999999404,1223948.1000000238,7802,yes,SM,C,70.bmp,120,-120,367455,361429,369471,363441,1055337.0,1049306.0,1057351.0,1051321.0,70
4,0,0,0,1,54,test,1,1,z,Thu May 14 2026 11:03:08 GMT-0500 (Central Daylight Time),1242641.1000000238,O,z,1218,71,1,72.bmp,-120,-120,73.bmp,120,-120,74.bmp,-120,120,75.bmp,120,120,9277.0,1233364.1000000238,7802,yes,SM,C,75.bmp,120,120,367455,361429,369471,363441,1064750.0,1058722.0,1066766.0,1060734.0,71
1,1,0,0,0,55,test,1,1,z,Thu May 14 2026 11:03:08 GMT-0500 (Central Daylight Time),1252404.0,O,z,1721,72,1,76.bmp,-120,-120,77.bmp,120,-120,78.bmp,-120,120,79.bmp,120,120,9759.799999982119,1242644.2000000179,7802,yes,SM,C,76.bmp,-120,-120,367455,361429,369471,363441,1074028.0,1068002.0,1076030.0,1070015.0,72
2,0,1,0,0,55,test,1,0,z,Thu May 14 2026 11:03:08 GMT-0500 (Central Daylight Time),1261834.5,O,m,1373,73,1,80.bmp,-120,-120,81.bmp,120,-120,82.bmp,-120,120,83.bmp,120,120,9427.399999976158,1252407.1000000238,7802,yes,SM,C,81.bmp,120,-120,367455,361429,369471,363441,1083794.0,1077765.0,1085811.0,1079778.0,73
4,0,0,0,1,56,test,1,1,m,Thu May 14 2026 11:03:08 GMT-0500 (Central Daylight Time),1271080.400000006,O,m,1191,74,1,84.bmp,-120,-120,85.bmp,120,-120,86.bmp,-120,120,87.bmp,120,120,9243.199999988079,1261837.2000000179,7802,yes,SM,C,86.bmp,120,120,367455,361429,369471,363441,1093223.0,1087195.0,1095240.0,1089208.0,74
2,0,1,0,0,57,test,1,1,m,Thu May 14 2026 11:03:08 GMT-0500 (Central Daylight Time),1280195.400000006,O,m,1056,75,1,88.bmp,-120,-120,89.bmp,120,-120,90.bmp,-120,120,91.bmp,120,120,9108.699999988079,1271086.7000000179,7802,yes,SM,C,91.bmp,120,-120,367455,361429,369471,363441,1102470.0,1096445.0,1104487.0,1098456.0,75
1,1,0,0,0,58,test,1,1,z,Thu May 14 2026 11:03:08 GMT-0500 (Central Daylight Time),1289707.900000006,O,z,1455,76,1,92.bmp,-120,-120,93.bmp,120,-120,94.bmp,-120,120,95.bmp,120,120,9509.40000000596,1280198.5,7802,yes,SM,C,92.bmp,-120,-120,367455,361429,369471,363441,1111584.0,1105557.0,1113600.0,1107569.0,76
3,0,0,1,0,58,test,1,0,z,Thu May 14 2026 11:03:08 GMT-0500 (Central Daylight Time),1299539.300000012,O,m,1774,77,1,100.bmp,-120,-120,61.bmp,120,-120,51.bmp,-120,120,52.bmp,120,120,9829.300000011921,1289710.0,7802,yes,SM,C,51.bmp,-120,120,367455,361429,369471,363441,1121098.0,1115068.0,1123114.0,1117083.0,77
1,1,0,0,0,59,test,1,1,m,Thu May 14 2026 11:03:08 GMT-0500 (Central Daylight Time),1308951.900000006,O,m,1359,78,1,96.bmp,-120,-120,97.bmp,120,-120,98.bmp,-120,120,99.bmp,120,120,9409.40000000596,1299542.5,7802,yes,SM,C,97.bmp,-120,-120,367455,361429,369471,363441,1130930.0,1124901.0,1132944.0,1126914.0,78
4,0,0,0,1,60,test,1,1,m,Thu May 14 2026 11:03:08 GMT-0500 (Central Daylight Time),1318415.300000012,O,m,1409,79,1,57.bmp,-120,-120,58.bmp,120,-120,59.bmp,-120,120,60.bmp,120,120,9460.5,1308954.800000012,7802,yes,SM,C,57.bmp,120,120,367455,361429,369471,363441,1140342.0,1134313.0,1142357.0,1136327.0,79
3,0,0,1,0,61,test,1,1,m,Thu May 14 2026 11:03:08 GMT-0500 (Central Daylight Time),1328330.0,O,m,1864,80,1,53.bmp,-120,-120,54.bmp,120,-120,55.bmp,-120,120,56.bmp,120,120,9911.0,1318419.0,7802,yes,SM,C,56.bmp,-120,120,367455,361429,369471,363441,1149806.0,1143777.0,1151824.0,1145793.0,80
