Q,Q1,Q2,Q3,Q4,acc_sum,block,block_c,correct,correct_response,datetime,endtime,project,response,response_time,row_sel,session_number,squiggle1,squiggle1x,squiggle1y,squiggle2,squiggle2x,squiggle2y,squiggle3,squiggle3x,squiggle3y,squiggle4,squiggle4x,squiggle4y,start_end,starttime,subject_id,target_congruent,task,task_vers,testsquiggle,testsquigglex,testsquiggley,time_practice_delay,time_practice_fixation,time_practice_stimuli,time_practice_study,time_test_delay,time_test_fixation,time_test_stimuli,time_test_study,trial
1,1,0,0,0,1,prac,1,1,z,Mon Jun 22 2026 09:56:18 GMT-0500 (Central Daylight Time),93235.69999999925,I,z,1762,1,3,116.bmp,-120,-120,117.bmp,120,-120,118.bmp,-120,120,119.bmp,120,120,10593.60000000149,82642.09999999776,8075,yes,SM,A,116.bmp,-120,-120,86365,80319,88380,82363,,,,,1
3,0,0,1,0,2,prac,1,1,m,Mon Jun 22 2026 09:56:18 GMT-0500 (Central Daylight Time),103265.59999999776,I,m,1206,2,3,120.bmp,-120,-120,121.bmp,120,-120,122.bmp,-120,120,123.bmp,120,120,10025.699999999255,93239.89999999851,8075,no,SM,A,123.bmp,-120,120,96944,90917,98960,92929,,,,,2
4,0,0,0,1,3,prac,1,1,m,Mon Jun 22 2026 09:56:18 GMT-0500 (Central Daylight Time),113162.69999999925,I,m,1081,3,3,124.bmp,-120,-120,125.bmp,120,-120,126.bmp,-120,120,127.bmp,120,120,9893.199999999255,103269.5,8075,no,SM,A,124.bmp,120,120,106974,100947,108990,102959,,,,,3
2,0,1,0,0,4,prac,1,1,z,Mon Jun 22 2026 09:56:18 GMT-0500 (Central Daylight Time),123192.69999999925,I,z,1215,4,3,128.bmp,-120,-120,129.bmp,120,-120,130.bmp,-120,120,131.bmp,120,120,10025.900000002235,113166.79999999702,8075,yes,SM,A,129.bmp,120,-120,116871,110844,118887,112856,,,,,4
3,0,0,1,0,5,prac,1,1,z,Mon Jun 22 2026 09:56:18 GMT-0500 (Central Daylight Time),133639.19999999925,I,z,1623,5,3,132.bmp,-120,-120,133.bmp,120,-120,134.bmp,-120,120,135.bmp,120,120,10443.199999999255,123196.0,8075,yes,SM,A,134.bmp,-120,120,126901,120873,128919,122886,,,,,5
1,1,0,0,0,6,prac,1,1,m,Mon Jun 22 2026 09:56:18 GMT-0500 (Central Daylight Time),143536.29999999702,I,m,1074,6,3,136.bmp,-120,-120,137.bmp,120,-120,138.bmp,-120,120,139.bmp,120,120,9893.39999999851,133642.8999999985,8075,no,SM,A,139.bmp,-120,-120,137348,131320,139364,133333,,,,,6
2,0,1,0,0,7,prac,1,1,m,Mon Jun 22 2026 09:56:18 GMT-0500 (Central Daylight Time),153267.09999999776,I,m,913,7,3,140.bmp,-120,-120,141.bmp,120,-120,142.bmp,-120,120,143.bmp,120,120,9727.0,143540.09999999776,8075,no,SM,A,140.bmp,120,-120,147245,141217,149261,143229,,,,,7
4,0,0,0,1,8,prac,1,1,z,Mon Jun 22 2026 09:56:18 GMT-0500 (Central Daylight Time),163463.5,I,z,1300,8,3,144.bmp,-120,-120,145.bmp,120,-120,146.bmp,-120,120,147.bmp,120,120,10192.400000002235,153271.09999999776,8075,yes,SM,A,147.bmp,120,120,157042,150948,159058,153041,,,,,8
4,0,0,0,1,1,test,1,1,m,Mon Jun 22 2026 09:56:18 GMT-0500 (Central Daylight Time),192521.0,I,m,941,1,3,148.bmp,-120,-120,149.bmp,120,-120,150.bmp,-120,120,143.bmp,120,120,8994.800000000745,183526.19999999925,8075,no,SM,A,150.bmp,120,120,157042,150948,159058,153041,187233.0,181203.0,189249.0,183217.0,1
2,0,1,0,0,2,test,1,1,m,Mon Jun 22 2026 09:56:18 GMT-0500 (Central Daylight Time),201684.59999999776,I,m,1103,2,3,101.bmp,-120,-120,102.bmp,120,-120,103.bmp,-120,120,104.bmp,120,120,9159.89999999851,192524.69999999925,8075,no,SM,A,103.bmp,120,-120,157042,150948,159058,153041,196230.0,190202.0,198247.0,192215.0,2
1,1,0,0,0,3,test,1,1,z,Mon Jun 22 2026 09:56:18 GMT-0500 (Central Daylight Time),210782.0,I,z,1044,3,3,105.bmp,-120,-120,106.bmp,120,-120,107.bmp,-120,120,108.bmp,120,120,9094.0,201688.0,8075,yes,SM,A,105.bmp,-120,-120,157042,150948,159058,153041,205393.0,199365.0,207410.0,201378.0,3
3,0,0,1,0,3,test,1,0,m,Mon Jun 22 2026 09:56:18 GMT-0500 (Central Daylight Time),219779.0,I,z,945,4,3,109.bmp,-120,-120,110.bmp,120,-120,111.bmp,-120,120,112.bmp,120,120,8992.5,210786.5,8075,no,SM,A,109.bmp,-120,120,157042,150948,159058,153041,214490.0,208464.0,216508.0,210475.0,4
2,0,1,0,0,4,test,1,1,z,Mon Jun 22 2026 09:56:18 GMT-0500 (Central Daylight Time),229209.3999999985,I,z,1382,5,3,113.bmp,-120,-120,114.bmp,120,-120,115.bmp,-120,120,116.bmp,120,120,9426.0,219783.3999999985,8075,yes,SM,A,114.bmp,120,-120,157042,150948,159058,153041,223488.0,217461.0,225504.0,219473.0,5
3,0,0,1,0,5,test,1,1,z,Mon Jun 22 2026 09:56:18 GMT-0500 (Central Daylight Time),238506.5,I,z,1247,6,3,117.bmp,-120,-120,118.bmp,120,-120,119.bmp,-120,120,120.bmp,120,120,9293.800000000745,229212.69999999925,8075,yes,SM,A,119.bmp,-120,120,157042,150948,159058,153041,232918.0,226890.0,234934.0,228903.0,6
4,0,0,0,1,6,test,1,1,z,Mon Jun 22 2026 09:56:18 GMT-0500 (Central Daylight Time),248020.09999999776,I,z,1454,7,3,121.bmp,-120,-120,122.bmp,120,-120,123.bmp,-120,120,124.bmp,120,120,9509.5,238510.59999999776,8075,yes,SM,A,124.bmp,120,120,157042,150948,159058,153041,242215.0,236188.0,244232.0,238201.0,7
2,0,1,0,0,7,test,1,1,m,Mon Jun 22 2026 09:56:18 GMT-0500 (Central Daylight Time),257384.09999999776,I,m,1300,8,3,125.bmp,-120,-120,126.bmp,120,-120,127.bmp,-120,120,128.bmp,120,120,9360.89999999851,248023.19999999925,8075,no,SM,A,125.bmp,120,-120,157042,150948,159058,153041,251729.0,245700.0,253745.0,247714.0,8
3,0,0,1,0,8,test,1,1,m,Mon Jun 22 2026 09:56:18 GMT-0500 (Central Daylight Time),266680.69999999925,I,m,1248,9,3,129.bmp,-120,-120,130.bmp,120,-120,131.bmp,-120,120,132.bmp,120,120,9293.0,257387.69999999925,8075,no,SM,A,130.bmp,-120,120,157042,150948,159058,153041,261092.0,255065.0,263110.0,257077.0,9
4,0,0,0,1,9,test,1,1,z,Mon Jun 22 2026 09:56:18 GMT-0500 (Central Daylight Time),276044.799999997,I,z,1312,10,3,137.bmp,-120,-120,138.bmp,120,-120,139.bmp,-120,120,140.bmp,120,120,9360.29999999702,266684.5,8075,yes,SM,A,140.bmp,120,120,157042,150948,159058,153041,270389.0,264362.0,272406.0,266374.0,10
3,0,0,1,0,10,test,1,1,z,Mon Jun 22 2026 09:56:18 GMT-0500 (Central Daylight Time),285091.799999997,I,z,996,11,3,133.bmp,-120,-120,134.bmp,120,-120,135.bmp,-120,120,136.bmp,120,120,9043.0,276048.799999997,8075,yes,SM,A,135.bmp,-120,120,157042,150948,159058,153041,279754.0,273726.0,281770.0,275738.0,11
2,0,1,0,0,11,test,1,1,m,Mon Jun 22 2026 09:56:18 GMT-0500 (Central Daylight Time),294490.0,I,m,1348,12,3,141.bmp,-120,-120,142.bmp,120,-120,143.bmp,-120,120,144.bmp,120,120,9394.60000000149,285095.3999999985,8075,no,SM,A,141.bmp,120,-120,157042,150948,159058,153041,288800.0,282773.0,290817.0,284785.0,12
3,0,0,1,0,12,test,1,1,m,Mon Jun 22 2026 09:56:18 GMT-0500 (Central Daylight Time),303636.5,I,m,1096,13,3,145.bmp,-120,-120,146.bmp,120,-120,147.bmp,-120,120,148.bmp,120,120,9142.70000000298,294493.799999997,8075,no,SM,A,146.bmp,-120,120,157042,150948,159058,153041,298198.0,292171.0,300214.0,294182.0,13
1,1,0,0,0,13,test,1,1,z,Mon Jun 22 2026 09:56:18 GMT-0500 (Central Daylight Time),313016.59999999776,I,z,1332,14,3,149.bmp,-120,-120,150.bmp,120,-120,104.bmp,-120,120,101.bmp,120,120,9376.5,303640.09999999776,8075,yes,SM,A,149.bmp,-120,-120,157042,150948,159058,153041,307345.0,301317.0,309361.0,303329.0,14
4,0,0,0,1,14,test,1,1,m,Mon Jun 22 2026 09:56:18 GMT-0500 (Central Daylight Time),322930.0,I,m,1855,15,3,110.bmp,-120,-120,111.bmp,120,-120,112.bmp,-120,120,113.bmp,120,120,9909.300000000745,313020.69999999925,8075,no,SM,A,111.bmp,120,120,157042,150948,159058,153041,316725.0,310698.0,318742.0,312710.0,15
1,1,0,0,0,15,test,1,1,m,Mon Jun 22 2026 09:56:18 GMT-0500 (Central Daylight Time),332277.09999999776,I,m,1287,16,3,102.bmp,-120,-120,103.bmp,120,-120,104.bmp,-120,120,105.bmp,120,120,9343.599999997765,322933.5,8075,no,SM,A,105.bmp,-120,-120,157042,150948,159058,153041,326638.0,320611.0,328655.0,322624.0,16
3,0,0,1,0,15,test,1,0,m,Mon Jun 22 2026 09:56:18 GMT-0500 (Central Daylight Time),341808.3999999985,I,z,1467,17,3,122.bmp,-120,-120,123.bmp,120,-120,124.bmp,-120,120,125.bmp,120,120,9527.5,332280.8999999985,8075,no,SM,A,122.bmp,-120,120,157042,150948,159058,153041,335986.0,329958.0,338002.0,331971.0,17
1,1,0,0,0,16,test,1,1,z,Mon Jun 22 2026 09:56:18 GMT-0500 (Central Daylight Time),351204.59999999776,I,z,1329,18,3,106.bmp,-120,-120,107.bmp,120,-120,108.bmp,-120,120,109.bmp,120,120,9392.599999997765,341812.0,8075,yes,SM,A,106.bmp,-120,-120,157042,150948,159058,153041,345534.0,339489.0,347549.0,341516.0,18
2,0,1,0,0,17,test,1,1,z,Mon Jun 22 2026 09:56:18 GMT-0500 (Central Daylight Time),361151.59999999776,I,z,1885,19,3,126.bmp,-120,-120,127.bmp,120,-120,128.bmp,-120,120,129.bmp,120,120,9943.39999999851,351208.19999999925,8075,yes,SM,A,127.bmp,120,-120,157042,150948,159058,153041,354914.0,348885.0,356929.0,350898.0,19
3,0,0,1,0,18,test,1,1,z,Mon Jun 22 2026 09:56:18 GMT-0500 (Central Daylight Time),370365.0,I,z,1154,20,3,130.bmp,-120,-120,131.bmp,120,-120,132.bmp,-120,120,133.bmp,120,120,9209.70000000298,361155.299999997,8075,yes,SM,A,132.bmp,-120,120,157042,150948,159058,153041,364860.0,358833.0,366876.0,360846.0,20
1,1,0,0,0,19,test,1,1,m,Mon Jun 22 2026 09:56:18 GMT-0500 (Central Daylight Time),379629.19999999925,I,m,1204,21,3,114.bmp,-120,-120,115.bmp,120,-120,116.bmp,-120,120,117.bmp,120,120,9260.699999999255,370368.5,8075,no,SM,A,116.bmp,-120,-120,157042,150948,159058,153041,374074.0,368046.0,376090.0,370059.0,21
4,0,0,0,1,20,test,1,1,z,Mon Jun 22 2026 09:56:18 GMT-0500 (Central Daylight Time),389175.8999999985,I,z,1492,22,3,118.bmp,-120,-120,119.bmp,120,-120,120.bmp,-120,120,121.bmp,120,120,9543.699999999255,379632.19999999925,8075,yes,SM,A,121.bmp,120,120,157042,150948,159058,153041,383337.0,377309.0,385354.0,379322.0,22
1,1,0,0,0,21,test,1,1,m,Mon Jun 22 2026 09:56:18 GMT-0500 (Central Daylight Time),398289.799999997,I,m,1057,23,3,134.bmp,-120,-120,135.bmp,120,-120,136.bmp,-120,120,137.bmp,120,120,9110.599999997765,389179.19999999925,8075,no,SM,A,137.bmp,-120,-120,157042,150948,159058,153041,392884.0,386856.0,394901.0,388869.0,23
2,0,1,0,0,22,test,1,1,z,Mon Jun 22 2026 09:56:18 GMT-0500 (Central Daylight Time),407653.5,I,z,1311,24,3,142.bmp,-120,-120,143.bmp,120,-120,144.bmp,-120,120,145.bmp,120,120,9360.20000000298,398293.299999997,8075,yes,SM,A,143.bmp,120,-120,157042,150948,159058,153041,401998.0,395971.0,404014.0,397984.0,24
4,0,0,0,1,23,test,1,1,m,Mon Jun 22 2026 09:56:18 GMT-0500 (Central Daylight Time),416800.69999999925,I,m,1084,25,3,146.bmp,-120,-120,147.bmp,120,-120,148.bmp,-120,120,149.bmp,120,120,9143.5,407657.19999999925,8075,no,SM,A,148.bmp,120,120,157042,150948,159058,153041,411362.0,405334.0,413378.0,407347.0,25
1,1,0,0,0,24,test,1,1,z,Mon Jun 22 2026 09:56:18 GMT-0500 (Central Daylight Time),426647.69999999925,I,z,1792,26,3,138.bmp,-120,-120,139.bmp,120,-120,140.bmp,-120,120,141.bmp,120,120,9843.699999999255,416804.0,8075,yes,SM,A,138.bmp,-120,-120,157042,150948,159058,153041,420509.0,414481.0,422526.0,416494.0,26
4,0,0,0,1,25,test,1,1,z,Mon Jun 22 2026 09:56:18 GMT-0500 (Central Daylight Time),435662.59999999776,I,z,962,27,3,150.bmp,-120,-120,111.bmp,120,-120,101.bmp,-120,120,102.bmp,120,120,9011.199999999255,426651.3999999985,8075,yes,SM,A,102.bmp,120,120,157042,150948,159058,153041,430356.0,424329.0,432372.0,426341.0,27
3,0,0,1,0,25,test,1,0,m,Mon Jun 22 2026 09:56:18 GMT-0500 (Central Daylight Time),445725.09999999776,I,None,2016,28,3,103.bmp,-120,-120,104.bmp,120,-120,105.bmp,-120,120,106.bmp,120,120,10059.0,435666.09999999776,8075,no,SM,A,103.bmp,-120,120,157042,150948,159058,153041,439370.0,433343.0,441386.0,435355.0,28
2,0,1,0,0,26,test,1,1,z,Mon Jun 22 2026 09:56:18 GMT-0500 (Central Daylight Time),454988.799999997,I,z,1213,29,3,107.bmp,-120,-120,108.bmp,120,-120,109.bmp,-120,120,110.bmp,120,120,9259.89999999851,445728.8999999985,8075,yes,SM,A,108.bmp,120,-120,157042,150948,159058,153041,449433.0,443406.0,451449.0,445419.0,29
3,0,0,1,0,27,test,1,1,z,Mon Jun 22 2026 09:56:18 GMT-0500 (Central Daylight Time),464918.8999999985,I,z,1877,30,3,111.bmp,-120,-120,112.bmp,120,-120,113.bmp,-120,120,114.bmp,120,120,9926.89999999851,454992.0,8075,yes,SM,A,113.bmp,-120,120,157042,150948,159058,153041,458697.0,452669.0,460713.0,454683.0,30
1,1,0,0,0,28,test,1,1,z,Mon Jun 22 2026 09:56:18 GMT-0500 (Central Daylight Time),473982.69999999925,I,z,1002,31,3,115.bmp,-120,-120,116.bmp,120,-120,117.bmp,-120,120,118.bmp,120,120,9060.5,464922.19999999925,8075,yes,SM,A,115.bmp,-120,-120,157042,150948,159058,153041,468627.0,462599.0,470644.0,464612.0,31
2,0,1,0,0,29,test,1,1,m,Mon Jun 22 2026 09:56:18 GMT-0500 (Central Daylight Time),482913.5,I,m,882,32,3,119.bmp,-120,-120,120.bmp,120,-120,121.bmp,-120,120,122.bmp,120,120,8927.400000002235,473986.09999999776,8075,no,SM,A,119.bmp,120,-120,157042,150948,159058,153041,477691.0,471663.0,479708.0,473676.0,32
4,0,0,0,1,30,test,1,1,z,Mon Jun 22 2026 09:56:18 GMT-0500 (Central Daylight Time),492593.59999999776,I,z,1616,33,3,131.bmp,-120,-120,132.bmp,120,-120,133.bmp,-120,120,134.bmp,120,120,9676.800000000745,482916.799999997,8075,yes,SM,A,134.bmp,120,120,157042,150948,159058,153041,486622.0,480594.0,488638.0,482607.0,33
2,0,1,0,0,31,test,1,1,z,Mon Jun 22 2026 09:56:18 GMT-0500 (Central Daylight Time),501908.3999999985,I,z,1256,34,3,123.bmp,-120,-120,124.bmp,120,-120,125.bmp,-120,120,126.bmp,120,120,9311.300000000745,492597.09999999776,8075,yes,SM,A,124.bmp,120,-120,157042,150948,159058,153041,496302.0,490274.0,498318.0,492287.0,34
4,0,0,0,1,32,test,1,1,m,Mon Jun 22 2026 09:56:18 GMT-0500 (Central Daylight Time),511105.3999999985,I,m,1142,35,3,127.bmp,-120,-120,128.bmp,120,-120,129.bmp,-120,120,130.bmp,120,120,9193.199999999255,501912.19999999925,8075,no,SM,A,129.bmp,120,120,157042,150948,159058,153041,505616.0,499589.0,507632.0,501600.0,35
3,0,0,1,0,32,test,1,0,m,Mon Jun 22 2026 09:56:18 GMT-0500 (Central Daylight Time),521168.09999999776,I,None,2016,36,3,135.bmp,-120,-120,136.bmp,120,-120,137.bmp,-120,120,138.bmp,120,120,10059.099999997765,511109.0,8075,no,SM,A,135.bmp,-120,120,157042,150948,159058,153041,514813.0,508786.0,516829.0,510799.0,36
1,1,0,0,0,33,test,1,1,m,Mon Jun 22 2026 09:56:18 GMT-0500 (Central Daylight Time),530315.0,I,m,1089,37,3,139.bmp,-120,-120,140.bmp,120,-120,141.bmp,-120,120,142.bmp,120,120,9143.60000000149,521171.3999999985,8075,no,SM,A,140.bmp,-120,-120,157042,150948,159058,153041,524877.0,518849.0,526893.0,520861.0,37
2,0,1,0,0,34,test,1,1,m,Mon Jun 22 2026 09:56:18 GMT-0500 (Central Daylight Time),539612.1999999993,I,m,1188,38,3,143.bmp,-120,-120,144.bmp,120,-120,145.bmp,-120,120,146.bmp,120,120,9293.400000002235,530318.799999997,8075,no,SM,A,145.bmp,120,-120,157042,150948,159058,153041,534075.0,527997.0,536090.0,530069.0,38
4,0,0,0,1,35,test,1,1,z,Mon Jun 22 2026 09:56:18 GMT-0500 (Central Daylight Time),549192.6999999993,I,z,1533,39,3,147.bmp,-120,-120,148.bmp,120,-120,149.bmp,-120,120,150.bmp,120,120,9577.199999999255,539615.5,8075,yes,SM,A,150.bmp,120,120,157042,150948,159058,153041,543321.0,537293.0,545337.0,539306.0,39
3,0,0,1,0,36,test,1,1,m,Mon Jun 22 2026 09:56:18 GMT-0500 (Central Daylight Time),558156.5,I,m,905,40,3,104.bmp,-120,-120,105.bmp,120,-120,106.bmp,-120,120,107.bmp,120,120,8960.300000000745,549196.1999999993,8075,no,SM,A,105.bmp,-120,120,157042,150948,159058,153041,552901.0,546873.0,554917.0,548887.0,40
1,1,0,0,0,37,test,1,1,z,Mon Jun 22 2026 09:56:18 GMT-0500 (Central Daylight Time),567153.5,I,z,948,41,3,108.bmp,-120,-120,109.bmp,120,-120,110.bmp,-120,120,111.bmp,120,120,8993.60000000149,558159.8999999985,8075,yes,SM,A,108.bmp,-120,-120,157042,150948,159058,153041,561865.0,555837.0,563881.0,557850.0,41
4,0,0,0,1,38,test,1,1,z,Mon Jun 22 2026 09:56:18 GMT-0500 (Central Daylight Time),576550.5999999978,I,z,1336,42,3,112.bmp,-120,-120,113.bmp,120,-120,114.bmp,-120,120,115.bmp,120,120,9394.300000000745,567156.299999997,8075,yes,SM,A,115.bmp,120,120,157042,150948,159058,153041,570862.0,564834.0,572878.0,566847.0,42
1,1,0,0,0,39,test,1,1,z,Mon Jun 22 2026 09:56:18 GMT-0500 (Central Daylight Time),585764.1999999993,I,z,1163,43,3,116.bmp,-120,-120,117.bmp,120,-120,118.bmp,-120,120,119.bmp,120,120,9210.300000000745,576553.8999999985,8075,yes,SM,A,116.bmp,-120,-120,157042,150948,159058,153041,580259.0,574231.0,582275.0,576244.0,43
4,0,0,0,1,40,test,1,1,m,Mon Jun 22 2026 09:56:18 GMT-0500 (Central Daylight Time),594728.0999999978,I,m,900,44,3,104.bmp,-120,-120,101.bmp,120,-120,102.bmp,-120,120,103.bmp,120,120,8960.699999999255,585767.3999999985,8075,no,SM,A,104.bmp,120,120,157042,150948,159058,153041,589473.0,583445.0,591489.0,585458.0,44
1,1,0,0,0,41,test,1,1,m,Mon Jun 22 2026 09:56:18 GMT-0500 (Central Daylight Time),604158.799999997,I,m,1376,45,3,128.bmp,-120,-120,129.bmp,120,-120,130.bmp,-120,120,131.bmp,120,120,9426.89999999851,594731.8999999985,8075,no,SM,A,131.bmp,-120,-120,157042,150948,159058,153041,598437.0,592409.0,600453.0,594422.0,45
1,1,0,0,0,42,test,1,1,m,Mon Jun 22 2026 09:56:18 GMT-0500 (Central Daylight Time),613088.8999999985,I,m,883,46,3,120.bmp,-120,-120,121.bmp,120,-120,122.bmp,-120,120,123.bmp,120,120,8926.699999999255,604162.1999999993,8075,no,SM,A,121.bmp,-120,-120,157042,150948,159058,153041,607867.0,601839.0,609883.0,603852.0,46
3,0,0,1,0,43,test,1,1,z,Mon Jun 22 2026 09:56:18 GMT-0500 (Central Daylight Time),622869.1999999993,I,z,1719,47,3,124.bmp,-120,-120,125.bmp,120,-120,126.bmp,-120,120,127.bmp,120,120,9777.10000000149,613092.0999999978,8075,yes,SM,A,126.bmp,-120,120,157042,150948,159058,153041,616798.0,610769.0,618814.0,612783.0,47
3,0,0,1,0,44,test,1,1,z,Mon Jun 22 2026 09:56:18 GMT-0500 (Central Daylight Time),632316.3999999985,I,z,1387,48,3,140.bmp,-120,-120,141.bmp,120,-120,142.bmp,-120,120,143.bmp,120,120,9444.10000000149,622872.299999997,8075,yes,SM,A,142.bmp,-120,120,157042,150948,159058,153041,626578.0,620550.0,628594.0,622563.0,48
2,0,1,0,0,45,test,1,1,z,Mon Jun 22 2026 09:56:18 GMT-0500 (Central Daylight Time),641480.0,I,z,1109,49,3,136.bmp,-120,-120,137.bmp,120,-120,138.bmp,-120,120,139.bmp,120,120,9158.900000002235,632321.0999999978,8075,yes,SM,A,137.bmp,120,-120,157042,150948,159058,153041,636025.0,629998.0,638041.0,632011.0,49
3,0,0,1,0,45,test,1,0,m,Mon Jun 22 2026 09:56:18 GMT-0500 (Central Daylight Time),650694.0999999978,I,z,1153,50,3,132.bmp,-120,-120,133.bmp,120,-120,134.bmp,-120,120,135.bmp,120,120,9210.300000000745,641483.799999997,8075,no,SM,A,132.bmp,-120,120,157042,150948,159058,153041,645189.0,639161.0,647205.0,641174.0,50
2,0,1,0,0,46,test,1,1,z,Mon Jun 22 2026 09:56:18 GMT-0500 (Central Daylight Time),660174.299999997,I,z,1427,51,3,144.bmp,-120,-120,145.bmp,120,-120,146.bmp,-120,120,147.bmp,120,120,9476.699999999255,650697.5999999978,8075,yes,SM,A,145.bmp,120,-120,157042,150948,159058,153041,654402.0,648375.0,656419.0,650388.0,51
4,0,0,0,1,47,test,1,1,m,Mon Jun 22 2026 09:56:18 GMT-0500 (Central Daylight Time),669321.5,I,m,1091,52,3,148.bmp,-120,-120,149.bmp,120,-120,150.bmp,-120,120,131.bmp,120,120,9144.0,660177.5,8075,no,SM,A,148.bmp,120,120,157042,150948,159058,153041,663883.0,657855.0,665899.0,659868.0,52
3,0,0,1,0,48,test,1,1,z,Mon Jun 22 2026 09:56:18 GMT-0500 (Central Daylight Time),678652.0,I,z,1272,53,3,101.bmp,-120,-120,102.bmp,120,-120,103.bmp,-120,120,104.bmp,120,120,9326.400000002235,669325.5999999978,8075,yes,SM,A,103.bmp,-120,120,157042,150948,159058,153041,673030.0,667003.0,675046.0,669015.0,53
1,1,0,0,0,48,test,1,0,m,Mon Jun 22 2026 09:56:18 GMT-0500 (Central Daylight Time),688715.299999997,I,None,2014,54,3,105.bmp,-120,-120,106.bmp,120,-120,107.bmp,-120,120,108.bmp,120,120,10059.79999999702,678655.5,8075,no,SM,A,107.bmp,-120,-120,157042,150948,159058,153041,682360.0,676333.0,684378.0,678345.0,54
4,0,0,0,1,49,test,1,1,z,Mon Jun 22 2026 09:56:18 GMT-0500 (Central Daylight Time),697745.799999997,I,z,982,55,3,109.bmp,-120,-120,110.bmp,120,-120,111.bmp,-120,120,112.bmp,120,120,9027.0,688718.799999997,8075,yes,SM,A,112.bmp,120,120,157042,150948,159058,153041,692424.0,686396.0,694440.0,688409.0,55
2,0,1,0,0,50,test,1,1,m,Mon Jun 22 2026 09:56:18 GMT-0500 (Central Daylight Time),707009.5999999978,I,m,1200,56,3,113.bmp,-120,-120,114.bmp,120,-120,115.bmp,-120,120,116.bmp,120,120,9260.800000000745,697748.799999997,8075,no,SM,A,113.bmp,120,-120,157042,150948,159058,153041,701454.0,695426.0,703471.0,697439.0,56
4,0,0,0,1,51,test,1,1,m,Mon Jun 22 2026 09:56:18 GMT-0500 (Central Daylight Time),716389.8999999985,I,m,1320,57,3,117.bmp,-120,-120,118.bmp,120,-120,119.bmp,-120,120,120.bmp,120,120,9377.10000000149,707012.799999997,8075,no,SM,A,118.bmp,120,120,157042,150948,159058,153041,710718.0,704690.0,712734.0,706703.0,57
3,0,0,1,0,51,test,1,0,z,Mon Jun 22 2026 09:56:18 GMT-0500 (Central Daylight Time),726453.5,I,None,2015,58,3,121.bmp,-120,-120,122.bmp,120,-120,123.bmp,-120,120,124.bmp,120,120,10060.60000000149,716392.8999999985,8075,yes,SM,A,123.bmp,-120,120,157042,150948,159058,153041,720099.0,714070.0,722115.0,716083.0,58
2,0,1,0,0,51,test,1,0,m,Mon Jun 22 2026 09:56:18 GMT-0500 (Central Daylight Time),735600.5999999978,I,z,1099,59,3,125.bmp,-120,-120,126.bmp,120,-120,127.bmp,-120,120,128.bmp,120,120,9144.099999997765,726456.5,8075,no,SM,A,128.bmp,120,-120,157042,150948,159058,153041,730162.0,724134.0,732178.0,726147.0,59
1,1,0,0,0,52,test,1,1,z,Mon Jun 22 2026 09:56:18 GMT-0500 (Central Daylight Time),744764.3999999985,I,z,1113,60,3,129.bmp,-120,-120,130.bmp,120,-120,131.bmp,-120,120,132.bmp,120,120,9160.800000000745,735603.5999999978,8075,yes,SM,A,129.bmp,-120,-120,157042,150948,159058,153041,739310.0,733281.0,741325.0,735294.0,60
2,0,1,0,0,53,test,1,1,z,Mon Jun 22 2026 09:56:18 GMT-0500 (Central Daylight Time),753861.5999999978,I,z,1045,61,3,133.bmp,-120,-120,134.bmp,120,-120,135.bmp,-120,120,136.bmp,120,120,9094.0,744767.5999999978,8075,yes,SM,A,134.bmp,120,-120,157042,150948,159058,153041,748473.0,742445.0,750489.0,744459.0,61
4,0,0,0,1,53,test,1,0,z,Mon Jun 22 2026 09:56:18 GMT-0500 (Central Daylight Time),763925.0,I,None,2015,62,3,141.bmp,-120,-120,142.bmp,120,-120,143.bmp,-120,120,144.bmp,120,120,10059.70000000298,753865.299999997,8075,yes,SM,A,144.bmp,120,120,157042,150948,159058,153041,757570.0,751543.0,759587.0,753555.0,62
1,1,0,0,0,54,test,1,1,m,Mon Jun 22 2026 09:56:18 GMT-0500 (Central Daylight Time),773922.0,I,m,1948,63,3,145.bmp,-120,-120,146.bmp,120,-120,147.bmp,-120,120,148.bmp,120,120,9994.0,763928.0,8075,no,SM,A,145.bmp,-120,120,157042,150948,159058,153041,767634.0,761605.0,769650.0,763619.0,63
2,0,1,0,0,55,test,1,1,z,Mon Jun 22 2026 09:56:18 GMT-0500 (Central Daylight Time),783053.0999999978,I,z,1071,64,3,149.bmp,-120,-120,150.bmp,120,-120,112.bmp,-120,120,101.bmp,120,120,9127.800000000745,773925.299999997,8075,yes,SM,A,150.bmp,120,-120,157042,150948,159058,153041,777631.0,771602.0,779647.0,773615.0,64
4,0,0,0,1,56,test,1,1,m,Mon Jun 22 2026 09:56:18 GMT-0500 (Central Daylight Time),792199.799999997,I,m,1092,65,3,102.bmp,-120,-120,103.bmp,120,-120,104.bmp,-120,120,105.bmp,120,120,9141.599999997765,783058.1999999993,8075,no,SM,A,104.bmp,120,120,157042,150948,159058,153041,786761.0,780735.0,788777.0,782746.0,65
3,0,0,1,0,57,test,1,1,m,Mon Jun 22 2026 09:56:18 GMT-0500 (Central Daylight Time),801280.0,I,m,1025,66,3,106.bmp,-120,-120,107.bmp,120,-120,108.bmp,-120,120,109.bmp,120,120,9077.20000000298,792202.799999997,8075,no,SM,A,109.bmp,-120,120,157042,150948,159058,153041,795908.0,789880.0,797924.0,791893.0,66
2,0,1,0,0,58,test,1,1,m,Mon Jun 22 2026 09:56:18 GMT-0500 (Central Daylight Time),810310.3999999985,I,m,975,67,3,137.bmp,-120,-120,138.bmp,120,-120,139.bmp,-120,120,140.bmp,120,120,9026.39999999851,801284.0,8075,no,SM,A,139.bmp,120,-120,157042,150948,159058,153041,804989.0,798961.0,807006.0,800973.0,67
3,0,0,1,0,59,test,1,1,z,Mon Jun 22 2026 09:56:18 GMT-0500 (Central Daylight Time),819457.6999999993,I,z,1091,68,3,110.bmp,-120,-120,111.bmp,120,-120,112.bmp,-120,120,113.bmp,120,120,9144.10000000149,810313.5999999978,8075,yes,SM,A,112.bmp,-120,120,157042,150948,159058,153041,814019.0,807991.0,816035.0,810005.0,68
1,1,0,0,0,60,test,1,1,m,Mon Jun 22 2026 09:56:18 GMT-0500 (Central Daylight Time),828471.799999997,I,m,950,69,3,114.bmp,-120,-120,115.bmp,120,-120,116.bmp,-120,120,117.bmp,120,120,9010.699999999255,819461.0999999978,8075,no,SM,A,115.bmp,-120,-120,157042,150948,159058,153041,823166.0,817138.0,825183.0,819151.0,69
2,0,1,0,0,61,test,1,1,m,Mon Jun 22 2026 09:56:18 GMT-0500 (Central Daylight Time),837452.1999999993,I,m,930,70,3,118.bmp,-120,-120,119.bmp,120,-120,120.bmp,-120,120,121.bmp,120,120,8977.0,828475.1999999993,8075,no,SM,A,120.bmp,120,-120,157042,150948,159058,153041,832180.0,826153.0,834196.0,828165.0,70
4,0,0,0,1,62,test,1,1,z,Mon Jun 22 2026 09:56:18 GMT-0500 (Central Daylight Time),846765.8999999985,I,z,1261,71,3,122.bmp,-120,-120,123.bmp,120,-120,124.bmp,-120,120,125.bmp,120,120,9310.199999999255,837455.6999999993,8075,yes,SM,A,125.bmp,120,120,157042,150948,159058,153041,841161.0,835133.0,843177.0,837146.0,71
1,1,0,0,0,63,test,1,1,z,Mon Jun 22 2026 09:56:18 GMT-0500 (Central Daylight Time),855729.799999997,I,z,907,72,3,126.bmp,-120,-120,127.bmp,120,-120,128.bmp,-120,120,129.bmp,120,120,8960.89999999851,846768.8999999985,8075,yes,SM,A,126.bmp,-120,-120,157042,150948,159058,153041,850474.0,844446.0,852491.0,846459.0,72
2,0,1,0,0,64,test,1,1,z,Mon Jun 22 2026 09:56:18 GMT-0500 (Central Daylight Time),865110.0999999978,I,z,1320,73,3,130.bmp,-120,-120,131.bmp,120,-120,132.bmp,-120,120,133.bmp,120,120,9377.0,855733.0999999978,8075,yes,SM,A,131.bmp,120,-120,157042,150948,159058,153041,859438.0,853410.0,861454.0,855423.0,73
4,0,0,0,1,65,test,1,1,m,Mon Jun 22 2026 09:56:18 GMT-0500 (Central Daylight Time),874140.799999997,I,m,979,74,3,134.bmp,-120,-120,135.bmp,120,-120,136.bmp,-120,120,137.bmp,120,120,9027.0,865113.799999997,8075,no,SM,A,136.bmp,120,120,157042,150948,159058,153041,868819.0,862791.0,870835.0,864804.0,74
2,0,1,0,0,65,test,1,0,m,Mon Jun 22 2026 09:56:18 GMT-0500 (Central Daylight Time),883937.5,I,z,1732,75,3,138.bmp,-120,-120,139.bmp,120,-120,140.bmp,-120,120,141.bmp,120,120,9792.800000000745,874144.6999999993,8075,no,SM,A,141.bmp,120,-120,157042,150948,159058,153041,877849.0,871822.0,879866.0,873834.0,75
1,1,0,0,0,66,test,1,1,z,Mon Jun 22 2026 09:56:18 GMT-0500 (Central Daylight Time),892968.0999999978,I,z,975,76,3,142.bmp,-120,-120,143.bmp,120,-120,144.bmp,-120,120,145.bmp,120,120,9027.300000000745,883940.799999997,8075,yes,SM,A,142.bmp,-120,-120,157042,150948,159058,153041,887646.0,881618.0,889662.0,883631.0,76
3,0,0,1,0,67,test,1,1,z,Mon Jun 22 2026 09:56:18 GMT-0500 (Central Daylight Time),902065.299999997,I,z,1041,77,3,150.bmp,-120,-120,111.bmp,120,-120,101.bmp,-120,120,102.bmp,120,120,9093.599999997765,892971.6999999993,8075,yes,SM,A,101.bmp,-120,120,157042,150948,159058,153041,896676.0,890649.0,898693.0,892662.0,77
1,1,0,0,0,68,test,1,1,m,Mon Jun 22 2026 09:56:18 GMT-0500 (Central Daylight Time),911079.0999999978,I,m,952,78,3,146.bmp,-120,-120,147.bmp,120,-120,148.bmp,-120,120,149.bmp,120,120,9010.199999999255,902068.8999999985,8075,no,SM,A,147.bmp,-120,-120,157042,150948,159058,153041,905774.0,899746.0,907790.0,901758.0,78
4,0,0,0,1,69,test,1,1,m,Mon Jun 22 2026 09:56:18 GMT-0500 (Central Daylight Time),920076.1999999993,I,m,938,79,3,107.bmp,-120,-120,108.bmp,120,-120,109.bmp,-120,120,110.bmp,120,120,8991.800000000745,911084.3999999985,8075,no,SM,A,107.bmp,120,120,157042,150948,159058,153041,914788.0,908762.0,916804.0,910772.0,79
3,0,0,1,0,70,test,1,1,m,Mon Jun 22 2026 09:56:18 GMT-0500 (Central Daylight Time),929423.299999997,I,m,1285,80,3,103.bmp,-120,-120,104.bmp,120,-120,105.bmp,-120,120,106.bmp,120,120,9343.39999999851,920079.8999999985,8075,no,SM,A,106.bmp,-120,120,157042,150948,159058,153041,923785.0,917757.0,925801.0,919771.0,80
