acc_sum,block,block_c,block_cond,con_img,correct,correct_response,datetime,endtime,face,jitter,line,project,response,response_time,row_sel,session_number,start_end,starttime,subject_id,task,task_vers,trial
1,prac,1,A,haborder.png,1,m,Thu Mar 12 2026 10:21:54 GMT-0500 (Central Daylight Time),76514.80000001192,CFD-WM-011-006-HC.jpg,1400,solid,O,m,825,7,1,3013.0,73501.80000001192,7769,ATS,B,1
2,prac,1,A,haborder.png,1,z,Thu Mar 12 2026 10:21:54 GMT-0500 (Central Daylight Time),79116.80000001192,CFD-BF-051-043-A.jpg,1000,solid,O,z,801,4,1,5615.0,73501.80000001192,7769,ATS,B,2
3,prac,1,A,haborder.png,1,m,Thu Mar 12 2026 10:21:54 GMT-0500 (Central Daylight Time),82916.69999998808,CFD-BF-035-007-HC.jpg,2000,solid,O,m,1026,5,1,9414.899999976158,73501.80000001192,7769,ATS,B,3
4,prac,1,A,haborder.png,1,z,Thu Mar 12 2026 10:21:54 GMT-0500 (Central Daylight Time),85631.5,CFD-BF-050-012-A.jpg,1200,solid,O,z,723,6,1,12129.699999988079,73501.80000001192,7769,ATS,B,4
5,prac,1,A,haborder.png,1,z,Thu Mar 12 2026 10:21:54 GMT-0500 (Central Daylight Time),89280.69999998808,CFD-WM-009-009-A.jpg,1900,solid,O,z,965,8,1,15778.899999976158,73501.80000001192,7769,ATS,B,5
6,prac,1,A,haborder.png,1,m,Thu Mar 12 2026 10:21:54 GMT-0500 (Central Daylight Time),92446.0,CFD-WF-011-006-HC.jpg,1500,solid,O,m,875,11,1,18944.19999998808,73501.80000001192,7769,ATS,B,6
7,prac,1,A,haborder.png,1,z,Thu Mar 12 2026 10:21:54 GMT-0500 (Central Daylight Time),95396.30000001192,CFD-WF-013-015-A.jpg,1000,solid,O,z,1150,12,1,21894.5,73501.80000001192,7769,ATS,B,7
8,prac,1,A,haborder.png,1,z,Thu Mar 12 2026 10:21:54 GMT-0500 (Central Daylight Time),98678.30000001192,CFD-BM-037-041-A.jpg,1600,solid,O,z,907,2,1,25176.5,73501.80000001192,7769,ATS,B,8
9,prac,1,A,haborder.png,1,m,Thu Mar 12 2026 10:21:54 GMT-0500 (Central Daylight Time),102027.40000000596,CFD-WM-012-007-HC.jpg,1700,solid,O,m,869,9,1,28525.59999999404,73501.80000001192,7769,ATS,B,9
10,prac,1,A,haborder.png,1,z,Thu Mar 12 2026 10:21:54 GMT-0500 (Central Daylight Time),105210.30000001192,CFD-WF-026-008-A.jpg,1600,solid,O,z,800,10,1,31708.5,73501.80000001192,7769,ATS,B,10
11,prac,1,A,haborder.png,1,m,Thu Mar 12 2026 10:21:54 GMT-0500 (Central Daylight Time),108641.09999999404,CFD-BM-015-017-HC.jpg,1700,solid,O,m,946,1,1,35139.29999998212,73501.80000001192,7769,ATS,B,11
12,prac,1,A,haborder.png,1,m,Thu Mar 12 2026 10:21:54 GMT-0500 (Central Daylight Time),111641.0,CFD-BM-020-024-HC.jpg,1500,solid,O,m,730,3,1,38139.19999998808,73501.80000001192,7769,ATS,B,12
0,prac,1,B,mfborder.png,0,m,Thu Mar 12 2026 10:21:54 GMT-0500 (Central Daylight Time),152661.5,CFD-WM-037-060-A.jpg,1200,dash,O,None,1516,6,1,3500.300000011921,149161.19999998808,7769,ATS,B,1
1,prac,1,B,mfborder.png,1,z,Thu Mar 12 2026 10:21:54 GMT-0500 (Central Daylight Time),155776.59999999404,CFD-BF-027-013-HC.jpg,1500,dash,O,z,832,3,1,6615.4000000059605,149161.19999998808,7769,ATS,B,2
2,prac,1,B,mfborder.png,1,z,Thu Mar 12 2026 10:21:54 GMT-0500 (Central Daylight Time),159425.59999999404,CFD-WF-026-008-A.jpg,1500,dash,O,z,1358,11,1,10264.40000000596,149161.19999998808,7769,ATS,B,3
3,prac,1,B,mfborder.png,1,m,Thu Mar 12 2026 10:21:54 GMT-0500 (Central Daylight Time),162723.59999999404,CFD-BM-020-024-HC.jpg,1700,dash,O,m,802,1,1,13562.40000000596,149161.19999998808,7769,ATS,B,4
4,prac,1,B,mfborder.png,1,m,Thu Mar 12 2026 10:21:54 GMT-0500 (Central Daylight Time),166622.5,CFD-BM-037-041-A.jpg,2000,dash,O,m,1108,5,1,17461.30000001192,149161.19999998808,7769,ATS,B,5
5,prac,1,B,mfborder.png,1,z,Thu Mar 12 2026 10:21:54 GMT-0500 (Central Daylight Time),170138.5,CFD-WF-027-007-HC.jpg,1900,dash,O,z,831,8,1,20977.30000001192,149161.19999998808,7769,ATS,B,6
6,prac,1,B,mfborder.png,1,m,Thu Mar 12 2026 10:21:54 GMT-0500 (Central Daylight Time),173321.40000000596,CFD-WM-009-009-A.jpg,1700,dash,O,m,696,9,1,24160.20000001788,149161.19999998808,7769,ATS,B,7
7,prac,1,B,mfborder.png,1,m,Thu Mar 12 2026 10:21:54 GMT-0500 (Central Daylight Time),176802.80000001192,CFD-BM-041-048-A.jpg,1600,dash,O,m,1085,2,1,27641.600000023842,149161.19999998808,7769,ATS,B,8
8,prac,1,B,mfborder.png,1,z,Thu Mar 12 2026 10:21:54 GMT-0500 (Central Daylight Time),179402.5,CFD-BF-051-043-A.jpg,1000,dash,O,z,829,4,1,30241.30000001192,149161.19999998808,7769,ATS,B,9
9,prac,1,B,mfborder.png,1,m,Thu Mar 12 2026 10:21:54 GMT-0500 (Central Daylight Time),182633.69999998808,CFD-WM-012-007-HC.jpg,1600,dash,O,m,837,10,1,33472.5,149161.19999998808,7769,ATS,B,10
10,prac,1,B,mfborder.png,1,z,Thu Mar 12 2026 10:21:54 GMT-0500 (Central Daylight Time),185301.09999999404,CFD-WF-011-006-HC.jpg,1000,dash,O,z,867,12,1,36139.90000000596,149161.19999998808,7769,ATS,B,11
10,prac,1,B,mfborder.png,0,z,Thu Mar 12 2026 10:21:54 GMT-0500 (Central Daylight Time),188835.0,CFD-BF-035-007-HC.jpg,1400,dash,O,m,1332,7,1,39673.80000001192,149161.19999998808,7769,ATS,B,12
1,test,1,A,haborder.png,1,z,Thu Mar 12 2026 10:21:54 GMT-0500 (Central Daylight Time),245880.5,CFD-WF-026-008-A.jpg,1600,solid,O,z,1032,10,1,2666.5,243214.0,7769,ATS,B,1
2,test,1,A,haborder.png,1,z,Thu Mar 12 2026 10:21:54 GMT-0500 (Central Daylight Time),247732.0,CFD-WF-013-015-A.jpg,1000,solid,O,z,817,12,1,4518.0,243214.0,7769,ATS,B,2
3,test,1,A,haborder.png,1,m,Thu Mar 12 2026 10:21:54 GMT-0500 (Central Daylight Time),249746.40000000596,CFD-WM-011-006-HC.jpg,1400,solid,O,m,589,7,1,6532.4000000059605,243214.0,7769,ATS,B,3
4,test,1,A,haborder.png,1,m,Thu Mar 12 2026 10:21:54 GMT-0500 (Central Daylight Time),251930.19999998808,CFD-WF-011-006-HC.jpg,1500,solid,O,m,668,11,1,8716.199999988079,243214.0,7769,ATS,B,4
5,test,1,A,haborder.png,1,z,Thu Mar 12 2026 10:21:54 GMT-0500 (Central Daylight Time),253694.90000000596,CFD-BF-051-043-A.jpg,1000,solid,O,z,734,4,1,10480.90000000596,243214.0,7769,ATS,B,5
6,test,1,A,haborder.png,1,z,Thu Mar 12 2026 10:21:54 GMT-0500 (Central Daylight Time),256411.40000000596,CFD-BF-050-012-A.jpg,1200,solid,O,z,1499,6,1,13197.40000000596,243214.0,7769,ATS,B,6
7,test,1,A,haborder.png,1,m,Thu Mar 12 2026 10:21:54 GMT-0500 (Central Daylight Time),259143.30000001192,CFD-WF-011-006-HC.jpg,1500,solid,O,m,1210,11,1,15929.300000011921,243214.0,7769,ATS,B,7
8,test,1,A,haborder.png,1,m,Thu Mar 12 2026 10:21:54 GMT-0500 (Central Daylight Time),261691.09999999404,CFD-WM-012-007-HC.jpg,1700,solid,O,m,827,9,1,18477.09999999404,243214.0,7769,ATS,B,8
8,test,1,A,haborder.png,0,z,Thu Mar 12 2026 10:21:54 GMT-0500 (Central Daylight Time),264826.3000000119,CFD-BM-037-041-A.jpg,1600,solid,O,None,1517,2,1,21612.30000001192,243214.0,7769,ATS,B,9
9,test,1,A,haborder.png,1,z,Thu Mar 12 2026 10:21:54 GMT-0500 (Central Daylight Time),268006.6999999881,CFD-WM-009-009-A.jpg,1900,solid,O,z,1249,8,1,24792.69999998808,243214.0,7769,ATS,B,10
10,test,1,A,haborder.png,1,m,Thu Mar 12 2026 10:21:54 GMT-0500 (Central Daylight Time),271072.90000000596,CFD-WM-012-007-HC.jpg,1700,solid,O,m,1332,9,1,27858.90000000596,243214.0,7769,ATS,B,11
10,test,1,A,haborder.png,0,m,Thu Mar 12 2026 10:21:54 GMT-0500 (Central Daylight Time),274605.59999999404,CFD-BF-035-007-HC.jpg,2000,solid,O,None,1517,5,1,31391.59999999404,243214.0,7769,ATS,B,12
10,test,1,A,haborder.png,0,z,Thu Mar 12 2026 10:21:54 GMT-0500 (Central Daylight Time),277737.3000000119,CFD-BM-037-041-A.jpg,1600,solid,O,None,1515,2,1,34523.30000001192,243214.0,7769,ATS,B,13
10,test,1,A,haborder.png,0,m,Thu Mar 12 2026 10:21:54 GMT-0500 (Central Daylight Time),280969.8000000119,CFD-BM-015-017-HC.jpg,1700,solid,O,None,1516,1,1,37755.80000001192,243214.0,7769,ATS,B,14
11,test,1,A,haborder.png,1,m,Thu Mar 12 2026 10:21:54 GMT-0500 (Central Daylight Time),283268.09999999404,CFD-WM-011-006-HC.jpg,1400,solid,O,m,878,7,1,40054.09999999404,243214.0,7769,ATS,B,15
12,test,1,A,haborder.png,1,m,Thu Mar 12 2026 10:21:54 GMT-0500 (Central Daylight Time),286117.90000000596,CFD-BM-015-017-HC.jpg,1700,solid,O,m,1119,1,1,42903.90000000596,243214.0,7769,ATS,B,16
13,test,1,A,haborder.png,1,z,Thu Mar 12 2026 10:21:54 GMT-0500 (Central Daylight Time),288683.3000000119,CFD-WF-026-008-A.jpg,1600,solid,O,z,937,10,1,45469.30000001192,243214.0,7769,ATS,B,17
14,test,1,A,haborder.png,1,z,Thu Mar 12 2026 10:21:54 GMT-0500 (Central Daylight Time),291165.90000000596,CFD-BF-051-043-A.jpg,1000,solid,O,z,1459,4,1,47951.90000000596,243214.0,7769,ATS,B,18
15,test,1,A,haborder.png,1,z,Thu Mar 12 2026 10:21:54 GMT-0500 (Central Daylight Time),294381.90000000596,CFD-WM-009-009-A.jpg,1900,solid,O,z,1284,8,1,51167.90000000596,243214.0,7769,ATS,B,19
16,test,1,A,haborder.png,1,z,Thu Mar 12 2026 10:21:54 GMT-0500 (Central Daylight Time),296680.8000000119,CFD-BF-050-012-A.jpg,1200,solid,O,z,1075,6,1,53466.80000001192,243214.0,7769,ATS,B,20
17,test,1,A,haborder.png,1,z,Thu Mar 12 2026 10:21:54 GMT-0500 (Central Daylight Time),298914.90000000596,CFD-WF-013-015-A.jpg,1000,solid,O,z,1217,12,1,55700.90000000596,243214.0,7769,ATS,B,21
18,test,1,A,haborder.png,1,m,Thu Mar 12 2026 10:21:54 GMT-0500 (Central Daylight Time),302096.5,CFD-BF-035-007-HC.jpg,2000,solid,O,m,1150,5,1,58882.5,243214.0,7769,ATS,B,22
19,test,1,A,haborder.png,1,m,Thu Mar 12 2026 10:21:54 GMT-0500 (Central Daylight Time),304346.09999999404,CFD-BM-020-024-HC.jpg,1500,solid,O,m,724,3,1,61132.09999999404,243214.0,7769,ATS,B,23
20,test,1,A,haborder.png,1,m,Thu Mar 12 2026 10:21:54 GMT-0500 (Central Daylight Time),306494.90000000596,CFD-BM-020-024-HC.jpg,1500,solid,O,m,617,3,1,63280.90000000596,243214.0,7769,ATS,B,24
1,test,1,B,mfborder.png,1,z,Thu Mar 12 2026 10:21:54 GMT-0500 (Central Daylight Time),332520.1999999881,CFD-WF-026-008-A.jpg,1500,dash,O,z,1391,11,1,2916.5,329603.6999999881,7769,ATS,B,1
2,test,1,B,mfborder.png,1,m,Thu Mar 12 2026 10:21:54 GMT-0500 (Central Daylight Time),335451.59999999404,CFD-BM-037-041-A.jpg,2000,dash,O,m,906,5,1,5847.9000000059605,329603.6999999881,7769,ATS,B,2
3,test,1,B,mfborder.png,1,m,Thu Mar 12 2026 10:21:54 GMT-0500 (Central Daylight Time),338234.40000000596,CFD-BM-020-024-HC.jpg,1700,dash,O,m,1054,1,1,8630.700000017881,329603.6999999881,7769,ATS,B,3
4,test,1,B,mfborder.png,1,m,Thu Mar 12 2026 10:21:54 GMT-0500 (Central Daylight Time),340849.5,CFD-WM-009-009-A.jpg,1700,dash,O,m,888,9,1,11245.800000011921,329603.6999999881,7769,ATS,B,4
5,test,1,B,mfborder.png,1,z,Thu Mar 12 2026 10:21:54 GMT-0500 (Central Daylight Time),343049.8000000119,CFD-BF-051-043-A.jpg,1000,dash,O,z,1180,4,1,13446.100000023842,329603.6999999881,7769,ATS,B,5
5,test,1,B,mfborder.png,0,z,Thu Mar 12 2026 10:21:54 GMT-0500 (Central Daylight Time),346081.6999999881,CFD-WF-026-008-A.jpg,1500,dash,O,None,1515,11,1,16478.0,329603.6999999881,7769,ATS,B,6
5,test,1,B,mfborder.png,0,z,Thu Mar 12 2026 10:21:54 GMT-0500 (Central Daylight Time),349100.09999999404,CFD-BF-027-013-HC.jpg,1500,dash,O,None,1501,3,1,19496.40000000596,329603.6999999881,7769,ATS,B,7
6,test,1,B,mfborder.png,1,z,Thu Mar 12 2026 10:21:54 GMT-0500 (Central Daylight Time),350929.8000000119,CFD-WF-011-006-HC.jpg,1000,dash,O,z,814,12,1,21326.100000023842,329603.6999999881,7769,ATS,B,8
7,test,1,B,mfborder.png,1,m,Thu Mar 12 2026 10:21:54 GMT-0500 (Central Daylight Time),353263.1999999881,CFD-WM-012-007-HC.jpg,1600,dash,O,m,708,10,1,23659.5,329603.6999999881,7769,ATS,B,9
8,test,1,B,mfborder.png,1,z,Thu Mar 12 2026 10:21:54 GMT-0500 (Central Daylight Time),356011.90000000596,CFD-WF-027-007-HC.jpg,1900,dash,O,z,829,8,1,26408.20000001788,329603.6999999881,7769,ATS,B,10
9,test,1,B,mfborder.png,1,z,Thu Mar 12 2026 10:21:54 GMT-0500 (Central Daylight Time),358743.59999999404,CFD-BF-027-013-HC.jpg,1500,dash,O,z,1208,3,1,29139.90000000596,329603.6999999881,7769,ATS,B,11
10,test,1,B,mfborder.png,1,z,Thu Mar 12 2026 10:21:54 GMT-0500 (Central Daylight Time),361375.59999999404,CFD-WF-027-007-HC.jpg,1900,dash,O,z,698,8,1,31771.90000000596,329603.6999999881,7769,ATS,B,12
11,test,1,B,mfborder.png,1,m,Thu Mar 12 2026 10:21:54 GMT-0500 (Central Daylight Time),363860.8000000119,CFD-WM-037-060-A.jpg,1200,dash,O,m,1266,6,1,34257.10000002384,329603.6999999881,7769,ATS,B,13
12,test,1,B,mfborder.png,1,z,Thu Mar 12 2026 10:21:54 GMT-0500 (Central Daylight Time),366690.90000000596,CFD-BF-035-007-HC.jpg,1400,dash,O,z,1411,7,1,37087.20000001788,329603.6999999881,7769,ATS,B,14
13,test,1,B,mfborder.png,1,m,Thu Mar 12 2026 10:21:54 GMT-0500 (Central Daylight Time),369575.6999999881,CFD-BM-041-048-A.jpg,1600,dash,O,m,1250,2,1,39972.0,329603.6999999881,7769,ATS,B,15
14,test,1,B,mfborder.png,1,m,Thu Mar 12 2026 10:21:54 GMT-0500 (Central Daylight Time),372590.40000000596,CFD-WM-012-007-HC.jpg,1600,dash,O,m,1393,10,1,42986.70000001788,329603.6999999881,7769,ATS,B,16
14,test,1,B,mfborder.png,0,m,Thu Mar 12 2026 10:21:54 GMT-0500 (Central Daylight Time),375322.8000000119,CFD-WM-037-060-A.jpg,1200,dash,O,None,1515,6,1,45719.10000002384,329603.6999999881,7769,ATS,B,17
15,test,1,B,mfborder.png,1,z,Thu Mar 12 2026 10:21:54 GMT-0500 (Central Daylight Time),377571.6999999881,CFD-WF-011-006-HC.jpg,1000,dash,O,z,1221,12,1,47968.0,329603.6999999881,7769,ATS,B,18
16,test,1,B,mfborder.png,1,z,Thu Mar 12 2026 10:21:54 GMT-0500 (Central Daylight Time),379620.6999999881,CFD-BF-051-043-A.jpg,1000,dash,O,z,1028,4,1,50017.0,329603.6999999881,7769,ATS,B,19
17,test,1,B,mfborder.png,1,m,Thu Mar 12 2026 10:21:54 GMT-0500 (Central Daylight Time),382720.8000000119,CFD-BM-037-041-A.jpg,2000,dash,O,m,1074,5,1,53117.10000002384,329603.6999999881,7769,ATS,B,20
17,test,1,B,mfborder.png,0,m,Thu Mar 12 2026 10:21:54 GMT-0500 (Central Daylight Time),385953.0,CFD-WM-009-009-A.jpg,1700,dash,O,None,1515,9,1,56349.30000001192,329603.6999999881,7769,ATS,B,21
18,test,1,B,mfborder.png,1,m,Thu Mar 12 2026 10:21:54 GMT-0500 (Central Daylight Time),388385.8000000119,CFD-BM-041-048-A.jpg,1600,dash,O,m,814,2,1,58782.10000002384,329603.6999999881,7769,ATS,B,22
19,test,1,B,mfborder.png,1,m,Thu Mar 12 2026 10:21:54 GMT-0500 (Central Daylight Time),391050.59999999404,CFD-BM-020-024-HC.jpg,1700,dash,O,m,945,1,1,61446.90000000596,329603.6999999881,7769,ATS,B,23
20,test,1,B,mfborder.png,1,z,Thu Mar 12 2026 10:21:54 GMT-0500 (Central Daylight Time),393951.3000000119,CFD-BF-035-007-HC.jpg,1400,dash,O,z,1469,7,1,64347.60000002384,329603.6999999881,7769,ATS,B,24
0,12,1,C,haborder.png,0,m,Thu Mar 12 2026 10:21:54 GMT-0500 (Central Daylight Time),440468.40000000596,CFD-WM-011-006-HC.jpg,1400,solid,O,None,1515,prac,1,3697.5,436770.90000000596,7769,ATS,B,1
1,11,1,C,haborder.png,1,m,Thu Mar 12 2026 10:21:54 GMT-0500 (Central Daylight Time),443617.6999999881,CFD-WM-011-006-HC.jpg,1000,dash,O,m,1363,prac,1,6846.799999982119,436770.90000000596,7769,ATS,B,2
1,5,1,C,mfborder.png,0,m,Thu Mar 12 2026 10:21:54 GMT-0500 (Central Daylight Time),447116.5,CFD-BM-037-041-A.jpg,1200,dash,O,None,1516,prac,1,10345.59999999404,436770.90000000596,7769,ATS,B,3
1,10,1,C,haborder.png,0,m,Thu Mar 12 2026 10:21:54 GMT-0500 (Central Daylight Time),450914.90000000596,CFD-BM-020-024-HC.jpg,1500,solid,O,None,1516,prac,1,14144.0,436770.90000000596,7769,ATS,B,4
2,6,1,C,mfborder.png,1,m,Thu Mar 12 2026 10:21:54 GMT-0500 (Central Daylight Time),454097.1999999881,CFD-WM-009-009-A.jpg,1700,solid,O,m,698,prac,1,17326.29999998212,436770.90000000596,7769,ATS,B,5
2,3,1,C,mfborder.png,0,z,Thu Mar 12 2026 10:21:54 GMT-0500 (Central Daylight Time),456946.5,CFD-BF-035-007-HC.jpg,1000,dash,O,m,1055,prac,1,20175.59999999404,436770.90000000596,7769,ATS,B,6
3,7,1,C,haborder.png,1,z,Thu Mar 12 2026 10:21:54 GMT-0500 (Central Daylight Time),461094.8000000119,CFD-BF-051-043-A.jpg,1900,dash,O,z,1480,prac,1,24323.90000000596,436770.90000000596,7769,ATS,B,7
4,4,1,C,mfborder.png,1,m,Thu Mar 12 2026 10:21:54 GMT-0500 (Central Daylight Time),464828.09999999404,CFD-BM-015-017-HC.jpg,2000,solid,O,m,943,prac,1,28057.19999998808,436770.90000000596,7769,ATS,B,8
5,1,1,C,mfborder.png,1,z,Thu Mar 12 2026 10:21:54 GMT-0500 (Central Daylight Time),468176.6999999881,CFD-WF-011-006-HC.jpg,1600,dash,O,z,957,prac,1,31405.79999998212,436770.90000000596,7769,ATS,B,9
6,2,1,C,mfborder.png,1,z,Thu Mar 12 2026 10:21:54 GMT-0500 (Central Daylight Time),471408.40000000596,CFD-WF-013-015-A.jpg,1500,solid,O,z,938,prac,1,34637.5,436770.90000000596,7769,ATS,B,10
7,8,1,C,haborder.png,1,z,Thu Mar 12 2026 10:21:54 GMT-0500 (Central Daylight Time),474858.6999999881,CFD-BF-050-012-A.jpg,1700,solid,O,z,971,prac,1,38087.79999998212,436770.90000000596,7769,ATS,B,11
8,9,1,C,haborder.png,1,z,Thu Mar 12 2026 10:21:54 GMT-0500 (Central Daylight Time),478358.1999999881,CFD-WF-026-008-A.jpg,1600,dash,O,z,1126,prac,1,41587.29999998212,436770.90000000596,7769,ATS,B,12
0,4,2,C,mfborder.png,0,m,Thu Mar 12 2026 10:21:54 GMT-0500 (Central Daylight Time),506980.8000000119,CFD-BM-015-017-HC.jpg,2000,solid,O,None,1515,prac,1,70209.90000000596,436770.90000000596,7769,ATS,B,1
0,2,2,C,mfborder.png,0,z,Thu Mar 12 2026 10:21:54 GMT-0500 (Central Daylight Time),510780.0,CFD-WF-013-015-A.jpg,1500,solid,O,None,1515,prac,1,74009.09999999404,436770.90000000596,7769,ATS,B,2
1,8,2,C,haborder.png,1,z,Thu Mar 12 2026 10:21:54 GMT-0500 (Central Daylight Time),514578.1999999881,CFD-BF-050-012-A.jpg,1700,solid,O,z,1315,prac,1,77807.29999998212,436770.90000000596,7769,ATS,B,3
2,10,2,C,haborder.png,1,m,Thu Mar 12 2026 10:21:54 GMT-0500 (Central Daylight Time),518028.3000000119,CFD-BM-020-024-HC.jpg,1500,solid,O,m,1153,prac,1,81257.40000000596,436770.90000000596,7769,ATS,B,4
2,1,2,C,mfborder.png,0,z,Thu Mar 12 2026 10:21:54 GMT-0500 (Central Daylight Time),521909.6999999881,CFD-WF-011-006-HC.jpg,1600,dash,O,None,1501,prac,1,85138.79999998212,436770.90000000596,7769,ATS,B,5
2,5,2,C,mfborder.png,0,m,Thu Mar 12 2026 10:21:54 GMT-0500 (Central Daylight Time),525093.099999994,CFD-BM-037-041-A.jpg,1200,dash,O,z,1210,prac,1,88322.19999998808,436770.90000000596,7769,ATS,B,6
2,9,2,C,haborder.png,0,z,Thu Mar 12 2026 10:21:54 GMT-0500 (Central Daylight Time),528841.599999994,CFD-WF-026-008-A.jpg,1600,dash,O,m,1371,prac,1,92070.69999998808,436770.90000000596,7769,ATS,B,7
2,6,2,C,mfborder.png,0,m,Thu Mar 12 2026 10:21:54 GMT-0500 (Central Daylight Time),532839.5,CFD-WM-009-009-A.jpg,1700,solid,O,None,1515,prac,1,96068.59999999404,436770.90000000596,7769,ATS,B,8
2,3,2,C,mfborder.png,0,z,Thu Mar 12 2026 10:21:54 GMT-0500 (Central Daylight Time),536139.8000000119,CFD-BF-035-007-HC.jpg,1000,dash,O,None,1515,prac,1,99368.90000000596,436770.90000000596,7769,ATS,B,9
3,11,2,C,haborder.png,1,m,Thu Mar 12 2026 10:21:54 GMT-0500 (Central Daylight Time),538937.599999994,CFD-WM-011-006-HC.jpg,1000,dash,O,m,1013,prac,1,102166.69999998808,436770.90000000596,7769,ATS,B,10
3,7,2,C,haborder.png,0,z,Thu Mar 12 2026 10:21:54 GMT-0500 (Central Daylight Time),543136.400000006,CFD-BF-051-043-A.jpg,1900,dash,O,None,1516,prac,1,106365.5,436770.90000000596,7769,ATS,B,11
4,12,2,C,haborder.png,1,m,Thu Mar 12 2026 10:21:54 GMT-0500 (Central Daylight Time),546104.0,CFD-WM-011-006-HC.jpg,1400,solid,O,m,767,prac,1,109333.09999999404,436770.90000000596,7769,ATS,B,12
0,test,1,C,haborder.png,0,z,Thu Mar 12 2026 10:21:54 GMT-0500 (Central Daylight Time),586575.099999994,CFD-WM-009-009-A.jpg,1400,solid,O,None,1518,7,1,2935.5,583639.599999994,7769,ATS,B,1
0,test,1,C,haborder.png,0,z,Thu Mar 12 2026 10:21:54 GMT-0500 (Central Daylight Time),589988.8000000119,CFD-BM-037-041-A.jpg,1900,solid,O,None,1501,8,1,6349.200000017881,583639.599999994,7769,ATS,B,2
0,test,1,C,mfborder.png,0,z,Thu Mar 12 2026 10:21:54 GMT-0500 (Central Daylight Time),593220.5,CFD-BF-027-013-HC.jpg,1700,dash,O,None,1515,1,1,9580.90000000596,583639.599999994,7769,ATS,B,3
0,test,1,C,haborder.png,0,m,Thu Mar 12 2026 10:21:54 GMT-0500 (Central Daylight Time),595736.6999999881,CFD-WF-011-006-HC.jpg,1000,solid,O,None,1501,12,1,12097.09999999404,583639.599999994,7769,ATS,B,4
1,test,1,C,mfborder.png,1,z,Thu Mar 12 2026 10:21:54 GMT-0500 (Central Daylight Time),598901.8000000119,CFD-BF-027-013-HC.jpg,1700,dash,O,z,1444,1,1,15262.200000017881,583639.599999994,7769,ATS,B,5
2,test,1,C,mfborder.png,1,z,Thu Mar 12 2026 10:21:54 GMT-0500 (Central Daylight Time),601850.5,CFD-WF-026-008-A.jpg,1500,dash,O,z,1429,3,1,18210.90000000596,583639.599999994,7769,ATS,B,6
3,test,1,C,mfborder.png,1,m,Thu Mar 12 2026 10:21:54 GMT-0500 (Central Daylight Time),604334.099999994,CFD-WM-012-007-HC.jpg,1000,dash,O,m,1462,4,1,20694.5,583639.599999994,7769,ATS,B,7
3,test,1,C,mfborder.png,0,z,Thu Mar 12 2026 10:21:54 GMT-0500 (Central Daylight Time),607466.3000000119,CFD-BF-051-043-A.jpg,1600,dash,O,None,1515,2,1,23826.70000001788,583639.599999994,7769,ATS,B,8
3,test,1,C,haborder.png,0,z,Thu Mar 12 2026 10:21:54 GMT-0500 (Central Daylight Time),610699.6999999881,CFD-BM-041-048-A.jpg,1700,solid,O,None,1518,9,1,27060.09999999404,583639.599999994,7769,ATS,B,9
3,test,1,C,haborder.png,0,z,Thu Mar 12 2026 10:21:54 GMT-0500 (Central Daylight Time),613915.0,CFD-BM-041-048-A.jpg,1700,solid,O,None,1501,9,1,30275.40000000596,583639.599999994,7769,ATS,B,10
3,test,1,C,mfborder.png,0,m,Thu Mar 12 2026 10:21:54 GMT-0500 (Central Daylight Time),615965.099999994,CFD-WM-012-007-HC.jpg,1000,dash,O,z,1022,4,1,32325.5,583639.599999994,7769,ATS,B,11
4,test,1,C,mfborder.png,1,m,Thu Mar 12 2026 10:21:54 GMT-0500 (Central Daylight Time),618496.099999994,CFD-BM-020-024-HC.jpg,1200,dash,O,m,1301,6,1,34856.5,583639.599999994,7769,ATS,B,12
4,test,1,C,haborder.png,0,m,Thu Mar 12 2026 10:21:54 GMT-0500 (Central Daylight Time),621627.0,CFD-BF-035-007-HC.jpg,1600,solid,O,None,1515,10,1,37987.40000000596,583639.599999994,7769,ATS,B,13
4,test,1,C,mfborder.png,0,m,Thu Mar 12 2026 10:21:54 GMT-0500 (Central Daylight Time),624359.5,CFD-BM-020-024-HC.jpg,1200,dash,O,None,1515,6,1,40719.90000000596,583639.599999994,7769,ATS,B,14
4,test,1,C,mfborder.png,0,m,Thu Mar 12 2026 10:21:54 GMT-0500 (Central Daylight Time),627459.599999994,CFD-WM-037-060-A.jpg,2000,dash,O,z,1072,5,1,43820.0,583639.599999994,7769,ATS,B,15
4,test,1,C,haborder.png,0,m,Thu Mar 12 2026 10:21:54 GMT-0500 (Central Daylight Time),630591.3000000119,CFD-BF-035-007-HC.jpg,1600,solid,O,None,1514,10,1,46951.70000001788,583639.599999994,7769,ATS,B,16
5,test,1,C,haborder.png,1,m,Thu Mar 12 2026 10:21:54 GMT-0500 (Central Daylight Time),633606.900000006,CFD-WF-027-007-HC.jpg,1500,solid,O,m,1493,11,1,49967.30000001192,583639.599999994,7769,ATS,B,17
5,test,1,C,haborder.png,0,m,Thu Mar 12 2026 10:21:54 GMT-0500 (Central Daylight Time),636138.900000006,CFD-WF-011-006-HC.jpg,1000,solid,O,None,1514,12,1,52499.30000001192,583639.599999994,7769,ATS,B,18
6,test,1,C,haborder.png,1,z,Thu Mar 12 2026 10:21:54 GMT-0500 (Central Daylight Time),639389.400000006,CFD-BM-037-041-A.jpg,1900,solid,O,z,1316,8,1,55749.80000001192,583639.599999994,7769,ATS,B,19
7,test,1,C,mfborder.png,1,z,Thu Mar 12 2026 10:21:54 GMT-0500 (Central Daylight Time),642371.0,CFD-BF-051-043-A.jpg,1600,dash,O,z,1354,2,1,58731.40000000596,583639.599999994,7769,ATS,B,20
8,test,1,C,mfborder.png,1,z,Thu Mar 12 2026 10:21:54 GMT-0500 (Central Daylight Time),645119.5,CFD-WF-026-008-A.jpg,1500,dash,O,z,1224,3,1,61479.90000000596,583639.599999994,7769,ATS,B,21
8,test,1,C,haborder.png,0,z,Thu Mar 12 2026 10:21:54 GMT-0500 (Central Daylight Time),647987.400000006,CFD-WM-009-009-A.jpg,1400,solid,O,m,1451,7,1,64347.80000001192,583639.599999994,7769,ATS,B,22
9,test,1,C,mfborder.png,1,m,Thu Mar 12 2026 10:21:54 GMT-0500 (Central Daylight Time),651451.099999994,CFD-WM-037-060-A.jpg,2000,dash,O,m,1449,5,1,67811.5,583639.599999994,7769,ATS,B,23
9,test,1,C,haborder.png,0,m,Thu Mar 12 2026 10:21:54 GMT-0500 (Central Daylight Time),654485.5,CFD-WF-027-007-HC.jpg,1500,solid,O,None,1516,11,1,70845.90000000596,583639.599999994,7769,ATS,B,24
0,test,2,C,haborder.png,0,z,Thu Mar 12 2026 10:21:54 GMT-0500 (Central Daylight Time),663964.400000006,CFD-BF-051-043-A.jpg,1400,solid,O,None,1515,7,1,2931.9000000059605,661032.5,7769,ATS,B,1
0,test,2,C,mfborder.png,0,z,Thu Mar 12 2026 10:21:54 GMT-0500 (Central Daylight Time),667196.5,CFD-WF-011-006-HC.jpg,1700,dash,O,None,1515,1,1,6164.0,661032.5,7769,ATS,B,2
0,test,2,C,mfborder.png,0,m,Thu Mar 12 2026 10:21:54 GMT-0500 (Central Daylight Time),669928.599999994,CFD-WM-009-009-A.jpg,1200,dash,O,None,1516,6,1,8896.09999999404,661032.5,7769,ATS,B,3
1,test,2,C,haborder.png,1,m,Thu Mar 12 2026 10:21:54 GMT-0500 (Central Daylight Time),673045.3000000119,CFD-BM-020-024-HC.jpg,1600,solid,O,m,1486,10,1,12012.800000011921,661032.5,7769,ATS,B,4
2,test,2,C,haborder.png,1,m,Thu Mar 12 2026 10:21:54 GMT-0500 (Central Daylight Time),675560.099999994,CFD-BM-020-024-HC.jpg,1600,solid,O,m,883,10,1,14527.59999999404,661032.5,7769,ATS,B,5
3,test,2,C,haborder.png,1,m,Thu Mar 12 2026 10:21:54 GMT-0500 (Central Daylight Time),678009.099999994,CFD-WM-011-006-HC.jpg,1500,solid,O,m,931,11,1,16976.59999999404,661032.5,7769,ATS,B,6
3,test,2,C,mfborder.png,0,z,Thu Mar 12 2026 10:21:54 GMT-0500 (Central Daylight Time),681140.900000006,CFD-WF-013-015-A.jpg,1600,dash,O,None,1514,2,1,20108.40000000596,661032.5,7769,ATS,B,7
3,test,2,C,haborder.png,0,z,Thu Mar 12 2026 10:21:54 GMT-0500 (Central Daylight Time),684375.5,CFD-WF-026-008-A.jpg,1700,solid,O,None,1516,9,1,23343.0,661032.5,7769,ATS,B,8
3,test,2,C,mfborder.png,0,m,Thu Mar 12 2026 10:21:54 GMT-0500 (Central Daylight Time),687906.3000000119,CFD-BM-037-041-A.jpg,2000,dash,O,None,1514,5,1,26873.80000001192,661032.5,7769,ATS,B,9
3,test,2,C,mfborder.png,0,m,Thu Mar 12 2026 10:21:54 GMT-0500 (Central Daylight Time),690639.5,CFD-WM-009-009-A.jpg,1200,dash,O,None,1516,6,1,29607.0,661032.5,7769,ATS,B,10
3,test,2,C,haborder.png,0,z,Thu Mar 12 2026 10:21:54 GMT-0500 (Central Daylight Time),694071.099999994,CFD-BF-050-012-A.jpg,1900,solid,O,None,1516,8,1,33038.59999999404,661032.5,7769,ATS,B,11
4,test,2,C,haborder.png,1,m,Thu Mar 12 2026 10:21:54 GMT-0500 (Central Daylight Time),696136.900000006,CFD-WM-011-006-HC.jpg,1000,solid,O,m,1048,12,1,35104.40000000596,661032.5,7769,ATS,B,12
4,test,2,C,mfborder.png,0,m,Thu Mar 12 2026 10:21:54 GMT-0500 (Central Daylight Time),698670.599999994,CFD-BM-015-017-HC.jpg,1000,dash,O,None,1516,4,1,37638.09999999404,661032.5,7769,ATS,B,13
5,test,2,C,haborder.png,1,z,Thu Mar 12 2026 10:21:54 GMT-0500 (Central Daylight Time),701502.599999994,CFD-BF-051-043-A.jpg,1400,solid,O,z,1401,7,1,40470.09999999404,661032.5,7769,ATS,B,14
6,test,2,C,haborder.png,1,m,Thu Mar 12 2026 10:21:54 GMT-0500 (Central Daylight Time),703986.5,CFD-WM-011-006-HC.jpg,1500,solid,O,m,966,11,1,42954.0,661032.5,7769,ATS,B,15
6,test,2,C,mfborder.png,0,z,Thu Mar 12 2026 10:21:54 GMT-0500 (Central Daylight Time),707017.3000000119,CFD-BF-035-007-HC.jpg,1500,dash,O,None,1514,3,1,45984.80000001192,661032.5,7769,ATS,B,16
6,test,2,C,haborder.png,0,z,Thu Mar 12 2026 10:21:54 GMT-0500 (Central Daylight Time),710450.599999994,CFD-BF-050-012-A.jpg,1900,solid,O,None,1516,8,1,49418.09999999404,661032.5,7769,ATS,B,17
6,test,2,C,mfborder.png,0,z,Thu Mar 12 2026 10:21:54 GMT-0500 (Central Daylight Time),713582.900000006,CFD-WF-013-015-A.jpg,1600,dash,O,None,1516,2,1,52550.40000000596,661032.5,7769,ATS,B,18
7,test,2,C,mfborder.png,1,z,Thu Mar 12 2026 10:21:54 GMT-0500 (Central Daylight Time),716330.099999994,CFD-BF-035-007-HC.jpg,1500,dash,O,z,1229,3,1,55297.59999999404,661032.5,7769,ATS,B,19
7,test,2,C,mfborder.png,0,m,Thu Mar 12 2026 10:21:54 GMT-0500 (Central Daylight Time),718863.5,CFD-BM-015-017-HC.jpg,1000,dash,O,None,1516,4,1,57831.0,661032.5,7769,ATS,B,20
8,test,2,C,haborder.png,1,m,Thu Mar 12 2026 10:21:54 GMT-0500 (Central Daylight Time),721062.599999994,CFD-WM-011-006-HC.jpg,1000,solid,O,m,1175,12,1,60030.09999999404,661032.5,7769,ATS,B,21
9,test,2,C,mfborder.png,1,z,Thu Mar 12 2026 10:21:54 GMT-0500 (Central Daylight Time),724178.5,CFD-WF-011-006-HC.jpg,1700,dash,O,z,1399,1,1,63146.0,661032.5,7769,ATS,B,22
10,test,2,C,mfborder.png,1,m,Thu Mar 12 2026 10:21:54 GMT-0500 (Central Daylight Time),727410.0,CFD-BM-037-041-A.jpg,2000,dash,O,m,1204,5,1,66377.5,661032.5,7769,ATS,B,23
10,test,2,C,haborder.png,0,z,Thu Mar 12 2026 10:21:54 GMT-0500 (Central Daylight Time),730644.0,CFD-WF-026-008-A.jpg,1700,solid,O,None,1516,9,1,69611.5,661032.5,7769,ATS,B,24
0,test,3,C,mfborder.png,0,z,Thu Mar 12 2026 10:21:54 GMT-0500 (Central Daylight Time),750669.6999999881,CFD-BF-051-043-A.jpg,1600,dash,O,None,1515,2,1,3131.5,747538.1999999881,7769,ATS,B,1
1,test,3,C,mfborder.png,1,z,Thu Mar 12 2026 10:21:54 GMT-0500 (Central Daylight Time),753834.900000006,CFD-BF-027-013-HC.jpg,1700,dash,O,z,1438,1,1,6296.700000017881,747538.1999999881,7769,ATS,B,2
1,test,3,C,mfborder.png,0,m,Thu Mar 12 2026 10:21:54 GMT-0500 (Central Daylight Time),756568.400000006,CFD-BM-020-024-HC.jpg,1200,dash,O,None,1515,6,1,9030.200000017881,747538.1999999881,7769,ATS,B,3
1,test,3,C,haborder.png,0,z,Thu Mar 12 2026 10:21:54 GMT-0500 (Central Daylight Time),760001.5,CFD-BM-037-041-A.jpg,1900,solid,O,None,1517,8,1,12463.300000011921,747538.1999999881,7769,ATS,B,4
1,test,3,C,haborder.png,0,m,Thu Mar 12 2026 10:21:54 GMT-0500 (Central Daylight Time),762520.8000000119,CFD-WF-011-006-HC.jpg,1000,solid,O,None,1503,12,1,14982.600000023842,747538.1999999881,7769,ATS,B,5
1,test,3,C,mfborder.png,0,z,Thu Mar 12 2026 10:21:54 GMT-0500 (Central Daylight Time),765748.6999999881,CFD-BF-027-013-HC.jpg,1700,dash,O,None,1515,1,1,18210.5,747538.1999999881,7769,ATS,B,6
1,test,3,C,mfborder.png,0,m,Thu Mar 12 2026 10:21:54 GMT-0500 (Central Daylight Time),768481.0,CFD-BM-020-024-HC.jpg,1200,dash,O,None,1515,6,1,20942.80000001192,747538.1999999881,7769,ATS,B,7
1,test,3,C,mfborder.png,0,m,Thu Mar 12 2026 10:21:54 GMT-0500 (Central Daylight Time),772012.5,CFD-WM-037-060-A.jpg,2000,dash,O,None,1514,5,1,24474.30000001192,747538.1999999881,7769,ATS,B,8
1,test,3,C,mfborder.png,0,z,Thu Mar 12 2026 10:21:54 GMT-0500 (Central Daylight Time),775045.1999999881,CFD-WF-026-008-A.jpg,1500,dash,O,None,1516,3,1,27507.0,747538.1999999881,7769,ATS,B,9
1,test,3,C,mfborder.png,0,m,Thu Mar 12 2026 10:21:54 GMT-0500 (Central Daylight Time),778227.8000000119,CFD-WM-037-060-A.jpg,2000,dash,O,z,1162,5,1,30689.600000023842,747538.1999999881,7769,ATS,B,10
1,test,3,C,mfborder.png,0,m,Thu Mar 12 2026 10:21:54 GMT-0500 (Central Daylight Time),780761.900000006,CFD-WM-012-007-HC.jpg,1000,dash,O,None,1517,4,1,33223.70000001788,747538.1999999881,7769,ATS,B,11
2,test,3,C,haborder.png,1,m,Thu Mar 12 2026 10:21:54 GMT-0500 (Central Daylight Time),783675.8000000119,CFD-BF-035-007-HC.jpg,1600,solid,O,m,1298,10,1,36137.60000002384,747538.1999999881,7769,ATS,B,12
2,test,3,C,haborder.png,0,m,Thu Mar 12 2026 10:21:54 GMT-0500 (Central Daylight Time),786708.099999994,CFD-WF-027-007-HC.jpg,1500,solid,O,None,1514,11,1,39169.90000000596,747538.1999999881,7769,ATS,B,13
2,test,3,C,haborder.png,0,z,Thu Mar 12 2026 10:21:54 GMT-0500 (Central Daylight Time),789941.5,CFD-BM-041-048-A.jpg,1700,solid,O,None,1516,9,1,42403.30000001192,747538.1999999881,7769,ATS,B,14
3,test,3,C,mfborder.png,1,m,Thu Mar 12 2026 10:21:54 GMT-0500 (Central Daylight Time),791657.0,CFD-WM-012-007-HC.jpg,1000,dash,O,m,691,4,1,44118.80000001192,747538.1999999881,7769,ATS,B,15
3,test,3,C,haborder.png,0,z,Thu Mar 12 2026 10:21:54 GMT-0500 (Central Daylight Time),793989.099999994,CFD-WM-009-009-A.jpg,1400,solid,O,m,910,7,1,46450.90000000596,747538.1999999881,7769,ATS,B,16
3,test,3,C,haborder.png,0,z,Thu Mar 12 2026 10:21:54 GMT-0500 (Central Daylight Time),797073.6999999881,CFD-BM-037-041-A.jpg,1900,solid,O,m,1159,8,1,49535.5,747538.1999999881,7769,ATS,B,17
4,test,3,C,haborder.png,1,m,Thu Mar 12 2026 10:21:54 GMT-0500 (Central Daylight Time),799804.400000006,CFD-BF-035-007-HC.jpg,1600,solid,O,m,1111,10,1,52266.20000001788,747538.1999999881,7769,ATS,B,18
5,test,3,C,haborder.png,1,z,Thu Mar 12 2026 10:21:54 GMT-0500 (Central Daylight Time),802452.900000006,CFD-BM-041-048-A.jpg,1700,solid,O,z,928,9,1,54914.70000001788,747538.1999999881,7769,ATS,B,19
5,test,3,C,haborder.png,0,m,Thu Mar 12 2026 10:21:54 GMT-0500 (Central Daylight Time),804985.6999999881,CFD-WF-011-006-HC.jpg,1000,solid,O,None,1515,12,1,57447.5,747538.1999999881,7769,ATS,B,20
6,test,3,C,mfborder.png,1,z,Thu Mar 12 2026 10:21:54 GMT-0500 (Central Daylight Time),807801.1999999881,CFD-BF-051-043-A.jpg,1600,dash,O,z,1191,2,1,60263.0,747538.1999999881,7769,ATS,B,21
6,test,3,C,haborder.png,0,z,Thu Mar 12 2026 10:21:54 GMT-0500 (Central Daylight Time),810400.599999994,CFD-WM-009-009-A.jpg,1400,solid,O,m,1174,7,1,62862.40000000596,747538.1999999881,7769,ATS,B,22
6,test,3,C,mfborder.png,0,z,Thu Mar 12 2026 10:21:54 GMT-0500 (Central Daylight Time),813433.400000006,CFD-WF-026-008-A.jpg,1500,dash,O,None,1515,3,1,65895.20000001788,747538.1999999881,7769,ATS,B,23
7,test,3,C,haborder.png,1,m,Thu Mar 12 2026 10:21:54 GMT-0500 (Central Daylight Time),816032.6999999881,CFD-WF-027-007-HC.jpg,1500,solid,O,m,1067,11,1,68494.5,747538.1999999881,7769,ATS,B,24
1,test,4,C,haborder.png,1,m,Thu Mar 12 2026 10:21:54 GMT-0500 (Central Daylight Time),822379.599999994,CFD-BM-020-024-HC.jpg,1600,solid,O,m,1204,10,1,2831.5,819548.099999994,7769,ATS,B,1
2,test,4,C,haborder.png,1,m,Thu Mar 12 2026 10:21:54 GMT-0500 (Central Daylight Time),825013.5,CFD-WM-011-006-HC.jpg,1500,solid,O,m,1112,11,1,5465.4000000059605,819548.099999994,7769,ATS,B,2
3,test,4,C,haborder.png,1,z,Thu Mar 12 2026 10:21:54 GMT-0500 (Central Daylight Time),828129.599999994,CFD-BF-050-012-A.jpg,1900,solid,O,z,1185,8,1,8581.5,819548.099999994,7769,ATS,B,3
3,test,4,C,mfborder.png,0,z,Thu Mar 12 2026 10:21:54 GMT-0500 (Central Daylight Time),831261.6999999881,CFD-WF-013-015-A.jpg,1600,dash,O,None,1517,2,1,11713.59999999404,819548.099999994,7769,ATS,B,4
3,test,4,C,haborder.png,0,z,Thu Mar 12 2026 10:21:54 GMT-0500 (Central Daylight Time),834478.3000000119,CFD-WF-026-008-A.jpg,1700,solid,O,None,1501,9,1,14930.200000017881,819548.099999994,7769,ATS,B,5
3,test,4,C,mfborder.png,0,m,Thu Mar 12 2026 10:21:54 GMT-0500 (Central Daylight Time),838009.0,CFD-BM-037-041-A.jpg,2000,dash,O,None,1513,5,1,18460.90000000596,819548.099999994,7769,ATS,B,6
4,test,4,C,mfborder.png,1,m,Thu Mar 12 2026 10:21:54 GMT-0500 (Central Daylight Time),839057.099999994,CFD-BM-015-017-HC.jpg,1000,dash,O,m,14,4,1,19509.0,819548.099999994,7769,ATS,B,7
4,test,4,C,mfborder.png,0,z,Thu Mar 12 2026 10:21:54 GMT-0500 (Central Daylight Time),842175.6999999881,CFD-WF-013-015-A.jpg,1600,dash,O,None,1501,2,1,22627.59999999404,819548.099999994,7769,ATS,B,8
4,test,4,C,haborder.png,0,z,Thu Mar 12 2026 10:21:54 GMT-0500 (Central Daylight Time),845091.8000000119,CFD-BF-051-043-A.jpg,1400,solid,O,None,1502,7,1,25543.70000001788,819548.099999994,7769,ATS,B,9
4,test,4,C,mfborder.png,0,z,Thu Mar 12 2026 10:21:54 GMT-0500 (Central Daylight Time),848323.099999994,CFD-WF-011-006-HC.jpg,1700,dash,O,None,1516,1,1,28775.0,819548.099999994,7769,ATS,B,10
5,test,4,C,mfborder.png,1,m,Thu Mar 12 2026 10:21:54 GMT-0500 (Central Daylight Time),850854.099999994,CFD-WM-009-009-A.jpg,1200,dash,O,m,1309,6,1,31306.0,819548.099999994,7769,ATS,B,11
5,test,4,C,haborder.png,0,z,Thu Mar 12 2026 10:21:54 GMT-0500 (Central Daylight Time),854087.400000006,CFD-WF-026-008-A.jpg,1700,solid,O,None,1516,9,1,34539.30000001192,819548.099999994,7769,ATS,B,12
6,test,4,C,mfborder.png,1,z,Thu Mar 12 2026 10:21:54 GMT-0500 (Central Daylight Time),856019.6999999881,CFD-WF-011-006-HC.jpg,1700,dash,O,z,205,1,1,36471.59999999404,819548.099999994,7769,ATS,B,13
6,test,4,C,haborder.png,0,z,Thu Mar 12 2026 10:21:54 GMT-0500 (Central Daylight Time),858952.8000000119,CFD-BF-051-043-A.jpg,1400,solid,O,None,1516,7,1,39404.70000001788,819548.099999994,7769,ATS,B,14
7,test,4,C,mfborder.png,1,m,Thu Mar 12 2026 10:21:54 GMT-0500 (Central Daylight Time),861550.6999999881,CFD-WM-009-009-A.jpg,1200,dash,O,m,1375,6,1,42002.59999999404,819548.099999994,7769,ATS,B,15
7,test,4,C,mfborder.png,0,m,Thu Mar 12 2026 10:21:54 GMT-0500 (Central Daylight Time),864084.1999999881,CFD-BM-015-017-HC.jpg,1000,dash,O,None,1516,4,1,44536.09999999404,819548.099999994,7769,ATS,B,16
8,test,4,C,haborder.png,1,m,Thu Mar 12 2026 10:21:54 GMT-0500 (Central Daylight Time),866399.6999999881,CFD-WM-011-006-HC.jpg,1000,solid,O,m,1292,12,1,46851.59999999404,819548.099999994,7769,ATS,B,17
8,test,4,C,haborder.png,0,z,Thu Mar 12 2026 10:21:54 GMT-0500 (Central Daylight Time),869833.3000000119,CFD-BF-050-012-A.jpg,1900,solid,O,None,1516,8,1,50285.20000001788,819548.099999994,7769,ATS,B,18
8,test,4,C,mfborder.png,0,m,Thu Mar 12 2026 10:21:54 GMT-0500 (Central Daylight Time),873365.400000006,CFD-BM-037-041-A.jpg,2000,dash,O,None,1516,5,1,53817.30000001192,819548.099999994,7769,ATS,B,19
8,test,4,C,mfborder.png,0,z,Thu Mar 12 2026 10:21:54 GMT-0500 (Central Daylight Time),876396.599999994,CFD-BF-035-007-HC.jpg,1500,dash,O,None,1514,3,1,56848.5,819548.099999994,7769,ATS,B,20
9,test,4,C,haborder.png,1,m,Thu Mar 12 2026 10:21:54 GMT-0500 (Central Daylight Time),879261.099999994,CFD-BM-020-024-HC.jpg,1600,solid,O,m,1242,10,1,59713.0,819548.099999994,7769,ATS,B,21
10,test,4,C,mfborder.png,1,z,Thu Mar 12 2026 10:21:54 GMT-0500 (Central Daylight Time),882177.5,CFD-BF-035-007-HC.jpg,1500,dash,O,z,1390,3,1,62629.40000000596,819548.099999994,7769,ATS,B,22
11,test,4,C,haborder.png,1,m,Thu Mar 12 2026 10:21:54 GMT-0500 (Central Daylight Time),884527.5,CFD-WM-011-006-HC.jpg,1000,solid,O,m,1326,12,1,64979.40000000596,819548.099999994,7769,ATS,B,23
12,test,4,C,haborder.png,1,m,Thu Mar 12 2026 10:21:54 GMT-0500 (Central Daylight Time),886709.400000006,CFD-WM-011-006-HC.jpg,1500,solid,O,m,661,11,1,67161.30000001192,819548.099999994,7769,ATS,B,24
