Number,acc_sum,block,block_c,block_cond,con_img,correct,correct_response,datetime,endtime,jitter,project,response,response_time,row_sel,session_number,start_end,starttime,subject_id,task,task_vers,trial
3,1,prac,1,A,circle.png,1,z,Wed Jul 30 2025 12:35:39 GMT-0500 (Central Daylight Time),69281.70000000298,1200,O,z,814,3,1,2793.8000000044703,66487.89999999851,7187,NTS,C,1
8,2,prac,1,A,circle.png,1,m,Wed Jul 30 2025 12:35:39 GMT-0500 (Central Daylight Time),72164.20000000298,1600,O,m,495,7,1,2875.5,69288.70000000298,7187,NTS,C,2
7,3,prac,1,A,circle.png,1,m,Wed Jul 30 2025 12:35:39 GMT-0500 (Central Daylight Time),75196.5,1700,O,m,537,6,1,3027.0,72169.5,7187,NTS,C,3
4,4,prac,1,A,circle.png,1,z,Wed Jul 30 2025 12:35:39 GMT-0500 (Central Daylight Time),77928.79999999702,1400,O,z,541,4,1,2726.7999999970198,75202.0,7187,NTS,C,4
4,5,prac,1,A,circle.png,1,z,Wed Jul 30 2025 12:35:39 GMT-0500 (Central Daylight Time),80578.10000000149,1400,O,z,456,4,1,2644.0,77934.10000000149,7187,NTS,C,5
2,6,prac,1,A,circle.png,1,z,Wed Jul 30 2025 12:35:39 GMT-0500 (Central Daylight Time),83877.0,2000,O,z,527,2,1,3293.7999999970198,80583.20000000298,7187,NTS,C,6
1,7,prac,1,A,circle.png,1,z,Wed Jul 30 2025 12:35:39 GMT-0500 (Central Daylight Time),86176.29999999702,1000,O,z,508,1,1,2293.89999999851,83882.39999999851,7187,NTS,C,7
6,8,prac,1,A,circle.png,1,m,Wed Jul 30 2025 12:35:39 GMT-0500 (Central Daylight Time),89508.60000000149,1900,O,m,645,5,1,3327.0,86181.60000000149,7187,NTS,C,8
8,9,prac,1,A,circle.png,1,m,Wed Jul 30 2025 12:35:39 GMT-0500 (Central Daylight Time),92324.29999999702,1600,O,m,429,7,1,2810.5999999940395,89513.70000000298,7187,NTS,C,9
7,10,prac,1,A,circle.png,1,m,Wed Jul 30 2025 12:35:39 GMT-0500 (Central Daylight Time),95373.20000000298,1700,O,m,553,6,1,3043.8000000044703,92329.39999999851,7187,NTS,C,10
9,11,prac,1,A,circle.png,1,m,Wed Jul 30 2025 12:35:39 GMT-0500 (Central Daylight Time),98239.20000000298,1500,O,m,576,8,1,2860.8000000044703,95378.39999999851,7187,NTS,C,11
3,12,prac,1,A,circle.png,1,z,Wed Jul 30 2025 12:35:39 GMT-0500 (Central Daylight Time),100771.89999999851,1200,O,z,546,3,1,2527.6999999955297,98244.20000000298,7187,NTS,C,12
7,1,prac,1,B,triangle.png,1,z,Wed Jul 30 2025 12:35:39 GMT-0500 (Central Daylight Time),140559.20000000298,2000,O,z,617,6,1,3411.4000000059605,137147.79999999702,7187,NTS,C,1
6,2,prac,1,B,triangle.png,1,m,Wed Jul 30 2025 12:35:39 GMT-0500 (Central Daylight Time),142808.5,1000,O,m,466,5,1,2243.60000000149,140564.8999999985,7187,NTS,C,2
2,3,prac,1,B,triangle.png,1,m,Wed Jul 30 2025 12:35:39 GMT-0500 (Central Daylight Time),145891.1000000015,1700,O,m,597,2,1,3077.8000000044703,142813.29999999702,7187,NTS,C,3
4,4,prac,1,B,triangle.png,1,m,Wed Jul 30 2025 12:35:39 GMT-0500 (Central Daylight Time),148789.8999999985,1500,O,m,603,4,1,2894.10000000149,145895.79999999702,7187,NTS,C,4
8,5,prac,1,B,triangle.png,1,m,Wed Jul 30 2025 12:35:39 GMT-0500 (Central Daylight Time),151356.0,1200,O,m,579,7,1,2561.10000000149,148794.8999999985,7187,NTS,C,5
4,6,prac,1,B,triangle.png,1,m,Wed Jul 30 2025 12:35:39 GMT-0500 (Central Daylight Time),154338.20000000298,1500,O,m,714,4,1,2976.9000000059605,151361.29999999702,7187,NTS,C,6
1,7,prac,1,B,triangle.png,1,z,Wed Jul 30 2025 12:35:39 GMT-0500 (Central Daylight Time),157504.0,1900,O,z,476,1,1,3161.10000000149,154342.8999999985,7187,NTS,C,7
9,8,prac,1,B,triangle.png,1,z,Wed Jul 30 2025 12:35:39 GMT-0500 (Central Daylight Time),160403.1000000015,1400,O,z,706,8,1,2894.10000000149,157509.0,7187,NTS,C,8
8,9,prac,1,B,triangle.png,1,m,Wed Jul 30 2025 12:35:39 GMT-0500 (Central Daylight Time),163002.29999999702,1200,O,m,606,7,1,2594.5,160407.79999999702,7187,NTS,C,9
6,10,prac,1,B,triangle.png,1,m,Wed Jul 30 2025 12:35:39 GMT-0500 (Central Daylight Time),165667.8999999985,1000,O,m,871,5,1,2660.7999999970198,163007.1000000015,7187,NTS,C,10
2,11,prac,1,B,triangle.png,1,m,Wed Jul 30 2025 12:35:39 GMT-0500 (Central Daylight Time),168767.0,1700,O,m,601,2,1,3094.10000000149,165672.8999999985,7187,NTS,C,11
3,12,prac,1,B,triangle.png,1,z,Wed Jul 30 2025 12:35:39 GMT-0500 (Central Daylight Time),171982.70000000298,1600,O,z,819,3,1,3210.9000000059605,168771.79999999702,7187,NTS,C,12
3,1,test,1,A,circle.png,1,z,Wed Jul 30 2025 12:35:39 GMT-0500 (Central Daylight Time),194775.3999999985,1200,O,z,569,3,1,1795.1000000014901,192980.29999999702,7187,NTS,C,1
9,2,test,1,A,circle.png,1,m,Wed Jul 30 2025 12:35:39 GMT-0500 (Central Daylight Time),197208.0,1500,O,m,902,8,1,2427.89999999851,194780.1000000015,7187,NTS,C,2
9,3,test,1,A,circle.png,1,m,Wed Jul 30 2025 12:35:39 GMT-0500 (Central Daylight Time),199190.70000000298,1500,O,m,461,8,1,1979.1000000014901,197211.6000000015,7187,NTS,C,3
7,4,test,1,A,circle.png,1,m,Wed Jul 30 2025 12:35:39 GMT-0500 (Central Daylight Time),201423.29999999702,1700,O,m,502,6,1,2229.0999999940395,199194.20000000298,7187,NTS,C,4
2,5,test,1,A,circle.png,1,z,Wed Jul 30 2025 12:35:39 GMT-0500 (Central Daylight Time),203922.5,2000,O,z,465,2,1,2495.0,201427.5,7187,NTS,C,5
3,6,test,1,A,circle.png,1,z,Wed Jul 30 2025 12:35:39 GMT-0500 (Central Daylight Time),205805.29999999702,1200,O,z,654,3,1,1879.0999999940395,203926.20000000298,7187,NTS,C,6
4,7,test,1,A,circle.png,1,z,Wed Jul 30 2025 12:35:39 GMT-0500 (Central Daylight Time),207904.79999999702,1400,O,z,667,4,1,2095.5999999940395,205809.20000000298,7187,NTS,C,7
8,8,test,1,A,circle.png,1,m,Wed Jul 30 2025 12:35:39 GMT-0500 (Central Daylight Time),210187.0,1600,O,m,664,7,1,2278.7000000029802,207908.29999999702,7187,NTS,C,8
3,9,test,1,A,circle.png,1,z,Wed Jul 30 2025 12:35:39 GMT-0500 (Central Daylight Time),212103.5,1200,O,z,685,3,1,1913.0,210190.5,7187,NTS,C,9
1,10,test,1,A,circle.png,1,z,Wed Jul 30 2025 12:35:39 GMT-0500 (Central Daylight Time),213786.20000000298,1000,O,z,666,1,1,1679.2000000029802,212107.0,7187,NTS,C,10
6,11,test,1,A,circle.png,1,m,Wed Jul 30 2025 12:35:39 GMT-0500 (Central Daylight Time),216485.29999999702,1900,O,m,779,5,1,2695.6999999955297,213789.6000000015,7187,NTS,C,11
6,12,test,1,A,circle.png,1,m,Wed Jul 30 2025 12:35:39 GMT-0500 (Central Daylight Time),218934.70000000298,1900,O,m,527,5,1,2445.60000000149,216489.1000000015,7187,NTS,C,12
4,13,test,1,A,circle.png,1,z,Wed Jul 30 2025 12:35:39 GMT-0500 (Central Daylight Time),221000.6000000015,1400,O,z,635,4,1,2062.3000000044703,218938.29999999702,7187,NTS,C,13
6,14,test,1,A,circle.png,1,m,Wed Jul 30 2025 12:35:39 GMT-0500 (Central Daylight Time),223416.3999999985,1900,O,m,484,5,1,2412.10000000149,221004.29999999702,7187,NTS,C,14
2,15,test,1,A,circle.png,1,z,Wed Jul 30 2025 12:35:39 GMT-0500 (Central Daylight Time),225915.6000000015,2000,O,z,473,2,1,2495.2000000029802,223420.3999999985,7187,NTS,C,15
8,16,test,1,A,circle.png,1,m,Wed Jul 30 2025 12:35:39 GMT-0500 (Central Daylight Time),228048.29999999702,1600,O,m,509,7,1,2128.89999999851,225919.3999999985,7187,NTS,C,16
1,17,test,1,A,circle.png,1,z,Wed Jul 30 2025 12:35:39 GMT-0500 (Central Daylight Time),229614.5,1000,O,z,545,1,1,1562.5,228052.0,7187,NTS,C,17
2,18,test,1,A,circle.png,1,z,Wed Jul 30 2025 12:35:39 GMT-0500 (Central Daylight Time),232163.79999999702,2000,O,z,531,2,1,2545.5999999940395,229618.20000000298,7187,NTS,C,18
4,19,test,1,A,circle.png,1,z,Wed Jul 30 2025 12:35:39 GMT-0500 (Central Daylight Time),234162.8999999985,1400,O,z,582,4,1,1995.6999999955297,232167.20000000298,7187,NTS,C,19
7,20,test,1,A,circle.png,1,m,Wed Jul 30 2025 12:35:39 GMT-0500 (Central Daylight Time),236329.1000000015,1700,O,m,434,6,1,2163.0,234166.1000000015,7187,NTS,C,20
4,21,test,1,A,circle.png,1,z,Wed Jul 30 2025 12:35:39 GMT-0500 (Central Daylight Time),238378.29999999702,1400,O,z,632,4,1,2045.6999999955297,236332.6000000015,7187,NTS,C,21
8,22,test,1,A,circle.png,1,m,Wed Jul 30 2025 12:35:39 GMT-0500 (Central Daylight Time),240677.6000000015,1600,O,m,670,7,1,2295.89999999851,238381.70000000298,7187,NTS,C,22
1,23,test,1,A,circle.png,1,z,Wed Jul 30 2025 12:35:39 GMT-0500 (Central Daylight Time),242243.8999999985,1000,O,z,540,1,1,1562.7999999970198,240681.1000000015,7187,NTS,C,23
9,24,test,1,A,circle.png,1,m,Wed Jul 30 2025 12:35:39 GMT-0500 (Central Daylight Time),244226.6000000015,1500,O,m,465,8,1,1979.1000000014901,242247.5,7187,NTS,C,24
6,1,test,1,B,triangle.png,1,m,Wed Jul 30 2025 12:35:39 GMT-0500 (Central Daylight Time),264503.6000000015,1000,O,m,569,5,1,1596.6000000014901,262907.0,7187,NTS,C,1
8,2,test,1,B,triangle.png,1,m,Wed Jul 30 2025 12:35:39 GMT-0500 (Central Daylight Time),266869.299999997,1700,O,m,646,15,1,2361.0999999940395,264508.200000003,7187,NTS,C,2
1,3,test,1,B,triangle.png,1,z,Wed Jul 30 2025 12:35:39 GMT-0500 (Central Daylight Time),269335.299999997,1900,O,z,544,1,1,2462.5,266872.799999997,7187,NTS,C,3
3,4,test,1,B,triangle.png,1,z,Wed Jul 30 2025 12:35:39 GMT-0500 (Central Daylight Time),271934.3999999985,1600,O,z,978,3,1,2595.1999999955297,269339.200000003,7187,NTS,C,4
8,5,test,1,B,triangle.png,1,m,Wed Jul 30 2025 12:35:39 GMT-0500 (Central Daylight Time),273734.200000003,1200,O,m,571,7,1,1796.4000000059605,271937.799999997,7187,NTS,C,5
7,6,test,1,B,triangle.png,1,z,Wed Jul 30 2025 12:35:39 GMT-0500 (Central Daylight Time),276166.5,1600,O,z,803,14,1,2428.89999999851,273737.6000000015,7187,NTS,C,6
9,7,test,1,B,triangle.png,1,z,Wed Jul 30 2025 12:35:39 GMT-0500 (Central Daylight Time),278399.3999999985,1400,O,z,811,8,1,2229.10000000149,276170.299999997,7187,NTS,C,7
1,8,test,1,B,triangle.png,1,z,Wed Jul 30 2025 12:35:39 GMT-0500 (Central Daylight Time),280481.8999999985,1400,O,z,658,9,1,2079.10000000149,278402.799999997,7187,NTS,C,8
9,9,test,1,B,triangle.png,1,z,Wed Jul 30 2025 12:35:39 GMT-0500 (Central Daylight Time),282981.1000000015,1900,O,z,580,16,1,2495.60000000149,280485.5,7187,NTS,C,9
2,10,test,1,B,triangle.png,1,m,Wed Jul 30 2025 12:35:39 GMT-0500 (Central Daylight Time),284930.5,1200,O,m,723,10,1,1945.6000000014901,282984.8999999985,7187,NTS,C,10
4,11,test,1,B,triangle.png,1,m,Wed Jul 30 2025 12:35:39 GMT-0500 (Central Daylight Time),286613.200000003,1000,O,m,655,12,1,1679.2000000029802,284934.0,7187,NTS,C,11
2,12,test,1,B,triangle.png,1,m,Wed Jul 30 2025 12:35:39 GMT-0500 (Central Daylight Time),289029.200000003,1700,O,m,696,2,1,2412.4000000059605,286616.799999997,7187,NTS,C,12
4,13,test,1,B,triangle.png,1,m,Wed Jul 30 2025 12:35:39 GMT-0500 (Central Daylight Time),291162.1000000015,1500,O,m,600,4,1,2129.3000000044703,289032.799999997,7187,NTS,C,13
4,14,test,1,B,triangle.png,1,m,Wed Jul 30 2025 12:35:39 GMT-0500 (Central Daylight Time),292711.5,1000,O,m,519,12,1,1545.8999999985099,291165.6000000015,7187,NTS,C,14
2,15,test,1,B,triangle.png,1,m,Wed Jul 30 2025 12:35:39 GMT-0500 (Central Daylight Time),295060.3999999985,1700,O,m,623,2,1,2345.1999999955297,292715.200000003,7187,NTS,C,15
7,16,test,1,B,triangle.png,1,z,Wed Jul 30 2025 12:35:39 GMT-0500 (Central Daylight Time),297609.8999999985,2000,O,z,525,6,1,2545.6999999955297,295064.200000003,7187,NTS,C,16
8,17,test,1,B,triangle.png,1,m,Wed Jul 30 2025 12:35:39 GMT-0500 (Central Daylight Time),300009.1000000015,1700,O,m,667,15,1,2395.7000000029802,297613.3999999985,7187,NTS,C,17
3,18,test,1,B,triangle.png,1,z,Wed Jul 30 2025 12:35:39 GMT-0500 (Central Daylight Time),302425.0,1600,O,z,784,3,1,2412.2000000029802,300012.799999997,7187,NTS,C,18
6,19,test,1,B,triangle.png,1,m,Wed Jul 30 2025 12:35:39 GMT-0500 (Central Daylight Time),304607.700000003,1500,O,m,652,13,1,2179.4000000059605,302428.299999997,7187,NTS,C,19
9,20,test,1,B,triangle.png,1,z,Wed Jul 30 2025 12:35:39 GMT-0500 (Central Daylight Time),307256.799999997,1900,O,z,718,16,1,2645.7999999970198,304611.0,7187,NTS,C,20
3,21,test,1,B,triangle.png,1,z,Wed Jul 30 2025 12:35:39 GMT-0500 (Central Daylight Time),310006.1000000015,2000,O,z,729,11,1,2745.60000000149,307260.5,7187,NTS,C,21
6,22,test,1,B,triangle.png,1,m,Wed Jul 30 2025 12:35:39 GMT-0500 (Central Daylight Time),311838.6000000015,1000,O,m,811,5,1,1829.0,310009.6000000015,7187,NTS,C,22
1,23,test,1,B,triangle.png,1,z,Wed Jul 30 2025 12:35:39 GMT-0500 (Central Daylight Time),314504.700000003,1900,O,z,743,1,1,2662.60000000149,311842.1000000015,7187,NTS,C,23
3,24,test,1,B,triangle.png,1,z,Wed Jul 30 2025 12:35:39 GMT-0500 (Central Daylight Time),317353.799999997,2000,O,z,817,11,1,2845.5999999940395,314508.200000003,7187,NTS,C,24
1,0,prac,1,C,circle.png,0,z,Wed Jul 30 2025 12:35:39 GMT-0500 (Central Daylight Time),358857.200000003,1700,O,None,1516,1,1,3994.8000000044703,354862.3999999985,7187,NTS,C,1
9,1,prac,1,C,circle.png,1,m,Wed Jul 30 2025 12:35:39 GMT-0500 (Central Daylight Time),362855.8999999985,1900,O,m,1308,8,1,3992.7999999970198,358863.1000000015,7187,NTS,C,2
6,2,prac,1,C,circle.png,1,m,Wed Jul 30 2025 12:35:39 GMT-0500 (Central Daylight Time),366388.299999997,2000,O,m,737,5,1,3527.5,362860.799999997,7187,NTS,C,3
2,2,prac,1,C,triangle.png,0,m,Wed Jul 30 2025 12:35:39 GMT-0500 (Central Daylight Time),369537.299999997,1600,O,z,757,2,1,3144.2999999970198,366393.0,7187,NTS,C,4
7,3,prac,1,C,triangle.png,1,z,Wed Jul 30 2025 12:35:39 GMT-0500 (Central Daylight Time),372869.6000000015,1200,O,z,1336,6,1,3327.60000000149,369542.0,7187,NTS,C,5
4,3,prac,1,C,circle.png,0,z,Wed Jul 30 2025 12:35:39 GMT-0500 (Central Daylight Time),375452.1000000015,1000,O,m,788,4,1,2577.5,372874.6000000015,7187,NTS,C,6
3,4,prac,1,C,triangle.png,1,z,Wed Jul 30 2025 12:35:39 GMT-0500 (Central Daylight Time),378951.1000000015,1500,O,z,1201,3,1,3494.3000000044703,375456.799999997,7187,NTS,C,7
1,4,prac,1,C,circle.png,0,z,Wed Jul 30 2025 12:35:39 GMT-0500 (Central Daylight Time),382950.0,1700,O,None,1516,1,1,3994.2999999970198,378955.700000003,7187,NTS,C,8
9,4,prac,1,C,circle.png,0,m,Wed Jul 30 2025 12:35:39 GMT-0500 (Central Daylight Time),386765.0,1900,O,z,1120,8,1,3810.2000000029802,382954.799999997,7187,NTS,C,9
2,4,prac,1,C,triangle.png,0,m,Wed Jul 30 2025 12:35:39 GMT-0500 (Central Daylight Time),390663.8999999985,1600,O,None,1516,2,1,3894.10000000149,386769.799999997,7187,NTS,C,10
8,5,prac,1,C,triangle.png,1,m,Wed Jul 30 2025 12:35:39 GMT-0500 (Central Daylight Time),394279.299999997,1400,O,m,1417,7,1,3610.7999999970198,390668.5,7187,NTS,C,11
4,6,prac,1,C,circle.png,1,z,Wed Jul 30 2025 12:35:39 GMT-0500 (Central Daylight Time),397545.0,1000,O,z,1482,4,1,3260.7000000029802,394284.299999997,7187,NTS,C,12
7,1,prac,2,C,triangle.png,1,z,Wed Jul 30 2025 12:35:39 GMT-0500 (Central Daylight Time),423737.0,1200,O,z,1457,6,1,3444.89999999851,420292.1000000015,7187,NTS,C,1
8,2,prac,2,C,triangle.png,1,m,Wed Jul 30 2025 12:35:39 GMT-0500 (Central Daylight Time),426486.0,1400,O,m,553,7,1,2742.0,423744.0,7187,NTS,C,2
1,3,prac,2,C,circle.png,1,z,Wed Jul 30 2025 12:35:39 GMT-0500 (Central Daylight Time),430385.0,1700,O,z,1399,1,1,3894.39999999851,426490.6000000015,7187,NTS,C,3
9,3,prac,2,C,circle.png,0,m,Wed Jul 30 2025 12:35:39 GMT-0500 (Central Daylight Time),434583.3999999985,1900,O,None,1516,8,1,4193.69999999553,430389.700000003,7187,NTS,C,4
7,4,prac,2,C,triangle.png,1,z,Wed Jul 30 2025 12:35:39 GMT-0500 (Central Daylight Time),437548.8999999985,1200,O,z,970,6,1,2961.0,434587.8999999985,7187,NTS,C,5
8,4,prac,2,C,triangle.png,0,m,Wed Jul 30 2025 12:35:39 GMT-0500 (Central Daylight Time),441247.8999999985,1400,O,None,1516,7,1,3694.1999999955297,437553.700000003,7187,NTS,C,6
4,5,prac,2,C,circle.png,1,z,Wed Jul 30 2025 12:35:39 GMT-0500 (Central Daylight Time),444081.700000003,1000,O,z,1057,4,1,2829.3000000044703,441252.3999999985,7187,NTS,C,7
2,6,prac,2,C,triangle.png,1,m,Wed Jul 30 2025 12:35:39 GMT-0500 (Central Daylight Time),447446.299999997,1600,O,m,969,2,1,3360.0,444086.299999997,7187,NTS,C,8
1,7,prac,2,C,circle.png,1,z,Wed Jul 30 2025 12:35:39 GMT-0500 (Central Daylight Time),450878.6000000015,1700,O,z,944,1,1,3427.2000000029802,447451.3999999985,7187,NTS,C,9
9,7,prac,2,C,circle.png,0,m,Wed Jul 30 2025 12:35:39 GMT-0500 (Central Daylight Time),455077.0,1900,O,None,1516,8,1,4193.89999999851,450883.1000000015,7187,NTS,C,10
6,8,prac,2,C,circle.png,1,m,Wed Jul 30 2025 12:35:39 GMT-0500 (Central Daylight Time),459275.700000003,2000,O,m,1413,5,1,4194.10000000149,455081.6000000015,7187,NTS,C,11
3,9,prac,2,C,triangle.png,1,z,Wed Jul 30 2025 12:35:39 GMT-0500 (Central Daylight Time),462724.799999997,1500,O,z,1154,3,1,3444.39999999851,459280.3999999985,7187,NTS,C,12
6,0,test,1,C,triangle.png,0,m,Wed Jul 30 2025 12:35:39 GMT-0500 (Central Daylight Time),497696.700000003,1000,O,z,926,13,1,1946.0,495750.700000003,7187,NTS,C,1
4,0,test,1,C,triangle.png,0,m,Wed Jul 30 2025 12:35:39 GMT-0500 (Central Daylight Time),500579.0,1500,O,z,1365,12,1,2877.89999999851,497701.1000000015,7187,NTS,C,2
2,0,test,1,C,circle.png,0,z,Wed Jul 30 2025 12:35:39 GMT-0500 (Central Daylight Time),503811.6000000015,1700,O,None,1516,10,1,3228.5,500583.1000000015,7187,NTS,C,3
4,0,test,1,C,circle.png,0,z,Wed Jul 30 2025 12:35:39 GMT-0500 (Central Daylight Time),506608.700000003,1400,O,m,1380,4,1,2793.3000000044703,503815.3999999985,7187,NTS,C,4
8,1,test,1,C,triangle.png,1,m,Wed Jul 30 2025 12:35:39 GMT-0500 (Central Daylight Time),509626.6000000015,1600,O,m,1391,23,1,3014.10000000149,506612.5,7187,NTS,C,5
6,2,test,1,C,circle.png,1,m,Wed Jul 30 2025 12:35:39 GMT-0500 (Central Daylight Time),512209.0,1900,O,m,659,21,1,2578.60000000149,509630.3999999985,7187,NTS,C,6
4,3,test,1,C,triangle.png,1,m,Wed Jul 30 2025 12:35:39 GMT-0500 (Central Daylight Time),514591.700000003,1500,O,m,852,20,1,2379.0,512212.700000003,7187,NTS,C,7
9,4,test,1,C,triangle.png,1,z,Wed Jul 30 2025 12:35:39 GMT-0500 (Central Daylight Time),516957.700000003,1400,O,z,946,16,1,2362.4000000059605,514595.299999997,7187,NTS,C,8
3,5,test,1,C,circle.png,1,z,Wed Jul 30 2025 12:35:39 GMT-0500 (Central Daylight Time),519506.799999997,1600,O,z,923,19,1,2545.39999999851,516961.3999999985,7187,NTS,C,9
1,6,test,1,C,triangle.png,1,z,Wed Jul 30 2025 12:35:39 GMT-0500 (Central Daylight Time),522755.700000003,1900,O,z,1323,9,1,3245.10000000149,519510.6000000015,7187,NTS,C,10
3,7,test,1,C,triangle.png,1,z,Wed Jul 30 2025 12:35:39 GMT-0500 (Central Daylight Time),525388.299999997,1200,O,z,1406,3,1,2628.89999999851,522759.3999999985,7187,NTS,C,11
7,8,test,1,C,circle.png,1,m,Wed Jul 30 2025 12:35:39 GMT-0500 (Central Daylight Time),528454.1000000015,2000,O,m,1044,14,1,3062.3000000044703,525391.799999997,7187,NTS,C,12
8,9,test,1,C,circle.png,1,m,Wed Jul 30 2025 12:35:39 GMT-0500 (Central Daylight Time),531119.799999997,1200,O,m,1443,15,1,2662.0,528457.799999997,7187,NTS,C,13
9,10,test,1,C,circle.png,1,m,Wed Jul 30 2025 12:35:39 GMT-0500 (Central Daylight Time),533535.299999997,1500,O,m,894,8,1,2412.0,531123.299999997,7187,NTS,C,14
1,11,test,1,C,triangle.png,1,z,Wed Jul 30 2025 12:35:39 GMT-0500 (Central Daylight Time),536118.1000000015,1900,O,z,654,17,1,2578.2000000029802,533539.8999999985,7187,NTS,C,15
3,11,test,1,C,circle.png,0,z,Wed Jul 30 2025 12:35:39 GMT-0500 (Central Daylight Time),539250.700000003,1600,O,None,1516,11,1,3128.8000000044703,536121.8999999985,7187,NTS,C,16
2,12,test,1,C,triangle.png,1,m,Wed Jul 30 2025 12:35:39 GMT-0500 (Central Daylight Time),542333.0,2000,O,m,1063,2,1,3078.7000000029802,539254.299999997,7187,NTS,C,17
7,13,test,1,C,triangle.png,1,z,Wed Jul 30 2025 12:35:39 GMT-0500 (Central Daylight Time),545115.6000000015,1700,O,z,1056,22,1,2778.89999999851,542336.700000003,7187,NTS,C,18
8,14,test,1,C,triangle.png,1,m,Wed Jul 30 2025 12:35:39 GMT-0500 (Central Daylight Time),547714.6000000015,1600,O,m,974,7,1,2595.3000000044703,545119.299999997,7187,NTS,C,19
7,15,test,1,C,triangle.png,1,z,Wed Jul 30 2025 12:35:39 GMT-0500 (Central Daylight Time),550330.3999999985,1700,O,z,899,6,1,2612.1999999955297,547718.200000003,7187,NTS,C,20
9,16,test,1,C,circle.png,1,m,Wed Jul 30 2025 12:35:39 GMT-0500 (Central Daylight Time),552812.8999999985,1500,O,m,963,24,1,2478.2999999970198,550334.6000000015,7187,NTS,C,21
1,17,test,1,C,circle.png,1,z,Wed Jul 30 2025 12:35:39 GMT-0500 (Central Daylight Time),554629.200000003,1000,O,z,785,1,1,1812.6000000014901,552816.6000000015,7187,NTS,C,22
2,17,test,1,C,circle.png,0,z,Wed Jul 30 2025 12:35:39 GMT-0500 (Central Daylight Time),557861.3999999985,1700,O,None,1516,18,1,3228.60000000149,554632.799999997,7187,NTS,C,23
6,17,test,1,C,circle.png,0,m,Wed Jul 30 2025 12:35:39 GMT-0500 (Central Daylight Time),561293.799999997,1900,O,None,1516,5,1,3428.1999999955297,557865.6000000015,7187,NTS,C,24
8,1,test,2,C,circle.png,1,m,Wed Jul 30 2025 12:35:39 GMT-0500 (Central Daylight Time),589284.799999997,1200,O,m,1005,15,1,2229.6999999955297,587055.1000000015,7187,NTS,C,1
3,2,test,2,C,circle.png,1,z,Wed Jul 30 2025 12:35:39 GMT-0500 (Central Daylight Time),591684.200000003,1600,O,z,773,11,1,2395.7000000029802,589288.5,7187,NTS,C,2
3,3,test,2,C,circle.png,1,z,Wed Jul 30 2025 12:35:39 GMT-0500 (Central Daylight Time),593933.299999997,1600,O,z,629,19,1,2245.39999999851,591687.8999999985,7187,NTS,C,3
4,4,test,2,C,triangle.png,1,m,Wed Jul 30 2025 12:35:39 GMT-0500 (Central Daylight Time),596465.8999999985,1500,O,m,1000,20,1,2528.7999999970198,593937.1000000015,7187,NTS,C,4
1,5,test,2,C,circle.png,1,z,Wed Jul 30 2025 12:35:39 GMT-0500 (Central Daylight Time),598198.700000003,1000,O,z,710,1,1,1728.9000000059605,596469.799999997,7187,NTS,C,5
1,6,test,2,C,triangle.png,1,z,Wed Jul 30 2025 12:35:39 GMT-0500 (Central Daylight Time),600957.6000000015,1900,O,z,696,9,1,2755.39999999851,598202.200000003,7187,NTS,C,6
7,7,test,2,C,circle.png,1,m,Wed Jul 30 2025 12:35:39 GMT-0500 (Central Daylight Time),603897.1000000015,2000,O,m,925,22,1,2935.60000000149,600961.5,7187,NTS,C,7
4,7,test,2,C,triangle.png,0,m,Wed Jul 30 2025 12:35:39 GMT-0500 (Central Daylight Time),606929.299999997,1500,O,None,1516,12,1,3028.5999999940395,603900.700000003,7187,NTS,C,8
1,8,test,2,C,triangle.png,1,z,Wed Jul 30 2025 12:35:39 GMT-0500 (Central Daylight Time),609811.700000003,1900,O,z,964,17,1,2879.0,606932.700000003,7187,NTS,C,9
2,9,test,2,C,circle.png,1,z,Wed Jul 30 2025 12:35:39 GMT-0500 (Central Daylight Time),612394.299999997,1700,O,z,858,18,1,2578.89999999851,609815.3999999985,7187,NTS,C,10
4,10,test,2,C,circle.png,1,z,Wed Jul 30 2025 12:35:39 GMT-0500 (Central Daylight Time),615243.200000003,1400,O,z,1423,4,1,2844.8000000044703,612398.3999999985,7187,NTS,C,11
6,11,test,2,C,triangle.png,1,m,Wed Jul 30 2025 12:35:39 GMT-0500 (Central Daylight Time),617459.0,1000,O,m,1189,21,1,2212.10000000149,615246.8999999985,7187,NTS,C,12
3,12,test,2,C,triangle.png,1,z,Wed Jul 30 2025 12:35:39 GMT-0500 (Central Daylight Time),619691.8999999985,1200,O,z,1006,3,1,2227.7999999970198,617464.1000000015,7187,NTS,C,13
8,13,test,2,C,circle.png,1,m,Wed Jul 30 2025 12:35:39 GMT-0500 (Central Daylight Time),621541.299999997,1200,O,m,629,23,1,1844.7999999970198,619696.5,7187,NTS,C,14
2,14,test,2,C,circle.png,1,z,Wed Jul 30 2025 12:35:39 GMT-0500 (Central Daylight Time),624518.299999997,1700,O,z,1260,10,1,2973.0999999940395,621545.200000003,7187,NTS,C,15
7,15,test,2,C,circle.png,1,m,Wed Jul 30 2025 12:35:39 GMT-0500 (Central Daylight Time),627472.799999997,2000,O,m,918,14,1,2950.5999999940395,624522.200000003,7187,NTS,C,16
9,16,test,2,C,circle.png,1,m,Wed Jul 30 2025 12:35:39 GMT-0500 (Central Daylight Time),629738.8999999985,1500,O,m,741,8,1,2262.5,627476.3999999985,7187,NTS,C,17
7,17,test,2,C,triangle.png,1,z,Wed Jul 30 2025 12:35:39 GMT-0500 (Central Daylight Time),632188.799999997,1700,O,z,731,6,1,2446.39999999851,629742.3999999985,7187,NTS,C,18
6,18,test,2,C,triangle.png,1,m,Wed Jul 30 2025 12:35:39 GMT-0500 (Central Daylight Time),634070.8999999985,1000,O,m,853,13,1,1878.5,632192.3999999985,7187,NTS,C,19
2,19,test,2,C,triangle.png,1,m,Wed Jul 30 2025 12:35:39 GMT-0500 (Central Daylight Time),637353.0,2000,O,m,1259,2,1,3278.5,634074.5,7187,NTS,C,20
9,20,test,2,C,triangle.png,1,z,Wed Jul 30 2025 12:35:39 GMT-0500 (Central Daylight Time),640102.200000003,1400,O,z,1321,24,1,2745.60000000149,637356.6000000015,7187,NTS,C,21
9,21,test,2,C,triangle.png,1,z,Wed Jul 30 2025 12:35:39 GMT-0500 (Central Daylight Time),642368.1000000015,1400,O,z,835,16,1,2262.5,640105.6000000015,7187,NTS,C,22
6,22,test,2,C,circle.png,1,m,Wed Jul 30 2025 12:35:39 GMT-0500 (Central Daylight Time),645717.0,1900,O,m,1429,5,1,3345.39999999851,642371.6000000015,7187,NTS,C,23
8,23,test,2,C,triangle.png,1,m,Wed Jul 30 2025 12:35:39 GMT-0500 (Central Daylight Time),648432.799999997,1600,O,m,1084,7,1,2712.39999999851,645720.3999999985,7187,NTS,C,24
6,1,test,3,C,circle.png,1,m,Wed Jul 30 2025 12:35:39 GMT-0500 (Central Daylight Time),656547.200000003,1900,O,m,1107,5,1,3029.9000000059605,653517.299999997,7187,NTS,C,1
6,2,test,3,C,circle.png,1,m,Wed Jul 30 2025 12:35:39 GMT-0500 (Central Daylight Time),659079.6000000015,1900,O,m,603,21,1,2528.39999999851,656551.200000003,7187,NTS,C,2
9,3,test,3,C,triangle.png,1,z,Wed Jul 30 2025 12:35:39 GMT-0500 (Central Daylight Time),661445.6000000015,1400,O,z,946,16,1,2362.3000000044703,659083.299999997,7187,NTS,C,3
7,4,test,3,C,circle.png,1,m,Wed Jul 30 2025 12:35:39 GMT-0500 (Central Daylight Time),664178.0,2000,O,m,716,14,1,2728.89999999851,661449.1000000015,7187,NTS,C,4
1,5,test,3,C,circle.png,1,z,Wed Jul 30 2025 12:35:39 GMT-0500 (Central Daylight Time),665927.3999999985,1000,O,z,727,1,1,1745.8999999985099,664181.5,7187,NTS,C,5
7,6,test,3,C,triangle.png,1,z,Wed Jul 30 2025 12:35:39 GMT-0500 (Central Daylight Time),668826.700000003,1700,O,z,1166,22,1,2895.2000000029802,665931.5,7187,NTS,C,6
4,7,test,3,C,triangle.png,1,m,Wed Jul 30 2025 12:35:39 GMT-0500 (Central Daylight Time),671470.5,1500,O,m,1127,12,1,2640.2999999970198,668830.200000003,7187,NTS,C,7
3,8,test,3,C,triangle.png,1,z,Wed Jul 30 2025 12:35:39 GMT-0500 (Central Daylight Time),673658.299999997,1200,O,z,966,19,1,2183.89999999851,671474.3999999985,7187,NTS,C,8
3,9,test,3,C,circle.png,1,z,Wed Jul 30 2025 12:35:39 GMT-0500 (Central Daylight Time),676674.200000003,1600,O,z,1391,11,1,3012.60000000149,673661.6000000015,7187,NTS,C,9
9,10,test,3,C,circle.png,1,m,Wed Jul 30 2025 12:35:39 GMT-0500 (Central Daylight Time),679290.1000000015,1500,O,m,1091,24,1,2612.3000000044703,676677.799999997,7187,NTS,C,10
9,11,test,3,C,circle.png,1,m,Wed Jul 30 2025 12:35:39 GMT-0500 (Central Daylight Time),681405.799999997,1500,O,m,596,8,1,2111.39999999851,679294.3999999985,7187,NTS,C,11
2,12,test,3,C,triangle.png,1,m,Wed Jul 30 2025 12:35:39 GMT-0500 (Central Daylight Time),684371.700000003,2000,O,m,948,2,1,2961.3000000044703,681410.3999999985,7187,NTS,C,12
3,13,test,3,C,triangle.png,1,z,Wed Jul 30 2025 12:35:39 GMT-0500 (Central Daylight Time),686954.3999999985,1200,O,z,1350,3,1,2579.0,684375.3999999985,7187,NTS,C,13
8,14,test,3,C,circle.png,1,m,Wed Jul 30 2025 12:35:39 GMT-0500 (Central Daylight Time),688821.299999997,1200,O,m,639,15,1,1863.3999999985099,686957.8999999985,7187,NTS,C,14
4,14,test,3,C,circle.png,0,z,Wed Jul 30 2025 12:35:39 GMT-0500 (Central Daylight Time),691752.700000003,1400,O,None,1516,4,1,2927.60000000149,688825.1000000015,7187,NTS,C,15
8,15,test,3,C,triangle.png,1,m,Wed Jul 30 2025 12:35:39 GMT-0500 (Central Daylight Time),694518.299999997,1600,O,m,1137,7,1,2762.0,691756.299999997,7187,NTS,C,16
2,15,test,3,C,circle.png,0,z,Wed Jul 30 2025 12:35:39 GMT-0500 (Central Daylight Time),697617.299999997,1700,O,m,1367,10,1,3095.5999999940395,694521.700000003,7187,NTS,C,17
1,16,test,3,C,triangle.png,1,z,Wed Jul 30 2025 12:35:39 GMT-0500 (Central Daylight Time),700399.700000003,1900,O,z,852,9,1,2779.2000000029802,697620.5,7187,NTS,C,18
2,16,test,3,C,triangle.png,0,m,Wed Jul 30 2025 12:35:39 GMT-0500 (Central Daylight Time),703932.200000003,2000,O,None,1516,18,1,3528.7000000029802,700403.5,7187,NTS,C,19
7,17,test,3,C,triangle.png,1,z,Wed Jul 30 2025 12:35:39 GMT-0500 (Central Daylight Time),706947.799999997,1700,O,z,1289,6,1,3012.0999999940395,703935.700000003,7187,NTS,C,20
4,18,test,3,C,circle.png,1,z,Wed Jul 30 2025 12:35:39 GMT-0500 (Central Daylight Time),709330.299999997,1400,O,z,949,20,1,2378.7999999970198,706951.5,7187,NTS,C,21
1,19,test,3,C,circle.png,1,z,Wed Jul 30 2025 12:35:39 GMT-0500 (Central Daylight Time),710930.0,1000,O,z,567,17,1,1596.3999999985099,709333.6000000015,7187,NTS,C,22
8,20,test,3,C,triangle.png,1,m,Wed Jul 30 2025 12:35:39 GMT-0500 (Central Daylight Time),713645.799999997,1600,O,m,1096,23,1,2712.39999999851,710933.3999999985,7187,NTS,C,23
6,21,test,3,C,triangle.png,1,m,Wed Jul 30 2025 12:35:39 GMT-0500 (Central Daylight Time),715561.799999997,1000,O,m,884,13,1,1912.3999999985099,713649.3999999985,7187,NTS,C,24
9,1,test,4,C,circle.png,1,m,Wed Jul 30 2025 12:35:39 GMT-0500 (Central Daylight Time),722909.6000000015,1500,O,m,1395,8,1,2912.8000000044703,719996.799999997,7187,NTS,C,1
2,1,test,4,C,triangle.png,0,m,Wed Jul 30 2025 12:35:39 GMT-0500 (Central Daylight Time),725541.8999999985,2000,O,z,612,2,1,2628.60000000149,722913.299999997,7187,NTS,C,2
7,1,test,4,C,circle.png,0,m,Wed Jul 30 2025 12:35:39 GMT-0500 (Central Daylight Time),729074.200000003,2000,O,None,1516,14,1,3529.0,725545.200000003,7187,NTS,C,3
2,2,test,4,C,triangle.png,1,m,Wed Jul 30 2025 12:35:39 GMT-0500 (Central Daylight Time),732006.700000003,2000,O,m,912,18,1,2928.5,729078.200000003,7187,NTS,C,4
8,3,test,4,C,triangle.png,1,m,Wed Jul 30 2025 12:35:39 GMT-0500 (Central Daylight Time),734589.3999999985,1600,O,m,963,7,1,2578.7999999970198,732010.6000000015,7187,NTS,C,5
7,4,test,4,C,triangle.png,1,z,Wed Jul 30 2025 12:35:39 GMT-0500 (Central Daylight Time),737238.3999999985,1700,O,z,929,22,1,2645.39999999851,734593.0,7187,NTS,C,6
9,5,test,4,C,triangle.png,1,z,Wed Jul 30 2025 12:35:39 GMT-0500 (Central Daylight Time),739987.200000003,1400,O,z,1331,16,1,2745.10000000149,737242.1000000015,7187,NTS,C,7
3,6,test,4,C,circle.png,1,z,Wed Jul 30 2025 12:35:39 GMT-0500 (Central Daylight Time),742336.799999997,1600,O,z,718,11,1,2346.1999999955297,739990.6000000015,7187,NTS,C,8
3,7,test,4,C,triangle.png,1,z,Wed Jul 30 2025 12:35:39 GMT-0500 (Central Daylight Time),744636.1000000015,1200,O,z,1081,19,1,2294.5,742341.6000000015,7187,NTS,C,9
6,8,test,4,C,triangle.png,1,m,Wed Jul 30 2025 12:35:39 GMT-0500 (Central Daylight Time),746735.200000003,1000,O,m,1069,13,1,2095.3000000044703,744639.8999999985,7187,NTS,C,10
8,9,test,4,C,triangle.png,1,m,Wed Jul 30 2025 12:35:39 GMT-0500 (Central Daylight Time),749351.0,1600,O,m,986,23,1,2612.2000000029802,746738.799999997,7187,NTS,C,11
7,10,test,4,C,triangle.png,1,z,Wed Jul 30 2025 12:35:39 GMT-0500 (Central Daylight Time),752250.299999997,1700,O,z,1182,6,1,2895.6999999955297,749354.6000000015,7187,NTS,C,12
6,11,test,4,C,circle.png,1,m,Wed Jul 30 2025 12:35:39 GMT-0500 (Central Daylight Time),755099.299999997,1900,O,m,931,5,1,2845.39999999851,752253.8999999985,7187,NTS,C,13
9,12,test,4,C,circle.png,1,m,Wed Jul 30 2025 12:35:39 GMT-0500 (Central Daylight Time),757332.1000000015,1500,O,m,714,24,1,2229.2000000029802,755102.8999999985,7187,NTS,C,14
1,13,test,4,C,triangle.png,1,z,Wed Jul 30 2025 12:35:39 GMT-0500 (Central Daylight Time),759797.8999999985,1900,O,z,538,9,1,2462.2999999970198,757335.6000000015,7187,NTS,C,15
2,13,test,4,C,circle.png,0,z,Wed Jul 30 2025 12:35:39 GMT-0500 (Central Daylight Time),763030.200000003,1700,O,None,1516,10,1,3228.8000000044703,759801.3999999985,7187,NTS,C,16
4,13,test,4,C,circle.png,0,z,Wed Jul 30 2025 12:35:39 GMT-0500 (Central Daylight Time),765962.799999997,1400,O,None,1516,20,1,2929.0999999940395,763033.700000003,7187,NTS,C,17
1,14,test,4,C,circle.png,1,z,Wed Jul 30 2025 12:35:39 GMT-0500 (Central Daylight Time),768195.0,1000,O,z,1215,1,1,2228.39999999851,765966.6000000015,7187,NTS,C,18
4,15,test,4,C,triangle.png,1,m,Wed Jul 30 2025 12:35:39 GMT-0500 (Central Daylight Time),770927.799999997,1500,O,m,1202,12,1,2729.39999999851,768198.3999999985,7187,NTS,C,19
6,16,test,4,C,circle.png,1,m,Wed Jul 30 2025 12:35:39 GMT-0500 (Central Daylight Time),773876.8999999985,1900,O,m,1030,21,1,2945.60000000149,770931.299999997,7187,NTS,C,20
8,17,test,4,C,circle.png,1,m,Wed Jul 30 2025 12:35:39 GMT-0500 (Central Daylight Time),775826.1000000015,1200,O,m,717,15,1,1945.8000000044703,773880.299999997,7187,NTS,C,21
1,18,test,4,C,circle.png,1,z,Wed Jul 30 2025 12:35:39 GMT-0500 (Central Daylight Time),778208.700000003,1000,O,z,1359,17,1,2379.3000000044703,775829.3999999985,7187,NTS,C,22
4,18,test,4,C,circle.png,0,z,Wed Jul 30 2025 12:35:39 GMT-0500 (Central Daylight Time),780858.0,1400,O,m,1225,4,1,2645.5,778212.5,7187,NTS,C,23
3,19,test,4,C,triangle.png,1,z,Wed Jul 30 2025 12:35:39 GMT-0500 (Central Daylight Time),782906.8999999985,1200,O,z,823,3,1,2045.1999999955297,780861.700000003,7187,NTS,C,24
