acc_sum,block,block_c,change,condition,correct,correct_response,datetime,endtime,face,project,response,response_time,row_sel,session_number,start_end,starttime,subject_id,task,task_vers,trial
0,prac,1,,1-Back,,,Tue May 05 2026 08:57:25 GMT-0500 (Central Daylight Time),,124_o_f_d_a.png,I,space,6250,1,1,,,8112,VNB,A,0
1,prac,1,0.0,1-Back,1.0,m,Tue May 05 2026 08:57:25 GMT-0500 (Central Daylight Time),155228.30000001192,071_y_f_n_a.png,I,m,1127,2,1,1924.1000000238419,153304.19999998808,8112,VNB,A,1
2,prac,1,0.0,1-Back,1.0,m,Tue May 05 2026 08:57:25 GMT-0500 (Central Daylight Time),156977.69999998808,165_m_m_h_a.png,I,m,938,3,1,1741.199999988079,155236.5,8112,VNB,A,2
3,prac,1,0.0,1-Back,1.0,m,Tue May 05 2026 08:57:25 GMT-0500 (Central Daylight Time),158560.5,109_y_m_d_a.png,I,m,759,4,1,1574.5,156986.0,8112,VNB,A,3
4,prac,1,0.0,1-Back,1.0,m,Tue May 05 2026 08:57:25 GMT-0500 (Central Daylight Time),160360.10000002384,124_o_f_n_a.png,I,m,953,5,1,1792.2000000476837,158567.89999997616,8112,VNB,A,4
5,prac,1,1.0,1-Back,1.0,z,Tue May 05 2026 08:57:25 GMT-0500 (Central Daylight Time),162059.5,109_y_m_n_a.png,I,z,883,6,1,1692.300000011921,160367.19999998808,8112,VNB,A,5
6,prac,1,0.0,1-Back,1.0,m,Tue May 05 2026 08:57:25 GMT-0500 (Central Daylight Time),163792.19999998808,039_o_m_h_a.png,I,m,924,7,1,1724.800000011921,162067.39999997616,8112,VNB,A,6
7,prac,1,0.0,1-Back,1.0,m,Tue May 05 2026 08:57:25 GMT-0500 (Central Daylight Time),165525.89999997616,139_m_f_d_a.png,I,m,943,8,1,1727.0999999642372,163798.80000001192,8112,VNB,A,7
8,prac,1,1.0,1-Back,1.0,z,Tue May 05 2026 08:57:25 GMT-0500 (Central Daylight Time),167124.60000002384,071_y_f_d_a.png,I,z,795,9,1,1591.7000000476837,165532.89999997616,8112,VNB,A,8
9,prac,1,0.0,1-Back,1.0,m,Tue May 05 2026 08:57:25 GMT-0500 (Central Daylight Time),168757.5,165_m_m_n_a.png,I,m,819,10,1,1625.1000000238419,167132.39999997616,8112,VNB,A,9
10,prac,1,0.0,1-Back,1.0,m,Tue May 05 2026 08:57:25 GMT-0500 (Central Daylight Time),170373.39999997616,124_o_f_h_a.png,I,m,784,11,1,1608.0999999642372,168765.30000001192,8112,VNB,A,10
11,prac,1,0.0,1-Back,1.0,m,Tue May 05 2026 08:57:25 GMT-0500 (Central Daylight Time),171972.89999997616,109_y_m_d_a.png,I,m,814,12,1,1592.0999999642372,170380.80000001192,8112,VNB,A,11
0,test,1,0.0,1-Back,,,Tue May 05 2026 08:57:25 GMT-0500 (Central Daylight Time),171972.89999997616,071_y_f_d_a.png,I,space,6893,1,1,1592.0999999642372,170380.80000001192,8112,VNB,A,0
1,test,1,0.0,1-Back,1.0,m,Tue May 05 2026 08:57:25 GMT-0500 (Central Daylight Time),187584.89999997616,139_m_f_n_a.png,I,m,1259,2,1,2277.5,185307.39999997616,8112,VNB,A,1
2,test,1,0.0,1-Back,1.0,m,Tue May 05 2026 08:57:25 GMT-0500 (Central Daylight Time),189334.19999998808,039_o_m_h_a.png,I,m,721,3,1,1746.5999999642372,187587.60000002384,8112,VNB,A,2
3,test,1,1.0,1-Back,1.0,z,Tue May 05 2026 08:57:25 GMT-0500 (Central Daylight Time),191050.0,165_m_m_h_a.png,I,z,698,4,1,1713.1000000238419,189336.89999997616,8112,VNB,A,3
4,test,1,0.0,1-Back,1.0,m,Tue May 05 2026 08:57:25 GMT-0500 (Central Daylight Time),192783.10000002384,124_o_f_n_a.png,I,m,710,5,1,1730.7000000476837,191052.39999997616,8112,VNB,A,4
5,test,1,0.0,1-Back,1.0,m,Tue May 05 2026 08:57:25 GMT-0500 (Central Daylight Time),194597.30000001192,109_y_m_d_a.png,I,m,798,6,1,1811.6000000238419,192785.69999998808,8112,VNB,A,5
6,test,1,1.0,1-Back,1.0,z,Tue May 05 2026 08:57:25 GMT-0500 (Central Daylight Time),196448.69999998808,139_m_f_d_a.png,I,z,826,7,1,1848.5999999642372,194600.10000002384,8112,VNB,A,6
7,test,1,0.0,1-Back,1.0,m,Tue May 05 2026 08:57:25 GMT-0500 (Central Daylight Time),198314.39999997616,071_y_f_h_a.png,I,m,849,8,1,1862.8999999761581,196451.5,8112,VNB,A,7
8,test,1,0.0,1-Back,1.0,m,Tue May 05 2026 08:57:25 GMT-0500 (Central Daylight Time),200430.69999998808,039_o_m_n_a.png,I,m,1095,9,1,2113.699999988079,198317.0,8112,VNB,A,8
9,test,1,0.0,1-Back,1.0,m,Tue May 05 2026 08:57:25 GMT-0500 (Central Daylight Time),202546.5,109_y_m_h_a.png,I,m,1099,10,1,2113.0,200433.5,8112,VNB,A,9
10,test,1,0.0,1-Back,1.0,m,Tue May 05 2026 08:57:25 GMT-0500 (Central Daylight Time),204495.89999997616,039_o_m_d_a.png,I,m,926,11,1,1947.0,202548.89999997616,8112,VNB,A,10
11,test,1,1.0,1-Back,1.0,z,Tue May 05 2026 08:57:25 GMT-0500 (Central Daylight Time),206412.19999998808,124_o_f_d_a.png,I,z,889,12,1,1913.699999988079,204498.5,8112,VNB,A,11
12,test,1,0.0,1-Back,1.0,m,Tue May 05 2026 08:57:25 GMT-0500 (Central Daylight Time),208295.0,165_m_m_n_a.png,I,m,860,13,1,1880.199999988079,206414.80000001192,8112,VNB,A,12
13,test,1,1.0,1-Back,1.0,z,Tue May 05 2026 08:57:25 GMT-0500 (Central Daylight Time),210394.30000001192,071_y_f_n_a.png,I,z,1075,14,1,2096.5,208297.80000001192,8112,VNB,A,13
14,test,1,0.0,1-Back,1.0,m,Tue May 05 2026 08:57:25 GMT-0500 (Central Daylight Time),212260.10000002384,139_m_f_h_a.png,I,m,847,15,1,1863.4000000357628,210396.69999998808,8112,VNB,A,14
15,test,1,0.0,1-Back,1.0,m,Tue May 05 2026 08:57:25 GMT-0500 (Central Daylight Time),214276.19999998808,165_m_m_d_a.png,I,m,989,16,1,2013.5999999642372,212262.60000002384,8112,VNB,A,15
16,test,1,0.0,1-Back,1.0,m,Tue May 05 2026 08:57:25 GMT-0500 (Central Daylight Time),216175.69999998808,109_y_m_n_a.png,I,m,876,17,1,1897.0,214278.69999998808,8112,VNB,A,16
17,test,1,0.0,1-Back,1.0,m,Tue May 05 2026 08:57:25 GMT-0500 (Central Daylight Time),218139.39999997616,124_o_f_h_a.png,I,m,947,18,1,1961.0999999642372,216178.30000001192,8112,VNB,A,17
0,test,2,0.0,1-Back,,,Tue May 05 2026 08:57:25 GMT-0500 (Central Daylight Time),218139.39999997616,109_y_m_n_a.png,I,space,1214,1,1,1961.0999999642372,216178.30000001192,8112,VNB,A,0
1,test,2,0.0,1-Back,1.0,m,Tue May 05 2026 08:57:25 GMT-0500 (Central Daylight Time),223290.19999998808,071_y_f_h_a.png,I,m,891,2,1,1911.800000011921,221378.39999997616,8112,VNB,A,1
2,test,2,1.0,1-Back,1.0,m,Tue May 05 2026 08:57:25 GMT-0500 (Central Daylight Time),225089.69999998808,039_o_m_n_a.png,I,m,775,3,1,1797.0,223292.69999998808,8112,VNB,A,2
3,test,2,0.0,1-Back,1.0,m,Tue May 05 2026 08:57:25 GMT-0500 (Central Daylight Time),227105.60000002384,139_m_f_d_a.png,I,m,992,4,1,2013.1000000238419,225092.5,8112,VNB,A,3
4,test,2,0.0,1-Back,1.0,z,Tue May 05 2026 08:57:25 GMT-0500 (Central Daylight Time),228988.19999998808,165_m_m_d_a.png,I,z,864,5,1,1879.800000011921,227108.39999997616,8112,VNB,A,4
5,test,2,0.0,1-Back,1.0,m,Tue May 05 2026 08:57:25 GMT-0500 (Central Daylight Time),230787.69999998808,109_y_m_h_a.png,I,m,772,6,1,1796.8999999761581,228990.80000001192,8112,VNB,A,5
6,test,2,1.0,1-Back,1.0,z,Tue May 05 2026 08:57:25 GMT-0500 (Central Daylight Time),232920.5,124_o_f_h_a.png,I,z,1101,7,1,2130.300000011921,230790.19999998808,8112,VNB,A,6
7,test,2,0.0,1-Back,1.0,m,Tue May 05 2026 08:57:25 GMT-0500 (Central Daylight Time),234703.39999997616,139_m_f_n_a.png,I,m,761,8,1,1780.0999999642372,232923.30000001192,8112,VNB,A,7
8,test,2,0.0,1-Back,1.0,m,Tue May 05 2026 08:57:25 GMT-0500 (Central Daylight Time),236636.0,071_y_f_d_a.png,I,m,914,9,1,1930.1000000238419,234705.89999997616,8112,VNB,A,8
9,test,2,0.0,1-Back,1.0,m,Tue May 05 2026 08:57:25 GMT-0500 (Central Daylight Time),238418.89999997616,165_m_m_n_a.png,I,m,756,10,1,1780.5,236638.39999997616,8112,VNB,A,9
10,test,2,1.0,1-Back,1.0,m,Tue May 05 2026 08:57:25 GMT-0500 (Central Daylight Time),240201.5,139_m_f_h_a.png,I,m,766,11,1,1779.699999988079,238421.80000001192,8112,VNB,A,10
11,test,2,0.0,1-Back,1.0,z,Tue May 05 2026 08:57:25 GMT-0500 (Central Daylight Time),242033.89999997616,039_o_m_h_a.png,I,z,815,12,1,1829.5999999642372,240204.30000001192,8112,VNB,A,11
12,test,2,0.0,1-Back,1.0,m,Tue May 05 2026 08:57:25 GMT-0500 (Central Daylight Time),243883.80000001192,109_y_m_d_a.png,I,m,823,13,1,1847.1000000238419,242036.69999998808,8112,VNB,A,12
13,test,2,0.0,1-Back,1.0,m,Tue May 05 2026 08:57:25 GMT-0500 (Central Daylight Time),245766.30000001192,124_o_f_n_a.png,I,m,854,14,1,1879.800000011921,243886.5,8112,VNB,A,13
14,test,2,0.0,1-Back,1.0,z,Tue May 05 2026 08:57:25 GMT-0500 (Central Daylight Time),247949.19999998808,071_y_f_n_a.png,I,z,1163,15,1,2179.899999976158,245769.30000001192,8112,VNB,A,14
15,test,2,1.0,1-Back,1.0,m,Tue May 05 2026 08:57:25 GMT-0500 (Central Daylight Time),249765.30000001192,165_m_m_h_a.png,I,m,795,16,1,1813.4000000357628,247951.89999997616,8112,VNB,A,15
16,test,2,0.0,1-Back,1.0,m,Tue May 05 2026 08:57:25 GMT-0500 (Central Daylight Time),251664.5,124_o_f_d_a.png,I,m,866,17,1,1896.699999988079,249767.80000001192,8112,VNB,A,16
17,test,2,1.0,1-Back,1.0,z,Tue May 05 2026 08:57:25 GMT-0500 (Central Daylight Time),253697.5,039_o_m_d_a.png,I,z,1000,18,1,2030.5,251667.0,8112,VNB,A,17
0,test,3,1.0,1-Back,,,Tue May 05 2026 08:57:25 GMT-0500 (Central Daylight Time),253697.5,124_o_f_h_a.png,I,space,3023,1,1,2030.5,251667.0,8112,VNB,A,0
1,test,3,0.0,1-Back,1.0,m,Tue May 05 2026 08:57:25 GMT-0500 (Central Daylight Time),260828.5,139_m_f_d_a.png,I,m,1021,2,1,2044.5,258784.0,8112,VNB,A,1
2,test,3,1.0,1-Back,1.0,m,Tue May 05 2026 08:57:25 GMT-0500 (Central Daylight Time),262628.0,165_m_m_n_a.png,I,m,772,3,1,1796.800000011921,260831.19999998808,8112,VNB,A,2
3,test,3,0.0,1-Back,1.0,z,Tue May 05 2026 08:57:25 GMT-0500 (Central Daylight Time),264410.3000000119,124_o_f_n_a.png,I,z,765,4,1,1779.6000000238419,262630.6999999881,8112,VNB,A,3
4,test,3,1.0,1-Back,1.0,m,Tue May 05 2026 08:57:25 GMT-0500 (Central Daylight Time),266309.89999997616,039_o_m_d_a.png,I,m,854,5,1,1896.8999999761581,264413.0,8112,VNB,A,4
5,test,3,0.0,1-Back,1.0,m,Tue May 05 2026 08:57:25 GMT-0500 (Central Daylight Time),268077.5,071_y_f_h_a.png,I,m,739,6,1,1765.0,266312.5,8112,VNB,A,5
6,test,3,0.0,1-Back,1.0,z,Tue May 05 2026 08:57:25 GMT-0500 (Central Daylight Time),269908.8000000119,109_y_m_h_a.png,I,z,805,7,1,1828.5,268080.3000000119,8112,VNB,A,6
7,test,3,0.0,1-Back,1.0,m,Tue May 05 2026 08:57:25 GMT-0500 (Central Daylight Time),271674.8000000119,139_m_f_n_a.png,I,m,748,8,1,1763.4000000357628,269911.39999997616,8112,VNB,A,7
8,test,3,0.0,1-Back,1.0,m,Tue May 05 2026 08:57:25 GMT-0500 (Central Daylight Time),273641.0,071_y_f_d_a.png,I,m,933,9,1,1963.699999988079,271677.3000000119,8112,VNB,A,8
9,test,3,1.0,1-Back,1.0,m,Tue May 05 2026 08:57:25 GMT-0500 (Central Daylight Time),275440.5,039_o_m_n_a.png,I,m,776,10,1,1796.3999999761581,273644.10000002384,8112,VNB,A,9
10,test,3,0.0,1-Back,1.0,m,Tue May 05 2026 08:57:25 GMT-0500 (Central Daylight Time),277240.0,165_m_m_h_a.png,I,m,777,11,1,1796.8999999761581,275443.10000002384,8112,VNB,A,10
11,test,3,0.0,1-Back,1.0,z,Tue May 05 2026 08:57:25 GMT-0500 (Central Daylight Time),278956.39999997616,139_m_f_h_a.png,I,z,689,12,1,1713.7999999523163,277242.60000002384,8112,VNB,A,11
12,test,3,1.0,1-Back,1.0,m,Tue May 05 2026 08:57:25 GMT-0500 (Central Daylight Time),280705.60000002384,124_o_f_d_a.png,I,m,717,13,1,1747.0,278958.60000002384,8112,VNB,A,12
13,test,3,0.0,1-Back,1.0,z,Tue May 05 2026 08:57:25 GMT-0500 (Central Daylight Time),282471.60000002384,165_m_m_d_a.png,I,z,735,14,1,1763.4000000357628,280708.1999999881,8112,VNB,A,13
14,test,3,0.0,1-Back,1.0,m,Tue May 05 2026 08:57:25 GMT-0500 (Central Daylight Time),284221.39999997616,109_y_m_n_a.png,I,m,722,15,1,1747.0,282474.39999997616,8112,VNB,A,14
15,test,3,1.0,1-Back,1.0,m,Tue May 05 2026 08:57:25 GMT-0500 (Central Daylight Time),285987.0,039_o_m_h_a.png,I,m,748,16,1,1763.0,284224.0,8112,VNB,A,15
16,test,3,0.0,1-Back,1.0,m,Tue May 05 2026 08:57:25 GMT-0500 (Central Daylight Time),287870.10000002384,109_y_m_d_a.png,I,m,854,17,1,1880.5,285989.60000002384,8112,VNB,A,16
17,test,3,1.0,1-Back,1.0,m,Tue May 05 2026 08:57:25 GMT-0500 (Central Daylight Time),289852.8000000119,071_y_f_n_a.png,I,m,852,18,1,1980.199999988079,287872.60000002384,8112,VNB,A,17
0,test,4,1.0,1-Back,,,Tue May 05 2026 08:57:25 GMT-0500 (Central Daylight Time),289852.8000000119,165_m_m_d_a.png,I,space,1292,1,1,1980.199999988079,287872.60000002384,8112,VNB,A,0
1,test,4,0.0,1-Back,1.0,z,Tue May 05 2026 08:57:25 GMT-0500 (Central Daylight Time),295284.3000000119,039_o_m_d_a.png,I,z,1097,2,1,2111.699999988079,293172.60000002384,8112,VNB,A,1
2,test,4,0.0,1-Back,1.0,m,Tue May 05 2026 08:57:25 GMT-0500 (Central Daylight Time),297050.8000000119,109_y_m_h_a.png,I,m,741,3,1,1764.0,295286.8000000119,8112,VNB,A,2
3,test,4,0.0,1-Back,1.0,m,Tue May 05 2026 08:57:25 GMT-0500 (Central Daylight Time),298799.89999997616,139_m_f_n_a.png,I,m,727,4,1,1746.5999999642372,297053.3000000119,8112,VNB,A,3
4,test,4,1.0,1-Back,1.0,m,Tue May 05 2026 08:57:25 GMT-0500 (Central Daylight Time),300566.10000002384,124_o_f_h_a.png,I,m,746,5,1,1763.6000000238419,298802.5,8112,VNB,A,4
5,test,4,0.0,1-Back,1.0,m,Tue May 05 2026 08:57:25 GMT-0500 (Central Daylight Time),302365.5,165_m_m_n_a.png,I,m,778,6,1,1796.800000011921,300568.6999999881,8112,VNB,A,5
6,test,4,0.0,1-Back,1.0,m,Tue May 05 2026 08:57:25 GMT-0500 (Central Daylight Time),304331.60000002384,109_y_m_d_a.png,I,m,940,7,1,1963.5,302368.10000002384,8112,VNB,A,6
7,test,4,1.0,1-Back,1.0,z,Tue May 05 2026 08:57:25 GMT-0500 (Central Daylight Time),306247.6999999881,071_y_f_d_a.png,I,z,894,8,1,1913.5999999642372,304334.10000002384,8112,VNB,A,7
8,test,4,0.0,1-Back,1.0,m,Tue May 05 2026 08:57:25 GMT-0500 (Central Daylight Time),307947.0,139_m_f_h_a.png,I,m,673,9,1,1696.300000011921,306250.6999999881,8112,VNB,A,8
9,test,4,0.0,1-Back,1.0,z,Tue May 05 2026 08:57:25 GMT-0500 (Central Daylight Time),309663.3000000119,039_o_m_h_a.png,I,z,694,10,1,1713.5,307949.8000000119,8112,VNB,A,9
10,test,4,1.0,1-Back,1.0,m,Tue May 05 2026 08:57:25 GMT-0500 (Central Daylight Time),311729.39999997616,124_o_f_n_a.png,I,m,1042,11,1,2063.399999976158,309666.0,8112,VNB,A,10
11,test,4,0.0,1-Back,1.0,m,Tue May 05 2026 08:57:25 GMT-0500 (Central Daylight Time),313545.39999997616,139_m_f_d_a.png,I,m,784,12,1,1813.5999999642372,311731.8000000119,8112,VNB,A,11
12,test,4,0.0,1-Back,1.0,m,Tue May 05 2026 08:57:25 GMT-0500 (Central Daylight Time),315294.6999999881,071_y_f_n_a.png,I,m,719,13,1,1746.800000011921,313547.89999997616,8112,VNB,A,12
13,test,4,0.0,1-Back,1.0,m,Tue May 05 2026 08:57:25 GMT-0500 (Central Daylight Time),317310.8000000119,124_o_f_d_a.png,I,m,987,14,1,2013.1000000238419,315297.6999999881,8112,VNB,A,13
14,test,4,0.0,1-Back,1.0,m,Tue May 05 2026 08:57:25 GMT-0500 (Central Daylight Time),319110.10000002384,071_y_f_h_a.png,I,m,771,15,1,1796.800000011921,317313.3000000119,8112,VNB,A,14
15,test,4,1.0,1-Back,1.0,z,Tue May 05 2026 08:57:25 GMT-0500 (Central Daylight Time),320909.6999999881,165_m_m_h_a.png,I,z,771,16,1,1797.0999999642372,319112.60000002384,8112,VNB,A,15
16,test,4,0.0,1-Back,1.0,m,Tue May 05 2026 08:57:25 GMT-0500 (Central Daylight Time),322609.3000000119,039_o_m_n_a.png,I,m,667,17,1,1697.1000000238419,320912.1999999881,8112,VNB,A,16
17,test,4,1.0,1-Back,1.0,z,Tue May 05 2026 08:57:25 GMT-0500 (Central Daylight Time),324575.3000000119,109_y_m_n_a.png,I,z,944,18,1,1963.6000000238419,322611.6999999881,8112,VNB,A,17
0,test,5,1.0,1-Back,,,Tue May 05 2026 08:57:25 GMT-0500 (Central Daylight Time),324575.3000000119,039_o_m_n_a.png,I,space,1154,1,1,1963.6000000238419,322611.6999999881,8112,VNB,A,0
1,test,5,1.0,1-Back,1.0,m,Tue May 05 2026 08:57:25 GMT-0500 (Central Daylight Time),329890.1999999881,124_o_f_h_a.png,I,m,1100,2,1,2128.399999976158,327761.8000000119,8112,VNB,A,1
2,test,5,0.0,1-Back,1.0,m,Tue May 05 2026 08:57:25 GMT-0500 (Central Daylight Time),332106.0,109_y_m_d_a.png,I,m,1200,3,1,2213.199999988079,329892.8000000119,8112,VNB,A,2
3,test,5,0.0,1-Back,1.0,z,Tue May 05 2026 08:57:25 GMT-0500 (Central Daylight Time),334105.60000002384,039_o_m_d_a.png,I,z,966,4,1,1997.4000000357628,332108.1999999881,8112,VNB,A,3
4,test,5,0.0,1-Back,1.0,m,Tue May 05 2026 08:57:25 GMT-0500 (Central Daylight Time),336114.3000000119,139_m_f_h_a.png,I,m,845,5,1,2005.9000000357628,334108.39999997616,8112,VNB,A,4
5,test,5,0.0,1-Back,1.0,m,Tue May 05 2026 08:57:25 GMT-0500 (Central Daylight Time),337854.39999997616,071_y_f_n_a.png,I,m,729,6,1,1735.7999999523163,336118.60000002384,8112,VNB,A,5
6,test,5,1.0,1-Back,1.0,z,Tue May 05 2026 08:57:25 GMT-0500 (Central Daylight Time),339637.10000002384,124_o_f_n_a.png,I,z,763,7,1,1780.0,337857.10000002384,8112,VNB,A,6
7,test,5,0.0,1-Back,1.0,m,Tue May 05 2026 08:57:25 GMT-0500 (Central Daylight Time),341420.10000002384,139_m_f_d_a.png,I,m,755,8,1,1780.4000000357628,339639.6999999881,8112,VNB,A,7
8,test,5,0.0,1-Back,1.0,m,Tue May 05 2026 08:57:25 GMT-0500 (Central Daylight Time),343202.8000000119,109_y_m_h_a.png,I,m,758,9,1,1780.0,341422.8000000119,8112,VNB,A,8
9,test,5,0.0,1-Back,1.0,m,Tue May 05 2026 08:57:25 GMT-0500 (Central Daylight Time),345085.3000000119,071_y_f_d_a.png,I,m,855,10,1,1879.800000011921,343205.5,8112,VNB,A,9
10,test,5,0.0,1-Back,1.0,m,Tue May 05 2026 08:57:25 GMT-0500 (Central Daylight Time),347068.10000002384,165_m_m_n_a.png,I,m,956,11,1,1980.300000011921,345087.8000000119,8112,VNB,A,10
11,test,5,1.0,1-Back,1.0,z,Tue May 05 2026 08:57:25 GMT-0500 (Central Daylight Time),349017.5,139_m_f_n_a.png,I,z,925,12,1,1946.800000011921,347070.6999999881,8112,VNB,A,11
12,test,5,0.0,1-Back,1.0,m,Tue May 05 2026 08:57:25 GMT-0500 (Central Daylight Time),351050.1999999881,039_o_m_h_a.png,I,m,1008,13,1,2029.8999999761581,349020.3000000119,8112,VNB,A,12
13,test,5,0.0,1-Back,1.0,z,Tue May 05 2026 08:57:25 GMT-0500 (Central Daylight Time),352932.8000000119,165_m_m_h_a.png,I,z,862,14,1,1880.199999988079,351052.60000002384,8112,VNB,A,13
14,test,5,1.0,1-Back,1.0,m,Tue May 05 2026 08:57:25 GMT-0500 (Central Daylight Time),354798.89999997616,124_o_f_d_a.png,I,m,836,15,1,1863.7999999523163,352935.10000002384,8112,VNB,A,14
15,test,5,0.0,1-Back,1.0,m,Tue May 05 2026 08:57:25 GMT-0500 (Central Daylight Time),356731.8000000119,109_y_m_n_a.png,I,m,906,16,1,1930.4000000357628,354801.39999997616,8112,VNB,A,15
16,test,5,0.0,1-Back,1.0,m,Tue May 05 2026 08:57:25 GMT-0500 (Central Daylight Time),358647.8000000119,071_y_f_h_a.png,I,m,886,17,1,1913.4000000357628,356734.39999997616,8112,VNB,A,16
17,test,5,0.0,1-Back,1.0,m,Tue May 05 2026 08:57:25 GMT-0500 (Central Daylight Time),360614.10000002384,165_m_m_d_a.png,I,m,901,18,1,1963.9000000357628,358650.1999999881,8112,VNB,A,17
0,prac,1,0.0,2-Back,,,Tue May 05 2026 08:57:25 GMT-0500 (Central Daylight Time),360614.10000002384,139_m_f_n_a.png,I,space,4129,1,1,1963.9000000357628,358650.1999999881,8112,VNB,A,0
0,prac,1,0.0,2-Back,,,Tue May 05 2026 08:57:25 GMT-0500 (Central Daylight Time),360614.10000002384,124_o_f_h_a.png,I,space,4129,2,1,1963.9000000357628,358650.1999999881,8112,VNB,A,0
1,prac,1,0.0,2-Back,1.0,m,Tue May 05 2026 08:57:25 GMT-0500 (Central Daylight Time),459000.0,039_o_m_d_a.png,I,m,1036,3,1,1842.6000000238419,457157.39999997616,8112,VNB,A,1
2,prac,1,1.0,2-Back,1.0,z,Tue May 05 2026 08:57:25 GMT-0500 (Central Daylight Time),460749.1999999881,165_m_m_h_a.png,I,z,942,4,1,1741.8999999761581,459007.3000000119,8112,VNB,A,2
3,prac,1,0.0,2-Back,1.0,m,Tue May 05 2026 08:57:25 GMT-0500 (Central Daylight Time),463016.5,071_y_f_n_a.png,I,m,1465,5,1,2258.5,460758.0,8112,VNB,A,3
4,prac,1,1.0,2-Back,1.0,z,Tue May 05 2026 08:57:25 GMT-0500 (Central Daylight Time),464931.60000002384,039_o_m_h_a.png,I,z,1132,6,1,1909.7000000476837,463021.89999997616,8112,VNB,A,4
5,prac,1,1.0,2-Back,1.0,z,Tue May 05 2026 08:57:25 GMT-0500 (Central Daylight Time),466964.0,109_y_m_n_a.png,I,z,1223,7,1,2025.199999988079,464938.8000000119,8112,VNB,A,5
6,prac,1,0.0,2-Back,1.0,m,Tue May 05 2026 08:57:25 GMT-0500 (Central Daylight Time),468548.10000002384,139_m_f_d_a.png,I,m,798,8,1,1577.9000000357628,466970.1999999881,8112,VNB,A,6
7,prac,1,0.0,2-Back,1.0,m,Tue May 05 2026 08:57:25 GMT-0500 (Central Daylight Time),470513.0,124_o_f_d_a.png,I,m,1117,9,1,1957.199999988079,468555.8000000119,8112,VNB,A,7
8,prac,1,0.0,2-Back,1.0,m,Tue May 05 2026 08:57:25 GMT-0500 (Central Daylight Time),472229.10000002384,165_m_m_h_a.png,I,m,938,10,1,1709.300000011921,470519.8000000119,8112,VNB,A,8
9,prac,1,1.0,2-Back,1.0,z,Tue May 05 2026 08:57:25 GMT-0500 (Central Daylight Time),474011.8000000119,071_y_f_d_a.png,I,z,972,11,1,1775.800000011921,472236.0,8112,VNB,A,9
10,prac,1,0.0,2-Back,1.0,m,Tue May 05 2026 08:57:25 GMT-0500 (Central Daylight Time),475544.60000002384,039_o_m_n_a.png,I,m,719,12,1,1526.5,474018.10000002384,8112,VNB,A,10
0,test,1,0.0,2-Back,,,Tue May 05 2026 08:57:25 GMT-0500 (Central Daylight Time),475544.60000002384,109_y_m_h_a.png,I,space,8636,1,1,1526.5,474018.10000002384,8112,VNB,A,0
0,test,1,0.0,2-Back,,,Tue May 05 2026 08:57:25 GMT-0500 (Central Daylight Time),475544.60000002384,124_o_f_n_a.png,I,space,8636,2,1,1526.5,474018.10000002384,8112,VNB,A,0
1,test,1,0.0,2-Back,1.0,z,Tue May 05 2026 08:57:25 GMT-0500 (Central Daylight Time),494621.89999997616,039_o_m_h_a.png,I,z,696,3,1,1711.2999999523163,492910.60000002384,8112,VNB,A,1
2,test,1,0.0,2-Back,1.0,m,Tue May 05 2026 08:57:25 GMT-0500 (Central Daylight Time),496537.89999997616,139_m_f_d_a.png,I,m,891,4,1,1913.5999999642372,494624.3000000119,8112,VNB,A,2
3,test,1,1.0,2-Back,1.0,m,Tue May 05 2026 08:57:25 GMT-0500 (Central Daylight Time),498620.60000002384,109_y_m_n_a.png,I,m,1056,5,1,2080.2000000476837,496540.39999997616,8112,VNB,A,3
3,test,1,0.0,2-Back,0.0,z,Tue May 05 2026 08:57:25 GMT-0500 (Central Daylight Time),500570.10000002384,071_y_f_d_a.png,I,m,933,6,1,1946.9000000357628,498623.1999999881,8112,VNB,A,4
4,test,1,0.0,2-Back,1.0,m,Tue May 05 2026 08:57:25 GMT-0500 (Central Daylight Time),502419.60000002384,165_m_m_h_a.png,I,m,823,7,1,1847.300000011921,500572.3000000119,8112,VNB,A,5
5,test,1,1.0,2-Back,1.0,m,Tue May 05 2026 08:57:25 GMT-0500 (Central Daylight Time),504301.89999997616,071_y_f_n_a.png,I,m,861,8,1,1879.5,502422.39999997616,8112,VNB,A,6
6,test,1,0.0,2-Back,1.0,z,Tue May 05 2026 08:57:25 GMT-0500 (Central Daylight Time),506685.0,124_o_f_h_a.png,I,z,1355,9,1,2380.600000023842,504304.39999997616,8112,VNB,A,7
7,test,1,0.0,2-Back,1.0,m,Tue May 05 2026 08:57:25 GMT-0500 (Central Daylight Time),508534.39999997616,039_o_m_d_a.png,I,m,820,10,1,1847.199999988079,506687.1999999881,8112,VNB,A,8
8,test,1,1.0,2-Back,1.0,m,Tue May 05 2026 08:57:25 GMT-0500 (Central Daylight Time),510283.5,165_m_m_d_a.png,I,m,723,11,1,1746.6000000238419,508536.89999997616,8112,VNB,A,9
9,test,1,0.0,2-Back,1.0,m,Tue May 05 2026 08:57:25 GMT-0500 (Central Daylight Time),512549.5,139_m_f_n_a.png,I,m,1237,12,1,2263.699999988079,510285.8000000119,8112,VNB,A,10
10,test,1,0.0,2-Back,1.0,m,Tue May 05 2026 08:57:25 GMT-0500 (Central Daylight Time),514348.89999997616,071_y_f_h_a.png,I,m,780,13,1,1796.7999999523163,512552.10000002384,8112,VNB,A,11
11,test,1,0.0,2-Back,1.0,z,Tue May 05 2026 08:57:25 GMT-0500 (Central Daylight Time),516198.6999999881,165_m_m_n_a.png,I,z,828,14,1,1847.199999988079,514351.5,8112,VNB,A,12
12,test,1,0.0,2-Back,1.0,m,Tue May 05 2026 08:57:25 GMT-0500 (Central Daylight Time),518281.1999999881,109_y_m_d_a.png,I,m,1059,15,1,2080.0,516201.1999999881,8112,VNB,A,13
13,test,1,1.0,2-Back,1.0,m,Tue May 05 2026 08:57:25 GMT-0500 (Central Daylight Time),520697.10000002384,139_m_f_h_a.png,I,m,1392,16,1,2413.400000035763,518283.6999999881,8112,VNB,A,14
14,test,1,0.0,2-Back,1.0,z,Tue May 05 2026 08:57:25 GMT-0500 (Central Daylight Time),522430.10000002384,124_o_f_d_a.png,I,z,704,17,1,1730.2000000476837,520699.89999997616,8112,VNB,A,15
15,test,1,0.0,2-Back,1.0,m,Tue May 05 2026 08:57:25 GMT-0500 (Central Daylight Time),524773.1999999881,039_o_m_n_a.png,I,m,1326,18,1,2340.699999988079,522432.5,8112,VNB,A,16
0,test,2,0.0,2-Back,,,Tue May 05 2026 08:57:25 GMT-0500 (Central Daylight Time),524773.1999999881,165_m_m_h_a.png,I,space,2044,1,1,2340.699999988079,522432.5,8112,VNB,A,0
0,test,2,0.0,2-Back,,,Tue May 05 2026 08:57:25 GMT-0500 (Central Daylight Time),524773.1999999881,071_y_f_n_a.png,I,space,2044,2,1,2340.699999988079,522432.5,8112,VNB,A,0
1,test,2,1.0,2-Back,1.0,z,Tue May 05 2026 08:57:25 GMT-0500 (Central Daylight Time),533609.8000000119,124_o_f_h_a.png,I,z,675,3,1,1695.6000000238419,531914.1999999881,8112,VNB,A,1
2,test,2,0.0,2-Back,1.0,m,Tue May 05 2026 08:57:25 GMT-0500 (Central Daylight Time),535426.1000000238,039_o_m_d_a.png,I,m,791,4,1,1813.9000000357628,533612.1999999881,8112,VNB,A,2
3,test,2,0.0,2-Back,1.0,m,Tue May 05 2026 08:57:25 GMT-0500 (Central Daylight Time),537375.3000000119,139_m_f_d_a.png,I,m,919,5,1,1946.5,535428.8000000119,8112,VNB,A,3
4,test,2,0.0,2-Back,1.0,m,Tue May 05 2026 08:57:25 GMT-0500 (Central Daylight Time),539408.1000000238,109_y_m_h_a.png,I,m,1010,6,1,2030.2000000476837,537377.8999999762,8112,VNB,A,4
5,test,2,0.0,2-Back,1.0,m,Tue May 05 2026 08:57:25 GMT-0500 (Central Daylight Time),541324.0,124_o_f_n_a.png,I,m,889,7,1,1913.6000000238419,539410.3999999762,8112,VNB,A,5
6,test,2,1.0,2-Back,1.0,z,Tue May 05 2026 08:57:25 GMT-0500 (Central Daylight Time),543090.1000000238,039_o_m_h_a.png,I,z,749,8,1,1763.9000000357628,541326.1999999881,8112,VNB,A,6
7,test,2,0.0,2-Back,1.0,m,Tue May 05 2026 08:57:25 GMT-0500 (Central Daylight Time),544956.3000000119,071_y_f_d_a.png,I,m,847,9,1,1863.9000000357628,543092.3999999762,8112,VNB,A,7
8,test,2,0.0,2-Back,1.0,m,Tue May 05 2026 08:57:25 GMT-0500 (Central Daylight Time),547005.3000000119,109_y_m_d_a.png,I,m,1029,10,1,2046.6000000238419,544958.6999999881,8112,VNB,A,8
9,test,2,0.0,2-Back,1.0,m,Tue May 05 2026 08:57:25 GMT-0500 (Central Daylight Time),548989.3999999762,165_m_m_n_a.png,I,m,964,11,1,1981.5999999642372,547007.8000000119,8112,VNB,A,9
10,test,2,0.0,2-Back,1.0,m,Tue May 05 2026 08:57:25 GMT-0500 (Central Daylight Time),550871.0,139_m_f_h_a.png,I,m,860,12,1,1879.0,548992.0,8112,VNB,A,10
11,test,2,1.0,2-Back,1.0,z,Tue May 05 2026 08:57:25 GMT-0500 (Central Daylight Time),552687.1999999881,039_o_m_n_a.png,I,z,786,13,1,1813.699999988079,550873.5,8112,VNB,A,11
12,test,2,0.0,2-Back,1.0,m,Tue May 05 2026 08:57:25 GMT-0500 (Central Daylight Time),554402.8999999762,124_o_f_d_a.png,I,m,697,14,1,1713.199999988079,552689.6999999881,8112,VNB,A,12
13,test,2,0.0,2-Back,1.0,m,Tue May 05 2026 08:57:25 GMT-0500 (Central Daylight Time),556336.0,071_y_f_h_a.png,I,m,902,15,1,1930.8999999761581,554405.1000000238,8112,VNB,A,13
14,test,2,0.0,2-Back,1.0,z,Tue May 05 2026 08:57:25 GMT-0500 (Central Daylight Time),558302.1999999881,165_m_m_d_a.png,I,z,937,16,1,1963.800000011921,556338.3999999762,8112,VNB,A,14
15,test,2,0.0,2-Back,1.0,m,Tue May 05 2026 08:57:25 GMT-0500 (Central Daylight Time),560251.8000000119,109_y_m_n_a.png,I,m,923,17,1,1946.9000000357628,558304.8999999762,8112,VNB,A,15
16,test,2,1.0,2-Back,1.0,m,Tue May 05 2026 08:57:25 GMT-0500 (Central Daylight Time),562567.5,139_m_f_n_a.png,I,m,1293,18,1,2312.800000011921,560254.6999999881,8112,VNB,A,16
0,test,3,1.0,2-Back,,,Tue May 05 2026 08:57:25 GMT-0500 (Central Daylight Time),562567.5,039_o_m_n_a.png,I,space,1274,1,1,2312.800000011921,560254.6999999881,8112,VNB,A,0
0,test,3,1.0,2-Back,,,Tue May 05 2026 08:57:25 GMT-0500 (Central Daylight Time),562567.5,124_o_f_d_a.png,I,space,1274,2,1,2312.800000011921,560254.6999999881,8112,VNB,A,0
1,test,3,0.0,2-Back,1.0,m,Tue May 05 2026 08:57:25 GMT-0500 (Central Daylight Time),570548.1999999881,071_y_f_h_a.png,I,m,623,3,1,1645.0999999642372,568903.1000000238,8112,VNB,A,1
2,test,3,0.0,2-Back,1.0,z,Tue May 05 2026 08:57:25 GMT-0500 (Central Daylight Time),572414.1000000238,139_m_f_d_a.png,I,z,837,4,1,1863.1000000238419,570551.0,8112,VNB,A,2
3,test,3,1.0,2-Back,1.0,m,Tue May 05 2026 08:57:25 GMT-0500 (Central Daylight Time),574247.0,109_y_m_n_a.png,I,m,803,5,1,1830.5,572416.5,8112,VNB,A,3
4,test,3,0.0,2-Back,1.0,m,Tue May 05 2026 08:57:25 GMT-0500 (Central Daylight Time),576362.8999999762,039_o_m_h_a.png,I,m,1090,6,1,2113.399999976158,574249.5,8112,VNB,A,4
5,test,3,0.0,2-Back,1.0,z,Tue May 05 2026 08:57:25 GMT-0500 (Central Daylight Time),578195.8000000119,071_y_f_n_a.png,I,z,814,7,1,1830.300000011921,576365.5,8112,VNB,A,5
6,test,3,1.0,2-Back,1.0,m,Tue May 05 2026 08:57:25 GMT-0500 (Central Daylight Time),580045.3999999762,165_m_m_d_a.png,I,m,829,8,1,1847.2999999523163,578198.1000000238,8112,VNB,A,6
7,test,3,0.0,2-Back,1.0,m,Tue May 05 2026 08:57:25 GMT-0500 (Central Daylight Time),582444.5,109_y_m_d_a.png,I,m,1381,9,1,2396.399999976158,580048.1000000238,8112,VNB,A,7
8,test,3,0.0,2-Back,1.0,m,Tue May 05 2026 08:57:25 GMT-0500 (Central Daylight Time),584843.3999999762,124_o_f_h_a.png,I,m,1380,10,1,2396.399999976158,582447.0,8112,VNB,A,8
8,test,3,1.0,2-Back,0.0,m,Tue May 05 2026 08:57:25 GMT-0500 (Central Daylight Time),587409.6000000238,139_m_f_n_a.png,I,z,1534,11,1,2563.7000000476837,584845.8999999762,8112,VNB,A,9
9,test,3,1.0,2-Back,1.0,z,Tue May 05 2026 08:57:25 GMT-0500 (Central Daylight Time),590292.1000000238,165_m_m_h_a.png,I,z,1856,12,1,2880.100000023842,587412.0,8112,VNB,A,10
10,test,3,0.0,2-Back,1.0,m,Tue May 05 2026 08:57:25 GMT-0500 (Central Daylight Time),592457.8999999762,071_y_f_d_a.png,I,m,1149,13,1,2163.2999999523163,590294.6000000238,8112,VNB,A,11
11,test,3,0.0,2-Back,1.0,m,Tue May 05 2026 08:57:25 GMT-0500 (Central Daylight Time),594857.6999999881,124_o_f_n_a.png,I,m,1375,14,1,2397.399999976158,592460.3000000119,8112,VNB,A,12
12,test,3,0.0,2-Back,1.0,z,Tue May 05 2026 08:57:25 GMT-0500 (Central Daylight Time),597106.5,039_o_m_d_a.png,I,z,1216,15,1,2246.399999976158,594860.1000000238,8112,VNB,A,13
13,test,3,1.0,2-Back,1.0,m,Tue May 05 2026 08:57:25 GMT-0500 (Central Daylight Time),599422.6000000238,139_m_f_h_a.png,I,m,1294,16,1,2313.7000000476837,597108.8999999762,8112,VNB,A,14
14,test,3,0.0,2-Back,1.0,m,Tue May 05 2026 08:57:25 GMT-0500 (Central Daylight Time),601588.3999999762,165_m_m_n_a.png,I,m,1139,17,1,2163.5,599424.8999999762,8112,VNB,A,15
15,test,3,0.0,2-Back,1.0,z,Tue May 05 2026 08:57:25 GMT-0500 (Central Daylight Time),603288.1000000238,109_y_m_h_a.png,I,z,677,18,1,1697.1000000238419,601591.0,8112,VNB,A,16
0,test,4,0.0,2-Back,,,Tue May 05 2026 08:57:25 GMT-0500 (Central Daylight Time),603288.1000000238,139_m_f_n_a.png,I,space,1377,1,1,1697.1000000238419,601591.0,8112,VNB,A,0
0,test,4,0.0,2-Back,,,Tue May 05 2026 08:57:25 GMT-0500 (Central Daylight Time),603288.1000000238,039_o_m_n_a.png,I,space,1377,2,1,1697.1000000238419,601591.0,8112,VNB,A,0
1,test,4,1.0,2-Back,1.0,m,Tue May 05 2026 08:57:25 GMT-0500 (Central Daylight Time),611818.8000000119,109_y_m_h_a.png,I,m,1066,3,1,2079.0,609739.8000000119,8112,VNB,A,1
2,test,4,1.0,2-Back,1.0,m,Tue May 05 2026 08:57:25 GMT-0500 (Central Daylight Time),613867.6000000238,124_o_f_d_a.png,I,m,1021,4,1,2046.1000000238419,611821.5,8112,VNB,A,2
3,test,4,0.0,2-Back,1.0,z,Tue May 05 2026 08:57:25 GMT-0500 (Central Daylight Time),615850.6000000238,039_o_m_h_a.png,I,z,957,5,1,1980.6000000238419,613870.0,8112,VNB,A,3
4,test,4,0.0,2-Back,1.0,m,Tue May 05 2026 08:57:25 GMT-0500 (Central Daylight Time),617833.3999999762,165_m_m_n_a.png,I,m,958,6,1,1980.2999999523163,615853.1000000238,8112,VNB,A,4
5,test,4,0.0,2-Back,1.0,m,Tue May 05 2026 08:57:25 GMT-0500 (Central Daylight Time),619982.8999999762,139_m_f_d_a.png,I,m,1114,7,1,2147.099999964237,617835.8000000119,8112,VNB,A,5
6,test,4,0.0,2-Back,1.0,z,Tue May 05 2026 08:57:25 GMT-0500 (Central Daylight Time),622198.6999999881,071_y_f_n_a.png,I,z,1195,8,1,2213.5,619985.1999999881,8112,VNB,A,6
6,test,4,1.0,2-Back,0.0,m,Tue May 05 2026 08:57:25 GMT-0500 (Central Daylight Time),624397.6999999881,124_o_f_h_a.png,I,z,1177,9,1,2196.0,622201.6999999881,8112,VNB,A,7
7,test,4,0.0,2-Back,1.0,m,Tue May 05 2026 08:57:25 GMT-0500 (Central Daylight Time),626363.8999999762,165_m_m_h_a.png,I,m,948,10,1,1963.8999999761581,624400.0,8112,VNB,A,8
8,test,4,0.0,2-Back,1.0,m,Tue May 05 2026 08:57:25 GMT-0500 (Central Daylight Time),628380.0,071_y_f_d_a.png,I,m,997,11,1,2013.800000011921,626366.1999999881,8112,VNB,A,9
9,test,4,0.0,2-Back,1.0,m,Tue May 05 2026 08:57:25 GMT-0500 (Central Daylight Time),630279.5,109_y_m_n_a.png,I,m,877,12,1,1896.8999999761581,628382.6000000238,8112,VNB,A,10
9,test,4,0.0,2-Back,0.0,z,Tue May 05 2026 08:57:25 GMT-0500 (Central Daylight Time),632312.1999999881,039_o_m_d_a.png,I,m,1002,13,1,2030.199999988079,630282.0,8112,VNB,A,11
10,test,4,1.0,2-Back,1.0,m,Tue May 05 2026 08:57:25 GMT-0500 (Central Daylight Time),634512.6999999881,139_m_f_h_a.png,I,m,1169,14,1,2197.800000011921,632314.8999999762,8112,VNB,A,12
10,test,4,1.0,2-Back,0.0,m,Tue May 05 2026 08:57:25 GMT-0500 (Central Daylight Time),636694.1999999881,071_y_f_h_a.png,I,z,1162,15,1,2179.0,634515.1999999881,8112,VNB,A,13
10,test,4,0.0,2-Back,0.0,m,Tue May 05 2026 08:57:25 GMT-0500 (Central Daylight Time),638893.8999999762,124_o_f_n_a.png,I,z,1179,16,1,2197.199999988079,636696.6999999881,8112,VNB,A,14
11,test,4,0.0,2-Back,1.0,m,Tue May 05 2026 08:57:25 GMT-0500 (Central Daylight Time),640826.1999999881,109_y_m_d_a.png,I,m,915,17,1,1929.699999988079,638896.5,8112,VNB,A,15
12,test,4,1.0,2-Back,1.0,m,Tue May 05 2026 08:57:25 GMT-0500 (Central Daylight Time),642825.3000000119,165_m_m_d_a.png,I,m,966,18,1,1996.800000011921,640828.5,8112,VNB,A,16
0,test,5,1.0,2-Back,,,Tue May 05 2026 08:57:25 GMT-0500 (Central Daylight Time),642825.3000000119,071_y_f_d_a.png,I,space,1568,1,1,1996.800000011921,640828.5,8112,VNB,A,0
0,test,5,1.0,2-Back,,,Tue May 05 2026 08:57:25 GMT-0500 (Central Daylight Time),642825.3000000119,124_o_f_h_a.png,I,space,1568,2,1,1996.800000011921,640828.5,8112,VNB,A,0
1,test,5,1.0,2-Back,1.0,z,Tue May 05 2026 08:57:25 GMT-0500 (Central Daylight Time),651539.8999999762,039_o_m_d_a.png,I,z,1023,3,1,2045.0999999642372,649494.8000000119,8112,VNB,A,1
2,test,5,1.0,2-Back,1.0,m,Tue May 05 2026 08:57:25 GMT-0500 (Central Daylight Time),653372.3999999762,139_m_f_n_a.png,I,m,814,4,1,1830.0,651542.3999999762,8112,VNB,A,2
3,test,5,0.0,2-Back,1.0,m,Tue May 05 2026 08:57:25 GMT-0500 (Central Daylight Time),655438.3999999762,165_m_m_h_a.png,I,m,1045,5,1,2063.399999976158,653375.0,8112,VNB,A,3
4,test,5,0.0,2-Back,1.0,z,Tue May 05 2026 08:57:25 GMT-0500 (Central Daylight Time),657372.1000000238,071_y_f_n_a.png,I,z,915,6,1,1931.300000011921,655440.8000000119,8112,VNB,A,4
5,test,5,0.0,2-Back,1.0,m,Tue May 05 2026 08:57:25 GMT-0500 (Central Daylight Time),659353.8999999762,124_o_f_d_a.png,I,m,958,7,1,1979.5999999642372,657374.3000000119,8112,VNB,A,5
5,test,5,0.0,2-Back,0.0,m,Tue May 05 2026 08:57:25 GMT-0500 (Central Daylight Time),661486.3999999762,039_o_m_h_a.png,I,z,1112,8,1,2129.899999976158,659356.5,8112,VNB,A,6
6,test,5,1.0,2-Back,1.0,z,Tue May 05 2026 08:57:25 GMT-0500 (Central Daylight Time),663602.3999999762,139_m_f_d_a.png,I,z,1084,9,1,2113.5,661488.8999999762,8112,VNB,A,7
7,test,5,0.0,2-Back,1.0,m,Tue May 05 2026 08:57:25 GMT-0500 (Central Daylight Time),665535.1000000238,109_y_m_n_a.png,I,m,903,10,1,1930.0,663605.1000000238,8112,VNB,A,8
8,test,5,0.0,2-Back,1.0,m,Tue May 05 2026 08:57:25 GMT-0500 (Central Daylight Time),667717.6999999881,165_m_m_n_a.png,I,m,1162,11,1,2180.300000011921,665537.3999999762,8112,VNB,A,9
9,test,5,0.0,2-Back,1.0,m,Tue May 05 2026 08:57:25 GMT-0500 (Central Daylight Time),669717.5,071_y_f_h_a.png,I,m,979,12,1,1997.199999988079,667720.3000000119,8112,VNB,A,10
10,test,5,0.0,2-Back,1.0,m,Tue May 05 2026 08:57:25 GMT-0500 (Central Daylight Time),671816.6999999881,109_y_m_d_a.png,I,m,1068,13,1,2096.800000011921,669719.8999999762,8112,VNB,A,11
11,test,5,1.0,2-Back,1.0,z,Tue May 05 2026 08:57:25 GMT-0500 (Central Daylight Time),673699.3999999762,139_m_f_h_a.png,I,z,857,14,1,1880.2999999523163,671819.1000000238,8112,VNB,A,12
12,test,5,0.0,2-Back,1.0,m,Tue May 05 2026 08:57:25 GMT-0500 (Central Daylight Time),675732.1999999881,039_o_m_n_a.png,I,m,1007,15,1,2030.300000011921,673701.8999999762,8112,VNB,A,13
12,test,5,0.0,2-Back,0.0,m,Tue May 05 2026 08:57:25 GMT-0500 (Central Daylight Time),678164.3999999762,165_m_m_d_a.png,I,z,1413,16,1,2429.7999999523163,675734.6000000238,8112,VNB,A,14
13,test,5,0.0,2-Back,1.0,z,Tue May 05 2026 08:57:25 GMT-0500 (Central Daylight Time),680297.3000000119,124_o_f_n_a.png,I,z,1109,17,1,2130.5,678166.8000000119,8112,VNB,A,15
14,test,5,1.0,2-Back,1.0,m,Tue May 05 2026 08:57:25 GMT-0500 (Central Daylight Time),682513.1000000238,109_y_m_h_a.png,I,m,1192,18,1,2213.400000035763,680299.6999999881,8112,VNB,A,16
