block_c,block_dur,condition,countdown,datetime,endtime,list,multichar_response,project,response,response_time,session_number,start_end,starttime,subject_id,task,task_vers,trial
,,,,Wed May 20 2026 18:43:54 GMT-0500 (Central Daylight Time),,,,I,space,520,1,,,8114,WL,B,
prac,,0,,Wed May 20 2026 18:43:54 GMT-0500 (Central Daylight Time),,NA,b,I,b,7871,1,,,8114,WL,B,1.0
prac,,0,,Wed May 20 2026 18:43:54 GMT-0500 (Central Daylight Time),,NA,bo,I,o,449,1,,,8114,WL,B,1.0
prac,,0,,Wed May 20 2026 18:43:54 GMT-0500 (Central Daylight Time),,NA,boo,I,o,143,1,,,8114,WL,B,1.0
prac,,0,,Wed May 20 2026 18:43:54 GMT-0500 (Central Daylight Time),,NA,boos,I,s,120,1,,,8114,WL,B,1.0
prac,,0,,Wed May 20 2026 18:43:54 GMT-0500 (Central Daylight Time),,NA,boost,I,t,269,1,,,8114,WL,B,1.0
prac,,0,,Wed May 20 2026 18:43:54 GMT-0500 (Central Daylight Time),,NA,boostenter,I,enter,2280,1,,,8114,WL,B,1.0
1,1.2650001049041748,learn,58734.999895095825,Wed May 20 2026 18:43:54 GMT-0500 (Central Daylight Time),139040.89999997616,A,s,I,s,1256,1,1265.1000000238419,137775.79999995232,8114,WL,B,1.0
1,1.5139999389648438,learn,58486.000061035156,Wed May 20 2026 18:43:54 GMT-0500 (Central Daylight Time),139290.19999992847,A,st,I,t,230,1,1514.3999999761581,137775.79999995232,8114,WL,B,1.0
1,1.7150001525878906,learn,58284.99984741211,Wed May 20 2026 18:43:54 GMT-0500 (Central Daylight Time),139490.59999990463,A,str,I,r,181,1,1714.7999999523163,137775.79999995232,8114,WL,B,1.0
1,2.015000104904175,learn,57984.999895095825,Wed May 20 2026 18:43:54 GMT-0500 (Central Daylight Time),139790.29999995232,A,stre,I,e,285,1,2014.5,137775.79999995232,8114,WL,B,1.0
1,2.13100004196167,learn,57868.99995803833,Wed May 20 2026 18:43:54 GMT-0500 (Central Daylight Time),139907.0,A,stree,I,e,105,1,2131.2000000476837,137775.79999995232,8114,WL,B,1.0
1,2.38100004196167,learn,57618.99995803833,Wed May 20 2026 18:43:54 GMT-0500 (Central Daylight Time),140157.0,A,street,I,t,236,1,2381.2000000476837,137775.79999995232,8114,WL,B,1.0
1,3.1640000343322754,learn,56835.999965667725,Wed May 20 2026 18:43:54 GMT-0500 (Central Daylight Time),140939.59999990463,A,streetenter,I,enter,769,1,3163.7999999523163,137775.79999995232,8114,WL,B,1.0
1,4.013999938964844,learn,55986.000061035156,Wed May 20 2026 18:43:54 GMT-0500 (Central Daylight Time),141789.59999990463,A,g,I,g,836,1,849.3999999761581,140940.19999992847,8114,WL,B,2.0
1,4.263999938964844,learn,55736.000061035156,Wed May 20 2026 18:43:54 GMT-0500 (Central Daylight Time),142039.69999992847,A,gr,I,r,242,1,1099.5,140940.19999992847,8114,WL,B,2.0
1,4.96399998664856,learn,55036.00001335144,Wed May 20 2026 18:43:54 GMT-0500 (Central Daylight Time),142739.39999997616,A,gra,I,a,688,1,1799.2000000476837,140940.19999992847,8114,WL,B,2.0
1,5.263999938964844,learn,54736.000061035156,Wed May 20 2026 18:43:54 GMT-0500 (Central Daylight Time),143039.5,A,gras,I,s,283,1,2099.3000000715256,140940.19999992847,8114,WL,B,2.0
1,5.413000106811523,learn,54586.99989318848,Wed May 20 2026 18:43:54 GMT-0500 (Central Daylight Time),143189.19999992847,A,grass,I,s,135,1,2249.0,140940.19999992847,8114,WL,B,2.0
1,6.312999963760376,learn,53687.000036239624,Wed May 20 2026 18:43:54 GMT-0500 (Central Daylight Time),144089.0,A,grassenter,I,enter,882,1,3148.8000000715256,140940.19999992847,8114,WL,B,2.0
1,6.713000059127808,learn,53286.99994087219,Wed May 20 2026 18:43:54 GMT-0500 (Central Daylight Time),144488.79999995232,A,d,I,d,392,1,399.39999997615814,144089.39999997616,8114,WL,B,3.0
1,6.913000106811523,learn,53086.99989318848,Wed May 20 2026 18:43:54 GMT-0500 (Central Daylight Time),144688.59999990463,A,do,I,o,191,1,599.1999999284744,144089.39999997616,8114,WL,B,3.0
1,7.062999963760376,learn,52937.000036239624,Wed May 20 2026 18:43:54 GMT-0500 (Central Daylight Time),144838.89999997616,A,doo,I,o,135,1,749.5,144089.39999997616,8114,WL,B,3.0
1,7.246000051498413,learn,52753.99994850159,Wed May 20 2026 18:43:54 GMT-0500 (Central Daylight Time),145022.0,A,door,I,r,178,1,932.6000000238419,144089.39999997616,8114,WL,B,3.0
1,8.446000099182129,learn,51553.99990081787,Wed May 20 2026 18:43:54 GMT-0500 (Central Daylight Time),146221.69999992847,A,doorenter,I,enter,1178,1,2132.2999999523163,144089.39999997616,8114,WL,B,3.0
1,9.111999988555908,learn,50888.00001144409,Wed May 20 2026 18:43:54 GMT-0500 (Central Daylight Time),146887.79999995232,A,a,I,a,658,1,665.7000000476837,146222.09999990463,8114,WL,B,4.0
1,9.562000036239624,learn,50437.999963760376,Wed May 20 2026 18:43:54 GMT-0500 (Central Daylight Time),147338.19999992847,A,ar,I,r,432,1,1116.1000000238419,146222.09999990463,8114,WL,B,4.0
1,11.361000061035156,learn,48638.999938964844,Wed May 20 2026 18:43:54 GMT-0500 (Central Daylight Time),149137.19999992847,A,arm,I,m,1782,1,2915.100000023842,146222.09999990463,8114,WL,B,4.0
1,13.361000061035156,learn,46638.999938964844,Wed May 20 2026 18:43:54 GMT-0500 (Central Daylight Time),151136.79999995232,A,armenter,I,enter,1982,1,4914.700000047684,146222.09999990463,8114,WL,B,4.0
1,14.66100001335144,learn,45338.99998664856,Wed May 20 2026 18:43:54 GMT-0500 (Central Daylight Time),152436.5,A,w,I,w,1286,1,1299.3000000715256,151137.19999992847,8114,WL,B,5.0
1,14.861000061035156,learn,45138.999938964844,Wed May 20 2026 18:43:54 GMT-0500 (Central Daylight Time),152636.29999995232,A,wi,I,i,187,1,1499.1000000238419,151137.19999992847,8114,WL,B,5.0
1,15.276999950408936,learn,44723.000049591064,Wed May 20 2026 18:43:54 GMT-0500 (Central Daylight Time),153052.79999995232,A,wif,I,f,396,1,1915.6000000238419,151137.19999992847,8114,WL,B,5.0
1,15.445000171661377,learn,44554.99982833862,Wed May 20 2026 18:43:54 GMT-0500 (Central Daylight Time),153220.5,A,wife,I,e,155,1,2083.3000000715256,151137.19999992847,8114,WL,B,5.0
1,16.30999994277954,learn,43690.00005722046,Wed May 20 2026 18:43:54 GMT-0500 (Central Daylight Time),154085.79999995232,A,wifeenter,I,enter,851,1,2948.600000023842,151137.19999992847,8114,WL,B,5.0
1,17.7260000705719,learn,42273.9999294281,Wed May 20 2026 18:43:54 GMT-0500 (Central Daylight Time),155502.0,A,s,I,s,1401,1,1415.9000000953674,154086.09999990463,8114,WL,B,6.0
1,17.9760000705719,learn,42023.9999294281,Wed May 20 2026 18:43:54 GMT-0500 (Central Daylight Time),155751.79999995232,A,st,I,t,234,1,1665.7000000476837,154086.09999990463,8114,WL,B,6.0
1,18.575999975204468,learn,41424.00002479553,Wed May 20 2026 18:43:54 GMT-0500 (Central Daylight Time),156351.79999995232,A,sta,I,a,584,1,2265.7000000476837,154086.09999990463,8114,WL,B,6.0
1,18.95900011062622,learn,41040.99988937378,Wed May 20 2026 18:43:54 GMT-0500 (Central Daylight Time),156735.09999990463,A,star,I,r,375,1,2649.0,154086.09999990463,8114,WL,B,6.0
1,20.174999952316284,learn,39825.000047683716,Wed May 20 2026 18:43:54 GMT-0500 (Central Daylight Time),157951.19999992847,A,starenter,I,enter,1208,1,3865.100000023842,154086.09999990463,8114,WL,B,6.0
1,21.009000062942505,learn,38990.999937057495,Wed May 20 2026 18:43:54 GMT-0500 (Central Daylight Time),158784.39999997616,A,w,I,w,817,1,832.8999999761581,157951.5,8114,WL,B,7.0
1,21.125,learn,38875.0,Wed May 20 2026 18:43:54 GMT-0500 (Central Daylight Time),158901.09999990463,A,wi,I,i,94,1,949.5999999046326,157951.5,8114,WL,B,7.0
1,21.375,learn,38625.0,Wed May 20 2026 18:43:54 GMT-0500 (Central Daylight Time),159150.89999997616,A,win,I,n,235,1,1199.3999999761581,157951.5,8114,WL,B,7.0
1,21.742000102996826,learn,38257.999897003174,Wed May 20 2026 18:43:54 GMT-0500 (Central Daylight Time),159517.19999992847,A,wind,I,d,361,1,1565.6999999284744,157951.5,8114,WL,B,7.0
1,21.924999952316284,learn,38075.000047683716,Wed May 20 2026 18:43:54 GMT-0500 (Central Daylight Time),159701.09999990463,A,windo,I,o,171,1,1749.5999999046326,157951.5,8114,WL,B,7.0
1,22.092000007629395,learn,37907.999992370605,Wed May 20 2026 18:43:54 GMT-0500 (Central Daylight Time),159867.39999997616,A,window,I,w,155,1,1915.8999999761581,157951.5,8114,WL,B,7.0
1,22.841000080108643,learn,37158.99991989136,Wed May 20 2026 18:43:54 GMT-0500 (Central Daylight Time),160617.19999992847,A,windowenter,I,enter,733,1,2665.6999999284744,157951.5,8114,WL,B,7.0
1,23.591000080108643,learn,36408.99991989136,Wed May 20 2026 18:43:54 GMT-0500 (Central Daylight Time),161366.89999997616,A,c,I,c,735,1,749.2000000476837,160617.69999992847,8114,WL,B,8.0
1,23.758000135421753,learn,36241.99986457825,Wed May 20 2026 18:43:54 GMT-0500 (Central Daylight Time),161533.69999992847,A,ci,I,i,153,1,916.0,160617.69999992847,8114,WL,B,8.0
1,24.207000017166138,learn,35792.99998283386,Wed May 20 2026 18:43:54 GMT-0500 (Central Daylight Time),161983.19999992847,A,cit,I,t,442,1,1365.5,160617.69999992847,8114,WL,B,8.0
1,24.35800004005432,learn,35641.99995994568,Wed May 20 2026 18:43:54 GMT-0500 (Central Daylight Time),162133.29999995232,A,city,I,y,145,1,1515.6000000238419,160617.69999992847,8114,WL,B,8.0
1,25.657000064849854,learn,34342.99993515015,Wed May 20 2026 18:43:54 GMT-0500 (Central Daylight Time),163432.89999997616,A,cityenter,I,enter,1291,1,2815.2000000476837,160617.69999992847,8114,WL,B,8.0
1,26.057000160217285,learn,33942.999839782715,Wed May 20 2026 18:43:54 GMT-0500 (Central Daylight Time),163832.59999990463,A,c,I,c,391,1,399.2999999523163,163433.29999995232,8114,WL,B,9.0
1,26.27400016784668,learn,33725.99983215332,Wed May 20 2026 18:43:54 GMT-0500 (Central Daylight Time),164049.59999990463,A,ca,I,a,207,1,616.2999999523163,163433.29999995232,8114,WL,B,9.0
1,26.486999988555908,learn,33513.00001144409,Wed May 20 2026 18:43:54 GMT-0500 (Central Daylight Time),164262.39999997616,A,cab,I,b,207,1,829.1000000238419,163433.29999995232,8114,WL,B,9.0
1,26.707000017166138,learn,33292.99998283386,Wed May 20 2026 18:43:54 GMT-0500 (Central Daylight Time),164482.29999995232,A,cabi,I,i,202,1,1049.0,163433.29999995232,8114,WL,B,9.0
1,26.94000005722046,learn,33059.99994277954,Wed May 20 2026 18:43:54 GMT-0500 (Central Daylight Time),164715.79999995232,A,cabin,I,n,221,1,1282.5,163433.29999995232,8114,WL,B,9.0
1,27.84000015258789,learn,32159.99984741211,Wed May 20 2026 18:43:54 GMT-0500 (Central Daylight Time),165615.5,A,cabinenter,I,enter,885,1,2182.2000000476837,163433.29999995232,8114,WL,B,9.0
1,28.34000015258789,learn,31659.99984741211,Wed May 20 2026 18:43:54 GMT-0500 (Central Daylight Time),166115.29999995232,A,f,I,f,489,1,499.5,165615.79999995232,8114,WL,B,10.0
1,28.473000049591064,learn,31526.999950408936,Wed May 20 2026 18:43:54 GMT-0500 (Central Daylight Time),166248.59999990463,A,fi,I,i,125,1,632.7999999523163,165615.79999995232,8114,WL,B,10.0
1,28.706000089645386,learn,31293.999910354614,Wed May 20 2026 18:43:54 GMT-0500 (Central Daylight Time),166482.09999990463,A,fir,I,r,216,1,866.2999999523163,165615.79999995232,8114,WL,B,10.0
1,28.9060001373291,learn,31093.9998626709,Wed May 20 2026 18:43:54 GMT-0500 (Central Daylight Time),166681.89999997616,A,fire,I,e,190,1,1066.1000000238419,165615.79999995232,8114,WL,B,10.0
1,30.23900008201599,learn,29760.99991798401,Wed May 20 2026 18:43:54 GMT-0500 (Central Daylight Time),168014.79999995232,A,fireenter,I,enter,1326,1,2399.0,165615.79999995232,8114,WL,B,10.0
1,31.371999979019165,learn,28628.000020980835,Wed May 20 2026 18:43:54 GMT-0500 (Central Daylight Time),169147.59999990463,A,l,I,l,1121,1,1132.3999999761581,168015.19999992847,8114,WL,B,11.0
1,31.505000114440918,learn,28494.999885559082,Wed May 20 2026 18:43:54 GMT-0500 (Central Daylight Time),169281.09999990463,A,la,I,a,125,1,1265.8999999761581,168015.19999992847,8114,WL,B,11.0
1,32.07200002670288,learn,27927.99997329712,Wed May 20 2026 18:43:54 GMT-0500 (Central Daylight Time),169847.5,A,lak,I,k,551,1,1832.3000000715256,168015.19999992847,8114,WL,B,11.0
1,32.23800015449524,learn,27761.99984550476,Wed May 20 2026 18:43:54 GMT-0500 (Central Daylight Time),170013.79999995232,A,lake,I,e,161,1,1998.6000000238419,168015.19999992847,8114,WL,B,11.0
1,34.07100009918213,learn,25928.99990081787,Wed May 20 2026 18:43:54 GMT-0500 (Central Daylight Time),171846.89999997616,A,lakeenter,I,enter,1818,1,3831.7000000476837,168015.19999992847,8114,WL,B,11.0
1,45.200000047683716,learn,14799.999952316284,Wed May 20 2026 18:43:54 GMT-0500 (Central Daylight Time),182976.79999995232,A,c,I,c,11112,1,11129.5,171847.29999995232,8114,WL,B,12.0
1,45.41700005531311,learn,14582.99994468689,Wed May 20 2026 18:43:54 GMT-0500 (Central Daylight Time),183193.89999997616,A,ci,I,i,207,1,11346.600000023842,171847.29999995232,8114,WL,B,12.0
1,45.83299994468689,learn,14167.00005531311,Wed May 20 2026 18:43:54 GMT-0500 (Central Daylight Time),183610.0,A,cit,I,t,399,1,11762.700000047684,171847.29999995232,8114,WL,B,12.0
1,46.31599998474121,learn,13684.000015258789,Wed May 20 2026 18:43:54 GMT-0500 (Central Daylight Time),184093.29999995232,A,city,I,y,462,1,12246.0,171847.29999995232,8114,WL,B,12.0
1,47.682000160217285,learn,12317.999839782715,Wed May 20 2026 18:43:54 GMT-0500 (Central Daylight Time),185459.29999995232,A,cityenter,I,enter,1346,1,13612.0,171847.29999995232,8114,WL,B,12.0
1,60.01200008392334,learn,-12.000083923339844,Wed May 20 2026 18:43:54 GMT-0500 (Central Daylight Time),197788.89999997616,A,None,I,None,12325,1,12329.200000047684,185459.69999992847,8114,WL,B,13.0
2,1.1989998817443848,learn,58801.000118255615,Wed May 20 2026 18:43:54 GMT-0500 (Central Daylight Time),273248.39999997616,A,s,I,s,1192,1,1199.3000000715256,272049.09999990463,8114,WL,B,1.0
2,1.4489998817443848,learn,58551.000118255615,Wed May 20 2026 18:43:54 GMT-0500 (Central Daylight Time),273498.39999997616,A,st,I,t,230,1,1449.3000000715256,272049.09999990463,8114,WL,B,1.0
2,1.6489999294281006,learn,58351.0000705719,Wed May 20 2026 18:43:54 GMT-0500 (Central Daylight Time),273698.2999999523,A,str,I,r,182,1,1649.2000000476837,272049.09999990463,8114,WL,B,1.0
2,1.8989999294281006,learn,58101.0000705719,Wed May 20 2026 18:43:54 GMT-0500 (Central Daylight Time),273948.2999999523,A,stre,I,e,230,1,1899.2000000476837,272049.09999990463,8114,WL,B,1.0
2,2.0329999923706055,learn,57967.000007629395,Wed May 20 2026 18:43:54 GMT-0500 (Central Daylight Time),274081.7999999523,A,stree,I,e,116,1,2032.7000000476837,272049.09999990463,8114,WL,B,1.0
2,2.2659997940063477,learn,57734.00020599365,Wed May 20 2026 18:43:54 GMT-0500 (Central Daylight Time),274314.59999990463,A,street,I,t,214,1,2265.5,272049.09999990463,8114,WL,B,1.0
2,3.248999834060669,learn,56751.00016593933,Wed May 20 2026 18:43:54 GMT-0500 (Central Daylight Time),275297.7999999523,A,streetenter,I,enter,965,1,3248.7000000476837,272049.09999990463,8114,WL,B,1.0
2,4.098999977111816,learn,55901.00002288818,Wed May 20 2026 18:43:54 GMT-0500 (Central Daylight Time),276147.59999990463,A,p,I,p,830,1,849.2999999523163,275298.2999999523,8114,WL,B,2.0
2,4.431999921798706,learn,55568.000078201294,Wed May 20 2026 18:43:54 GMT-0500 (Central Daylight Time),276480.7999999523,A,pu,I,u,317,1,1182.5,275298.2999999523,8114,WL,B,2.0
2,4.947999954223633,learn,55052.00004577637,Wed May 20 2026 18:43:54 GMT-0500 (Central Daylight Time),276997.2999999523,A,pup,I,p,504,1,1699.0,275298.2999999523,8114,WL,B,2.0
2,5.2149999141693115,learn,54785.00008583069,Wed May 20 2026 18:43:54 GMT-0500 (Central Daylight Time),277264.09999990463,A,pupi,I,i,250,1,1965.7999999523163,275298.2999999523,8114,WL,B,2.0
2,5.480999946594238,learn,54519.00005340576,Wed May 20 2026 18:43:54 GMT-0500 (Central Daylight Time),277530.09999990463,A,pupil,I,l,247,1,2231.7999999523163,275298.2999999523,8114,WL,B,2.0
2,5.880999803543091,learn,54119.00019645691,Wed May 20 2026 18:43:54 GMT-0500 (Central Daylight Time),277930.39999997616,A,pupilenter,I,enter,390,1,2632.100000023842,275298.2999999523,8114,WL,B,2.0
2,6.613999843597412,learn,53386.00015640259,Wed May 20 2026 18:43:54 GMT-0500 (Central Daylight Time),278663.5,A,s,I,s,725,1,732.7000000476837,277930.7999999523,8114,WL,B,3.0
2,6.763999938964844,learn,53236.000061035156,Wed May 20 2026 18:43:54 GMT-0500 (Central Daylight Time),278813.39999997616,A,sk,I,k,128,1,882.6000000238419,277930.7999999523,8114,WL,B,3.0
2,6.947999954223633,learn,53052.00004577637,Wed May 20 2026 18:43:54 GMT-0500 (Central Daylight Time),278996.59999990463,A,ski,I,i,163,1,1065.7999999523163,277930.7999999523,8114,WL,B,3.0
2,7.146999835968018,learn,52853.00016403198,Wed May 20 2026 18:43:54 GMT-0500 (Central Daylight Time),279196.2999999523,A,skin,I,n,188,1,1265.5,277930.7999999523,8114,WL,B,3.0
2,8.579999923706055,learn,51420.000076293945,Wed May 20 2026 18:43:54 GMT-0500 (Central Daylight Time),280629.1999999285,A,skinenter,I,enter,1412,1,2698.399999976158,277930.7999999523,8114,WL,B,3.0
2,9.013999938964844,learn,50986.000061035156,Wed May 20 2026 18:43:54 GMT-0500 (Central Daylight Time),281062.59999990463,A,p,I,p,427,1,433.0,280629.59999990463,8114,WL,B,4.0
2,9.27999997138977,learn,50720.00002861023,Wed May 20 2026 18:43:54 GMT-0500 (Central Daylight Time),281329.1999999285,A,pi,I,i,257,1,699.6000000238419,280629.59999990463,8114,WL,B,4.0
2,9.596999883651733,learn,50403.00011634827,Wed May 20 2026 18:43:54 GMT-0500 (Central Daylight Time),281646.0,A,pip,I,p,303,1,1016.4000000953674,280629.59999990463,8114,WL,B,4.0
2,9.829999923706055,learn,50170.000076293945,Wed May 20 2026 18:43:54 GMT-0500 (Central Daylight Time),281879.0,A,pipe,I,e,218,1,1249.4000000953674,280629.59999990463,8114,WL,B,4.0
2,10.562999963760376,learn,49437.000036239624,Wed May 20 2026 18:43:54 GMT-0500 (Central Daylight Time),282612.2999999523,A,pipeenter,I,enter,721,1,1982.7000000476837,280629.59999990463,8114,WL,B,4.0
2,15.394999980926514,learn,44605.000019073486,Wed May 20 2026 18:43:54 GMT-0500 (Central Daylight Time),287443.7999999523,A,g,I,g,4820,1,4831.100000023842,282612.6999999285,8114,WL,B,5.0
2,15.878000020980835,learn,44121.999979019165,Wed May 20 2026 18:43:54 GMT-0500 (Central Daylight Time),287927.39999997616,A,gr,I,r,468,1,5314.700000047684,282612.6999999285,8114,WL,B,5.0
2,16.128000020980835,learn,43871.999979019165,Wed May 20 2026 18:43:54 GMT-0500 (Central Daylight Time),288177.09999990463,A,gra,I,a,241,1,5564.399999976158,282612.6999999285,8114,WL,B,5.0
2,16.277999877929688,learn,43722.00012207031,Wed May 20 2026 18:43:54 GMT-0500 (Central Daylight Time),288327.0,A,gras,I,s,143,1,5714.300000071526,282612.6999999285,8114,WL,B,5.0
2,16.477999925613403,learn,43522.0000743866,Wed May 20 2026 18:43:54 GMT-0500 (Central Daylight Time),288527.09999990463,A,grass,I,s,185,1,5914.399999976158,282612.6999999285,8114,WL,B,5.0
2,17.543999910354614,learn,42456.000089645386,Wed May 20 2026 18:43:54 GMT-0500 (Central Daylight Time),289593.39999997616,A,grassenter,I,enter,1057,1,6980.700000047684,282612.6999999285,8114,WL,B,5.0
2,18.060999870300293,learn,41939.00012969971,Wed May 20 2026 18:43:54 GMT-0500 (Central Daylight Time),290109.89999997616,A,d,I,d,495,1,516.1000000238419,289593.7999999523,8114,WL,B,6.0
2,18.210999965667725,learn,41789.000034332275,Wed May 20 2026 18:43:54 GMT-0500 (Central Daylight Time),290260.1999999285,A,do,I,o,138,1,666.3999999761581,289593.7999999523,8114,WL,B,6.0
2,18.360999822616577,learn,41639.00017738342,Wed May 20 2026 18:43:54 GMT-0500 (Central Daylight Time),290409.6999999285,A,doo,I,o,132,1,815.8999999761581,289593.7999999523,8114,WL,B,6.0
2,18.526999950408936,learn,41473.000049591064,Wed May 20 2026 18:43:54 GMT-0500 (Central Daylight Time),290576.39999997616,A,door,I,r,158,1,982.6000000238419,289593.7999999523,8114,WL,B,6.0
2,18.82699990272522,learn,41173.00009727478,Wed May 20 2026 18:43:54 GMT-0500 (Central Daylight Time),290876.1999999285,A,doorenter,I,enter,280,1,1282.3999999761581,289593.7999999523,8114,WL,B,6.0
2,19.143999814987183,learn,40856.00018501282,Wed May 20 2026 18:43:54 GMT-0500 (Central Daylight Time),291192.89999997616,A,a,I,a,300,1,315.89999997615814,290877.0,8114,WL,B,7.0
2,19.459999799728394,learn,40540.00020027161,Wed May 20 2026 18:43:54 GMT-0500 (Central Daylight Time),291509.5,A,ar,I,r,295,1,632.5,290877.0,8114,WL,B,7.0
2,19.676999807357788,learn,40323.00019264221,Wed May 20 2026 18:43:54 GMT-0500 (Central Daylight Time),291726.0,A,arn,I,n,203,1,849.0,290877.0,8114,WL,B,7.0
2,20.893999814987183,learn,39106.00018501282,Wed May 20 2026 18:43:54 GMT-0500 (Central Daylight Time),292942.7999999523,A,ar,I,backspace,1202,1,2065.7999999523163,290877.0,8114,WL,B,7.0
2,21.810999870300293,learn,38189.00012969971,Wed May 20 2026 18:43:54 GMT-0500 (Central Daylight Time),293859.7999999523,A,arm,I,m,906,1,2982.7999999523163,290877.0,8114,WL,B,7.0
2,22.592999935150146,learn,37407.00006484985,Wed May 20 2026 18:43:54 GMT-0500 (Central Daylight Time),294641.7999999523,A,armenter,I,enter,772,1,3764.7999999523163,290877.0,8114,WL,B,7.0
2,23.026000022888184,learn,36973.99997711182,Wed May 20 2026 18:43:54 GMT-0500 (Central Daylight Time),295074.89999997616,A,s,I,s,414,1,432.7000000476837,294642.1999999285,8114,WL,B,8.0
2,23.258999824523926,learn,36741.000175476074,Wed May 20 2026 18:43:54 GMT-0500 (Central Daylight Time),295308.39999997616,A,st,I,t,222,1,666.2000000476837,294642.1999999285,8114,WL,B,8.0
2,23.54199981689453,learn,36458.00018310547,Wed May 20 2026 18:43:54 GMT-0500 (Central Daylight Time),295591.2999999523,A,sta,I,a,268,1,949.1000000238419,294642.1999999285,8114,WL,B,8.0
2,23.925999879837036,learn,36074.000120162964,Wed May 20 2026 18:43:54 GMT-0500 (Central Daylight Time),295974.6999999285,A,star,I,r,376,1,1332.5,294642.1999999285,8114,WL,B,8.0
2,24.80900001525879,learn,35190.99998474121,Wed May 20 2026 18:43:54 GMT-0500 (Central Daylight Time),296857.7999999523,A,starenter,I,enter,873,1,2215.600000023842,294642.1999999285,8114,WL,B,8.0
2,25.274999856948853,learn,34725.00014305115,Wed May 20 2026 18:43:54 GMT-0500 (Central Daylight Time),297324.2999999523,A,w,I,w,455,1,466.10000002384186,296858.1999999285,8114,WL,B,9.0
2,25.491999864578247,learn,34508.00013542175,Wed May 20 2026 18:43:54 GMT-0500 (Central Daylight Time),297540.7999999523,A,wi,I,i,196,1,682.6000000238419,296858.1999999285,8114,WL,B,9.0
2,25.72499990463257,learn,34275.00009536743,Wed May 20 2026 18:43:54 GMT-0500 (Central Daylight Time),297774.09999990463,A,wid,I,d,219,1,915.8999999761581,296858.1999999285,8114,WL,B,9.0
2,26.257999897003174,learn,33742.000102996826,Wed May 20 2026 18:43:54 GMT-0500 (Central Daylight Time),298307.1999999285,A,widf,I,f,522,1,1449.0,296858.1999999285,8114,WL,B,9.0
2,26.44099998474121,learn,33559.00001525879,Wed May 20 2026 18:43:54 GMT-0500 (Central Daylight Time),298490.5,A,widfe,I,e,165,1,1632.3000000715256,296858.1999999285,8114,WL,B,9.0
2,27.19099998474121,learn,32809.00001525879,Wed May 20 2026 18:43:54 GMT-0500 (Central Daylight Time),299240.09999990463,A,widf,I,backspace,734,1,2381.899999976158,296858.1999999285,8114,WL,B,9.0
2,28.056999921798706,learn,31943.000078201294,Wed May 20 2026 18:43:54 GMT-0500 (Central Daylight Time),300106.6999999285,A,wid,I,backspace,856,1,3248.5,296858.1999999285,8114,WL,B,9.0
2,28.207000017166138,learn,31792.999982833862,Wed May 20 2026 18:43:54 GMT-0500 (Central Daylight Time),300256.6999999285,A,wi,I,backspace,142,1,3398.5,296858.1999999285,8114,WL,B,9.0
2,28.655999898910522,learn,31344.000101089478,Wed May 20 2026 18:43:54 GMT-0500 (Central Daylight Time),300706.5,A,wif,I,f,432,1,3848.3000000715256,296858.1999999285,8114,WL,B,9.0
2,28.822999954223633,learn,31177.000045776367,Wed May 20 2026 18:43:54 GMT-0500 (Central Daylight Time),300873.0,A,wife,I,e,150,1,4014.8000000715256,296858.1999999285,8114,WL,B,9.0
2,29.538999795913696,learn,30461.000204086304,Wed May 20 2026 18:43:54 GMT-0500 (Central Daylight Time),301589.39999997616,A,wifeenter,I,enter,695,1,4731.200000047684,296858.1999999285,8114,WL,B,9.0
2,30.33899998664856,learn,29661.00001335144,Wed May 20 2026 18:43:54 GMT-0500 (Central Daylight Time),302389.39999997616,A,w,I,w,779,1,799.6000000238419,301589.7999999523,8114,WL,B,10.0
2,30.472999811172485,learn,29527.000188827515,Wed May 20 2026 18:43:54 GMT-0500 (Central Daylight Time),302522.7999999523,A,wi,I,i,115,1,933.0,301589.7999999523,8114,WL,B,10.0
2,30.60599994659424,learn,29394.00005340576,Wed May 20 2026 18:43:54 GMT-0500 (Central Daylight Time),302656.0,A,win,I,n,126,1,1066.2000000476837,301589.7999999523,8114,WL,B,10.0
2,30.75499987602234,learn,29245.00012397766,Wed May 20 2026 18:43:54 GMT-0500 (Central Daylight Time),302805.59999990463,A,wind,I,d,144,1,1215.7999999523163,301589.7999999523,8114,WL,B,10.0
2,31.038999795913696,learn,28961.000204086304,Wed May 20 2026 18:43:54 GMT-0500 (Central Daylight Time),303089.0,A,windo,I,o,275,1,1499.2000000476837,301589.7999999523,8114,WL,B,10.0
2,31.289999961853027,learn,28710.000038146973,Wed May 20 2026 18:43:54 GMT-0500 (Central Daylight Time),303340.2999999523,A,window,I,w,231,1,1750.5,301589.7999999523,8114,WL,B,10.0
2,32.55499982833862,learn,27445.000171661377,Wed May 20 2026 18:43:54 GMT-0500 (Central Daylight Time),304605.1999999285,A,windowenter,I,enter,1244,1,3015.399999976158,301589.7999999523,8114,WL,B,10.0
2,32.871999979019165,learn,27128.000020980835,Wed May 20 2026 18:43:54 GMT-0500 (Central Daylight Time),304921.6999999285,A,s,I,s,307,1,316.1999999284744,304605.5,8114,WL,B,11.0
2,33.15499997138977,learn,26845.00002861023,Wed May 20 2026 18:43:54 GMT-0500 (Central Daylight Time),305205.09999990463,A,st,I,t,271,1,599.5999999046326,304605.5,8114,WL,B,11.0
2,33.60199999809265,learn,26398.00000190735,Wed May 20 2026 18:43:54 GMT-0500 (Central Daylight Time),305652.2999999523,A,sta,I,a,442,1,1046.7999999523163,304605.5,8114,WL,B,11.0
2,33.75,learn,26250.0,Wed May 20 2026 18:43:54 GMT-0500 (Central Daylight Time),305800.0,A,star,I,r,143,1,1194.5,304605.5,8114,WL,B,11.0
2,36.9210000038147,learn,23078.999996185303,Wed May 20 2026 18:43:54 GMT-0500 (Central Daylight Time),308970.6999999285,A,starenter,I,enter,3151,1,4365.199999928474,304605.5,8114,WL,B,11.0
2,37.73699998855591,learn,22263.00001144409,Wed May 20 2026 18:43:54 GMT-0500 (Central Daylight Time),309787.09999990463,A,c,I,c,805,1,816.0,308971.09999990463,8114,WL,B,12.0
2,37.90399980545044,learn,22096.00019454956,Wed May 20 2026 18:43:54 GMT-0500 (Central Daylight Time),309953.6999999285,A,ci,I,i,157,1,982.6000000238419,308971.09999990463,8114,WL,B,12.0
2,38.11999988555908,learn,21880.000114440918,Wed May 20 2026 18:43:54 GMT-0500 (Central Daylight Time),310170.09999990463,A,cit,I,t,199,1,1199.0,308971.09999990463,8114,WL,B,12.0
2,38.30299997329712,learn,21697.00002670288,Wed May 20 2026 18:43:54 GMT-0500 (Central Daylight Time),310353.59999990463,A,city,I,y,167,1,1382.5,308971.09999990463,8114,WL,B,12.0
2,38.95299983024597,learn,21047.00016975403,Wed May 20 2026 18:43:54 GMT-0500 (Central Daylight Time),311003.39999997616,A,cityenter,I,enter,631,1,2032.3000000715256,308971.09999990463,8114,WL,B,12.0
2,39.5699999332428,learn,20430.000066757202,Wed May 20 2026 18:43:54 GMT-0500 (Central Daylight Time),311619.6999999285,A,c,I,c,597,1,615.8999999761581,311003.7999999523,8114,WL,B,13.0
2,39.80299997329712,learn,20197.00002670288,Wed May 20 2026 18:43:54 GMT-0500 (Central Daylight Time),311853.39999997616,A,ca,I,a,229,1,849.6000000238419,311003.7999999523,8114,WL,B,13.0
2,40.003000020980835,learn,19996.999979019165,Wed May 20 2026 18:43:54 GMT-0500 (Central Daylight Time),312053.09999990463,A,cab,I,b,187,1,1049.2999999523163,311003.7999999523,8114,WL,B,13.0
2,40.2189998626709,learn,19781.0001373291,Wed May 20 2026 18:43:54 GMT-0500 (Central Daylight Time),312269.59999990463,A,cabi,I,i,202,1,1265.7999999523163,311003.7999999523,8114,WL,B,13.0
2,40.48699998855591,learn,19513.00001144409,Wed May 20 2026 18:43:54 GMT-0500 (Central Daylight Time),312537.2999999523,A,cabin,I,n,251,1,1533.5,311003.7999999523,8114,WL,B,13.0
2,40.835999965667725,learn,19164.000034332275,Wed May 20 2026 18:43:54 GMT-0500 (Central Daylight Time),312885.7999999523,A,cabinenter,I,enter,343,1,1882.0,311003.7999999523,8114,WL,B,13.0
2,41.335999965667725,learn,18664.000034332275,Wed May 20 2026 18:43:54 GMT-0500 (Central Daylight Time),313385.59999990463,A,l,I,l,490,1,499.5,312886.09999990463,8114,WL,B,14.0
2,41.501999855041504,learn,18498.000144958496,Wed May 20 2026 18:43:54 GMT-0500 (Central Daylight Time),313552.5,A,la,I,a,159,1,666.4000000953674,312886.09999990463,8114,WL,B,14.0
2,41.68599987030029,learn,18314.000129699707,Wed May 20 2026 18:43:54 GMT-0500 (Central Daylight Time),313736.09999990463,A,lak,I,k,176,1,850.0,312886.09999990463,8114,WL,B,14.0
2,42.13499999046326,learn,17865.000009536743,Wed May 20 2026 18:43:54 GMT-0500 (Central Daylight Time),314185.6999999285,A,lake,I,e,432,1,1299.6000000238419,312886.09999990463,8114,WL,B,14.0
2,42.35199999809265,learn,17648.00000190735,Wed May 20 2026 18:43:54 GMT-0500 (Central Daylight Time),314402.0,A,lakeenter,I,enter,198,1,1515.9000000953674,312886.09999990463,8114,WL,B,14.0
2,42.80199980735779,learn,17198.000192642212,Wed May 20 2026 18:43:54 GMT-0500 (Central Daylight Time),314852.09999990463,A,f,I,f,437,1,449.6999999284744,314402.39999997616,8114,WL,B,15.0
2,42.95299983024597,learn,17047.00016975403,Wed May 20 2026 18:43:54 GMT-0500 (Central Daylight Time),315002.89999997616,A,fi,I,i,140,1,600.5,314402.39999997616,8114,WL,B,15.0
2,43.20199990272522,learn,16798.00009727478,Wed May 20 2026 18:43:54 GMT-0500 (Central Daylight Time),315252.0,A,fir,I,r,237,1,849.6000000238419,314402.39999997616,8114,WL,B,15.0
2,43.38499999046326,learn,16615.000009536743,Wed May 20 2026 18:43:54 GMT-0500 (Central Daylight Time),315435.2999999523,A,fire,I,e,164,1,1032.8999999761581,314402.39999997616,8114,WL,B,15.0
2,44.66799998283386,learn,15332.000017166138,Wed May 20 2026 18:43:54 GMT-0500 (Central Daylight Time),316718.2999999523,A,fireenter,I,enter,1269,1,2315.899999976158,314402.39999997616,8114,WL,B,15.0
3,1.1180000305175781,learn,58881.99996948242,Wed May 20 2026 18:43:54 GMT-0500 (Central Daylight Time),388247.0,A,s,I,s,1103,1,1117.3000000715256,387129.6999999285,8114,WL,B,1.0
3,1.3330001831054688,learn,58666.99981689453,Wed May 20 2026 18:43:54 GMT-0500 (Central Daylight Time),388462.1999999285,A,sk,I,k,200,1,1332.5,387129.6999999285,8114,WL,B,1.0
3,1.5500001907348633,learn,58449.99980926514,Wed May 20 2026 18:43:54 GMT-0500 (Central Daylight Time),388678.89999997616,A,ski,I,i,202,1,1549.2000000476837,387129.6999999285,8114,WL,B,1.0
3,1.7990000247955322,learn,58200.99997520447,Wed May 20 2026 18:43:54 GMT-0500 (Central Daylight Time),388928.7999999523,A,skin,I,n,241,1,1799.1000000238419,387129.6999999285,8114,WL,B,1.0
3,3.2820000648498535,learn,56717.99993515015,Wed May 20 2026 18:43:54 GMT-0500 (Central Daylight Time),390411.7999999523,A,skinenter,I,enter,1471,1,3282.100000023842,387129.6999999285,8114,WL,B,1.0
3,3.815999984741211,learn,56184.00001525879,Wed May 20 2026 18:43:54 GMT-0500 (Central Daylight Time),390945.0,A,p,I,p,517,1,532.9000000953674,390412.09999990463,8114,WL,B,2.0
3,4.14900016784668,learn,55850.99983215332,Wed May 20 2026 18:43:54 GMT-0500 (Central Daylight Time),391278.09999990463,A,pu,I,u,319,1,866.0,390412.09999990463,8114,WL,B,2.0
3,4.881999969482422,learn,55118.00003051758,Wed May 20 2026 18:43:54 GMT-0500 (Central Daylight Time),392011.5,A,pup,I,p,714,1,1599.4000000953674,390412.09999990463,8114,WL,B,2.0
3,5.131999969482422,learn,54868.00003051758,Wed May 20 2026 18:43:54 GMT-0500 (Central Daylight Time),392261.1999999285,A,pupi,I,i,236,1,1849.1000000238419,390412.09999990463,8114,WL,B,2.0
3,5.381999969482422,learn,54618.00003051758,Wed May 20 2026 18:43:54 GMT-0500 (Central Daylight Time),392511.09999990463,A,pupil,I,l,243,1,2099.0,390412.09999990463,8114,WL,B,2.0
3,6.182000160217285,learn,53817.999839782715,Wed May 20 2026 18:43:54 GMT-0500 (Central Daylight Time),393310.89999997616,A,pupilenter,I,enter,785,1,2898.8000000715256,390412.09999990463,8114,WL,B,2.0
3,6.515000104904175,learn,53484.999895095825,Wed May 20 2026 18:43:54 GMT-0500 (Central Daylight Time),393644.0,A,c,I,c,322,1,332.8000000715256,393311.1999999285,8114,WL,B,3.0
3,6.715000152587891,learn,53284.99984741211,Wed May 20 2026 18:43:54 GMT-0500 (Central Daylight Time),393843.89999997616,A,cl,I,l,180,1,532.7000000476837,393311.1999999285,8114,WL,B,3.0
3,6.948000192642212,learn,53051.99980735779,Wed May 20 2026 18:43:54 GMT-0500 (Central Daylight Time),394077.1999999285,A,clo,I,o,212,1,766.0,393311.1999999285,8114,WL,B,3.0
3,7.615000009536743,learn,52384.99999046326,Wed May 20 2026 18:43:54 GMT-0500 (Central Daylight Time),394743.89999997616,A,cloc,I,c,651,1,1432.7000000476837,393311.1999999285,8114,WL,B,3.0
3,7.79800009727478,learn,52201.99990272522,Wed May 20 2026 18:43:54 GMT-0500 (Central Daylight Time),394927.0,A,clock,I,k,169,1,1615.8000000715256,393311.1999999285,8114,WL,B,3.0
3,8.746999979019165,learn,51253.000020980835,Wed May 20 2026 18:43:54 GMT-0500 (Central Daylight Time),395876.39999997616,A,clockenter,I,enter,929,1,2565.2000000476837,393311.1999999285,8114,WL,B,3.0
3,9.180999994277954,learn,50819.000005722046,Wed May 20 2026 18:43:54 GMT-0500 (Central Daylight Time),396310.0,A,p,I,p,420,1,433.3000000715256,395876.6999999285,8114,WL,B,4.0
3,9.44700002670288,learn,50552.99997329712,Wed May 20 2026 18:43:54 GMT-0500 (Central Daylight Time),396576.2999999523,A,pi,I,i,250,1,699.6000000238419,395876.6999999285,8114,WL,B,4.0
3,9.764000177383423,learn,50235.99982261658,Wed May 20 2026 18:43:54 GMT-0500 (Central Daylight Time),396893.0,A,pip,I,p,296,1,1016.3000000715256,395876.6999999285,8114,WL,B,4.0
3,10.047000169754028,learn,49952.99983024597,Wed May 20 2026 18:43:54 GMT-0500 (Central Daylight Time),397176.0,A,pipe,I,e,275,1,1299.3000000715256,395876.6999999285,8114,WL,B,4.0
3,10.812999963760376,learn,49187.000036239624,Wed May 20 2026 18:43:54 GMT-0500 (Central Daylight Time),397942.59999990463,A,pipeenter,I,enter,760,1,2065.899999976158,395876.6999999285,8114,WL,B,4.0
3,11.396000146865845,learn,48603.999853134155,Wed May 20 2026 18:43:54 GMT-0500 (Central Daylight Time),398525.59999990463,A,s,I,s,578,1,582.7999999523163,397942.7999999523,8114,WL,B,5.0
3,11.663000106811523,learn,48336.99989318848,Wed May 20 2026 18:43:54 GMT-0500 (Central Daylight Time),398792.5,A,st,I,t,249,1,849.7000000476837,397942.7999999523,8114,WL,B,5.0
3,12.213000059127808,learn,47786.99994087219,Wed May 20 2026 18:43:54 GMT-0500 (Central Daylight Time),399342.0,A,str,I,r,544,1,1399.2000000476837,397942.7999999523,8114,WL,B,5.0
3,12.496000051498413,learn,47503.99994850159,Wed May 20 2026 18:43:54 GMT-0500 (Central Daylight Time),399625.59999990463,A,stre,I,e,266,1,1682.7999999523163,397942.7999999523,8114,WL,B,5.0
3,12.630000114440918,learn,47369.99988555908,Wed May 20 2026 18:43:54 GMT-0500 (Central Daylight Time),399758.89999997616,A,stree,I,e,118,1,1816.1000000238419,397942.7999999523,8114,WL,B,5.0
3,12.916000127792358,learn,47083.99987220764,Wed May 20 2026 18:43:54 GMT-0500 (Central Daylight Time),400044.89999997616,A,street,I,t,281,1,2102.100000023842,397942.7999999523,8114,WL,B,5.0
3,13.34600019454956,learn,46653.99980545044,Wed May 20 2026 18:43:54 GMT-0500 (Central Daylight Time),400475.09999990463,A,streetenter,I,enter,419,1,2532.2999999523163,397942.7999999523,8114,WL,B,5.0
3,13.946000099182129,learn,46053.99990081787,Wed May 20 2026 18:43:54 GMT-0500 (Central Daylight Time),401075.1999999285,A,g,I,g,590,1,599.8999999761581,400475.2999999523,8114,WL,B,6.0
3,14.312000036239624,learn,45687.999963760376,Wed May 20 2026 18:43:54 GMT-0500 (Central Daylight Time),401441.59999990463,A,gr,I,r,357,1,966.2999999523163,400475.2999999523,8114,WL,B,6.0
3,14.562000036239624,learn,45437.999963760376,Wed May 20 2026 18:43:54 GMT-0500 (Central Daylight Time),401691.59999990463,A,gra,I,a,238,1,1216.2999999523163,400475.2999999523,8114,WL,B,6.0
3,14.84500002861023,learn,45154.99997138977,Wed May 20 2026 18:43:54 GMT-0500 (Central Daylight Time),401974.6999999285,A,gras,I,s,276,1,1499.3999999761581,400475.2999999523,8114,WL,B,6.0
3,15.01200008392334,learn,44987.99991607666,Wed May 20 2026 18:43:54 GMT-0500 (Central Daylight Time),402141.39999997616,A,grass,I,s,162,1,1666.1000000238419,400475.2999999523,8114,WL,B,6.0
3,15.229000091552734,learn,44770.999908447266,Wed May 20 2026 18:43:54 GMT-0500 (Central Daylight Time),402358.0,A,grassenter,I,enter,202,1,1882.7000000476837,400475.2999999523,8114,WL,B,6.0
3,15.59500002861023,learn,44404.99997138977,Wed May 20 2026 18:43:54 GMT-0500 (Central Daylight Time),402724.59999990463,A,d,I,d,345,1,366.1999999284744,402358.39999997616,8114,WL,B,7.0
3,15.779000043869019,learn,44220.99995613098,Wed May 20 2026 18:43:54 GMT-0500 (Central Daylight Time),402907.7999999523,A,do,I,o,171,1,549.3999999761581,402358.39999997616,8114,WL,B,7.0
3,15.92900013923645,learn,44070.99986076355,Wed May 20 2026 18:43:54 GMT-0500 (Central Daylight Time),403057.89999997616,A,doo,I,o,132,1,699.5,402358.39999997616,8114,WL,B,7.0
3,16.128000020980835,learn,43871.999979019165,Wed May 20 2026 18:43:54 GMT-0500 (Central Daylight Time),403257.5,A,door,I,r,190,1,899.1000000238419,402358.39999997616,8114,WL,B,7.0
3,16.478000164031982,learn,43521.99983596802,Wed May 20 2026 18:43:54 GMT-0500 (Central Daylight Time),403607.6999999285,A,doorenter,I,enter,343,1,1249.2999999523163,402358.39999997616,8114,WL,B,7.0
3,16.878000020980835,learn,43121.999979019165,Wed May 20 2026 18:43:54 GMT-0500 (Central Daylight Time),404007.5,A,a,I,a,393,1,399.60000002384186,403607.89999997616,8114,WL,B,8.0
3,17.24500012397766,learn,42754.99987602234,Wed May 20 2026 18:43:54 GMT-0500 (Central Daylight Time),404373.89999997616,A,ar,I,r,345,1,766.0,403607.89999997616,8114,WL,B,8.0
3,17.878000020980835,learn,42121.999979019165,Wed May 20 2026 18:43:54 GMT-0500 (Central Daylight Time),405007.2999999523,A,arm,I,m,626,1,1399.3999999761581,403607.89999997616,8114,WL,B,8.0
3,18.278000116348267,learn,41721.99988365173,Wed May 20 2026 18:43:54 GMT-0500 (Central Daylight Time),405406.89999997616,A,armenter,I,enter,385,1,1799.0,403607.89999997616,8114,WL,B,8.0
3,18.710999965667725,learn,41289.000034332275,Wed May 20 2026 18:43:54 GMT-0500 (Central Daylight Time),405840.1999999285,A,s,I,s,426,1,433.0,405407.1999999285,8114,WL,B,9.0
3,18.99399995803833,learn,41006.00004196167,Wed May 20 2026 18:43:54 GMT-0500 (Central Daylight Time),406123.5,A,st,I,t,264,1,716.3000000715256,405407.1999999285,8114,WL,B,9.0
3,19.47699999809265,learn,40523.00000190735,Wed May 20 2026 18:43:54 GMT-0500 (Central Daylight Time),406606.5,A,sta,I,a,477,1,1199.3000000715256,405407.1999999285,8114,WL,B,9.0
3,19.777000188827515,learn,40222.999811172485,Wed May 20 2026 18:43:54 GMT-0500 (Central Daylight Time),406906.39999997616,A,star,I,r,282,1,1499.2000000476837,405407.1999999285,8114,WL,B,9.0
3,20.444000005722046,learn,39555.999994277954,Wed May 20 2026 18:43:54 GMT-0500 (Central Daylight Time),407573.0,A,starenter,I,enter,654,1,2165.8000000715256,405407.1999999285,8114,WL,B,9.0
3,20.927000045776367,learn,39072.99995422363,Wed May 20 2026 18:43:54 GMT-0500 (Central Daylight Time),408056.1999999285,A,w,I,w,475,1,482.7999999523163,407573.39999997616,8114,WL,B,10.0
3,21.14300012588501,learn,38856.99987411499,Wed May 20 2026 18:43:54 GMT-0500 (Central Daylight Time),408272.59999990463,A,wi,I,i,200,1,699.1999999284744,407573.39999997616,8114,WL,B,10.0
3,21.56000018119812,learn,38439.99981880188,Wed May 20 2026 18:43:54 GMT-0500 (Central Daylight Time),408689.39999997616,A,wif,I,f,400,1,1116.0,407573.39999997616,8114,WL,B,10.0
3,21.743000030517578,learn,38256.99996948242,Wed May 20 2026 18:43:54 GMT-0500 (Central Daylight Time),408872.7999999523,A,wife,I,e,167,1,1299.3999999761581,407573.39999997616,8114,WL,B,10.0
3,22.526000022888184,learn,37473.99997711182,Wed May 20 2026 18:43:54 GMT-0500 (Central Daylight Time),409655.59999990463,A,wifeenter,I,enter,775,1,2082.1999999284744,407573.39999997616,8114,WL,B,10.0
3,23.259999990463257,learn,36740.00000953674,Wed May 20 2026 18:43:54 GMT-0500 (Central Daylight Time),410389.0,A,w,I,w,721,1,733.1000000238419,409655.89999997616,8114,WL,B,11.0
3,23.443000078201294,learn,36556.999921798706,Wed May 20 2026 18:43:54 GMT-0500 (Central Daylight Time),410572.0,A,wi,I,i,162,1,916.1000000238419,409655.89999997616,8114,WL,B,11.0
3,23.608999967575073,learn,36391.00003242493,Wed May 20 2026 18:43:54 GMT-0500 (Central Daylight Time),410738.6999999285,A,win,I,n,147,1,1082.7999999523163,409655.89999997616,8114,WL,B,11.0
3,23.742000102996826,learn,36257.999897003174,Wed May 20 2026 18:43:54 GMT-0500 (Central Daylight Time),410871.6999999285,A,wind,I,d,125,1,1215.7999999523163,409655.89999997616,8114,WL,B,11.0
3,23.9760000705719,learn,36023.9999294281,Wed May 20 2026 18:43:54 GMT-0500 (Central Daylight Time),411105.2999999523,A,windo,I,o,225,1,1449.3999999761581,409655.89999997616,8114,WL,B,11.0
3,24.2260000705719,learn,35773.9999294281,Wed May 20 2026 18:43:54 GMT-0500 (Central Daylight Time),411355.59999990463,A,window,I,w,231,1,1699.6999999284744,409655.89999997616,8114,WL,B,11.0
3,25.64199995994568,learn,34358.00004005432,Wed May 20 2026 18:43:54 GMT-0500 (Central Daylight Time),412771.2999999523,A,windowenter,I,enter,1404,1,3115.399999976158,409655.89999997616,8114,WL,B,11.0
3,26.14199995994568,learn,33858.00004005432,Wed May 20 2026 18:43:54 GMT-0500 (Central Daylight Time),413271.2999999523,A,c,I,c,493,1,499.7000000476837,412771.59999990463,8114,WL,B,12.0
3,26.308000087738037,learn,33691.99991226196,Wed May 20 2026 18:43:54 GMT-0500 (Central Daylight Time),413437.59999990463,A,ci,I,i,161,1,666.0,412771.59999990463,8114,WL,B,12.0
3,26.54200005531311,learn,33457.99994468689,Wed May 20 2026 18:43:54 GMT-0500 (Central Daylight Time),413671.1999999285,A,cit,I,t,218,1,899.6000000238419,412771.59999990463,8114,WL,B,12.0
3,26.725000143051147,learn,33274.99985694885,Wed May 20 2026 18:43:54 GMT-0500 (Central Daylight Time),413854.39999997616,A,city,I,y,169,1,1082.8000000715256,412771.59999990463,8114,WL,B,12.0
3,27.44099998474121,learn,32559.00001525879,Wed May 20 2026 18:43:54 GMT-0500 (Central Daylight Time),414570.59999990463,A,cityenter,I,enter,698,1,1799.0,412771.59999990463,8114,WL,B,12.0
3,27.858999967575073,learn,32141.000032424927,Wed May 20 2026 18:43:54 GMT-0500 (Central Daylight Time),414988.39999997616,A,c,I,c,406,1,417.60000002384186,414570.7999999523,8114,WL,B,13.0
3,28.091000080108643,learn,31908.999919891357,Wed May 20 2026 18:43:54 GMT-0500 (Central Daylight Time),415220.6999999285,A,ca,I,a,219,1,649.8999999761581,414570.7999999523,8114,WL,B,13.0
3,28.391000032424927,learn,31608.999967575073,Wed May 20 2026 18:43:54 GMT-0500 (Central Daylight Time),415520.5,A,cab,I,b,283,1,949.7000000476837,414570.7999999523,8114,WL,B,13.0
3,28.575000047683716,learn,31424.999952316284,Wed May 20 2026 18:43:54 GMT-0500 (Central Daylight Time),415703.89999997616,A,cabi,I,i,175,1,1133.1000000238419,414570.7999999523,8114,WL,B,13.0
3,28.825000047683716,learn,31174.999952316284,Wed May 20 2026 18:43:54 GMT-0500 (Central Daylight Time),415953.7999999523,A,cabin,I,n,240,1,1383.0,414570.7999999523,8114,WL,B,13.0
3,29.20900011062622,learn,30790.99988937378,Wed May 20 2026 18:43:54 GMT-0500 (Central Daylight Time),416338.09999990463,A,cabinenter,I,enter,366,1,1767.2999999523163,414570.7999999523,8114,WL,B,13.0
3,29.657999992370605,learn,30342.000007629395,Wed May 20 2026 18:43:54 GMT-0500 (Central Daylight Time),416786.89999997616,A,l,I,l,438,1,448.5,416338.39999997616,8114,WL,B,14.0
3,30.10800004005432,learn,29891.99995994568,Wed May 20 2026 18:43:54 GMT-0500 (Central Daylight Time),417237.0,A,la,I,a,445,1,898.6000000238419,416338.39999997616,8114,WL,B,14.0
3,30.341000080108643,learn,29658.999919891357,Wed May 20 2026 18:43:54 GMT-0500 (Central Daylight Time),417469.7999999523,A,lak,I,k,219,1,1131.3999999761581,416338.39999997616,8114,WL,B,14.0
3,31.174000024795532,learn,28825.999975204468,Wed May 20 2026 18:43:54 GMT-0500 (Central Daylight Time),418303.09999990463,A,lake,I,e,826,1,1964.6999999284744,416338.39999997616,8114,WL,B,14.0
3,33.371999979019165,learn,26628.000020980835,Wed May 20 2026 18:43:54 GMT-0500 (Central Daylight Time),420502.1999999285,A,lakeenter,I,enter,2193,1,4163.799999952316,416338.39999997616,8114,WL,B,14.0
3,34.13800001144409,learn,25861.99998855591,Wed May 20 2026 18:43:54 GMT-0500 (Central Daylight Time),421268.59999990463,A,f,I,f,746,1,766.1999999284744,420502.39999997616,8114,WL,B,15.0
3,34.3050000667572,learn,25694.999933242798,Wed May 20 2026 18:43:54 GMT-0500 (Central Daylight Time),421435.1999999285,A,fi,I,i,146,1,932.7999999523163,420502.39999997616,8114,WL,B,15.0
3,34.605000019073486,learn,25394.999980926514,Wed May 20 2026 18:43:54 GMT-0500 (Central Daylight Time),421735.09999990463,A,fir,I,r,293,1,1232.6999999284744,420502.39999997616,8114,WL,B,15.0
3,34.8050000667572,learn,25194.999933242798,Wed May 20 2026 18:43:54 GMT-0500 (Central Daylight Time),421935.1999999285,A,fire,I,e,185,1,1432.7999999523163,420502.39999997616,8114,WL,B,15.0
3,36.12100005149841,learn,23878.999948501587,Wed May 20 2026 18:43:54 GMT-0500 (Central Daylight Time),423251.2999999523,A,fireenter,I,enter,1305,1,2748.899999976158,420502.39999997616,8114,WL,B,15.0
4,1.0,learn,59000.0,Wed May 20 2026 18:43:54 GMT-0500 (Central Daylight Time),495713.0,A,c,I,c,992,1,1000.2000000476837,494712.7999999523,8114,WL,B,1.0
4,1.133000135421753,learn,58866.99986457825,Wed May 20 2026 18:43:54 GMT-0500 (Central Daylight Time),495845.39999997616,A,cl,I,l,118,1,1132.6000000238419,494712.7999999523,8114,WL,B,1.0
4,1.7650001049041748,learn,58234.999895095825,Wed May 20 2026 18:43:54 GMT-0500 (Central Daylight Time),496478.1999999285,A,clo,I,o,627,1,1765.3999999761581,494712.7999999523,8114,WL,B,1.0
4,2.0989999771118164,learn,57901.00002288818,Wed May 20 2026 18:43:54 GMT-0500 (Central Daylight Time),496811.89999997616,A,cloc,I,c,322,1,2099.100000023842,494712.7999999523,8114,WL,B,1.0
4,2.366000175476074,learn,57633.999824523926,Wed May 20 2026 18:43:54 GMT-0500 (Central Daylight Time),497078.2999999523,A,clock,I,k,260,1,2365.5,494712.7999999523,8114,WL,B,1.0
4,3.015000104904175,learn,56984.999895095825,Wed May 20 2026 18:43:54 GMT-0500 (Central Daylight Time),497728.09999990463,A,clockenter,I,enter,642,1,3015.2999999523163,494712.7999999523,8114,WL,B,1.0
4,3.9650001525878906,learn,56034.99984741211,Wed May 20 2026 18:43:54 GMT-0500 (Central Daylight Time),498677.5,A,p,I,p,944,1,948.9000000953674,497728.59999990463,8114,WL,B,2.0
4,4.215000152587891,learn,55784.99984741211,Wed May 20 2026 18:43:54 GMT-0500 (Central Daylight Time),498927.5,A,pu,I,u,234,1,1198.9000000953674,497728.59999990463,8114,WL,B,2.0
4,4.432000160217285,learn,55567.999839782715,Wed May 20 2026 18:43:54 GMT-0500 (Central Daylight Time),499144.39999997616,A,pup,I,p,209,1,1415.8000000715256,497728.59999990463,8114,WL,B,2.0
4,4.748000144958496,learn,55251.999855041504,Wed May 20 2026 18:43:54 GMT-0500 (Central Daylight Time),499461.09999990463,A,pupi,I,i,304,1,1732.5,497728.59999990463,8114,WL,B,2.0
4,4.765000104904175,learn,55234.999895095825,Wed May 20 2026 18:43:54 GMT-0500 (Central Daylight Time),499477.59999990463,A,pupiu,I,u,0,1,1749.0,497728.59999990463,8114,WL,B,2.0
4,5.865000009536743,learn,54134.99999046326,Wed May 20 2026 18:43:54 GMT-0500 (Central Daylight Time),500577.39999997616,A,pupi,I,backspace,1090,1,2848.8000000715256,497728.59999990463,8114,WL,B,2.0
4,6.531000137329102,learn,53468.9998626709,Wed May 20 2026 18:43:54 GMT-0500 (Central Daylight Time),501243.7999999523,A,pupil,I,l,647,1,3515.2000000476837,497728.59999990463,8114,WL,B,2.0
4,7.21399998664856,learn,52786.00001335144,Wed May 20 2026 18:43:54 GMT-0500 (Central Daylight Time),501926.6999999285,A,pupilenter,I,enter,668,1,4198.100000023842,497728.59999990463,8114,WL,B,2.0
4,7.897000074386597,learn,52102.9999256134,Wed May 20 2026 18:43:54 GMT-0500 (Central Daylight Time),502609.7999999523,A,s,I,s,673,1,682.7999999523163,501927.0,8114,WL,B,3.0
4,8.047000169754028,learn,51952.99983024597,Wed May 20 2026 18:43:54 GMT-0500 (Central Daylight Time),502759.7999999523,A,sk,I,k,142,1,832.7999999523163,501927.0,8114,WL,B,3.0
4,8.246999979019165,learn,51753.000020980835,Wed May 20 2026 18:43:54 GMT-0500 (Central Daylight Time),502959.89999997616,A,ski,I,i,192,1,1032.8999999761581,501927.0,8114,WL,B,3.0
4,8.564000129699707,learn,51435.99987030029,Wed May 20 2026 18:43:54 GMT-0500 (Central Daylight Time),503276.59999990463,A,skin,I,n,296,1,1349.5999999046326,501927.0,8114,WL,B,3.0
4,9.347000122070312,learn,50652.99987792969,Wed May 20 2026 18:43:54 GMT-0500 (Central Daylight Time),504059.59999990463,A,skinenter,I,enter,772,1,2132.5999999046326,501927.0,8114,WL,B,3.0
4,9.746999979019165,learn,50253.000020980835,Wed May 20 2026 18:43:54 GMT-0500 (Central Daylight Time),504459.2999999523,A,p,I,p,381,1,399.2999999523163,504060.0,8114,WL,B,4.0
4,10.013000011444092,learn,49986.99998855591,Wed May 20 2026 18:43:54 GMT-0500 (Central Daylight Time),504726.0,A,pi,I,i,246,1,666.0,504060.0,8114,WL,B,4.0
4,10.213000059127808,learn,49786.99994087219,Wed May 20 2026 18:43:54 GMT-0500 (Central Daylight Time),504925.59999990463,A,pip,I,p,179,1,865.5999999046326,504060.0,8114,WL,B,4.0
4,10.546000003814697,learn,49453.9999961853,Wed May 20 2026 18:43:54 GMT-0500 (Central Daylight Time),505259.1999999285,A,pipe,I,e,323,1,1199.1999999284744,504060.0,8114,WL,B,4.0
4,11.328999996185303,learn,48671.0000038147,Wed May 20 2026 18:43:54 GMT-0500 (Central Daylight Time),506042.0,A,pipeenter,I,enter,773,1,1982.0,504060.0,8114,WL,B,4.0
4,11.663000106811523,learn,48336.99989318848,Wed May 20 2026 18:43:54 GMT-0500 (Central Daylight Time),506375.39999997616,A,s,I,s,318,1,333.10000002384186,506042.2999999523,8114,WL,B,5.0
4,11.913000106811523,learn,48086.99989318848,Wed May 20 2026 18:43:54 GMT-0500 (Central Daylight Time),506625.39999997616,A,st,I,t,233,1,583.1000000238419,506042.2999999523,8114,WL,B,5.0
4,12.111999988555908,learn,47888.00001144409,Wed May 20 2026 18:43:54 GMT-0500 (Central Daylight Time),506825.1999999285,A,str,I,r,183,1,782.8999999761581,506042.2999999523,8114,WL,B,5.0
4,12.328999996185303,learn,47671.0000038147,Wed May 20 2026 18:43:54 GMT-0500 (Central Daylight Time),507041.7999999523,A,stre,I,e,207,1,999.5,506042.2999999523,8114,WL,B,5.0
4,12.496000051498413,learn,47503.99994850159,Wed May 20 2026 18:43:54 GMT-0500 (Central Daylight Time),507208.59999990463,A,stree,I,e,159,1,1166.2999999523163,506042.2999999523,8114,WL,B,5.0
4,12.729000091552734,learn,47270.999908447266,Wed May 20 2026 18:43:54 GMT-0500 (Central Daylight Time),507441.59999990463,A,street,I,t,224,1,1399.2999999523163,506042.2999999523,8114,WL,B,5.0
4,13.51200008392334,learn,46487.99991607666,Wed May 20 2026 18:43:54 GMT-0500 (Central Daylight Time),508224.5,A,streetenter,I,enter,767,1,2182.2000000476837,506042.2999999523,8114,WL,B,5.0
4,14.046000003814697,learn,45953.9999961853,Wed May 20 2026 18:43:54 GMT-0500 (Central Daylight Time),508759.09999990463,A,g,I,g,528,1,534.1999999284744,508224.89999997616,8114,WL,B,6.0
4,14.17799997329712,learn,45822.00002670288,Wed May 20 2026 18:43:54 GMT-0500 (Central Daylight Time),508891.1999999285,A,gr,I,r,113,1,666.2999999523163,508224.89999997616,8114,WL,B,6.0
4,14.394999980926514,learn,45605.000019073486,Wed May 20 2026 18:43:54 GMT-0500 (Central Daylight Time),509107.6999999285,A,gra,I,a,205,1,882.7999999523163,508224.89999997616,8114,WL,B,6.0
4,14.812000036239624,learn,45187.999963760376,Wed May 20 2026 18:43:54 GMT-0500 (Central Daylight Time),509524.7999999523,A,gras,I,s,404,1,1299.8999999761581,508224.89999997616,8114,WL,B,6.0
4,14.995000123977661,learn,45004.99987602234,Wed May 20 2026 18:43:54 GMT-0500 (Central Daylight Time),509707.6999999285,A,grass,I,s,163,1,1482.7999999523163,508224.89999997616,8114,WL,B,6.0
4,15.361999988555908,learn,44638.00001144409,Wed May 20 2026 18:43:54 GMT-0500 (Central Daylight Time),510074.39999997616,A,grassenter,I,enter,349,1,1849.5,508224.89999997616,8114,WL,B,6.0
4,16.64400005340576,learn,43355.99994659424,Wed May 20 2026 18:43:54 GMT-0500 (Central Daylight Time),511357.1999999285,A,d,I,d,1270,1,1282.5,510074.6999999285,8114,WL,B,7.0
4,16.794000148773193,learn,43205.99985122681,Wed May 20 2026 18:43:54 GMT-0500 (Central Daylight Time),511507.0,A,do,I,o,139,1,1432.3000000715256,510074.6999999285,8114,WL,B,7.0
4,16.91100001335144,learn,43088.99998664856,Wed May 20 2026 18:43:54 GMT-0500 (Central Daylight Time),511623.59999990463,A,doo,I,o,109,1,1548.8999999761581,510074.6999999285,8114,WL,B,7.0
4,17.111000061035156,learn,42888.999938964844,Wed May 20 2026 18:43:54 GMT-0500 (Central Daylight Time),511823.6999999285,A,door,I,r,194,1,1749.0,510074.6999999285,8114,WL,B,7.0
4,17.526999950408936,learn,42473.000049591064,Wed May 20 2026 18:43:54 GMT-0500 (Central Daylight Time),512240.09999990463,A,doorenter,I,enter,401,1,2165.399999976158,510074.6999999285,8114,WL,B,7.0
4,17.844000101089478,learn,42155.99989891052,Wed May 20 2026 18:43:54 GMT-0500 (Central Daylight Time),512556.89999997616,A,a,I,a,305,1,316.60000002384186,512240.2999999523,8114,WL,B,8.0
4,18.16100001335144,learn,41838.99998664856,Wed May 20 2026 18:43:54 GMT-0500 (Central Daylight Time),512873.39999997616,A,ar,I,r,307,1,633.1000000238419,512240.2999999523,8114,WL,B,8.0
4,18.759999990463257,learn,41240.00000953674,Wed May 20 2026 18:43:54 GMT-0500 (Central Daylight Time),513473.09999990463,A,arm,I,m,583,1,1232.7999999523163,512240.2999999523,8114,WL,B,8.0
4,19.093000173568726,learn,40906.999826431274,Wed May 20 2026 18:43:54 GMT-0500 (Central Daylight Time),513806.09999990463,A,armenter,I,enter,327,1,1565.7999999523163,512240.2999999523,8114,WL,B,8.0
4,19.542999982833862,learn,40457.00001716614,Wed May 20 2026 18:43:54 GMT-0500 (Central Daylight Time),514256.1999999285,A,s,I,s,443,1,449.89999997615814,513806.2999999523,8114,WL,B,9.0
4,19.792999982833862,learn,40207.00001716614,Wed May 20 2026 18:43:54 GMT-0500 (Central Daylight Time),514506.09999990463,A,st,I,t,240,1,699.7999999523163,513806.2999999523,8114,WL,B,9.0
4,20.0770001411438,learn,39922.9998588562,Wed May 20 2026 18:43:54 GMT-0500 (Central Daylight Time),514789.5,A,sta,I,a,262,1,983.2000000476837,513806.2999999523,8114,WL,B,9.0
4,20.30999994277954,learn,39690.00005722046,Wed May 20 2026 18:43:54 GMT-0500 (Central Daylight Time),515022.5,A,star,I,r,219,1,1216.2000000476837,513806.2999999523,8114,WL,B,9.0
4,20.778000116348267,learn,39221.99988365173,Wed May 20 2026 18:43:54 GMT-0500 (Central Daylight Time),515490.39999997616,A,starenter,I,enter,458,1,1684.1000000238419,513806.2999999523,8114,WL,B,9.0
4,22.80900001525879,learn,37190.99998474121,Wed May 20 2026 18:43:54 GMT-0500 (Central Daylight Time),517521.5,A,w,I,w,2021,1,2030.8000000715256,515490.6999999285,8114,WL,B,10.0
4,23.167999982833862,learn,36832.00001716614,Wed May 20 2026 18:43:54 GMT-0500 (Central Daylight Time),517880.6999999285,A,wi,I,i,215,1,2390.0,515490.6999999285,8114,WL,B,10.0
4,23.375,learn,36625.0,Wed May 20 2026 18:43:54 GMT-0500 (Central Daylight Time),518088.2999999523,A,wif,I,f,191,1,2597.600000023842,515490.6999999285,8114,WL,B,10.0
4,23.52500009536743,learn,36474.99990463257,Wed May 20 2026 18:43:54 GMT-0500 (Central Daylight Time),518238.1999999285,A,wife,I,e,136,1,2747.5,515490.6999999285,8114,WL,B,10.0
4,23.89199995994568,learn,36108.00004005432,Wed May 20 2026 18:43:54 GMT-0500 (Central Daylight Time),518604.7999999523,A,wifeenter,I,enter,354,1,3114.100000023842,515490.6999999285,8114,WL,B,10.0
4,24.358999967575073,learn,35641.00003242493,Wed May 20 2026 18:43:54 GMT-0500 (Central Daylight Time),519071.5,A,w,I,w,459,1,466.5,518605.0,8114,WL,B,11.0
4,24.509000062942505,learn,35490.999937057495,Wed May 20 2026 18:43:54 GMT-0500 (Central Daylight Time),519221.39999997616,A,wi,I,i,129,1,616.3999999761581,518605.0,8114,WL,B,11.0
4,24.692000150680542,learn,35307.99984931946,Wed May 20 2026 18:43:54 GMT-0500 (Central Daylight Time),519404.7999999523,A,win,I,n,163,1,799.7999999523163,518605.0,8114,WL,B,11.0
4,24.825000047683716,learn,35174.999952316284,Wed May 20 2026 18:43:54 GMT-0500 (Central Daylight Time),519538.0,A,wind,I,d,124,1,933.0,518605.0,8114,WL,B,11.0
4,25.02500009536743,learn,34974.99990463257,Wed May 20 2026 18:43:54 GMT-0500 (Central Daylight Time),519738.0,A,windo,I,o,182,1,1133.0,518605.0,8114,WL,B,11.0
4,25.341000080108643,learn,34658.99991989136,Wed May 20 2026 18:43:54 GMT-0500 (Central Daylight Time),520054.09999990463,A,window,I,w,310,1,1449.0999999046326,518605.0,8114,WL,B,11.0
4,25.95799994468689,learn,34042.00005531311,Wed May 20 2026 18:43:54 GMT-0500 (Central Daylight Time),520670.59999990463,A,windowenter,I,enter,609,1,2065.5999999046326,518605.0,8114,WL,B,11.0
4,26.258000135421753,learn,33741.99986457825,Wed May 20 2026 18:43:54 GMT-0500 (Central Daylight Time),520970.5,A,c,I,c,289,1,299.60000002384186,520670.89999997616,8114,WL,B,12.0
4,26.424000024795532,learn,33575.99997520447,Wed May 20 2026 18:43:54 GMT-0500 (Central Daylight Time),521137.09999990463,A,ci,I,i,156,1,466.1999999284744,520670.89999997616,8114,WL,B,12.0
4,26.723999977111816,learn,33276.00002288818,Wed May 20 2026 18:43:54 GMT-0500 (Central Daylight Time),521437.1999999285,A,cit,I,t,287,1,766.2999999523163,520670.89999997616,8114,WL,B,12.0
4,26.924999952316284,learn,33075.000047683716,Wed May 20 2026 18:43:54 GMT-0500 (Central Daylight Time),521637.39999997616,A,city,I,y,179,1,966.5,520670.89999997616,8114,WL,B,12.0
4,27.54100012779236,learn,32458.99987220764,Wed May 20 2026 18:43:54 GMT-0500 (Central Daylight Time),522253.59999990463,A,cityenter,I,enter,611,1,1582.6999999284744,520670.89999997616,8114,WL,B,12.0
4,28.407000064849854,learn,31592.999935150146,Wed May 20 2026 18:43:54 GMT-0500 (Central Daylight Time),523120.1999999285,A,c,I,c,860,1,866.2999999523163,522253.89999997616,8114,WL,B,13.0
4,28.707000017166138,learn,31292.999982833862,Wed May 20 2026 18:43:54 GMT-0500 (Central Daylight Time),523420.0,A,ca,I,a,279,1,1166.1000000238419,522253.89999997616,8114,WL,B,13.0
4,28.957000017166138,learn,31042.999982833862,Wed May 20 2026 18:43:54 GMT-0500 (Central Daylight Time),523670.0,A,cab,I,b,229,1,1416.1000000238419,522253.89999997616,8114,WL,B,13.0
4,29.157000064849854,learn,30842.999935150146,Wed May 20 2026 18:43:54 GMT-0500 (Central Daylight Time),523869.6999999285,A,cabi,I,i,186,1,1615.7999999523163,522253.89999997616,8114,WL,B,13.0
4,29.407000064849854,learn,30592.999935150146,Wed May 20 2026 18:43:54 GMT-0500 (Central Daylight Time),524119.7999999523,A,cabin,I,n,234,1,1865.8999999761581,522253.89999997616,8114,WL,B,13.0
4,30.924000024795532,learn,29075.999975204468,Wed May 20 2026 18:43:54 GMT-0500 (Central Daylight Time),525636.2999999523,A,cabinenter,I,enter,1505,1,3382.399999976158,522253.89999997616,8114,WL,B,13.0
4,31.289999961853027,learn,28710.000038146973,Wed May 20 2026 18:43:54 GMT-0500 (Central Daylight Time),526002.5999999046,A,l,I,l,356,1,365.89999997615814,525636.6999999285,8114,WL,B,14.0
4,31.473000049591064,learn,28526.999950408936,Wed May 20 2026 18:43:54 GMT-0500 (Central Daylight Time),526185.8999999762,A,la,I,a,165,1,549.2000000476837,525636.6999999285,8114,WL,B,14.0
4,31.75600004196167,learn,28243.99995803833,Wed May 20 2026 18:43:54 GMT-0500 (Central Daylight Time),526468.6999999285,A,lak,I,k,277,1,832.0,525636.6999999285,8114,WL,B,14.0
4,31.939000129699707,learn,28060.999870300293,Wed May 20 2026 18:43:54 GMT-0500 (Central Daylight Time),526651.8999999762,A,lake,I,e,170,1,1015.2000000476837,525636.6999999285,8114,WL,B,14.0
4,32.32299995422363,learn,27677.000045776367,Wed May 20 2026 18:43:54 GMT-0500 (Central Daylight Time),527035.5999999046,A,lakeenter,I,enter,364,1,1398.8999999761581,525636.6999999285,8114,WL,B,14.0
4,32.789000034332275,learn,27210.999965667725,Wed May 20 2026 18:43:54 GMT-0500 (Central Daylight Time),527501.7999999523,A,f,I,f,461,1,465.7999999523163,527036.0,8114,WL,B,15.0
4,32.973000049591064,learn,27026.999950408936,Wed May 20 2026 18:43:54 GMT-0500 (Central Daylight Time),527685.5,A,fi,I,i,163,1,649.5,527036.0,8114,WL,B,15.0
4,33.18900012969971,learn,26810.999870300293,Wed May 20 2026 18:43:54 GMT-0500 (Central Daylight Time),527901.7999999523,A,fir,I,r,203,1,865.7999999523163,527036.0,8114,WL,B,15.0
4,33.371999979019165,learn,26628.000020980835,Wed May 20 2026 18:43:54 GMT-0500 (Central Daylight Time),528085.0999999046,A,fire,I,e,171,1,1049.0999999046326,527036.0,8114,WL,B,15.0
4,34.90499997138977,learn,25095.00002861023,Wed May 20 2026 18:43:54 GMT-0500 (Central Daylight Time),529618.1999999285,A,fireenter,I,enter,1523,1,2582.1999999284744,527036.0,8114,WL,B,15.0
5,1.2660000324249268,learn,60000.0,Wed May 20 2026 18:43:54 GMT-0500 (Central Daylight Time),596680.5999999046,A,p,I,p,1251,1,1266.3999999761581,595414.1999999285,8114,WL,B,1.0
5,1.565999984741211,learn,60000.0,Wed May 20 2026 18:43:54 GMT-0500 (Central Daylight Time),596980.5999999046,A,pu,I,u,280,1,1566.3999999761581,595414.1999999285,8114,WL,B,1.0
5,1.8489999771118164,learn,60000.0,Wed May 20 2026 18:43:54 GMT-0500 (Central Daylight Time),597263.5,A,pup,I,p,275,1,1849.3000000715256,595414.1999999285,8114,WL,B,1.0
5,2.133000135421753,learn,60000.0,Wed May 20 2026 18:43:54 GMT-0500 (Central Daylight Time),597546.8999999762,A,pupi,I,i,272,1,2132.7000000476837,595414.1999999285,8114,WL,B,1.0
5,2.4820001125335693,learn,60000.0,Wed May 20 2026 18:43:54 GMT-0500 (Central Daylight Time),597896.6999999285,A,pupil,I,l,333,1,2482.5,595414.1999999285,8114,WL,B,1.0
5,3.6490001678466797,learn,60000.0,Wed May 20 2026 18:43:54 GMT-0500 (Central Daylight Time),599063.0999999046,A,pupilenter,I,enter,1159,1,3648.899999976158,595414.1999999285,8114,WL,B,1.0
5,4.265000104904175,learn,60000.0,Wed May 20 2026 18:43:54 GMT-0500 (Central Daylight Time),599679.5,A,s,I,s,609,1,616.1000000238419,599063.3999999762,8114,WL,B,2.0
5,4.432000160217285,learn,60000.0,Wed May 20 2026 18:43:54 GMT-0500 (Central Daylight Time),599845.7999999523,A,sk,I,k,161,1,782.3999999761581,599063.3999999762,8114,WL,B,2.0
5,4.648000001907349,learn,60000.0,Wed May 20 2026 18:43:54 GMT-0500 (Central Daylight Time),600062.6999999285,A,ski,I,i,202,1,999.2999999523163,599063.3999999762,8114,WL,B,2.0
5,4.866000175476074,learn,60000.0,Wed May 20 2026 18:43:54 GMT-0500 (Central Daylight Time),600280.3999999762,A,skin,I,n,201,1,1217.0,599063.3999999762,8114,WL,B,2.0
5,5.781000137329102,learn,60000.0,Wed May 20 2026 18:43:54 GMT-0500 (Central Daylight Time),601195.6999999285,A,skinenter,I,enter,895,1,2132.2999999523163,599063.3999999762,8114,WL,B,2.0
5,6.246999979019165,learn,60000.0,Wed May 20 2026 18:43:54 GMT-0500 (Central Daylight Time),601662.1999999285,A,p,I,p,453,1,466.10000002384186,601196.0999999046,8114,WL,B,3.0
5,6.680999994277954,learn,60000.0,Wed May 20 2026 18:43:54 GMT-0500 (Central Daylight Time),602095.2999999523,A,pi,I,i,418,1,899.2000000476837,601196.0999999046,8114,WL,B,3.0
5,6.864000082015991,learn,60000.0,Wed May 20 2026 18:43:54 GMT-0500 (Central Daylight Time),602278.6999999285,A,pip,I,p,177,1,1082.6000000238419,601196.0999999046,8114,WL,B,3.0
5,7.180000066757202,learn,60000.0,Wed May 20 2026 18:43:54 GMT-0500 (Central Daylight Time),602595.1999999285,A,pipe,I,e,298,1,1399.1000000238419,601196.0999999046,8114,WL,B,3.0
5,7.5970001220703125,learn,60000.0,Wed May 20 2026 18:43:54 GMT-0500 (Central Daylight Time),603011.7999999523,A,pipeenter,I,enter,397,1,1815.7000000476837,601196.0999999046,8114,WL,B,3.0
5,8.147000074386597,learn,60000.0,Wed May 20 2026 18:43:54 GMT-0500 (Central Daylight Time),603561.3999999762,A,c,I,c,532,1,549.3000000715256,603012.0999999046,8114,WL,B,4.0
5,8.330000162124634,learn,60000.0,Wed May 20 2026 18:43:54 GMT-0500 (Central Daylight Time),603744.8999999762,A,cl,I,l,167,1,732.8000000715256,603012.0999999046,8114,WL,B,4.0
5,8.547000169754028,learn,60000.0,Wed May 20 2026 18:43:54 GMT-0500 (Central Daylight Time),603961.3999999762,A,clo,I,o,199,1,949.3000000715256,603012.0999999046,8114,WL,B,4.0
5,8.797000169754028,learn,60000.0,Wed May 20 2026 18:43:54 GMT-0500 (Central Daylight Time),604211.2999999523,A,cloc,I,c,231,1,1199.2000000476837,603012.0999999046,8114,WL,B,4.0
5,9.063000202178955,learn,60000.0,Wed May 20 2026 18:43:54 GMT-0500 (Central Daylight Time),604478.0999999046,A,clock,I,k,245,1,1466.0,603012.0999999046,8114,WL,B,4.0
5,9.763000011444092,learn,60000.0,Wed May 20 2026 18:43:54 GMT-0500 (Central Daylight Time),605177.5999999046,A,clockenter,I,enter,691,1,2165.5,603012.0999999046,8114,WL,B,4.0
5,10.296000003814697,learn,60000.0,Wed May 20 2026 18:43:54 GMT-0500 (Central Daylight Time),605711.0999999046,A,s,I,s,519,1,533.1999999284744,605177.8999999762,8114,WL,B,5.0
5,10.563000202178955,learn,60000.0,Wed May 20 2026 18:43:54 GMT-0500 (Central Daylight Time),605977.2999999523,A,st,I,t,257,1,799.3999999761581,605177.8999999762,8114,WL,B,5.0
5,10.779000043869019,learn,60000.0,Wed May 20 2026 18:43:54 GMT-0500 (Central Daylight Time),606194.0999999046,A,str,I,r,207,1,1016.1999999284744,605177.8999999762,8114,WL,B,5.0
5,11.013000011444092,learn,60000.0,Wed May 20 2026 18:43:54 GMT-0500 (Central Daylight Time),606427.3999999762,A,stre,I,e,214,1,1249.5,605177.8999999762,8114,WL,B,5.0
5,11.162000179290771,learn,60000.0,Wed May 20 2026 18:43:54 GMT-0500 (Central Daylight Time),606577.0999999046,A,stree,I,e,141,1,1399.1999999284744,605177.8999999762,8114,WL,B,5.0
5,11.361999988555908,learn,60000.0,Wed May 20 2026 18:43:54 GMT-0500 (Central Daylight Time),606777.0999999046,A,street,I,t,191,1,1599.1999999284744,605177.8999999762,8114,WL,B,5.0
5,12.26200008392334,learn,60000.0,Wed May 20 2026 18:43:54 GMT-0500 (Central Daylight Time),607676.7999999523,A,streetenter,I,enter,887,1,2498.899999976158,605177.8999999762,8114,WL,B,5.0
5,12.712000131607056,learn,60000.0,Wed May 20 2026 18:43:54 GMT-0500 (Central Daylight Time),608126.7999999523,A,g,I,g,444,1,449.7000000476837,607677.0999999046,8114,WL,B,6.0
5,12.962000131607056,learn,60000.0,Wed May 20 2026 18:43:54 GMT-0500 (Central Daylight Time),608376.8999999762,A,gr,I,r,242,1,699.8000000715256,607677.0999999046,8114,WL,B,6.0
5,13.212000131607056,learn,60000.0,Wed May 20 2026 18:43:54 GMT-0500 (Central Daylight Time),608626.5,A,gra,I,a,240,1,949.4000000953674,607677.0999999046,8114,WL,B,6.0
5,13.478000164031982,learn,60000.0,Wed May 20 2026 18:43:54 GMT-0500 (Central Daylight Time),608893.1999999285,A,gras,I,s,253,1,1216.1000000238419,607677.0999999046,8114,WL,B,6.0
5,13.644999980926514,learn,60000.0,Wed May 20 2026 18:43:54 GMT-0500 (Central Daylight Time),609060.0999999046,A,grass,I,s,146,1,1383.0,607677.0999999046,8114,WL,B,6.0
5,13.86300015449524,learn,60000.0,Wed May 20 2026 18:43:54 GMT-0500 (Central Daylight Time),609277.6999999285,A,grassenter,I,enter,204,1,1600.6000000238419,607677.0999999046,8114,WL,B,6.0
5,14.195000171661377,learn,60000.0,Wed May 20 2026 18:43:54 GMT-0500 (Central Daylight Time),609609.6999999285,A,d,I,d,315,1,331.6999999284744,609278.0,8114,WL,B,7.0
5,14.528000116348267,learn,60000.0,Wed May 20 2026 18:43:54 GMT-0500 (Central Daylight Time),609943.0,A,do,I,o,327,1,665.0,609278.0,8114,WL,B,7.0
5,14.695000171661377,learn,60000.0,Wed May 20 2026 18:43:54 GMT-0500 (Central Daylight Time),610109.7999999523,A,doo,I,o,153,1,831.7999999523163,609278.0,8114,WL,B,7.0
5,14.894999980926514,learn,60000.0,Wed May 20 2026 18:43:54 GMT-0500 (Central Daylight Time),610309.3999999762,A,door,I,r,179,1,1031.3999999761581,609278.0,8114,WL,B,7.0
5,15.99400019645691,learn,60000.0,Wed May 20 2026 18:43:54 GMT-0500 (Central Daylight Time),611409.0999999046,A,doorenter,I,enter,1090,1,2131.0999999046326,609278.0,8114,WL,B,7.0
5,16.261000156402588,learn,60000.0,Wed May 20 2026 18:43:54 GMT-0500 (Central Daylight Time),611675.8999999762,A,a,I,a,247,1,266.5,611409.3999999762,8114,WL,B,8.0
5,16.544000148773193,learn,60000.0,Wed May 20 2026 18:43:54 GMT-0500 (Central Daylight Time),611958.7999999523,A,ar,I,r,276,1,549.3999999761581,611409.3999999762,8114,WL,B,8.0
5,17.011000156402588,learn,60000.0,Wed May 20 2026 18:43:54 GMT-0500 (Central Daylight Time),612425.5999999046,A,arm,I,m,457,1,1016.1999999284744,611409.3999999762,8114,WL,B,8.0
5,17.377000093460083,learn,60000.0,Wed May 20 2026 18:43:54 GMT-0500 (Central Daylight Time),612792.0,A,armenter,I,enter,358,1,1382.6000000238419,611409.3999999762,8114,WL,B,8.0
5,17.761000156402588,learn,60000.0,Wed May 20 2026 18:43:54 GMT-0500 (Central Daylight Time),613175.2999999523,A,s,I,s,368,1,382.89999997615814,612792.3999999762,8114,WL,B,9.0
5,18.009999990463257,learn,60000.0,Wed May 20 2026 18:43:54 GMT-0500 (Central Daylight Time),613425.1999999285,A,st,I,t,233,1,632.7999999523163,612792.3999999762,8114,WL,B,9.0
5,18.277000188827515,learn,60000.0,Wed May 20 2026 18:43:54 GMT-0500 (Central Daylight Time),613691.5,A,sta,I,a,256,1,899.1000000238419,612792.3999999762,8114,WL,B,9.0
5,18.710000038146973,learn,60000.0,Wed May 20 2026 18:43:54 GMT-0500 (Central Daylight Time),614125.1999999285,A,star,I,r,412,1,1332.7999999523163,612792.3999999762,8114,WL,B,9.0
5,20.759000062942505,learn,60000.0,Wed May 20 2026 18:43:54 GMT-0500 (Central Daylight Time),616174.0999999046,A,starenter,I,enter,2043,1,3381.6999999284744,612792.3999999762,8114,WL,B,9.0
5,21.593000173568726,learn,60000.0,Wed May 20 2026 18:43:54 GMT-0500 (Central Daylight Time),617007.5999999046,A,w,I,w,818,1,833.2999999523163,616174.2999999523,8114,WL,B,10.0
5,21.743000030517578,learn,60000.0,Wed May 20 2026 18:43:54 GMT-0500 (Central Daylight Time),617157.5999999046,A,wi,I,i,136,1,983.2999999523163,616174.2999999523,8114,WL,B,10.0
5,22.159000158309937,learn,60000.0,Wed May 20 2026 18:43:54 GMT-0500 (Central Daylight Time),617573.6999999285,A,wif,I,f,411,1,1399.3999999761581,616174.2999999523,8114,WL,B,10.0
5,22.30900001525879,learn,60000.0,Wed May 20 2026 18:43:54 GMT-0500 (Central Daylight Time),617723.6999999285,A,wife,I,e,138,1,1549.3999999761581,616174.2999999523,8114,WL,B,10.0
5,23.159000158309937,learn,60000.0,Wed May 20 2026 18:43:54 GMT-0500 (Central Daylight Time),618573.5,A,wifeenter,I,enter,828,1,2399.2000000476837,616174.2999999523,8114,WL,B,10.0
5,23.825000047683716,learn,60000.0,Wed May 20 2026 18:43:54 GMT-0500 (Central Daylight Time),619239.8999999762,A,w,I,w,651,1,666.0,618573.8999999762,8114,WL,B,11.0
5,24.02500009536743,learn,60000.0,Wed May 20 2026 18:43:54 GMT-0500 (Central Daylight Time),619440.0999999046,A,wi,I,i,192,1,866.1999999284744,618573.8999999762,8114,WL,B,11.0
5,24.20800018310547,learn,60000.0,Wed May 20 2026 18:43:54 GMT-0500 (Central Daylight Time),619623.0999999046,A,win,I,n,176,1,1049.1999999284744,618573.8999999762,8114,WL,B,11.0
5,24.375,learn,60000.0,Wed May 20 2026 18:43:54 GMT-0500 (Central Daylight Time),619789.6999999285,A,wind,I,d,161,1,1215.7999999523163,618573.8999999762,8114,WL,B,11.0
5,24.575000047683716,learn,60000.0,Wed May 20 2026 18:43:54 GMT-0500 (Central Daylight Time),619989.7999999523,A,windo,I,o,187,1,1415.8999999761581,618573.8999999762,8114,WL,B,11.0
5,24.991000175476074,learn,60000.0,Wed May 20 2026 18:43:54 GMT-0500 (Central Daylight Time),620406.0,A,window,I,w,411,1,1832.1000000238419,618573.8999999762,8114,WL,B,11.0
5,25.907999992370605,learn,60000.0,Wed May 20 2026 18:43:54 GMT-0500 (Central Daylight Time),621322.6999999285,A,windowenter,I,enter,899,1,2748.7999999523163,618573.8999999762,8114,WL,B,11.0
5,26.29100012779236,learn,60000.0,Wed May 20 2026 18:43:54 GMT-0500 (Central Daylight Time),621706.2999999523,A,c,I,c,365,1,383.2999999523163,621323.0,8114,WL,B,12.0
5,26.473999977111816,learn,60000.0,Wed May 20 2026 18:43:54 GMT-0500 (Central Daylight Time),621889.0999999046,A,ci,I,i,165,1,566.0999999046326,621323.0,8114,WL,B,12.0
5,26.70800018310547,learn,60000.0,Wed May 20 2026 18:43:54 GMT-0500 (Central Daylight Time),622122.3999999762,A,cit,I,t,216,1,799.3999999761581,621323.0,8114,WL,B,12.0
5,26.907999992370605,learn,60000.0,Wed May 20 2026 18:43:54 GMT-0500 (Central Daylight Time),622322.3999999762,A,city,I,y,182,1,999.3999999761581,621323.0,8114,WL,B,12.0
5,27.60700011253357,learn,60000.0,Wed May 20 2026 18:43:54 GMT-0500 (Central Daylight Time),623022.0999999046,A,cityenter,I,enter,686,1,1699.0999999046326,621323.0,8114,WL,B,12.0
5,28.10700011253357,learn,60000.0,Wed May 20 2026 18:43:54 GMT-0500 (Central Daylight Time),623522.0999999046,A,c,I,c,482,1,499.59999990463257,623022.5,8114,WL,B,13.0
5,28.390000104904175,learn,60000.0,Wed May 20 2026 18:43:54 GMT-0500 (Central Daylight Time),623805.0999999046,A,ca,I,a,262,1,782.5999999046326,623022.5,8114,WL,B,13.0
5,28.540000200271606,learn,60000.0,Wed May 20 2026 18:43:54 GMT-0500 (Central Daylight Time),623955.1999999285,A,cab,I,b,139,1,932.6999999284744,623022.5,8114,WL,B,13.0
5,28.756999969482422,learn,60000.0,Wed May 20 2026 18:43:54 GMT-0500 (Central Daylight Time),624171.6999999285,A,cabi,I,i,196,1,1149.1999999284744,623022.5,8114,WL,B,13.0
5,28.990000009536743,learn,60000.0,Wed May 20 2026 18:43:54 GMT-0500 (Central Daylight Time),624405.0999999046,A,cabin,I,n,229,1,1382.5999999046326,623022.5,8114,WL,B,13.0
5,30.02300000190735,learn,60000.0,Wed May 20 2026 18:43:54 GMT-0500 (Central Daylight Time),625437.7999999523,A,cabinenter,I,enter,1028,1,2415.2999999523163,623022.5,8114,WL,B,13.0
5,30.456000089645386,learn,60000.0,Wed May 20 2026 18:43:54 GMT-0500 (Central Daylight Time),625871.0,A,l,I,l,427,1,432.90000009536743,625438.0999999046,8114,WL,B,14.0
5,30.623000144958496,learn,60000.0,Wed May 20 2026 18:43:54 GMT-0500 (Central Daylight Time),626037.6999999285,A,la,I,a,160,1,599.6000000238419,625438.0999999046,8114,WL,B,14.0
5,30.805999994277954,learn,60000.0,Wed May 20 2026 18:43:54 GMT-0500 (Central Daylight Time),626220.8999999762,A,lak,I,k,171,1,782.8000000715256,625438.0999999046,8114,WL,B,14.0
5,31.055999994277954,learn,60000.0,Wed May 20 2026 18:43:54 GMT-0500 (Central Daylight Time),626471.0,A,lake,I,e,243,1,1032.9000000953674,625438.0999999046,8114,WL,B,14.0
5,31.69000005722046,learn,60000.0,Wed May 20 2026 18:43:54 GMT-0500 (Central Daylight Time),627104.2999999523,A,lakeenter,I,enter,617,1,1666.2000000476837,625438.0999999046,8114,WL,B,14.0
5,32.121999979019165,learn,60000.0,Wed May 20 2026 18:43:54 GMT-0500 (Central Daylight Time),627537.0999999046,A,f,I,f,425,1,432.5,627104.5999999046,8114,WL,B,15.0
5,32.27300000190735,learn,60000.0,Wed May 20 2026 18:43:54 GMT-0500 (Central Daylight Time),627687.3999999762,A,fi,I,i,143,1,582.8000000715256,627104.5999999046,8114,WL,B,15.0
5,32.43900012969971,learn,60000.0,Wed May 20 2026 18:43:54 GMT-0500 (Central Daylight Time),627853.5999999046,A,fir,I,r,161,1,749.0,627104.5999999046,8114,WL,B,15.0
5,32.621999979019165,learn,60000.0,Wed May 20 2026 18:43:54 GMT-0500 (Central Daylight Time),628037.1999999285,A,fire,I,e,171,1,932.6000000238419,627104.5999999046,8114,WL,B,15.0
5,33.17200016975403,learn,60000.0,Wed May 20 2026 18:43:54 GMT-0500 (Central Daylight Time),628587.0999999046,A,fireenter,I,enter,539,1,1482.5,627104.5999999046,8114,WL,B,15.0
6,0.6669998168945312,distr,59333.00018310547,Wed May 20 2026 18:43:54 GMT-0500 (Central Daylight Time),710677.8999999762,B,b,I,b,661,1,665.8999999761581,710012.0,8114,WL,B,1.0
6,1.4829998016357422,distr,58517.00019836426,Wed May 20 2026 18:43:54 GMT-0500 (Central Daylight Time),711494.2999999523,B,ba,I,a,801,1,1482.2999999523163,710012.0,8114,WL,B,1.0
6,1.9659998416900635,distr,58034.00015830994,Wed May 20 2026 18:43:54 GMT-0500 (Central Daylight Time),711977.5999999046,B,bab,I,b,466,1,1965.5999999046326,710012.0,8114,WL,B,1.0
6,2.182999849319458,distr,57817.00015068054,Wed May 20 2026 18:43:54 GMT-0500 (Central Daylight Time),712194.2999999523,B,baby,I,y,199,1,2182.2999999523163,710012.0,8114,WL,B,1.0
6,3.232999801635742,distr,56767.00019836426,Wed May 20 2026 18:43:54 GMT-0500 (Central Daylight Time),713244.0,B,babyenter,I,enter,1030,1,3232.0,710012.0,8114,WL,B,1.0
6,3.882999897003174,distr,56117.000102996826,Wed May 20 2026 18:43:54 GMT-0500 (Central Daylight Time),713893.8999999762,B,o,I,o,636,1,649.6000000238419,713244.2999999523,8114,WL,B,2.0
6,4.098999977111816,distr,55901.00002288818,Wed May 20 2026 18:43:54 GMT-0500 (Central Daylight Time),714110.5,B,oc,I,c,202,1,866.2000000476837,713244.2999999523,8114,WL,B,2.0
6,4.298999786376953,distr,55701.00021362305,Wed May 20 2026 18:43:54 GMT-0500 (Central Daylight Time),714310.0999999046,B,oce,I,e,185,1,1065.7999999523163,713244.2999999523,8114,WL,B,2.0
6,4.615999937057495,distr,55384.000062942505,Wed May 20 2026 18:43:54 GMT-0500 (Central Daylight Time),714626.8999999762,B,ocen,I,n,298,1,1382.6000000238419,713244.2999999523,8114,WL,B,2.0
6,6.047999858856201,distr,53952.0001411438,Wed May 20 2026 18:43:54 GMT-0500 (Central Daylight Time),716059.5999999046,B,oce,I,backspace,1413,1,2815.2999999523163,713244.2999999523,8114,WL,B,2.0
6,6.747999906539917,distr,53252.00009346008,Wed May 20 2026 18:43:54 GMT-0500 (Central Daylight Time),716759.2999999523,B,ocea,I,a,684,1,3515.0,713244.2999999523,8114,WL,B,2.0
6,6.914999961853027,distr,53085.00003814697,Wed May 20 2026 18:43:54 GMT-0500 (Central Daylight Time),716925.8999999762,B,ocean,I,n,161,1,3681.600000023842,713244.2999999523,8114,WL,B,2.0
6,7.247999906539917,distr,52752.00009346008,Wed May 20 2026 18:43:54 GMT-0500 (Central Daylight Time),717259.5999999046,B,oceanenter,I,enter,323,1,4015.2999999523163,713244.2999999523,8114,WL,B,2.0
6,9.363999843597412,distr,50636.00015640259,Wed May 20 2026 18:43:54 GMT-0500 (Central Daylight Time),719375.3999999762,B,v,I,v,2101,1,2115.5,717259.8999999762,8114,WL,B,3.0
6,9.54699993133545,distr,50453.00006866455,Wed May 20 2026 18:43:54 GMT-0500 (Central Daylight Time),719558.3999999762,B,vi,I,i,177,1,2298.5,717259.8999999762,8114,WL,B,3.0
6,9.829999923706055,distr,50170.000076293945,Wed May 20 2026 18:43:54 GMT-0500 (Central Daylight Time),719841.5,B,vil,I,l,266,1,2581.600000023842,717259.8999999762,8114,WL,B,3.0
6,9.96399998664856,distr,50036.00001335144,Wed May 20 2026 18:43:54 GMT-0500 (Central Daylight Time),719975.0,B,vill,I,l,127,1,2715.100000023842,717259.8999999762,8114,WL,B,3.0
6,10.412999868392944,distr,49587.000131607056,Wed May 20 2026 18:43:54 GMT-0500 (Central Daylight Time),720424.8999999762,B,villi,I,i,433,1,3165.0,717259.8999999762,8114,WL,B,3.0
6,10.579999923706055,distr,49420.000076293945,Wed May 20 2026 18:43:54 GMT-0500 (Central Daylight Time),720591.5999999046,B,villia,I,a,159,1,3331.6999999284744,717259.8999999762,8114,WL,B,3.0
6,10.929999828338623,distr,49070.00017166138,Wed May 20 2026 18:43:54 GMT-0500 (Central Daylight Time),720941.2999999523,B,villiag,I,g,337,1,3681.399999976158,717259.8999999762,8114,WL,B,3.0
6,11.129999876022339,distr,48870.00012397766,Wed May 20 2026 18:43:54 GMT-0500 (Central Daylight Time),721141.1999999285,B,villiage,I,e,186,1,3881.2999999523163,717259.8999999762,8114,WL,B,3.0
6,15.194999933242798,distr,44805.0000667572,Wed May 20 2026 18:43:54 GMT-0500 (Central Daylight Time),725206.5999999046,B,villiageenter,I,enter,4059,1,7946.699999928474,717259.8999999762,8114,WL,B,3.0
6,18.49399995803833,distr,41506.00004196167,Wed May 20 2026 18:43:54 GMT-0500 (Central Daylight Time),728505.6999999285,B,b,I,b,3290,1,3298.899999976158,725206.7999999523,8114,WL,B,4.0
6,18.74399995803833,distr,41256.00004196167,Wed May 20 2026 18:43:54 GMT-0500 (Central Daylight Time),728755.7999999523,B,bu,I,u,230,1,3549.0,725206.7999999523,8114,WL,B,4.0
6,18.944000005722046,distr,41055.999994277954,Wed May 20 2026 18:43:54 GMT-0500 (Central Daylight Time),728955.6999999285,B,bui,I,i,181,1,3748.899999976158,725206.7999999523,8114,WL,B,4.0
6,19.209999799728394,distr,40790.00020027161,Wed May 20 2026 18:43:54 GMT-0500 (Central Daylight Time),729222.0999999046,B,buil,I,l,261,1,4015.2999999523163,725206.7999999523,8114,WL,B,4.0
6,19.459999799728394,distr,40540.00020027161,Wed May 20 2026 18:43:54 GMT-0500 (Central Daylight Time),729472.0,B,build,I,d,234,1,4265.200000047684,725206.7999999523,8114,WL,B,4.0
6,19.643999814987183,distr,40356.00018501282,Wed May 20 2026 18:43:54 GMT-0500 (Central Daylight Time),729655.3999999762,B,buildi,I,i,176,1,4448.600000023842,725206.7999999523,8114,WL,B,4.0
6,19.852999925613403,distr,40147.0000743866,Wed May 20 2026 18:43:54 GMT-0500 (Central Daylight Time),729864.8999999762,B,buildin,I,n,205,1,4658.100000023842,725206.7999999523,8114,WL,B,4.0
6,20.060999870300293,distr,39939.00012969971,Wed May 20 2026 18:43:54 GMT-0500 (Central Daylight Time),730072.0999999046,B,building,I,g,193,1,4865.299999952316,725206.7999999523,8114,WL,B,4.0
6,21.209999799728394,distr,38790.00020027161,Wed May 20 2026 18:43:54 GMT-0500 (Central Daylight Time),731221.5999999046,B,buildingenter,I,enter,1136,1,6014.799999952316,725206.7999999523,8114,WL,B,4.0
6,21.609999895095825,distr,38390.000104904175,Wed May 20 2026 18:43:54 GMT-0500 (Central Daylight Time),731621.5999999046,B,l,I,l,378,1,399.59999990463257,731222.0,8114,WL,B,5.0
6,21.842999935150146,distr,38157.00006484985,Wed May 20 2026 18:43:54 GMT-0500 (Central Daylight Time),731855.0,B,li,I,i,218,1,633.0,731222.0,8114,WL,B,5.0
6,22.092999935150146,distr,37907.00006484985,Wed May 20 2026 18:43:54 GMT-0500 (Central Daylight Time),732104.7999999523,B,lip,I,p,241,1,882.7999999523163,731222.0,8114,WL,B,5.0
6,23.292999982833862,distr,36707.00001716614,Wed May 20 2026 18:43:54 GMT-0500 (Central Daylight Time),733304.1999999285,B,lipenter,I,enter,1192,1,2082.1999999284744,731222.0,8114,WL,B,5.0
6,23.608999967575073,distr,36391.00003242493,Wed May 20 2026 18:43:54 GMT-0500 (Central Daylight Time),733621.0,B,c,I,c,304,1,316.5,733304.5,8114,WL,B,6.0
6,23.742999792099,distr,36257.000207901,Wed May 20 2026 18:43:54 GMT-0500 (Central Daylight Time),733754.1999999285,B,co,I,o,115,1,449.6999999284744,733304.5,8114,WL,B,6.0
6,23.97599983215332,distr,36024.00016784668,Wed May 20 2026 18:43:54 GMT-0500 (Central Daylight Time),733987.3999999762,B,coi,I,i,214,1,682.8999999761581,733304.5,8114,WL,B,6.0
6,24.20899987220764,distr,35791.00012779236,Wed May 20 2026 18:43:54 GMT-0500 (Central Daylight Time),734220.3999999762,B,coin,I,n,213,1,915.8999999761581,733304.5,8114,WL,B,6.0
6,24.524999856948853,distr,35475.00014305115,Wed May 20 2026 18:43:54 GMT-0500 (Central Daylight Time),734537.0,B,coinenter,I,enter,308,1,1232.5,733304.5,8114,WL,B,6.0
6,25.04199981689453,distr,34958.00018310547,Wed May 20 2026 18:43:54 GMT-0500 (Central Daylight Time),735053.6999999285,B,c,I,c,512,1,516.3999999761581,734537.2999999523,8114,WL,B,7.0
6,25.241999864578247,distr,34758.00013542175,Wed May 20 2026 18:43:54 GMT-0500 (Central Daylight Time),735253.7999999523,B,ce,I,e,187,1,716.5,734537.2999999523,8114,WL,B,7.0
6,25.424999952316284,distr,34575.000047683716,Wed May 20 2026 18:43:54 GMT-0500 (Central Daylight Time),735437.0999999046,B,cel,I,l,178,1,899.7999999523163,734537.2999999523,8114,WL,B,7.0
6,25.625,distr,34375.0,Wed May 20 2026 18:43:54 GMT-0500 (Central Daylight Time),735637.0999999046,B,cell,I,l,180,1,1099.7999999523163,734537.2999999523,8114,WL,B,7.0
6,27.574999809265137,distr,32425.000190734863,Wed May 20 2026 18:43:54 GMT-0500 (Central Daylight Time),737586.3999999762,B,cellenter,I,enter,1931,1,3049.100000023842,734537.2999999523,8114,WL,B,7.0
6,30.490999937057495,distr,29509.000062942505,Wed May 20 2026 18:43:54 GMT-0500 (Central Daylight Time),740503.1999999285,B,a,I,a,2901,1,2916.399999976158,737586.7999999523,8114,WL,B,8.0
6,30.83999991416931,distr,29160.00008583069,Wed May 20 2026 18:43:54 GMT-0500 (Central Daylight Time),740852.0,B,ar,I,r,337,1,3265.2000000476837,737586.7999999523,8114,WL,B,8.0
6,31.239999771118164,distr,28760.000228881836,Wed May 20 2026 18:43:54 GMT-0500 (Central Daylight Time),741251.6999999285,B,arm,I,m,380,1,3664.899999976158,737586.7999999523,8114,WL,B,8.0
6,31.722999811172485,distr,28277.000188827515,Wed May 20 2026 18:43:54 GMT-0500 (Central Daylight Time),741734.8999999762,B,army,I,y,468,1,4148.100000023842,737586.7999999523,8114,WL,B,8.0
6,34.02199983596802,distr,25978.000164031982,Wed May 20 2026 18:43:54 GMT-0500 (Central Daylight Time),744034.0999999046,B,armyenter,I,enter,2280,1,6447.299999952316,737586.7999999523,8114,WL,B,8.0
6,48.45099997520447,distr,11549.000024795532,Wed May 20 2026 18:43:54 GMT-0500 (Central Daylight Time),758462.7999999523,B,f,I,f,14414,1,14428.399999976158,744034.3999999762,8114,WL,B,9.0
6,48.68599987030029,distr,11314.000129699707,Wed May 20 2026 18:43:54 GMT-0500 (Central Daylight Time),758697.5,B,fr,I,r,217,1,14663.100000023842,744034.3999999762,8114,WL,B,9.0
6,48.88499999046326,distr,11115.000009536743,Wed May 20 2026 18:43:54 GMT-0500 (Central Daylight Time),758896.2999999523,B,fri,I,i,182,1,14861.899999976158,744034.3999999762,8114,WL,B,9.0
6,49.35199999809265,distr,10648.000001907349,Wed May 20 2026 18:43:54 GMT-0500 (Central Daylight Time),759363.7999999523,B,frie,I,e,448,1,15329.399999976158,744034.3999999762,8114,WL,B,9.0
6,49.50099992752075,distr,10499.000072479248,Wed May 20 2026 18:43:54 GMT-0500 (Central Daylight Time),759512.5999999046,B,frien,I,n,140,1,15478.199999928474,744034.3999999762,8114,WL,B,9.0
6,49.633999824523926,distr,10366.000175476074,Wed May 20 2026 18:43:54 GMT-0500 (Central Daylight Time),759646.0999999046,B,friend,I,d,120,1,15611.699999928474,744034.3999999762,8114,WL,B,9.0
6,50.467000007629395,distr,9532.999992370605,Wed May 20 2026 18:43:54 GMT-0500 (Central Daylight Time),760479.0,B,friendenter,I,enter,818,1,16444.600000023842,744034.3999999762,8114,WL,B,9.0
6,60.013999938964844,distr,-13.99993896484375,Wed May 20 2026 18:43:54 GMT-0500 (Central Daylight Time),770026.0,B,None,I,None,9542,1,9546.700000047684,760479.2999999523,8114,WL,B,10.0
7,2.0160000324249268,immed,57983.99996757507,Wed May 20 2026 18:43:54 GMT-0500 (Central Daylight Time),790803.0999999046,A,s,I,s,2007,1,2015.7999999523163,788787.2999999523,8114,WL,B,1.0
7,2.315999984741211,immed,57684.00001525879,Wed May 20 2026 18:43:54 GMT-0500 (Central Daylight Time),791102.8999999762,A,st,I,t,284,1,2315.600000023842,788787.2999999523,8114,WL,B,1.0
7,2.6489999294281006,immed,57351.0000705719,Wed May 20 2026 18:43:54 GMT-0500 (Central Daylight Time),791436.0,A,str,I,r,321,1,2648.7000000476837,788787.2999999523,8114,WL,B,1.0
7,2.8989999294281006,immed,57101.0000705719,Wed May 20 2026 18:43:54 GMT-0500 (Central Daylight Time),791686.1999999285,A,stre,I,e,244,1,2898.899999976158,788787.2999999523,8114,WL,B,1.0
7,3.0820000171661377,immed,56917.99998283386,Wed May 20 2026 18:43:54 GMT-0500 (Central Daylight Time),791869.0999999046,A,stree,I,e,162,1,3081.7999999523163,788787.2999999523,8114,WL,B,1.0
7,3.5320000648498535,immed,56467.99993515015,Wed May 20 2026 18:43:54 GMT-0500 (Central Daylight Time),792319.0999999046,A,street,I,t,435,1,3531.7999999523163,788787.2999999523,8114,WL,B,1.0
7,3.999000072479248,immed,56000.99992752075,Wed May 20 2026 18:43:54 GMT-0500 (Central Daylight Time),792785.5999999046,A,streetenter,I,enter,449,1,3998.2999999523163,788787.2999999523,8114,WL,B,1.0
7,4.4649999141693115,immed,55535.00008583069,Wed May 20 2026 18:43:54 GMT-0500 (Central Daylight Time),793252.2999999523,A,g,I,g,454,1,466.2999999523163,792786.0,8114,WL,B,2.0
7,4.7149999141693115,immed,55285.00008583069,Wed May 20 2026 18:43:54 GMT-0500 (Central Daylight Time),793502.0,A,gr,I,r,228,1,716.0,792786.0,8114,WL,B,2.0
7,4.947999954223633,immed,55052.00004577637,Wed May 20 2026 18:43:54 GMT-0500 (Central Daylight Time),793735.2999999523,A,gra,I,a,227,1,949.2999999523163,792786.0,8114,WL,B,2.0
7,5.2149999141693115,immed,54785.00008583069,Wed May 20 2026 18:43:54 GMT-0500 (Central Daylight Time),794001.6999999285,A,gras,I,s,249,1,1215.6999999284744,792786.0,8114,WL,B,2.0
7,5.381999969482422,immed,54618.00003051758,Wed May 20 2026 18:43:54 GMT-0500 (Central Daylight Time),794168.5,A,grass,I,s,150,1,1382.5,792786.0,8114,WL,B,2.0
7,6.249000072479248,immed,53750.99992752075,Wed May 20 2026 18:43:54 GMT-0500 (Central Daylight Time),795036.1999999285,A,grassenter,I,enter,855,1,2250.1999999284744,792786.0,8114,WL,B,2.0
7,7.04800009727478,immed,52951.99990272522,Wed May 20 2026 18:43:54 GMT-0500 (Central Daylight Time),795835.0,A,d,I,d,780,1,798.5,795036.5,8114,WL,B,3.0
7,7.248000144958496,immed,52751.999855041504,Wed May 20 2026 18:43:54 GMT-0500 (Central Daylight Time),796034.5999999046,A,do,I,o,181,1,998.0999999046326,795036.5,8114,WL,B,3.0
7,7.38100004196167,immed,52618.99995803833,Wed May 20 2026 18:43:54 GMT-0500 (Central Daylight Time),796168.1999999285,A,doo,I,o,118,1,1131.6999999284744,795036.5,8114,WL,B,3.0
7,7.648000001907349,immed,52351.99999809265,Wed May 20 2026 18:43:54 GMT-0500 (Central Daylight Time),796434.7999999523,A,door,I,r,256,1,1398.2999999523163,795036.5,8114,WL,B,3.0
7,9.180999994277954,immed,50819.000005722046,Wed May 20 2026 18:43:54 GMT-0500 (Central Daylight Time),797967.3999999762,A,doorenter,I,enter,1526,1,2930.899999976158,795036.5,8114,WL,B,3.0
7,9.46399998664856,immed,50536.00001335144,Wed May 20 2026 18:43:54 GMT-0500 (Central Daylight Time),798250.5,A,a,I,a,265,1,282.8000000715256,797967.6999999285,8114,WL,B,4.0
7,9.730999946594238,immed,50269.00005340576,Wed May 20 2026 18:43:54 GMT-0500 (Central Daylight Time),798517.5999999046,A,ar,I,r,254,1,549.8999999761581,797967.6999999285,8114,WL,B,4.0
7,9.94700002670288,immed,50052.99997329712,Wed May 20 2026 18:43:54 GMT-0500 (Central Daylight Time),798734.0,A,arn,I,n,201,1,766.3000000715256,797967.6999999285,8114,WL,B,4.0
7,10.347000122070312,immed,49652.99987792969,Wed May 20 2026 18:43:54 GMT-0500 (Central Daylight Time),799133.8999999762,A,arnenter,I,enter,387,1,1166.2000000476837,797967.6999999285,8114,WL,B,4.0
7,12.396000146865845,immed,47603.999853134155,Wed May 20 2026 18:43:54 GMT-0500 (Central Daylight Time),801183.0,A,a,I,a,2043,1,2048.9000000953674,799134.0999999046,8114,WL,B,5.0
7,12.845999956130981,immed,47154.00004386902,Wed May 20 2026 18:43:54 GMT-0500 (Central Daylight Time),801632.8999999762,A,ar,I,r,441,1,2498.8000000715256,799134.0999999046,8114,WL,B,5.0
7,14.046000003814697,immed,45953.9999961853,Wed May 20 2026 18:43:54 GMT-0500 (Central Daylight Time),802832.5,A,arm,I,m,1183,1,3698.4000000953674,799134.0999999046,8114,WL,B,5.0
7,17.311000108718872,immed,42688.99989128113,Wed May 20 2026 18:43:54 GMT-0500 (Central Daylight Time),806098.0,A,ar,I,backspace,3247,1,6963.900000095367,799134.0999999046,8114,WL,B,5.0
7,17.51099991798401,immed,42489.00008201599,Wed May 20 2026 18:43:54 GMT-0500 (Central Daylight Time),806298.0,A,a,I,backspace,192,1,7163.900000095367,799134.0999999046,8114,WL,B,5.0
7,17.710999965667725,immed,42289.000034332275,Wed May 20 2026 18:43:54 GMT-0500 (Central Daylight Time),806499.0999999046,A,,I,backspace,190,1,7365.0,799134.0999999046,8114,WL,B,5.0
7,18.74399995803833,immed,41256.00004196167,Wed May 20 2026 18:43:54 GMT-0500 (Central Daylight Time),807531.0999999046,A,s,I,s,1013,1,8397.0,799134.0999999046,8114,WL,B,5.0
7,19.26099991798401,immed,40739.00008201599,Wed May 20 2026 18:43:54 GMT-0500 (Central Daylight Time),808047.5999999046,A,st,I,t,509,1,8913.5,799134.0999999046,8114,WL,B,5.0
7,19.610000133514404,immed,40389.999866485596,Wed May 20 2026 18:43:54 GMT-0500 (Central Daylight Time),808397.1999999285,A,sta,I,a,345,1,9263.100000023842,799134.0999999046,8114,WL,B,5.0
7,19.91000008583069,immed,40089.99991416931,Wed May 20 2026 18:43:54 GMT-0500 (Central Daylight Time),808697.1999999285,A,star,I,r,291,1,9563.100000023842,799134.0999999046,8114,WL,B,5.0
7,21.276999950408936,immed,38723.000049591064,Wed May 20 2026 18:43:54 GMT-0500 (Central Daylight Time),810063.6999999285,A,starenter,I,enter,1351,1,10929.600000023842,799134.0999999046,8114,WL,B,5.0
7,23.259000062942505,immed,36740.999937057495,Wed May 20 2026 18:43:54 GMT-0500 (Central Daylight Time),812046.0,A,w,I,w,1977,1,1981.9000000953674,810064.0999999046,8114,WL,B,6.0
7,23.426000118255615,immed,36573.999881744385,Wed May 20 2026 18:43:54 GMT-0500 (Central Daylight Time),812213.0,A,wi,I,i,146,1,2148.9000000953674,810064.0999999046,8114,WL,B,6.0
7,23.825999975204468,immed,36174.00002479553,Wed May 20 2026 18:43:54 GMT-0500 (Central Daylight Time),812612.5999999046,A,wif,I,f,387,1,2548.5,810064.0999999046,8114,WL,B,6.0
7,23.9760000705719,immed,36023.9999294281,Wed May 20 2026 18:43:54 GMT-0500 (Central Daylight Time),812762.7999999523,A,wife,I,e,140,1,2698.7000000476837,810064.0999999046,8114,WL,B,6.0
7,24.14199995994568,immed,35858.00004005432,Wed May 20 2026 18:43:54 GMT-0500 (Central Daylight Time),812929.1999999285,A,wifeenter,I,enter,157,1,2865.100000023842,810064.0999999046,8114,WL,B,6.0
7,24.526000022888184,immed,35473.99997711182,Wed May 20 2026 18:43:54 GMT-0500 (Central Daylight Time),813312.7999999523,A,w,I,w,367,1,383.2000000476837,812929.5999999046,8114,WL,B,7.0
7,24.70900011062622,immed,35290.99988937378,Wed May 20 2026 18:43:54 GMT-0500 (Central Daylight Time),813495.7999999523,A,wi,I,i,167,1,566.2000000476837,812929.5999999046,8114,WL,B,7.0
7,24.842000007629395,immed,35157.999992370605,Wed May 20 2026 18:43:54 GMT-0500 (Central Daylight Time),813629.0999999046,A,win,I,n,128,1,699.5,812929.5999999046,8114,WL,B,7.0
7,25.009999990463257,immed,34990.00000953674,Wed May 20 2026 18:43:54 GMT-0500 (Central Daylight Time),813796.7999999523,A,wind,I,d,147,1,867.2000000476837,812929.5999999046,8114,WL,B,7.0
7,25.225000143051147,immed,34774.99985694885,Wed May 20 2026 18:43:54 GMT-0500 (Central Daylight Time),814012.2999999523,A,windo,I,o,194,1,1082.7000000476837,812929.5999999046,8114,WL,B,7.0
7,25.375,immed,34625.0,Wed May 20 2026 18:43:54 GMT-0500 (Central Daylight Time),814162.2999999523,A,window,I,w,140,1,1232.7000000476837,812929.5999999046,8114,WL,B,7.0
7,29.006999969482422,immed,30993.000030517578,Wed May 20 2026 18:43:54 GMT-0500 (Central Daylight Time),817794.1999999285,A,windowenter,I,enter,3613,1,4864.600000023842,812929.5999999046,8114,WL,B,7.0
7,29.591000080108643,immed,30408.999919891357,Wed May 20 2026 18:43:54 GMT-0500 (Central Daylight Time),818377.8999999762,A,p,I,p,566,1,583.3999999761581,817794.5,8114,WL,B,8.0
7,29.740999937057495,immed,30259.000062942505,Wed May 20 2026 18:43:54 GMT-0500 (Central Daylight Time),818527.5999999046,A,pi,I,i,144,1,733.0999999046326,817794.5,8114,WL,B,8.0
7,29.907000064849854,immed,30092.999935150146,Wed May 20 2026 18:43:54 GMT-0500 (Central Daylight Time),818694.0,A,pip,I,p,153,1,899.5,817794.5,8114,WL,B,8.0
7,30.223999977111816,immed,29776.000022888184,Wed May 20 2026 18:43:54 GMT-0500 (Central Daylight Time),819010.5999999046,A,pipe,I,e,297,1,1216.0999999046326,817794.5,8114,WL,B,8.0
7,31.85599994659424,immed,28144.00005340576,Wed May 20 2026 18:43:54 GMT-0500 (Central Daylight Time),820643.3999999762,A,pipeenter,I,enter,1623,1,2848.899999976158,817794.5,8114,WL,B,8.0
7,33.74000000953674,immed,26259.999990463257,Wed May 20 2026 18:43:54 GMT-0500 (Central Daylight Time),822527.1999999285,A,s,I,s,1877,1,1883.6000000238419,820643.5999999046,8114,WL,B,9.0
7,33.9060001373291,immed,26093.9998626709,Wed May 20 2026 18:43:54 GMT-0500 (Central Daylight Time),822693.0999999046,A,sk,I,k,144,1,2049.5,820643.5999999046,8114,WL,B,9.0
7,34.123000144958496,immed,25876.999855041504,Wed May 20 2026 18:43:54 GMT-0500 (Central Daylight Time),822909.5,A,ski,I,i,195,1,2265.9000000953674,820643.5999999046,8114,WL,B,9.0
7,34.72200012207031,immed,25277.999877929688,Wed May 20 2026 18:43:54 GMT-0500 (Central Daylight Time),823509.0999999046,A,skin,I,n,595,1,2865.5,820643.5999999046,8114,WL,B,9.0
7,36.27300000190735,immed,23726.99999809265,Wed May 20 2026 18:43:54 GMT-0500 (Central Daylight Time),825059.8999999762,A,skinenter,I,enter,1531,1,4416.300000071526,820643.5999999046,8114,WL,B,9.0
7,38.82100009918213,immed,21178.99990081787,Wed May 20 2026 18:43:54 GMT-0500 (Central Daylight Time),827608.0999999046,A,c,I,c,2540,1,2547.899999976158,825060.1999999285,8114,WL,B,10.0
7,38.9539999961853,immed,21046.000003814697,Wed May 20 2026 18:43:54 GMT-0500 (Central Daylight Time),827741.0999999046,A,ci,I,i,128,1,2680.899999976158,825060.1999999285,8114,WL,B,10.0
7,39.2039999961853,immed,20796.000003814697,Wed May 20 2026 18:43:54 GMT-0500 (Central Daylight Time),827991.1999999285,A,cit,I,t,235,1,2931.0,825060.1999999285,8114,WL,B,10.0
7,39.37100005149841,immed,20628.999948501587,Wed May 20 2026 18:43:54 GMT-0500 (Central Daylight Time),828158.0,A,city,I,y,146,1,3097.8000000715256,825060.1999999285,8114,WL,B,10.0
7,39.771000146865845,immed,20228.999853134155,Wed May 20 2026 18:43:54 GMT-0500 (Central Daylight Time),828557.8999999762,A,cityenter,I,enter,387,1,3497.7000000476837,825060.1999999285,8114,WL,B,10.0
7,40.087000131607056,immed,19912.999868392944,Wed May 20 2026 18:43:54 GMT-0500 (Central Daylight Time),828874.2999999523,A,c,I,c,306,1,316.10000002384186,828558.1999999285,8114,WL,B,11.0
7,40.271000146865845,immed,19728.999853134155,Wed May 20 2026 18:43:54 GMT-0500 (Central Daylight Time),829057.6999999285,A,ca,I,a,174,1,499.5,828558.1999999285,8114,WL,B,11.0
7,40.63700008392334,immed,19362.99991607666,Wed May 20 2026 18:43:54 GMT-0500 (Central Daylight Time),829424.1999999285,A,cab,I,b,359,1,866.0,828558.1999999285,8114,WL,B,11.0
7,40.87000012397766,immed,19129.99987602234,Wed May 20 2026 18:43:54 GMT-0500 (Central Daylight Time),829657.3999999762,A,cabi,I,i,216,1,1099.2000000476837,828558.1999999285,8114,WL,B,11.0
7,41.13700008392334,immed,18862.99991607666,Wed May 20 2026 18:43:54 GMT-0500 (Central Daylight Time),829923.7999999523,A,cabin,I,n,255,1,1365.6000000238419,828558.1999999285,8114,WL,B,11.0
7,42.23699998855591,immed,17763.00001144409,Wed May 20 2026 18:43:54 GMT-0500 (Central Daylight Time),831023.5999999046,A,cabinenter,I,enter,1093,1,2465.399999976158,828558.1999999285,8114,WL,B,11.0
7,43.37000012397766,immed,16629.99987602234,Wed May 20 2026 18:43:54 GMT-0500 (Central Daylight Time),832156.7999999523,A,l,I,l,1113,1,1132.8999999761581,831023.8999999762,8114,WL,B,12.0
7,43.519999980926514,immed,16480.000019073486,Wed May 20 2026 18:43:54 GMT-0500 (Central Daylight Time),832306.7999999523,A,la,I,a,131,1,1282.8999999761581,831023.8999999762,8114,WL,B,12.0
7,44.13599991798401,immed,15864.000082015991,Wed May 20 2026 18:43:54 GMT-0500 (Central Daylight Time),832923.1999999285,A,lak,I,k,598,1,1899.2999999523163,831023.8999999762,8114,WL,B,12.0
7,44.40300011634827,immed,15596.999883651733,Wed May 20 2026 18:43:54 GMT-0500 (Central Daylight Time),833189.7999999523,A,lake,I,e,245,1,2165.899999976158,831023.8999999762,8114,WL,B,12.0
7,45.00200009346008,immed,14997.999906539917,Wed May 20 2026 18:43:54 GMT-0500 (Central Daylight Time),833789.2999999523,A,lakeenter,I,enter,579,1,2765.399999976158,831023.8999999762,8114,WL,B,12.0
7,45.819000005722046,immed,14180.999994277954,Wed May 20 2026 18:43:54 GMT-0500 (Central Daylight Time),834605.6999999285,A,f,I,f,803,1,816.0,833789.6999999285,8114,WL,B,13.0
7,45.93600010871887,immed,14063.999891281128,Wed May 20 2026 18:43:54 GMT-0500 (Central Daylight Time),834722.5999999046,A,fi,I,i,98,1,932.8999999761581,833789.6999999285,8114,WL,B,13.0
7,46.16900014877319,immed,13830.999851226807,Wed May 20 2026 18:43:54 GMT-0500 (Central Daylight Time),834955.5999999046,A,fir,I,r,214,1,1165.8999999761581,833789.6999999285,8114,WL,B,13.0
7,46.38499999046326,immed,13615.000009536743,Wed May 20 2026 18:43:54 GMT-0500 (Central Daylight Time),835172.3999999762,A,fire,I,e,196,1,1382.7000000476837,833789.6999999285,8114,WL,B,13.0
7,47.63499999046326,immed,12365.000009536743,Wed May 20 2026 18:43:54 GMT-0500 (Central Daylight Time),836421.7999999523,A,fireenter,I,enter,1236,1,2632.100000023842,833789.6999999285,8114,WL,B,13.0
7,49.13499999046326,immed,10865.000009536743,Wed May 20 2026 18:43:54 GMT-0500 (Central Daylight Time),837921.5,A,p,I,p,1491,1,1499.4000000953674,836422.0999999046,8114,WL,B,14.0
7,49.43499994277954,immed,10565.000057220459,Wed May 20 2026 18:43:54 GMT-0500 (Central Daylight Time),838221.5,A,pu,I,u,295,1,1799.4000000953674,836422.0999999046,8114,WL,B,14.0
7,49.76800012588501,immed,10231.99987411499,Wed May 20 2026 18:43:54 GMT-0500 (Central Daylight Time),838554.8999999762,A,pup,I,p,322,1,2132.8000000715256,836422.0999999046,8114,WL,B,14.0
7,50.051000118255615,immed,9948.999881744385,Wed May 20 2026 18:43:54 GMT-0500 (Central Daylight Time),838838.0999999046,A,pupi,I,i,270,1,2416.0,836422.0999999046,8114,WL,B,14.0
