acc_sum,block,block_c,change,condition,correct,correct_response,datetime,endtime,face,project,response,response_time,row_sel,session_number,start_end,starttime,subject_id,task,task_vers,trial
0,prac,1,,1-Back,,,Mon May 11 2026 13:26:14 GMT-0500 (Central Daylight Time),,097_m_f_n_a.png,O,space,6167,1,1,,,7803,NNB,B,0
1,prac,1,0.0,1-Back,1.0,m,Mon May 11 2026 13:26:14 GMT-0500 (Central Daylight Time),129633.60000002384,152_y_f_n_a.png,O,m,606,2,1,1457.6000000238419,128176.0,7803,NNB,B,1
1,prac,1,1.0,1-Back,0.0,z,Mon May 11 2026 13:26:14 GMT-0500 (Central Daylight Time),131498.89999997616,152_y_f_n_a.png,O,m,1079,3,1,1858.0,129640.89999997616,7803,NNB,B,2
2,prac,1,0.0,1-Back,1.0,m,Mon May 11 2026 13:26:14 GMT-0500 (Central Daylight Time),134215.10000002384,176_o_m_n_a.png,O,m,1859,4,1,2707.7000000476837,131507.39999997616,7803,NNB,B,3
3,prac,1,0.0,1-Back,1.0,m,Mon May 11 2026 13:26:14 GMT-0500 (Central Daylight Time),136881.60000002384,126_m_m_n_a.png,O,m,1874,5,1,2657.800000011921,134223.80000001192,7803,NNB,B,4
4,prac,1,1.0,1-Back,1.0,z,Mon May 11 2026 13:26:14 GMT-0500 (Central Daylight Time),138596.80000001192,126_m_m_n_a.png,O,z,940,6,1,1706.1000000238419,136890.69999998808,7803,NNB,B,5
5,prac,1,0.0,1-Back,1.0,m,Mon May 11 2026 13:26:14 GMT-0500 (Central Daylight Time),140528.69999998808,086_o_f_n_a.png,O,m,1146,7,1,1923.0999999642372,138605.60000002384,7803,NNB,B,6
6,prac,1,0.0,1-Back,1.0,m,Mon May 11 2026 13:26:14 GMT-0500 (Central Daylight Time),142394.30000001192,178_m_m_n_a.png,O,m,1009,8,1,1858.199999988079,140536.10000002384,7803,NNB,B,7
7,prac,1,0.0,1-Back,1.0,m,Mon May 11 2026 13:26:14 GMT-0500 (Central Daylight Time),144277.0,097_m_f_n_a.png,O,m,1099,9,1,1872.3999999761581,142404.60000002384,7803,NNB,B,8
8,prac,1,1.0,1-Back,1.0,z,Mon May 11 2026 13:26:14 GMT-0500 (Central Daylight Time),146093.0,097_m_f_n_a.png,O,z,1027,10,1,1806.8999999761581,144286.10000002384,7803,NNB,B,9
9,prac,1,0.0,1-Back,1.0,m,Mon May 11 2026 13:26:14 GMT-0500 (Central Daylight Time),147825.89999997616,176_o_m_n_a.png,O,m,954,11,1,1724.0999999642372,146101.80000001192,7803,NNB,B,10
10,prac,1,0.0,1-Back,1.0,m,Mon May 11 2026 13:26:14 GMT-0500 (Central Daylight Time),149792.10000002384,173_y_f_n_a.png,O,m,1121,12,1,1956.1000000238419,147836.0,7803,NNB,B,11
0,test,1,0.0,1-Back,,,Mon May 11 2026 13:26:14 GMT-0500 (Central Daylight Time),149792.10000002384,152_y_f_n_a.png,O,space,3286,1,1,1956.1000000238419,147836.0,7803,NNB,B,0
1,test,1,0.0,1-Back,1.0,m,Mon May 11 2026 13:26:14 GMT-0500 (Central Daylight Time),166936.39999997616,029_m_f_n_a.png,O,m,824,2,1,1839.8999999761581,165096.5,7803,NNB,B,1
2,test,1,0.0,1-Back,1.0,m,Mon May 11 2026 13:26:14 GMT-0500 (Central Daylight Time),169119.19999998808,173_y_f_n_a.png,O,m,1158,3,1,2175.899999976158,166943.30000001192,7803,NNB,B,2
3,test,1,1.0,1-Back,1.0,z,Mon May 11 2026 13:26:14 GMT-0500 (Central Daylight Time),171284.69999998808,173_y_f_n_a.png,O,z,1144,4,1,2158.699999988079,169126.0,7803,NNB,B,3
4,test,1,0.0,1-Back,1.0,m,Mon May 11 2026 13:26:14 GMT-0500 (Central Daylight Time),173234.80000001192,029_m_f_n_a.png,O,m,921,5,1,1944.300000011921,171290.5,7803,NNB,B,4
4,test,1,0.0,1-Back,0.0,m,Mon May 11 2026 13:26:14 GMT-0500 (Central Daylight Time),175301.69999998808,176_o_m_n_a.png,O,z,1045,6,1,2065.0,173236.69999998808,7803,NNB,B,5
5,test,1,1.0,1-Back,1.0,z,Mon May 11 2026 13:26:14 GMT-0500 (Central Daylight Time),177282.89999997616,176_o_m_n_a.png,O,z,963,7,1,1978.0,175304.89999997616,7803,NNB,B,6
6,test,1,0.0,1-Back,1.0,m,Mon May 11 2026 13:26:14 GMT-0500 (Central Daylight Time),179316.0,126_m_m_n_a.png,O,m,1004,8,1,2026.199999988079,177289.80000001192,7803,NNB,B,7
7,test,1,0.0,1-Back,1.0,m,Mon May 11 2026 13:26:14 GMT-0500 (Central Daylight Time),181115.39999997616,086_o_f_n_a.png,O,m,779,9,1,1796.7999999523163,179318.60000002384,7803,NNB,B,8
8,test,1,0.0,1-Back,1.0,m,Mon May 11 2026 13:26:14 GMT-0500 (Central Daylight Time),183198.80000001192,126_m_m_n_a.png,O,m,1051,10,1,2080.0,181118.80000001192,7803,NNB,B,9
9,test,1,0.0,1-Back,1.0,m,Mon May 11 2026 13:26:14 GMT-0500 (Central Daylight Time),185147.89999997616,153_y_m_n_a.png,O,m,920,11,1,1945.699999988079,183202.19999998808,7803,NNB,B,10
10,test,1,1.0,1-Back,1.0,z,Mon May 11 2026 13:26:14 GMT-0500 (Central Daylight Time),187580.5,153_y_m_n_a.png,O,z,1404,12,1,2430.899999976158,185149.60000002384,7803,NNB,B,11
11,test,1,0.0,1-Back,1.0,m,Mon May 11 2026 13:26:14 GMT-0500 (Central Daylight Time),189430.0,110_o_f_n_a.png,O,m,819,13,1,1846.6000000238419,187583.39999997616,7803,NNB,B,12
12,test,1,1.0,1-Back,1.0,z,Mon May 11 2026 13:26:14 GMT-0500 (Central Daylight Time),191495.60000002384,110_o_f_n_a.png,O,z,1041,14,1,2062.2000000476837,189433.39999997616,7803,NNB,B,13
13,test,1,0.0,1-Back,1.0,m,Mon May 11 2026 13:26:14 GMT-0500 (Central Daylight Time),193561.69999998808,013_y_m_n_a.png,O,m,1040,15,1,2063.5,191498.19999998808,7803,NNB,B,14
14,test,1,0.0,1-Back,1.0,m,Mon May 11 2026 13:26:14 GMT-0500 (Central Daylight Time),195510.80000001192,097_m_f_n_a.png,O,m,918,16,1,1945.800000011921,193565.0,7803,NNB,B,15
15,test,1,0.0,1-Back,1.0,m,Mon May 11 2026 13:26:14 GMT-0500 (Central Daylight Time),197510.10000002384,065_o_m_n_a.png,O,m,978,17,1,1994.1000000238419,195516.0,7803,NNB,B,16
16,test,1,0.0,1-Back,1.0,m,Mon May 11 2026 13:26:14 GMT-0500 (Central Daylight Time),199909.0,097_m_f_n_a.png,O,m,1369,18,1,2396.600000023842,197512.39999997616,7803,NNB,B,17
0,test,2,0.0,1-Back,,,Mon May 11 2026 13:26:14 GMT-0500 (Central Daylight Time),199909.0,126_m_m_n_a.png,O,space,2339,1,1,2396.600000023842,197512.39999997616,7803,NNB,B,0
1,test,2,0.0,1-Back,1.0,m,Mon May 11 2026 13:26:14 GMT-0500 (Central Daylight Time),206090.60000002384,029_m_f_n_a.png,O,m,782,2,1,1805.7000000476837,204284.89999997616,7803,NNB,B,1
1,test,2,1.0,1-Back,0.0,z,Mon May 11 2026 13:26:14 GMT-0500 (Central Daylight Time),208292.0,029_m_f_n_a.png,O,m,1168,3,1,2198.399999976158,206093.60000002384,7803,NNB,B,2
1,test,2,0.0,1-Back,0.0,m,Mon May 11 2026 13:26:14 GMT-0500 (Central Daylight Time),210506.5,126_m_m_n_a.png,O,z,1199,4,1,2212.0,208294.5,7803,NNB,B,3
1,test,2,0.0,1-Back,0.0,m,Mon May 11 2026 13:26:14 GMT-0500 (Central Daylight Time),212839.0,153_y_m_n_a.png,O,z,1300,5,1,2330.199999988079,210508.80000001192,7803,NNB,B,4
1,test,2,0.0,1-Back,0.0,m,Mon May 11 2026 13:26:14 GMT-0500 (Central Daylight Time),215857.30000001192,152_y_f_n_a.png,O,None,2002,6,1,3016.300000011921,212841.0,7803,NNB,B,5
1,test,2,1.0,1-Back,0.0,z,Mon May 11 2026 13:26:14 GMT-0500 (Central Daylight Time),218021.19999998808,152_y_f_n_a.png,O,m,1136,7,1,2159.599999964237,215861.60000002384,7803,NNB,B,6
1,test,2,0.0,1-Back,0.0,m,Mon May 11 2026 13:26:14 GMT-0500 (Central Daylight Time),221036.80000001192,153_y_m_n_a.png,O,None,2001,8,1,3013.600000023842,218023.19999998808,7803,NNB,B,7
1,test,2,0.0,1-Back,0.0,m,Mon May 11 2026 13:26:14 GMT-0500 (Central Daylight Time),224068.19999998808,110_o_f_n_a.png,O,None,2016,9,1,3024.5,221043.69999998808,7803,NNB,B,8
2,test,2,0.0,1-Back,1.0,m,Mon May 11 2026 13:26:14 GMT-0500 (Central Daylight Time),226567.0,178_m_m_n_a.png,O,m,1474,10,1,2493.300000011921,224073.69999998808,7803,NNB,B,9
3,test,2,1.0,1-Back,1.0,z,Mon May 11 2026 13:26:14 GMT-0500 (Central Daylight Time),228717.10000002384,178_m_m_n_a.png,O,z,1119,11,1,2147.5,226569.60000002384,7803,NNB,B,10
4,test,2,0.0,1-Back,1.0,m,Mon May 11 2026 13:26:14 GMT-0500 (Central Daylight Time),231033.30000001192,110_o_f_n_a.png,O,m,1282,12,1,2313.0,228720.30000001192,7803,NNB,B,11
5,test,2,0.0,1-Back,1.0,m,Mon May 11 2026 13:26:14 GMT-0500 (Central Daylight Time),232932.69999998808,086_o_f_n_a.png,O,m,870,13,1,1895.8999999761581,231036.80000001192,7803,NNB,B,12
6,test,2,0.0,1-Back,1.0,m,Mon May 11 2026 13:26:14 GMT-0500 (Central Daylight Time),235114.39999997616,176_o_m_n_a.png,O,m,1164,14,1,2178.2999999523163,232936.10000002384,7803,NNB,B,13
7,test,2,0.0,1-Back,1.0,m,Mon May 11 2026 13:26:14 GMT-0500 (Central Daylight Time),236947.30000001192,065_o_m_n_a.png,O,m,812,15,1,1830.199999988079,235117.10000002384,7803,NNB,B,14
8,test,2,1.0,1-Back,1.0,z,Mon May 11 2026 13:26:14 GMT-0500 (Central Daylight Time),238829.69999998808,065_o_m_n_a.png,O,z,853,16,1,1879.5,236950.19999998808,7803,NNB,B,15
9,test,2,0.0,1-Back,1.0,m,Mon May 11 2026 13:26:14 GMT-0500 (Central Daylight Time),240847.19999998808,013_y_m_n_a.png,O,m,984,17,1,2015.300000011921,238831.89999997616,7803,NNB,B,16
10,test,2,1.0,1-Back,1.0,z,Mon May 11 2026 13:26:14 GMT-0500 (Central Daylight Time),242862.19999998808,013_y_m_n_a.png,O,z,992,18,1,2012.8999999761581,240849.30000001192,7803,NNB,B,17
0,test,3,1.0,1-Back,,,Mon May 11 2026 13:26:14 GMT-0500 (Central Daylight Time),242862.19999998808,173_y_f_n_a.png,O,space,2074,1,1,2012.8999999761581,240849.30000001192,7803,NNB,B,0
0,test,3,0.0,1-Back,0.0,m,Mon May 11 2026 13:26:14 GMT-0500 (Central Daylight Time),250061.0,065_o_m_n_a.png,O,None,2016,1,1,3026.399999976158,247034.60000002384,7803,NNB,B,1
1,test,3,1.0,1-Back,1.0,z,Mon May 11 2026 13:26:14 GMT-0500 (Central Daylight Time),252409.60000002384,065_o_m_n_a.png,O,z,1317,1,1,2345.600000023842,250064.0,7803,NNB,B,2
2,test,3,0.0,1-Back,1.0,m,Mon May 11 2026 13:26:14 GMT-0500 (Central Daylight Time),255342.19999998808,097_m_f_n_a.png,O,m,1909,1,1,2929.599999964237,252412.60000002384,7803,NNB,B,3
3,test,3,1.0,1-Back,1.0,z,Mon May 11 2026 13:26:14 GMT-0500 (Central Daylight Time),257273.89999997616,097_m_f_n_a.png,O,z,912,1,1,1929.199999988079,255344.69999998808,7803,NNB,B,4
4,test,3,0.0,1-Back,1.0,m,Mon May 11 2026 13:26:14 GMT-0500 (Central Daylight Time),259340.69999998808,110_o_f_n_a.png,O,m,1045,1,1,2064.699999988079,257276.0,7803,NNB,B,5
5,test,3,0.0,1-Back,1.0,m,Mon May 11 2026 13:26:14 GMT-0500 (Central Daylight Time),261556.60000002384,153_y_m_n_a.png,O,m,1188,1,1,2211.300000011921,259345.30000001192,7803,NNB,B,6
6,test,3,0.0,1-Back,1.0,m,Mon May 11 2026 13:26:14 GMT-0500 (Central Daylight Time),264205.10000002384,110_o_f_n_a.png,O,m,1627,1,1,2645.5,261559.60000002384,7803,NNB,B,7
7,test,3,0.0,1-Back,1.0,m,Mon May 11 2026 13:26:14 GMT-0500 (Central Daylight Time),266322.3000000119,013_y_m_n_a.png,O,m,1083,1,1,2112.100000023842,264210.1999999881,7803,NNB,B,8
8,test,3,1.0,1-Back,1.0,z,Mon May 11 2026 13:26:14 GMT-0500 (Central Daylight Time),268137.89999997616,013_y_m_n_a.png,O,z,785,1,1,1813.0,266324.89999997616,7803,NNB,B,9
9,test,3,0.0,1-Back,1.0,m,Mon May 11 2026 13:26:14 GMT-0500 (Central Daylight Time),270103.5,029_m_f_n_a.png,O,m,933,1,1,1961.8999999761581,268141.60000002384,7803,NNB,B,10
10,test,3,0.0,1-Back,1.0,m,Mon May 11 2026 13:26:14 GMT-0500 (Central Daylight Time),272268.1999999881,152_y_f_n_a.png,O,m,1143,1,1,2160.899999976158,270107.3000000119,7803,NNB,B,11
11,test,3,1.0,1-Back,1.0,z,Mon May 11 2026 13:26:14 GMT-0500 (Central Daylight Time),274202.0,152_y_f_n_a.png,O,z,906,1,1,1930.800000011921,272271.1999999881,7803,NNB,B,12
12,test,3,0.0,1-Back,1.0,m,Mon May 11 2026 13:26:14 GMT-0500 (Central Daylight Time),275969.0,029_m_f_n_a.png,O,m,735,1,1,1762.0,274207.0,7803,NNB,B,13
13,test,3,0.0,1-Back,1.0,m,Mon May 11 2026 13:26:14 GMT-0500 (Central Daylight Time),278267.3000000119,126_m_m_n_a.png,O,m,1280,1,1,2294.5,275972.8000000119,7803,NNB,B,14
14,test,3,1.0,1-Back,1.0,z,Mon May 11 2026 13:26:14 GMT-0500 (Central Daylight Time),280333.3000000119,126_m_m_n_a.png,O,z,1043,1,1,2062.900000035763,278270.39999997616,7803,NNB,B,15
15,test,3,0.0,1-Back,1.0,m,Mon May 11 2026 13:26:14 GMT-0500 (Central Daylight Time),282184.0,086_o_f_n_a.png,O,m,818,1,1,1846.0,280338.0,7803,NNB,B,16
16,test,3,1.0,1-Back,1.0,z,Mon May 11 2026 13:26:14 GMT-0500 (Central Daylight Time),284298.8000000119,086_o_f_n_a.png,O,z,1088,1,1,2110.800000011921,282188.0,7803,NNB,B,17
0,test,4,1.0,1-Back,,,Mon May 11 2026 13:26:14 GMT-0500 (Central Daylight Time),284298.8000000119,097_m_f_n_a.png,O,space,2567,1,1,2110.800000011921,282188.0,7803,NNB,B,0
1,test,4,0.0,1-Back,1.0,m,Mon May 11 2026 13:26:14 GMT-0500 (Central Daylight Time),291046.60000002384,065_o_m_n_a.png,O,m,1052,2,1,2074.900000035763,288971.6999999881,7803,NNB,B,1
2,test,4,0.0,1-Back,1.0,m,Mon May 11 2026 13:26:14 GMT-0500 (Central Daylight Time),292863.0,097_m_f_n_a.png,O,m,783,3,1,1810.699999988079,291052.3000000119,7803,NNB,B,2
3,test,4,0.0,1-Back,1.0,m,Mon May 11 2026 13:26:14 GMT-0500 (Central Daylight Time),294562.1999999881,110_o_f_n_a.png,O,m,681,4,1,1695.8999999761581,292866.3000000119,7803,NNB,B,3
4,test,4,1.0,1-Back,1.0,z,Mon May 11 2026 13:26:14 GMT-0500 (Central Daylight Time),296478.0,110_o_f_n_a.png,O,z,891,5,1,1913.1000000238419,294564.89999997616,7803,NNB,B,4
5,test,4,0.0,1-Back,1.0,m,Mon May 11 2026 13:26:14 GMT-0500 (Central Daylight Time),298228.0,152_y_f_n_a.png,O,m,720,6,1,1746.6000000238419,296481.39999997616,7803,NNB,B,5
6,test,4,0.0,1-Back,1.0,m,Mon May 11 2026 13:26:14 GMT-0500 (Central Daylight Time),300112.10000002384,153_y_m_n_a.png,O,m,850,7,1,1880.800000011921,298231.3000000119,7803,NNB,B,6
7,test,4,1.0,1-Back,1.0,z,Mon May 11 2026 13:26:14 GMT-0500 (Central Daylight Time),301994.0,153_y_m_n_a.png,O,z,858,8,1,1878.199999988079,300115.8000000119,7803,NNB,B,7
8,test,4,0.0,1-Back,1.0,m,Mon May 11 2026 13:26:14 GMT-0500 (Central Daylight Time),303810.10000002384,152_y_f_n_a.png,O,m,790,9,1,1812.5,301997.60000002384,7803,NNB,B,8
9,test,4,0.0,1-Back,1.0,m,Mon May 11 2026 13:26:14 GMT-0500 (Central Daylight Time),305776.3000000119,178_m_m_n_a.png,O,m,950,10,1,1963.300000011921,303813.0,7803,NNB,B,9
10,test,4,1.0,1-Back,1.0,z,Mon May 11 2026 13:26:14 GMT-0500 (Central Daylight Time),307741.10000002384,178_m_m_n_a.png,O,z,941,11,1,1961.0,305780.10000002384,7803,NNB,B,10
11,test,4,0.0,1-Back,1.0,m,Mon May 11 2026 13:26:14 GMT-0500 (Central Daylight Time),309758.0,086_o_f_n_a.png,O,m,995,12,1,2014.5,307743.5,7803,NNB,B,11
12,test,4,0.0,1-Back,1.0,m,Mon May 11 2026 13:26:14 GMT-0500 (Central Daylight Time),311673.6999999881,176_o_m_n_a.png,O,m,883,13,1,1912.5,309761.1999999881,7803,NNB,B,12
12,test,4,0.0,1-Back,0.0,m,Mon May 11 2026 13:26:14 GMT-0500 (Central Daylight Time),313973.0,086_o_f_n_a.png,O,z,1270,14,1,2295.800000011921,311677.1999999881,7803,NNB,B,13
12,test,4,0.0,1-Back,0.0,m,Mon May 11 2026 13:26:14 GMT-0500 (Central Daylight Time),317005.8000000119,173_y_f_n_a.png,O,None,2017,15,1,3029.800000011921,313976.0,7803,NNB,B,14
13,test,4,1.0,1-Back,1.0,z,Mon May 11 2026 13:26:14 GMT-0500 (Central Daylight Time),318872.5,173_y_f_n_a.png,O,z,835,16,1,1860.6000000238419,317011.89999997616,7803,NNB,B,15
14,test,4,0.0,1-Back,1.0,m,Mon May 11 2026 13:26:14 GMT-0500 (Central Daylight Time),320937.8000000119,029_m_f_n_a.png,O,m,1035,17,1,2061.5,318876.3000000119,7803,NNB,B,16
15,test,4,1.0,1-Back,1.0,z,Mon May 11 2026 13:26:14 GMT-0500 (Central Daylight Time),322937.39999997616,029_m_f_n_a.png,O,z,972,18,1,1996.0,320941.39999997616,7803,NNB,B,17
0,test,5,1.0,1-Back,,,Mon May 11 2026 13:26:14 GMT-0500 (Central Daylight Time),322937.39999997616,176_o_m_n_a.png,O,space,2702,1,1,1996.0,320941.39999997616,7803,NNB,B,0
1,test,5,1.0,1-Back,1.0,z,Mon May 11 2026 13:26:14 GMT-0500 (Central Daylight Time),329652.6999999881,176_o_m_n_a.png,O,z,954,2,1,1976.8999999761581,327675.8000000119,7803,NNB,B,1
2,test,5,0.0,1-Back,1.0,m,Mon May 11 2026 13:26:14 GMT-0500 (Central Daylight Time),331816.8000000119,152_y_f_n_a.png,O,m,1132,3,1,2160.699999988079,329656.10000002384,7803,NNB,B,2
3,test,5,0.0,1-Back,1.0,m,Mon May 11 2026 13:26:14 GMT-0500 (Central Daylight Time),333699.8000000119,153_y_m_n_a.png,O,m,854,4,1,1880.800000011921,331819.0,7803,NNB,B,3
4,test,5,0.0,1-Back,1.0,m,Mon May 11 2026 13:26:14 GMT-0500 (Central Daylight Time),335866.1999999881,152_y_f_n_a.png,O,m,1147,5,1,2163.199999988079,333703.0,7803,NNB,B,4
5,test,5,0.0,1-Back,1.0,m,Mon May 11 2026 13:26:14 GMT-0500 (Central Daylight Time),337965.60000002384,126_m_m_n_a.png,O,m,1078,6,1,2096.0,335869.60000002384,7803,NNB,B,5
6,test,5,1.0,1-Back,1.0,z,Mon May 11 2026 13:26:14 GMT-0500 (Central Daylight Time),339816.89999997616,126_m_m_n_a.png,O,z,824,7,1,1846.699999988079,337970.1999999881,7803,NNB,B,6
7,test,5,0.0,1-Back,1.0,m,Mon May 11 2026 13:26:14 GMT-0500 (Central Daylight Time),341847.39999997616,173_y_f_n_a.png,O,m,1009,8,1,2028.5,339818.89999997616,7803,NNB,B,7
8,test,5,0.0,1-Back,1.0,m,Mon May 11 2026 13:26:14 GMT-0500 (Central Daylight Time),343714.89999997616,013_y_m_n_a.png,O,m,833,9,1,1864.2999999523163,341850.60000002384,7803,NNB,B,8
9,test,5,0.0,1-Back,1.0,m,Mon May 11 2026 13:26:14 GMT-0500 (Central Daylight Time),345813.0,173_y_f_n_a.png,O,m,1070,10,1,2093.800000011921,343719.1999999881,7803,NNB,B,9
10,test,5,0.0,1-Back,1.0,m,Mon May 11 2026 13:26:14 GMT-0500 (Central Daylight Time),347663.8000000119,086_o_f_n_a.png,O,m,819,11,1,1847.699999988079,345816.10000002384,7803,NNB,B,10
11,test,5,1.0,1-Back,1.0,z,Mon May 11 2026 13:26:14 GMT-0500 (Central Daylight Time),349629.0,086_o_f_n_a.png,O,z,937,12,1,1961.5,347667.5,7803,NNB,B,11
12,test,5,0.0,1-Back,1.0,m,Mon May 11 2026 13:26:14 GMT-0500 (Central Daylight Time),351478.10000002384,065_o_m_n_a.png,O,m,827,13,1,1844.7000000476837,349633.39999997616,7803,NNB,B,12
13,test,5,0.0,1-Back,1.0,m,Mon May 11 2026 13:26:14 GMT-0500 (Central Daylight Time),353712.1999999881,097_m_f_n_a.png,O,m,1217,14,1,2231.899999976158,351480.3000000119,7803,NNB,B,13
14,test,5,1.0,1-Back,1.0,z,Mon May 11 2026 13:26:14 GMT-0500 (Central Daylight Time),355594.5,097_m_f_n_a.png,O,z,852,15,1,1879.0,353715.5,7803,NNB,B,14
15,test,5,0.0,1-Back,1.0,m,Mon May 11 2026 13:26:14 GMT-0500 (Central Daylight Time),357443.5,065_o_m_n_a.png,O,m,819,16,1,1845.0,355598.5,7803,NNB,B,15
16,test,5,0.0,1-Back,1.0,m,Mon May 11 2026 13:26:14 GMT-0500 (Central Daylight Time),359674.89999997616,029_m_f_n_a.png,O,m,1205,17,1,2228.699999988079,357446.1999999881,7803,NNB,B,16
17,test,5,0.0,1-Back,1.0,m,Mon May 11 2026 13:26:14 GMT-0500 (Central Daylight Time),361759.39999997616,178_m_m_n_a.png,O,m,1050,18,1,2082.699999988079,359676.6999999881,7803,NNB,B,17
0,prac,1,0.0,2-Back,,,Mon May 11 2026 13:26:14 GMT-0500 (Central Daylight Time),361759.39999997616,013_y_m_n_a.png,O,space,6633,1,1,2082.699999988079,359676.6999999881,7803,NNB,B,0
0,prac,1,0.0,2-Back,,,Mon May 11 2026 13:26:14 GMT-0500 (Central Daylight Time),361759.39999997616,029_m_f_n_a.png,O,space,6633,2,1,2082.699999988079,359676.6999999881,7803,NNB,B,0
1,prac,1,1.0,2-Back,1.0,m,Mon May 11 2026 13:26:14 GMT-0500 (Central Daylight Time),546582.1999999881,065_o_m_n_a.png,O,m,1383,3,1,2240.5,544341.6999999881,7803,NNB,B,1
1,prac,1,0.0,2-Back,0.0,m,Mon May 11 2026 13:26:14 GMT-0500 (Central Daylight Time),549467.3999999762,086_o_f_n_a.png,O,None,2010,4,1,2874.2999999523163,546593.1000000238,7803,NNB,B,2
2,prac,1,0.0,2-Back,1.0,z,Mon May 11 2026 13:26:14 GMT-0500 (Central Daylight Time),551847.1000000238,065_o_m_n_a.png,O,z,1592,5,1,2372.100000023842,549475.0,7803,NNB,B,3
3,prac,1,1.0,2-Back,1.0,z,Mon May 11 2026 13:26:14 GMT-0500 (Central Daylight Time),554214.3000000119,086_o_f_n_a.png,O,z,1588,6,1,2362.400000035763,551851.8999999762,7803,NNB,B,4
3,prac,1,0.0,2-Back,0.0,m,Mon May 11 2026 13:26:14 GMT-0500 (Central Daylight Time),556596.5,178_m_m_n_a.png,O,z,1518,7,1,2371.0,554225.5,7803,NNB,B,5
4,prac,1,0.0,2-Back,1.0,m,Mon May 11 2026 13:26:14 GMT-0500 (Central Daylight Time),559278.6000000238,176_o_m_n_a.png,O,m,1811,8,1,2673.800000011921,556604.8000000119,7803,NNB,B,6
5,prac,1,0.0,2-Back,1.0,m,Mon May 11 2026 13:26:14 GMT-0500 (Central Daylight Time),561628.0,173_y_f_n_a.png,O,m,1488,9,1,2339.0,559289.0,7803,NNB,B,7
6,prac,1,1.0,2-Back,1.0,z,Mon May 11 2026 13:26:14 GMT-0500 (Central Daylight Time),563577.8999999762,176_o_m_n_a.png,O,z,1164,10,1,1941.3999999761581,561636.5,7803,NNB,B,8
6,prac,1,0.0,2-Back,0.0,m,Mon May 11 2026 13:26:14 GMT-0500 (Central Daylight Time),566176.0,152_y_f_n_a.png,O,z,1742,11,1,2588.5,563587.5,7803,NNB,B,9
6,prac,1,0.0,2-Back,0.0,m,Mon May 11 2026 13:26:14 GMT-0500 (Central Daylight Time),568960.6000000238,178_m_m_n_a.png,O,None,2008,12,1,2776.300000011921,566184.3000000119,7803,NNB,B,10
0,prac,2,0.0,2-Back,,,Mon May 11 2026 13:26:14 GMT-0500 (Central Daylight Time),568960.6000000238,013_y_m_n_a.png,O,a,4284,1,1,2776.300000011921,566184.3000000119,7803,NNB,B,0
0,prac,2,0.0,2-Back,,,Mon May 11 2026 13:26:14 GMT-0500 (Central Daylight Time),568960.6000000238,029_m_f_n_a.png,O,a,4284,2,1,2776.300000011921,566184.3000000119,7803,NNB,B,0
1,prac,2,1.0,2-Back,1.0,m,Mon May 11 2026 13:26:14 GMT-0500 (Central Daylight Time),580291.0,065_o_m_n_a.png,O,m,993,3,1,1824.6000000238419,578466.3999999762,7803,NNB,B,1
2,prac,2,0.0,2-Back,1.0,m,Mon May 11 2026 13:26:14 GMT-0500 (Central Daylight Time),582936.8000000119,086_o_f_n_a.png,O,m,1786,4,1,2637.900000035763,580298.8999999762,7803,NNB,B,2
3,prac,2,0.0,2-Back,1.0,z,Mon May 11 2026 13:26:14 GMT-0500 (Central Daylight Time),584838.1999999881,065_o_m_n_a.png,O,z,1112,5,1,1893.699999988079,582944.5,7803,NNB,B,3
4,prac,2,1.0,2-Back,1.0,z,Mon May 11 2026 13:26:14 GMT-0500 (Central Daylight Time),586886.5,086_o_f_n_a.png,O,z,1260,6,1,2041.1000000238419,584845.3999999762,7803,NNB,B,4
4,prac,2,0.0,2-Back,0.0,m,Mon May 11 2026 13:26:14 GMT-0500 (Central Daylight Time),588803.8000000119,178_m_m_n_a.png,O,z,1153,7,1,1909.5,586894.3000000119,7803,NNB,B,5
4,prac,2,0.0,2-Back,0.0,m,Mon May 11 2026 13:26:14 GMT-0500 (Central Daylight Time),591651.8999999762,176_o_m_n_a.png,O,None,2014,8,1,2839.599999964237,588812.3000000119,7803,NNB,B,6
4,prac,2,0.0,2-Back,0.0,m,Mon May 11 2026 13:26:14 GMT-0500 (Central Daylight Time),593818.6999999881,173_y_f_n_a.png,O,z,1305,9,1,2157.399999976158,591661.3000000119,7803,NNB,B,7
5,prac,2,1.0,2-Back,1.0,z,Mon May 11 2026 13:26:14 GMT-0500 (Central Daylight Time),595484.3000000119,176_o_m_n_a.png,O,z,875,10,1,1656.199999988079,593828.1000000238,7803,NNB,B,8
5,prac,2,0.0,2-Back,0.0,m,Mon May 11 2026 13:26:14 GMT-0500 (Central Daylight Time),597549.6000000238,152_y_f_n_a.png,O,z,1202,11,1,2054.900000035763,595494.6999999881,7803,NNB,B,9
5,prac,2,0.0,2-Back,0.0,m,Mon May 11 2026 13:26:14 GMT-0500 (Central Daylight Time),600049.6999999881,178_m_m_n_a.png,O,z,1739,12,1,2491.800000011921,597557.8999999762,7803,NNB,B,10
0,test,1,0.0,2-Back,,,Mon May 11 2026 13:26:14 GMT-0500 (Central Daylight Time),600049.6999999881,153_y_m_n_a.png,O,space,8752,1,1,2491.800000011921,597557.8999999762,7803,NNB,B,0
0,test,1,0.0,2-Back,,,Mon May 11 2026 13:26:14 GMT-0500 (Central Daylight Time),600049.6999999881,153_y_m_n_a.png,O,space,8752,2,1,2491.800000011921,597557.8999999762,7803,NNB,B,0
0,test,1,0.0,2-Back,0.0,m,Mon May 11 2026 13:26:14 GMT-0500 (Central Daylight Time),627824.1000000238,086_o_f_n_a.png,O,None,2017,3,1,3027.7000000476837,624796.3999999762,7803,NNB,B,1
0,test,1,0.0,2-Back,0.0,m,Mon May 11 2026 13:26:14 GMT-0500 (Central Daylight Time),630738.6999999881,126_m_m_n_a.png,O,z,1897,4,1,2911.899999976158,627826.8000000119,7803,NNB,B,2
1,test,1,1.0,2-Back,1.0,z,Mon May 11 2026 13:26:14 GMT-0500 (Central Daylight Time),632804.3000000119,086_o_f_n_a.png,O,z,1037,5,1,2059.900000035763,630744.3999999762,7803,NNB,B,3
1,test,1,0.0,2-Back,0.0,m,Mon May 11 2026 13:26:14 GMT-0500 (Central Daylight Time),635404.3999999762,152_y_f_n_a.png,O,z,1582,6,1,2595.2999999523163,632809.1000000238,7803,NNB,B,4
1,test,1,0.0,2-Back,0.0,m,Mon May 11 2026 13:26:14 GMT-0500 (Central Daylight Time),637619.3000000119,126_m_m_n_a.png,O,z,1194,7,1,2210.100000023842,635409.1999999881,7803,NNB,B,5
2,test,1,1.0,2-Back,1.0,z,Mon May 11 2026 13:26:14 GMT-0500 (Central Daylight Time),639752.5,152_y_f_n_a.png,O,z,1102,8,1,2131.399999976158,637621.1000000238,7803,NNB,B,6
2,test,1,0.0,2-Back,0.0,m,Mon May 11 2026 13:26:14 GMT-0500 (Central Daylight Time),642784.8000000119,013_y_m_n_a.png,O,None,2016,9,1,3026.800000011921,639758.0,7803,NNB,B,7
2,test,1,0.0,2-Back,0.0,m,Mon May 11 2026 13:26:14 GMT-0500 (Central Daylight Time),645170.6000000238,110_o_f_n_a.png,O,z,1351,10,1,2378.7000000476837,642791.8999999762,7803,NNB,B,8
3,test,1,1.0,2-Back,1.0,z,Mon May 11 2026 13:26:14 GMT-0500 (Central Daylight Time),647233.8000000119,013_y_m_n_a.png,O,z,1040,11,1,2058.100000023842,645175.6999999881,7803,NNB,B,9
3,test,1,0.0,2-Back,0.0,m,Mon May 11 2026 13:26:14 GMT-0500 (Central Daylight Time),649832.3999999762,029_m_f_n_a.png,O,z,1568,12,1,2595.199999988079,647237.1999999881,7803,NNB,B,10
3,test,1,0.0,2-Back,0.0,m,Mon May 11 2026 13:26:14 GMT-0500 (Central Daylight Time),652314.8999999762,029_m_f_n_a.png,O,z,1463,13,1,2476.7999999523163,649838.1000000238,7803,NNB,B,11
4,test,1,0.0,2-Back,1.0,m,Mon May 11 2026 13:26:14 GMT-0500 (Central Daylight Time),654931.1000000238,065_o_m_n_a.png,O,m,1598,14,1,2612.400000035763,652318.6999999881,7803,NNB,B,12
4,test,1,0.0,2-Back,0.0,m,Mon May 11 2026 13:26:14 GMT-0500 (Central Daylight Time),657246.1000000238,110_o_f_n_a.png,O,z,1291,15,1,2312.2000000476837,654933.8999999762,7803,NNB,B,13
5,test,1,1.0,2-Back,1.0,z,Mon May 11 2026 13:26:14 GMT-0500 (Central Daylight Time),659347.6999999881,065_o_m_n_a.png,O,z,1073,16,1,2098.099999964237,657249.6000000238,7803,NNB,B,14
6,test,1,0.0,2-Back,1.0,m,Mon May 11 2026 13:26:14 GMT-0500 (Central Daylight Time),661929.0,097_m_f_n_a.png,O,m,1553,17,1,2578.0,659351.0,7803,NNB,B,15
6,test,1,0.0,2-Back,0.0,m,Mon May 11 2026 13:26:14 GMT-0500 (Central Daylight Time),664395.1000000238,178_m_m_n_a.png,O,z,1450,18,1,2462.400000035763,661932.6999999881,7803,NNB,B,16
0,test,2,0.0,2-Back,,,Mon May 11 2026 13:26:14 GMT-0500 (Central Daylight Time),664395.1000000238,178_m_m_n_a.png,O,space,1724,1,1,2462.400000035763,661932.6999999881,7803,NNB,B,0
0,test,2,0.0,2-Back,,,Mon May 11 2026 13:26:14 GMT-0500 (Central Daylight Time),664395.1000000238,173_y_f_n_a.png,O,space,1724,2,1,2462.400000035763,661932.6999999881,7803,NNB,B,0
1,test,2,1.0,2-Back,1.0,z,Mon May 11 2026 13:26:14 GMT-0500 (Central Daylight Time),673341.1999999881,178_m_m_n_a.png,O,z,1094,3,1,2107.300000011921,671233.8999999762,7803,NNB,B,1
1,test,2,0.0,2-Back,0.0,m,Mon May 11 2026 13:26:14 GMT-0500 (Central Daylight Time),676375.3999999762,097_m_f_n_a.png,O,None,2016,4,1,3030.899999976158,673344.5,7803,NNB,B,2
1,test,2,0.0,2-Back,0.0,m,Mon May 11 2026 13:26:14 GMT-0500 (Central Daylight Time),678938.6999999881,173_y_f_n_a.png,O,z,1535,5,1,2557.300000011921,676381.3999999762,7803,NNB,B,3
1,test,2,0.0,2-Back,0.0,m,Mon May 11 2026 13:26:14 GMT-0500 (Central Daylight Time),681972.3999999762,065_o_m_n_a.png,O,None,2015,6,1,3030.2999999523163,678942.1000000238,7803,NNB,B,4
2,test,2,0.0,2-Back,1.0,m,Mon May 11 2026 13:26:14 GMT-0500 (Central Daylight Time),683922.5,152_y_f_n_a.png,O,m,925,7,1,1942.5,681980.0,7803,NNB,B,5
3,test,2,1.0,2-Back,1.0,z,Mon May 11 2026 13:26:14 GMT-0500 (Central Daylight Time),685921.6000000238,065_o_m_n_a.png,O,z,968,8,1,1996.0,683925.6000000238,7803,NNB,B,6
3,test,2,0.0,2-Back,0.0,m,Mon May 11 2026 13:26:14 GMT-0500 (Central Daylight Time),688453.5,013_y_m_n_a.png,O,z,1503,9,1,2528.0,685925.5,7803,NNB,B,7
3,test,2,0.0,2-Back,0.0,m,Mon May 11 2026 13:26:14 GMT-0500 (Central Daylight Time),690504.3999999762,013_y_m_n_a.png,O,z,1024,10,1,2048.199999988079,688456.1999999881,7803,NNB,B,8
3,test,2,0.0,2-Back,0.0,m,Mon May 11 2026 13:26:14 GMT-0500 (Central Daylight Time),693536.8999999762,029_m_f_n_a.png,O,None,2016,11,1,3029.599999964237,690507.3000000119,7803,NNB,B,9
3,test,2,0.0,2-Back,0.0,m,Mon May 11 2026 13:26:14 GMT-0500 (Central Daylight Time),695817.8000000119,173_y_f_n_a.png,O,z,1250,12,1,2272.5,693545.3000000119,7803,NNB,B,10
4,test,2,1.0,2-Back,1.0,z,Mon May 11 2026 13:26:14 GMT-0500 (Central Daylight Time),698335.5,029_m_f_n_a.png,O,z,1500,13,1,2515.0,695820.5,7803,NNB,B,11
5,test,2,0.0,2-Back,1.0,m,Mon May 11 2026 13:26:14 GMT-0500 (Central Daylight Time),700567.6000000238,176_o_m_n_a.png,O,m,1202,14,1,2229.0,698338.6000000238,7803,NNB,B,12
5,test,2,0.0,2-Back,0.0,m,Mon May 11 2026 13:26:14 GMT-0500 (Central Daylight Time),702516.3000000119,176_o_m_n_a.png,O,z,929,15,1,1945.6000000238419,700570.6999999881,7803,NNB,B,13
5,test,2,0.0,2-Back,0.0,m,Mon May 11 2026 13:26:14 GMT-0500 (Central Daylight Time),705548.8999999762,110_o_f_n_a.png,O,None,2016,16,1,3029.2999999523163,702519.6000000238,7803,NNB,B,14
5,test,2,0.0,2-Back,0.0,m,Mon May 11 2026 13:26:14 GMT-0500 (Central Daylight Time),707915.5,126_m_m_n_a.png,O,z,1349,17,1,2359.0,705556.5,7803,NNB,B,15
6,test,2,1.0,2-Back,1.0,z,Mon May 11 2026 13:26:14 GMT-0500 (Central Daylight Time),710098.3999999762,110_o_f_n_a.png,O,z,1159,18,1,2180.199999988079,707918.1999999881,7803,NNB,B,16
0,test,3,1.0,2-Back,,,Mon May 11 2026 13:26:14 GMT-0500 (Central Daylight Time),710098.3999999762,153_y_m_n_a.png,O,space,1837,1,1,2180.199999988079,707918.1999999881,7803,NNB,B,0
0,test,3,1.0,2-Back,,,Mon May 11 2026 13:26:14 GMT-0500 (Central Daylight Time),710098.3999999762,153_y_m_n_a.png,O,space,1837,2,1,2180.199999988079,707918.1999999881,7803,NNB,B,0
1,test,3,0.0,2-Back,1.0,m,Mon May 11 2026 13:26:14 GMT-0500 (Central Daylight Time),719543.3999999762,110_o_f_n_a.png,O,m,1457,3,1,2474.2999999523163,717069.1000000238,7803,NNB,B,1
2,test,3,0.0,2-Back,1.0,m,Mon May 11 2026 13:26:14 GMT-0500 (Central Daylight Time),722092.8000000119,178_m_m_n_a.png,O,m,1518,4,1,2547.900000035763,719544.8999999762,7803,NNB,B,2
3,test,3,1.0,2-Back,1.0,z,Mon May 11 2026 13:26:14 GMT-0500 (Central Daylight Time),724043.3999999762,110_o_f_n_a.png,O,z,921,5,1,1948.199999988079,722095.1999999881,7803,NNB,B,3
4,test,3,0.0,2-Back,1.0,m,Mon May 11 2026 13:26:14 GMT-0500 (Central Daylight Time),726592.8999999762,013_y_m_n_a.png,O,m,1520,6,1,2546.399999976158,724046.5,7803,NNB,B,4
4,test,3,0.0,2-Back,0.0,m,Mon May 11 2026 13:26:14 GMT-0500 (Central Daylight Time),728573.3999999762,178_m_m_n_a.png,O,z,952,7,1,1977.7999999523163,726595.6000000238,7803,NNB,B,5
5,test,3,1.0,2-Back,1.0,z,Mon May 11 2026 13:26:14 GMT-0500 (Central Daylight Time),730842.8000000119,013_y_m_n_a.png,O,z,1242,8,1,2266.300000011921,728576.5,7803,NNB,B,6
5,test,3,0.0,2-Back,0.0,m,Mon May 11 2026 13:26:14 GMT-0500 (Central Daylight Time),733323.0,173_y_f_n_a.png,O,z,1452,9,1,2477.699999988079,730845.3000000119,7803,NNB,B,7
6,test,3,0.0,2-Back,1.0,m,Mon May 11 2026 13:26:14 GMT-0500 (Central Daylight Time),736155.5,126_m_m_n_a.png,O,m,1807,10,1,2829.300000011921,733326.1999999881,7803,NNB,B,8
7,test,3,1.0,2-Back,1.0,z,Mon May 11 2026 13:26:14 GMT-0500 (Central Daylight Time),738222.0,173_y_f_n_a.png,O,z,1043,11,1,2063.300000011921,736158.6999999881,7803,NNB,B,9
8,test,3,1.0,2-Back,1.0,z,Mon May 11 2026 13:26:14 GMT-0500 (Central Daylight Time),741220.8999999762,126_m_m_n_a.png,O,z,1968,12,1,2996.699999988079,738224.1999999881,7803,NNB,B,10
9,test,3,0.0,2-Back,1.0,m,Mon May 11 2026 13:26:14 GMT-0500 (Central Daylight Time),743985.6000000238,110_o_f_n_a.png,O,m,1739,13,1,2761.800000011921,741223.8000000119,7803,NNB,B,11
10,test,3,0.0,2-Back,1.0,m,Mon May 11 2026 13:26:14 GMT-0500 (Central Daylight Time),746651.6000000238,097_m_f_n_a.png,O,m,1639,14,1,2662.800000011921,743988.8000000119,7803,NNB,B,12
11,test,3,0.0,2-Back,1.0,m,Mon May 11 2026 13:26:14 GMT-0500 (Central Daylight Time),749518.8999999762,065_o_m_n_a.png,O,m,1835,15,1,2863.899999976158,746655.0,7803,NNB,B,13
12,test,3,1.0,2-Back,1.0,z,Mon May 11 2026 13:26:14 GMT-0500 (Central Daylight Time),751550.3000000119,097_m_f_n_a.png,O,z,1008,16,1,2028.4000000357628,749521.8999999762,7803,NNB,B,14
13,test,3,0.0,2-Back,1.0,m,Mon May 11 2026 13:26:14 GMT-0500 (Central Daylight Time),753832.6000000238,086_o_f_n_a.png,O,m,1252,17,1,2280.300000011921,751552.3000000119,7803,NNB,B,15
13,test,3,0.0,2-Back,0.0,m,Mon May 11 2026 13:26:14 GMT-0500 (Central Daylight Time),755815.3999999762,086_o_f_n_a.png,O,z,951,18,1,1978.3999999761581,753837.0,7803,NNB,B,16
0,test,4,0.0,2-Back,,,Mon May 11 2026 13:26:14 GMT-0500 (Central Daylight Time),755815.3999999762,176_o_m_n_a.png,O,space,1617,1,1,1978.3999999761581,753837.0,7803,NNB,B,0
0,test,4,0.0,2-Back,,,Mon May 11 2026 13:26:14 GMT-0500 (Central Daylight Time),755815.3999999762,152_y_f_n_a.png,O,space,1617,2,1,1978.3999999761581,753837.0,7803,NNB,B,0
1,test,4,1.0,2-Back,1.0,z,Mon May 11 2026 13:26:14 GMT-0500 (Central Daylight Time),764696.1000000238,176_o_m_n_a.png,O,z,1040,3,1,2057.7000000476837,762638.3999999762,7803,NNB,B,1
2,test,4,1.0,2-Back,1.0,z,Mon May 11 2026 13:26:14 GMT-0500 (Central Daylight Time),767162.1999999881,152_y_f_n_a.png,O,z,1449,4,1,2462.399999976158,764699.8000000119,7803,NNB,B,2
2,test,4,0.0,2-Back,0.0,m,Mon May 11 2026 13:26:14 GMT-0500 (Central Daylight Time),770195.3999999762,110_o_f_n_a.png,O,None,2015,5,1,3028.699999988079,767166.6999999881,7803,NNB,B,3
2,test,4,0.0,2-Back,0.0,m,Mon May 11 2026 13:26:14 GMT-0500 (Central Daylight Time),772093.1999999881,110_o_f_n_a.png,O,z,875,6,1,1891.699999988079,770201.5,7803,NNB,B,4
3,test,4,0.0,2-Back,1.0,m,Mon May 11 2026 13:26:14 GMT-0500 (Central Daylight Time),774793.6999999881,029_m_f_n_a.png,O,m,1674,7,1,2698.5,772095.1999999881,7803,NNB,B,5
3,test,4,0.0,2-Back,0.0,m,Mon May 11 2026 13:26:14 GMT-0500 (Central Daylight Time),777441.1999999881,013_y_m_n_a.png,O,z,1621,8,1,2644.099999964237,774797.1000000238,7803,NNB,B,6
4,test,4,1.0,2-Back,1.0,z,Mon May 11 2026 13:26:14 GMT-0500 (Central Daylight Time),779457.6999999881,029_m_f_n_a.png,O,z,998,9,1,2014.0999999642372,777443.6000000238,7803,NNB,B,7
5,test,4,0.0,2-Back,1.0,m,Mon May 11 2026 13:26:14 GMT-0500 (Central Daylight Time),781874.6000000238,126_m_m_n_a.png,O,m,1390,10,1,2412.2000000476837,779462.3999999762,7803,NNB,B,8
5,test,4,0.0,2-Back,0.0,m,Mon May 11 2026 13:26:14 GMT-0500 (Central Daylight Time),783790.5,013_y_m_n_a.png,O,z,893,11,1,1913.300000011921,781877.1999999881,7803,NNB,B,9
6,test,4,0.0,2-Back,1.0,m,Mon May 11 2026 13:26:14 GMT-0500 (Central Daylight Time),786372.6999999881,086_o_f_n_a.png,O,m,1552,12,1,2578.800000011921,783793.8999999762,7803,NNB,B,10
6,test,4,0.0,2-Back,0.0,m,Mon May 11 2026 13:26:14 GMT-0500 (Central Daylight Time),788472.3000000119,153_y_m_n_a.png,O,z,1075,13,1,2097.600000023842,786374.6999999881,7803,NNB,B,11
7,test,4,1.0,2-Back,1.0,z,Mon May 11 2026 13:26:14 GMT-0500 (Central Daylight Time),790754.1999999881,086_o_f_n_a.png,O,z,1253,14,1,2279.099999964237,788475.1000000238,7803,NNB,B,12
8,test,4,1.0,2-Back,1.0,z,Mon May 11 2026 13:26:14 GMT-0500 (Central Daylight Time),792853.5,153_y_m_n_a.png,O,z,1078,15,1,2096.699999988079,790756.8000000119,7803,NNB,B,13
9,test,4,0.0,2-Back,1.0,m,Mon May 11 2026 13:26:14 GMT-0500 (Central Daylight Time),795219.1999999881,178_m_m_n_a.png,O,m,1344,16,1,2363.099999964237,792856.1000000238,7803,NNB,B,14
10,test,4,0.0,2-Back,1.0,m,Mon May 11 2026 13:26:14 GMT-0500 (Central Daylight Time),797783.5,097_m_f_n_a.png,O,m,1546,17,1,2561.0,795222.5,7803,NNB,B,15
11,test,4,1.0,2-Back,1.0,z,Mon May 11 2026 13:26:14 GMT-0500 (Central Daylight Time),799701.6000000238,178_m_m_n_a.png,O,z,894,18,1,1916.300000011921,797785.3000000119,7803,NNB,B,16
0,test,5,1.0,2-Back,,,Mon May 11 2026 13:26:14 GMT-0500 (Central Daylight Time),799701.6000000238,153_y_m_n_a.png,O,space,1578,1,1,1916.300000011921,797785.3000000119,7803,NNB,B,0
0,test,5,1.0,2-Back,,,Mon May 11 2026 13:26:14 GMT-0500 (Central Daylight Time),799701.6000000238,097_m_f_n_a.png,O,space,1578,2,1,1916.300000011921,797785.3000000119,7803,NNB,B,0
1,test,5,1.0,2-Back,1.0,z,Mon May 11 2026 13:26:14 GMT-0500 (Central Daylight Time),808315.3999999762,153_y_m_n_a.png,O,z,962,3,1,1974.0,806341.3999999762,7803,NNB,B,1
2,test,5,1.0,2-Back,1.0,z,Mon May 11 2026 13:26:14 GMT-0500 (Central Daylight Time),810501.6999999881,097_m_f_n_a.png,O,z,1165,4,1,2183.5,808318.1999999881,7803,NNB,B,2
3,test,5,0.0,2-Back,1.0,m,Mon May 11 2026 13:26:14 GMT-0500 (Central Daylight Time),813097.0,086_o_f_n_a.png,O,m,1583,5,1,2593.100000023842,810503.8999999762,7803,NNB,B,3
3,test,5,0.0,2-Back,0.0,m,Mon May 11 2026 13:26:14 GMT-0500 (Central Daylight Time),814981.8000000119,153_y_m_n_a.png,O,z,864,6,1,1881.1000000238419,813100.6999999881,7803,NNB,B,4
4,test,5,0.0,2-Back,1.0,m,Mon May 11 2026 13:26:14 GMT-0500 (Central Daylight Time),817645.8000000119,173_y_f_n_a.png,O,m,1633,7,1,2661.400000035763,814984.3999999762,7803,NNB,B,5
4,test,5,0.0,2-Back,0.0,m,Mon May 11 2026 13:26:14 GMT-0500 (Central Daylight Time),819662.6000000238,086_o_f_n_a.png,O,z,986,8,1,2013.2000000476837,817649.3999999762,7803,NNB,B,6
5,test,5,1.0,2-Back,1.0,z,Mon May 11 2026 13:26:14 GMT-0500 (Central Daylight Time),822028.6000000238,173_y_f_n_a.png,O,z,1344,9,1,2362.5,819666.1000000238,7803,NNB,B,7
6,test,5,0.0,2-Back,1.0,m,Mon May 11 2026 13:26:14 GMT-0500 (Central Daylight Time),824259.8000000119,065_o_m_n_a.png,O,m,1212,10,1,2229.100000023842,822030.6999999881,7803,NNB,B,8
6,test,5,0.0,2-Back,0.0,m,Mon May 11 2026 13:26:14 GMT-0500 (Central Daylight Time),826826.0,029_m_f_n_a.png,O,z,1549,11,1,2564.199999988079,824261.8000000119,7803,NNB,B,9
6,test,5,0.0,2-Back,0.0,m,Mon May 11 2026 13:26:14 GMT-0500 (Central Daylight Time),828843.8000000119,126_m_m_n_a.png,O,z,990,12,1,2015.199999988079,826828.6000000238,7803,NNB,B,10
6,test,5,0.0,2-Back,0.0,m,Mon May 11 2026 13:26:14 GMT-0500 (Central Daylight Time),830957.8000000119,065_o_m_n_a.png,O,z,1092,13,1,2111.699999988079,828846.1000000238,7803,NNB,B,11
7,test,5,1.0,2-Back,1.0,z,Mon May 11 2026 13:26:14 GMT-0500 (Central Daylight Time),832958.3999999762,126_m_m_n_a.png,O,z,967,14,1,1998.0,830960.3999999762,7803,NNB,B,12
8,test,5,0.0,2-Back,1.0,m,Mon May 11 2026 13:26:14 GMT-0500 (Central Daylight Time),835055.8999999762,152_y_f_n_a.png,O,m,1067,15,1,2095.5,832960.3999999762,7803,NNB,B,13
9,test,5,0.0,2-Back,1.0,m,Mon May 11 2026 13:26:14 GMT-0500 (Central Daylight Time),837457.3999999762,176_o_m_n_a.png,O,m,1374,16,1,2399.599999964237,835057.8000000119,7803,NNB,B,14
9,test,5,0.0,2-Back,0.0,m,Mon May 11 2026 13:26:14 GMT-0500 (Central Daylight Time),839588.6999999881,029_m_f_n_a.png,O,z,1109,17,1,2129.099999964237,837459.6000000238,7803,NNB,B,15
10,test,5,1.0,2-Back,1.0,z,Mon May 11 2026 13:26:14 GMT-0500 (Central Daylight Time),841439.1999999881,176_o_m_n_a.png,O,z,818,18,1,1848.300000011921,839590.8999999762,7803,NNB,B,16
