acc_sum,block,block_c,change,condition,correct,correct_response,datetime,endtime,face,project,response,response_time,row_sel,session_number,start_end,starttime,subject_id,task,task_vers,trial
0,prac,1,,1-Back,,,Wed Nov 12 2025 14:12:27 GMT-0500 (Eastern Standard Time),,124_o_f_d_a.png,I,space,1400,1,,,,,VNB,A,0
0,prac,1,0.0,1-Back,0.0,m,Wed Nov 12 2025 14:12:27 GMT-0500 (Eastern Standard Time),273359.9,071_y_f_n_a.png,I,None,2012,2,,2831.5999999999767,270528.30000000005,,VNB,A,1
1,prac,1,0.0,1-Back,1.0,m,Wed Nov 12 2025 14:12:27 GMT-0500 (Eastern Standard Time),274309.80000000005,165_m_m_h_a.png,I,m,84,3,,929.0,273380.80000000005,,VNB,A,2
1,prac,1,0.0,1-Back,0.0,m,Wed Nov 12 2025 14:12:27 GMT-0500 (Eastern Standard Time),277159.6,109_y_m_d_a.png,I,None,2008,4,,2831.5999999999767,274328.0,,VNB,A,3
2,prac,1,0.0,1-Back,1.0,m,Wed Nov 12 2025 14:12:27 GMT-0500 (Eastern Standard Time),278043.1,124_o_f_n_a.png,I,m,2,5,,855.3999999999069,277187.70000000007,,VNB,A,4
3,prac,1,1.0,1-Back,1.0,z,Wed Nov 12 2025 14:12:27 GMT-0500 (Eastern Standard Time),279860.0,109_y_m_n_a.png,I,z,959,6,,1797.0999999999767,278062.9,,VNB,A,5
4,prac,1,0.0,1-Back,1.0,m,Wed Nov 12 2025 14:12:27 GMT-0500 (Eastern Standard Time),281559.1,039_o_m_h_a.png,I,m,862,7,,1674.5999999999767,279884.5,,VNB,A,6
4,prac,1,0.0,1-Back,0.0,m,Wed Nov 12 2025 14:12:27 GMT-0500 (Eastern Standard Time),282943.0,139_m_f_d_a.png,I,z,545,8,,1368.6999999999534,281574.30000000005,,VNB,A,7
4,prac,1,1.0,1-Back,0.0,z,Wed Nov 12 2025 14:12:27 GMT-0500 (Eastern Standard Time),284309.6,071_y_f_d_a.png,I,m,535,9,,1349.0999999999767,282960.5,,VNB,A,8
5,prac,1,0.0,1-Back,1.0,m,Wed Nov 12 2025 14:12:27 GMT-0500 (Eastern Standard Time),285592.70000000007,165_m_m_n_a.png,I,m,447,10,,1265.9000000000233,284326.80000000005,,VNB,A,9
5,prac,1,0.0,1-Back,0.0,m,Wed Nov 12 2025 14:12:27 GMT-0500 (Eastern Standard Time),287076.4,124_o_f_h_a.png,I,z,622,11,,1472.4000000000233,285604.0,,VNB,A,10
6,prac,1,0.0,1-Back,1.0,m,Wed Nov 12 2025 14:12:27 GMT-0500 (Eastern Standard Time),288259.70000000007,109_y_m_d_a.png,I,m,386,12,,1168.4000000000233,287091.30000000005,,VNB,A,11
0,test,1,0.0,1-Back,,,Wed Nov 12 2025 14:12:27 GMT-0500 (Eastern Standard Time),288259.70000000007,071_y_f_d_a.png,I,space,991,1,,1168.4000000000233,287091.30000000005,,VNB,A,0
1,test,1,0.0,1-Back,1.0,m,Wed Nov 12 2025 14:12:27 GMT-0500 (Eastern Standard Time),298926.4,139_m_f_n_a.png,I,m,541,2,,1566.6999999999534,297359.70000000007,,VNB,A,1
1,test,1,0.0,1-Back,0.0,m,Wed Nov 12 2025 14:12:27 GMT-0500 (Eastern Standard Time),300609.30000000005,039_o_m_h_a.png,I,z,653,3,,1670.0,298939.30000000005,,VNB,A,2
1,test,1,1.0,1-Back,0.0,z,Wed Nov 12 2025 14:12:27 GMT-0500 (Eastern Standard Time),302226.20000000007,165_m_m_h_a.png,I,m,586,4,,1604.2000000000698,300622.0,,VNB,A,3
1,test,1,0.0,1-Back,0.0,m,Wed Nov 12 2025 14:12:27 GMT-0500 (Eastern Standard Time),303843.1,124_o_f_n_a.png,I,z,587,5,,1604.0999999999767,302239.0,,VNB,A,4
2,test,1,0.0,1-Back,1.0,m,Wed Nov 12 2025 14:12:27 GMT-0500 (Eastern Standard Time),305409.70000000007,109_y_m_d_a.png,I,m,538,6,,1552.3000000000466,303857.4,,VNB,A,5
3,test,1,1.0,1-Back,1.0,z,Wed Nov 12 2025 14:12:27 GMT-0500 (Eastern Standard Time),307076.4,139_m_f_d_a.png,I,z,635,7,,1652.4000000000233,305424.0,,VNB,A,6
4,test,1,0.0,1-Back,1.0,m,Wed Nov 12 2025 14:12:27 GMT-0500 (Eastern Standard Time),308677.1,071_y_f_h_a.png,I,m,567,8,,1584.2999999999302,307092.80000000005,,VNB,A,7
4,test,1,0.0,1-Back,0.0,m,Wed Nov 12 2025 14:12:27 GMT-0500 (Eastern Standard Time),310176.30000000005,039_o_m_n_a.png,I,z,472,9,,1487.0,308689.30000000005,,VNB,A,8
5,test,1,0.0,1-Back,1.0,m,Wed Nov 12 2025 14:12:27 GMT-0500 (Eastern Standard Time),311643.0,109_y_m_h_a.png,I,m,445,10,,1451.5,310191.5,,VNB,A,9
5,test,1,0.0,1-Back,0.0,m,Wed Nov 12 2025 14:12:27 GMT-0500 (Eastern Standard Time),313026.1,039_o_m_d_a.png,I,z,337,11,,1368.5,311657.6,,VNB,A,10
5,test,1,1.0,1-Back,0.0,z,Wed Nov 12 2025 14:12:27 GMT-0500 (Eastern Standard Time),314376.1,124_o_f_d_a.png,I,m,331,12,,1336.2999999999302,313039.80000000005,,VNB,A,11
6,test,1,0.0,1-Back,1.0,m,Wed Nov 12 2025 14:12:27 GMT-0500 (Eastern Standard Time),315909.6,165_m_m_n_a.png,I,m,485,13,,1517.0,314392.6,,VNB,A,12
6,test,1,1.0,1-Back,0.0,z,Wed Nov 12 2025 14:12:27 GMT-0500 (Eastern Standard Time),317326.30000000005,071_y_f_n_a.png,I,m,375,14,,1399.2000000000698,315927.1,,VNB,A,13
6,test,1,0.0,1-Back,0.0,m,Wed Nov 12 2025 14:12:27 GMT-0500 (Eastern Standard Time),318642.80000000005,139_m_f_h_a.png,I,z,285,15,,1301.3000000000466,317341.5,,VNB,A,14
7,test,1,0.0,1-Back,1.0,m,Wed Nov 12 2025 14:12:27 GMT-0500 (Eastern Standard Time),319992.9,165_m_m_d_a.png,I,m,330,16,,1338.3000000000466,318654.6,,VNB,A,15
7,test,1,0.0,1-Back,0.0,m,Wed Nov 12 2025 14:12:27 GMT-0500 (Eastern Standard Time),321259.30000000005,109_y_m_n_a.png,I,z,227,17,,1250.5,320008.80000000005,,VNB,A,16
8,test,1,0.0,1-Back,1.0,m,Wed Nov 12 2025 14:12:27 GMT-0500 (Eastern Standard Time),322609.4,124_o_f_h_a.png,I,m,320,18,,1339.9000000000233,321269.5,,VNB,A,17
0,test,2,0.0,1-Back,,,Wed Nov 12 2025 14:12:27 GMT-0500 (Eastern Standard Time),322609.4,109_y_m_n_a.png,I,space,1796,1,,1339.9000000000233,321269.5,,VNB,A,0
0,test,2,0.0,1-Back,0.0,m,Wed Nov 12 2025 14:12:27 GMT-0500 (Eastern Standard Time),327551.30000000005,071_y_f_h_a.png,I,z,17,2,,1108.5,326442.80000000005,,VNB,A,1
1,test,2,1.0,1-Back,1.0,m,Wed Nov 12 2025 14:12:27 GMT-0500 (Eastern Standard Time),328843.0,039_o_m_n_a.png,I,m,261,3,,1272.7999999999302,327570.20000000007,,VNB,A,2
1,test,2,0.0,1-Back,0.0,m,Wed Nov 12 2025 14:12:27 GMT-0500 (Eastern Standard Time),330242.6,139_m_f_d_a.png,I,z,369,4,,1388.1999999999534,328854.4,,VNB,A,3
1,test,2,0.0,1-Back,0.0,z,Wed Nov 12 2025 14:12:27 GMT-0500 (Eastern Standard Time),331625.70000000007,165_m_m_d_a.png,I,m,361,5,,1371.5,330254.20000000007,,VNB,A,4
1,test,2,0.0,1-Back,0.0,m,Wed Nov 12 2025 14:12:27 GMT-0500 (Eastern Standard Time),332993.1,109_y_m_h_a.png,I,z,338,6,,1357.7999999999302,331635.30000000005,,VNB,A,5
1,test,2,1.0,1-Back,0.0,z,Wed Nov 12 2025 14:12:27 GMT-0500 (Eastern Standard Time),334326.6,124_o_f_h_a.png,I,m,316,7,,1321.5,333005.1,,VNB,A,6
1,test,2,0.0,1-Back,0.0,m,Wed Nov 12 2025 14:12:27 GMT-0500 (Eastern Standard Time),335642.9,139_m_f_n_a.png,I,z,294,8,,1303.1999999999534,334339.70000000007,,VNB,A,7
2,test,2,0.0,1-Back,1.0,m,Wed Nov 12 2025 14:12:27 GMT-0500 (Eastern Standard Time),336959.6,071_y_f_d_a.png,I,m,273,9,,1302.3999999999069,335657.20000000007,,VNB,A,8
2,test,2,0.0,1-Back,0.0,m,Wed Nov 12 2025 14:12:27 GMT-0500 (Eastern Standard Time),338042.70000000007,165_m_m_n_a.png,I,z,61,10,,1068.8000000000466,336973.9,,VNB,A,9
3,test,2,1.0,1-Back,1.0,m,Wed Nov 12 2025 14:12:27 GMT-0500 (Eastern Standard Time),339559.4,139_m_f_h_a.png,I,m,498,11,,1503.9000000000233,338055.5,,VNB,A,10
4,test,2,0.0,1-Back,1.0,z,Wed Nov 12 2025 14:12:27 GMT-0500 (Eastern Standard Time),341343.0,039_o_m_h_a.png,I,z,757,12,,1772.0999999999767,339570.9,,VNB,A,11
5,test,2,0.0,1-Back,1.0,m,Wed Nov 12 2025 14:12:27 GMT-0500 (Eastern Standard Time),342692.9,109_y_m_d_a.png,I,m,318,13,,1335.0,341357.9,,VNB,A,12
5,test,2,0.0,1-Back,0.0,m,Wed Nov 12 2025 14:12:27 GMT-0500 (Eastern Standard Time),344059.70000000007,124_o_f_n_a.png,I,z,344,14,,1352.4000000000233,342707.30000000005,,VNB,A,13
5,test,2,0.0,1-Back,0.0,z,Wed Nov 12 2025 14:12:27 GMT-0500 (Eastern Standard Time),345409.6,071_y_f_n_a.png,I,m,321,15,,1338.5999999999767,344071.0,,VNB,A,14
5,test,2,1.0,1-Back,0.0,m,Wed Nov 12 2025 14:12:27 GMT-0500 (Eastern Standard Time),347443.0,165_m_m_h_a.png,I,z,1003,16,,2021.5999999999767,345421.4,,VNB,A,15
6,test,2,0.0,1-Back,1.0,m,Wed Nov 12 2025 14:12:27 GMT-0500 (Eastern Standard Time),348909.6,124_o_f_d_a.png,I,m,425,17,,1450.5,347459.1,,VNB,A,16
7,test,2,1.0,1-Back,1.0,z,Wed Nov 12 2025 14:12:27 GMT-0500 (Eastern Standard Time),350309.6,039_o_m_d_a.png,I,z,368,18,,1386.7999999999302,348922.80000000005,,VNB,A,17
0,test,3,1.0,1-Back,,,Wed Nov 12 2025 14:12:27 GMT-0500 (Eastern Standard Time),350309.6,124_o_f_h_a.png,I,space,2079,1,,1386.7999999999302,348922.80000000005,,VNB,A,0
1,test,3,0.0,1-Back,1.0,m,Wed Nov 12 2025 14:12:27 GMT-0500 (Eastern Standard Time),355909.80000000005,139_m_f_d_a.png,I,m,400,2,,1422.7000000000698,354487.1,,VNB,A,1
1,test,3,1.0,1-Back,0.0,m,Wed Nov 12 2025 14:12:27 GMT-0500 (Eastern Standard Time),357309.6,165_m_m_n_a.png,I,z,374,3,,1384.7999999999302,355924.80000000005,,VNB,A,2
1,test,3,0.0,1-Back,0.0,z,Wed Nov 12 2025 14:12:27 GMT-0500 (Eastern Standard Time),358676.4,124_o_f_n_a.png,I,m,335,4,,1354.8000000000466,357321.6,,VNB,A,3
1,test,3,1.0,1-Back,0.0,m,Wed Nov 12 2025 14:12:27 GMT-0500 (Eastern Standard Time),360026.30000000005,039_o_m_d_a.png,I,z,312,5,,1335.0999999999767,358691.20000000007,,VNB,A,4
2,test,3,0.0,1-Back,1.0,m,Wed Nov 12 2025 14:12:27 GMT-0500 (Eastern Standard Time),361393.0,071_y_f_h_a.png,I,m,338,6,,1353.7999999999302,360039.20000000007,,VNB,A,5
3,test,3,0.0,1-Back,1.0,z,Wed Nov 12 2025 14:12:27 GMT-0500 (Eastern Standard Time),362809.70000000007,109_y_m_h_a.png,I,z,380,7,,1399.9000000000233,361409.80000000005,,VNB,A,6
4,test,3,0.0,1-Back,1.0,m,Wed Nov 12 2025 14:12:27 GMT-0500 (Eastern Standard Time),364159.70000000007,139_m_f_n_a.png,I,m,307,8,,1332.2000000000698,362827.5,,VNB,A,7
4,test,3,0.0,1-Back,0.0,m,Wed Nov 12 2025 14:12:27 GMT-0500 (Eastern Standard Time),365509.80000000005,071_y_f_d_a.png,I,z,300,9,,1334.2000000000698,364175.6,,VNB,A,8
5,test,3,1.0,1-Back,1.0,m,Wed Nov 12 2025 14:12:27 GMT-0500 (Eastern Standard Time),366843.1,039_o_m_n_a.png,I,m,311,10,,1318.5,365524.6,,VNB,A,9
5,test,3,0.0,1-Back,0.0,m,Wed Nov 12 2025 14:12:27 GMT-0500 (Eastern Standard Time),368159.6,165_m_m_h_a.png,I,z,274,11,,1300.0999999999767,366859.5,,VNB,A,10
5,test,3,0.0,1-Back,0.0,z,Wed Nov 12 2025 14:12:27 GMT-0500 (Eastern Standard Time),369526.5,139_m_f_h_a.png,I,m,332,12,,1350.7999999999302,368175.70000000007,,VNB,A,11
5,test,3,1.0,1-Back,0.0,m,Wed Nov 12 2025 14:12:27 GMT-0500 (Eastern Standard Time),370843.0,124_o_f_d_a.png,I,z,295,13,,1304.0,369539.0,,VNB,A,12
5,test,3,0.0,1-Back,0.0,z,Wed Nov 12 2025 14:12:27 GMT-0500 (Eastern Standard Time),372193.0,165_m_m_d_a.png,I,m,306,14,,1331.4000000000233,370861.6,,VNB,A,13
5,test,3,0.0,1-Back,0.0,m,Wed Nov 12 2025 14:12:27 GMT-0500 (Eastern Standard Time),373542.80000000005,109_y_m_n_a.png,I,z,332,15,,1339.4000000000233,372203.4,,VNB,A,14
6,test,3,1.0,1-Back,1.0,m,Wed Nov 12 2025 14:12:27 GMT-0500 (Eastern Standard Time),374893.0,039_o_m_h_a.png,I,m,326,16,,1337.5999999999767,373555.4,,VNB,A,15
6,test,3,0.0,1-Back,0.0,m,Wed Nov 12 2025 14:12:27 GMT-0500 (Eastern Standard Time),376276.1,109_y_m_d_a.png,I,z,335,17,,1367.1999999999534,374908.9,,VNB,A,16
7,test,3,1.0,1-Back,1.0,m,Wed Nov 12 2025 14:12:27 GMT-0500 (Eastern Standard Time),377692.9,071_y_f_n_a.png,I,m,393,18,,1404.9000000000233,376288.0,,VNB,A,17
0,test,4,1.0,1-Back,,,Wed Nov 12 2025 14:12:27 GMT-0500 (Eastern Standard Time),377692.9,165_m_m_d_a.png,I,space,1433,1,,1404.9000000000233,376288.0,,VNB,A,0
0,test,4,0.0,1-Back,0.0,z,Wed Nov 12 2025 14:12:27 GMT-0500 (Eastern Standard Time),382643.1,039_o_m_d_a.png,I,m,453,2,,1472.5999999999767,381170.5,,VNB,A,1
0,test,4,0.0,1-Back,0.0,m,Wed Nov 12 2025 14:12:27 GMT-0500 (Eastern Standard Time),383959.4,109_y_m_h_a.png,I,z,282,3,,1301.6999999999534,382657.70000000007,,VNB,A,2
1,test,4,0.0,1-Back,1.0,m,Wed Nov 12 2025 14:12:27 GMT-0500 (Eastern Standard Time),385476.30000000005,139_m_f_n_a.png,I,m,485,4,,1503.3000000000466,383973.0,,VNB,A,3
2,test,4,1.0,1-Back,1.0,m,Wed Nov 12 2025 14:12:27 GMT-0500 (Eastern Standard Time),386976.30000000005,124_o_f_h_a.png,I,m,456,5,,1484.4000000000233,385491.9,,VNB,A,4
2,test,4,0.0,1-Back,0.0,m,Wed Nov 12 2025 14:12:27 GMT-0500 (Eastern Standard Time),388309.70000000007,165_m_m_n_a.png,I,z,300,6,,1318.4000000000233,386991.30000000005,,VNB,A,5
3,test,4,0.0,1-Back,1.0,m,Wed Nov 12 2025 14:12:27 GMT-0500 (Eastern Standard Time),389909.70000000007,109_y_m_d_a.png,I,m,567,7,,1586.0,388323.70000000007,,VNB,A,6
4,test,4,1.0,1-Back,1.0,z,Wed Nov 12 2025 14:12:27 GMT-0500 (Eastern Standard Time),391076.30000000005,071_y_f_d_a.png,I,z,118,8,,1150.7000000000698,389925.6,,VNB,A,7
5,test,4,0.0,1-Back,1.0,m,Wed Nov 12 2025 14:12:27 GMT-0500 (Eastern Standard Time),392443.0,139_m_f_h_a.png,I,m,328,9,,1346.5,391096.5,,VNB,A,8
6,test,4,0.0,1-Back,1.0,z,Wed Nov 12 2025 14:12:27 GMT-0500 (Eastern Standard Time),393742.80000000005,039_o_m_h_a.png,I,z,273,10,,1285.7000000000698,392457.1,,VNB,A,9
7,test,4,1.0,1-Back,1.0,m,Wed Nov 12 2025 14:12:27 GMT-0500 (Eastern Standard Time),395176.20000000007,124_o_f_n_a.png,I,m,414,11,,1422.6000000000931,393753.6,,VNB,A,10
8,test,4,0.0,1-Back,1.0,m,Wed Nov 12 2025 14:12:27 GMT-0500 (Eastern Standard Time),396559.6,139_m_f_d_a.png,I,m,340,12,,1365.8999999999069,395193.70000000007,,VNB,A,11
8,test,4,0.0,1-Back,0.0,m,Wed Nov 12 2025 14:12:27 GMT-0500 (Eastern Standard Time),397892.80000000005,071_y_f_n_a.png,I,z,301,13,,1320.5,396572.30000000005,,VNB,A,12
9,test,4,0.0,1-Back,1.0,m,Wed Nov 12 2025 14:12:27 GMT-0500 (Eastern Standard Time),399292.70000000007,124_o_f_d_a.png,I,m,375,14,,1389.9000000000233,397902.80000000005,,VNB,A,13
10,test,4,0.0,1-Back,1.0,m,Wed Nov 12 2025 14:12:27 GMT-0500 (Eastern Standard Time),400626.30000000005,071_y_f_h_a.png,I,m,303,15,,1322.8000000000466,399303.5,,VNB,A,14
11,test,4,1.0,1-Back,1.0,z,Wed Nov 12 2025 14:12:27 GMT-0500 (Eastern Standard Time),402059.70000000007,165_m_m_h_a.png,I,z,411,16,,1419.7000000000698,400640.0,,VNB,A,15
12,test,4,0.0,1-Back,1.0,m,Wed Nov 12 2025 14:12:27 GMT-0500 (Eastern Standard Time),403526.4,039_o_m_n_a.png,I,m,416,17,,1452.8000000000466,402073.6,,VNB,A,16
13,test,4,1.0,1-Back,1.0,z,Wed Nov 12 2025 14:12:27 GMT-0500 (Eastern Standard Time),404976.30000000005,109_y_m_n_a.png,I,z,423,18,,1436.0999999999767,403540.20000000007,,VNB,A,17
0,test,5,1.0,1-Back,,,Wed Nov 12 2025 14:12:27 GMT-0500 (Eastern Standard Time),404976.30000000005,039_o_m_n_a.png,I,space,980,1,,1436.0999999999767,403540.20000000007,,VNB,A,0
1,test,5,1.0,1-Back,1.0,m,Wed Nov 12 2025 14:12:27 GMT-0500 (Eastern Standard Time),409443.1,124_o_f_h_a.png,I,m,436,2,,1452.2999999999302,407990.80000000005,,VNB,A,1
1,test,5,0.0,1-Back,0.0,m,Wed Nov 12 2025 14:12:27 GMT-0500 (Eastern Standard Time),410859.70000000007,109_y_m_d_a.png,I,z,394,3,,1402.8000000000466,409456.9,,VNB,A,2
1,test,5,0.0,1-Back,0.0,z,Wed Nov 12 2025 14:12:27 GMT-0500 (Eastern Standard Time),412209.70000000007,039_o_m_d_a.png,I,m,321,4,,1336.2000000000698,410873.5,,VNB,A,3
1,test,5,0.0,1-Back,0.0,m,Wed Nov 12 2025 14:12:27 GMT-0500 (Eastern Standard Time),413559.4,139_m_f_h_a.png,I,z,315,5,,1335.8000000000466,412223.6,,VNB,A,4
2,test,5,0.0,1-Back,1.0,m,Wed Nov 12 2025 14:12:27 GMT-0500 (Eastern Standard Time),414943.20000000007,071_y_f_n_a.png,I,m,357,6,,1369.1000000000931,413574.1,,VNB,A,5
2,test,5,1.0,1-Back,0.0,z,Wed Nov 12 2025 14:12:27 GMT-0500 (Eastern Standard Time),416509.70000000007,124_o_f_n_a.png,I,m,542,7,,1553.6000000000931,414956.1,,VNB,A,6
2,test,5,0.0,1-Back,0.0,m,Wed Nov 12 2025 14:12:27 GMT-0500 (Eastern Standard Time),417859.70000000007,139_m_f_d_a.png,I,z,303,8,,1333.1000000000931,416526.6,,VNB,A,7
3,test,5,0.0,1-Back,1.0,m,Wed Nov 12 2025 14:12:27 GMT-0500 (Eastern Standard Time),419226.1,109_y_m_h_a.png,I,m,327,9,,1352.2999999999302,417873.80000000005,,VNB,A,8
3,test,5,0.0,1-Back,0.0,m,Wed Nov 12 2025 14:12:27 GMT-0500 (Eastern Standard Time),420509.6,071_y_f_d_a.png,I,z,259,10,,1275.5999999999767,419234.0,,VNB,A,9
4,test,5,0.0,1-Back,1.0,m,Wed Nov 12 2025 14:12:27 GMT-0500 (Eastern Standard Time),421843.0,165_m_m_n_a.png,I,m,287,11,,1309.0999999999767,420533.9,,VNB,A,10
5,test,5,1.0,1-Back,1.0,z,Wed Nov 12 2025 14:12:27 GMT-0500 (Eastern Standard Time),423143.9,139_m_f_n_a.png,I,z,282,12,,1288.5,421855.4,,VNB,A,11
6,test,5,0.0,1-Back,1.0,m,Wed Nov 12 2025 14:12:27 GMT-0500 (Eastern Standard Time),424509.1,039_o_m_h_a.png,I,m,341,13,,1353.8999999999069,423155.20000000007,,VNB,A,12
7,test,5,0.0,1-Back,1.0,z,Wed Nov 12 2025 14:12:27 GMT-0500 (Eastern Standard Time),425843.0,165_m_m_h_a.png,I,z,302,14,,1321.0,424522.0,,VNB,A,13
8,test,5,1.0,1-Back,1.0,m,Wed Nov 12 2025 14:12:27 GMT-0500 (Eastern Standard Time),427276.0,124_o_f_d_a.png,I,m,409,15,,1419.9000000000233,425856.1,,VNB,A,14
8,test,5,0.0,1-Back,0.0,m,Wed Nov 12 2025 14:12:27 GMT-0500 (Eastern Standard Time),428726.5,109_y_m_n_a.png,I,z,417,16,,1440.7999999999302,427285.70000000007,,VNB,A,15
9,test,5,0.0,1-Back,1.0,m,Wed Nov 12 2025 14:12:27 GMT-0500 (Eastern Standard Time),430159.80000000005,071_y_f_h_a.png,I,m,390,17,,1404.5999999999767,428755.20000000007,,VNB,A,16
9,test,5,0.0,1-Back,0.0,m,Wed Nov 12 2025 14:12:27 GMT-0500 (Eastern Standard Time),431643.0,165_m_m_d_a.png,I,z,460,18,,1468.1999999999534,430174.80000000005,,VNB,A,17
0,prac,1,0.0,2-Back,,,Wed Nov 12 2025 14:12:27 GMT-0500 (Eastern Standard Time),431643.0,139_m_f_n_a.png,I,space,688,1,,1468.1999999999534,430174.80000000005,,VNB,A,0
0,prac,1,0.0,2-Back,,,Wed Nov 12 2025 14:12:27 GMT-0500 (Eastern Standard Time),431643.0,124_o_f_h_a.png,I,space,688,2,,1468.1999999999534,430174.80000000005,,VNB,A,0
1,prac,1,0.0,2-Back,1.0,m,Wed Nov 12 2025 14:12:27 GMT-0500 (Eastern Standard Time),493060.1,039_o_m_d_a.png,I,m,868,3,,1702.0999999999767,491358.0,,VNB,A,1
1,prac,1,1.0,2-Back,0.0,z,Wed Nov 12 2025 14:12:27 GMT-0500 (Eastern Standard Time),495276.5,165_m_m_h_a.png,I,m,1378,4,,2198.9000000000233,493077.6,,VNB,A,2
1,prac,1,0.0,2-Back,0.0,m,Wed Nov 12 2025 14:12:27 GMT-0500 (Eastern Standard Time),496943.20000000007,071_y_f_n_a.png,I,z,818,5,,1646.3000000000466,495296.9,,VNB,A,3
1,prac,1,1.0,2-Back,0.0,z,Wed Nov 12 2025 14:12:27 GMT-0500 (Eastern Standard Time),498493.1,039_o_m_h_a.png,I,m,704,6,,1523.5,496969.6,,VNB,A,4
2,prac,1,1.0,2-Back,1.0,z,Wed Nov 12 2025 14:12:27 GMT-0500 (Eastern Standard Time),499976.5,109_y_m_n_a.png,I,z,632,7,,1461.5,498515.0,,VNB,A,5
3,prac,1,0.0,2-Back,1.0,m,Wed Nov 12 2025 14:12:27 GMT-0500 (Eastern Standard Time),501410.0,139_m_f_d_a.png,I,m,599,8,,1410.7999999999302,499999.20000000007,,VNB,A,6
3,prac,1,0.0,2-Back,0.0,m,Wed Nov 12 2025 14:12:27 GMT-0500 (Eastern Standard Time),502776.5,124_o_f_d_a.png,I,z,487,9,,1349.0999999999767,501427.4,,VNB,A,7
4,prac,1,0.0,2-Back,1.0,m,Wed Nov 12 2025 14:12:27 GMT-0500 (Eastern Standard Time),504076.5,165_m_m_h_a.png,I,m,510,10,,1282.7999999999302,502793.70000000007,,VNB,A,8
5,prac,1,1.0,2-Back,1.0,z,Wed Nov 12 2025 14:12:27 GMT-0500 (Eastern Standard Time),505326.20000000007,071_y_f_d_a.png,I,z,404,11,,1229.8000000000466,504096.4,,VNB,A,9
6,prac,1,0.0,2-Back,1.0,m,Wed Nov 12 2025 14:12:27 GMT-0500 (Eastern Standard Time),506576.6,039_o_m_n_a.png,I,m,412,12,,1236.5999999999767,505340.0,,VNB,A,10
0,prac,2,0.0,2-Back,,,Wed Nov 12 2025 14:12:27 GMT-0500 (Eastern Standard Time),506576.6,139_m_f_n_a.png,I,a,3101,1,,1236.5999999999767,505340.0,,VNB,A,0
0,prac,2,0.0,2-Back,,,Wed Nov 12 2025 14:12:27 GMT-0500 (Eastern Standard Time),506576.6,124_o_f_h_a.png,I,a,3101,2,,1236.5999999999767,505340.0,,VNB,A,0
0,prac,2,0.0,2-Back,0.0,m,Wed Nov 12 2025 14:12:27 GMT-0500 (Eastern Standard Time),516143.1,039_o_m_d_a.png,I,z,465,3,,1285.5,514857.6,,VNB,A,1
0,prac,2,1.0,2-Back,0.0,z,Wed Nov 12 2025 14:12:27 GMT-0500 (Eastern Standard Time),517526.5000000001,165_m_m_h_a.png,I,m,595,4,,1364.3000000000466,516162.20000000007,,VNB,A,2
0,prac,2,0.0,2-Back,0.0,m,Wed Nov 12 2025 14:12:27 GMT-0500 (Eastern Standard Time),518693.29999999993,071_y_f_n_a.png,I,z,330,5,,1145.1999999999534,517548.1,,VNB,A,3
1,prac,2,1.0,2-Back,1.0,z,Wed Nov 12 2025 14:12:27 GMT-0500 (Eastern Standard Time),520044.6,039_o_m_h_a.png,I,z,530,6,,1333.5999999998603,518711.0000000001,,VNB,A,4
2,prac,2,1.0,2-Back,1.0,z,Wed Nov 12 2025 14:12:27 GMT-0500 (Eastern Standard Time),521276.6,109_y_m_n_a.png,I,z,387,7,,1217.8999999999069,520058.70000000007,,VNB,A,5
3,prac,2,0.0,2-Back,1.0,m,Wed Nov 12 2025 14:12:27 GMT-0500 (Eastern Standard Time),522526.6,139_m_f_d_a.png,I,m,408,8,,1231.0,521295.6,,VNB,A,6
3,prac,2,0.0,2-Back,0.0,m,Wed Nov 12 2025 14:12:27 GMT-0500 (Eastern Standard Time),523826.4,124_o_f_d_a.png,I,z,411,9,,1282.1000000000931,522544.29999999993,,VNB,A,7
4,prac,2,0.0,2-Back,1.0,m,Wed Nov 12 2025 14:12:27 GMT-0500 (Eastern Standard Time),525059.9,165_m_m_h_a.png,I,m,375,10,,1217.3999999999069,523842.5000000001,,VNB,A,8
5,prac,2,1.0,2-Back,1.0,z,Wed Nov 12 2025 14:12:27 GMT-0500 (Eastern Standard Time),526359.5000000001,071_y_f_d_a.png,I,z,464,11,,1280.5,525079.0000000001,,VNB,A,9
6,prac,2,0.0,2-Back,1.0,m,Wed Nov 12 2025 14:12:27 GMT-0500 (Eastern Standard Time),527726.6,039_o_m_n_a.png,I,m,520,12,,1341.1999999999534,526385.4,,VNB,A,10
0,test,1,0.0,2-Back,,,Wed Nov 12 2025 14:12:27 GMT-0500 (Eastern Standard Time),527726.6,109_y_m_h_a.png,I,space,819,1,,1341.1999999999534,526385.4,,VNB,A,0
0,test,1,0.0,2-Back,,,Wed Nov 12 2025 14:12:27 GMT-0500 (Eastern Standard Time),527726.6,124_o_f_n_a.png,I,space,819,2,,1341.1999999999534,526385.4,,VNB,A,0
0,test,1,0.0,2-Back,0.0,z,Wed Nov 12 2025 14:12:27 GMT-0500 (Eastern Standard Time),540909.5000000001,039_o_m_h_a.png,I,None,2015,3,,3021.4000000001397,537888.1,,VNB,A,1
1,test,1,0.0,2-Back,1.0,m,Wed Nov 12 2025 14:12:27 GMT-0500 (Eastern Standard Time),543043.1,139_m_f_d_a.png,I,m,1102,4,,2123.399999999907,540919.7000000001,,VNB,A,2
2,test,1,1.0,2-Back,1.0,m,Wed Nov 12 2025 14:12:27 GMT-0500 (Eastern Standard Time),545926.7000000001,109_y_m_n_a.png,I,m,1866,5,,2869.1999999999534,543057.5000000001,,VNB,A,3
2,test,1,0.0,2-Back,0.0,z,Wed Nov 12 2025 14:12:27 GMT-0500 (Eastern Standard Time),548276.6,071_y_f_d_a.png,I,m,1302,6,,2335.1999999999534,545941.4,,VNB,A,4
2,test,1,0.0,2-Back,0.0,m,Wed Nov 12 2025 14:12:27 GMT-0500 (Eastern Standard Time),549793.2000000001,165_m_m_h_a.png,I,z,472,7,,1501.1999999999534,548292.0000000001,,VNB,A,5
2,test,1,1.0,2-Back,0.0,m,Wed Nov 12 2025 14:12:27 GMT-0500 (Eastern Standard Time),551344.7999999999,071_y_f_n_a.png,I,z,524,8,,1538.8999999999069,549805.9,,VNB,A,6
2,test,1,0.0,2-Back,0.0,z,Wed Nov 12 2025 14:12:27 GMT-0500 (Eastern Standard Time),552759.4,124_o_f_h_a.png,I,m,398,9,,1404.6000000000931,551354.7999999999,,VNB,A,7
2,test,1,0.0,2-Back,0.0,m,Wed Nov 12 2025 14:12:27 GMT-0500 (Eastern Standard Time),554209.2999999999,039_o_m_d_a.png,I,z,420,10,,1436.3999999999069,552772.9,,VNB,A,8
3,test,1,1.0,2-Back,1.0,m,Wed Nov 12 2025 14:12:27 GMT-0500 (Eastern Standard Time),555643.0000000001,165_m_m_d_a.png,I,m,410,11,,1423.7000000001863,554219.2999999999,,VNB,A,9
3,test,1,0.0,2-Back,0.0,m,Wed Nov 12 2025 14:12:27 GMT-0500 (Eastern Standard Time),557026.5000000001,139_m_f_n_a.png,I,z,337,12,,1364.7000000001863,555661.7999999999,,VNB,A,10
4,test,1,0.0,2-Back,1.0,m,Wed Nov 12 2025 14:12:27 GMT-0500 (Eastern Standard Time),558459.7999999999,071_y_f_h_a.png,I,m,410,13,,1418.7999999998137,557041.0000000001,,VNB,A,11
4,test,1,0.0,2-Back,0.0,z,Wed Nov 12 2025 14:12:27 GMT-0500 (Eastern Standard Time),559809.5000000001,165_m_m_n_a.png,I,m,304,14,,1333.3000000000466,558476.2000000001,,VNB,A,12
4,test,1,0.0,2-Back,0.0,m,Wed Nov 12 2025 14:12:27 GMT-0500 (Eastern Standard Time),561143.0000000001,109_y_m_d_a.png,I,z,299,15,,1316.4000000001397,559826.6,,VNB,A,13
4,test,1,1.0,2-Back,0.0,m,Wed Nov 12 2025 14:12:27 GMT-0500 (Eastern Standard Time),562609.4,139_m_f_h_a.png,I,z,437,16,,1454.5,561154.9,,VNB,A,14
5,test,1,0.0,2-Back,1.0,z,Wed Nov 12 2025 14:12:27 GMT-0500 (Eastern Standard Time),564109.7999999999,124_o_f_d_a.png,I,z,475,17,,1488.7999999998137,562621.0000000001,,VNB,A,15
5,test,1,0.0,2-Back,0.0,m,Wed Nov 12 2025 14:12:27 GMT-0500 (Eastern Standard Time),565526.6,039_o_m_n_a.png,I,z,398,18,,1401.3000000000466,564125.2999999999,,VNB,A,16
0,test,2,0.0,2-Back,,,Wed Nov 12 2025 14:12:27 GMT-0500 (Eastern Standard Time),565526.6,165_m_m_h_a.png,I,space,2654,1,,1401.3000000000466,564125.2999999999,,VNB,A,0
0,test,2,0.0,2-Back,,,Wed Nov 12 2025 14:12:27 GMT-0500 (Eastern Standard Time),565526.6,071_y_f_n_a.png,I,space,2654,2,,1401.3000000000466,564125.2999999999,,VNB,A,0
1,test,2,1.0,2-Back,1.0,z,Wed Nov 12 2025 14:12:27 GMT-0500 (Eastern Standard Time),574809.6,124_o_f_h_a.png,I,z,446,3,,1452.8999999999069,573356.7000000001,,VNB,A,1
2,test,2,0.0,2-Back,1.0,m,Wed Nov 12 2025 14:12:27 GMT-0500 (Eastern Standard Time),576559.9,039_o_m_d_a.png,I,m,722,4,,1738.3000000000466,574821.6,,VNB,A,2
2,test,2,0.0,2-Back,0.0,m,Wed Nov 12 2025 14:12:27 GMT-0500 (Eastern Standard Time),577926.6,139_m_f_d_a.png,I,z,334,5,,1354.5,576572.1,,VNB,A,3
3,test,2,0.0,2-Back,1.0,m,Wed Nov 12 2025 14:12:27 GMT-0500 (Eastern Standard Time),579293.2000000001,109_y_m_h_a.png,I,m,343,6,,1351.5,577941.7000000001,,VNB,A,4
3,test,2,0.0,2-Back,0.0,m,Wed Nov 12 2025 14:12:27 GMT-0500 (Eastern Standard Time),580643.1,124_o_f_n_a.png,I,z,303,7,,1333.8999999999069,579309.2000000001,,VNB,A,5
4,test,2,1.0,2-Back,1.0,z,Wed Nov 12 2025 14:12:27 GMT-0500 (Eastern Standard Time),582126.6,039_o_m_h_a.png,I,z,458,8,,1468.0,580658.6,,VNB,A,6
4,test,2,0.0,2-Back,0.0,m,Wed Nov 12 2025 14:12:27 GMT-0500 (Eastern Standard Time),583559.6,071_y_f_d_a.png,I,z,398,9,,1417.1999999999534,582142.4,,VNB,A,7
5,test,2,0.0,2-Back,1.0,m,Wed Nov 12 2025 14:12:27 GMT-0500 (Eastern Standard Time),585109.9,109_y_m_d_a.png,I,m,516,10,,1534.0,583575.9,,VNB,A,8
5,test,2,0.0,2-Back,0.0,m,Wed Nov 12 2025 14:12:27 GMT-0500 (Eastern Standard Time),586609.6,165_m_m_n_a.png,I,z,470,11,,1485.3999999999069,585124.2000000001,,VNB,A,9
6,test,2,0.0,2-Back,1.0,m,Wed Nov 12 2025 14:12:27 GMT-0500 (Eastern Standard Time),588361.1,139_m_f_h_a.png,I,m,734,12,,1740.0,586621.1,,VNB,A,10
7,test,2,1.0,2-Back,1.0,z,Wed Nov 12 2025 14:12:27 GMT-0500 (Eastern Standard Time),589909.9,039_o_m_n_a.png,I,z,517,13,,1540.5,588369.4,,VNB,A,11
8,test,2,0.0,2-Back,1.0,m,Wed Nov 12 2025 14:12:27 GMT-0500 (Eastern Standard Time),591542.9,124_o_f_d_a.png,I,m,615,14,,1619.8999999999069,589923.0000000001,,VNB,A,12
8,test,2,0.0,2-Back,0.0,m,Wed Nov 12 2025 14:12:27 GMT-0500 (Eastern Standard Time),593226.5000000001,071_y_f_h_a.png,I,z,662,15,,1671.5,591555.0000000001,,VNB,A,13
8,test,2,0.0,2-Back,0.0,z,Wed Nov 12 2025 14:12:27 GMT-0500 (Eastern Standard Time),594726.5000000001,165_m_m_d_a.png,I,m,450,16,,1484.1000000000931,593242.4,,VNB,A,14
8,test,2,0.0,2-Back,0.0,m,Wed Nov 12 2025 14:12:27 GMT-0500 (Eastern Standard Time),595826.2999999999,109_y_m_n_a.png,I,z,53,17,,1083.7999999998137,594742.5000000001,,VNB,A,15
9,test,2,1.0,2-Back,1.0,m,Wed Nov 12 2025 14:12:27 GMT-0500 (Eastern Standard Time),597309.7000000001,139_m_f_n_a.png,I,m,459,18,,1468.6999999999534,595841.0000000001,,VNB,A,16
0,test,3,1.0,2-Back,,,Wed Nov 12 2025 14:12:27 GMT-0500 (Eastern Standard Time),597309.7000000001,039_o_m_n_a.png,I,space,1463,1,,1468.6999999999534,595841.0000000001,,VNB,A,0
0,test,3,1.0,2-Back,,,Wed Nov 12 2025 14:12:27 GMT-0500 (Eastern Standard Time),597309.7000000001,124_o_f_d_a.png,I,space,1463,2,,1468.6999999999534,595841.0000000001,,VNB,A,0
0,test,3,0.0,2-Back,0.0,m,Wed Nov 12 2025 14:12:27 GMT-0500 (Eastern Standard Time),605566.0000000001,071_y_f_h_a.png,I,z,458,3,,1608.7000000001863,603957.2999999999,,VNB,A,1
0,test,3,0.0,2-Back,0.0,z,Wed Nov 12 2025 14:12:27 GMT-0500 (Eastern Standard Time),607343.2999999999,139_m_f_d_a.png,I,m,741,4,,1762.2999999998137,605581.0000000001,,VNB,A,2
1,test,3,1.0,2-Back,1.0,m,Wed Nov 12 2025 14:12:27 GMT-0500 (Eastern Standard Time),609559.2000000001,109_y_m_n_a.png,I,m,1196,5,,2201.0,607358.2000000001,,VNB,A,3
1,test,3,0.0,2-Back,0.0,m,Wed Nov 12 2025 14:12:27 GMT-0500 (Eastern Standard Time),611843.2999999999,039_o_m_h_a.png,I,z,1221,6,,2247.2999999998137,609596.0000000001,,VNB,A,4
1,test,3,0.0,2-Back,0.0,z,Wed Nov 12 2025 14:12:27 GMT-0500 (Eastern Standard Time),613443.2000000001,071_y_f_n_a.png,I,m,554,7,,1583.6999999999534,611859.5000000001,,VNB,A,5
1,test,3,1.0,2-Back,0.0,m,Wed Nov 12 2025 14:12:27 GMT-0500 (Eastern Standard Time),615576.2000000001,165_m_m_d_a.png,I,z,1047,8,,2064.9000000001397,613511.2999999999,,VNB,A,6
2,test,3,0.0,2-Back,1.0,m,Wed Nov 12 2025 14:12:27 GMT-0500 (Eastern Standard Time),617259.7999999999,109_y_m_d_a.png,I,m,661,9,,1669.1999999999534,615590.6,,VNB,A,7
2,test,3,0.0,2-Back,0.0,m,Wed Nov 12 2025 14:12:27 GMT-0500 (Eastern Standard Time),618726.5000000001,124_o_f_h_a.png,I,z,433,10,,1451.1000000000931,617275.4,,VNB,A,8
3,test,3,1.0,2-Back,1.0,m,Wed Nov 12 2025 14:12:27 GMT-0500 (Eastern Standard Time),620193.0000000001,139_m_f_n_a.png,I,m,422,11,,1443.9000000001397,618749.1,,VNB,A,9
4,test,3,1.0,2-Back,1.0,z,Wed Nov 12 2025 14:12:27 GMT-0500 (Eastern Standard Time),621559.6,165_m_m_h_a.png,I,z,347,12,,1353.3000000000466,620206.2999999999,,VNB,A,10
5,test,3,0.0,2-Back,1.0,m,Wed Nov 12 2025 14:12:27 GMT-0500 (Eastern Standard Time),623009.9,071_y_f_d_a.png,I,m,421,13,,1437.3000000000466,621572.6,,VNB,A,11
5,test,3,0.0,2-Back,0.0,m,Wed Nov 12 2025 14:12:27 GMT-0500 (Eastern Standard Time),624576.6,124_o_f_n_a.png,I,z,471,14,,1545.8999999999069,623030.7000000001,,VNB,A,12
5,test,3,0.0,2-Back,0.0,z,Wed Nov 12 2025 14:12:27 GMT-0500 (Eastern Standard Time),626043.0000000001,039_o_m_d_a.png,I,m,445,15,,1452.9000000001397,624590.1,,VNB,A,13
5,test,3,1.0,2-Back,0.0,m,Wed Nov 12 2025 14:12:27 GMT-0500 (Eastern Standard Time),627542.9,139_m_f_h_a.png,I,z,466,16,,1483.8999999999069,626059.0000000001,,VNB,A,14
6,test,3,0.0,2-Back,1.0,m,Wed Nov 12 2025 14:12:27 GMT-0500 (Eastern Standard Time),629142.7999999999,165_m_m_n_a.png,I,m,565,17,,1582.5999999998603,627560.2000000001,,VNB,A,15
7,test,3,0.0,2-Back,1.0,z,Wed Nov 12 2025 14:12:27 GMT-0500 (Eastern Standard Time),630693.2000000001,109_y_m_h_a.png,I,z,518,18,,1535.6999999999534,629157.5000000001,,VNB,A,16
0,test,4,0.0,2-Back,,,Wed Nov 12 2025 14:12:27 GMT-0500 (Eastern Standard Time),630693.2000000001,139_m_f_n_a.png,I,space,1183,1,,1535.6999999999534,629157.5000000001,,VNB,A,0
0,test,4,0.0,2-Back,,,Wed Nov 12 2025 14:12:27 GMT-0500 (Eastern Standard Time),630693.2000000001,039_o_m_n_a.png,I,space,1183,2,,1535.6999999999534,629157.5000000001,,VNB,A,0
1,test,4,1.0,2-Back,1.0,m,Wed Nov 12 2025 14:12:27 GMT-0500 (Eastern Standard Time),638592.9,109_y_m_h_a.png,I,m,522,3,,1549.1000000000931,637043.7999999999,,VNB,A,1
1,test,4,1.0,2-Back,0.0,m,Wed Nov 12 2025 14:12:27 GMT-0500 (Eastern Standard Time),639959.7000000001,124_o_f_d_a.png,I,z,348,4,,1358.3000000000466,638601.4,,VNB,A,2
1,test,4,0.0,2-Back,0.0,z,Wed Nov 12 2025 14:12:27 GMT-0500 (Eastern Standard Time),641425.9,039_o_m_h_a.png,I,m,419,5,,1448.8999999999069,639977.0000000001,,VNB,A,3
1,test,4,0.0,2-Back,0.0,m,Wed Nov 12 2025 14:12:27 GMT-0500 (Eastern Standard Time),642742.7999999999,165_m_m_n_a.png,I,z,298,6,,1304.0999999998603,641438.7000000001,,VNB,A,4
2,test,4,0.0,2-Back,1.0,m,Wed Nov 12 2025 14:12:27 GMT-0500 (Eastern Standard Time),644060.0000000001,139_m_f_d_a.png,I,m,278,7,,1300.3000000000466,642759.7000000001,,VNB,A,5
3,test,4,0.0,2-Back,1.0,z,Wed Nov 12 2025 14:12:27 GMT-0500 (Eastern Standard Time),645392.9,071_y_f_n_a.png,I,z,287,8,,1308.5,644084.4,,VNB,A,6
4,test,4,1.0,2-Back,1.0,m,Wed Nov 12 2025 14:12:27 GMT-0500 (Eastern Standard Time),646726.7000000001,124_o_f_h_a.png,I,m,316,9,,1321.1999999999534,645405.5000000001,,VNB,A,7
4,test,4,0.0,2-Back,0.0,m,Wed Nov 12 2025 14:12:27 GMT-0500 (Eastern Standard Time),648060.0000000001,165_m_m_h_a.png,I,z,294,10,,1316.0,646744.0000000001,,VNB,A,8
5,test,4,0.0,2-Back,1.0,m,Wed Nov 12 2025 14:12:27 GMT-0500 (Eastern Standard Time),649376.2000000001,071_y_f_d_a.png,I,m,172,11,,1190.9000000001397,648185.2999999999,,VNB,A,9
5,test,4,0.0,2-Back,0.0,m,Wed Nov 12 2025 14:12:27 GMT-0500 (Eastern Standard Time),650660.1,109_y_m_n_a.png,I,z,253,12,,1274.1999999999534,649385.9,,VNB,A,10
5,test,4,0.0,2-Back,0.0,z,Wed Nov 12 2025 14:12:27 GMT-0500 (Eastern Standard Time),651976.2999999999,039_o_m_d_a.png,I,m,281,13,,1298.6999999999534,650677.6,,VNB,A,11
5,test,4,1.0,2-Back,0.0,m,Wed Nov 12 2025 14:12:27 GMT-0500 (Eastern Standard Time),653309.9,139_m_f_h_a.png,I,z,292,14,,1307.8000000000466,652002.1,,VNB,A,12
6,test,4,1.0,2-Back,1.0,m,Wed Nov 12 2025 14:12:27 GMT-0500 (Eastern Standard Time),654659.7999999999,071_y_f_h_a.png,I,m,302,15,,1333.7999999998137,653326.0000000001,,VNB,A,13
6,test,4,0.0,2-Back,0.0,m,Wed Nov 12 2025 14:12:27 GMT-0500 (Eastern Standard Time),655943.0000000001,124_o_f_n_a.png,I,z,265,16,,1270.8000000000466,654672.2000000001,,VNB,A,14
7,test,4,0.0,2-Back,1.0,m,Wed Nov 12 2025 14:12:27 GMT-0500 (Eastern Standard Time),657159.7000000001,109_y_m_d_a.png,I,m,198,17,,1203.0,655956.7000000001,,VNB,A,15
8,test,4,1.0,2-Back,1.0,m,Wed Nov 12 2025 14:12:27 GMT-0500 (Eastern Standard Time),658309.9,165_m_m_d_a.png,I,m,100,18,,1132.5,657177.4,,VNB,A,16
0,test,5,1.0,2-Back,,,Wed Nov 12 2025 14:12:27 GMT-0500 (Eastern Standard Time),658309.9,071_y_f_d_a.png,I,space,895,1,,1132.5,657177.4,,VNB,A,0
0,test,5,1.0,2-Back,,,Wed Nov 12 2025 14:12:27 GMT-0500 (Eastern Standard Time),658309.9,124_o_f_h_a.png,I,space,895,2,,1132.5,657177.4,,VNB,A,0
1,test,5,1.0,2-Back,1.0,z,Wed Nov 12 2025 14:12:27 GMT-0500 (Eastern Standard Time),666193.2000000001,039_o_m_d_a.png,I,z,788,3,,1815.1999999999534,664378.0000000001,,VNB,A,1
2,test,5,1.0,2-Back,1.0,m,Wed Nov 12 2025 14:12:27 GMT-0500 (Eastern Standard Time),667544.1,139_m_f_n_a.png,I,m,331,4,,1338.5999999998603,666205.5000000001,,VNB,A,2
2,test,5,0.0,2-Back,0.0,m,Wed Nov 12 2025 14:12:27 GMT-0500 (Eastern Standard Time),668910.0000000001,165_m_m_h_a.png,I,z,325,5,,1350.1000000000931,667559.9,,VNB,A,3
2,test,5,0.0,2-Back,0.0,z,Wed Nov 12 2025 14:12:27 GMT-0500 (Eastern Standard Time),670259.9,071_y_f_n_a.png,I,m,302,6,,1333.3000000000466,668926.6,,VNB,A,4
2,test,5,0.0,2-Back,0.0,m,Wed Nov 12 2025 14:12:27 GMT-0500 (Eastern Standard Time),671593.1,124_o_f_d_a.png,I,z,297,7,,1317.3999999999069,670275.7000000001,,VNB,A,5
3,test,5,0.0,2-Back,1.0,m,Wed Nov 12 2025 14:12:27 GMT-0500 (Eastern Standard Time),672943.2000000001,039_o_m_h_a.png,I,m,307,8,,1332.6999999999534,671610.5000000001,,VNB,A,6
4,test,5,1.0,2-Back,1.0,z,Wed Nov 12 2025 14:12:27 GMT-0500 (Eastern Standard Time),674276.5000000001,139_m_f_d_a.png,I,z,302,9,,1318.3000000000466,672958.2000000001,,VNB,A,7
5,test,5,0.0,2-Back,1.0,m,Wed Nov 12 2025 14:12:27 GMT-0500 (Eastern Standard Time),675509.7999999999,109_y_m_n_a.png,I,m,199,10,,1220.8999999999069,674288.9,,VNB,A,8
5,test,5,0.0,2-Back,0.0,m,Wed Nov 12 2025 14:12:27 GMT-0500 (Eastern Standard Time),676809.7999999999,165_m_m_n_a.png,I,z,263,11,,1283.1999999999534,675526.6,,VNB,A,9
6,test,5,0.0,2-Back,1.0,m,Wed Nov 12 2025 14:12:27 GMT-0500 (Eastern Standard Time),678110.0000000001,071_y_f_h_a.png,I,m,275,12,,1290.1000000000931,676819.9,,VNB,A,10
6,test,5,0.0,2-Back,0.0,m,Wed Nov 12 2025 14:12:27 GMT-0500 (Eastern Standard Time),679409.7000000001,109_y_m_d_a.png,I,z,255,13,,1284.6000000000931,678125.1,,VNB,A,11
6,test,5,1.0,2-Back,0.0,z,Wed Nov 12 2025 14:12:27 GMT-0500 (Eastern Standard Time),680743.0000000001,139_m_f_h_a.png,I,m,299,14,,1314.0,679429.0000000001,,VNB,A,12
6,test,5,0.0,2-Back,0.0,m,Wed Nov 12 2025 14:12:27 GMT-0500 (Eastern Standard Time),682143.2000000001,039_o_m_n_a.png,I,z,304,15,,1382.8000000000466,680760.4,,VNB,A,13
7,test,5,0.0,2-Back,1.0,m,Wed Nov 12 2025 14:12:27 GMT-0500 (Eastern Standard Time),683443.2000000001,165_m_m_d_a.png,I,m,270,16,,1286.1000000000931,682157.1,,VNB,A,14
8,test,5,0.0,2-Back,1.0,z,Wed Nov 12 2025 14:12:27 GMT-0500 (Eastern Standard Time),684759.7000000001,124_o_f_n_a.png,I,z,265,17,,1276.3000000000466,683483.4,,VNB,A,15
9,test,5,1.0,2-Back,1.0,m,Wed Nov 12 2025 14:12:27 GMT-0500 (Eastern Standard Time),686059.9,109_y_m_h_a.png,I,m,277,18,,1285.5,684774.4,,VNB,A,16
