acc_sum,block,block_c,change,condition,correct,correct_response,datetime,endtime,face,project,response,response_time,row_sel,session_number,start_end,starttime,subject_id,task,task_vers,trial
0,prac,1,,1-Back,,,Fri Feb 20 2026 13:42:52 GMT-0600 (Central Standard Time),,124_o_f_d_a.png,O,space,3702,1,,,,,VNB,A,0
1,prac,1,0.0,1-Back,1.0,m,Fri Feb 20 2026 13:42:52 GMT-0600 (Central Standard Time),79021.90000000596,071_y_f_n_a.png,O,m,1004,2,,1807.199999988079,77214.70000001788,,VNB,A,1
2,prac,1,0.0,1-Back,1.0,m,Fri Feb 20 2026 13:42:52 GMT-0600 (Central Standard Time),80956.80000001192,165_m_m_h_a.png,O,m,1134,3,,1927.9000000059605,79028.90000000596,,VNB,A,2
3,prac,1,0.0,1-Back,1.0,m,Fri Feb 20 2026 13:42:52 GMT-0600 (Central Standard Time),82420.20000001788,109_y_m_d_a.png,O,m,648,4,,1452.0999999940395,80968.10000002384,,VNB,A,3
4,prac,1,0.0,1-Back,1.0,m,Fri Feb 20 2026 13:42:52 GMT-0600 (Central Standard Time),84070.20000001788,124_o_f_n_a.png,O,m,823,5,,1644.9000000059605,82425.30000001192,,VNB,A,4
4,prac,1,1.0,1-Back,0.0,z,Fri Feb 20 2026 13:42:52 GMT-0600 (Central Standard Time),85520.70000001788,109_y_m_n_a.png,O,m,637,6,,1445.9000000059605,84074.80000001192,,VNB,A,5
5,prac,1,0.0,1-Back,1.0,m,Fri Feb 20 2026 13:42:52 GMT-0600 (Central Standard Time),87353.0,039_o_m_h_a.png,O,m,1039,7,,1826.5,85526.5,,VNB,A,6
6,prac,1,0.0,1-Back,1.0,m,Fri Feb 20 2026 13:42:52 GMT-0600 (Central Standard Time),89334.5,139_m_f_d_a.png,O,m,1182,8,,1976.5999999940395,87357.90000000596,,VNB,A,7
7,prac,1,1.0,1-Back,1.0,z,Fri Feb 20 2026 13:42:52 GMT-0600 (Central Standard Time),90768.10000002384,071_y_f_d_a.png,O,z,617,9,,1429.1000000238419,89339.0,,VNB,A,8
8,prac,1,0.0,1-Back,1.0,m,Fri Feb 20 2026 13:42:52 GMT-0600 (Central Standard Time),92567.10000002384,165_m_m_n_a.png,O,m,990,10,,1793.0,90774.10000002384,,VNB,A,9
9,prac,1,0.0,1-Back,1.0,m,Fri Feb 20 2026 13:42:52 GMT-0600 (Central Standard Time),94217.5,124_o_f_h_a.png,O,m,842,11,,1644.5999999940395,92572.90000000596,,VNB,A,10
10,prac,1,0.0,1-Back,1.0,m,Fri Feb 20 2026 13:42:52 GMT-0600 (Central Standard Time),96116.80000001192,109_y_m_d_a.png,O,m,1122,12,,1893.300000011921,94223.5,,VNB,A,11
0,test,1,0.0,1-Back,,,Fri Feb 20 2026 13:42:52 GMT-0600 (Central Standard Time),96116.80000001192,071_y_f_d_a.png,O,space,1653,1,,1893.300000011921,94223.5,,VNB,A,0
1,test,1,0.0,1-Back,1.0,m,Fri Feb 20 2026 13:42:52 GMT-0600 (Central Standard Time),105179.40000000596,139_m_f_n_a.png,O,m,732,2,,1744.699999988079,103434.70000001788,,VNB,A,1
2,test,1,0.0,1-Back,1.0,m,Fri Feb 20 2026 13:42:52 GMT-0600 (Central Standard Time),106829.40000000596,039_o_m_h_a.png,O,m,620,3,,1646.699999988079,105182.70000001788,,VNB,A,2
3,test,1,1.0,1-Back,1.0,z,Fri Feb 20 2026 13:42:52 GMT-0600 (Central Standard Time),108479.30000001192,165_m_m_h_a.png,O,z,627,4,,1647.4000000059605,106831.90000000596,,VNB,A,3
4,test,1,0.0,1-Back,1.0,m,Fri Feb 20 2026 13:42:52 GMT-0600 (Central Standard Time),110495.60000002384,124_o_f_n_a.png,O,m,985,5,,2012.2000000178814,108483.40000000596,,VNB,A,4
5,test,1,0.0,1-Back,1.0,m,Fri Feb 20 2026 13:42:52 GMT-0600 (Central Standard Time),112311.80000001192,109_y_m_d_a.png,O,m,785,6,,1813.5999999940395,110498.20000001788,,VNB,A,5
6,test,1,1.0,1-Back,1.0,z,Fri Feb 20 2026 13:42:52 GMT-0600 (Central Standard Time),113928.0,139_m_f_d_a.png,O,z,594,7,,1613.7999999821186,112314.20000001788,,VNB,A,6
7,test,1,0.0,1-Back,1.0,m,Fri Feb 20 2026 13:42:52 GMT-0600 (Central Standard Time),115675.40000000596,071_y_f_h_a.png,O,m,723,8,,1744.199999988079,113931.20000001788,,VNB,A,7
8,test,1,0.0,1-Back,1.0,m,Fri Feb 20 2026 13:42:52 GMT-0600 (Central Standard Time),117474.80000001192,039_o_m_n_a.png,O,m,775,9,,1795.0,115679.80000001192,,VNB,A,8
8,test,1,0.0,1-Back,0.0,m,Fri Feb 20 2026 13:42:52 GMT-0600 (Central Standard Time),119125.0,109_y_m_h_a.png,O,z,621,10,,1644.199999988079,117480.80000001192,,VNB,A,9
9,test,1,0.0,1-Back,1.0,m,Fri Feb 20 2026 13:42:52 GMT-0600 (Central Standard Time),120875.5,039_o_m_d_a.png,O,m,723,11,,1747.199999988079,119128.30000001192,,VNB,A,10
10,test,1,1.0,1-Back,1.0,z,Fri Feb 20 2026 13:42:52 GMT-0600 (Central Standard Time),122907.80000001192,124_o_f_d_a.png,O,z,1014,12,,2027.5,120880.30000001192,,VNB,A,11
11,test,1,0.0,1-Back,1.0,m,Fri Feb 20 2026 13:42:52 GMT-0600 (Central Standard Time),124707.5,165_m_m_n_a.png,O,m,772,13,,1796.8999999761581,122910.60000002384,,VNB,A,12
12,test,1,1.0,1-Back,1.0,z,Fri Feb 20 2026 13:42:52 GMT-0600 (Central Standard Time),126890.30000001192,071_y_f_n_a.png,O,z,1151,14,,2178.5999999940395,124711.70000001788,,VNB,A,13
13,test,1,0.0,1-Back,1.0,m,Fri Feb 20 2026 13:42:52 GMT-0600 (Central Standard Time),128556.40000000596,139_m_f_h_a.png,O,m,646,15,,1662.199999988079,126894.20000001788,,VNB,A,14
14,test,1,0.0,1-Back,1.0,m,Fri Feb 20 2026 13:42:52 GMT-0600 (Central Standard Time),130254.80000001192,165_m_m_d_a.png,O,m,667,16,,1695.699999988079,128559.10000002384,,VNB,A,15
15,test,1,0.0,1-Back,1.0,m,Fri Feb 20 2026 13:42:52 GMT-0600 (Central Standard Time),131905.30000001192,109_y_m_n_a.png,O,m,633,17,,1646.5999999940395,130258.70000001788,,VNB,A,16
16,test,1,0.0,1-Back,1.0,m,Fri Feb 20 2026 13:42:52 GMT-0600 (Central Standard Time),133571.10000002384,124_o_f_h_a.png,O,m,648,18,,1662.6000000238419,131908.5,,VNB,A,17
0,test,2,0.0,1-Back,,,Fri Feb 20 2026 13:42:52 GMT-0600 (Central Standard Time),133571.10000002384,109_y_m_n_a.png,O,space,1383,1,,1662.6000000238419,131908.5,,VNB,A,0
1,test,2,0.0,1-Back,1.0,m,Fri Feb 20 2026 13:42:52 GMT-0600 (Central Standard Time),138618.90000000596,071_y_f_h_a.png,O,m,631,2,,1642.2999999821186,136976.60000002384,,VNB,A,1
2,test,2,1.0,1-Back,1.0,m,Fri Feb 20 2026 13:42:52 GMT-0600 (Central Standard Time),140302.10000002384,039_o_m_n_a.png,O,m,653,3,,1679.2000000178814,138622.90000000596,,VNB,A,2
3,test,2,0.0,1-Back,1.0,m,Fri Feb 20 2026 13:42:52 GMT-0600 (Central Standard Time),142535.20000001788,139_m_f_d_a.png,O,m,1203,4,,2230.4000000059605,140304.80000001192,,VNB,A,3
4,test,2,0.0,1-Back,1.0,z,Fri Feb 20 2026 13:42:52 GMT-0600 (Central Standard Time),144484.40000000596,165_m_m_d_a.png,O,z,930,5,,1946.2999999821186,142538.10000002384,,VNB,A,4
5,test,2,0.0,1-Back,1.0,m,Fri Feb 20 2026 13:42:52 GMT-0600 (Central Standard Time),146016.80000001192,109_y_m_h_a.png,O,m,501,6,,1529.4000000059605,144487.40000000596,,VNB,A,5
6,test,2,1.0,1-Back,1.0,z,Fri Feb 20 2026 13:42:52 GMT-0600 (Central Standard Time),147499.90000000596,124_o_f_h_a.png,O,z,449,7,,1480.5,146019.40000000596,,VNB,A,6
7,test,2,0.0,1-Back,1.0,m,Fri Feb 20 2026 13:42:52 GMT-0600 (Central Standard Time),149199.60000002384,139_m_f_n_a.png,O,m,667,8,,1695.4000000059605,147504.20000001788,,VNB,A,7
8,test,2,0.0,1-Back,1.0,m,Fri Feb 20 2026 13:42:52 GMT-0600 (Central Standard Time),150815.70000001788,071_y_f_d_a.png,O,m,594,9,,1613.300000011921,149202.40000000596,,VNB,A,8
9,test,2,0.0,1-Back,1.0,m,Fri Feb 20 2026 13:42:52 GMT-0600 (Central Standard Time),152398.0,165_m_m_n_a.png,O,m,560,10,,1578.7999999821186,150819.20000001788,,VNB,A,9
10,test,2,1.0,1-Back,1.0,m,Fri Feb 20 2026 13:42:52 GMT-0600 (Central Standard Time),154081.0,139_m_f_h_a.png,O,m,659,11,,1679.699999988079,152401.30000001192,,VNB,A,10
11,test,2,0.0,1-Back,1.0,z,Fri Feb 20 2026 13:42:52 GMT-0600 (Central Standard Time),155647.0,039_o_m_h_a.png,O,z,543,12,,1561.5,154085.5,,VNB,A,11
12,test,2,0.0,1-Back,1.0,m,Fri Feb 20 2026 13:42:52 GMT-0600 (Central Standard Time),157281.0,109_y_m_d_a.png,O,m,601,13,,1631.3999999761581,155649.60000002384,,VNB,A,12
13,test,2,0.0,1-Back,1.0,m,Fri Feb 20 2026 13:42:52 GMT-0600 (Central Standard Time),159046.20000001788,124_o_f_n_a.png,O,m,735,14,,1762.4000000059605,157283.80000001192,,VNB,A,13
14,test,2,0.0,1-Back,1.0,z,Fri Feb 20 2026 13:42:52 GMT-0600 (Central Standard Time),160763.20000001788,071_y_f_n_a.png,O,z,691,15,,1713.9000000059605,159049.30000001192,,VNB,A,14
15,test,2,1.0,1-Back,1.0,m,Fri Feb 20 2026 13:42:52 GMT-0600 (Central Standard Time),162511.40000000596,165_m_m_h_a.png,O,m,718,16,,1745.5,160765.90000000596,,VNB,A,15
16,test,2,0.0,1-Back,1.0,m,Fri Feb 20 2026 13:42:52 GMT-0600 (Central Standard Time),164361.60000002384,124_o_f_d_a.png,O,m,833,17,,1847.4000000059605,162514.20000001788,,VNB,A,16
17,test,2,1.0,1-Back,1.0,z,Fri Feb 20 2026 13:42:52 GMT-0600 (Central Standard Time),166111.5,039_o_m_d_a.png,O,z,720,18,,1746.8999999761581,164364.60000002384,,VNB,A,17
0,test,3,1.0,1-Back,,,Fri Feb 20 2026 13:42:52 GMT-0600 (Central Standard Time),166111.5,124_o_f_h_a.png,O,space,1098,1,,1746.8999999761581,164364.60000002384,,VNB,A,0
1,test,3,0.0,1-Back,1.0,m,Fri Feb 20 2026 13:42:52 GMT-0600 (Central Standard Time),170875.0,139_m_f_d_a.png,O,m,588,2,,1612.199999988079,169262.80000001192,,VNB,A,1
2,test,3,1.0,1-Back,1.0,m,Fri Feb 20 2026 13:42:52 GMT-0600 (Central Standard Time),173191.5,165_m_m_n_a.png,O,m,1285,3,,2313.899999976158,170877.60000002384,,VNB,A,2
3,test,3,0.0,1-Back,1.0,z,Fri Feb 20 2026 13:42:52 GMT-0600 (Central Standard Time),175016.70000001788,124_o_f_n_a.png,O,z,808,4,,1820.5,173196.20000001788,,VNB,A,3
4,test,3,1.0,1-Back,1.0,m,Fri Feb 20 2026 13:42:52 GMT-0600 (Central Standard Time),176957.70000001788,039_o_m_d_a.png,O,m,928,5,,1937.300000011921,175020.40000000596,,VNB,A,4
5,test,3,0.0,1-Back,1.0,m,Fri Feb 20 2026 13:42:52 GMT-0600 (Central Standard Time),178590.20000001788,071_y_f_h_a.png,O,m,601,6,,1627.2000000178814,176963.0,,VNB,A,5
6,test,3,0.0,1-Back,1.0,z,Fri Feb 20 2026 13:42:52 GMT-0600 (Central Standard Time),180205.80000001192,109_y_m_h_a.png,O,z,586,7,,1612.699999988079,178593.10000002384,,VNB,A,6
7,test,3,0.0,1-Back,1.0,m,Fri Feb 20 2026 13:42:52 GMT-0600 (Central Standard Time),181889.5,139_m_f_n_a.png,O,m,666,8,,1680.199999988079,180209.30000001192,,VNB,A,7
8,test,3,0.0,1-Back,1.0,m,Fri Feb 20 2026 13:42:52 GMT-0600 (Central Standard Time),183555.60000002384,071_y_f_d_a.png,O,m,640,9,,1661.9000000059605,181893.70000001788,,VNB,A,8
9,test,3,1.0,1-Back,1.0,m,Fri Feb 20 2026 13:42:52 GMT-0600 (Central Standard Time),185455.20000001788,039_o_m_n_a.png,O,m,869,10,,1897.0999999940395,183558.10000002384,,VNB,A,9
10,test,3,0.0,1-Back,1.0,m,Fri Feb 20 2026 13:42:52 GMT-0600 (Central Standard Time),187503.90000000596,165_m_m_h_a.png,O,m,1026,11,,2046.0999999940395,185457.80000001192,,VNB,A,10
11,test,3,0.0,1-Back,1.0,z,Fri Feb 20 2026 13:42:52 GMT-0600 (Central Standard Time),189153.80000001192,139_m_f_h_a.png,O,z,633,12,,1647.199999988079,187506.60000002384,,VNB,A,11
12,test,3,1.0,1-Back,1.0,m,Fri Feb 20 2026 13:42:52 GMT-0600 (Central Standard Time),190835.70000001788,124_o_f_d_a.png,O,m,655,13,,1678.5999999940395,189157.10000002384,,VNB,A,12
13,test,3,0.0,1-Back,1.0,z,Fri Feb 20 2026 13:42:52 GMT-0600 (Central Standard Time),192552.5,165_m_m_d_a.png,O,z,694,14,,1712.0,190840.5,,VNB,A,13
14,test,3,0.0,1-Back,1.0,m,Fri Feb 20 2026 13:42:52 GMT-0600 (Central Standard Time),194784.5,109_y_m_n_a.png,O,m,1210,15,,2229.5999999940395,192554.90000000596,,VNB,A,14
15,test,3,1.0,1-Back,1.0,m,Fri Feb 20 2026 13:42:52 GMT-0600 (Central Standard Time),196585.0,039_o_m_h_a.png,O,m,768,16,,1795.0,194790.0,,VNB,A,15
16,test,3,0.0,1-Back,1.0,m,Fri Feb 20 2026 13:42:52 GMT-0600 (Central Standard Time),198966.0,109_y_m_d_a.png,O,m,1352,17,,2377.699999988079,196588.30000001192,,VNB,A,16
17,test,3,1.0,1-Back,1.0,m,Fri Feb 20 2026 13:42:52 GMT-0600 (Central Standard Time),200683.60000002384,071_y_f_n_a.png,O,m,689,18,,1713.800000011921,198969.80000001192,,VNB,A,17
0,test,4,1.0,1-Back,,,Fri Feb 20 2026 13:42:52 GMT-0600 (Central Standard Time),200683.60000002384,165_m_m_d_a.png,O,space,877,1,,1713.800000011921,198969.80000001192,,VNB,A,0
1,test,4,0.0,1-Back,1.0,z,Fri Feb 20 2026 13:42:52 GMT-0600 (Central Standard Time),205164.70000001788,039_o_m_d_a.png,O,z,554,2,,1579.300000011921,203585.40000000596,,VNB,A,1
2,test,4,0.0,1-Back,1.0,m,Fri Feb 20 2026 13:42:52 GMT-0600 (Central Standard Time),206681.90000000596,109_y_m_h_a.png,O,m,492,3,,1512.5,205169.40000000596,,VNB,A,2
3,test,4,0.0,1-Back,1.0,m,Fri Feb 20 2026 13:42:52 GMT-0600 (Central Standard Time),208331.5,139_m_f_n_a.png,O,m,624,4,,1646.0,206685.5,,VNB,A,3
4,test,4,1.0,1-Back,1.0,m,Fri Feb 20 2026 13:42:52 GMT-0600 (Central Standard Time),210229.30000001192,124_o_f_h_a.png,O,m,877,5,,1894.4000000059605,208334.90000000596,,VNB,A,4
5,test,4,0.0,1-Back,1.0,m,Fri Feb 20 2026 13:42:52 GMT-0600 (Central Standard Time),211746.80000001192,165_m_m_n_a.png,O,m,499,6,,1514.4000000059605,210232.40000000596,,VNB,A,5
6,test,4,0.0,1-Back,1.0,m,Fri Feb 20 2026 13:42:52 GMT-0600 (Central Standard Time),213479.5,109_y_m_d_a.png,O,m,702,7,,1729.0999999940395,211750.40000000596,,VNB,A,6
7,test,4,1.0,1-Back,1.0,z,Fri Feb 20 2026 13:42:52 GMT-0600 (Central Standard Time),214927.5,071_y_f_d_a.png,O,z,425,8,,1444.5999999940395,213482.90000000596,,VNB,A,7
8,test,4,0.0,1-Back,1.0,m,Fri Feb 20 2026 13:42:52 GMT-0600 (Central Standard Time),216528.60000002384,139_m_f_h_a.png,O,m,568,9,,1598.4000000059605,214930.20000001788,,VNB,A,8
9,test,4,0.0,1-Back,1.0,z,Fri Feb 20 2026 13:42:52 GMT-0600 (Central Standard Time),218011.0,039_o_m_h_a.png,O,z,465,10,,1479.199999988079,216531.80000001192,,VNB,A,9
10,test,4,1.0,1-Back,1.0,m,Fri Feb 20 2026 13:42:52 GMT-0600 (Central Standard Time),220026.70000001788,124_o_f_n_a.png,O,m,988,11,,2012.0999999940395,218014.60000002384,,VNB,A,10
11,test,4,0.0,1-Back,1.0,m,Fri Feb 20 2026 13:42:52 GMT-0600 (Central Standard Time),221625.70000001788,139_m_f_d_a.png,O,m,573,12,,1596.2000000178814,220029.5,,VNB,A,11
12,test,4,0.0,1-Back,1.0,m,Fri Feb 20 2026 13:42:52 GMT-0600 (Central Standard Time),224008.5,071_y_f_n_a.png,O,m,1358,13,,2380.0,221628.5,,VNB,A,12
13,test,4,0.0,1-Back,1.0,m,Fri Feb 20 2026 13:42:52 GMT-0600 (Central Standard Time),225924.60000002384,124_o_f_d_a.png,O,m,896,14,,1913.5,224011.10000002384,,VNB,A,13
14,test,4,0.0,1-Back,1.0,m,Fri Feb 20 2026 13:42:52 GMT-0600 (Central Standard Time),228073.80000001192,071_y_f_h_a.png,O,m,1132,15,,2144.800000011921,225929.0,,VNB,A,14
15,test,4,1.0,1-Back,1.0,z,Fri Feb 20 2026 13:42:52 GMT-0600 (Central Standard Time),229856.70000001788,165_m_m_h_a.png,O,z,758,16,,1780.0999999940395,228076.60000002384,,VNB,A,15
16,test,4,0.0,1-Back,1.0,m,Fri Feb 20 2026 13:42:52 GMT-0600 (Central Standard Time),231522.40000000596,039_o_m_n_a.png,O,m,648,17,,1662.699999988079,229859.70000001788,,VNB,A,16
16,test,4,1.0,1-Back,0.0,z,Fri Feb 20 2026 13:42:52 GMT-0600 (Central Standard Time),233856.0,109_y_m_n_a.png,O,m,1310,18,,2329.899999976158,231526.10000002384,,VNB,A,17
0,test,5,1.0,1-Back,,,Fri Feb 20 2026 13:42:52 GMT-0600 (Central Standard Time),233856.0,039_o_m_n_a.png,O,space,649,1,,2329.899999976158,231526.10000002384,,VNB,A,0
1,test,5,1.0,1-Back,1.0,m,Fri Feb 20 2026 13:42:52 GMT-0600 (Central Standard Time),238137.70000001788,124_o_f_h_a.png,O,m,591,2,,1612.2000000178814,236525.5,,VNB,A,1
2,test,5,0.0,1-Back,1.0,m,Fri Feb 20 2026 13:42:52 GMT-0600 (Central Standard Time),239603.80000001192,109_y_m_d_a.png,O,m,447,3,,1463.800000011921,238140.0,,VNB,A,2
3,test,5,0.0,1-Back,1.0,z,Fri Feb 20 2026 13:42:52 GMT-0600 (Central Standard Time),241270.5,039_o_m_d_a.png,O,z,644,4,,1664.0,239606.5,,VNB,A,3
4,test,5,0.0,1-Back,1.0,m,Fri Feb 20 2026 13:42:52 GMT-0600 (Central Standard Time),242852.10000002384,139_m_f_h_a.png,O,m,562,5,,1578.300000011921,241273.80000001192,,VNB,A,4
5,test,5,0.0,1-Back,1.0,m,Fri Feb 20 2026 13:42:52 GMT-0600 (Central Standard Time),244702.40000000596,071_y_f_n_a.png,O,m,820,6,,1847.2999999821186,242855.10000002384,,VNB,A,5
6,test,5,1.0,1-Back,1.0,z,Fri Feb 20 2026 13:42:52 GMT-0600 (Central Standard Time),246518.20000001788,124_o_f_n_a.png,O,z,794,7,,1812.7000000178814,244705.5,,VNB,A,6
7,test,5,0.0,1-Back,1.0,m,Fri Feb 20 2026 13:42:52 GMT-0600 (Central Standard Time),248100.70000001788,139_m_f_d_a.png,O,m,562,8,,1579.800000011921,246520.90000000596,,VNB,A,7
8,test,5,0.0,1-Back,1.0,m,Fri Feb 20 2026 13:42:52 GMT-0600 (Central Standard Time),249567.5,109_y_m_h_a.png,O,m,444,9,,1464.199999988079,248103.30000001192,,VNB,A,8
9,test,5,0.0,1-Back,1.0,m,Fri Feb 20 2026 13:42:52 GMT-0600 (Central Standard Time),251067.20000001788,071_y_f_d_a.png,O,m,483,10,,1495.5,249571.70000001788,,VNB,A,9
10,test,5,0.0,1-Back,1.0,m,Fri Feb 20 2026 13:42:52 GMT-0600 (Central Standard Time),252600.0,165_m_m_n_a.png,O,m,509,11,,1529.7999999821186,251070.20000001788,,VNB,A,10
11,test,5,1.0,1-Back,1.0,z,Fri Feb 20 2026 13:42:52 GMT-0600 (Central Standard Time),254065.80000001192,139_m_f_n_a.png,O,z,450,12,,1463.300000011921,252602.5,,VNB,A,11
12,test,5,0.0,1-Back,1.0,m,Fri Feb 20 2026 13:42:52 GMT-0600 (Central Standard Time),256015.10000002384,039_o_m_h_a.png,O,m,918,13,,1945.6000000238419,254069.5,,VNB,A,12
13,test,5,0.0,1-Back,1.0,z,Fri Feb 20 2026 13:42:52 GMT-0600 (Central Standard Time),257930.5,165_m_m_h_a.png,O,z,882,14,,1912.7999999821186,256017.70000001788,,VNB,A,13
14,test,5,1.0,1-Back,1.0,m,Fri Feb 20 2026 13:42:52 GMT-0600 (Central Standard Time),259765.20000001788,124_o_f_d_a.png,O,m,813,15,,1832.4000000059605,257932.80000001192,,VNB,A,14
15,test,5,0.0,1-Back,1.0,m,Fri Feb 20 2026 13:42:52 GMT-0600 (Central Standard Time),261264.70000001788,109_y_m_n_a.png,O,m,476,16,,1497.0999999940395,259767.60000002384,,VNB,A,15
16,test,5,0.0,1-Back,1.0,m,Fri Feb 20 2026 13:42:52 GMT-0600 (Central Standard Time),262714.10000002384,071_y_f_h_a.png,O,m,434,17,,1446.0,261268.10000002384,,VNB,A,16
17,test,5,0.0,1-Back,1.0,m,Fri Feb 20 2026 13:42:52 GMT-0600 (Central Standard Time),264329.7000000179,165_m_m_d_a.png,O,m,590,18,,1612.7000000178814,262717.0,,VNB,A,17
0,prac,1,0.0,2-Back,,,Fri Feb 20 2026 13:42:52 GMT-0600 (Central Standard Time),264329.7000000179,139_m_f_n_a.png,O,space,1746,1,,1612.7000000178814,262717.0,,VNB,A,0
0,prac,1,0.0,2-Back,,,Fri Feb 20 2026 13:42:52 GMT-0600 (Central Standard Time),264329.7000000179,124_o_f_h_a.png,O,space,1746,2,,1612.7000000178814,262717.0,,VNB,A,0
1,prac,1,0.0,2-Back,1.0,m,Fri Feb 20 2026 13:42:52 GMT-0600 (Central Standard Time),321662.10000002384,039_o_m_d_a.png,O,m,1201,3,,1992.9000000059605,319669.2000000179,,VNB,A,1
2,prac,1,1.0,2-Back,1.0,z,Fri Feb 20 2026 13:42:52 GMT-0600 (Central Standard Time),324377.60000002384,165_m_m_h_a.png,O,z,1904,4,,2708.5,321669.10000002384,,VNB,A,2
2,prac,1,0.0,2-Back,0.0,m,Fri Feb 20 2026 13:42:52 GMT-0600 (Central Standard Time),326443.3000000119,071_y_f_n_a.png,O,z,1257,5,,2056.4000000059605,324386.90000000596,,VNB,A,3
2,prac,1,1.0,2-Back,0.0,z,Fri Feb 20 2026 13:42:52 GMT-0600 (Central Standard Time),328276.8000000119,039_o_m_h_a.png,O,m,1047,6,,1827.300000011921,326449.5,,VNB,A,4
2,prac,1,1.0,2-Back,0.0,z,Fri Feb 20 2026 13:42:52 GMT-0600 (Central Standard Time),330226.90000000596,109_y_m_n_a.png,O,m,1164,7,,1942.9000000059605,328284.0,,VNB,A,5
3,prac,1,0.0,2-Back,1.0,m,Fri Feb 20 2026 13:42:52 GMT-0600 (Central Standard Time),331958.60000002384,139_m_f_d_a.png,O,m,915,8,,1721.9000000059605,330236.7000000179,,VNB,A,6
4,prac,1,0.0,2-Back,1.0,m,Fri Feb 20 2026 13:42:52 GMT-0600 (Central Standard Time),334242.10000002384,124_o_f_d_a.png,O,m,1458,9,,2273.800000011921,331968.3000000119,,VNB,A,7
4,prac,1,0.0,2-Back,0.0,m,Fri Feb 20 2026 13:42:52 GMT-0600 (Central Standard Time),335974.3000000119,165_m_m_h_a.png,O,z,942,10,,1722.5999999940395,334251.7000000179,,VNB,A,8
4,prac,1,1.0,2-Back,0.0,z,Fri Feb 20 2026 13:42:52 GMT-0600 (Central Standard Time),337357.60000002384,071_y_f_d_a.png,O,m,599,11,,1375.800000011921,335981.8000000119,,VNB,A,9
5,prac,1,0.0,2-Back,1.0,m,Fri Feb 20 2026 13:42:52 GMT-0600 (Central Standard Time),338656.2000000179,039_o_m_n_a.png,O,m,498,12,,1288.0999999940395,337368.10000002384,,VNB,A,10
0,test,1,0.0,2-Back,,,Fri Feb 20 2026 13:42:52 GMT-0600 (Central Standard Time),338656.2000000179,109_y_m_h_a.png,O,space,1366,1,,1288.0999999940395,337368.10000002384,,VNB,A,0
0,test,1,0.0,2-Back,,,Fri Feb 20 2026 13:42:52 GMT-0600 (Central Standard Time),338656.2000000179,124_o_f_n_a.png,O,space,1366,2,,1288.0999999940395,337368.10000002384,,VNB,A,0
1,test,1,0.0,2-Back,1.0,z,Fri Feb 20 2026 13:42:52 GMT-0600 (Central Standard Time),349970.0,039_o_m_h_a.png,O,z,650,3,,1677.3999999761581,348292.60000002384,,VNB,A,1
2,test,1,0.0,2-Back,1.0,m,Fri Feb 20 2026 13:42:52 GMT-0600 (Central Standard Time),351854.7000000179,139_m_f_d_a.png,O,m,854,4,,1878.9000000059605,349975.8000000119,,VNB,A,2
2,test,1,1.0,2-Back,0.0,m,Fri Feb 20 2026 13:42:52 GMT-0600 (Central Standard Time),353851.8000000119,109_y_m_n_a.png,O,z,972,5,,1993.0,351858.8000000119,,VNB,A,3
3,test,1,0.0,2-Back,1.0,z,Fri Feb 20 2026 13:42:52 GMT-0600 (Central Standard Time),356117.40000000596,071_y_f_d_a.png,O,z,1244,6,,2260.2999999821186,353857.10000002384,,VNB,A,4
4,test,1,0.0,2-Back,1.0,m,Fri Feb 20 2026 13:42:52 GMT-0600 (Central Standard Time),357949.3000000119,165_m_m_h_a.png,O,m,804,7,,1827.4000000059605,356121.90000000596,,VNB,A,5
5,test,1,1.0,2-Back,1.0,m,Fri Feb 20 2026 13:42:52 GMT-0600 (Central Standard Time),359902.3000000119,071_y_f_n_a.png,O,m,924,8,,1947.699999988079,357954.60000002384,,VNB,A,6
6,test,1,0.0,2-Back,1.0,z,Fri Feb 20 2026 13:42:52 GMT-0600 (Central Standard Time),361900.0,124_o_f_h_a.png,O,z,974,9,,1994.7999999821186,359905.2000000179,,VNB,A,7
7,test,1,0.0,2-Back,1.0,m,Fri Feb 20 2026 13:42:52 GMT-0600 (Central Standard Time),364164.2000000179,039_o_m_d_a.png,O,m,1235,10,,2259.5999999940395,361904.60000002384,,VNB,A,8
8,test,1,1.0,2-Back,1.0,m,Fri Feb 20 2026 13:42:52 GMT-0600 (Central Standard Time),366846.7000000179,165_m_m_d_a.png,O,m,1661,11,,2676.300000011921,364170.40000000596,,VNB,A,9
9,test,1,0.0,2-Back,1.0,m,Fri Feb 20 2026 13:42:52 GMT-0600 (Central Standard Time),369497.40000000596,139_m_f_n_a.png,O,m,1617,12,,2643.9000000059605,366853.5,,VNB,A,10
10,test,1,0.0,2-Back,1.0,m,Fri Feb 20 2026 13:42:52 GMT-0600 (Central Standard Time),371779.0,071_y_f_h_a.png,O,m,1256,13,,2275.399999976158,369503.60000002384,,VNB,A,11
11,test,1,0.0,2-Back,1.0,z,Fri Feb 20 2026 13:42:52 GMT-0600 (Central Standard Time),373478.5,165_m_m_n_a.png,O,z,680,14,,1692.699999988079,371785.8000000119,,VNB,A,12
12,test,1,0.0,2-Back,1.0,m,Fri Feb 20 2026 13:42:52 GMT-0600 (Central Standard Time),375645.2000000179,109_y_m_d_a.png,O,m,1149,15,,2161.800000011921,373483.40000000596,,VNB,A,13
13,test,1,1.0,2-Back,1.0,m,Fri Feb 20 2026 13:42:52 GMT-0600 (Central Standard Time),378211.10000002384,139_m_f_h_a.png,O,m,1542,16,,2563.0,375648.10000002384,,VNB,A,14
14,test,1,0.0,2-Back,1.0,z,Fri Feb 20 2026 13:42:52 GMT-0600 (Central Standard Time),379959.2000000179,124_o_f_d_a.png,O,z,727,17,,1740.5999999940395,378218.60000002384,,VNB,A,15
15,test,1,0.0,2-Back,1.0,m,Fri Feb 20 2026 13:42:52 GMT-0600 (Central Standard Time),381709.40000000596,039_o_m_n_a.png,O,m,721,18,,1743.199999988079,379966.2000000179,,VNB,A,16
0,test,2,0.0,2-Back,,,Fri Feb 20 2026 13:42:52 GMT-0600 (Central Standard Time),381709.40000000596,165_m_m_h_a.png,O,space,843,1,,1743.199999988079,379966.2000000179,,VNB,A,0
0,test,2,0.0,2-Back,,,Fri Feb 20 2026 13:42:52 GMT-0600 (Central Standard Time),381709.40000000596,071_y_f_n_a.png,O,space,843,2,,1743.199999988079,379966.2000000179,,VNB,A,0
1,test,2,1.0,2-Back,1.0,z,Fri Feb 20 2026 13:42:52 GMT-0600 (Central Standard Time),389258.0,124_o_f_h_a.png,O,z,583,3,,1609.5999999940395,387648.40000000596,,VNB,A,1
2,test,2,0.0,2-Back,1.0,m,Fri Feb 20 2026 13:42:52 GMT-0600 (Central Standard Time),391422.60000002384,039_o_m_d_a.png,O,m,1145,4,,2156.9000000059605,389265.7000000179,,VNB,A,2
2,test,2,0.0,2-Back,0.0,m,Fri Feb 20 2026 13:42:52 GMT-0600 (Central Standard Time),394454.7000000179,139_m_f_d_a.png,O,None,2016,5,,3025.0,391429.7000000179,,VNB,A,3
3,test,2,0.0,2-Back,1.0,m,Fri Feb 20 2026 13:42:52 GMT-0600 (Central Standard Time),396520.2000000179,109_y_m_h_a.png,O,m,1041,6,,2058.800000011921,394461.40000000596,,VNB,A,4
4,test,2,0.0,2-Back,1.0,m,Fri Feb 20 2026 13:42:52 GMT-0600 (Central Standard Time),398353.7000000179,124_o_f_n_a.png,O,m,806,7,,1826.4000000059605,396527.3000000119,,VNB,A,5
5,test,2,1.0,2-Back,1.0,z,Fri Feb 20 2026 13:42:52 GMT-0600 (Central Standard Time),399886.90000000596,039_o_m_h_a.png,O,z,504,8,,1528.7999999821186,398358.10000002384,,VNB,A,6
5,test,2,0.0,2-Back,0.0,m,Fri Feb 20 2026 13:42:52 GMT-0600 (Central Standard Time),402086.2000000179,071_y_f_d_a.png,O,z,1170,9,,2191.7000000178814,399894.5,,VNB,A,7
6,test,2,0.0,2-Back,1.0,m,Fri Feb 20 2026 13:42:52 GMT-0600 (Central Standard Time),404136.0,109_y_m_d_a.png,O,m,1019,10,,2045.199999988079,402090.8000000119,,VNB,A,8
7,test,2,0.0,2-Back,1.0,m,Fri Feb 20 2026 13:42:52 GMT-0600 (Central Standard Time),406351.60000002384,165_m_m_n_a.png,O,m,1194,11,,2208.2000000178814,404143.40000000596,,VNB,A,9
8,test,2,0.0,2-Back,1.0,m,Fri Feb 20 2026 13:42:52 GMT-0600 (Central Standard Time),408901.10000002384,139_m_f_h_a.png,O,m,1522,12,,2544.9000000059605,406356.2000000179,,VNB,A,10
8,test,2,1.0,2-Back,0.0,z,Fri Feb 20 2026 13:42:52 GMT-0600 (Central Standard Time),411532.40000000596,039_o_m_n_a.png,O,m,1613,13,,2622.199999988079,408910.2000000179,,VNB,A,11
9,test,2,0.0,2-Back,1.0,m,Fri Feb 20 2026 13:42:52 GMT-0600 (Central Standard Time),414165.7000000179,124_o_f_d_a.png,O,m,1613,14,,2626.7000000178814,411539.0,,VNB,A,12
10,test,2,0.0,2-Back,1.0,m,Fri Feb 20 2026 13:42:52 GMT-0600 (Central Standard Time),416066.10000002384,071_y_f_h_a.png,O,m,868,15,,1893.5,414172.60000002384,,VNB,A,13
11,test,2,0.0,2-Back,1.0,z,Fri Feb 20 2026 13:42:52 GMT-0600 (Central Standard Time),417714.90000000596,165_m_m_d_a.png,O,z,624,16,,1641.4000000059605,416073.5,,VNB,A,14
12,test,2,0.0,2-Back,1.0,m,Fri Feb 20 2026 13:42:52 GMT-0600 (Central Standard Time),419333.40000000596,109_y_m_n_a.png,O,m,600,17,,1614.199999988079,417719.2000000179,,VNB,A,15
13,test,2,1.0,2-Back,1.0,m,Fri Feb 20 2026 13:42:52 GMT-0600 (Central Standard Time),420915.10000002384,139_m_f_n_a.png,O,m,558,18,,1576.0,419339.10000002384,,VNB,A,16
0,test,3,1.0,2-Back,,,Fri Feb 20 2026 13:42:52 GMT-0600 (Central Standard Time),420915.10000002384,039_o_m_n_a.png,O,space,1093,1,,1576.0,419339.10000002384,,VNB,A,0
0,test,3,1.0,2-Back,,,Fri Feb 20 2026 13:42:52 GMT-0600 (Central Standard Time),420915.10000002384,124_o_f_d_a.png,O,space,1093,2,,1576.0,419339.10000002384,,VNB,A,0
1,test,3,0.0,2-Back,1.0,m,Fri Feb 20 2026 13:42:52 GMT-0600 (Central Standard Time),428727.60000002384,071_y_f_h_a.png,O,m,635,3,,1657.300000011921,427070.3000000119,,VNB,A,1
2,test,3,0.0,2-Back,1.0,z,Fri Feb 20 2026 13:42:52 GMT-0600 (Central Standard Time),430410.5,139_m_f_d_a.png,O,z,649,4,,1675.699999988079,428734.8000000119,,VNB,A,2
3,test,3,1.0,2-Back,1.0,m,Fri Feb 20 2026 13:42:52 GMT-0600 (Central Standard Time),432326.10000002384,109_y_m_n_a.png,O,m,885,5,,1909.6000000238419,430416.5,,VNB,A,3
3,test,3,0.0,2-Back,0.0,m,Fri Feb 20 2026 13:42:52 GMT-0600 (Central Standard Time),434525.3000000119,039_o_m_h_a.png,O,z,1170,6,,2194.9000000059605,432330.40000000596,,VNB,A,4
4,test,3,0.0,2-Back,1.0,z,Fri Feb 20 2026 13:42:52 GMT-0600 (Central Standard Time),436776.3000000119,071_y_f_n_a.png,O,z,1219,7,,2244.4000000059605,434531.90000000596,,VNB,A,5
5,test,3,1.0,2-Back,1.0,m,Fri Feb 20 2026 13:42:52 GMT-0600 (Central Standard Time),438624.8000000119,165_m_m_d_a.png,O,m,825,8,,1841.4000000059605,436783.40000000596,,VNB,A,6
5,test,3,0.0,2-Back,0.0,m,Fri Feb 20 2026 13:42:52 GMT-0600 (Central Standard Time),441659.40000000596,109_y_m_d_a.png,O,None,2018,9,,3027.5999999940395,438631.8000000119,,VNB,A,7
6,test,3,0.0,2-Back,1.0,m,Fri Feb 20 2026 13:42:52 GMT-0600 (Central Standard Time),443274.10000002384,124_o_f_h_a.png,O,m,600,10,,1608.300000011921,441665.8000000119,,VNB,A,8
7,test,3,1.0,2-Back,1.0,m,Fri Feb 20 2026 13:42:52 GMT-0600 (Central Standard Time),445374.10000002384,139_m_f_n_a.png,O,m,1070,11,,2095.5,443278.60000002384,,VNB,A,9
7,test,3,1.0,2-Back,0.0,z,Fri Feb 20 2026 13:42:52 GMT-0600 (Central Standard Time),447521.5,165_m_m_h_a.png,O,m,1117,12,,2141.0999999940395,445380.40000000596,,VNB,A,10
8,test,3,0.0,2-Back,1.0,m,Fri Feb 20 2026 13:42:52 GMT-0600 (Central Standard Time),449871.0,071_y_f_d_a.png,O,m,1327,13,,2343.899999976158,447527.10000002384,,VNB,A,11
9,test,3,0.0,2-Back,1.0,m,Fri Feb 20 2026 13:42:52 GMT-0600 (Central Standard Time),451870.2000000179,124_o_f_n_a.png,O,m,969,14,,1993.2000000178814,449877.0,,VNB,A,12
9,test,3,0.0,2-Back,0.0,z,Fri Feb 20 2026 13:42:52 GMT-0600 (Central Standard Time),454653.40000000596,039_o_m_d_a.png,O,m,1749,15,,2777.4000000059605,451876.0,,VNB,A,13
9,test,3,1.0,2-Back,0.0,m,Fri Feb 20 2026 13:42:52 GMT-0600 (Central Standard Time),456501.3000000119,139_m_f_h_a.png,O,z,829,16,,1841.699999988079,454659.60000002384,,VNB,A,14
10,test,3,0.0,2-Back,1.0,m,Fri Feb 20 2026 13:42:52 GMT-0600 (Central Standard Time),458984.8000000119,165_m_m_n_a.png,O,m,1451,17,,2477.800000011921,456507.0,,VNB,A,15
11,test,3,0.0,2-Back,1.0,z,Fri Feb 20 2026 13:42:52 GMT-0600 (Central Standard Time),460652.60000002384,109_y_m_h_a.png,O,z,633,18,,1661.4000000059605,458991.2000000179,,VNB,A,16
0,test,4,0.0,2-Back,,,Fri Feb 20 2026 13:42:52 GMT-0600 (Central Standard Time),460652.60000002384,139_m_f_n_a.png,O,space,822,1,,1661.4000000059605,458991.2000000179,,VNB,A,0
0,test,4,0.0,2-Back,,,Fri Feb 20 2026 13:42:52 GMT-0600 (Central Standard Time),460652.60000002384,039_o_m_n_a.png,O,space,822,2,,1661.4000000059605,458991.2000000179,,VNB,A,0
1,test,4,1.0,2-Back,1.0,m,Fri Feb 20 2026 13:42:52 GMT-0600 (Central Standard Time),468265.40000000596,109_y_m_h_a.png,O,m,695,3,,1708.199999988079,466557.2000000179,,VNB,A,1
2,test,4,1.0,2-Back,1.0,m,Fri Feb 20 2026 13:42:52 GMT-0600 (Central Standard Time),470131.2000000179,124_o_f_d_a.png,O,m,848,4,,1860.800000011921,468270.40000000596,,VNB,A,2
3,test,4,0.0,2-Back,1.0,z,Fri Feb 20 2026 13:42:52 GMT-0600 (Central Standard Time),472165.10000002384,039_o_m_h_a.png,O,z,1014,5,,2027.300000011921,470137.8000000119,,VNB,A,3
4,test,4,0.0,2-Back,1.0,m,Fri Feb 20 2026 13:42:52 GMT-0600 (Central Standard Time),474046.7000000179,165_m_m_n_a.png,O,m,862,6,,1873.5,472173.2000000179,,VNB,A,4
5,test,4,0.0,2-Back,1.0,m,Fri Feb 20 2026 13:42:52 GMT-0600 (Central Standard Time),476461.7000000179,139_m_f_d_a.png,O,m,1386,7,,2412.0,474049.7000000179,,VNB,A,5
5,test,4,0.0,2-Back,0.0,z,Fri Feb 20 2026 13:42:52 GMT-0600 (Central Standard Time),479378.3000000119,071_y_f_n_a.png,O,m,1883,8,,2913.199999988079,476465.10000002384,,VNB,A,6
6,test,4,1.0,2-Back,1.0,m,Fri Feb 20 2026 13:42:52 GMT-0600 (Central Standard Time),481994.10000002384,124_o_f_h_a.png,O,m,1590,9,,2610.300000011921,479383.8000000119,,VNB,A,7
7,test,4,0.0,2-Back,1.0,m,Fri Feb 20 2026 13:42:52 GMT-0600 (Central Standard Time),484693.5,165_m_m_h_a.png,O,m,1671,10,,2693.5999999940395,481999.90000000596,,VNB,A,8
8,test,4,0.0,2-Back,1.0,m,Fri Feb 20 2026 13:42:52 GMT-0600 (Central Standard Time),487210.10000002384,071_y_f_d_a.png,O,m,1500,11,,2509.9000000059605,484700.2000000179,,VNB,A,9
9,test,4,0.0,2-Back,1.0,m,Fri Feb 20 2026 13:42:52 GMT-0600 (Central Standard Time),489742.40000000596,109_y_m_n_a.png,O,m,1513,12,,2525.0,487217.40000000596,,VNB,A,10
9,test,4,0.0,2-Back,0.0,z,Fri Feb 20 2026 13:42:52 GMT-0600 (Central Standard Time),492524.7000000179,039_o_m_d_a.png,O,m,1757,13,,2776.9000000059605,489747.8000000119,,VNB,A,11
10,test,4,1.0,2-Back,1.0,m,Fri Feb 20 2026 13:42:52 GMT-0600 (Central Standard Time),494906.3000000119,139_m_f_h_a.png,O,m,1356,14,,2376.0,492530.3000000119,,VNB,A,12
10,test,4,1.0,2-Back,0.0,m,Fri Feb 20 2026 13:42:52 GMT-0600 (Central Standard Time),497273.10000002384,071_y_f_h_a.png,O,z,1343,15,,2363.100000023842,494910.0,,VNB,A,13
11,test,4,0.0,2-Back,1.0,m,Fri Feb 20 2026 13:42:52 GMT-0600 (Central Standard Time),499521.0,124_o_f_n_a.png,O,m,1223,16,,2241.0,497280.0,,VNB,A,14
12,test,4,0.0,2-Back,1.0,m,Fri Feb 20 2026 13:42:52 GMT-0600 (Central Standard Time),501972.7000000179,109_y_m_d_a.png,O,m,1432,17,,2446.0,499526.7000000179,,VNB,A,15
13,test,4,1.0,2-Back,1.0,m,Fri Feb 20 2026 13:42:52 GMT-0600 (Central Standard Time),504104.2000000179,165_m_m_d_a.png,O,m,1110,18,,2125.5,501978.7000000179,,VNB,A,16
0,test,5,1.0,2-Back,,,Fri Feb 20 2026 13:42:52 GMT-0600 (Central Standard Time),504104.2000000179,071_y_f_d_a.png,O,space,824,1,,2125.5,501978.7000000179,,VNB,A,0
0,test,5,1.0,2-Back,,,Fri Feb 20 2026 13:42:52 GMT-0600 (Central Standard Time),504104.2000000179,124_o_f_h_a.png,O,space,824,2,,2125.5,501978.7000000179,,VNB,A,0
1,test,5,1.0,2-Back,1.0,z,Fri Feb 20 2026 13:42:52 GMT-0600 (Central Standard Time),511717.90000000596,039_o_m_d_a.png,O,z,678,3,,1687.7999999821186,510030.10000002384,,VNB,A,1
1,test,5,1.0,2-Back,0.0,m,Fri Feb 20 2026 13:42:52 GMT-0600 (Central Standard Time),514067.3000000119,139_m_f_n_a.png,O,z,1323,4,,2346.9000000059605,511720.40000000596,,VNB,A,2
2,test,5,0.0,2-Back,1.0,m,Fri Feb 20 2026 13:42:52 GMT-0600 (Central Standard Time),516749.90000000596,165_m_m_h_a.png,O,m,1662,5,,2678.699999988079,514071.2000000179,,VNB,A,3
3,test,5,0.0,2-Back,1.0,z,Fri Feb 20 2026 13:42:52 GMT-0600 (Central Standard Time),518851.40000000596,071_y_f_n_a.png,O,z,1085,6,,2094.7999999821186,516756.60000002384,,VNB,A,4
4,test,5,0.0,2-Back,1.0,m,Fri Feb 20 2026 13:42:52 GMT-0600 (Central Standard Time),521348.10000002384,124_o_f_d_a.png,O,m,1479,7,,2489.7000000178814,518858.40000000596,,VNB,A,5
5,test,5,0.0,2-Back,1.0,m,Fri Feb 20 2026 13:42:52 GMT-0600 (Central Standard Time),523099.5,039_o_m_h_a.png,O,m,734,8,,1747.699999988079,521351.8000000119,,VNB,A,6
5,test,5,1.0,2-Back,0.0,z,Fri Feb 20 2026 13:42:52 GMT-0600 (Central Standard Time),525714.0,139_m_f_d_a.png,O,m,1583,9,,2608.0,523106.0,,VNB,A,7
6,test,5,0.0,2-Back,1.0,m,Fri Feb 20 2026 13:42:52 GMT-0600 (Central Standard Time),527481.3000000119,109_y_m_n_a.png,O,m,736,10,,1761.0,525720.3000000119,,VNB,A,8
7,test,5,0.0,2-Back,1.0,m,Fri Feb 20 2026 13:42:52 GMT-0600 (Central Standard Time),530062.6000000238,165_m_m_n_a.png,O,m,1560,11,,2575.0,527487.6000000238,,VNB,A,9
8,test,5,0.0,2-Back,1.0,m,Fri Feb 20 2026 13:42:52 GMT-0600 (Central Standard Time),532261.2000000179,071_y_f_h_a.png,O,m,1172,12,,2192.300000011921,530068.900000006,,VNB,A,10
9,test,5,0.0,2-Back,1.0,m,Fri Feb 20 2026 13:42:52 GMT-0600 (Central Standard Time),534327.400000006,109_y_m_d_a.png,O,m,1044,13,,2060.0999999940395,532267.3000000119,,VNB,A,11
10,test,5,1.0,2-Back,1.0,z,Fri Feb 20 2026 13:42:52 GMT-0600 (Central Standard Time),536375.3000000119,139_m_f_h_a.png,O,z,1025,14,,2044.0,534331.3000000119,,VNB,A,12
11,test,5,0.0,2-Back,1.0,m,Fri Feb 20 2026 13:42:52 GMT-0600 (Central Standard Time),538209.1000000238,039_o_m_n_a.png,O,m,800,15,,1825.800000011921,536383.3000000119,,VNB,A,13
12,test,5,0.0,2-Back,1.0,m,Fri Feb 20 2026 13:42:52 GMT-0600 (Central Standard Time),540225.8000000119,165_m_m_d_a.png,O,m,984,16,,2010.5999999940395,538215.2000000179,,VNB,A,14
13,test,5,0.0,2-Back,1.0,z,Fri Feb 20 2026 13:42:52 GMT-0600 (Central Standard Time),542474.900000006,124_o_f_n_a.png,O,z,1223,17,,2242.5999999940395,540232.3000000119,,VNB,A,15
14,test,5,1.0,2-Back,1.0,m,Fri Feb 20 2026 13:42:52 GMT-0600 (Central Standard Time),544690.7000000179,109_y_m_h_a.png,O,m,1197,18,,2208.0,542482.7000000179,,VNB,A,16
