acc_sum,block,block_c,condition,correct,correct_response,datetime,endtime,flanker,jitter,project,response,response_test_buffer_response,response_test_target_response,response_time,response_time_test_buffer_response,response_time_test_target_response,row_sel,session_number,start_end,starttime,subject_id,target,task,task_vers,time_test_buffer,time_test_buffer_response,time_test_constants,time_test_flanker,time_test_jitter,time_test_logger,time_test_target,time_test_target_response,time_test_variables,trial
1,prac,1,inc,1,m,Fri May 09 2025 13:43:04 GMT-0500 (Central Daylight Time),88911.3999999999,hate,1100,I,m,,,826,,,4,2,3228.0,85683.3999999999,8030,film,AF,A,,,,,,,,,,1
2,prac,1,inc,1,m,Fri May 09 2025 13:43:04 GMT-0500 (Central Daylight Time),91893.8999999999,elated,900,I,m,,,778,,,6,2,2977.2999999998137,88916.6000000001,8030,napkin,AF,A,,,,,,,,,,2
3,prac,1,con,1,z,Fri May 09 2025 13:43:04 GMT-0500 (Central Daylight Time),94659.5,elated,800,I,z,,,663,,,9,2,2760.0,91899.5,8030,elated,AF,A,,,,,,,,,,3
4,prac,1,inc,1,m,Fri May 09 2025 13:43:04 GMT-0500 (Central Daylight Time),97858.70000000019,brutal,1100,I,m,,,788,,,8,2,3194.5,94664.20000000019,8030,window,AF,A,,,,,,,,,,4
5,prac,1,inc,1,z,Fri May 09 2025 13:43:04 GMT-0500 (Central Daylight Time),100974.20000000019,rock,900,I,z,,,909,,,10,2,3110.8000000002794,97863.3999999999,8030,kind,AF,A,,,,,,,,,,5
6,prac,1,con,1,m,Fri May 09 2025 13:43:04 GMT-0500 (Central Daylight Time),103740.1000000001,step,800,I,m,,,662,,,1,2,2761.100000000093,100979.0,8030,step,AF,A,,,,,,,,,,6
7,prac,1,inc,1,z,Fri May 09 2025 13:43:04 GMT-0500 (Central Daylight Time),106822.30000000028,napkin,1100,I,z,,,669,,,12,2,3077.7000000001863,103744.6000000001,8030,friend,AF,A,,,,,,,,,,7
8,prac,1,inc,1,z,Fri May 09 2025 13:43:04 GMT-0500 (Central Daylight Time),109771.70000000019,film,900,I,z,,,745,,,14,2,2945.100000000093,106826.6000000001,8030,hate,AF,A,,,,,,,,,,8
9,prac,1,con,1,z,Fri May 09 2025 13:43:04 GMT-0500 (Central Daylight Time),112888.30000000028,brutal,800,I,z,,,1017,,,13,2,3112.5,109775.80000000028,8030,brutal,AF,A,,,,,,,,,,9
10,prac,1,inc,1,z,Fri May 09 2025 13:43:04 GMT-0500 (Central Daylight Time),116186.0,window,1100,I,z,,,889,,,16,2,3293.2999999998137,112892.70000000019,8030,temper,AF,A,,,,,,,,,,10
11,prac,1,con,1,m,Fri May 09 2025 13:43:04 GMT-0500 (Central Daylight Time),119251.8999999999,remote,1000,I,m,,,635,,,7,2,3061.0,116190.8999999999,8030,remote,AF,A,,,,,,,,,,11
12,prac,1,con,1,m,Fri May 09 2025 13:43:04 GMT-0500 (Central Daylight Time),121967.70000000019,jacket,800,I,m,,,600,,,5,2,2711.399999999907,119256.30000000028,8030,jacket,AF,A,,,,,,,,,,12
13,prac,1,con,1,z,Fri May 09 2025 13:43:04 GMT-0500 (Central Daylight Time),124850.0,rage,1000,I,z,,,572,,,15,2,2877.7999999998137,121972.20000000019,8030,rage,AF,A,,,,,,,,,,13
14,prac,1,con,1,z,Fri May 09 2025 13:43:04 GMT-0500 (Central Daylight Time),127815.70000000019,love,1000,I,z,,,658,,,11,2,2961.7000000001863,124854.0,8030,love,AF,A,,,,,,,,,,14
15,prac,1,inc,1,m,Fri May 09 2025 13:43:04 GMT-0500 (Central Daylight Time),130914.8999999999,kind,900,I,m,,,889,,,2,2,3094.7999999998137,127820.1000000001,8030,rock,AF,A,,,,,,,,,,15
16,prac,1,con,1,m,Fri May 09 2025 13:43:04 GMT-0500 (Central Daylight Time),134064.0,bell,1000,I,m,,,842,,,3,2,3144.899999999907,130919.1000000001,8030,bell,AF,A,,,,,,,,,,16
1,test,1,con,1,m,Fri May 09 2025 13:43:04 GMT-0500 (Central Daylight Time),147709.3999999999,rock,900,I,m,m,None,555,355.0,200.0,74,2,1996.1999999997206,145713.2000000002,8030,rock,AF,A,145420,145420,143790,144704,143791,145786,145220,145220,145786,1
2,test,1,inc,1,m,Fri May 09 2025 13:43:04 GMT-0500 (Central Daylight Time),150058.80000000028,hate,1100,I,m,m,None,706,507.0,199.0,96,2,2344.7000000001863,147714.1000000001,8030,film,AF,A,147620,147620,145791,146903,145791,148136,147420,147420,148136,2
3,test,1,con,1,m,Fri May 09 2025 13:43:04 GMT-0500 (Central Daylight Time),152207.8999999999,napkin,1100,I,m,m,None,510,310.0,200.0,108,2,2144.899999999907,150063.0,8030,napkin,AF,A,149969,149969,148140,149252,148140,150285,149769,149769,150285,3
4,test,1,inc,1,z,Fri May 09 2025 13:43:04 GMT-0500 (Central Daylight Time),154490.3999999999,window,1100,I,z,z,None,649,449.0,200.0,40,2,2278.399999999907,152212.0,8030,brutal,AF,A,152118,152118,150289,151402,150289,152567,151918,151918,152567,4
5,test,1,con,1,z,Fri May 09 2025 13:43:04 GMT-0500 (Central Daylight Time),156706.3999999999,kind,900,I,z,z,None,781,582.0,199.0,10,2,2212.0,154494.3999999999,8030,kind,AF,A,154201,154201,152571,153484,152572,154783,154001,154001,154783,5
6,test,1,inc,1,z,Fri May 09 2025 13:43:04 GMT-0500 (Central Daylight Time),159039.2000000002,film,1100,I,z,z,None,693,494.0,199.0,48,2,2329.0,156710.2000000002,8030,hate,AF,A,156617,156617,154787,155900,154788,157116,156417,156417,157116,6
7,test,1,inc,1,z,Fri May 09 2025 13:43:04 GMT-0500 (Central Daylight Time),161272.0,napkin,900,I,z,z,None,786,586.0,200.0,30,2,2228.2999999998137,159043.7000000002,8030,friend,AF,A,158749,158749,157121,158033,157121,159349,158549,158549,159349,7
8,test,1,inc,1,z,Fri May 09 2025 13:43:04 GMT-0500 (Central Daylight Time),163604.3999999999,window,1100,I,z,z,None,688,489.0,199.0,64,2,2327.7999999998137,161276.6000000001,8030,temper,AF,A,161182,161182,159354,160466,159354,161682,160983,160983,161681,8
9,test,1,con,1,z,Fri May 09 2025 13:43:04 GMT-0500 (Central Daylight Time),165886.80000000028,elated,1100,I,z,z,None,644,314.0,330.0,4,2,2278.4000000003725,163608.3999999999,8030,elated,AF,A,163645,163645,161685,162798,161686,163964,163315,163315,163964,9
10,test,1,inc,1,m,Fri May 09 2025 13:43:04 GMT-0500 (Central Daylight Time),168186.3999999999,friend,1100,I,m,m,None,650,450.0,200.0,112,2,2295.5999999996275,165890.80000000028,8030,napkin,AF,A,165797,165797,163968,165081,163968,166263,165597,165597,166263,10
11,test,1,con,1,m,Fri May 09 2025 13:43:04 GMT-0500 (Central Daylight Time),170385.7000000002,film,1100,I,m,m,None,557,342.0,215.0,92,2,2194.899999999907,168190.80000000028,8030,film,AF,A,168113,168113,166268,167380,166268,168463,167898,167898,168463,11
12,test,1,inc,1,m,Fri May 09 2025 13:43:04 GMT-0500 (Central Daylight Time),172418.5,rage,800,I,m,m,None,699,499.0,200.0,77,2,2028.6000000000931,170389.8999999999,8030,rock,AF,A,169996,169996,168467,169279,168467,170496,169796,169796,170496,12
13,test,1,inc,1,m,Fri May 09 2025 13:43:04 GMT-0500 (Central Daylight Time),174534.30000000028,rage,800,I,m,m,None,769,570.0,199.0,69,2,2111.8000000002794,172422.5,8030,step,AF,A,172029,172029,170499,171312,170500,172611,171829,171829,172611,13
14,test,1,inc,1,m,Fri May 09 2025 13:43:04 GMT-0500 (Central Daylight Time),176800.30000000028,brutal,900,I,m,m,None,825,626.0,199.0,118,2,2261.9000000003725,174538.3999999999,8030,remote,AF,A,174245,174245,172615,173528,172616,174877,174045,174045,174877,14
15,test,1,con,1,m,Fri May 09 2025 13:43:04 GMT-0500 (Central Daylight Time),179017.30000000028,jacket,1100,I,m,m,None,568,369.0,199.0,100,2,2212.8000000002794,176804.5,8030,jacket,AF,A,176710,176710,174882,175994,174882,177094,176511,176511,177094,15
16,test,1,con,1,m,Fri May 09 2025 13:43:04 GMT-0500 (Central Daylight Time),181265.6000000001,window,1100,I,m,m,None,607,408.0,199.0,124,2,2244.2000000001863,179021.3999999999,8030,window,AF,A,178927,178927,177098,178210,177099,179343,178727,178727,179343,16
17,test,1,inc,1,z,Fri May 09 2025 13:43:04 GMT-0500 (Central Daylight Time),183215.1000000001,step,800,I,z,z,None,603,403.0,200.0,13,2,1945.0,181270.1000000001,8030,kind,AF,A,180876,180876,179347,180160,179348,181292,180676,180676,181292,17
18,test,1,inc,1,m,Fri May 09 2025 13:43:04 GMT-0500 (Central Daylight Time),185331.30000000028,elated,800,I,m,m,None,773,574.0,199.0,117,2,2112.0,183219.30000000028,8030,remote,AF,A,182825,182825,181296,182109,181297,183408,182626,182626,183408,18
19,test,1,inc,1,m,Fri May 09 2025 13:43:04 GMT-0500 (Central Daylight Time),187596.80000000028,friend,1100,I,m,m,None,630,430.0,200.0,104,2,2261.8000000002794,185335.0,8030,jacket,AF,A,185241,185241,183412,184525,183412,185674,185041,185041,185674,19
20,test,1,con,1,m,Fri May 09 2025 13:43:04 GMT-0500 (Central Daylight Time),189979.6000000001,film,1000,I,m,m,None,714,508.0,206.0,91,2,2379.2000000001863,187600.3999999999,8030,film,AF,A,187540,187540,185677,186691,185678,188057,187334,187334,188057,20
21,test,1,inc,1,m,Fri May 09 2025 13:43:04 GMT-0500 (Central Daylight Time),192396.6000000001,love,1000,I,m,m,None,881,682.0,199.0,87,2,2413.0,189983.6000000001,8030,bell,AF,A,189790,189790,188061,189073,188061,190474,189590,189590,190473,21
22,test,1,inc,1,m,Fri May 09 2025 13:43:04 GMT-0500 (Central Daylight Time),194411.7000000002,elated,800,I,m,m,None,672,473.0,199.0,125,2,2009.2000000001863,192402.5,8030,window,AF,A,192005,192006,190480,191289,190480,192489,191806,191806,192489,22
23,test,1,inc,1,m,Fri May 09 2025 13:43:04 GMT-0500 (Central Daylight Time),196794.30000000028,temper,1000,I,m,m,None,834,634.0,200.0,103,2,2378.2000000001863,194416.1000000001,8030,jacket,AF,A,194221,194221,192493,193505,192494,194871,194021,194021,194871,23
24,test,1,con,1,z,Fri May 09 2025 13:43:04 GMT-0500 (Central Daylight Time),199076.7000000002,brutal,900,I,z,z,None,847,647.0,200.0,34,2,2278.3000000002794,196798.3999999999,8030,brutal,AF,A,196504,196504,194875,195787,194876,197154,196304,196304,197154,24
25,test,1,con,1,m,Fri May 09 2025 13:43:04 GMT-0500 (Central Daylight Time),201292.7000000002,step,1000,I,m,m,None,672,471.0,201.0,67,2,2212.0,199080.7000000002,8030,step,AF,A,198888,198888,197158,198170,197158,199370,198687,198687,199370,25
26,test,1,con,1,m,Fri May 09 2025 13:43:04 GMT-0500 (Central Daylight Time),203475.1000000001,remote,900,I,m,m,None,748,548.0,200.0,114,2,2178.2000000001863,201296.8999999999,8030,remote,AF,A,201003,201003,199374,200287,199374,201552,200803,200803,201552,26
27,test,1,con,1,m,Fri May 09 2025 13:43:04 GMT-0500 (Central Daylight Time),205507.8999999999,remote,800,I,m,m,None,697,498.0,199.0,113,2,2028.7999999998137,203479.1000000001,8030,remote,AF,A,203085,203085,201556,202369,201556,203585,202886,202886,203585,27
28,test,1,con,1,m,Fri May 09 2025 13:43:04 GMT-0500 (Central Daylight Time),207524.1000000001,window,900,I,m,m,None,573,373.0,200.0,122,2,2012.2999999998137,205511.80000000028,8030,window,AF,A,205218,205218,203589,204502,203589,205601,205018,205018,205601,28
29,test,1,con,1,z,Fri May 09 2025 13:43:04 GMT-0500 (Central Daylight Time),209856.7000000002,brutal,1000,I,z,z,None,784,585.0,199.0,35,2,2328.899999999907,207527.80000000028,8030,brutal,AF,A,207334,207334,205605,206618,205605,207934,207135,207135,207934,29
30,test,1,inc,1,z,Fri May 09 2025 13:43:04 GMT-0500 (Central Daylight Time),212156.2000000002,remote,1000,I,z,z,None,755,556.0,199.0,39,2,2295.5,209860.7000000002,8030,brutal,AF,A,209667,209667,207938,208951,207938,210233,209467,209467,210233,30
31,test,1,con,1,m,Fri May 09 2025 13:43:04 GMT-0500 (Central Daylight Time),214288.6000000001,film,800,I,m,m,None,785,585.0,200.0,89,2,2128.7000000001863,212159.8999999999,8030,film,AF,A,211766,211766,210237,211050,210237,212366,211566,211566,212366,31
32,test,1,inc,1,m,Fri May 09 2025 13:43:04 GMT-0500 (Central Daylight Time),216604.3999999999,temper,1000,I,m,m,None,780,580.0,200.0,119,2,2311.5999999996275,214292.80000000028,8030,remote,AF,A,214099,214099,212370,213384,212370,214681,213899,213899,214681,32
33,test,1,inc,1,z,Fri May 09 2025 13:43:04 GMT-0500 (Central Daylight Time),218604.0,jacket,800,I,z,z,None,655,456.0,199.0,37,2,1995.6000000000931,216608.3999999999,8030,brutal,AF,A,216215,216215,214685,215498,214686,216681,216015,216015,216681,33
34,test,1,con,1,m,Fri May 09 2025 13:43:04 GMT-0500 (Central Daylight Time),220770.3999999999,bell,1100,I,m,m,None,533,333.0,200.0,84,2,2162.5,218607.8999999999,8030,bell,AF,A,218514,218514,216685,217798,216685,218847,218314,218314,218847,34
34,test,1,inc,0,z,Fri May 09 2025 13:43:04 GMT-0500 (Central Daylight Time),223219.2000000002,jacket,800,I,m,m,None,1107,907.0,200.0,5,2,2445.2000000001863,220774.0,8030,elated,AF,A,220380,220380,218851,219664,218851,221296,220180,220180,221296,35
35,test,1,con,1,z,Fri May 09 2025 13:43:04 GMT-0500 (Central Daylight Time),225285.2000000002,hate,800,I,z,z,None,728,513.0,215.0,41,2,2062.2000000001863,223223.0,8030,hate,AF,A,222846,222846,221300,222113,221300,223362,222631,222631,223362,36
36,test,1,con,1,z,Fri May 09 2025 13:43:04 GMT-0500 (Central Daylight Time),227351.30000000028,hate,900,I,z,z,None,627,428.0,199.0,42,2,2062.3000000002794,225289.0,8030,hate,AF,A,224995,224995,223366,224279,223366,225428,224795,224796,225428,37
37,test,1,inc,1,m,Fri May 09 2025 13:43:04 GMT-0500 (Central Daylight Time),229517.30000000028,brutal,900,I,m,m,None,728,513.0,215.0,102,2,2161.600000000093,227355.7000000002,8030,jacket,AF,A,227078,227078,225433,226345,225433,227594,226863,226863,227594,38
38,test,1,inc,1,m,Fri May 09 2025 13:43:04 GMT-0500 (Central Daylight Time),231833.5,hate,1100,I,m,m,None,675,476.0,199.0,88,2,2312.2999999998137,229521.2000000002,8030,bell,AF,A,229427,229427,227598,228711,227599,229911,229227,229228,229911,39
39,test,1,con,1,z,Fri May 09 2025 13:43:04 GMT-0500 (Central Daylight Time),234098.80000000028,kind,1000,I,z,z,None,731,532.0,199.0,11,2,2261.2000000001863,231837.6000000001,8030,kind,AF,A,231643,231643,229915,230927,229915,232176,231444,231444,232176,40
40,test,1,con,1,z,Fri May 09 2025 13:43:04 GMT-0500 (Central Daylight Time),236434.1000000001,friend,1000,I,z,z,None,786,586.0,200.0,27,2,2331.899999999907,234102.2000000002,8030,friend,AF,A,233909,233909,232179,233193,232179,234511,233709,233709,234511,41
41,test,1,con,1,m,Fri May 09 2025 13:43:04 GMT-0500 (Central Daylight Time),238597.80000000028,rock,1000,I,m,m,None,629,429.0,200.0,75,2,2159.4000000003725,236438.3999999999,8030,rock,AF,A,236242,236242,234515,235525,234516,236675,236042,236042,236675,42
42,test,1,con,1,m,Fri May 09 2025 13:43:04 GMT-0500 (Central Daylight Time),240680.30000000028,bell,800,I,m,m,None,742,543.0,199.0,81,2,2078.5,238601.80000000028,8030,bell,AF,A,238208,238208,236679,237491,236679,238757,238008,238008,238757,43
43,test,1,inc,1,m,Fri May 09 2025 13:43:04 GMT-0500 (Central Daylight Time),242896.30000000028,kind,900,I,m,m,None,775,576.0,199.0,70,2,2212.4000000003725,240683.8999999999,8030,step,AF,A,240391,240391,238761,239674,238761,240973,240191,240191,240973,44
44,test,1,inc,1,z,Fri May 09 2025 13:43:04 GMT-0500 (Central Daylight Time),244928.8999999999,jacket,800,I,z,z,None,684,485.0,199.0,29,2,2028.7999999998137,242900.1000000001,8030,friend,AF,A,242506,242506,240977,241790,240977,243006,242307,242307,243006,45
45,test,1,inc,1,m,Fri May 09 2025 13:43:04 GMT-0500 (Central Daylight Time),247161.6000000001,kind,900,I,m,m,None,784,584.0,200.0,94,2,2228.600000000093,244933.0,8030,film,AF,A,244639,244639,243010,243923,243011,245239,244439,244439,245239,46
46,test,1,con,1,m,Fri May 09 2025 13:43:04 GMT-0500 (Central Daylight Time),249327.7000000002,napkin,800,I,m,m,None,827,627.0,200.0,105,2,2162.0,247165.7000000002,8030,napkin,AF,A,246772,246772,245243,246055,245243,247405,246572,246572,247405,47
47,test,1,inc,1,z,Fri May 09 2025 13:43:04 GMT-0500 (Central Daylight Time),251626.7000000002,remote,1000,I,z,z,None,764,565.0,199.0,31,2,2295.3000000002794,249331.3999999999,8030,friend,AF,A,249138,249138,247408,248421,247409,249704,248938,248938,249704,48
47,test,1,inc,0,z,Fri May 09 2025 13:43:04 GMT-0500 (Central Daylight Time),254342.8999999999,window,1100,I,m,m,None,1078,878.0,200.0,8,2,2712.5999999996275,251630.30000000028,8030,elated,AF,A,251537,251537,249707,250821,249708,252420,251337,251337,252420,49
48,test,1,con,1,z,Fri May 09 2025 13:43:04 GMT-0500 (Central Daylight Time),256625.30000000028,temper,1000,I,z,z,None,733,534.0,199.0,59,2,2278.600000000093,254346.7000000002,8030,temper,AF,A,254153,254153,252424,253436,252424,254702,253953,253953,254702,50
49,test,1,con,1,m,Fri May 09 2025 13:43:04 GMT-0500 (Central Daylight Time),258708.0,step,900,I,m,m,None,646,447.0,199.0,66,2,2078.899999999907,256629.1000000001,8030,step,AF,A,256336,256336,254706,255619,254706,256785,256136,256136,256785,51
50,test,1,con,1,z,Fri May 09 2025 13:43:04 GMT-0500 (Central Daylight Time),260807.30000000028,brutal,800,I,z,z,None,753,553.0,200.0,33,2,2095.5,258711.80000000028,8030,brutal,AF,A,258318,258318,256789,257602,256789,258884,258118,258118,258884,52
50,test,1,con,0,z,Fri May 09 2025 13:43:04 GMT-0500 (Central Daylight Time),263123.1000000001,elated,900,I,m,m,None,881,682.0,199.0,2,2,2312.0,260811.1000000001,8030,elated,AF,A,260517,260517,258888,259802,258888,261200,260318,260318,261200,53
51,test,1,inc,1,z,Fri May 09 2025 13:43:04 GMT-0500 (Central Daylight Time),265372.6000000001,napkin,900,I,z,z,None,804,605.0,199.0,38,2,2246.100000000093,263126.5,8030,brutal,AF,A,262834,262834,261204,262117,261204,263450,262634,262634,263450,54
52,test,1,inc,1,m,Fri May 09 2025 13:43:04 GMT-0500 (Central Daylight Time),267588.6000000001,love,1000,I,m,m,None,680,481.0,199.0,95,2,2212.2999999998137,265376.3000000003,8030,film,AF,A,265182,265182,263453,264466,263454,265666,264983,264983,265666,55
53,test,1,inc,1,m,Fri May 09 2025 13:43:04 GMT-0500 (Central Daylight Time),269538.1000000001,rage,800,I,m,m,None,600,400.0,200.0,93,2,1945.6000000000931,267592.5,8030,film,AF,A,267199,267199,265670,266482,265670,267615,266999,266999,267615,56
54,test,1,inc,1,z,Fri May 09 2025 13:43:04 GMT-0500 (Central Daylight Time),271787.1000000001,film,1100,I,z,z,None,615,415.0,200.0,16,2,2245.100000000093,269542.0,8030,kind,AF,A,269448,269448,267619,268732,267619,269864,269248,269248,269864,57
55,test,1,con,1,m,Fri May 09 2025 13:43:04 GMT-0500 (Central Daylight Time),274153.1000000001,remote,1100,I,m,m,None,717,518.0,199.0,116,2,2362.5,271790.6000000001,8030,remote,AF,A,271697,271697,269868,270981,269868,272230,271498,271498,272230,58
56,test,1,inc,1,m,Fri May 09 2025 13:43:04 GMT-0500 (Central Daylight Time),276519.1000000001,friend,1100,I,m,m,None,720,520.0,200.0,128,2,2362.2999999998137,274156.8000000003,8030,window,AF,A,274063,274063,272234,273347,272234,274596,273863,273863,274596,59
57,test,1,inc,1,z,Fri May 09 2025 13:43:04 GMT-0500 (Central Daylight Time),278601.8000000003,jacket,800,I,z,z,None,734,534.0,200.0,61,2,2079.0,276522.8000000003,8030,temper,AF,A,276129,276129,274600,275413,274600,276679,275929,275929,276679,60
58,test,1,inc,1,m,Fri May 09 2025 13:43:04 GMT-0500 (Central Daylight Time),280801.1000000001,elated,800,I,m,m,None,859,659.0,200.0,101,2,2195.2000000001863,278605.8999999999,8030,jacket,AF,A,278212,278212,276683,277496,276683,278878,278012,278012,278878,61
59,test,1,inc,1,m,Fri May 09 2025 13:43:04 GMT-0500 (Central Daylight Time),283017.3000000003,love,1000,I,m,m,None,668,468.0,200.0,79,2,2212.100000000093,280805.2000000002,8030,rock,AF,A,280611,280611,278882,279895,278883,281094,280411,280411,281094,62
60,test,1,inc,1,m,Fri May 09 2025 13:43:04 GMT-0500 (Central Daylight Time),285116.6000000001,brutal,900,I,m,m,None,655,456.0,199.0,110,2,2095.399999999907,283021.2000000002,8030,napkin,AF,A,282727,282727,281098,282011,281099,283194,282528,282528,283194,63
61,test,1,con,1,m,Fri May 09 2025 13:43:04 GMT-0500 (Central Daylight Time),287399.0,step,1100,I,m,m,None,635,436.0,199.0,68,2,2278.7999999998137,285120.2000000002,8030,step,AF,A,285027,285027,283197,284310,283198,285476,284827,284827,285476,64
62,test,1,con,1,m,Fri May 09 2025 13:43:04 GMT-0500 (Central Daylight Time),289432.0,remote,1000,I,m,m,None,494,294.0,200.0,115,2,2029.2999999998137,287402.7000000002,8030,remote,AF,A,287209,287209,285480,286493,285480,287509,287009,287009,287509,65
63,test,1,con,1,z,Fri May 09 2025 13:43:04 GMT-0500 (Central Daylight Time),291481.2000000002,love,1000,I,z,z,None,500,301.0,199.0,19,2,2045.7000000001863,289435.5,8030,love,AF,A,289242,289242,287513,288525,287513,289558,289042,289042,289558,66
64,test,1,inc,1,z,Fri May 09 2025 13:43:04 GMT-0500 (Central Daylight Time),293780.3000000003,bell,1000,I,z,z,None,764,564.0,200.0,47,2,2295.3000000002794,291485.0,8030,hate,AF,A,291291,291291,289562,290575,289562,291857,291091,291091,291857,67
65,test,1,inc,1,z,Fri May 09 2025 13:43:04 GMT-0500 (Central Daylight Time),295846.3000000003,rock,900,I,z,z,None,620,421.0,199.0,46,2,2061.8000000002794,293784.5,8030,hate,AF,A,293490,293490,291862,292774,291862,293923,293291,293291,293923,68
66,test,1,con,1,m,Fri May 09 2025 13:43:04 GMT-0500 (Central Daylight Time),297862.3999999999,rock,800,I,m,m,None,669,470.0,199.0,73,2,2012.3999999999069,295850.0,8030,rock,AF,A,295456,295457,293927,294740,293927,295939,295256,295257,295939,69
67,test,1,con,1,z,Fri May 09 2025 13:43:04 GMT-0500 (Central Daylight Time),300045.1000000001,friend,800,I,z,z,None,846,647.0,199.0,25,2,2179.2999999998137,297865.8000000003,8030,friend,AF,A,297472,297472,295943,296756,295943,298122,297273,297273,298122,70
68,test,1,con,1,m,Fri May 09 2025 13:43:04 GMT-0500 (Central Daylight Time),302261.1000000001,napkin,1000,I,m,m,None,680,480.0,200.0,107,2,2212.2000000001863,300048.8999999999,8030,napkin,AF,A,299855,299855,298126,299139,298126,300338,299655,299655,300338,71
69,test,1,inc,1,z,Fri May 09 2025 13:43:04 GMT-0500 (Central Daylight Time),304210.5,step,800,I,z,z,None,616,416.0,200.0,21,2,1945.3999999999069,302265.1000000001,8030,love,AF,A,301871,301871,300342,301155,300342,302288,301671,301671,302287,72
70,test,1,con,1,z,Fri May 09 2025 13:43:04 GMT-0500 (Central Daylight Time),306559.7000000002,brutal,1100,I,z,z,None,709,510.0,199.0,36,2,2345.8000000002794,304213.8999999999,8030,brutal,AF,A,304120,304121,302291,303404,302291,304637,303921,303921,304637,73
71,test,1,inc,1,m,Fri May 09 2025 13:43:04 GMT-0500 (Central Daylight Time),308725.8999999999,temper,1000,I,m,m,None,621,421.0,200.0,127,2,2162.1999999997206,306563.7000000002,8030,window,AF,A,306370,306370,304641,305653,304641,306803,306170,306170,306803,74
72,test,1,con,1,m,Fri May 09 2025 13:43:04 GMT-0500 (Central Daylight Time),310908.2000000002,film,900,I,m,m,None,747,547.0,200.0,90,2,2178.5,308729.7000000002,8030,film,AF,A,308436,308436,306807,307719,306807,308985,308236,308236,308985,75
73,test,1,con,1,m,Fri May 09 2025 13:43:04 GMT-0500 (Central Daylight Time),312874.2000000002,jacket,900,I,m,m,None,524,325.0,199.0,98,2,1962.5,310911.7000000002,8030,jacket,AF,A,310618,310618,308989,309902,308989,310951,310419,310419,310951,76
74,test,1,con,1,m,Fri May 09 2025 13:43:04 GMT-0500 (Central Daylight Time),315140.3000000003,rock,1100,I,m,m,None,646,447.0,199.0,76,2,2262.2000000001863,312878.1000000001,8030,rock,AF,A,312768,312768,310955,312068,310955,313217,312569,312569,313217,77
75,test,1,inc,1,m,Fri May 09 2025 13:43:04 GMT-0500 (Central Daylight Time),317240.0,kind,900,I,m,m,None,660,461.0,199.0,86,2,2095.6999999997206,315144.3000000003,8030,bell,AF,A,314850,314850,313221,314134,313222,315317,314651,314651,315317,78
76,test,1,inc,1,m,Fri May 09 2025 13:43:04 GMT-0500 (Central Daylight Time),319322.3999999999,brutal,900,I,m,m,None,648,449.0,199.0,126,2,2078.6999999997206,317243.7000000002,8030,window,AF,A,316950,316950,315321,316234,315321,317399,316750,316750,317399,79
77,test,1,con,1,z,Fri May 09 2025 13:43:04 GMT-0500 (Central Daylight Time),321588.3000000003,rage,800,I,z,z,None,922,723.0,199.0,49,2,2262.2000000001863,319326.1000000001,8030,rage,AF,A,318932,318932,317403,318217,317403,319665,318733,318733,319665,80
78,test,1,con,1,z,Fri May 09 2025 13:43:04 GMT-0500 (Central Daylight Time),323604.6000000001,friend,900,I,z,z,None,579,380.0,199.0,26,2,2012.7000000001863,321591.8999999999,8030,friend,AF,A,321299,321299,319669,320582,319669,321682,321099,321099,321682,81
78,test,1,con,0,z,Fri May 09 2025 13:43:04 GMT-0500 (Central Daylight Time),325953.7000000002,elated,800,I,m,m,None,1008,809.0,199.0,1,2,2345.100000000093,323608.6000000001,8030,elated,AF,A,323214,323214,321686,322498,321686,324031,323015,323015,324031,82
79,test,1,inc,1,z,Fri May 09 2025 13:43:04 GMT-0500 (Central Daylight Time),328353.0,bell,1000,I,z,z,None,858,659.0,199.0,15,2,2395.600000000093,325957.3999999999,8030,kind,AF,A,325764,325764,324034,325047,324035,326430,325564,325564,326430,83
80,test,1,con,1,z,Fri May 09 2025 13:43:04 GMT-0500 (Central Daylight Time),330414.6000000001,love,900,I,z,z,None,628,428.0,200.0,18,2,2057.600000000093,328357.0,8030,love,AF,A,328063,328063,326434,327347,326434,328492,327863,327863,328492,84
81,test,1,inc,1,z,Fri May 09 2025 13:43:04 GMT-0500 (Central Daylight Time),332585.1000000001,step,800,I,z,z,None,818,618.0,200.0,53,2,2166.2000000001863,330418.8999999999,8030,rage,AF,A,330029,330029,328496,329313,328496,330662,329829,329829,330662,85
82,test,1,inc,1,m,Fri May 09 2025 13:43:04 GMT-0500 (Central Daylight Time),334934.5,hate,1100,I,m,m,None,704,504.0,200.0,72,2,2345.899999999907,332588.6000000001,8030,step,AF,A,332495,332495,330666,331779,330666,333012,332295,332295,333011,86
83,test,1,con,1,m,Fri May 09 2025 13:43:04 GMT-0500 (Central Daylight Time),337066.8999999999,bell,900,I,m,m,None,690,491.0,199.0,82,2,2128.6999999997206,334938.2000000002,8030,bell,AF,A,334644,334644,333015,333928,333016,335144,334445,334445,335144,87
84,test,1,inc,1,z,Fri May 09 2025 13:43:04 GMT-0500 (Central Daylight Time),339033.1000000001,step,800,I,z,z,None,626,426.0,200.0,45,2,1962.2999999998137,337070.8000000003,8030,hate,AF,A,336677,336677,335148,335961,335148,337110,336477,336477,337110,88
85,test,1,con,1,z,Fri May 09 2025 13:43:04 GMT-0500 (Central Daylight Time),341282.3000000003,temper,1100,I,z,z,None,608,408.0,200.0,60,2,2245.5,339036.8000000003,8030,temper,AF,A,338943,338943,337114,338227,337114,339359,338743,338743,339359,89
86,test,1,con,1,z,Fri May 09 2025 13:43:04 GMT-0500 (Central Daylight Time),343098.3000000003,love,800,I,z,z,None,474,275.0,199.0,17,2,1812.3000000002794,341286.0,8030,love,AF,A,340892,340892,339363,340176,339363,341175,340693,340693,341175,90
87,test,1,inc,1,m,Fri May 09 2025 13:43:04 GMT-0500 (Central Daylight Time),345464.0,friend,1100,I,m,m,None,726,527.0,199.0,120,2,2362.2999999998137,343101.7000000002,8030,remote,AF,A,343008,343008,341179,342292,341179,343541,342809,342809,343541,91
88,test,1,con,1,z,Fri May 09 2025 13:43:04 GMT-0500 (Central Daylight Time),347713.8000000003,friend,1100,I,z,z,None,600,401.0,199.0,28,2,2246.2000000001863,345467.6000000001,8030,friend,AF,A,345374,345374,343545,344658,343545,345791,345174,345175,345791,92
89,test,1,inc,1,m,Fri May 09 2025 13:43:04 GMT-0500 (Central Daylight Time),349796.2000000002,kind,900,I,m,m,None,647,448.0,199.0,78,2,2078.600000000093,347717.6000000001,8030,rock,AF,A,347423,347423,345795,346707,345795,347873,347224,347224,347873,93
90,test,1,con,1,m,Fri May 09 2025 13:43:04 GMT-0500 (Central Daylight Time),351978.8999999999,step,800,I,m,m,None,840,640.0,200.0,65,2,2179.0999999996275,349799.8000000003,8030,step,AF,A,349407,349407,347877,348690,347877,350056,349207,349207,350056,94
91,test,1,inc,1,m,Fri May 09 2025 13:43:04 GMT-0500 (Central Daylight Time),354148.2000000002,love,1000,I,m,m,None,628,428.0,200.0,71,2,2165.7000000001863,351982.5,8030,step,AF,A,351789,351789,350059,351072,350060,352225,351589,351589,352225,95
92,test,1,inc,1,z,Fri May 09 2025 13:43:04 GMT-0500 (Central Daylight Time),356327.7000000002,bell,1000,I,z,z,None,643,444.0,199.0,23,2,2175.3000000002794,354152.3999999999,8030,love,AF,A,353955,353955,352229,353239,352230,354405,353756,353756,354405,96
93,test,1,inc,1,z,Fri May 09 2025 13:43:04 GMT-0500 (Central Daylight Time),358576.8000000003,rock,900,I,z,z,None,800,601.0,199.0,54,2,2245.2000000001863,356331.6000000001,8030,rage,AF,A,356038,356038,354409,355321,354409,356654,355838,355838,356654,97
94,test,1,inc,1,z,Fri May 09 2025 13:43:04 GMT-0500 (Central Daylight Time),360892.7000000002,film,1100,I,z,z,None,680,480.0,200.0,24,2,2311.899999999907,358580.8000000003,8030,love,AF,A,358487,358487,356658,357771,356658,358970,358287,358287,358970,98
95,test,1,inc,1,m,Fri May 09 2025 13:43:04 GMT-0500 (Central Daylight Time),362858.7000000002,rage,800,I,m,m,None,623,424.0,199.0,85,2,1962.3999999999069,360896.3000000003,8030,bell,AF,A,360503,360503,358973,359786,358974,360936,360303,360303,360936,99
96,test,1,inc,1,z,Fri May 09 2025 13:43:04 GMT-0500 (Central Daylight Time),365157.8999999999,film,1100,I,z,z,None,654,454.0,200.0,56,2,2295.5,362862.3999999999,8030,rage,AF,A,362769,362769,360939,362053,360940,363235,362569,362569,363235,100
97,test,1,con,1,z,Fri May 09 2025 13:43:04 GMT-0500 (Central Daylight Time),367124.0,temper,900,I,z,z,None,523,323.0,200.0,58,2,1962.1999999997206,365161.8000000003,8030,temper,AF,A,364868,364868,363239,364152,363239,365201,364668,364668,365201,101
98,test,1,con,1,z,Fri May 09 2025 13:43:04 GMT-0500 (Central Daylight Time),369390.2000000002,hate,1100,I,z,z,None,621,421.0,200.0,44,2,2262.3000000002794,367127.8999999999,8030,hate,AF,A,367034,367034,365205,366318,365205,367467,366834,366834,367467,102
99,test,1,inc,1,z,Fri May 09 2025 13:43:04 GMT-0500 (Central Daylight Time),371522.8000000003,rock,900,I,z,z,None,699,499.0,200.0,22,2,2128.5,369394.3000000003,8030,love,AF,A,369100,369100,367471,368384,367472,369600,368900,368900,369600,103
100,test,1,con,1,z,Fri May 09 2025 13:43:04 GMT-0500 (Central Daylight Time),373822.1000000001,temper,800,I,z,z,None,962,762.0,200.0,57,2,2295.600000000093,371526.5,8030,temper,AF,A,371133,371133,369604,370416,369604,371899,370933,370933,371899,104
101,test,1,inc,1,m,Fri May 09 2025 13:43:04 GMT-0500 (Central Daylight Time),376104.6000000001,hate,1100,I,m,m,None,642,443.0,199.0,80,2,2278.7999999998137,373825.8000000003,8030,rock,AF,A,373732,373732,371903,373016,371903,374182,373533,373533,374182,105
102,test,1,con,1,m,Fri May 09 2025 13:43:04 GMT-0500 (Central Daylight Time),378170.7000000002,jacket,1000,I,m,m,None,495,291.0,204.0,99,2,2062.5,376108.2000000002,8030,jacket,AF,A,375948,375948,374185,375198,374185,376248,375743,375743,376248,106
103,test,1,con,1,z,Fri May 09 2025 13:43:04 GMT-0500 (Central Daylight Time),380386.5,rage,1000,I,z,z,None,674,474.0,200.0,51,2,2211.600000000093,378174.8999999999,8030,rage,AF,A,377981,377981,376252,377264,376252,378464,377781,377781,378464,107
104,test,1,con,1,m,Fri May 09 2025 13:43:04 GMT-0500 (Central Daylight Time),382319.2000000002,napkin,900,I,m,m,None,494,294.0,200.0,106,2,1928.6000000000931,380390.6000000001,8030,napkin,AF,A,380097,380097,378468,379381,378468,380396,379897,379897,380396,108
105,test,1,inc,1,z,Fri May 09 2025 13:43:04 GMT-0500 (Central Daylight Time),384418.6000000001,napkin,900,I,z,z,None,656,457.0,199.0,62,2,2095.7000000001863,382322.8999999999,8030,temper,AF,A,382030,382030,380400,381314,380400,382496,381830,381830,382496,109
106,test,1,con,1,m,Fri May 09 2025 13:43:04 GMT-0500 (Central Daylight Time),386484.8999999999,jacket,800,I,m,m,None,722,522.0,200.0,97,2,2062.5,384422.3999999999,8030,jacket,AF,A,384029,384029,382499,383312,382500,384562,383829,383829,384562,110
107,test,1,inc,1,z,Fri May 09 2025 13:43:04 GMT-0500 (Central Daylight Time),388700.7000000002,remote,1000,I,z,z,None,672,472.0,200.0,7,2,2211.399999999907,386489.3000000003,8030,elated,AF,A,386295,386295,384566,385578,384567,386778,386095,386095,386778,111
107,test,1,con,0,z,Fri May 09 2025 13:43:04 GMT-0500 (Central Daylight Time),390883.3000000003,kind,1100,I,m,m,None,540,340.0,200.0,12,2,2178.8000000002794,388704.5,8030,kind,AF,A,388611,388611,386781,387894,386782,388960,388411,388411,388960,112
108,test,1,con,1,m,Fri May 09 2025 13:43:04 GMT-0500 (Central Daylight Time),393099.1000000001,window,1000,I,m,m,None,673,474.0,199.0,123,2,2211.7999999998137,390887.3000000003,8030,window,AF,A,390693,390693,388964,389977,388965,391176,390494,390494,391176,113
109,test,1,inc,1,m,Fri May 09 2025 13:43:04 GMT-0500 (Central Daylight Time),395514.8999999999,temper,1000,I,m,m,None,881,682.0,199.0,111,2,2412.2999999998137,393102.6000000001,8030,napkin,AF,A,392909,392909,391180,392193,391180,393592,392710,392710,393592,114
110,test,1,con,1,z,Fri May 09 2025 13:43:04 GMT-0500 (Central Daylight Time),397548.0,hate,1000,I,z,z,None,489,290.0,199.0,43,2,2029.5,395518.5,8030,hate,AF,A,395325,395325,393596,394609,393596,395625,395125,395126,395625,115
111,test,1,inc,1,z,Fri May 09 2025 13:43:04 GMT-0500 (Central Daylight Time),399880.5,remote,1000,I,z,z,None,785,585.0,200.0,63,2,2328.6999999997206,397551.8000000003,8030,temper,AF,A,397358,397358,395629,396641,395629,397958,397158,397158,397957,116
112,test,1,con,1,z,Fri May 09 2025 13:43:04 GMT-0500 (Central Daylight Time),402146.3999999999,rage,1100,I,z,z,None,590,391.0,199.0,52,2,2262.0999999996275,399884.3000000003,8030,rage,AF,A,399824,399824,397961,399120,397962,400223,399624,399624,400223,117
113,test,1,inc,1,z,Fri May 09 2025 13:43:04 GMT-0500 (Central Daylight Time),404312.3999999999,rock,900,I,z,z,None,717,502.0,215.0,14,2,2162.2999999998137,402150.1000000001,8030,kind,AF,A,401873,401873,400227,401140,400227,402389,401658,401658,402389,118
114,test,1,inc,1,z,Fri May 09 2025 13:43:04 GMT-0500 (Central Daylight Time),406661.5,window,1100,I,z,z,None,704,503.0,201.0,32,2,2345.399999999907,404316.1000000001,8030,friend,AF,A,404224,404224,402393,403506,402393,404739,404022,404022,404739,119
115,test,1,con,1,z,Fri May 09 2025 13:43:04 GMT-0500 (Central Daylight Time),408677.8000000003,kind,800,I,z,z,None,678,479.0,199.0,9,2,2012.8000000002794,406665.0,8030,kind,AF,A,406272,406272,404742,405555,404742,406755,406072,406072,406755,120
115,test,1,con,0,z,Fri May 09 2025 13:43:04 GMT-0500 (Central Daylight Time),411060.2000000002,elated,1000,I,m,m,None,839,639.0,200.0,3,2,2378.7000000001863,408681.5,8030,elated,AF,A,408488,408488,406759,407771,406759,409137,408288,408288,409137,121
116,test,1,con,1,m,Fri May 09 2025 13:43:04 GMT-0500 (Central Daylight Time),412959.8000000003,window,800,I,m,m,None,551,352.0,199.0,121,2,1894.9000000003725,411064.8999999999,8030,window,AF,A,410671,410671,409142,409954,409142,411037,410471,410471,411037,122
117,test,1,con,1,z,Fri May 09 2025 13:43:04 GMT-0500 (Central Daylight Time),415075.7000000002,love,1100,I,z,z,None,481,280.0,201.0,20,2,2112.3000000002794,412963.3999999999,8030,love,AF,A,412871,412871,411040,412153,411041,413153,412670,412670,413153,123
117,test,1,inc,0,z,Fri May 09 2025 13:43:04 GMT-0500 (Central Daylight Time),417574.8999999999,napkin,900,I,m,m,None,1053,853.0,200.0,6,2,2495.7999999998137,415079.1000000001,8030,elated,AF,A,414786,414786,413156,414070,413156,415652,414586,414586,415652,124
118,test,1,inc,1,m,Fri May 09 2025 13:43:04 GMT-0500 (Central Daylight Time),419674.3999999999,elated,800,I,m,m,None,758,558.0,200.0,109,2,2095.6999999997206,417578.7000000002,8030,napkin,AF,A,417185,417185,415656,416469,415656,417751,416985,416985,417751,125
119,test,1,con,1,z,Fri May 09 2025 13:43:04 GMT-0500 (Central Daylight Time),421623.7000000002,rage,900,I,z,z,None,502,303.0,199.0,50,2,1945.5,419678.2000000002,8030,rage,AF,A,419384,419384,417755,418668,417755,419701,419185,419185,419701,126
120,test,1,con,1,m,Fri May 09 2025 13:43:04 GMT-0500 (Central Daylight Time),423756.3000000003,bell,1000,I,m,m,None,596,397.0,199.0,83,2,2128.8000000002794,421627.5,8030,bell,AF,A,421434,421434,419705,420717,419705,421833,421234,421234,421833,127
121,test,1,inc,1,z,Fri May 09 2025 13:43:04 GMT-0500 (Central Daylight Time),426072.1000000001,bell,1000,I,z,z,None,776,577.0,199.0,55,2,2312.2000000001863,423759.8999999999,8030,rage,AF,A,423566,423566,421837,422850,421837,424149,423367,423367,424149,128
