acc_sum,block,block_c,condition,correct,correct_response,datetime,endtime,flanker,jitter,project,response,response_test_buffer_response,response_test_target_response,response_time,response_time_test_buffer_response,response_time_test_target_response,row_sel,session_number,start_end,starttime,subject_id,target,task,task_vers,time_test_buffer,time_test_buffer_response,time_test_constants,time_test_flanker,time_test_jitter,time_test_logger,time_test_target,time_test_target_response,time_test_variables,trial
1,prac,1,con,1,z,Thu Aug 21 2025 13:52:04 GMT-0500 (Central Daylight Time),70744.0,love,1000,I,z,,,556,,,11,3,2860.899999976158,67883.10000002384,8030,love,AF,C,,,,,,,,,,1
2,prac,1,inc,1,m,Thu Aug 21 2025 13:52:04 GMT-0500 (Central Daylight Time),73743.10000002384,kind,900,I,m,,,799,,,2,3,2993.2999999523163,70749.80000007153,8030,rock,AF,C,,,,,,,,,,2
3,prac,1,con,1,m,Thu Aug 21 2025 13:52:04 GMT-0500 (Central Daylight Time),76675.60000002384,remote,1000,I,m,,,621,,,7,3,2928.1999999284744,73747.40000009537,8030,remote,AF,C,,,,,,,,,,3
4,prac,1,con,1,z,Thu Aug 21 2025 13:52:04 GMT-0500 (Central Daylight Time),79541.40000009537,rage,1000,I,z,,,559,,,15,3,2861.7000000476837,76679.70000004768,8030,rage,AF,C,,,,,,,,,,4
5,prac,1,con,1,z,Thu Aug 21 2025 13:52:04 GMT-0500 (Central Daylight Time),82457.10000002384,brutal,800,I,z,,,814,,,13,3,2911.0,79546.10000002384,8030,brutal,AF,C,,,,,,,,,,5
6,prac,1,inc,1,z,Thu Aug 21 2025 13:52:04 GMT-0500 (Central Daylight Time),85589.30000007153,film,900,I,z,,,927,,,14,3,3127.5,82461.80000007153,8030,hate,AF,C,,,,,,,,,,6
7,prac,1,con,1,m,Thu Aug 21 2025 13:52:04 GMT-0500 (Central Daylight Time),88655.20000004768,step,800,I,m,,,830,,,1,3,3061.2999999523163,85593.90000009537,8030,step,AF,C,,,,,,,,,,7
8,prac,1,inc,1,z,Thu Aug 21 2025 13:52:04 GMT-0500 (Central Daylight Time),91504.30000007153,rock,900,I,z,,,641,,,10,3,2844.600000023842,88659.70000004768,8030,kind,AF,C,,,,,,,,,,8
9,prac,1,inc,1,z,Thu Aug 21 2025 13:52:04 GMT-0500 (Central Daylight Time),94636.30000007153,napkin,1100,I,z,,,727,,,12,3,3127.8000000715256,91508.5,8030,friend,AF,C,,,,,,,,,,9
10,prac,1,inc,1,m,Thu Aug 21 2025 13:52:04 GMT-0500 (Central Daylight Time),97535.90000009537,elated,900,I,m,,,690,,,6,3,2894.4000000953674,94641.5,8030,napkin,AF,C,,,,,,,,,,10
11,prac,1,inc,1,m,Thu Aug 21 2025 13:52:04 GMT-0500 (Central Daylight Time),100635.0,brutal,1100,I,m,,,687,,,8,3,3093.5,97541.5,8030,window,AF,C,,,,,,,,,,11
12,prac,1,inc,1,z,Thu Aug 21 2025 13:52:04 GMT-0500 (Central Daylight Time),103767.30000007153,window,1100,I,z,,,732,,,16,3,3128.0,100639.30000007153,8030,temper,AF,C,,,,,,,,,,12
13,prac,1,con,1,m,Thu Aug 21 2025 13:52:04 GMT-0500 (Central Daylight Time),106399.70000004768,jacket,800,I,m,,,517,,,5,3,2627.7999999523163,103771.90000009537,8030,jacket,AF,C,,,,,,,,,,13
14,prac,1,inc,1,m,Thu Aug 21 2025 13:52:04 GMT-0500 (Central Daylight Time),109565.30000007153,hate,1100,I,m,,,759,,,4,3,3161.600000023842,106403.70000004768,8030,film,AF,C,,,,,,,,,,14
15,prac,1,con,1,m,Thu Aug 21 2025 13:52:04 GMT-0500 (Central Daylight Time),112465.40000009537,bell,1000,I,m,,,574,,,3,3,2896.0,109569.40000009537,8030,bell,AF,C,,,,,,,,,,15
16,prac,1,con,1,z,Thu Aug 21 2025 13:52:04 GMT-0500 (Central Daylight Time),115413.60000002384,elated,800,I,z,,,843,,,9,3,2944.100000023842,112469.5,8030,elated,AF,C,,,,,,,,,,16
1,test,1,con,1,m,Thu Aug 21 2025 13:52:04 GMT-0500 (Central Daylight Time),126576.5,rock,900,I,m,m,None,533,333.0,200.0,74,3,1979.1999999284744,124597.30000007153,8030,rock,AF,C,123657,123657,122027,122941,122028,124007,123457,123457,124006,1
2,test,1,inc,1,z,Thu Aug 21 2025 13:52:04 GMT-0500 (Central Daylight Time),128609.40000009537,rock,900,I,z,z,None,599,399.0,200.0,14,3,2028.4000000953674,126581.0,8030,kind,AF,C,125640,125640,124011,124923,124012,126039,125440,125440,126039,2
3,test,1,inc,1,z,Thu Aug 21 2025 13:52:04 GMT-0500 (Central Daylight Time),130908.80000007153,remote,1000,I,z,z,None,755,555.0,200.0,31,3,2294.899999976158,128613.90000009537,8030,friend,AF,C,127772,127772,126044,127056,126044,128339,127572,127572,128339,3
4,test,1,inc,1,m,Thu Aug 21 2025 13:52:04 GMT-0500 (Central Daylight Time),132941.10000002384,rage,800,I,m,m,None,686,487.0,199.0,69,3,2027.6999999284744,130913.40000009537,8030,step,AF,C,129872,129872,128343,129155,128344,130371,129672,129672,130371,4
5,test,1,inc,1,z,Thu Aug 21 2025 13:52:04 GMT-0500 (Central Daylight Time),135007.20000004768,jacket,800,I,z,z,None,615,402.0,213.0,29,3,2061.7000000476837,132945.5,8030,friend,AF,C,132021,132021,130376,131188,130376,132437,131808,131808,132437,5
6,test,1,inc,1,z,Thu Aug 21 2025 13:52:04 GMT-0500 (Central Daylight Time),137373.30000007153,napkin,900,I,z,z,None,920,720.0,200.0,6,3,2362.2000000476837,135011.10000002384,8030,elated,AF,C,134071,134071,132441,133354,132441,134803,133870,133870,134803,6
7,test,1,inc,1,m,Thu Aug 21 2025 13:52:04 GMT-0500 (Central Daylight Time),139439.10000002384,brutal,900,I,m,m,None,619,419.0,200.0,118,3,2062.0,137377.10000002384,8030,remote,AF,C,136436,136436,134807,135720,134808,136869,136236,136236,136869,7
8,test,1,con,1,m,Thu Aug 21 2025 13:52:04 GMT-0500 (Central Daylight Time),141488.60000002384,napkin,800,I,m,m,None,715,516.0,199.0,105,3,2045.3999999761581,139443.20000004768,8030,napkin,AF,C,138402,138402,136873,137686,136873,138919,138203,138203,138919,8
9,test,1,inc,1,m,Thu Aug 21 2025 13:52:04 GMT-0500 (Central Daylight Time),143787.80000007153,temper,1000,I,m,m,None,761,562.0,199.0,103,3,2295.3000000715256,141492.5,8030,jacket,AF,C,140652,140652,138923,139935,138923,141218,140452,140452,141218,9
9,test,1,con,0,z,Thu Aug 21 2025 13:52:04 GMT-0500 (Central Daylight Time),146003.80000007153,temper,1100,I,m,m,None,579,380.0,199.0,60,3,2212.0,143791.80000007153,8030,temper,AF,C,143051,143051,141222,142334,141222,143434,142851,142851,143434,10
10,test,1,inc,1,z,Thu Aug 21 2025 13:52:04 GMT-0500 (Central Daylight Time),148253.30000007153,film,1100,I,z,z,None,604,404.0,200.0,24,3,2245.2000000476837,146008.10000002384,8030,love,AF,C,145267,145267,143438,144550,143438,145683,145067,145067,145683,11
11,test,1,con,1,m,Thu Aug 21 2025 13:52:04 GMT-0500 (Central Daylight Time),150652.20000004768,step,1100,I,m,m,None,763,562.0,201.0,68,3,2394.7000000476837,148257.5,8030,step,AF,C,147517,147517,145688,146800,145688,148082,147316,147316,148082,12
12,test,1,con,1,z,Thu Aug 21 2025 13:52:04 GMT-0500 (Central Daylight Time),152768.20000004768,brutal,900,I,z,z,None,674,475.0,199.0,34,3,2111.7000000476837,150656.5,8030,brutal,AF,C,149716,149716,148087,148999,148087,150198,149516,149516,150198,13
13,test,1,inc,1,z,Thu Aug 21 2025 13:52:04 GMT-0500 (Central Daylight Time),154951.0,bell,1000,I,z,z,None,642,443.0,199.0,55,3,2178.5999999046326,152772.40000009537,8030,rage,AF,C,151932,151932,150202,151215,150203,152381,151731,151732,152381,14
14,test,1,con,1,z,Thu Aug 21 2025 13:52:04 GMT-0500 (Central Daylight Time),157167.0,friend,1100,I,z,z,None,569,369.0,200.0,28,3,2211.7999999523163,154955.20000004768,8030,friend,AF,C,154214,154214,152385,153498,152385,154597,154014,154014,154597,15
15,test,1,con,1,z,Thu Aug 21 2025 13:52:04 GMT-0500 (Central Daylight Time),159083.10000002384,love,900,I,z,z,None,481,281.0,200.0,18,3,1911.7999999523163,157171.30000007153,8030,love,AF,C,156230,156230,154601,155513,154602,156513,156030,156030,156513,16
16,test,1,con,1,z,Thu Aug 21 2025 13:52:04 GMT-0500 (Central Daylight Time),161265.70000004768,love,1100,I,z,z,None,541,341.0,200.0,20,3,2178.5,159087.20000004768,8030,love,AF,C,158346,158346,156517,157630,156518,158696,158146,158146,158696,17
17,test,1,con,1,z,Thu Aug 21 2025 13:52:04 GMT-0500 (Central Daylight Time),163231.60000002384,hate,900,I,z,z,None,516,317.0,199.0,42,3,1961.5,161270.10000002384,8030,hate,AF,C,160329,160329,158700,159612,158700,160662,160129,160129,160662,18
18,test,1,inc,1,m,Thu Aug 21 2025 13:52:04 GMT-0500 (Central Daylight Time),165447.80000007153,temper,1000,I,m,m,None,676,476.0,200.0,119,3,2212.3000000715256,163235.5,8030,remote,AF,C,162395,162395,160666,161678,160666,162878,162195,162195,162878,19
19,test,1,con,1,m,Thu Aug 21 2025 13:52:04 GMT-0500 (Central Daylight Time),167480.60000002384,napkin,1000,I,m,m,None,483,284.0,199.0,107,3,2029.0,165451.60000002384,8030,napkin,AF,C,164611,164611,162882,163894,162882,164911,164411,164411,164910,20
20,test,1,con,1,z,Thu Aug 21 2025 13:52:04 GMT-0500 (Central Daylight Time),169763.0,rage,1100,I,z,z,None,639,440.0,199.0,52,3,2278.5999999046326,167484.40000009537,8030,rage,AF,C,166743,166743,164914,166027,164915,167193,166544,166544,167193,21
21,test,1,inc,1,m,Thu Aug 21 2025 13:52:04 GMT-0500 (Central Daylight Time),172045.40000009537,friend,1100,I,m,m,None,645,445.0,200.0,112,3,2277.100000023842,169768.30000007153,8030,napkin,AF,C,169026,169026,167198,168310,167199,169476,168826,168826,169475,22
22,test,1,inc,1,z,Thu Aug 21 2025 13:52:04 GMT-0500 (Central Daylight Time),174061.70000004768,step,800,I,z,z,None,670,470.0,200.0,21,3,2011.6000000238419,172050.10000002384,8030,love,AF,C,171009,171009,169480,170292,169480,171492,170809,170809,171492,23
23,test,1,inc,1,z,Thu Aug 21 2025 13:52:04 GMT-0500 (Central Daylight Time),176410.90000009537,film,1100,I,z,z,None,705,506.0,199.0,48,3,2344.9000000953674,174066.0,8030,hate,AF,C,173325,173325,171496,172608,171496,173841,173125,173125,173841,24
24,test,1,inc,1,m,Thu Aug 21 2025 13:52:04 GMT-0500 (Central Daylight Time),178410.20000004768,rage,800,I,m,m,None,657,457.0,200.0,85,3,1995.1000000238419,176415.10000002384,8030,bell,AF,C,175374,175374,173845,174659,173845,175840,175174,175174,175840,25
25,test,1,con,1,z,Thu Aug 21 2025 13:52:04 GMT-0500 (Central Daylight Time),180410.80000007153,kind,1000,I,z,z,None,466,266.0,200.0,11,3,1996.0,178414.80000007153,8030,kind,AF,C,177573,177573,175845,176857,175845,177841,177373,177373,177841,26
26,test,1,con,1,m,Thu Aug 21 2025 13:52:04 GMT-0500 (Central Daylight Time),182492.60000002384,film,800,I,m,m,None,629,430.0,199.0,89,3,2077.7999999523163,180414.80000007153,8030,film,AF,C,179489,179489,177845,178775,177845,179923,179290,179290,179923,27
27,test,1,con,1,z,Thu Aug 21 2025 13:52:04 GMT-0500 (Central Daylight Time),185059.40000009537,rage,1000,I,z,z,None,1032,832.0,200.0,51,3,2562.600000023842,182496.80000007153,8030,rage,AF,C,181655,181655,179927,180939,179927,182489,181455,181455,182489,28
28,test,1,con,1,m,Thu Aug 21 2025 13:52:04 GMT-0500 (Central Daylight Time),186991.0,jacket,900,I,m,m,None,485,286.0,199.0,98,3,1928.0,185063.0,8030,jacket,AF,C,184121,184121,182493,183405,182493,184421,183922,183922,184421,29
29,test,1,inc,1,m,Thu Aug 21 2025 13:52:04 GMT-0500 (Central Daylight Time),189057.20000004768,rage,800,I,m,m,None,717,517.0,200.0,93,3,2062.5,186994.70000004768,8030,film,AF,C,185954,185954,184425,185238,184425,186487,185754,185754,186487,30
30,test,1,con,1,z,Thu Aug 21 2025 13:52:04 GMT-0500 (Central Daylight Time),191139.60000002384,temper,800,I,z,z,None,739,539.0,200.0,57,3,2078.600000023842,189061.0,8030,temper,AF,C,188020,188020,186491,187303,186491,188570,187820,187820,188570,31
31,test,1,inc,1,m,Thu Aug 21 2025 13:52:04 GMT-0500 (Central Daylight Time),193122.20000004768,elated,800,I,m,m,None,639,440.0,199.0,101,3,1978.0,191144.20000004768,8030,jacket,AF,C,190103,190103,188574,189386,188575,190552,189903,189903,190552,32
32,test,1,inc,1,m,Thu Aug 21 2025 13:52:04 GMT-0500 (Central Daylight Time),195271.70000004768,kind,900,I,m,m,None,708,493.0,215.0,86,3,2145.399999976158,193126.30000007153,8030,bell,AF,C,192202,192202,190556,191469,190557,192702,191987,191987,192702,33
33,test,1,con,1,z,Thu Aug 21 2025 13:52:04 GMT-0500 (Central Daylight Time),197470.90000009537,elated,1100,I,z,z,None,550,351.0,199.0,4,3,2195.3000000715256,195275.60000002384,8030,elated,AF,C,194535,194535,192706,193818,192706,194901,194335,194335,194901,34
34,test,1,con,1,m,Thu Aug 21 2025 13:52:04 GMT-0500 (Central Daylight Time),199453.60000002384,remote,900,I,m,m,None,537,337.0,200.0,114,3,1978.3999999761581,197475.20000004768,8030,remote,AF,C,196534,196534,194905,195818,194906,196884,196334,196334,196884,35
35,test,1,con,1,m,Thu Aug 21 2025 13:52:04 GMT-0500 (Central Daylight Time),201786.0,film,1100,I,m,m,None,697,498.0,199.0,92,3,2328.5,199457.5,8030,film,AF,C,198717,198717,196888,198000,196888,199216,198517,198517,199216,36
36,test,1,inc,1,m,Thu Aug 21 2025 13:52:04 GMT-0500 (Central Daylight Time),203835.60000002384,elated,800,I,m,m,None,705,505.0,200.0,109,3,2045.8999999761581,201789.70000004768,8030,napkin,AF,C,200750,200750,199220,200033,199220,201266,200549,200549,201266,37
37,test,1,con,1,m,Thu Aug 21 2025 13:52:04 GMT-0500 (Central Daylight Time),206301.40000009537,bell,1100,I,m,m,None,695,495.0,200.0,84,3,2461.8000000715256,203839.60000002384,8030,bell,AF,C,203232,203232,201270,202517,201270,203731,203032,203032,203731,38
38,test,1,inc,1,z,Thu Aug 21 2025 13:52:04 GMT-0500 (Central Daylight Time),208600.90000009537,film,1100,I,z,z,None,665,466.0,199.0,16,3,2295.7000000476837,206305.20000004768,8030,kind,AF,C,205565,205565,203735,204848,203735,206031,205365,205365,206031,39
39,test,1,con,1,m,Thu Aug 21 2025 13:52:04 GMT-0500 (Central Daylight Time),210883.90000009537,remote,1100,I,m,m,None,646,447.0,199.0,116,3,2279.100000023842,208604.80000007153,8030,remote,AF,C,207864,207864,206035,207147,206035,208314,207664,207664,208314,40
40,test,1,inc,1,m,Thu Aug 21 2025 13:52:04 GMT-0500 (Central Daylight Time),212949.30000007153,elated,800,I,m,m,None,719,520.0,199.0,125,3,2061.8000000715256,210887.5,8030,window,AF,C,209847,209847,208318,209130,208318,210379,209647,209647,210379,41
41,test,1,inc,1,m,Thu Aug 21 2025 13:52:04 GMT-0500 (Central Daylight Time),214998.40000009537,rage,800,I,m,m,None,702,502.0,200.0,77,3,2045.4000000953674,212953.0,8030,rock,AF,C,211912,211912,210383,211196,210383,212428,211712,211712,212428,42
42,test,1,inc,1,m,Thu Aug 21 2025 13:52:04 GMT-0500 (Central Daylight Time),217164.90000009537,kind,900,I,m,m,None,728,529.0,199.0,94,3,2162.0,215002.90000009537,8030,film,AF,C,214062,214062,212433,213345,212433,214595,213862,213862,214595,43
43,test,1,inc,1,z,Thu Aug 21 2025 13:52:04 GMT-0500 (Central Daylight Time),219280.80000007153,napkin,900,I,z,z,None,675,475.0,200.0,62,3,2112.2000000476837,217168.60000002384,8030,temper,AF,C,216228,216228,214599,215511,214599,216711,216028,216028,216711,44
44,test,1,inc,1,m,Thu Aug 21 2025 13:52:04 GMT-0500 (Central Daylight Time),221546.40000009537,friend,1100,I,m,m,None,631,432.0,199.0,128,3,2261.600000023842,219284.80000007153,8030,window,AF,C,218544,218544,216715,217827,216715,218976,218344,218344,218976,45
45,test,1,inc,1,m,Thu Aug 21 2025 13:52:04 GMT-0500 (Central Daylight Time),223629.30000007153,kind,900,I,m,m,None,643,444.0,199.0,78,3,2079.100000023842,221550.20000004768,8030,rock,AF,C,220610,220610,218980,219893,218981,221059,220410,220410,221059,46
46,test,1,con,1,z,Thu Aug 21 2025 13:52:04 GMT-0500 (Central Daylight Time),225895.20000004768,brutal,1000,I,z,z,None,717,518.0,199.0,35,3,2262.100000023842,223633.10000002384,8030,brutal,AF,C,222793,222793,221063,222076,221063,223325,222593,222593,223325,47
47,test,1,inc,1,m,Thu Aug 21 2025 13:52:04 GMT-0500 (Central Daylight Time),228161.30000007153,hate,1100,I,m,m,None,617,417.0,200.0,88,3,2262.100000023842,225899.20000004768,8030,bell,AF,C,225158,225158,223329,224442,223329,225591,224958,224958,225591,48
48,test,1,con,1,z,Thu Aug 21 2025 13:52:04 GMT-0500 (Central Daylight Time),230010.70000004768,love,800,I,z,z,None,513,314.0,199.0,17,3,1845.5,228165.20000004768,8030,love,AF,C,227125,227125,225595,226408,225595,227441,226925,226925,227441,49
49,test,1,con,1,m,Thu Aug 21 2025 13:52:04 GMT-0500 (Central Daylight Time),232126.90000009537,jacket,1000,I,m,m,None,576,377.0,199.0,99,3,2112.5,230014.40000009537,8030,jacket,AF,C,229174,229174,227444,228457,227445,229557,228974,228974,229557,50
50,test,1,inc,1,z,Thu Aug 21 2025 13:52:04 GMT-0500 (Central Daylight Time),234425.80000007153,bell,1000,I,z,z,None,764,565.0,199.0,15,3,2295.100000023842,232130.70000004768,8030,kind,AF,C,231290,231290,229561,230573,229561,231856,231090,231090,231856,51
51,test,1,inc,1,z,Thu Aug 21 2025 13:52:04 GMT-0500 (Central Daylight Time),236708.80000007153,window,1100,I,z,z,None,646,446.0,200.0,64,3,2279.3000000715256,234429.5,8030,temper,AF,C,233689,233689,231860,232973,231860,234139,233489,233489,234139,52
52,test,1,con,1,m,Thu Aug 21 2025 13:52:04 GMT-0500 (Central Daylight Time),238741.5,window,800,I,m,m,None,694,495.0,199.0,121,3,2028.5999999046326,236712.90000009537,8030,window,AF,C,235672,235672,234143,234955,234143,236172,235472,235472,236171,53
53,test,1,inc,1,m,Thu Aug 21 2025 13:52:04 GMT-0500 (Central Daylight Time),240890.80000007153,elated,800,I,m,m,None,807,607.0,200.0,117,3,2145.5,238745.30000007153,8030,remote,AF,C,237704,237704,236175,236988,236176,238321,237504,237504,238321,54
54,test,1,inc,1,z,Thu Aug 21 2025 13:52:04 GMT-0500 (Central Daylight Time),243073.20000004768,bell,1000,I,z,z,None,633,434.0,199.0,47,3,2178.7000000476837,240894.5,8030,hate,AF,C,240054,240054,238325,239337,238325,240503,239854,239854,240503,55
55,test,1,inc,1,z,Thu Aug 21 2025 13:52:04 GMT-0500 (Central Daylight Time),245372.70000004768,window,1100,I,z,z,None,655,455.0,200.0,32,3,2295.600000023842,243077.10000002384,8030,friend,AF,C,242336,242336,240507,241620,240507,242803,242136,242136,242803,56
56,test,1,inc,1,z,Thu Aug 21 2025 13:52:04 GMT-0500 (Central Daylight Time),247721.60000002384,window,1100,I,z,z,None,713,514.0,199.0,40,3,2344.600000023842,245377.0,8030,brutal,AF,C,244636,244636,242807,243919,242807,245152,244436,244436,245152,57
57,test,1,con,1,m,Thu Aug 21 2025 13:52:04 GMT-0500 (Central Daylight Time),249587.90000009537,jacket,800,I,m,m,None,530,330.0,200.0,97,3,1862.4000000953674,247725.5,8030,jacket,AF,C,246685,246685,245156,245969,245156,247018,246485,246485,247018,58
58,test,1,inc,1,m,Thu Aug 21 2025 13:52:04 GMT-0500 (Central Daylight Time),252070.30000007153,hate,1100,I,m,m,None,849,649.0,200.0,96,3,2478.3000000715256,249592.0,8030,film,AF,C,248851,248851,247022,248135,247022,249500,248651,248651,249500,59
59,test,1,con,1,z,Thu Aug 21 2025 13:52:04 GMT-0500 (Central Daylight Time),254269.80000007153,brutal,1100,I,z,z,None,560,361.0,199.0,36,3,2195.100000023842,252074.70000004768,8030,brutal,AF,C,251334,251334,249505,250617,249505,251700,251134,251134,251700,60
60,test,1,con,1,z,Thu Aug 21 2025 13:52:04 GMT-0500 (Central Daylight Time),256235.80000007153,rage,800,I,z,z,None,622,422.0,200.0,49,3,1961.8999999761581,254273.90000009537,8030,rage,AF,C,253233,253233,251704,252517,251704,253666,253033,253033,253666,61
61,test,1,con,1,z,Thu Aug 21 2025 13:52:04 GMT-0500 (Central Daylight Time),258085.40000009537,kind,800,I,z,z,None,512,312.0,200.0,9,3,1845.7000000476837,256239.70000004768,8030,kind,AF,C,255199,255199,253670,254483,253670,255515,254999,254999,255515,62
62,test,1,inc,1,z,Thu Aug 21 2025 13:52:04 GMT-0500 (Central Daylight Time),260267.80000007153,jacket,800,I,z,z,None,847,647.0,200.0,5,3,2178.399999976158,258089.40000009537,8030,elated,AF,C,257048,257048,255519,256332,255520,257698,256848,256848,257698,63
63,test,1,con,1,z,Thu Aug 21 2025 13:52:04 GMT-0500 (Central Daylight Time),262317.3000000715,elated,800,I,z,z,None,719,504.0,215.0,1,3,2046.1000000238419,260271.20000004768,8030,elated,AF,C,259231,259231,257701,258514,257702,259747,259016,259016,259747,64
64,test,1,inc,1,m,Thu Aug 21 2025 13:52:04 GMT-0500 (Central Daylight Time),264466.8000000715,love,1000,I,m,m,None,606,407.0,199.0,79,3,2145.8000000715256,262321.0,8030,rock,AF,C,261480,261480,259751,260764,259751,261897,261281,261281,261897,65
65,test,1,inc,1,m,Thu Aug 21 2025 13:52:04 GMT-0500 (Central Daylight Time),266649.10000002384,temper,1000,I,m,m,None,647,448.0,199.0,127,3,2178.6999999284744,264470.40000009537,8030,window,AF,C,263629,263630,261900,262913,261901,264079,263430,263430,264079,66
66,test,1,con,1,m,Thu Aug 21 2025 13:52:04 GMT-0500 (Central Daylight Time),268782.0,rock,1100,I,m,m,None,495,295.0,200.0,76,3,2129.5,266652.5,8030,rock,AF,C,265912,265912,264083,265196,264083,266212,265712,265712,266212,67
67,test,1,con,1,z,Thu Aug 21 2025 13:52:04 GMT-0500 (Central Daylight Time),270681.3000000715,brutal,800,I,z,z,None,566,366.0,200.0,33,3,1895.3000000715256,268786.0,8030,brutal,AF,C,267745,267745,266216,267029,266216,268111,267545,267545,268111,68
68,test,1,inc,1,m,Thu Aug 21 2025 13:52:04 GMT-0500 (Central Daylight Time),272764.0,kind,900,I,m,m,None,647,447.0,200.0,70,3,2078.899999976158,270685.10000002384,8030,step,AF,C,269744,269744,268115,269028,268115,270194,269544,269544,270194,69
69,test,1,inc,1,m,Thu Aug 21 2025 13:52:04 GMT-0500 (Central Daylight Time),274863.3000000715,brutal,900,I,m,m,None,660,460.0,200.0,126,3,2095.5,272767.8000000715,8030,window,AF,C,271827,271827,270198,271111,270198,272293,271627,271627,272293,70
70,test,1,con,1,z,Thu Aug 21 2025 13:52:04 GMT-0500 (Central Daylight Time),277229.40000009537,temper,1000,I,z,z,None,820,620.0,200.0,59,3,2362.3000000715256,274867.10000002384,8030,temper,AF,C,274027,274027,272297,273310,272297,274659,273826,273826,274659,71
71,test,1,inc,1,z,Thu Aug 21 2025 13:52:04 GMT-0500 (Central Daylight Time),279545.0,film,1100,I,z,z,None,675,475.0,200.0,56,3,2311.7999999523163,277233.2000000477,8030,rage,AF,C,276492,276492,274663,275776,274663,276975,276292,276292,276975,72
72,test,1,inc,1,m,Thu Aug 21 2025 13:52:04 GMT-0500 (Central Daylight Time),281844.7000000477,hate,1100,I,m,m,None,654,454.0,200.0,80,3,2295.7000000476837,279549.0,8030,rock,AF,C,278809,278809,276979,278092,276979,279275,278608,278608,279275,73
73,test,1,con,1,m,Thu Aug 21 2025 13:52:04 GMT-0500 (Central Daylight Time),284160.40000009537,remote,1000,I,m,m,None,775,575.0,200.0,115,3,2311.9000000953674,281848.5,8030,remote,AF,C,281008,281008,279279,280291,279279,281591,280807,280807,281590,74
74,test,1,con,1,z,Thu Aug 21 2025 13:52:04 GMT-0500 (Central Daylight Time),286159.90000009537,love,1000,I,z,z,None,459,260.0,199.0,19,3,1995.7000000476837,284164.2000000477,8030,love,AF,C,283323,283323,281594,282607,281594,283590,283124,283124,283590,75
75,test,1,con,1,m,Thu Aug 21 2025 13:52:04 GMT-0500 (Central Daylight Time),288142.60000002384,film,1000,I,m,m,None,434,235.0,199.0,91,3,1979.1000000238419,286163.5,8030,film,AF,C,285323,285323,283594,284606,283594,285573,285124,285124,285573,76
76,test,1,con,1,z,Thu Aug 21 2025 13:52:04 GMT-0500 (Central Daylight Time),290008.60000002384,temper,900,I,z,z,None,432,217.0,215.0,58,3,1862.0,288146.60000002384,8030,temper,AF,C,287205,287205,285577,286489,285577,287439,286990,286990,287439,77
77,test,1,inc,1,z,Thu Aug 21 2025 13:52:04 GMT-0500 (Central Daylight Time),292374.5,remote,1000,I,z,z,None,826,627.0,199.0,7,3,2361.6999999284744,290012.8000000715,8030,elated,AF,C,289172,289172,287443,288455,287443,289805,288972,288972,289805,78
78,test,1,con,1,m,Thu Aug 21 2025 13:52:04 GMT-0500 (Central Daylight Time),294240.7000000477,film,900,I,m,m,None,424,224.0,200.0,90,3,1862.7000000476837,292378.0,8030,film,AF,C,291438,291438,289808,290721,289808,291671,291238,291238,291671,79
79,test,1,inc,1,z,Thu Aug 21 2025 13:52:04 GMT-0500 (Central Daylight Time),296406.5,napkin,900,I,z,z,None,726,527.0,199.0,30,3,2162.0999999046326,294244.40000009537,8030,friend,AF,C,293304,293304,291674,292587,291675,293837,293104,293104,293837,80
80,test,1,inc,1,z,Thu Aug 21 2025 13:52:04 GMT-0500 (Central Daylight Time),298539.40000009537,napkin,900,I,z,z,None,688,489.0,199.0,38,3,2129.2000000476837,296410.2000000477,8030,brutal,AF,C,295470,295470,293840,294753,293841,295969,295270,295270,295969,81
81,test,1,con,1,z,Thu Aug 21 2025 13:52:04 GMT-0500 (Central Daylight Time),300672.0,friend,1000,I,z,z,None,583,384.0,199.0,27,3,2128.7999999523163,298543.2000000477,8030,friend,AF,C,297702,297702,295973,296986,295974,298102,297503,297503,298102,82
82,test,1,con,1,m,Thu Aug 21 2025 13:52:04 GMT-0500 (Central Daylight Time),302671.3000000715,window,1000,I,m,m,None,452,252.0,200.0,123,3,1995.1000000238419,300676.2000000477,8030,window,AF,C,299835,299835,298106,299118,298106,300101,299635,299635,300101,83
83,test,1,inc,1,z,Thu Aug 21 2025 13:52:04 GMT-0500 (Central Daylight Time),304788.2000000477,bell,1000,I,z,z,None,581,381.0,200.0,23,3,2113.2999999523163,302674.90000009537,8030,love,AF,C,301834,301834,300105,301118,300105,302218,301634,301634,302218,84
84,test,1,inc,1,m,Thu Aug 21 2025 13:52:04 GMT-0500 (Central Daylight Time),307036.40000009537,love,1000,I,m,m,None,713,513.0,200.0,87,3,2244.4000000953674,304792.0,8030,bell,AF,C,303950,303950,302222,303234,302222,304466,303750,303750,304466,85
85,test,1,con,1,m,Thu Aug 21 2025 13:52:04 GMT-0500 (Central Daylight Time),309219.2000000477,bell,800,I,m,m,None,838,639.0,199.0,81,3,2179.2000000476837,307040.0,8030,bell,AF,C,306000,306000,304470,305283,304470,306649,305800,305800,306649,86
86,test,1,inc,1,m,Thu Aug 21 2025 13:52:04 GMT-0500 (Central Daylight Time),311368.3000000715,brutal,900,I,m,m,None,707,507.0,200.0,110,3,2145.2000000476837,309223.10000002384,8030,napkin,AF,C,308282,308283,306653,307566,306653,308798,308082,308082,308798,87
87,test,1,inc,1,z,Thu Aug 21 2025 13:52:04 GMT-0500 (Central Daylight Time),313568.10000002384,remote,1000,I,z,z,None,675,476.0,199.0,39,3,2195.5,311372.60000002384,8030,brutal,AF,C,310515,310515,308803,309815,308803,310998,310316,310316,310998,88
88,test,1,inc,1,m,Thu Aug 21 2025 13:52:04 GMT-0500 (Central Daylight Time),315834.0,friend,1100,I,m,m,None,623,424.0,199.0,120,3,2261.7999999523163,313572.2000000477,8030,remote,AF,C,312831,312831,311002,312115,311002,313264,312631,312631,313264,89
89,test,1,inc,1,z,Thu Aug 21 2025 13:52:04 GMT-0500 (Central Daylight Time),318033.0,rock,900,I,z,z,None,766,566.0,200.0,54,3,2195.1999999284744,315837.8000000715,8030,rage,AF,C,314897,314897,313268,314180,313268,315463,314697,314697,315463,90
90,test,1,con,1,m,Thu Aug 21 2025 13:52:04 GMT-0500 (Central Daylight Time),320365.40000009537,napkin,1100,I,m,m,None,687,487.0,200.0,108,3,2328.8000000715256,318036.60000002384,8030,napkin,AF,C,317296,317296,315467,316580,315467,317796,317096,317096,317795,91
91,test,1,con,1,z,Thu Aug 21 2025 13:52:04 GMT-0500 (Central Daylight Time),322381.7000000477,hate,800,I,z,z,None,669,469.0,200.0,41,3,2012.6000000238419,320369.10000002384,8030,hate,AF,C,319329,319329,317799,318612,317799,319812,319129,319129,319812,92
92,test,1,inc,1,m,Thu Aug 21 2025 13:52:04 GMT-0500 (Central Daylight Time),324647.7000000477,love,1000,I,m,m,None,717,518.0,199.0,95,3,2261.899999976158,322385.8000000715,8030,film,AF,C,321545,321545,319816,320828,319816,322078,321345,321345,322078,93
93,test,1,con,1,z,Thu Aug 21 2025 13:52:04 GMT-0500 (Central Daylight Time),326730.40000009537,kind,900,I,z,z,None,640,441.0,199.0,10,3,2078.8000000715256,324651.60000002384,8030,kind,AF,C,323710,323710,322082,322994,322082,324160,323511,323511,324160,94
94,test,1,con,1,z,Thu Aug 21 2025 13:52:04 GMT-0500 (Central Daylight Time),328763.10000002384,elated,900,I,z,z,None,596,397.0,199.0,2,3,2029.0,326734.10000002384,8030,elated,AF,C,325793,325794,324164,325077,324164,326193,325594,325594,326193,95
95,test,1,inc,1,m,Thu Aug 21 2025 13:52:04 GMT-0500 (Central Daylight Time),330812.60000002384,brutal,900,I,m,m,None,605,405.0,200.0,102,3,2045.6999999284744,328766.90000009537,8030,jacket,AF,C,327826,327826,326197,327110,326197,328243,327626,327626,328243,96
96,test,1,con,1,m,Thu Aug 21 2025 13:52:04 GMT-0500 (Central Daylight Time),332661.8000000715,rock,800,I,m,m,None,511,312.0,199.0,73,3,1845.5,330816.3000000715,8030,rock,AF,C,329775,329775,328246,329059,328247,330092,329576,329576,330092,97
97,test,1,inc,1,m,Thu Aug 21 2025 13:52:04 GMT-0500 (Central Daylight Time),334994.5,temper,1000,I,m,m,None,790,590.0,200.0,111,3,2329.0,332665.5,8030,napkin,AF,C,331825,331825,330096,331108,330096,332425,331625,331625,332425,98
98,test,1,con,1,z,Thu Aug 21 2025 13:52:04 GMT-0500 (Central Daylight Time),337093.60000002384,hate,1000,I,z,z,None,553,354.0,199.0,43,3,2095.5,334998.10000002384,8030,hate,AF,C,334157,334157,332428,333441,332428,334524,333958,333958,334524,99
99,test,1,con,1,z,Thu Aug 21 2025 13:52:04 GMT-0500 (Central Daylight Time),339426.5,kind,1100,I,z,z,None,690,490.0,200.0,12,3,2329.399999976158,337097.10000002384,8030,kind,AF,C,336357,336357,334527,335640,334528,336857,336157,336157,336857,100
100,test,1,con,1,m,Thu Aug 21 2025 13:52:04 GMT-0500 (Central Daylight Time),341609.2000000477,jacket,1100,I,m,m,None,540,341.0,199.0,100,3,2179.0,339430.2000000477,8030,jacket,AF,C,338689,338689,336860,337973,336860,339039,338490,338490,339039,101
101,test,1,inc,1,z,Thu Aug 21 2025 13:52:04 GMT-0500 (Central Daylight Time),343541.90000009537,jacket,800,I,z,z,None,587,387.0,200.0,37,3,1928.9000000953674,341613.0,8030,brutal,AF,C,340572,340572,339043,339856,339043,340972,340372,340372,340972,102
102,test,1,con,1,m,Thu Aug 21 2025 13:52:04 GMT-0500 (Central Daylight Time),345707.8000000715,window,1100,I,m,m,None,529,330.0,199.0,124,3,2162.100000023842,343545.7000000477,8030,window,AF,C,342805,342805,340976,342088,340976,343138,342605,342605,343138,103
103,test,1,con,1,m,Thu Aug 21 2025 13:52:04 GMT-0500 (Central Daylight Time),347807.10000002384,napkin,900,I,m,m,None,660,460.0,200.0,106,3,2095.5,345711.60000002384,8030,napkin,AF,C,344771,344771,343142,344054,343142,345237,344571,344571,345237,104
104,test,1,inc,1,z,Thu Aug 21 2025 13:52:04 GMT-0500 (Central Daylight Time),349823.0,rock,900,I,z,z,None,585,386.0,199.0,22,3,2012.0,347811.0,8030,love,AF,C,346853,346853,345241,346153,345241,347253,346654,346654,347253,105
105,test,1,con,1,m,Thu Aug 21 2025 13:52:04 GMT-0500 (Central Daylight Time),352105.7000000477,bell,900,I,m,m,None,849,649.0,200.0,82,3,2278.899999976158,349826.8000000715,8030,bell,AF,C,348886,348886,347257,348170,347257,349536,348686,348686,349536,106
106,test,1,con,1,z,Thu Aug 21 2025 13:52:04 GMT-0500 (Central Daylight Time),353921.60000002384,friend,800,I,z,z,None,481,282.0,199.0,25,3,1812.2999999523163,352109.3000000715,8030,friend,AF,C,351069,351069,349539,350352,349540,351352,350869,350869,351352,107
107,test,1,con,1,m,Thu Aug 21 2025 13:52:04 GMT-0500 (Central Daylight Time),355904.60000002384,step,1000,I,m,m,None,434,234.0,200.0,67,3,1979.1000000238419,353925.5,8030,step,AF,C,353085,353085,351356,352368,351356,353335,352885,352885,353335,108
108,test,1,inc,1,z,Thu Aug 21 2025 13:52:04 GMT-0500 (Central Daylight Time),357870.7000000477,step,800,I,z,z,None,626,427.0,199.0,45,3,1961.7999999523163,355908.90000009537,8030,hate,AF,C,354868,354868,353339,354151,353339,355301,354668,354668,355301,109
109,test,1,con,1,z,Thu Aug 21 2025 13:52:04 GMT-0500 (Central Daylight Time),359869.7000000477,rage,900,I,z,z,None,552,352.0,200.0,50,3,1995.2000000476837,357874.5,8030,rage,AF,C,356934,356934,355305,356217,355305,357300,356734,356734,357300,110
110,test,1,con,1,z,Thu Aug 21 2025 13:52:04 GMT-0500 (Central Daylight Time),361785.8000000715,friend,900,I,z,z,None,472,273.0,199.0,26,3,1912.0,359873.8000000715,8030,friend,AF,C,358933,358933,357304,358216,357304,359216,358734,358734,359216,111
111,test,1,inc,1,z,Thu Aug 21 2025 13:52:04 GMT-0500 (Central Daylight Time),363835.3000000715,step,800,I,z,z,None,706,505.0,201.0,53,3,2045.7000000476837,361789.60000002384,8030,rage,AF,C,360750,360750,359220,360032,359220,361265,360549,360549,361265,112
112,test,1,inc,1,z,Thu Aug 21 2025 13:52:04 GMT-0500 (Central Daylight Time),365784.90000009537,step,800,I,z,z,None,600,400.0,200.0,13,3,1945.9000000953674,363839.0,8030,kind,AF,C,362799,362799,361269,362082,361269,363215,362598,362598,363215,113
113,test,1,inc,1,z,Thu Aug 21 2025 13:52:04 GMT-0500 (Central Daylight Time),367900.7000000477,rock,900,I,z,z,None,678,479.0,199.0,46,3,2111.899999976158,365788.8000000715,8030,hate,AF,C,364848,364848,363219,364131,363219,365331,364648,364648,365331,114
114,test,1,con,1,m,Thu Aug 21 2025 13:52:04 GMT-0500 (Central Daylight Time),370216.7000000477,bell,1000,I,m,m,None,775,575.0,200.0,83,3,2312.600000023842,367904.10000002384,8030,bell,AF,C,367064,367064,365334,366347,365334,367647,366864,366864,367647,115
115,test,1,inc,1,z,Thu Aug 21 2025 13:52:04 GMT-0500 (Central Daylight Time),372532.7000000477,window,1100,I,z,z,None,678,479.0,199.0,8,3,2312.2000000476837,370220.5,8030,elated,AF,C,369480,369480,367651,368763,367651,369963,369280,369280,369963,116
116,test,1,inc,1,m,Thu Aug 21 2025 13:52:04 GMT-0500 (Central Daylight Time),374782.10000002384,love,1000,I,m,m,None,702,503.0,199.0,71,3,2245.7999999523163,372536.3000000715,8030,step,AF,C,371696,371696,369966,370980,369967,372212,371496,371496,372212,117
117,test,1,con,1,m,Thu Aug 21 2025 13:52:04 GMT-0500 (Central Daylight Time),376698.2000000477,step,800,I,m,m,None,574,374.0,200.0,65,3,1911.7999999523163,374786.40000009537,8030,step,AF,C,373745,373745,372216,373029,372217,374128,373545,373545,374128,118
118,test,1,con,1,m,Thu Aug 21 2025 13:52:04 GMT-0500 (Central Daylight Time),378780.8000000715,rock,1000,I,m,m,None,537,337.0,200.0,75,3,2079.0,376701.8000000715,8030,rock,AF,C,375861,375861,374132,375145,374132,376211,375661,375661,376211,119
119,test,1,con,1,z,Thu Aug 21 2025 13:52:04 GMT-0500 (Central Daylight Time),380863.5,elated,1000,I,z,z,None,543,343.0,200.0,3,3,2079.0,378784.5,8030,elated,AF,C,377944,377944,376215,377228,376215,378294,377744,377744,378293,120
120,test,1,inc,1,m,Thu Aug 21 2025 13:52:04 GMT-0500 (Central Daylight Time),383312.5,hate,1100,I,m,m,None,801,601.0,200.0,72,3,2445.5999999046326,380866.90000009537,8030,step,AF,C,380126,380126,378297,379410,378297,380743,379926,379926,380743,121
121,test,1,con,1,z,Thu Aug 21 2025 13:52:04 GMT-0500 (Central Daylight Time),385528.5,hate,1100,I,z,z,None,575,375.0,200.0,44,3,2212.2999999523163,383316.2000000477,8030,hate,AF,C,382576,382576,380746,381859,380747,382959,382376,382376,382959,122
122,test,1,con,1,m,Thu Aug 21 2025 13:52:04 GMT-0500 (Central Daylight Time),387661.3000000715,window,900,I,m,m,None,686,487.0,199.0,122,3,2129.3000000715256,385532.0,8030,window,AF,C,384592,384592,382962,383875,382962,385091,384392,384392,385091,123
123,test,1,con,1,m,Thu Aug 21 2025 13:52:04 GMT-0500 (Central Daylight Time),389477.60000002384,remote,800,I,m,m,None,470,271.0,199.0,113,3,1811.8999999761581,387665.7000000477,8030,remote,AF,C,386624,386624,385096,385908,385096,386908,386425,386425,386908,124
124,test,1,inc,1,m,Thu Aug 21 2025 13:52:04 GMT-0500 (Central Daylight Time),391843.3000000715,friend,1100,I,m,m,None,723,523.0,200.0,104,3,2362.2000000476837,389481.10000002384,8030,jacket,AF,C,388740,388740,386911,388024,386911,389273,388540,388540,389273,125
125,test,1,con,1,m,Thu Aug 21 2025 13:52:04 GMT-0500 (Central Daylight Time),393825.8000000715,step,900,I,m,m,None,547,297.0,250.0,66,3,1978.8000000715256,391847.0,8030,step,AF,C,390958,390958,389277,390190,389277,391256,390707,390707,391256,126
126,test,1,inc,1,z,Thu Aug 21 2025 13:52:04 GMT-0500 (Central Daylight Time),396175.10000002384,remote,1000,I,z,z,None,801,601.0,200.0,63,3,2345.6999999284744,393829.40000009537,8030,temper,AF,C,392990,392990,391259,392273,391260,393605,392789,392789,393605,127
127,test,1,inc,1,z,Thu Aug 21 2025 13:52:04 GMT-0500 (Central Daylight Time),398258.10000002384,jacket,800,I,z,z,None,740,541.0,199.0,61,3,2079.100000023842,396179.0,8030,temper,AF,C,395138,395138,393609,394422,393609,395688,394939,394939,395688,128
