Number,acc_sum,block,block_c,block_cond,con_img,correct,correct_response,datetime,endtime,jitter,project,response,response_time,row_sel,session_number,start_end,starttime,subject_id,task,task_vers,trial
7,1,prac,1,A,circle.png,1,m,Thu May 29 2025 11:22:21 GMT-0500 (Central Daylight Time),48790.90000000596,1700,I,m,1492,6,2,3976.800000011921,44814.09999999404,8024,NTS,C,1
4,2,prac,1,A,circle.png,1,z,Thu May 29 2025 11:22:21 GMT-0500 (Central Daylight Time),51706.5,1400,I,z,730,4,2,2908.2000000178814,48798.29999998212,8024,NTS,C,2
7,3,prac,1,A,circle.png,1,m,Thu May 29 2025 11:22:21 GMT-0500 (Central Daylight Time),55055.29999998212,1700,I,m,859,6,2,3343.699999988079,51711.59999999404,8024,NTS,C,3
2,4,prac,1,A,circle.png,1,z,Thu May 29 2025 11:22:21 GMT-0500 (Central Daylight Time),58437.69999998808,2000,I,z,595,2,2,3376.9000000059605,55060.79999998212,8024,NTS,C,4
4,5,prac,1,A,circle.png,1,z,Thu May 29 2025 11:22:21 GMT-0500 (Central Daylight Time),61253.69999998808,1400,I,z,627,4,2,2810.7999999821186,58442.90000000596,8024,NTS,C,5
6,6,prac,1,A,circle.png,1,m,Thu May 29 2025 11:22:21 GMT-0500 (Central Daylight Time),64452.40000000596,1900,I,m,511,5,2,3193.2000000178814,61259.19999998808,8024,NTS,C,6
9,7,prac,1,A,circle.png,1,m,Thu May 29 2025 11:22:21 GMT-0500 (Central Daylight Time),67484.79999998212,1500,I,m,738,8,2,3027.2999999821186,64457.5,8024,NTS,C,7
1,8,prac,1,A,circle.png,1,z,Thu May 29 2025 11:22:21 GMT-0500 (Central Daylight Time),69867.79999998212,1000,I,z,596,1,2,2377.899999976158,67489.90000000596,8024,NTS,C,8
6,9,prac,1,A,circle.png,1,m,Thu May 29 2025 11:22:21 GMT-0500 (Central Daylight Time),73133.09999999404,1900,I,m,579,5,2,3260.0999999940395,69873.0,8024,NTS,C,9
2,10,prac,1,A,circle.png,1,z,Thu May 29 2025 11:22:21 GMT-0500 (Central Daylight Time),76415.5,2000,I,z,492,2,2,3276.7000000178814,73138.79999998212,8024,NTS,C,10
3,11,prac,1,A,circle.png,1,z,Thu May 29 2025 11:22:21 GMT-0500 (Central Daylight Time),79093.29999998212,1200,I,z,586,3,2,2672.5,76420.79999998212,8024,NTS,C,11
8,12,prac,1,A,circle.png,1,m,Thu May 29 2025 11:22:21 GMT-0500 (Central Daylight Time),82063.79999998212,1600,I,m,575,7,2,2964.5,79099.29999998212,8024,NTS,C,12
4,1,prac,1,B,triangle.png,1,m,Thu May 29 2025 11:22:21 GMT-0500 (Central Daylight Time),101957.5,1500,I,m,686,4,2,2978.0,98979.5,8024,NTS,C,1
7,2,prac,1,B,triangle.png,1,z,Thu May 29 2025 11:22:21 GMT-0500 (Central Daylight Time),105456.40000000596,2000,I,z,709,6,2,3493.2000000178814,101963.19999998808,8024,NTS,C,2
7,3,prac,1,B,triangle.png,1,z,Thu May 29 2025 11:22:21 GMT-0500 (Central Daylight Time),108855.40000000596,2000,I,z,602,6,2,3393.800000011921,105461.59999999404,8024,NTS,C,3
9,4,prac,1,B,triangle.png,1,z,Thu May 29 2025 11:22:21 GMT-0500 (Central Daylight Time),112054.40000000596,1400,I,z,1010,8,2,3193.800000011921,108860.59999999404,8024,NTS,C,4
2,5,prac,1,B,triangle.png,1,m,Thu May 29 2025 11:22:21 GMT-0500 (Central Daylight Time),115453.29999998212,1700,I,m,903,2,2,3393.7999999821186,112059.5,8024,NTS,C,5
4,6,prac,1,B,triangle.png,1,m,Thu May 29 2025 11:22:21 GMT-0500 (Central Daylight Time),118369.0,1500,I,m,616,4,2,2911.0,115458.0,8024,NTS,C,6
6,7,prac,1,B,triangle.png,1,m,Thu May 29 2025 11:22:21 GMT-0500 (Central Daylight Time),120651.40000000596,1000,I,m,497,5,2,2277.300000011921,118374.09999999404,8024,NTS,C,7
3,8,prac,1,B,triangle.png,1,z,Thu May 29 2025 11:22:21 GMT-0500 (Central Daylight Time),123534.0,1600,I,z,494,3,2,2877.5,120656.5,8024,NTS,C,8
6,9,prac,1,B,triangle.png,1,m,Thu May 29 2025 11:22:21 GMT-0500 (Central Daylight Time),126207.29999998212,1000,I,m,867,5,2,2668.199999988079,123539.09999999404,8024,NTS,C,9
1,10,prac,1,B,triangle.png,1,z,Thu May 29 2025 11:22:21 GMT-0500 (Central Daylight Time),129615.5,1900,I,z,718,1,2,3402.9000000059605,126212.59999999404,8024,NTS,C,10
8,11,prac,1,B,triangle.png,1,m,Thu May 29 2025 11:22:21 GMT-0500 (Central Daylight Time),132281.19999998808,1200,I,m,667,7,2,2660.699999988079,129620.5,8024,NTS,C,11
1,12,prac,1,B,triangle.png,1,z,Thu May 29 2025 11:22:21 GMT-0500 (Central Daylight Time),135646.79999998212,1900,I,z,676,1,2,3360.7999999821186,132286.0,8024,NTS,C,12
8,1,test,1,A,circle.png,1,m,Thu May 29 2025 11:22:21 GMT-0500 (Central Daylight Time),155824.09999999404,1600,I,m,711,7,2,2328.699999988079,153495.40000000596,8024,NTS,C,1
4,2,test,1,A,circle.png,1,z,Thu May 29 2025 11:22:21 GMT-0500 (Central Daylight Time),157873.40000000596,1400,I,z,625,4,2,2045.2000000178814,155828.19999998808,8024,NTS,C,2
1,3,test,1,A,circle.png,1,z,Thu May 29 2025 11:22:21 GMT-0500 (Central Daylight Time),159722.5,1000,I,z,824,1,2,1845.5,157877.0,8024,NTS,C,3
9,4,test,1,A,circle.png,1,m,Thu May 29 2025 11:22:21 GMT-0500 (Central Daylight Time),161888.40000000596,1500,I,m,635,8,2,2162.300000011921,159726.09999999404,8024,NTS,C,4
3,5,test,1,A,circle.png,1,z,Thu May 29 2025 11:22:21 GMT-0500 (Central Daylight Time),163637.90000000596,1200,I,z,520,3,2,1745.800000011921,161892.09999999404,8024,NTS,C,5
9,6,test,1,A,circle.png,1,m,Thu May 29 2025 11:22:21 GMT-0500 (Central Daylight Time),166053.79999998212,1500,I,m,887,8,2,2412.0999999940395,163641.69999998808,8024,NTS,C,6
3,7,test,1,A,circle.png,1,z,Thu May 29 2025 11:22:21 GMT-0500 (Central Daylight Time),167936.59999999404,1200,I,z,659,3,2,1879.0999999940395,166057.5,8024,NTS,C,7
2,7,test,1,A,circle.png,0,z,Thu May 29 2025 11:22:21 GMT-0500 (Central Daylight Time),171285.59999999404,2000,I,m,1320,2,2,3345.4000000059605,167940.19999998808,8024,NTS,C,8
6,8,test,1,A,circle.png,1,m,Thu May 29 2025 11:22:21 GMT-0500 (Central Daylight Time),174018.09999999404,1900,I,m,785,5,2,2728.5999999940395,171289.5,8024,NTS,C,9
2,9,test,1,A,circle.png,1,z,Thu May 29 2025 11:22:21 GMT-0500 (Central Daylight Time),176800.29999998212,2000,I,z,751,2,2,2778.399999976158,174021.90000000596,8024,NTS,C,10
2,10,test,1,A,circle.png,1,z,Thu May 29 2025 11:22:21 GMT-0500 (Central Daylight Time),179399.69999998808,2000,I,z,577,2,2,2595.9000000059605,176803.79999998212,8024,NTS,C,11
7,11,test,1,A,circle.png,1,m,Thu May 29 2025 11:22:21 GMT-0500 (Central Daylight Time),181732.40000000596,1700,I,m,613,6,2,2329.100000023842,179403.29999998212,8024,NTS,C,12
6,12,test,1,A,circle.png,1,m,Thu May 29 2025 11:22:21 GMT-0500 (Central Daylight Time),184914.5,1900,I,m,1257,5,2,3178.2000000178814,181736.29999998212,8024,NTS,C,13
3,13,test,1,A,circle.png,1,z,Thu May 29 2025 11:22:21 GMT-0500 (Central Daylight Time),186880.59999999404,1200,I,z,735,3,2,1962.0999999940395,184918.5,8024,NTS,C,14
9,14,test,1,A,circle.png,1,m,Thu May 29 2025 11:22:21 GMT-0500 (Central Daylight Time),189346.5,1500,I,m,940,8,2,2461.9000000059605,186884.59999999404,8024,NTS,C,15
3,15,test,1,A,circle.png,1,z,Thu May 29 2025 11:22:21 GMT-0500 (Central Daylight Time),191346.0,1200,I,z,774,3,2,1995.9000000059605,189350.09999999404,8024,NTS,C,16
4,16,test,1,A,circle.png,1,z,Thu May 29 2025 11:22:21 GMT-0500 (Central Daylight Time),193878.69999998808,1400,I,z,1111,4,2,2529.199999988079,191349.5,8024,NTS,C,17
1,17,test,1,A,circle.png,1,z,Thu May 29 2025 11:22:21 GMT-0500 (Central Daylight Time),195677.90000000596,1000,I,z,778,1,2,1795.2000000178814,193882.69999998808,8024,NTS,C,18
6,18,test,1,A,circle.png,1,m,Thu May 29 2025 11:22:21 GMT-0500 (Central Daylight Time),198310.5,1900,I,m,703,5,2,2629.300000011921,195681.19999998808,8024,NTS,C,19
8,19,test,1,A,circle.png,1,m,Thu May 29 2025 11:22:21 GMT-0500 (Central Daylight Time),200743.09999999404,1600,I,m,803,7,2,2429.0999999940395,198314.0,8024,NTS,C,20
1,20,test,1,A,circle.png,1,z,Thu May 29 2025 11:22:21 GMT-0500 (Central Daylight Time),202392.59999999404,1000,I,z,618,1,2,1645.5999999940395,200747.0,8024,NTS,C,21
4,21,test,1,A,circle.png,1,z,Thu May 29 2025 11:22:21 GMT-0500 (Central Daylight Time),204525.19999998808,1400,I,z,705,4,2,2129.4000000059605,202395.79999998212,8024,NTS,C,22
6,22,test,1,A,circle.png,1,m,Thu May 29 2025 11:22:21 GMT-0500 (Central Daylight Time),207124.19999998808,1900,I,m,673,5,2,2595.4000000059605,204528.79999998212,8024,NTS,C,23
7,23,test,1,A,circle.png,1,m,Thu May 29 2025 11:22:21 GMT-0500 (Central Daylight Time),209556.69999998808,1700,I,m,705,6,2,2428.9000000059605,207127.79999998212,8024,NTS,C,24
1,0,test,1,B,triangle.png,0,z,Thu May 29 2025 11:22:21 GMT-0500 (Central Daylight Time),219204.0,1400,I,None,1516,9,2,2929.4000000059605,216274.59999999404,8024,NTS,C,1
4,1,test,1,B,triangle.png,1,m,Thu May 29 2025 11:22:21 GMT-0500 (Central Daylight Time),221986.5,1500,I,m,1257,4,2,2778.800000011921,219207.69999998808,8024,NTS,C,2
3,2,test,1,B,triangle.png,1,z,Thu May 29 2025 11:22:21 GMT-0500 (Central Daylight Time),224885.19999998808,2000,I,z,871,11,2,2895.0999999940395,221990.09999999404,8024,NTS,C,3
9,3,test,1,B,triangle.png,1,z,Thu May 29 2025 11:22:21 GMT-0500 (Central Daylight Time),227384.69999998808,1400,I,z,1077,8,2,2495.5,224889.19999998808,8024,NTS,C,4
3,4,test,1,B,triangle.png,1,z,Thu May 29 2025 11:22:21 GMT-0500 (Central Daylight Time),229850.59999999404,1600,I,z,849,3,2,2462.4000000059605,227388.19999998808,8024,NTS,C,5
6,5,test,1,B,triangle.png,1,m,Thu May 29 2025 11:22:21 GMT-0500 (Central Daylight Time),232216.40000000596,1500,I,m,835,13,2,2362.600000023842,229853.79999998212,8024,NTS,C,6
3,6,test,1,B,triangle.png,1,z,Thu May 29 2025 11:22:21 GMT-0500 (Central Daylight Time),235183.40000000596,2000,I,z,937,11,2,2963.300000011921,232220.09999999404,8024,NTS,C,7
1,7,test,1,B,triangle.png,1,z,Thu May 29 2025 11:22:21 GMT-0500 (Central Daylight Time),237914.79999998212,1900,I,z,800,1,2,2727.7999999821186,235187.0,8024,NTS,C,8
2,8,test,1,B,triangle.png,1,m,Thu May 29 2025 11:22:21 GMT-0500 (Central Daylight Time),240430.59999999404,1700,I,m,796,2,2,2512.0,237918.59999999404,8024,NTS,C,9
1,9,test,1,B,triangle.png,1,z,Thu May 29 2025 11:22:21 GMT-0500 (Central Daylight Time),243563.09999999404,1900,I,z,1200,1,2,3128.4000000059605,240434.69999998808,8024,NTS,C,10
9,10,test,1,B,triangle.png,1,z,Thu May 29 2025 11:22:21 GMT-0500 (Central Daylight Time),246362.0,1900,I,z,866,16,2,2795.0999999940395,243566.90000000596,8024,NTS,C,11
2,11,test,1,B,triangle.png,1,m,Thu May 29 2025 11:22:21 GMT-0500 (Central Daylight Time),248311.40000000596,1200,I,m,727,10,2,1945.7000000178814,246365.69999998808,8024,NTS,C,12
8,12,test,1,B,triangle.png,1,m,Thu May 29 2025 11:22:21 GMT-0500 (Central Daylight Time),250877.19999998808,1700,I,m,839,15,2,2562.2999999821186,248314.90000000596,8024,NTS,C,13
9,13,test,1,B,triangle.png,1,z,Thu May 29 2025 11:22:21 GMT-0500 (Central Daylight Time),253009.79999998212,1400,I,z,700,8,2,2128.899999976158,250880.90000000596,8024,NTS,C,14
8,14,test,1,B,triangle.png,1,m,Thu May 29 2025 11:22:21 GMT-0500 (Central Daylight Time),255442.40000000596,1700,I,m,699,15,2,2428.7000000178814,253013.69999998808,8024,NTS,C,15
8,15,test,1,B,triangle.png,1,m,Thu May 29 2025 11:22:21 GMT-0500 (Central Daylight Time),257325.40000000596,1200,I,m,663,7,2,1879.1000000238419,255446.29999998212,8024,NTS,C,16
3,16,test,1,B,triangle.png,1,z,Thu May 29 2025 11:22:21 GMT-0500 (Central Daylight Time),259941.09999999404,1600,I,z,996,3,2,2612.199999988079,257328.90000000596,8024,NTS,C,17
4,17,test,1,B,triangle.png,1,m,Thu May 29 2025 11:22:21 GMT-0500 (Central Daylight Time),261907.19999998808,1000,I,m,940,12,2,1962.4000000059605,259944.79999998212,8024,NTS,C,18
7,18,test,1,B,triangle.png,1,z,Thu May 29 2025 11:22:21 GMT-0500 (Central Daylight Time),264206.2999999821,1600,I,z,670,14,2,2295.5,261910.79999998212,8024,NTS,C,19
6,19,test,1,B,triangle.png,1,m,Thu May 29 2025 11:22:21 GMT-0500 (Central Daylight Time),265789.1999999881,1000,I,m,563,5,2,1579.5,264209.6999999881,8024,NTS,C,20
6,20,test,1,B,triangle.png,1,m,Thu May 29 2025 11:22:21 GMT-0500 (Central Daylight Time),268671.59999999404,1500,I,m,1222,13,2,2878.699999988079,265792.90000000596,8024,NTS,C,21
7,21,test,1,B,triangle.png,1,z,Thu May 29 2025 11:22:21 GMT-0500 (Central Daylight Time),270970.90000000596,1600,I,z,682,14,2,2295.5,268675.40000000596,8024,NTS,C,22
7,21,test,1,B,triangle.png,0,z,Thu May 29 2025 11:22:21 GMT-0500 (Central Daylight Time),273736.59999999404,2000,I,m,743,6,2,2762.5,270974.09999999404,8024,NTS,C,23
6,22,test,1,B,triangle.png,1,m,Thu May 29 2025 11:22:21 GMT-0500 (Central Daylight Time),275519.40000000596,1000,I,m,753,5,2,1779.2000000178814,273740.1999999881,8024,NTS,C,24
3,0,prac,1,C,triangle.png,0,z,Thu May 29 2025 11:22:21 GMT-0500 (Central Daylight Time),309725.40000000596,1500,I,None,1515,3,2,3794.5,305930.90000000596,8024,NTS,C,1
3,1,prac,1,C,triangle.png,1,z,Thu May 29 2025 11:22:21 GMT-0500 (Central Daylight Time),312558.0,1500,I,z,545,3,2,2827.4000000059605,309730.59999999404,8024,NTS,C,2
9,2,prac,1,C,circle.png,1,m,Thu May 29 2025 11:22:21 GMT-0500 (Central Daylight Time),316523.5,1900,I,m,1139,8,2,3960.9000000059605,312562.59999999404,8024,NTS,C,3
2,2,prac,1,C,triangle.png,0,m,Thu May 29 2025 11:22:21 GMT-0500 (Central Daylight Time),320422.0,1600,I,None,1516,2,2,3894.0999999940395,316527.90000000596,8024,NTS,C,4
7,3,prac,1,C,triangle.png,1,z,Thu May 29 2025 11:22:21 GMT-0500 (Central Daylight Time),323621.09999999404,1200,I,z,1211,6,2,3192.4000000059605,320428.6999999881,8024,NTS,C,5
6,4,prac,1,C,circle.png,1,m,Thu May 29 2025 11:22:21 GMT-0500 (Central Daylight Time),327336.59999999404,2000,I,m,924,5,2,3710.5,323626.09999999404,8024,NTS,C,6
1,5,prac,1,C,circle.png,1,z,Thu May 29 2025 11:22:21 GMT-0500 (Central Daylight Time),330752.09999999404,1700,I,z,917,1,2,3410.800000011921,327341.2999999821,8024,NTS,C,7
4,6,prac,1,C,circle.png,1,z,Thu May 29 2025 11:22:21 GMT-0500 (Central Daylight Time),333534.7999999821,1000,I,z,985,4,2,2777.899999976158,330756.90000000596,8024,NTS,C,8
9,7,prac,1,C,circle.png,1,m,Thu May 29 2025 11:22:21 GMT-0500 (Central Daylight Time),337233.40000000596,1900,I,m,1015,8,2,3693.4000000059605,333540.0,8024,NTS,C,9
2,7,prac,1,C,triangle.png,0,m,Thu May 29 2025 11:22:21 GMT-0500 (Central Daylight Time),341132.1999999881,1600,I,None,1516,2,2,3894.0999999940395,337238.09999999404,8024,NTS,C,10
4,7,prac,1,C,circle.png,0,z,Thu May 29 2025 11:22:21 GMT-0500 (Central Daylight Time),344431.1999999881,1000,I,None,1516,4,2,3294.199999988079,341137.0,8024,NTS,C,11
8,8,prac,1,C,triangle.png,1,m,Thu May 29 2025 11:22:21 GMT-0500 (Central Daylight Time),347830.1999999881,1400,I,m,1210,7,2,3394.0999999940395,344436.09999999404,8024,NTS,C,12
4,1,test,1,C,circle.png,1,z,Thu May 29 2025 11:22:21 GMT-0500 (Central Daylight Time),358793.2999999821,1400,I,z,1267,4,2,2694.5,356098.7999999821,8024,NTS,C,1
2,2,test,1,C,circle.png,1,z,Thu May 29 2025 11:22:21 GMT-0500 (Central Daylight Time),361458.90000000596,1700,I,z,948,18,2,2661.300000011921,358797.59999999404,8024,NTS,C,2
7,2,test,1,C,triangle.png,0,z,Thu May 29 2025 11:22:21 GMT-0500 (Central Daylight Time),364691.40000000596,1700,I,None,1515,22,2,3229.100000023842,361462.2999999821,8024,NTS,C,3
7,2,test,1,C,circle.png,0,m,Thu May 29 2025 11:22:21 GMT-0500 (Central Daylight Time),367690.59999999404,2000,I,z,982,14,2,2995.5,364695.09999999404,8024,NTS,C,4
6,2,test,1,C,circle.png,0,m,Thu May 29 2025 11:22:21 GMT-0500 (Central Daylight Time),371122.90000000596,1900,I,None,1516,21,2,3427.600000023842,367695.2999999821,8024,NTS,C,5
8,2,test,1,C,triangle.png,0,m,Thu May 29 2025 11:22:21 GMT-0500 (Central Daylight Time),374255.1999999881,1600,I,None,1515,23,2,3128.4000000059605,371126.7999999821,8024,NTS,C,6
1,3,test,1,C,circle.png,1,z,Thu May 29 2025 11:22:21 GMT-0500 (Central Daylight Time),376487.7999999821,1000,I,z,1210,1,2,2228.7999999821186,374259.0,8024,NTS,C,7
9,4,test,1,C,circle.png,1,m,Thu May 29 2025 11:22:21 GMT-0500 (Central Daylight Time),379237.0,1500,I,m,1229,8,2,2745.5999999940395,376491.40000000596,8024,NTS,C,8
2,5,test,1,C,triangle.png,1,m,Thu May 29 2025 11:22:21 GMT-0500 (Central Daylight Time),382552.59999999404,2000,I,m,1292,2,2,3311.5999999940395,379241.0,8024,NTS,C,9
6,6,test,1,C,circle.png,1,m,Thu May 29 2025 11:22:21 GMT-0500 (Central Daylight Time),385201.5,1900,I,m,725,5,2,2645.0,382556.5,8024,NTS,C,10
1,6,test,1,C,triangle.png,0,z,Thu May 29 2025 11:22:21 GMT-0500 (Central Daylight Time),388634.09999999404,1900,I,None,1515,17,2,3428.699999988079,385205.40000000596,8024,NTS,C,11
1,7,test,1,C,triangle.png,1,z,Thu May 29 2025 11:22:21 GMT-0500 (Central Daylight Time),391599.6999999881,1900,I,z,1036,9,2,2962.0,388637.6999999881,8024,NTS,C,12
8,8,test,1,C,circle.png,1,m,Thu May 29 2025 11:22:21 GMT-0500 (Central Daylight Time),393899.0,1200,I,m,1073,15,2,2295.5,391603.5,8024,NTS,C,13
2,9,test,1,C,circle.png,1,z,Thu May 29 2025 11:22:21 GMT-0500 (Central Daylight Time),396431.5,1700,I,z,802,10,2,2528.7000000178814,393902.7999999821,8024,NTS,C,14
9,10,test,1,C,triangle.png,1,z,Thu May 29 2025 11:22:21 GMT-0500 (Central Daylight Time),398714.2999999821,1400,I,z,858,16,2,2279.2999999821186,396435.0,8024,NTS,C,15
7,11,test,1,C,triangle.png,1,z,Thu May 29 2025 11:22:21 GMT-0500 (Central Daylight Time),401196.6999999881,1700,I,z,763,6,2,2479.0999999940395,398717.59999999404,8024,NTS,C,16
3,12,test,1,C,circle.png,1,z,Thu May 29 2025 11:22:21 GMT-0500 (Central Daylight Time),403945.6999999881,1600,I,z,1117,11,2,2745.5,401200.1999999881,8024,NTS,C,17
4,13,test,1,C,triangle.png,1,m,Thu May 29 2025 11:22:21 GMT-0500 (Central Daylight Time),406695.0,1500,I,m,1228,12,2,2745.5999999940395,403949.40000000596,8024,NTS,C,18
8,13,test,1,C,triangle.png,0,m,Thu May 29 2025 11:22:21 GMT-0500 (Central Daylight Time),409827.5,1600,I,None,1515,7,2,3128.9000000059605,406698.59999999404,8024,NTS,C,19
3,14,test,1,C,triangle.png,1,z,Thu May 29 2025 11:22:21 GMT-0500 (Central Daylight Time),412242.90000000596,1200,I,z,1198,3,2,2412.0,409830.90000000596,8024,NTS,C,20
3,15,test,1,C,circle.png,1,z,Thu May 29 2025 11:22:21 GMT-0500 (Central Daylight Time),414925.59999999404,1600,I,z,1062,19,2,2679.300000011921,412246.2999999821,8024,NTS,C,21
4,16,test,1,C,triangle.png,1,m,Thu May 29 2025 11:22:21 GMT-0500 (Central Daylight Time),417425.0,1500,I,m,975,20,2,2494.9000000059605,414930.09999999404,8024,NTS,C,22
6,17,test,1,C,triangle.png,1,m,Thu May 29 2025 11:22:21 GMT-0500 (Central Daylight Time),419074.40000000596,1000,I,m,624,13,2,1645.6000000238419,417428.7999999821,8024,NTS,C,23
9,18,test,1,C,circle.png,1,m,Thu May 29 2025 11:22:21 GMT-0500 (Central Daylight Time),421740.40000000596,1500,I,m,1139,24,2,2662.4000000059605,419078.0,8024,NTS,C,24
3,1,test,2,C,circle.png,1,z,Thu May 29 2025 11:22:21 GMT-0500 (Central Daylight Time),429038.0,1600,I,z,1320,19,2,2946.0999999940395,426091.90000000596,8024,NTS,C,1
8,2,test,2,C,triangle.png,1,m,Thu May 29 2025 11:22:21 GMT-0500 (Central Daylight Time),431354.09999999404,1600,I,m,691,7,2,2312.0,429042.09999999404,8024,NTS,C,2
1,3,test,2,C,circle.png,1,z,Thu May 29 2025 11:22:21 GMT-0500 (Central Daylight Time),433236.59999999404,1000,I,z,809,1,2,1879.0,431357.59999999404,8024,NTS,C,3
7,4,test,2,C,circle.png,1,m,Thu May 29 2025 11:22:21 GMT-0500 (Central Daylight Time),436052.2999999821,2000,I,m,789,14,2,2812.0,433240.2999999821,8024,NTS,C,4
4,5,test,2,C,circle.png,1,z,Thu May 29 2025 11:22:21 GMT-0500 (Central Daylight Time),438268.59999999404,1400,I,z,789,4,2,2212.4000000059605,436056.1999999881,8024,NTS,C,5
4,6,test,2,C,triangle.png,1,m,Thu May 29 2025 11:22:21 GMT-0500 (Central Daylight Time),440867.5,1500,I,m,1081,20,2,2595.300000011921,438272.1999999881,8024,NTS,C,6
6,7,test,2,C,circle.png,1,m,Thu May 29 2025 11:22:21 GMT-0500 (Central Daylight Time),443950.09999999404,1900,I,m,1162,5,2,3078.699999988079,440871.40000000596,8024,NTS,C,7
4,7,test,2,C,triangle.png,0,m,Thu May 29 2025 11:22:21 GMT-0500 (Central Daylight Time),446982.2999999821,1500,I,None,1515,12,2,3028.699999988079,443953.59999999404,8024,NTS,C,8
8,8,test,2,C,circle.png,1,m,Thu May 29 2025 11:22:21 GMT-0500 (Central Daylight Time),449248.0,1200,I,m,1035,23,2,2262.300000011921,446985.6999999881,8024,NTS,C,9
1,9,test,2,C,triangle.png,1,z,Thu May 29 2025 11:22:21 GMT-0500 (Central Daylight Time),451830.59999999404,1900,I,z,653,9,2,2578.9000000059605,449251.6999999881,8024,NTS,C,10
6,9,test,2,C,triangle.png,0,m,Thu May 29 2025 11:22:21 GMT-0500 (Central Daylight Time),454363.40000000596,1000,I,None,1515,13,2,2529.0,451834.40000000596,8024,NTS,C,11
9,10,test,2,C,triangle.png,1,z,Thu May 29 2025 11:22:21 GMT-0500 (Central Daylight Time),456879.2999999821,1400,I,z,1094,24,2,2512.2999999821186,454367.0,8024,NTS,C,12
9,11,test,2,C,circle.png,1,m,Thu May 29 2025 11:22:21 GMT-0500 (Central Daylight Time),459011.90000000596,1500,I,m,606,8,2,2128.7000000178814,456883.1999999881,8024,NTS,C,13
7,12,test,2,C,circle.png,1,m,Thu May 29 2025 11:22:21 GMT-0500 (Central Daylight Time),462077.5,2000,I,m,1038,22,2,3061.5999999940395,459015.90000000596,8024,NTS,C,14
7,13,test,2,C,triangle.png,1,z,Thu May 29 2025 11:22:21 GMT-0500 (Central Daylight Time),464876.6999999881,1700,I,z,1072,6,2,2795.2999999821186,462081.40000000596,8024,NTS,C,15
8,14,test,2,C,circle.png,1,m,Thu May 29 2025 11:22:21 GMT-0500 (Central Daylight Time),467142.5,1200,I,m,1045,15,2,2262.0999999940395,464880.40000000596,8024,NTS,C,16
2,15,test,2,C,circle.png,1,z,Thu May 29 2025 11:22:21 GMT-0500 (Central Daylight Time),470158.5,1700,I,z,1295,18,2,3012.5999999940395,467145.90000000596,8024,NTS,C,17
3,16,test,2,C,circle.png,1,z,Thu May 29 2025 11:22:21 GMT-0500 (Central Daylight Time),472990.59999999404,1600,I,z,1203,11,2,2828.300000011921,470162.2999999821,8024,NTS,C,18
2,17,test,2,C,triangle.png,1,m,Thu May 29 2025 11:22:21 GMT-0500 (Central Daylight Time),476239.7999999821,2000,I,m,1219,2,2,3244.7999999821186,472995.0,8024,NTS,C,19
2,17,test,2,C,circle.png,0,z,Thu May 29 2025 11:22:21 GMT-0500 (Central Daylight Time),478605.7999999821,1700,I,m,646,10,2,2362.2999999821186,476243.5,8024,NTS,C,20
9,17,test,2,C,triangle.png,0,z,Thu May 29 2025 11:22:21 GMT-0500 (Central Daylight Time),481538.2999999821,1400,I,None,1515,16,2,2928.7999999821186,478609.5,8024,NTS,C,21
6,18,test,2,C,triangle.png,1,m,Thu May 29 2025 11:22:21 GMT-0500 (Central Daylight Time),483570.6999999881,1000,I,m,1016,21,2,2028.9000000059605,481541.7999999821,8024,NTS,C,22
1,19,test,2,C,triangle.png,1,z,Thu May 29 2025 11:22:21 GMT-0500 (Central Daylight Time),486120.09999999404,1900,I,z,627,17,2,2545.4000000059605,483574.6999999881,8024,NTS,C,23
3,20,test,2,C,triangle.png,1,z,Thu May 29 2025 11:22:21 GMT-0500 (Central Daylight Time),487969.40000000596,1200,I,z,617,3,2,1845.5,486123.90000000596,8024,NTS,C,24
7,0,test,3,C,triangle.png,0,z,Thu May 29 2025 11:22:21 GMT-0500 (Central Daylight Time),492534.6999999881,1700,I,None,1516,6,2,3228.9000000059605,489305.7999999821,8024,NTS,C,1
4,0,test,3,C,circle.png,0,z,Thu May 29 2025 11:22:21 GMT-0500 (Central Daylight Time),495083.90000000596,1400,I,m,1122,20,2,2545.5,492538.40000000596,8024,NTS,C,2
6,0,test,3,C,triangle.png,0,m,Thu May 29 2025 11:22:21 GMT-0500 (Central Daylight Time),497599.6999999881,1000,I,z,1493,13,2,2512.0999999940395,495087.59999999404,8024,NTS,C,3
9,1,test,3,C,circle.png,1,m,Thu May 29 2025 11:22:21 GMT-0500 (Central Daylight Time),500065.6999999881,1500,I,m,942,24,2,2462.0999999940395,497603.59999999404,8024,NTS,C,4
3,2,test,3,C,circle.png,1,z,Thu May 29 2025 11:22:21 GMT-0500 (Central Daylight Time),502848.1999999881,1600,I,z,1160,11,2,2778.5999999940395,500069.59999999404,8024,NTS,C,5
1,3,test,3,C,circle.png,1,z,Thu May 29 2025 11:22:21 GMT-0500 (Central Daylight Time),504564.2999999821,1000,I,z,689,1,2,1712.5,502851.7999999821,8024,NTS,C,6
6,4,test,3,C,circle.png,1,m,Thu May 29 2025 11:22:21 GMT-0500 (Central Daylight Time),507880.1999999881,1900,I,m,1385,21,2,3312.5,504567.6999999881,8024,NTS,C,7
3,5,test,3,C,triangle.png,1,z,Thu May 29 2025 11:22:21 GMT-0500 (Central Daylight Time),510429.0,1200,I,z,1329,19,2,2545.0,507884.0,8024,NTS,C,8
2,6,test,3,C,triangle.png,1,m,Thu May 29 2025 11:22:21 GMT-0500 (Central Daylight Time),513578.0,2000,I,m,1124,18,2,3145.2000000178814,510432.7999999821,8024,NTS,C,9
8,7,test,3,C,triangle.png,1,m,Thu May 29 2025 11:22:21 GMT-0500 (Central Daylight Time),515910.59999999404,1600,I,m,702,23,2,2328.9000000059605,513581.6999999881,8024,NTS,C,10
8,8,test,3,C,circle.png,1,m,Thu May 29 2025 11:22:21 GMT-0500 (Central Daylight Time),518109.90000000596,1200,I,m,970,15,2,2195.5,515914.40000000596,8024,NTS,C,11
9,9,test,3,C,triangle.png,1,z,Thu May 29 2025 11:22:21 GMT-0500 (Central Daylight Time),520759.1999999881,1400,I,z,1219,16,2,2645.199999988079,518114.0,8024,NTS,C,12
4,10,test,3,C,triangle.png,1,m,Thu May 29 2025 11:22:21 GMT-0500 (Central Daylight Time),523374.90000000596,1500,I,m,1086,12,2,2611.9000000059605,520763.0,8024,NTS,C,13
1,11,test,3,C,triangle.png,1,z,Thu May 29 2025 11:22:21 GMT-0500 (Central Daylight Time),526440.7999999821,1900,I,z,1135,9,2,3062.2999999821186,523378.5,8024,NTS,C,14
8,12,test,3,C,triangle.png,1,m,Thu May 29 2025 11:22:21 GMT-0500 (Central Daylight Time),529256.2999999821,1600,I,m,1193,7,2,2812.0,526444.2999999821,8024,NTS,C,15
9,13,test,3,C,circle.png,1,m,Thu May 29 2025 11:22:21 GMT-0500 (Central Daylight Time),531605.6999999881,1500,I,m,829,8,2,2345.5999999940395,529260.099999994,8024,NTS,C,16
3,13,test,3,C,triangle.png,0,z,Thu May 29 2025 11:22:21 GMT-0500 (Central Daylight Time),534338.2999999821,1200,I,None,1515,3,2,2728.899999976158,531609.400000006,8024,NTS,C,17
4,13,test,3,C,circle.png,0,z,Thu May 29 2025 11:22:21 GMT-0500 (Central Daylight Time),537270.7999999821,1400,I,None,1516,4,2,2928.899999976158,534341.900000006,8024,NTS,C,18
6,14,test,3,C,circle.png,1,m,Thu May 29 2025 11:22:21 GMT-0500 (Central Daylight Time),539819.7999999821,1900,I,m,623,5,2,2545.199999988079,537274.599999994,8024,NTS,C,19
2,15,test,3,C,triangle.png,1,m,Thu May 29 2025 11:22:21 GMT-0500 (Central Daylight Time),542868.7999999821,2000,I,m,1030,2,2,3045.199999988079,539823.599999994,8024,NTS,C,20
7,16,test,3,C,triangle.png,1,z,Thu May 29 2025 11:22:21 GMT-0500 (Central Daylight Time),545568.1999999881,1700,I,z,976,22,2,2695.699999988079,542872.5,8024,NTS,C,21
1,17,test,3,C,circle.png,1,z,Thu May 29 2025 11:22:21 GMT-0500 (Central Daylight Time),547584.400000006,1000,I,z,985,17,2,2012.300000011921,545572.099999994,8024,NTS,C,22
7,18,test,3,C,circle.png,1,m,Thu May 29 2025 11:22:21 GMT-0500 (Central Daylight Time),550816.2999999821,2000,I,m,1202,14,2,3228.199999988079,547588.099999994,8024,NTS,C,23
2,19,test,3,C,circle.png,1,z,Thu May 29 2025 11:22:21 GMT-0500 (Central Daylight Time),553532.2999999821,1700,I,z,989,10,2,2712.0999999940395,550820.1999999881,8024,NTS,C,24
2,0,test,4,C,circle.png,0,z,Thu May 29 2025 11:22:21 GMT-0500 (Central Daylight Time),558614.099999994,1700,I,None,1515,10,2,3229.699999988079,555384.400000006,8024,NTS,C,1
9,1,test,4,C,triangle.png,1,z,Thu May 29 2025 11:22:21 GMT-0500 (Central Daylight Time),561146.599999994,1400,I,z,1100,16,2,2528.800000011921,558617.7999999821,8024,NTS,C,2
4,2,test,4,C,triangle.png,1,m,Thu May 29 2025 11:22:21 GMT-0500 (Central Daylight Time),563945.900000006,1500,I,m,1267,12,2,2795.7000000178814,561150.1999999881,8024,NTS,C,3
8,3,test,4,C,triangle.png,1,m,Thu May 29 2025 11:22:21 GMT-0500 (Central Daylight Time),566861.1999999881,1600,I,m,1288,23,2,2911.5999999940395,563949.599999994,8024,NTS,C,4
9,4,test,4,C,circle.png,1,m,Thu May 29 2025 11:22:21 GMT-0500 (Central Daylight Time),569360.1999999881,1500,I,m,976,24,2,2495.2999999821186,566864.900000006,8024,NTS,C,5
7,4,test,4,C,circle.png,0,m,Thu May 29 2025 11:22:21 GMT-0500 (Central Daylight Time),572192.900000006,2000,I,z,801,14,2,2829.0,569363.900000006,8024,NTS,C,6
9,5,test,4,C,circle.png,1,m,Thu May 29 2025 11:22:21 GMT-0500 (Central Daylight Time),575075.1999999881,1500,I,m,1285,8,2,2878.199999988079,572197.0,8024,NTS,C,7
3,6,test,4,C,triangle.png,1,z,Thu May 29 2025 11:22:21 GMT-0500 (Central Daylight Time),577308.099999994,1200,I,z,1006,19,2,2229.4000000059605,575078.6999999881,8024,NTS,C,8
1,7,test,4,C,circle.png,1,z,Thu May 29 2025 11:22:21 GMT-0500 (Central Daylight Time),578924.2999999821,1000,I,z,589,1,2,1612.5999999940395,577311.6999999881,8024,NTS,C,9
3,8,test,4,C,triangle.png,1,z,Thu May 29 2025 11:22:21 GMT-0500 (Central Daylight Time),581240.1999999881,1200,I,z,1093,3,2,2312.4000000059605,578927.7999999821,8024,NTS,C,10
2,9,test,4,C,triangle.png,1,m,Thu May 29 2025 11:22:21 GMT-0500 (Central Daylight Time),584572.2999999821,2000,I,m,1313,18,2,3328.2999999821186,581244.0,8024,NTS,C,11
1,10,test,4,C,triangle.png,1,z,Thu May 29 2025 11:22:21 GMT-0500 (Central Daylight Time),587688.099999994,1900,I,z,1185,9,2,3112.0,584576.099999994,8024,NTS,C,12
7,10,test,4,C,triangle.png,0,z,Thu May 29 2025 11:22:21 GMT-0500 (Central Daylight Time),590920.400000006,1700,I,None,1515,6,2,3224.0,587696.400000006,8024,NTS,C,13
6,11,test,4,C,triangle.png,1,m,Thu May 29 2025 11:22:21 GMT-0500 (Central Daylight Time),592986.5,1000,I,m,1032,13,2,2062.0999999940395,590924.400000006,8024,NTS,C,14
8,12,test,4,C,circle.png,1,m,Thu May 29 2025 11:22:21 GMT-0500 (Central Daylight Time),594885.900000006,1200,I,m,671,15,2,1895.6000000238419,592990.2999999821,8024,NTS,C,15
4,13,test,4,C,circle.png,1,z,Thu May 29 2025 11:22:21 GMT-0500 (Central Daylight Time),597368.2999999821,1400,I,z,1066,20,2,2477.899999976158,594890.400000006,8024,NTS,C,16
1,14,test,4,C,circle.png,1,z,Thu May 29 2025 11:22:21 GMT-0500 (Central Daylight Time),599184.400000006,1000,I,z,793,17,2,1812.2000000178814,597372.1999999881,8024,NTS,C,17
6,15,test,4,C,circle.png,1,m,Thu May 29 2025 11:22:21 GMT-0500 (Central Daylight Time),602483.2999999821,1900,I,m,1381,5,2,3295.399999976158,599187.900000006,8024,NTS,C,18
4,16,test,4,C,circle.png,1,z,Thu May 29 2025 11:22:21 GMT-0500 (Central Daylight Time),604832.400000006,1400,I,z,926,4,2,2345.800000011921,602486.599999994,8024,NTS,C,19
8,17,test,4,C,triangle.png,1,m,Thu May 29 2025 11:22:21 GMT-0500 (Central Daylight Time),607582.0,1600,I,m,1120,7,2,2746.0999999940395,604835.900000006,8024,NTS,C,20
6,17,test,4,C,circle.png,0,m,Thu May 29 2025 11:22:21 GMT-0500 (Central Daylight Time),611014.099999994,1900,I,None,1516,21,2,3428.199999988079,607585.900000006,8024,NTS,C,21
3,18,test,4,C,circle.png,1,z,Thu May 29 2025 11:22:21 GMT-0500 (Central Daylight Time),613396.5,1600,I,z,755,11,2,2379.0,611017.5,8024,NTS,C,22
2,19,test,4,C,triangle.png,1,m,Thu May 29 2025 11:22:21 GMT-0500 (Central Daylight Time),616745.2999999821,2000,I,m,1325,2,2,3344.2999999821186,613401.0,8024,NTS,C,23
7,20,test,4,C,triangle.png,1,z,Thu May 29 2025 11:22:21 GMT-0500 (Central Daylight Time),619211.1999999881,1700,I,z,748,22,2,2462.0,616749.1999999881,8024,NTS,C,24
