block_c,block_dur,condition,countdown,datetime,endtime,list,multichar_response,project,response,response_time,session_number,start_end,starttime,subject_id,task,task_vers,trial
,,,,Wed Apr 22 2026 15:38:32 GMT-0500 (Central Daylight Time),,,,I,space,759,2,,,8096,WL,B,
prac,,0,,Wed Apr 22 2026 15:38:32 GMT-0500 (Central Daylight Time),,NA,b,I,b,3208,2,,,8096,WL,B,1.0
prac,,0,,Wed Apr 22 2026 15:38:32 GMT-0500 (Central Daylight Time),,NA,bo,I,o,130,2,,,8096,WL,B,1.0
prac,,0,,Wed Apr 22 2026 15:38:32 GMT-0500 (Central Daylight Time),,NA,boo,I,o,142,2,,,8096,WL,B,1.0
prac,,0,,Wed Apr 22 2026 15:38:32 GMT-0500 (Central Daylight Time),,NA,boos,I,s,104,2,,,8096,WL,B,1.0
prac,,0,,Wed Apr 22 2026 15:38:32 GMT-0500 (Central Daylight Time),,NA,boost,I,t,67,2,,,8096,WL,B,1.0
prac,,0,,Wed Apr 22 2026 15:38:32 GMT-0500 (Central Daylight Time),,NA,boostenter,I,enter,1359,2,,,8096,WL,B,1.0
1,0.4660000801086426,learn,59533.99991989136,Wed Apr 22 2026 15:38:32 GMT-0500 (Central Daylight Time),153074.0,A,s,I,s,458,2,465.89999997615814,152608.10000002384,8096,WL,B,1.0
1,0.5989999771118164,learn,59401.00002288818,Wed Apr 22 2026 15:38:32 GMT-0500 (Central Daylight Time),153207.20000001788,A,st,I,t,118,2,599.0999999940395,152608.10000002384,8096,WL,B,1.0
1,0.9839999675750732,learn,59016.00003242493,Wed Apr 22 2026 15:38:32 GMT-0500 (Central Daylight Time),153591.60000002384,A,str,I,r,363,2,983.5,152608.10000002384,8096,WL,B,1.0
1,1.1660001277923584,learn,58833.99987220764,Wed Apr 22 2026 15:38:32 GMT-0500 (Central Daylight Time),153773.60000002384,A,stre,I,e,163,2,1165.5,152608.10000002384,8096,WL,B,1.0
1,1.315999984741211,learn,58684.00001525879,Wed Apr 22 2026 15:38:32 GMT-0500 (Central Daylight Time),153923.70000001788,A,stree,I,e,141,2,1315.5999999940395,152608.10000002384,8096,WL,B,1.0
1,1.5989999771118164,learn,58401.00002288818,Wed Apr 22 2026 15:38:32 GMT-0500 (Central Daylight Time),154207.0,A,street,I,t,271,2,1598.8999999761581,152608.10000002384,8096,WL,B,1.0
1,2.0160000324249268,learn,57983.99996757507,Wed Apr 22 2026 15:38:32 GMT-0500 (Central Daylight Time),154623.5,A,streetenter,I,enter,395,2,2015.3999999761581,152608.10000002384,8096,WL,B,1.0
1,2.449000120162964,learn,57550.999879837036,Wed Apr 22 2026 15:38:32 GMT-0500 (Central Daylight Time),155056.80000001192,A,g,I,g,418,2,432.90000000596046,154623.90000000596,8096,WL,B,2.0
1,2.631999969482422,learn,57368.00003051758,Wed Apr 22 2026 15:38:32 GMT-0500 (Central Daylight Time),155240.0,A,gr,I,r,170,2,616.0999999940395,154623.90000000596,8096,WL,B,2.0
1,2.815000057220459,learn,57184.99994277954,Wed Apr 22 2026 15:38:32 GMT-0500 (Central Daylight Time),155423.20000001788,A,gra,I,a,162,2,799.3000000119209,154623.90000000596,8096,WL,B,2.0
1,3.565000057220459,learn,56434.99994277954,Wed Apr 22 2026 15:38:32 GMT-0500 (Central Daylight Time),156173.0,A,gras,I,s,731,2,1549.0999999940395,154623.90000000596,8096,WL,B,2.0
1,3.748000144958496,learn,56251.999855041504,Wed Apr 22 2026 15:38:32 GMT-0500 (Central Daylight Time),156356.10000002384,A,grass,I,s,166,2,1732.2000000178814,154623.90000000596,8096,WL,B,2.0
1,4.015000104904175,learn,55984.999895095825,Wed Apr 22 2026 15:38:32 GMT-0500 (Central Daylight Time),156622.90000000596,A,grassenter,I,enter,247,2,1999.0,154623.90000000596,8096,WL,B,2.0
1,4.3480000495910645,learn,55651.999950408936,Wed Apr 22 2026 15:38:32 GMT-0500 (Central Daylight Time),156956.0,A,d,I,d,315,2,332.69999998807907,156623.30000001192,8096,WL,B,3.0
1,4.498000144958496,learn,55501.999855041504,Wed Apr 22 2026 15:38:32 GMT-0500 (Central Daylight Time),157106.0,A,do,I,o,135,2,482.69999998807907,156623.30000001192,8096,WL,B,3.0
1,4.648000001907349,learn,55351.99999809265,Wed Apr 22 2026 15:38:32 GMT-0500 (Central Daylight Time),157255.90000000596,A,doo,I,o,129,2,632.5999999940395,156623.30000001192,8096,WL,B,3.0
1,4.748000144958496,learn,55251.999855041504,Wed Apr 22 2026 15:38:32 GMT-0500 (Central Daylight Time),157356.0,A,door,I,r,82,2,732.6999999880791,156623.30000001192,8096,WL,B,3.0
1,5.0980000495910645,learn,54901.999950408936,Wed Apr 22 2026 15:38:32 GMT-0500 (Central Daylight Time),157705.60000002384,A,doorenter,I,enter,343,2,1082.300000011921,156623.30000001192,8096,WL,B,3.0
1,5.914000034332275,learn,54085.999965667725,Wed Apr 22 2026 15:38:32 GMT-0500 (Central Daylight Time),158522.30000001192,A,a,I,a,809,2,816.4000000059605,157705.90000000596,8096,WL,B,4.0
1,6.114000082015991,learn,53885.99991798401,Wed Apr 22 2026 15:38:32 GMT-0500 (Central Daylight Time),158722.10000002384,A,ar,I,r,185,2,1016.2000000178814,157705.90000000596,8096,WL,B,4.0
1,6.331000089645386,learn,53668.999910354614,Wed Apr 22 2026 15:38:32 GMT-0500 (Central Daylight Time),158938.60000002384,A,arm,I,m,209,2,1232.7000000178814,157705.90000000596,8096,WL,B,4.0
1,6.54800009727478,learn,53451.99990272522,Wed Apr 22 2026 15:38:32 GMT-0500 (Central Daylight Time),159155.40000000596,A,armenter,I,enter,208,2,1449.5,157705.90000000596,8096,WL,B,4.0
1,6.797000169754028,learn,53202.99983024597,Wed Apr 22 2026 15:38:32 GMT-0500 (Central Daylight Time),159405.10000002384,A,s,I,s,232,2,249.40000000596046,159155.70000001788,8096,WL,B,5.0
1,6.914000034332275,learn,53085.999965667725,Wed Apr 22 2026 15:38:32 GMT-0500 (Central Daylight Time),159522.10000002384,A,sk,I,k,102,2,366.40000000596046,159155.70000001788,8096,WL,B,5.0
1,7.164000034332275,learn,52835.999965667725,Wed Apr 22 2026 15:38:32 GMT-0500 (Central Daylight Time),159771.80000001192,A,ski,I,i,241,2,616.0999999940395,159155.70000001788,8096,WL,B,5.0
1,7.414000034332275,learn,52585.999965667725,Wed Apr 22 2026 15:38:32 GMT-0500 (Central Daylight Time),160021.70000001788,A,skin,I,n,239,2,866.0,159155.70000001788,8096,WL,B,5.0
1,7.647000074386597,learn,52352.9999256134,Wed Apr 22 2026 15:38:32 GMT-0500 (Central Daylight Time),160254.90000000596,A,skinenter,I,enter,213,2,1099.199999988079,159155.70000001788,8096,WL,B,5.0
1,8.02999997138977,learn,51970.00002861023,Wed Apr 22 2026 15:38:32 GMT-0500 (Central Daylight Time),160638.20000001788,A,w,I,w,372,2,383.09999999403954,160255.10000002384,8096,WL,B,6.0
1,8.21399998664856,learn,51786.00001335144,Wed Apr 22 2026 15:38:32 GMT-0500 (Central Daylight Time),160821.5,A,wi,I,i,173,2,566.3999999761581,160255.10000002384,8096,WL,B,6.0
1,8.314000129699707,learn,51685.99987030029,Wed Apr 22 2026 15:38:32 GMT-0500 (Central Daylight Time),160921.40000000596,A,wif,I,f,93,2,666.2999999821186,160255.10000002384,8096,WL,B,6.0
1,8.496999979019165,learn,51503.000020980835,Wed Apr 22 2026 15:38:32 GMT-0500 (Central Daylight Time),161104.70000001788,A,wife,I,e,178,2,849.5999999940395,160255.10000002384,8096,WL,B,6.0
1,8.664000034332275,learn,51335.999965667725,Wed Apr 22 2026 15:38:32 GMT-0500 (Central Daylight Time),161271.5,A,wifeenter,I,enter,146,2,1016.3999999761581,160255.10000002384,8096,WL,B,6.0
1,8.830000162124634,learn,51169.999837875366,Wed Apr 22 2026 15:38:32 GMT-0500 (Central Daylight Time),161438.20000001788,A,w,I,w,147,2,166.30000001192093,161271.90000000596,8096,WL,B,7.0
1,8.963000059127808,learn,51036.99994087219,Wed Apr 22 2026 15:38:32 GMT-0500 (Central Daylight Time),161571.20000001788,A,wi,I,i,117,2,299.30000001192093,161271.90000000596,8096,WL,B,7.0
1,9.047000169754028,learn,50952.99983024597,Wed Apr 22 2026 15:38:32 GMT-0500 (Central Daylight Time),161654.5,A,win,I,n,62,2,382.59999999403954,161271.90000000596,8096,WL,B,7.0
1,9.180000066757202,learn,50819.9999332428,Wed Apr 22 2026 15:38:32 GMT-0500 (Central Daylight Time),161787.80000001192,A,wind,I,d,124,2,515.9000000059605,161271.90000000596,8096,WL,B,7.0
1,9.312999963760376,learn,50687.000036239624,Wed Apr 22 2026 15:38:32 GMT-0500 (Central Daylight Time),161921.30000001192,A,windo,I,o,119,2,649.4000000059605,161271.90000000596,8096,WL,B,7.0
1,9.396000146865845,learn,50603.999853134155,Wed Apr 22 2026 15:38:32 GMT-0500 (Central Daylight Time),162004.30000001192,A,window,I,w,74,2,732.4000000059605,161271.90000000596,8096,WL,B,7.0
1,9.52999997138977,learn,50470.00002861023,Wed Apr 22 2026 15:38:32 GMT-0500 (Central Daylight Time),162137.60000002384,A,windowenter,I,enter,127,2,865.7000000178814,161271.90000000596,8096,WL,B,7.0
1,9.730000019073486,learn,50269.999980926514,Wed Apr 22 2026 15:38:32 GMT-0500 (Central Daylight Time),162337.70000001788,A,s,I,s,186,2,199.90000000596046,162137.80000001192,8096,WL,B,8.0
1,9.913000106811523,learn,50086.99989318848,Wed Apr 22 2026 15:38:32 GMT-0500 (Central Daylight Time),162520.80000001192,A,st,I,t,163,2,383.0,162137.80000001192,8096,WL,B,8.0
1,10.062999963760376,learn,49937.000036239624,Wed Apr 22 2026 15:38:32 GMT-0500 (Central Daylight Time),162670.90000000596,A,sta,I,a,130,2,533.0999999940395,162137.80000001192,8096,WL,B,8.0
1,10.11300015449524,learn,49886.99984550476,Wed Apr 22 2026 15:38:32 GMT-0500 (Central Daylight Time),162721.0,A,star,I,r,28,2,583.1999999880791,162137.80000001192,8096,WL,B,8.0
1,10.312999963760376,learn,49687.000036239624,Wed Apr 22 2026 15:38:32 GMT-0500 (Central Daylight Time),162921.20000001788,A,start,I,t,194,2,783.4000000059605,162137.80000001192,8096,WL,B,8.0
1,10.77999997138977,learn,49220.00002861023,Wed Apr 22 2026 15:38:32 GMT-0500 (Central Daylight Time),163387.30000001192,A,star,I,backspace,458,2,1249.5,162137.80000001192,8096,WL,B,8.0
1,11.095999956130981,learn,48904.00004386902,Wed Apr 22 2026 15:38:32 GMT-0500 (Central Daylight Time),163703.80000001192,A,starenter,I,enter,304,2,1566.0,162137.80000001192,8096,WL,B,8.0
1,12.611999988555908,learn,47388.00001144409,Wed Apr 22 2026 15:38:32 GMT-0500 (Central Daylight Time),165220.10000002384,A,c,I,c,1499,2,1515.9000000059605,163704.20000001788,8096,WL,B,9.0
1,12.729000091552734,learn,47270.999908447266,Wed Apr 22 2026 15:38:32 GMT-0500 (Central Daylight Time),165336.5,A,ca,I,a,111,2,1632.2999999821186,163704.20000001788,8096,WL,B,9.0
1,12.861999988555908,learn,47138.00001144409,Wed Apr 22 2026 15:38:32 GMT-0500 (Central Daylight Time),165470.10000002384,A,cab,I,b,123,2,1765.9000000059605,163704.20000001788,8096,WL,B,9.0
1,12.979000091552734,learn,47020.999908447266,Wed Apr 22 2026 15:38:32 GMT-0500 (Central Daylight Time),165586.60000002384,A,cabi,I,i,109,2,1882.4000000059605,163704.20000001788,8096,WL,B,9.0
1,13.062000036239624,learn,46937.999963760376,Wed Apr 22 2026 15:38:32 GMT-0500 (Central Daylight Time),165669.90000000596,A,cabin,I,n,65,2,1965.699999988079,163704.20000001788,8096,WL,B,9.0
1,13.445000171661377,learn,46554.99982833862,Wed Apr 22 2026 15:38:32 GMT-0500 (Central Daylight Time),166053.30000001192,A,cabinenter,I,enter,365,2,2349.0999999940395,163704.20000001788,8096,WL,B,9.0
1,13.729000091552734,learn,46270.999908447266,Wed Apr 22 2026 15:38:32 GMT-0500 (Central Daylight Time),166336.5,A,f,I,f,262,2,283.0,166053.5,8096,WL,B,10.0
1,13.828999996185303,learn,46171.0000038147,Wed Apr 22 2026 15:38:32 GMT-0500 (Central Daylight Time),166436.40000000596,A,fi,I,i,91,2,382.90000000596046,166053.5,8096,WL,B,10.0
1,13.962000131607056,learn,46037.999868392944,Wed Apr 22 2026 15:38:32 GMT-0500 (Central Daylight Time),166569.80000001192,A,fir,I,r,119,2,516.3000000119209,166053.5,8096,WL,B,10.0
1,14.01200008392334,learn,45987.99991607666,Wed Apr 22 2026 15:38:32 GMT-0500 (Central Daylight Time),166619.60000002384,A,fire,I,e,42,2,566.1000000238419,166053.5,8096,WL,B,10.0
1,14.361999988555908,learn,45638.00001144409,Wed Apr 22 2026 15:38:32 GMT-0500 (Central Daylight Time),166969.5,A,fireenter,I,enter,335,2,916.0,166053.5,8096,WL,B,10.0
1,16.094000101089478,learn,43905.99989891052,Wed Apr 22 2026 15:38:32 GMT-0500 (Central Daylight Time),168702.30000001192,A,l,I,l,1722,2,1732.5999999940395,166969.70000001788,8096,WL,B,11.0
1,16.195000171661377,learn,43804.99982833862,Wed Apr 22 2026 15:38:32 GMT-0500 (Central Daylight Time),168802.40000000596,A,la,I,a,84,2,1832.699999988079,166969.70000001788,8096,WL,B,11.0
1,16.295000076293945,learn,43704.999923706055,Wed Apr 22 2026 15:38:32 GMT-0500 (Central Daylight Time),168902.30000001192,A,lak,I,k,82,2,1932.5999999940395,166969.70000001788,8096,WL,B,11.0
1,16.378000020980835,learn,43621.999979019165,Wed Apr 22 2026 15:38:32 GMT-0500 (Central Daylight Time),168985.5,A,lake,I,e,69,2,2015.7999999821186,166969.70000001788,8096,WL,B,11.0
1,16.511000156402588,learn,43488.99984359741,Wed Apr 22 2026 15:38:32 GMT-0500 (Central Daylight Time),169118.70000001788,A,lakeenter,I,enter,113,2,2149.0,166969.70000001788,8096,WL,B,11.0
1,16.778000116348267,learn,43221.99988365173,Wed Apr 22 2026 15:38:32 GMT-0500 (Central Daylight Time),169386.0,A,p,I,p,261,2,267.0,169119.0,8096,WL,B,12.0
1,16.878000020980835,learn,43121.999979019165,Wed Apr 22 2026 15:38:32 GMT-0500 (Central Daylight Time),169485.40000000596,A,pi,I,i,89,2,366.40000000596046,169119.0,8096,WL,B,12.0
1,17.278000116348267,learn,42721.99988365173,Wed Apr 22 2026 15:38:32 GMT-0500 (Central Daylight Time),169885.40000000596,A,pip,I,p,380,2,766.4000000059605,169119.0,8096,WL,B,12.0
1,17.41100001335144,learn,42588.99998664856,Wed Apr 22 2026 15:38:32 GMT-0500 (Central Daylight Time),170018.60000002384,A,pipe,I,e,126,2,899.6000000238419,169119.0,8096,WL,B,12.0
1,17.776999950408936,learn,42223.000049591064,Wed Apr 22 2026 15:38:32 GMT-0500 (Central Daylight Time),170385.10000002384,A,pipeenter,I,enter,361,2,1266.1000000238419,169119.0,8096,WL,B,12.0
1,26.753999948501587,learn,33246.00005149841,Wed Apr 22 2026 15:38:32 GMT-0500 (Central Daylight Time),179363.40000000596,A,p,I,p,8931,2,8978.0,170385.40000000596,8096,WL,B,13.0
1,26.901000022888184,learn,33098.99997711182,Wed Apr 22 2026 15:38:32 GMT-0500 (Central Daylight Time),179510.70000001788,A,pu,I,u,31,2,9125.300000011921,170385.40000000596,8096,WL,B,13.0
1,27.055999994277954,learn,32944.000005722046,Wed Apr 22 2026 15:38:32 GMT-0500 (Central Daylight Time),179665.80000001192,A,pup,I,p,148,2,9280.40000000596,170385.40000000596,8096,WL,B,13.0
1,27.23900008201599,learn,32760.99991798401,Wed Apr 22 2026 15:38:32 GMT-0500 (Central Daylight Time),179848.70000001788,A,pupi,I,i,178,2,9463.300000011921,170385.40000000596,8096,WL,B,13.0
1,27.456000089645386,learn,32543.999910354614,Wed Apr 22 2026 15:38:32 GMT-0500 (Central Daylight Time),180065.40000000596,A,pupil,I,l,211,2,9680.0,170385.40000000596,8096,WL,B,13.0
1,27.9060001373291,learn,32093.9998626709,Wed Apr 22 2026 15:38:32 GMT-0500 (Central Daylight Time),180515.30000001192,A,pupilenter,I,enter,442,2,10129.90000000596,170385.40000000596,8096,WL,B,13.0
1,29.055999994277954,learn,30944.000005722046,Wed Apr 22 2026 15:38:32 GMT-0500 (Central Daylight Time),181665.0,A,enter,I,enter,1136,2,1149.5,180515.5,8096,WL,B,14.0
1,30.538000106811523,learn,29461.999893188477,Wed Apr 22 2026 15:38:32 GMT-0500 (Central Daylight Time),183147.80000001192,A,enter,I,enter,1466,2,1482.5999999940395,181665.20000001788,8096,WL,B,15.0
2,0.9830000400543213,learn,59016.99995994568,Wed Apr 22 2026 15:38:32 GMT-0500 (Central Daylight Time),254975.40000000596,A,s,I,s,972,2,983.0999999940395,253992.30000001192,8096,WL,B,1.0
2,1.1329998970031738,learn,58867.000102996826,Wed Apr 22 2026 15:38:32 GMT-0500 (Central Daylight Time),255125.20000001788,A,st,I,t,139,2,1132.9000000059605,253992.30000001192,8096,WL,B,1.0
2,1.2829999923706055,learn,58717.000007629395,Wed Apr 22 2026 15:38:32 GMT-0500 (Central Daylight Time),255275.30000001192,A,str,I,r,134,2,1283.0,253992.30000001192,8096,WL,B,1.0
2,1.3329999446868896,learn,58667.00005531311,Wed Apr 22 2026 15:38:32 GMT-0500 (Central Daylight Time),255325.30000001192,A,stre,I,e,32,2,1333.0,253992.30000001192,8096,WL,B,1.0
2,1.5,learn,58500.0,Wed Apr 22 2026 15:38:32 GMT-0500 (Central Daylight Time),255491.70000001788,A,stree,I,e,150,2,1499.4000000059605,253992.30000001192,8096,WL,B,1.0
2,1.6159999370574951,learn,58384.000062942505,Wed Apr 22 2026 15:38:32 GMT-0500 (Central Daylight Time),255608.40000000596,A,street,I,t,96,2,1616.0999999940395,253992.30000001192,8096,WL,B,1.0
2,2.0160000324249268,learn,57983.99996757507,Wed Apr 22 2026 15:38:32 GMT-0500 (Central Daylight Time),256008.20000001788,A,streetenter,I,enter,388,2,2015.9000000059605,253992.30000001192,8096,WL,B,1.0
2,2.2829999923706055,learn,57717.000007629395,Wed Apr 22 2026 15:38:32 GMT-0500 (Central Daylight Time),256274.90000000596,A,g,I,g,251,2,266.40000000596046,256008.5,8096,WL,B,2.0
2,2.4660000801086426,learn,57533.99991989136,Wed Apr 22 2026 15:38:32 GMT-0500 (Central Daylight Time),256458.10000002384,A,gr,I,r,168,2,449.60000002384186,256008.5,8096,WL,B,2.0
2,2.5999999046325684,learn,57400.00009536743,Wed Apr 22 2026 15:38:32 GMT-0500 (Central Daylight Time),256591.70000001788,A,gra,I,a,121,2,583.2000000178814,256008.5,8096,WL,B,2.0
2,2.815999984741211,learn,57184.00001525879,Wed Apr 22 2026 15:38:32 GMT-0500 (Central Daylight Time),256808.10000002384,A,gras,I,s,204,2,799.6000000238419,256008.5,8096,WL,B,2.0
2,2.9830000400543213,learn,57016.99995994568,Wed Apr 22 2026 15:38:32 GMT-0500 (Central Daylight Time),256974.70000001788,A,grass,I,s,147,2,966.2000000178814,256008.5,8096,WL,B,2.0
2,3.199000120162964,learn,56800.999879837036,Wed Apr 22 2026 15:38:32 GMT-0500 (Central Daylight Time),257191.30000001192,A,grassenter,I,enter,197,2,1182.800000011921,256008.5,8096,WL,B,2.0
2,3.7990000247955322,learn,56200.99997520447,Wed Apr 22 2026 15:38:32 GMT-0500 (Central Daylight Time),257791.10000002384,A,d,I,d,588,2,599.5,257191.60000002384,8096,WL,B,3.0
2,3.9820001125335693,learn,56017.99988746643,Wed Apr 22 2026 15:38:32 GMT-0500 (Central Daylight Time),257974.30000001192,A,do,I,o,164,2,782.6999999880791,257191.60000002384,8096,WL,B,3.0
2,4.115999937057495,learn,55884.000062942505,Wed Apr 22 2026 15:38:32 GMT-0500 (Central Daylight Time),258107.70000001788,A,doo,I,o,125,2,916.0999999940395,257191.60000002384,8096,WL,B,3.0
2,4.232000112533569,learn,55767.99988746643,Wed Apr 22 2026 15:38:32 GMT-0500 (Central Daylight Time),258224.20000001788,A,door,I,r,104,2,1032.5999999940395,257191.60000002384,8096,WL,B,3.0
2,4.367000102996826,learn,55632.999897003174,Wed Apr 22 2026 15:38:32 GMT-0500 (Central Daylight Time),258358.60000002384,A,doorenter,I,enter,123,2,1167.0,257191.60000002384,8096,WL,B,3.0
2,4.699000120162964,learn,55300.999879837036,Wed Apr 22 2026 15:38:32 GMT-0500 (Central Daylight Time),258690.60000002384,A,a,I,a,317,2,331.7000000178814,258358.90000000596,8096,WL,B,4.0
2,4.7820000648498535,learn,55217.99993515015,Wed Apr 22 2026 15:38:32 GMT-0500 (Central Daylight Time),258774.0,A,ar,I,r,72,2,415.09999999403954,258358.90000000596,8096,WL,B,4.0
2,4.982000112533569,learn,55017.99988746643,Wed Apr 22 2026 15:38:32 GMT-0500 (Central Daylight Time),258974.10000002384,A,arm,I,m,181,2,615.2000000178814,258358.90000000596,8096,WL,B,4.0
2,5.199000120162964,learn,54800.999879837036,Wed Apr 22 2026 15:38:32 GMT-0500 (Central Daylight Time),259190.60000002384,A,armenter,I,enter,205,2,831.7000000178814,258358.90000000596,8096,WL,B,4.0
2,5.832000017166138,learn,54167.99998283386,Wed Apr 22 2026 15:38:32 GMT-0500 (Central Daylight Time),259823.80000001192,A,s,I,s,613,2,633.0,259190.80000001192,8096,WL,B,5.0
2,5.914999961853027,learn,54085.00003814697,Wed Apr 22 2026 15:38:32 GMT-0500 (Central Daylight Time),259907.10000002384,A,sk,I,k,75,2,716.3000000119209,259190.80000001192,8096,WL,B,5.0
2,6.0980000495910645,learn,53901.999950408936,Wed Apr 22 2026 15:38:32 GMT-0500 (Central Daylight Time),260090.30000001192,A,ski,I,i,176,2,899.5,259190.80000001192,8096,WL,B,5.0
2,6.181999921798706,learn,53818.000078201294,Wed Apr 22 2026 15:38:32 GMT-0500 (Central Daylight Time),260173.60000002384,A,skin,I,n,65,2,982.8000000119209,259190.80000001192,8096,WL,B,5.0
2,6.497999906539917,learn,53502.00009346008,Wed Apr 22 2026 15:38:32 GMT-0500 (Central Daylight Time),260490.20000001788,A,skinenter,I,enter,302,2,1299.4000000059605,259190.80000001192,8096,WL,B,5.0
2,9.980000019073486,learn,50019.999980926514,Wed Apr 22 2026 15:38:32 GMT-0500 (Central Daylight Time),263972.40000000596,A,s,I,s,3474,2,3481.9000000059605,260490.5,8096,WL,B,6.0
2,10.097000122070312,learn,49902.99987792969,Wed Apr 22 2026 15:38:32 GMT-0500 (Central Daylight Time),264089.10000002384,A,st,I,t,103,2,3598.600000023842,260490.5,8096,WL,B,6.0
2,10.230000019073486,learn,49769.999980926514,Wed Apr 22 2026 15:38:32 GMT-0500 (Central Daylight Time),264222.3000000119,A,sta,I,a,122,2,3731.800000011921,260490.5,8096,WL,B,6.0
2,10.315000057220459,learn,49684.99994277954,Wed Apr 22 2026 15:38:32 GMT-0500 (Central Daylight Time),264306.8000000119,A,star,I,r,69,2,3816.300000011921,260490.5,8096,WL,B,6.0
2,10.663000106811523,learn,49336.99989318848,Wed Apr 22 2026 15:38:32 GMT-0500 (Central Daylight Time),264655.40000000596,A,starenter,I,enter,336,2,4164.9000000059605,260490.5,8096,WL,B,6.0
2,10.897000074386597,learn,49102.9999256134,Wed Apr 22 2026 15:38:32 GMT-0500 (Central Daylight Time),264889.0,A,w,I,w,228,2,233.2999999821186,264655.7000000179,8096,WL,B,7.0
2,10.963000059127808,learn,49036.99994087219,Wed Apr 22 2026 15:38:32 GMT-0500 (Central Daylight Time),264955.40000000596,A,wi,I,i,58,2,299.69999998807907,264655.7000000179,8096,WL,B,7.0
2,11.04699993133545,learn,48953.00006866455,Wed Apr 22 2026 15:38:32 GMT-0500 (Central Daylight Time),265038.60000002384,A,win,I,n,64,2,382.90000000596046,264655.7000000179,8096,WL,B,7.0
2,11.147000074386597,learn,48852.9999256134,Wed Apr 22 2026 15:38:32 GMT-0500 (Central Daylight Time),265138.60000002384,A,wind,I,d,85,2,482.90000000596046,264655.7000000179,8096,WL,B,7.0
2,11.27999997138977,learn,48720.00002861023,Wed Apr 22 2026 15:38:32 GMT-0500 (Central Daylight Time),265272.0,A,windo,I,o,113,2,616.2999999821186,264655.7000000179,8096,WL,B,7.0
2,11.36299991607666,learn,48637.00008392334,Wed Apr 22 2026 15:38:32 GMT-0500 (Central Daylight Time),265355.40000000596,A,window,I,w,67,2,699.6999999880791,264655.7000000179,8096,WL,B,7.0
2,11.496999979019165,learn,48503.000020980835,Wed Apr 22 2026 15:38:32 GMT-0500 (Central Daylight Time),265488.7000000179,A,windowenter,I,enter,112,2,833.0,264655.7000000179,8096,WL,B,7.0
2,11.829999923706055,learn,48170.000076293945,Wed Apr 22 2026 15:38:32 GMT-0500 (Central Daylight Time),265821.8000000119,A,c,I,c,323,2,332.90000000596046,265488.90000000596,8096,WL,B,8.0
2,11.913000106811523,learn,48086.99989318848,Wed Apr 22 2026 15:38:32 GMT-0500 (Central Daylight Time),265905.10000002384,A,cl,I,l,71,2,416.2000000178814,265488.90000000596,8096,WL,B,8.0
2,12.097000122070312,learn,47902.99987792969,Wed Apr 22 2026 15:38:32 GMT-0500 (Central Daylight Time),266088.60000002384,A,clo,I,o,170,2,599.7000000178814,265488.90000000596,8096,WL,B,8.0
2,12.196000099182129,learn,47803.99990081787,Wed Apr 22 2026 15:38:32 GMT-0500 (Central Daylight Time),266188.3000000119,A,cloc,I,c,91,2,699.4000000059605,265488.90000000596,8096,WL,B,8.0
2,12.27999997138977,learn,47720.00002861023,Wed Apr 22 2026 15:38:32 GMT-0500 (Central Daylight Time),266271.7000000179,A,clock,I,k,71,2,782.8000000119209,265488.90000000596,8096,WL,B,8.0
2,12.446000099182129,learn,47553.99990081787,Wed Apr 22 2026 15:38:32 GMT-0500 (Central Daylight Time),266438.40000000596,A,clockenter,I,enter,155,2,949.5,265488.90000000596,8096,WL,B,8.0
2,12.630000114440918,learn,47369.99988555908,Wed Apr 22 2026 15:38:32 GMT-0500 (Central Daylight Time),266621.60000002384,A,w,I,w,165,2,183.0,266438.60000002384,8096,WL,B,9.0
2,12.729000091552734,learn,47270.999908447266,Wed Apr 22 2026 15:38:32 GMT-0500 (Central Daylight Time),266721.40000000596,A,wi,I,i,86,2,282.7999999821186,266438.60000002384,8096,WL,B,9.0
2,12.845999956130981,learn,47154.00004386902,Wed Apr 22 2026 15:38:32 GMT-0500 (Central Daylight Time),266838.40000000596,A,wif,I,f,98,2,399.7999999821186,266438.60000002384,8096,WL,B,9.0
2,12.963000059127808,learn,47036.99994087219,Wed Apr 22 2026 15:38:32 GMT-0500 (Central Daylight Time),266954.8000000119,A,wife,I,e,101,2,516.1999999880791,266438.60000002384,8096,WL,B,9.0
2,13.11299991607666,learn,46887.00008392334,Wed Apr 22 2026 15:38:32 GMT-0500 (Central Daylight Time),267104.60000002384,A,wifeenter,I,enter,144,2,666.0,266438.60000002384,8096,WL,B,9.0
2,13.663000106811523,learn,46336.99989318848,Wed Apr 22 2026 15:38:32 GMT-0500 (Central Daylight Time),267654.60000002384,A,p,I,p,539,2,549.8000000119209,267104.8000000119,8096,WL,B,10.0
2,13.847000122070312,learn,46152.99987792969,Wed Apr 22 2026 15:38:32 GMT-0500 (Central Daylight Time),267839.0,A,pu,I,u,165,2,734.1999999880791,267104.8000000119,8096,WL,B,10.0
2,14.046000003814697,learn,45953.9999961853,Wed Apr 22 2026 15:38:32 GMT-0500 (Central Daylight Time),268038.0,A,pup,I,p,188,2,933.1999999880791,267104.8000000119,8096,WL,B,10.0
2,14.21399998664856,learn,45786.00001335144,Wed Apr 22 2026 15:38:32 GMT-0500 (Central Daylight Time),268205.60000002384,A,pupi,I,i,158,2,1100.800000011921,267104.8000000119,8096,WL,B,10.0
2,14.411999940872192,learn,45588.00005912781,Wed Apr 22 2026 15:38:32 GMT-0500 (Central Daylight Time),268404.3000000119,A,pupil,I,l,189,2,1299.5,267104.8000000119,8096,WL,B,10.0
2,14.661999940872192,learn,45338.00005912781,Wed Apr 22 2026 15:38:32 GMT-0500 (Central Daylight Time),268654.40000000596,A,pupilenter,I,enter,231,2,1549.5999999940395,267104.8000000119,8096,WL,B,10.0
2,15.446000099182129,learn,44553.99990081787,Wed Apr 22 2026 15:38:32 GMT-0500 (Central Daylight Time),269437.5,A,p,I,p,765,2,782.7999999821186,268654.7000000179,8096,WL,B,11.0
2,15.562000036239624,learn,44437.999963760376,Wed Apr 22 2026 15:38:32 GMT-0500 (Central Daylight Time),269554.2000000179,A,pi,I,i,102,2,899.5,268654.7000000179,8096,WL,B,11.0
2,15.712000131607056,learn,44287.999868392944,Wed Apr 22 2026 15:38:32 GMT-0500 (Central Daylight Time),269703.90000000596,A,pip,I,p,137,2,1049.199999988079,268654.7000000179,8096,WL,B,11.0
2,15.878999948501587,learn,44121.00005149841,Wed Apr 22 2026 15:38:32 GMT-0500 (Central Daylight Time),269870.7000000179,A,pipe,I,e,147,2,1216.0,268654.7000000179,8096,WL,B,11.0
2,16.17899990081787,learn,43821.00009918213,Wed Apr 22 2026 15:38:32 GMT-0500 (Central Daylight Time),270170.60000002384,A,pipeenter,I,enter,284,2,1515.9000000059605,268654.7000000179,8096,WL,B,11.0
2,16.477999925613403,learn,43522.0000743866,Wed Apr 22 2026 15:38:32 GMT-0500 (Central Daylight Time),270470.3000000119,A,c,I,c,289,2,299.40000000596046,270170.90000000596,8096,WL,B,12.0
2,16.57800006866455,learn,43421.99993133545,Wed Apr 22 2026 15:38:32 GMT-0500 (Central Daylight Time),270570.40000000596,A,ci,I,i,85,2,399.5,270170.90000000596,8096,WL,B,12.0
2,16.694999933242798,learn,43305.0000667572,Wed Apr 22 2026 15:38:32 GMT-0500 (Central Daylight Time),270687.10000002384,A,cit,I,t,105,2,516.2000000178814,270170.90000000596,8096,WL,B,12.0
2,16.812000036239624,learn,43187.999963760376,Wed Apr 22 2026 15:38:32 GMT-0500 (Central Daylight Time),270803.8000000119,A,city,I,y,109,2,632.9000000059605,270170.90000000596,8096,WL,B,12.0
2,17.295000076293945,learn,42704.999923706055,Wed Apr 22 2026 15:38:32 GMT-0500 (Central Daylight Time),271286.8000000119,A,cityenter,I,enter,464,2,1115.9000000059605,270170.90000000596,8096,WL,B,12.0
2,17.82800006866455,learn,42171.99993133545,Wed Apr 22 2026 15:38:32 GMT-0500 (Central Daylight Time),271820.0,A,c,I,c,517,2,533.0,271287.0,8096,WL,B,13.0
2,17.894999980926514,learn,42105.000019073486,Wed Apr 22 2026 15:38:32 GMT-0500 (Central Daylight Time),271886.90000000596,A,ca,I,a,47,2,599.9000000059605,271287.0,8096,WL,B,13.0
2,18.045000076293945,learn,41954.999923706055,Wed Apr 22 2026 15:38:32 GMT-0500 (Central Daylight Time),272036.60000002384,A,cab,I,b,140,2,749.6000000238419,271287.0,8096,WL,B,13.0
2,18.16100001335144,learn,41838.99998664856,Wed Apr 22 2026 15:38:32 GMT-0500 (Central Daylight Time),272153.2000000179,A,cabi,I,i,110,2,866.2000000178814,271287.0,8096,WL,B,13.0
2,18.24399995803833,learn,41756.00004196167,Wed Apr 22 2026 15:38:32 GMT-0500 (Central Daylight Time),272236.5,A,cabin,I,n,66,2,949.5,271287.0,8096,WL,B,13.0
2,18.57800006866455,learn,41421.99993133545,Wed Apr 22 2026 15:38:32 GMT-0500 (Central Daylight Time),272569.7000000179,A,cabinenter,I,enter,327,2,1282.7000000178814,271287.0,8096,WL,B,13.0
2,18.89400005340576,learn,41105.99994659424,Wed Apr 22 2026 15:38:32 GMT-0500 (Central Daylight Time),272886.10000002384,A,f,I,f,306,2,316.10000002384186,272570.0,8096,WL,B,14.0
2,19.028000116348267,learn,40971.99988365173,Wed Apr 22 2026 15:38:32 GMT-0500 (Central Daylight Time),273019.60000002384,A,fi,I,i,125,2,449.60000002384186,272570.0,8096,WL,B,14.0
2,19.094000101089478,learn,40905.99989891052,Wed Apr 22 2026 15:38:32 GMT-0500 (Central Daylight Time),273086.3000000119,A,fir,I,r,56,2,516.3000000119209,272570.0,8096,WL,B,14.0
2,19.16100001335144,learn,40838.99998664856,Wed Apr 22 2026 15:38:32 GMT-0500 (Central Daylight Time),273152.90000000596,A,fire,I,e,61,2,582.9000000059605,272570.0,8096,WL,B,14.0
2,19.344000101089478,learn,40655.99989891052,Wed Apr 22 2026 15:38:32 GMT-0500 (Central Daylight Time),273336.10000002384,A,fireenter,I,enter,170,2,766.1000000238419,272570.0,8096,WL,B,14.0
2,19.66700005531311,learn,40332.99994468689,Wed Apr 22 2026 15:38:32 GMT-0500 (Central Daylight Time),273659.10000002384,A,l,I,l,319,2,322.80000001192093,273336.3000000119,8096,WL,B,15.0
2,19.694000005722046,learn,40305.999994277954,Wed Apr 22 2026 15:38:32 GMT-0500 (Central Daylight Time),273686.0,A,la,I,a,16,2,349.69999998807907,273336.3000000119,8096,WL,B,15.0
2,19.81500005722046,learn,40184.99994277954,Wed Apr 22 2026 15:38:32 GMT-0500 (Central Daylight Time),273807.10000002384,A,lak,I,k,85,2,470.80000001192093,273336.3000000119,8096,WL,B,15.0
2,19.927000045776367,learn,40072.99995422363,Wed Apr 22 2026 15:38:32 GMT-0500 (Central Daylight Time),273919.40000000596,A,lake,I,e,95,2,583.0999999940395,273336.3000000119,8096,WL,B,15.0
2,20.043999910354614,learn,39956.000089645386,Wed Apr 22 2026 15:38:32 GMT-0500 (Central Daylight Time),274036.0,A,lakeenter,I,enter,107,2,699.6999999880791,273336.3000000119,8096,WL,B,15.0
3,0.36700010299682617,learn,59632.999897003174,Wed Apr 22 2026 15:38:32 GMT-0500 (Central Daylight Time),339282.10000002384,A,s,I,s,361,2,366.40000000596046,338915.7000000179,8096,WL,B,1.0
3,0.5170001983642578,learn,59482.99980163574,Wed Apr 22 2026 15:38:32 GMT-0500 (Central Daylight Time),339432.10000002384,A,st,I,t,129,2,516.4000000059605,338915.7000000179,8096,WL,B,1.0
3,0.6830000877380371,learn,59316.99991226196,Wed Apr 22 2026 15:38:32 GMT-0500 (Central Daylight Time),339598.7000000179,A,str,I,r,156,2,683.0,338915.7000000179,8096,WL,B,1.0
3,0.75,learn,59250.0,Wed Apr 22 2026 15:38:32 GMT-0500 (Central Daylight Time),339665.2000000179,A,stre,I,e,53,2,749.5,338915.7000000179,8096,WL,B,1.0
3,0.9170000553131104,learn,59082.99994468689,Wed Apr 22 2026 15:38:32 GMT-0500 (Central Daylight Time),339832.10000002384,A,stree,I,e,154,2,916.4000000059605,338915.7000000179,8096,WL,B,1.0
3,1.0329999923706055,learn,58967.000007629395,Wed Apr 22 2026 15:38:32 GMT-0500 (Central Daylight Time),339948.5,A,street,I,t,107,2,1032.7999999821186,338915.7000000179,8096,WL,B,1.0
3,1.1660001277923584,learn,58833.99987220764,Wed Apr 22 2026 15:38:32 GMT-0500 (Central Daylight Time),340081.8000000119,A,streetenter,I,enter,127,2,1166.0999999940395,338915.7000000179,8096,WL,B,1.0
3,1.3330001831054688,learn,58666.99981689453,Wed Apr 22 2026 15:38:32 GMT-0500 (Central Daylight Time),340248.60000002384,A,g,I,g,154,2,166.40000000596046,340082.2000000179,8096,WL,B,2.0
3,1.5,learn,58500.0,Wed Apr 22 2026 15:38:32 GMT-0500 (Central Daylight Time),340415.2000000179,A,gr,I,r,147,2,333.0,340082.2000000179,8096,WL,B,2.0
3,1.565999984741211,learn,58434.00001525879,Wed Apr 22 2026 15:38:32 GMT-0500 (Central Daylight Time),340481.7000000179,A,gra,I,a,60,2,399.5,340082.2000000179,8096,WL,B,2.0
3,1.7330000400543213,learn,58266.99995994568,Wed Apr 22 2026 15:38:32 GMT-0500 (Central Daylight Time),340648.3000000119,A,gras,I,s,162,2,566.0999999940395,340082.2000000179,8096,WL,B,2.0
3,1.9160001277923584,learn,58083.99987220764,Wed Apr 22 2026 15:38:32 GMT-0500 (Central Daylight Time),340831.60000002384,A,grass,I,s,171,2,749.4000000059605,340082.2000000179,8096,WL,B,2.0
3,2.0490000247955322,learn,57950.99997520447,Wed Apr 22 2026 15:38:32 GMT-0500 (Central Daylight Time),340965.0,A,grassenter,I,enter,124,2,882.7999999821186,340082.2000000179,8096,WL,B,2.0
3,2.2660000324249268,learn,57733.99996757507,Wed Apr 22 2026 15:38:32 GMT-0500 (Central Daylight Time),341181.60000002384,A,c,I,c,207,2,216.40000000596046,340965.2000000179,8096,WL,B,3.0
3,2.433000087738037,learn,57566.99991226196,Wed Apr 22 2026 15:38:32 GMT-0500 (Central Daylight Time),341348.10000002384,A,co,I,o,149,2,382.90000000596046,340965.2000000179,8096,WL,B,3.0
3,2.565999984741211,learn,57434.00001525879,Wed Apr 22 2026 15:38:32 GMT-0500 (Central Daylight Time),341481.40000000596,A,coo,I,o,119,2,516.1999999880791,340965.2000000179,8096,WL,B,3.0
3,2.683000087738037,learn,57316.99991226196,Wed Apr 22 2026 15:38:32 GMT-0500 (Central Daylight Time),341598.3000000119,A,coor,I,r,98,2,633.0999999940395,340965.2000000179,8096,WL,B,3.0
3,2.932000160217285,learn,57067.999839782715,Wed Apr 22 2026 15:38:32 GMT-0500 (Central Daylight Time),341847.90000000596,A,coo,I,backspace,237,2,882.6999999880791,340965.2000000179,8096,WL,B,3.0
3,3.199000120162964,learn,56800.999879837036,Wed Apr 22 2026 15:38:32 GMT-0500 (Central Daylight Time),342114.60000002384,A,co,I,backspace,259,2,1149.4000000059605,340965.2000000179,8096,WL,B,3.0
3,3.366000175476074,learn,56633.999824523926,Wed Apr 22 2026 15:38:32 GMT-0500 (Central Daylight Time),342281.3000000119,A,c,I,backspace,153,2,1316.0999999940395,340965.2000000179,8096,WL,B,3.0
3,3.499000072479248,learn,56500.99992752075,Wed Apr 22 2026 15:38:32 GMT-0500 (Central Daylight Time),342414.40000000596,A,,I,backspace,122,2,1449.199999988079,340965.2000000179,8096,WL,B,3.0
3,3.616000175476074,learn,56383.999824523926,Wed Apr 22 2026 15:38:32 GMT-0500 (Central Daylight Time),342531.3000000119,A,d,I,d,110,2,1566.0999999940395,340965.2000000179,8096,WL,B,3.0
3,3.749000072479248,learn,56250.99992752075,Wed Apr 22 2026 15:38:32 GMT-0500 (Central Daylight Time),342664.40000000596,A,do,I,o,112,2,1699.199999988079,340965.2000000179,8096,WL,B,3.0
3,3.866000175476074,learn,56133.999824523926,Wed Apr 22 2026 15:38:32 GMT-0500 (Central Daylight Time),342781.0,A,doo,I,o,107,2,1815.7999999821186,340965.2000000179,8096,WL,B,3.0
3,3.9820001125335693,learn,56017.99988746643,Wed Apr 22 2026 15:38:32 GMT-0500 (Central Daylight Time),342897.7000000179,A,door,I,r,103,2,1932.5,340965.2000000179,8096,WL,B,3.0
3,4.082000017166138,learn,55917.99998283386,Wed Apr 22 2026 15:38:32 GMT-0500 (Central Daylight Time),342997.7000000179,A,doorenter,I,enter,90,2,2032.5,340965.2000000179,8096,WL,B,3.0
3,4.39900016784668,learn,55600.99983215332,Wed Apr 22 2026 15:38:32 GMT-0500 (Central Daylight Time),343314.10000002384,A,a,I,a,302,2,316.2000000178814,342997.90000000596,8096,WL,B,4.0
3,4.515000104904175,learn,55484.999895095825,Wed Apr 22 2026 15:38:32 GMT-0500 (Central Daylight Time),343430.8000000119,A,ar,I,r,105,2,432.90000000596046,342997.90000000596,8096,WL,B,4.0
3,5.065000057220459,learn,54934.99994277954,Wed Apr 22 2026 15:38:32 GMT-0500 (Central Daylight Time),343980.60000002384,A,arm,I,m,533,2,982.7000000178814,342997.90000000596,8096,WL,B,4.0
3,5.381999969482422,learn,54618.00003051758,Wed Apr 22 2026 15:38:32 GMT-0500 (Central Daylight Time),344297.40000000596,A,armenter,I,enter,303,2,1299.5,342997.90000000596,8096,WL,B,4.0
3,5.707000017166138,learn,54292.99998283386,Wed Apr 22 2026 15:38:32 GMT-0500 (Central Daylight Time),344622.90000000596,A,k,I,k,321,2,325.19999998807907,344297.7000000179,8096,WL,B,5.0
3,5.881999969482422,learn,54118.00003051758,Wed Apr 22 2026 15:38:32 GMT-0500 (Central Daylight Time),344797.10000002384,A,ki,I,i,156,2,499.40000000596046,344297.7000000179,8096,WL,B,5.0
3,5.948000192642212,learn,54051.99980735779,Wed Apr 22 2026 15:38:32 GMT-0500 (Central Daylight Time),344863.7000000179,A,kin,I,n,54,2,566.0,344297.7000000179,8096,WL,B,5.0
3,6.515000104904175,learn,53484.999895095825,Wed Apr 22 2026 15:38:32 GMT-0500 (Central Daylight Time),345430.2000000179,A,ki,I,backspace,556,2,1132.5,344297.7000000179,8096,WL,B,5.0
3,6.6650002002716064,learn,53334.99979972839,Wed Apr 22 2026 15:38:32 GMT-0500 (Central Daylight Time),345580.2000000179,A,k,I,backspace,142,2,1282.5,344297.7000000179,8096,WL,B,5.0
3,6.815000057220459,learn,53184.99994277954,Wed Apr 22 2026 15:38:32 GMT-0500 (Central Daylight Time),345730.0,A,,I,backspace,135,2,1432.2999999821186,344297.7000000179,8096,WL,B,5.0
3,6.965000152587891,learn,53034.99984741211,Wed Apr 22 2026 15:38:32 GMT-0500 (Central Daylight Time),345880.10000002384,A,s,I,s,130,2,1582.4000000059605,344297.7000000179,8096,WL,B,5.0
3,7.081000089645386,learn,52918.999910354614,Wed Apr 22 2026 15:38:32 GMT-0500 (Central Daylight Time),345996.60000002384,A,sk,I,k,99,2,1698.9000000059605,344297.7000000179,8096,WL,B,5.0
3,7.281000137329102,learn,52718.9998626709,Wed Apr 22 2026 15:38:32 GMT-0500 (Central Daylight Time),346196.60000002384,A,ski,I,i,183,2,1898.9000000059605,344297.7000000179,8096,WL,B,5.0
3,7.364000082015991,learn,52635.99991798401,Wed Apr 22 2026 15:38:32 GMT-0500 (Central Daylight Time),346280.0,A,skin,I,n,63,2,1982.2999999821186,344297.7000000179,8096,WL,B,5.0
3,7.614000082015991,learn,52385.99991798401,Wed Apr 22 2026 15:38:32 GMT-0500 (Central Daylight Time),346530.0,A,skinenter,I,enter,244,2,2232.2999999821186,344297.7000000179,8096,WL,B,5.0
3,7.998000144958496,learn,52001.999855041504,Wed Apr 22 2026 15:38:32 GMT-0500 (Central Daylight Time),346913.10000002384,A,w,I,w,379,2,382.90000000596046,346530.2000000179,8096,WL,B,6.0
3,8.13100004196167,learn,51868.99995803833,Wed Apr 22 2026 15:38:32 GMT-0500 (Central Daylight Time),347046.5,A,wi,I,i,114,2,516.2999999821186,346530.2000000179,8096,WL,B,6.0
3,8.231000185012817,learn,51768.99981498718,Wed Apr 22 2026 15:38:32 GMT-0500 (Central Daylight Time),347146.3000000119,A,wif,I,f,86,2,616.0999999940395,346530.2000000179,8096,WL,B,6.0
3,8.331000089645386,learn,51668.999910354614,Wed Apr 22 2026 15:38:32 GMT-0500 (Central Daylight Time),347246.5,A,wife,I,e,81,2,716.2999999821186,346530.2000000179,8096,WL,B,6.0
3,8.514000177383423,learn,51485.99982261658,Wed Apr 22 2026 15:38:32 GMT-0500 (Central Daylight Time),347429.5,A,wifeenter,I,enter,173,2,899.2999999821186,346530.2000000179,8096,WL,B,6.0
3,8.69700002670288,learn,51302.99997329712,Wed Apr 22 2026 15:38:32 GMT-0500 (Central Daylight Time),347613.0,A,s,I,s,166,2,183.19999998807907,347429.8000000119,8096,WL,B,7.0
3,9.164000034332275,learn,50835.999965667725,Wed Apr 22 2026 15:38:32 GMT-0500 (Central Daylight Time),348079.3000000119,A,st,I,t,447,2,649.5,347429.8000000119,8096,WL,B,7.0
3,9.314000129699707,learn,50685.99987030029,Wed Apr 22 2026 15:38:32 GMT-0500 (Central Daylight Time),348229.3000000119,A,sta,I,a,132,2,799.5,347429.8000000119,8096,WL,B,7.0
3,9.380000114440918,learn,50619.99988555908,Wed Apr 22 2026 15:38:32 GMT-0500 (Central Daylight Time),348296.0,A,star,I,r,54,2,866.1999999880791,347429.8000000119,8096,WL,B,7.0
3,9.797000169754028,learn,50202.99983024597,Wed Apr 22 2026 15:38:32 GMT-0500 (Central Daylight Time),348712.5,A,starenter,I,enter,403,2,1282.699999988079,347429.8000000119,8096,WL,B,7.0
3,9.996999979019165,learn,50003.000020980835,Wed Apr 22 2026 15:38:32 GMT-0500 (Central Daylight Time),348912.5,A,w,I,w,179,2,199.69999998807907,348712.8000000119,8096,WL,B,8.0
3,10.130000114440918,learn,49869.99988555908,Wed Apr 22 2026 15:38:32 GMT-0500 (Central Daylight Time),349045.8000000119,A,wi,I,i,124,2,333.0,348712.8000000119,8096,WL,B,8.0
3,10.164000034332275,learn,49835.999965667725,Wed Apr 22 2026 15:38:32 GMT-0500 (Central Daylight Time),349079.10000002384,A,win,I,n,21,2,366.30000001192093,348712.8000000119,8096,WL,B,8.0
3,10.347000122070312,learn,49652.99987792969,Wed Apr 22 2026 15:38:32 GMT-0500 (Central Daylight Time),349262.3000000119,A,wind,I,d,165,2,549.5,348712.8000000119,8096,WL,B,8.0
3,10.562999963760376,learn,49437.000036239624,Wed Apr 22 2026 15:38:32 GMT-0500 (Central Daylight Time),349478.90000000596,A,windo,I,o,197,2,766.0999999940395,348712.8000000119,8096,WL,B,8.0
3,10.69700002670288,learn,49302.99997329712,Wed Apr 22 2026 15:38:32 GMT-0500 (Central Daylight Time),349612.2000000179,A,window,I,w,124,2,899.4000000059605,348712.8000000119,8096,WL,B,8.0
3,10.94700002670288,learn,49052.99997329712,Wed Apr 22 2026 15:38:32 GMT-0500 (Central Daylight Time),349862.10000002384,A,windowenter,I,enter,239,2,1149.300000011921,348712.8000000119,8096,WL,B,8.0
3,11.130000114440918,learn,48869.99988555908,Wed Apr 22 2026 15:38:32 GMT-0500 (Central Daylight Time),350045.40000000596,A,c,I,c,173,2,183.09999999403954,349862.3000000119,8096,WL,B,9.0
3,11.230000019073486,learn,48769.999980926514,Wed Apr 22 2026 15:38:32 GMT-0500 (Central Daylight Time),350145.3000000119,A,cl,I,l,86,2,283.0,349862.3000000119,8096,WL,B,9.0
3,11.413000106811523,learn,48586.99989318848,Wed Apr 22 2026 15:38:32 GMT-0500 (Central Daylight Time),350328.90000000596,A,clo,I,o,170,2,466.59999999403954,349862.3000000119,8096,WL,B,9.0
3,11.514000177383423,learn,48485.99982261658,Wed Apr 22 2026 15:38:32 GMT-0500 (Central Daylight Time),350429.10000002384,A,cloc,I,c,91,2,566.8000000119209,349862.3000000119,8096,WL,B,9.0
3,11.630000114440918,learn,48369.99988555908,Wed Apr 22 2026 15:38:32 GMT-0500 (Central Daylight Time),350545.2000000179,A,clock,I,k,110,2,682.9000000059605,349862.3000000119,8096,WL,B,9.0
3,11.980000019073486,learn,48019.999980926514,Wed Apr 22 2026 15:38:32 GMT-0500 (Central Daylight Time),350895.2000000179,A,clockenter,I,enter,338,2,1032.9000000059605,349862.3000000119,8096,WL,B,9.0
3,12.331000089645386,learn,47668.999910354614,Wed Apr 22 2026 15:38:32 GMT-0500 (Central Daylight Time),351246.3000000119,A,p,I,p,332,2,350.90000000596046,350895.40000000596,8096,WL,B,10.0
3,12.430000066757202,learn,47569.9999332428,Wed Apr 22 2026 15:38:32 GMT-0500 (Central Daylight Time),351345.10000002384,A,pu,I,u,93,2,449.7000000178814,350895.40000000596,8096,WL,B,10.0
3,12.713000059127808,learn,47286.99994087219,Wed Apr 22 2026 15:38:32 GMT-0500 (Central Daylight Time),351628.10000002384,A,pup,I,p,266,2,732.7000000178814,350895.40000000596,8096,WL,B,10.0
3,13.129000186920166,learn,46870.999813079834,Wed Apr 22 2026 15:38:32 GMT-0500 (Central Daylight Time),352044.7000000179,A,pupi,I,i,400,2,1149.300000011921,350895.40000000596,8096,WL,B,10.0
3,13.279000043869019,learn,46720.99995613098,Wed Apr 22 2026 15:38:32 GMT-0500 (Central Daylight Time),352194.60000002384,A,pupil,I,l,143,2,1299.2000000178814,350895.40000000596,8096,WL,B,10.0
3,13.51200008392334,learn,46487.99991607666,Wed Apr 22 2026 15:38:32 GMT-0500 (Central Daylight Time),352427.90000000596,A,pupilenter,I,enter,217,2,1532.5,350895.40000000596,8096,WL,B,10.0
3,13.663000106811523,learn,46336.99989318848,Wed Apr 22 2026 15:38:32 GMT-0500 (Central Daylight Time),352578.2000000179,A,c,I,c,136,2,149.90000000596046,352428.3000000119,8096,WL,B,11.0
3,13.76200008392334,learn,46237.99991607666,Wed Apr 22 2026 15:38:32 GMT-0500 (Central Daylight Time),352677.90000000596,A,ci,I,i,89,2,249.59999999403954,352428.3000000119,8096,WL,B,11.0
3,13.879000186920166,learn,46120.999813079834,Wed Apr 22 2026 15:38:32 GMT-0500 (Central Daylight Time),352794.5,A,cit,I,t,109,2,366.19999998807907,352428.3000000119,8096,WL,B,11.0
3,13.979000091552734,learn,46020.999908447266,Wed Apr 22 2026 15:38:32 GMT-0500 (Central Daylight Time),352894.7000000179,A,city,I,y,80,2,466.40000000596046,352428.3000000119,8096,WL,B,11.0
3,14.17900013923645,learn,45820.99986076355,Wed Apr 22 2026 15:38:32 GMT-0500 (Central Daylight Time),353094.60000002384,A,cityenter,I,enter,188,2,666.3000000119209,352428.3000000119,8096,WL,B,11.0
3,14.578999996185303,learn,45421.0000038147,Wed Apr 22 2026 15:38:32 GMT-0500 (Central Daylight Time),353494.3000000119,A,p,I,p,381,2,399.5,353094.8000000119,8096,WL,B,12.0
3,14.76200008392334,learn,45237.99991607666,Wed Apr 22 2026 15:38:32 GMT-0500 (Central Daylight Time),353677.60000002384,A,pi,I,i,173,2,582.8000000119209,353094.8000000119,8096,WL,B,12.0
3,14.912000179290771,learn,45087.99982070923,Wed Apr 22 2026 15:38:32 GMT-0500 (Central Daylight Time),353827.60000002384,A,pip,I,p,142,2,732.8000000119209,353094.8000000119,8096,WL,B,12.0
3,15.162000179290771,learn,44837.99982070923,Wed Apr 22 2026 15:38:32 GMT-0500 (Central Daylight Time),354077.5,A,pipe,I,e,233,2,982.6999999880791,353094.8000000119,8096,WL,B,12.0
3,15.445000171661377,learn,44554.99982833862,Wed Apr 22 2026 15:38:32 GMT-0500 (Central Daylight Time),354360.60000002384,A,pipeenter,I,enter,270,2,1265.800000011921,353094.8000000119,8096,WL,B,12.0
3,16.144999980926514,learn,43855.000019073486,Wed Apr 22 2026 15:38:32 GMT-0500 (Central Daylight Time),355060.40000000596,A,l,I,l,691,2,699.4000000059605,354361.0,8096,WL,B,13.0
3,16.228000164031982,learn,43771.99983596802,Wed Apr 22 2026 15:38:32 GMT-0500 (Central Daylight Time),355143.7000000179,A,la,I,a,71,2,782.7000000178814,354361.0,8096,WL,B,13.0
3,16.378000020980835,learn,43621.999979019165,Wed Apr 22 2026 15:38:32 GMT-0500 (Central Daylight Time),355293.8000000119,A,lak,I,k,140,2,932.8000000119209,354361.0,8096,WL,B,13.0
3,16.462000131607056,learn,43537.999868392944,Wed Apr 22 2026 15:38:32 GMT-0500 (Central Daylight Time),355377.2000000179,A,lake,I,e,78,2,1016.2000000178814,354361.0,8096,WL,B,13.0
3,16.59500002861023,learn,43404.99997138977,Wed Apr 22 2026 15:38:32 GMT-0500 (Central Daylight Time),355510.40000000596,A,lakeenter,I,enter,114,2,1149.4000000059605,354361.0,8096,WL,B,13.0
3,16.795000076293945,learn,43204.999923706055,Wed Apr 22 2026 15:38:32 GMT-0500 (Central Daylight Time),355710.3000000119,A,c,I,c,181,2,199.59999999403954,355510.7000000179,8096,WL,B,14.0
3,16.894999980926514,learn,43105.000019073486,Wed Apr 22 2026 15:38:32 GMT-0500 (Central Daylight Time),355810.2000000179,A,ca,I,a,93,2,299.5,355510.7000000179,8096,WL,B,14.0
3,17.01200008392334,learn,42987.99991607666,Wed Apr 22 2026 15:38:32 GMT-0500 (Central Daylight Time),355927.10000002384,A,cab,I,b,105,2,416.40000000596046,355510.7000000179,8096,WL,B,14.0
3,17.128000020980835,learn,42871.999979019165,Wed Apr 22 2026 15:38:32 GMT-0500 (Central Daylight Time),356043.5,A,cabi,I,i,100,2,532.7999999821186,355510.7000000179,8096,WL,B,14.0
3,17.195000171661377,learn,42804.99982833862,Wed Apr 22 2026 15:38:32 GMT-0500 (Central Daylight Time),356110.2000000179,A,cabin,I,n,48,2,599.5,355510.7000000179,8096,WL,B,14.0
3,17.528000116348267,learn,42471.99988365173,Wed Apr 22 2026 15:38:32 GMT-0500 (Central Daylight Time),356443.40000000596,A,cabinenter,I,enter,325,2,932.6999999880791,355510.7000000179,8096,WL,B,14.0
3,17.761000156402588,learn,42238.99984359741,Wed Apr 22 2026 15:38:32 GMT-0500 (Central Daylight Time),356676.60000002384,A,f,I,f,224,2,232.90000000596046,356443.7000000179,8096,WL,B,15.0
3,17.89400005340576,learn,42105.99994659424,Wed Apr 22 2026 15:38:32 GMT-0500 (Central Daylight Time),356809.90000000596,A,fi,I,i,127,2,366.19999998807907,356443.7000000179,8096,WL,B,15.0
3,18.011000156402588,learn,41988.99984359741,Wed Apr 22 2026 15:38:32 GMT-0500 (Central Daylight Time),356926.7000000179,A,fir,I,r,106,2,483.0,356443.7000000179,8096,WL,B,15.0
3,18.07800006866455,learn,41921.99993133545,Wed Apr 22 2026 15:38:32 GMT-0500 (Central Daylight Time),356993.3000000119,A,fire,I,e,53,2,549.5999999940395,356443.7000000179,8096,WL,B,15.0
3,18.294000148773193,learn,41705.99985122681,Wed Apr 22 2026 15:38:32 GMT-0500 (Central Daylight Time),357209.8000000119,A,fireenter,I,enter,210,2,766.0999999940395,356443.7000000179,8096,WL,B,15.0
4,0.31599998474121094,learn,59684.00001525879,Wed Apr 22 2026 15:38:32 GMT-0500 (Central Daylight Time),421689.7000000179,A,s,I,s,303,2,316.5,421373.2000000179,8096,WL,B,1.0
4,0.432999849319458,learn,59567.00015068054,Wed Apr 22 2026 15:38:32 GMT-0500 (Central Daylight Time),421806.2000000179,A,st,I,t,105,2,433.0,421373.2000000179,8096,WL,B,1.0
4,0.6159999370574951,learn,59384.000062942505,Wed Apr 22 2026 15:38:32 GMT-0500 (Central Daylight Time),421989.40000000596,A,str,I,r,173,2,616.1999999880791,421373.2000000179,8096,WL,B,1.0
4,0.682999849319458,learn,59317.00015068054,Wed Apr 22 2026 15:38:32 GMT-0500 (Central Daylight Time),422056.10000002384,A,stre,I,e,54,2,682.9000000059605,421373.2000000179,8096,WL,B,1.0
4,0.8499999046325684,learn,59150.00009536743,Wed Apr 22 2026 15:38:32 GMT-0500 (Central Daylight Time),422222.7000000179,A,stree,I,e,155,2,849.5,421373.2000000179,8096,WL,B,1.0
4,0.9499998092651367,learn,59050.00019073486,Wed Apr 22 2026 15:38:32 GMT-0500 (Central Daylight Time),422322.7000000179,A,street,I,t,93,2,949.5,421373.2000000179,8096,WL,B,1.0
4,1.1159999370574951,learn,58884.000062942505,Wed Apr 22 2026 15:38:32 GMT-0500 (Central Daylight Time),422489.40000000596,A,streetenter,I,enter,160,2,1116.199999988079,421373.2000000179,8096,WL,B,1.0
4,1.2660000324249268,learn,58733.99996757507,Wed Apr 22 2026 15:38:32 GMT-0500 (Central Daylight Time),422639.40000000596,A,g,I,g,130,2,149.7999999821186,422489.60000002384,8096,WL,B,2.0
4,1.4489998817443848,learn,58551.000118255615,Wed Apr 22 2026 15:38:32 GMT-0500 (Central Daylight Time),422822.7000000179,A,gr,I,r,164,2,333.09999999403954,422489.60000002384,8096,WL,B,2.0
4,1.5329999923706055,learn,58467.000007629395,Wed Apr 22 2026 15:38:32 GMT-0500 (Central Daylight Time),422906.10000002384,A,gra,I,a,77,2,416.5,422489.60000002384,8096,WL,B,2.0
4,1.682999849319458,learn,58317.00015068054,Wed Apr 22 2026 15:38:32 GMT-0500 (Central Daylight Time),423056.0,A,gras,I,s,137,2,566.3999999761581,422489.60000002384,8096,WL,B,2.0
4,1.8659999370574951,learn,58134.000062942505,Wed Apr 22 2026 15:38:32 GMT-0500 (Central Daylight Time),423239.3000000119,A,grass,I,s,164,2,749.6999999880791,422489.60000002384,8096,WL,B,2.0
4,1.998999834060669,learn,58001.00016593933,Wed Apr 22 2026 15:38:32 GMT-0500 (Central Daylight Time),423372.5,A,grassenter,I,enter,124,2,882.8999999761581,422489.60000002384,8096,WL,B,2.0
4,2.2990000247955322,learn,57700.99997520447,Wed Apr 22 2026 15:38:32 GMT-0500 (Central Daylight Time),423672.3000000119,A,d,I,d,279,2,299.59999999403954,423372.7000000179,8096,WL,B,3.0
4,2.4159998893737793,learn,57584.00011062622,Wed Apr 22 2026 15:38:32 GMT-0500 (Central Daylight Time),423789.10000002384,A,do,I,o,107,2,416.40000000596046,423372.7000000179,8096,WL,B,3.0
4,2.565999984741211,learn,57434.00001525879,Wed Apr 22 2026 15:38:32 GMT-0500 (Central Daylight Time),423938.8000000119,A,doo,I,o,134,2,566.0999999940395,423372.7000000179,8096,WL,B,3.0
4,2.681999921798706,learn,57318.000078201294,Wed Apr 22 2026 15:38:32 GMT-0500 (Central Daylight Time),424055.40000000596,A,door,I,r,97,2,682.6999999880791,423372.7000000179,8096,WL,B,3.0
4,2.815999984741211,learn,57184.00001525879,Wed Apr 22 2026 15:38:32 GMT-0500 (Central Daylight Time),424188.8000000119,A,doorenter,I,enter,123,2,816.0999999940395,423372.7000000179,8096,WL,B,3.0
4,3.1489999294281006,learn,56851.0000705719,Wed Apr 22 2026 15:38:32 GMT-0500 (Central Daylight Time),424522.0,A,s,I,s,327,2,333.0,424189.0,8096,WL,B,4.0
4,3.315999984741211,learn,56684.00001525879,Wed Apr 22 2026 15:38:32 GMT-0500 (Central Daylight Time),424688.8000000119,A,sk,I,k,153,2,499.80000001192093,424189.0,8096,WL,B,4.0
4,3.5149998664855957,learn,56485.000133514404,Wed Apr 22 2026 15:38:32 GMT-0500 (Central Daylight Time),424888.60000002384,A,ski,I,i,179,2,699.6000000238419,424189.0,8096,WL,B,4.0
4,3.56499981880188,learn,56435.00018119812,Wed Apr 22 2026 15:38:32 GMT-0500 (Central Daylight Time),424938.60000002384,A,skin,I,n,35,2,749.6000000238419,424189.0,8096,WL,B,4.0
4,3.7649998664855957,learn,56235.000133514404,Wed Apr 22 2026 15:38:32 GMT-0500 (Central Daylight Time),425138.5,A,skinenter,I,enter,193,2,949.5,424189.0,8096,WL,B,4.0
4,3.881999969482422,learn,56118.00003051758,Wed Apr 22 2026 15:38:32 GMT-0500 (Central Daylight Time),425255.2000000179,A,a,I,a,105,2,116.40000000596046,425138.8000000119,8096,WL,B,5.0
4,4.014999866485596,learn,55985.000133514404,Wed Apr 22 2026 15:38:32 GMT-0500 (Central Daylight Time),425388.5,A,ar,I,r,115,2,249.69999998807907,425138.8000000119,8096,WL,B,5.0
4,4.148999929428101,learn,55851.0000705719,Wed Apr 22 2026 15:38:32 GMT-0500 (Central Daylight Time),425521.8000000119,A,arm,I,m,119,2,383.0,425138.8000000119,8096,WL,B,5.0
4,4.347999811172485,learn,55652.000188827515,Wed Apr 22 2026 15:38:32 GMT-0500 (Central Daylight Time),425721.7000000179,A,armenter,I,enter,186,2,582.9000000059605,425138.8000000119,8096,WL,B,5.0
4,5.697999954223633,learn,54302.00004577637,Wed Apr 22 2026 15:38:32 GMT-0500 (Central Daylight Time),427071.3000000119,A,c,I,c,1330,2,1349.5,425721.8000000119,8096,WL,B,6.0
4,5.764999866485596,learn,54235.000133514404,Wed Apr 22 2026 15:38:32 GMT-0500 (Central Daylight Time),427137.8000000119,A,cl,I,l,52,2,1416.0,425721.8000000119,8096,WL,B,6.0
4,5.9649999141693115,learn,54035.00008583069,Wed Apr 22 2026 15:38:32 GMT-0500 (Central Daylight Time),427337.8000000119,A,clo,I,o,186,2,1616.0,425721.8000000119,8096,WL,B,6.0
4,6.097999811172485,learn,53902.000188827515,Wed Apr 22 2026 15:38:32 GMT-0500 (Central Daylight Time),427471.10000002384,A,cloc,I,c,122,2,1749.300000011921,425721.8000000119,8096,WL,B,6.0
4,6.180999994277954,learn,53819.000005722046,Wed Apr 22 2026 15:38:32 GMT-0500 (Central Daylight Time),427554.5,A,clock,I,k,78,2,1832.699999988079,425721.8000000119,8096,WL,B,6.0
4,6.380999803543091,learn,53619.00019645691,Wed Apr 22 2026 15:38:32 GMT-0500 (Central Daylight Time),427754.60000002384,A,clockenter,I,enter,193,2,2032.800000011921,425721.8000000119,8096,WL,B,6.0
4,6.648000001907349,learn,53351.99999809265,Wed Apr 22 2026 15:38:32 GMT-0500 (Central Daylight Time),428021.0,A,w,I,w,257,2,266.19999998807907,427754.8000000119,8096,WL,B,7.0
4,6.763999938964844,learn,53236.000061035156,Wed Apr 22 2026 15:38:32 GMT-0500 (Central Daylight Time),428137.5,A,wi,I,i,102,2,382.69999998807907,427754.8000000119,8096,WL,B,7.0
4,6.830999851226807,learn,53169.00014877319,Wed Apr 22 2026 15:38:32 GMT-0500 (Central Daylight Time),428204.3000000119,A,wif,I,f,58,2,449.5,427754.8000000119,8096,WL,B,7.0
4,7.0309998989105225,learn,52969.00010108948,Wed Apr 22 2026 15:38:32 GMT-0500 (Central Daylight Time),428404.2000000179,A,wife,I,e,183,2,649.4000000059605,427754.8000000119,8096,WL,B,7.0
4,7.113999843597412,learn,52886.00015640259,Wed Apr 22 2026 15:38:32 GMT-0500 (Central Daylight Time),428487.60000002384,A,wifeenter,I,enter,71,2,732.8000000119209,427754.8000000119,8096,WL,B,7.0
4,7.613999843597412,learn,52386.00015640259,Wed Apr 22 2026 15:38:32 GMT-0500 (Central Daylight Time),428987.3000000119,A,s,I,s,492,2,499.30000001192093,428488.0,8096,WL,B,8.0
4,7.746999979019165,learn,52253.000020980835,Wed Apr 22 2026 15:38:32 GMT-0500 (Central Daylight Time),429120.60000002384,A,st,I,t,113,2,632.6000000238419,428488.0,8096,WL,B,8.0
4,7.846999883651733,learn,52153.00011634827,Wed Apr 22 2026 15:38:32 GMT-0500 (Central Daylight Time),429220.5,A,sta,I,a,91,2,732.5,428488.0,8096,WL,B,8.0
4,7.947000026702881,learn,52052.99997329712,Wed Apr 22 2026 15:38:32 GMT-0500 (Central Daylight Time),429320.40000000596,A,star,I,r,79,2,832.4000000059605,428488.0,8096,WL,B,8.0
4,8.113999843597412,learn,51886.00015640259,Wed Apr 22 2026 15:38:32 GMT-0500 (Central Daylight Time),429487.40000000596,A,starenter,I,enter,147,2,999.4000000059605,428488.0,8096,WL,B,8.0
4,8.29699993133545,learn,51703.00006866455,Wed Apr 22 2026 15:38:32 GMT-0500 (Central Daylight Time),429670.5,A,w,I,w,173,2,182.7999999821186,429487.7000000179,8096,WL,B,9.0
4,8.379999876022339,learn,51620.00012397766,Wed Apr 22 2026 15:38:32 GMT-0500 (Central Daylight Time),429753.60000002384,A,wi,I,i,77,2,265.90000000596046,429487.7000000179,8096,WL,B,9.0
4,8.480999946594238,learn,51519.00005340576,Wed Apr 22 2026 15:38:32 GMT-0500 (Central Daylight Time),429853.8000000119,A,win,I,n,82,2,366.09999999403954,429487.7000000179,8096,WL,B,9.0
4,8.563999891281128,learn,51436.00010871887,Wed Apr 22 2026 15:38:32 GMT-0500 (Central Daylight Time),429936.90000000596,A,wind,I,d,77,2,449.19999998807907,429487.7000000179,8096,WL,B,9.0
4,8.71399998664856,learn,51286.00001335144,Wed Apr 22 2026 15:38:32 GMT-0500 (Central Daylight Time),430087.0,A,windo,I,o,139,2,599.2999999821186,429487.7000000179,8096,WL,B,9.0
4,8.79699993133545,learn,51203.00006866455,Wed Apr 22 2026 15:38:32 GMT-0500 (Central Daylight Time),430170.3000000119,A,window,I,w,77,2,682.5999999940395,429487.7000000179,8096,WL,B,9.0
4,8.964999914169312,learn,51035.00008583069,Wed Apr 22 2026 15:38:32 GMT-0500 (Central Daylight Time),430337.7000000179,A,windowenter,I,enter,162,2,850.0,429487.7000000179,8096,WL,B,9.0
4,9.712999820709229,learn,50287.00017929077,Wed Apr 22 2026 15:38:32 GMT-0500 (Central Daylight Time),431086.60000002384,A,p,I,p,730,2,748.7000000178814,430337.90000000596,8096,WL,B,10.0
4,9.86299991607666,learn,50137.00008392334,Wed Apr 22 2026 15:38:32 GMT-0500 (Central Daylight Time),431236.5,A,pu,I,u,141,2,898.5999999940395,430337.90000000596,8096,WL,B,10.0
4,10.079999923706055,learn,49920.000076293945,Wed Apr 22 2026 15:38:32 GMT-0500 (Central Daylight Time),431453.2000000179,A,pup,I,p,199,2,1115.300000011921,430337.90000000596,8096,WL,B,10.0
4,10.246999979019165,learn,49753.000020980835,Wed Apr 22 2026 15:38:32 GMT-0500 (Central Daylight Time),431620.0,A,pupi,I,i,150,2,1282.0999999940395,430337.90000000596,8096,WL,B,10.0
4,10.412999868392944,learn,49587.000131607056,Wed Apr 22 2026 15:38:32 GMT-0500 (Central Daylight Time),431786.40000000596,A,pupil,I,l,160,2,1448.5,430337.90000000596,8096,WL,B,10.0
4,10.645999908447266,learn,49354.000091552734,Wed Apr 22 2026 15:38:32 GMT-0500 (Central Daylight Time),432019.7000000179,A,pupilenter,I,enter,225,2,1681.800000011921,430337.90000000596,8096,WL,B,10.0
4,10.812999963760376,learn,49187.000036239624,Wed Apr 22 2026 15:38:32 GMT-0500 (Central Daylight Time),432186.40000000596,A,c,I,c,152,2,166.5,432019.90000000596,8096,WL,B,11.0
4,10.895999908447266,learn,49104.000091552734,Wed Apr 22 2026 15:38:32 GMT-0500 (Central Daylight Time),432269.60000002384,A,ci,I,i,73,2,249.7000000178814,432019.90000000596,8096,WL,B,11.0
4,11.02999997138977,learn,48970.00002861023,Wed Apr 22 2026 15:38:32 GMT-0500 (Central Daylight Time),432402.8000000119,A,cit,I,t,125,2,382.90000000596046,432019.90000000596,8096,WL,B,11.0
4,11.11299991607666,learn,48887.00008392334,Wed Apr 22 2026 15:38:32 GMT-0500 (Central Daylight Time),432486.3000000119,A,city,I,y,65,2,466.40000000596046,432019.90000000596,8096,WL,B,11.0
4,11.329999923706055,learn,48670.000076293945,Wed Apr 22 2026 15:38:32 GMT-0500 (Central Daylight Time),432702.90000000596,A,cityenter,I,enter,206,2,683.0,432019.90000000596,8096,WL,B,11.0
4,11.679999828338623,learn,48320.00017166138,Wed Apr 22 2026 15:38:32 GMT-0500 (Central Daylight Time),433053.60000002384,A,p,I,p,333,2,350.40000000596046,432703.2000000179,8096,WL,B,12.0
4,11.812999963760376,learn,48187.000036239624,Wed Apr 22 2026 15:38:32 GMT-0500 (Central Daylight Time),433186.10000002384,A,pi,I,i,117,2,482.90000000596046,432703.2000000179,8096,WL,B,12.0
4,11.980000019073486,learn,48019.999980926514,Wed Apr 22 2026 15:38:32 GMT-0500 (Central Daylight Time),433352.7000000179,A,pip,I,p,146,2,649.5,432703.2000000179,8096,WL,B,12.0
4,12.812000036239624,learn,47187.999963760376,Wed Apr 22 2026 15:38:32 GMT-0500 (Central Daylight Time),434185.7000000179,A,pipe,I,e,827,2,1482.5,432703.2000000179,8096,WL,B,12.0
4,13.095999956130981,learn,46904.00004386902,Wed Apr 22 2026 15:38:32 GMT-0500 (Central Daylight Time),434469.0,A,pipeenter,I,enter,266,2,1765.7999999821186,432703.2000000179,8096,WL,B,12.0
4,13.94599986076355,learn,46054.00013923645,Wed Apr 22 2026 15:38:32 GMT-0500 (Central Daylight Time),435318.7000000179,A,c,I,c,839,2,849.5,434469.2000000179,8096,WL,B,13.0
4,14.044999837875366,learn,45955.000162124634,Wed Apr 22 2026 15:38:32 GMT-0500 (Central Daylight Time),435418.60000002384,A,ca,I,a,86,2,949.4000000059605,434469.2000000179,8096,WL,B,13.0
4,14.144999980926514,learn,45855.000019073486,Wed Apr 22 2026 15:38:32 GMT-0500 (Central Daylight Time),435518.60000002384,A,cab,I,b,89,2,1049.4000000059605,434469.2000000179,8096,WL,B,13.0
4,14.244999885559082,learn,45755.00011444092,Wed Apr 22 2026 15:38:32 GMT-0500 (Central Daylight Time),435618.7000000179,A,cabi,I,i,93,2,1149.5,434469.2000000179,8096,WL,B,13.0
4,14.328999996185303,learn,45671.0000038147,Wed Apr 22 2026 15:38:32 GMT-0500 (Central Daylight Time),435702.10000002384,A,cabin,I,n,65,2,1232.9000000059605,434469.2000000179,8096,WL,B,13.0
4,14.711999893188477,learn,45288.00010681152,Wed Apr 22 2026 15:38:32 GMT-0500 (Central Daylight Time),436085.2000000179,A,cabinenter,I,enter,366,2,1616.0,434469.2000000179,8096,WL,B,13.0
4,15.027999877929688,learn,44972.00012207031,Wed Apr 22 2026 15:38:32 GMT-0500 (Central Daylight Time),436401.60000002384,A,f,I,f,311,2,316.30000001192093,436085.3000000119,8096,WL,B,14.0
4,15.17799997329712,learn,44822.00002670288,Wed Apr 22 2026 15:38:32 GMT-0500 (Central Daylight Time),436551.60000002384,A,fi,I,i,138,2,466.30000001192093,436085.3000000119,8096,WL,B,14.0
4,15.277999877929688,learn,44722.00012207031,Wed Apr 22 2026 15:38:32 GMT-0500 (Central Daylight Time),436651.5,A,fir,I,r,84,2,566.1999999880791,436085.3000000119,8096,WL,B,14.0
4,15.34500002861023,learn,44654.99997138977,Wed Apr 22 2026 15:38:32 GMT-0500 (Central Daylight Time),436718.3000000119,A,fire,I,e,56,2,633.0,436085.3000000119,8096,WL,B,14.0
4,15.544999837875366,learn,44455.000162124634,Wed Apr 22 2026 15:38:32 GMT-0500 (Central Daylight Time),436918.2000000179,A,fireenter,I,enter,181,2,832.9000000059605,436085.3000000119,8096,WL,B,14.0
4,16.477999925613403,learn,43522.0000743866,Wed Apr 22 2026 15:38:32 GMT-0500 (Central Daylight Time),437851.2000000179,A,l,I,l,918,2,932.8000000119209,436918.40000000596,8096,WL,B,15.0
4,16.544999837875366,learn,43455.000162124634,Wed Apr 22 2026 15:38:32 GMT-0500 (Central Daylight Time),437917.90000000596,A,la,I,a,56,2,999.5,436918.40000000596,8096,WL,B,15.0
4,16.644999980926514,learn,43355.000019073486,Wed Apr 22 2026 15:38:32 GMT-0500 (Central Daylight Time),438017.8000000119,A,lak,I,k,94,2,1099.4000000059605,436918.40000000596,8096,WL,B,15.0
4,16.76099991798401,learn,43239.00008201599,Wed Apr 22 2026 15:38:32 GMT-0500 (Central Daylight Time),438134.40000000596,A,lake,I,e,106,2,1216.0,436918.40000000596,8096,WL,B,15.0
4,16.894999980926514,learn,43105.000019073486,Wed Apr 22 2026 15:38:32 GMT-0500 (Central Daylight Time),438267.7000000179,A,lakeenter,I,enter,116,2,1349.300000011921,436918.40000000596,8096,WL,B,15.0
5,0.3000001907348633,learn,60000.0,Wed Apr 22 2026 15:38:32 GMT-0500 (Central Daylight Time),502580.90000000596,A,s,I,s,291,2,299.7999999821186,502281.10000002384,8096,WL,B,1.0
5,0.4160001277923584,learn,60000.0,Wed Apr 22 2026 15:38:32 GMT-0500 (Central Daylight Time),502697.5,A,st,I,t,110,2,416.39999997615814,502281.10000002384,8096,WL,B,1.0
5,0.6160001754760742,learn,60000.0,Wed Apr 22 2026 15:38:32 GMT-0500 (Central Daylight Time),502897.7000000179,A,str,I,r,194,2,616.5999999940395,502281.10000002384,8096,WL,B,1.0
5,0.6990001201629639,learn,60000.0,Wed Apr 22 2026 15:38:32 GMT-0500 (Central Daylight Time),502980.7000000179,A,stre,I,e,66,2,699.5999999940395,502281.10000002384,8096,WL,B,1.0
5,0.8830001354217529,learn,60000.0,Wed Apr 22 2026 15:38:32 GMT-0500 (Central Daylight Time),503163.90000000596,A,stree,I,e,175,2,882.7999999821186,502281.10000002384,8096,WL,B,1.0
5,0.999000072479248,learn,60000.0,Wed Apr 22 2026 15:38:32 GMT-0500 (Central Daylight Time),503280.60000002384,A,street,I,t,112,2,999.5,502281.10000002384,8096,WL,B,1.0
5,1.1660001277923584,learn,60000.0,Wed Apr 22 2026 15:38:32 GMT-0500 (Central Daylight Time),503447.2000000179,A,streetenter,I,enter,155,2,1166.0999999940395,502281.10000002384,8096,WL,B,1.0
5,1.315999984741211,learn,60000.0,Wed Apr 22 2026 15:38:32 GMT-0500 (Central Daylight Time),503597.2000000179,A,g,I,g,141,2,149.7000000178814,503447.5,8096,WL,B,2.0
5,1.499000072479248,learn,60000.0,Wed Apr 22 2026 15:38:32 GMT-0500 (Central Daylight Time),503780.60000002384,A,gr,I,r,166,2,333.10000002384186,503447.5,8096,WL,B,2.0
5,1.5830001831054688,learn,60000.0,Wed Apr 22 2026 15:38:32 GMT-0500 (Central Daylight Time),503863.90000000596,A,gra,I,a,70,2,416.40000000596046,503447.5,8096,WL,B,2.0
5,1.749000072479248,learn,60000.0,Wed Apr 22 2026 15:38:32 GMT-0500 (Central Daylight Time),504030.5,A,gras,I,s,156,2,583.0,503447.5,8096,WL,B,2.0
5,1.9490001201629639,learn,60000.0,Wed Apr 22 2026 15:38:32 GMT-0500 (Central Daylight Time),504230.40000000596,A,grass,I,s,181,2,782.9000000059605,503447.5,8096,WL,B,2.0
5,2.116000175476074,learn,60000.0,Wed Apr 22 2026 15:38:32 GMT-0500 (Central Daylight Time),504397.5,A,grassenter,I,enter,157,2,950.0,503447.5,8096,WL,B,2.0
5,2.4820001125335693,learn,60000.0,Wed Apr 22 2026 15:38:32 GMT-0500 (Central Daylight Time),504763.5,A,s,I,s,350,2,365.69999998807907,504397.8000000119,8096,WL,B,3.0
5,2.5989999771118164,learn,60000.0,Wed Apr 22 2026 15:38:32 GMT-0500 (Central Daylight Time),504880.2000000179,A,sk,I,k,95,2,482.40000000596046,504397.8000000119,8096,WL,B,3.0
5,2.7820000648498535,learn,60000.0,Wed Apr 22 2026 15:38:32 GMT-0500 (Central Daylight Time),505063.40000000596,A,ski,I,i,163,2,665.5999999940395,504397.8000000119,8096,WL,B,3.0
5,2.8489999771118164,learn,60000.0,Wed Apr 22 2026 15:38:32 GMT-0500 (Central Daylight Time),505130.10000002384,A,skin,I,n,52,2,732.3000000119209,504397.8000000119,8096,WL,B,3.0
5,3.132000207901001,learn,60000.0,Wed Apr 22 2026 15:38:32 GMT-0500 (Central Daylight Time),505413.2000000179,A,skinenter,I,enter,274,2,1015.4000000059605,504397.8000000119,8096,WL,B,3.0
5,3.265000104904175,learn,60000.0,Wed Apr 22 2026 15:38:32 GMT-0500 (Central Daylight Time),505546.60000002384,A,a,I,a,126,2,133.2000000178814,505413.40000000596,8096,WL,B,4.0
5,3.382000207901001,learn,60000.0,Wed Apr 22 2026 15:38:32 GMT-0500 (Central Daylight Time),505663.3000000119,A,ar,I,r,105,2,249.90000000596046,505413.40000000596,8096,WL,B,4.0
5,3.5320000648498535,learn,60000.0,Wed Apr 22 2026 15:38:32 GMT-0500 (Central Daylight Time),505813.2000000179,A,arm,I,m,132,2,399.80000001192093,505413.40000000596,8096,WL,B,4.0
5,3.749000072479248,learn,60000.0,Wed Apr 22 2026 15:38:32 GMT-0500 (Central Daylight Time),506030.0,A,armenter,I,enter,206,2,616.5999999940395,505413.40000000596,8096,WL,B,4.0
5,3.9150002002716064,learn,60000.0,Wed Apr 22 2026 15:38:32 GMT-0500 (Central Daylight Time),506196.5,A,d,I,d,149,2,166.39999997615814,506030.10000002384,8096,WL,B,5.0
5,4.04800009727478,learn,60000.0,Wed Apr 22 2026 15:38:32 GMT-0500 (Central Daylight Time),506329.8000000119,A,do,I,o,127,2,299.69999998807907,506030.10000002384,8096,WL,B,5.0
5,4.215000152587891,learn,60000.0,Wed Apr 22 2026 15:38:32 GMT-0500 (Central Daylight Time),506496.3000000119,A,doo,I,o,154,2,466.19999998807907,506030.10000002384,8096,WL,B,5.0
5,4.315000057220459,learn,60000.0,Wed Apr 22 2026 15:38:32 GMT-0500 (Central Daylight Time),506596.5,A,door,I,r,83,2,566.3999999761581,506030.10000002384,8096,WL,B,5.0
5,4.5320000648498535,learn,60000.0,Wed Apr 22 2026 15:38:32 GMT-0500 (Central Daylight Time),506813.0,A,doorenter,I,enter,198,2,782.8999999761581,506030.10000002384,8096,WL,B,5.0
5,5.04800009727478,learn,60000.0,Wed Apr 22 2026 15:38:32 GMT-0500 (Central Daylight Time),507329.3000000119,A,c,I,c,510,2,516.0999999940395,506813.2000000179,8096,WL,B,6.0
5,5.148000001907349,learn,60000.0,Wed Apr 22 2026 15:38:32 GMT-0500 (Central Daylight Time),507429.40000000596,A,cl,I,l,90,2,616.1999999880791,506813.2000000179,8096,WL,B,6.0
5,5.3480000495910645,learn,60000.0,Wed Apr 22 2026 15:38:32 GMT-0500 (Central Daylight Time),507629.3000000119,A,clo,I,o,190,2,816.0999999940395,506813.2000000179,8096,WL,B,6.0
5,5.448000192642212,learn,60000.0,Wed Apr 22 2026 15:38:32 GMT-0500 (Central Daylight Time),507729.10000002384,A,cloc,I,c,86,2,915.9000000059605,506813.2000000179,8096,WL,B,6.0
5,5.54800009727478,learn,60000.0,Wed Apr 22 2026 15:38:32 GMT-0500 (Central Daylight Time),507829.2000000179,A,clock,I,k,90,2,1016.0,506813.2000000179,8096,WL,B,6.0
5,5.731000185012817,learn,60000.0,Wed Apr 22 2026 15:38:32 GMT-0500 (Central Daylight Time),508012.40000000596,A,clockenter,I,enter,174,2,1199.199999988079,506813.2000000179,8096,WL,B,6.0
5,6.081000089645386,learn,60000.0,Wed Apr 22 2026 15:38:32 GMT-0500 (Central Daylight Time),508362.40000000596,A,s,I,s,335,2,349.69999998807907,508012.7000000179,8096,WL,B,7.0
5,6.21399998664856,learn,60000.0,Wed Apr 22 2026 15:38:32 GMT-0500 (Central Daylight Time),508495.8000000119,A,si,I,i,121,2,483.09999999403954,508012.7000000179,8096,WL,B,7.0
5,6.3480000495910645,learn,60000.0,Wed Apr 22 2026 15:38:32 GMT-0500 (Central Daylight Time),508629.10000002384,A,sif,I,f,124,2,616.4000000059605,508012.7000000179,8096,WL,B,7.0
5,6.514000177383423,learn,60000.0,Wed Apr 22 2026 15:38:32 GMT-0500 (Central Daylight Time),508795.8000000119,A,sife,I,e,158,2,783.0999999940395,508012.7000000179,8096,WL,B,7.0
5,6.797000169754028,learn,60000.0,Wed Apr 22 2026 15:38:32 GMT-0500 (Central Daylight Time),509078.8000000119,A,sif,I,backspace,263,2,1066.0999999940395,508012.7000000179,8096,WL,B,7.0
5,6.947000026702881,learn,60000.0,Wed Apr 22 2026 15:38:32 GMT-0500 (Central Daylight Time),509228.7000000179,A,si,I,backspace,141,2,1216.0,508012.7000000179,8096,WL,B,7.0
5,7.064000129699707,learn,60000.0,Wed Apr 22 2026 15:38:32 GMT-0500 (Central Daylight Time),509345.40000000596,A,s,I,backspace,111,2,1332.699999988079,508012.7000000179,8096,WL,B,7.0
5,7.252000093460083,learn,60000.0,Wed Apr 22 2026 15:38:32 GMT-0500 (Central Daylight Time),509533.10000002384,A,,I,backspace,183,2,1520.4000000059605,508012.7000000179,8096,WL,B,7.0
5,7.39900016784668,learn,60000.0,Wed Apr 22 2026 15:38:32 GMT-0500 (Central Daylight Time),509680.40000000596,A,w,I,w,141,2,1667.699999988079,508012.7000000179,8096,WL,B,7.0
5,7.581000089645386,learn,60000.0,Wed Apr 22 2026 15:38:32 GMT-0500 (Central Daylight Time),509861.90000000596,A,wi,I,i,162,2,1849.199999988079,508012.7000000179,8096,WL,B,7.0
5,7.71399998664856,learn,60000.0,Wed Apr 22 2026 15:38:32 GMT-0500 (Central Daylight Time),509995.3000000119,A,wif,I,f,125,2,1982.5999999940395,508012.7000000179,8096,WL,B,7.0
5,7.797000169754028,learn,60000.0,Wed Apr 22 2026 15:38:32 GMT-0500 (Central Daylight Time),510078.60000002384,A,wife,I,e,64,2,2065.9000000059605,508012.7000000179,8096,WL,B,7.0
5,7.947000026702881,learn,60000.0,Wed Apr 22 2026 15:38:32 GMT-0500 (Central Daylight Time),510228.5,A,wifeenter,I,enter,133,2,2215.7999999821186,508012.7000000179,8096,WL,B,7.0
5,8.147000074386597,learn,60000.0,Wed Apr 22 2026 15:38:32 GMT-0500 (Central Daylight Time),510428.40000000596,A,w,I,w,183,2,199.69999998807907,510228.7000000179,8096,WL,B,8.0
5,8.246999979019165,learn,60000.0,Wed Apr 22 2026 15:38:32 GMT-0500 (Central Daylight Time),510528.60000002384,A,wi,I,i,79,2,299.90000000596046,510228.7000000179,8096,WL,B,8.0
5,8.330000162124634,learn,60000.0,Wed Apr 22 2026 15:38:32 GMT-0500 (Central Daylight Time),510611.8000000119,A,win,I,n,75,2,383.09999999403954,510228.7000000179,8096,WL,B,8.0
5,8.46399998664856,learn,60000.0,Wed Apr 22 2026 15:38:32 GMT-0500 (Central Daylight Time),510745.0,A,wind,I,d,120,2,516.2999999821186,510228.7000000179,8096,WL,B,8.0
5,8.564000129699707,learn,60000.0,Wed Apr 22 2026 15:38:32 GMT-0500 (Central Daylight Time),510845.2000000179,A,windo,I,o,83,2,616.5,510228.7000000179,8096,WL,B,8.0
5,8.664000034332275,learn,60000.0,Wed Apr 22 2026 15:38:32 GMT-0500 (Central Daylight Time),510945.2000000179,A,window,I,w,86,2,716.5,510228.7000000179,8096,WL,B,8.0
5,8.797000169754028,learn,60000.0,Wed Apr 22 2026 15:38:32 GMT-0500 (Central Daylight Time),511078.3000000119,A,windowenter,I,enter,114,2,849.5999999940395,510228.7000000179,8096,WL,B,8.0
5,8.930000066757202,learn,60000.0,Wed Apr 22 2026 15:38:32 GMT-0500 (Central Daylight Time),511211.5,A,s,I,s,125,2,132.89999997615814,511078.60000002384,8096,WL,B,9.0
5,9.080000162124634,learn,60000.0,Wed Apr 22 2026 15:38:32 GMT-0500 (Central Daylight Time),511361.5,A,st,I,t,136,2,282.89999997615814,511078.60000002384,8096,WL,B,9.0
5,9.213000059127808,learn,60000.0,Wed Apr 22 2026 15:38:32 GMT-0500 (Central Daylight Time),511494.7000000179,A,sta,I,a,122,2,416.09999999403954,511078.60000002384,8096,WL,B,9.0
5,9.28000020980835,learn,60000.0,Wed Apr 22 2026 15:38:32 GMT-0500 (Central Daylight Time),511561.5,A,star,I,r,62,2,482.89999997615814,511078.60000002384,8096,WL,B,9.0
5,9.730000019073486,learn,60000.0,Wed Apr 22 2026 15:38:32 GMT-0500 (Central Daylight Time),512011.2000000179,A,starenter,I,enter,442,2,932.5999999940395,511078.60000002384,8096,WL,B,9.0
5,10.080000162124634,learn,60000.0,Wed Apr 22 2026 15:38:32 GMT-0500 (Central Daylight Time),512361.10000002384,A,p,I,p,345,2,349.7000000178814,512011.40000000596,8096,WL,B,10.0
5,10.580000162124634,learn,60000.0,Wed Apr 22 2026 15:38:32 GMT-0500 (Central Daylight Time),512861.0,A,pu,I,u,490,2,849.5999999940395,512011.40000000596,8096,WL,B,10.0
5,10.830000162124634,learn,60000.0,Wed Apr 22 2026 15:38:32 GMT-0500 (Central Daylight Time),513110.90000000596,A,pup,I,p,230,2,1099.5,512011.40000000596,8096,WL,B,10.0
5,10.963000059127808,learn,60000.0,Wed Apr 22 2026 15:38:32 GMT-0500 (Central Daylight Time),513244.2000000179,A,pupi,I,i,117,2,1232.800000011921,512011.40000000596,8096,WL,B,10.0
5,11.146000146865845,learn,60000.0,Wed Apr 22 2026 15:38:32 GMT-0500 (Central Daylight Time),513427.5,A,pupil,I,l,167,2,1416.0999999940395,512011.40000000596,8096,WL,B,10.0
5,11.34600019454956,learn,60000.0,Wed Apr 22 2026 15:38:32 GMT-0500 (Central Daylight Time),513627.40000000596,A,pupilenter,I,enter,184,2,1616.0,512011.40000000596,8096,WL,B,10.0
5,11.61300015449524,learn,60000.0,Wed Apr 22 2026 15:38:32 GMT-0500 (Central Daylight Time),513894.10000002384,A,p,I,p,249,2,266.5,513627.60000002384,8096,WL,B,11.0
5,11.763000011444092,learn,60000.0,Wed Apr 22 2026 15:38:32 GMT-0500 (Central Daylight Time),514044.0,A,pi,I,i,141,2,416.39999997615814,513627.60000002384,8096,WL,B,11.0
5,11.896000146865845,learn,60000.0,Wed Apr 22 2026 15:38:32 GMT-0500 (Central Daylight Time),514177.2000000179,A,pip,I,p,119,2,549.5999999940395,513627.60000002384,8096,WL,B,11.0
5,12.17900013923645,learn,60000.0,Wed Apr 22 2026 15:38:32 GMT-0500 (Central Daylight Time),514460.40000000596,A,pipe,I,e,274,2,832.7999999821186,513627.60000002384,8096,WL,B,11.0
5,12.361999988555908,learn,60000.0,Wed Apr 22 2026 15:38:32 GMT-0500 (Central Daylight Time),514643.7000000179,A,pipeenter,I,enter,167,2,1016.0999999940395,513627.60000002384,8096,WL,B,11.0
5,12.562000036239624,learn,60000.0,Wed Apr 22 2026 15:38:32 GMT-0500 (Central Daylight Time),514843.60000002384,A,c,I,c,192,2,199.60000002384186,514644.0,8096,WL,B,12.0
5,12.67900013923645,learn,60000.0,Wed Apr 22 2026 15:38:32 GMT-0500 (Central Daylight Time),514960.3000000119,A,ci,I,i,105,2,316.30000001192093,514644.0,8096,WL,B,12.0
5,12.812000036239624,learn,60000.0,Wed Apr 22 2026 15:38:32 GMT-0500 (Central Daylight Time),515093.7000000179,A,cit,I,t,123,2,449.7000000178814,514644.0,8096,WL,B,12.0
5,12.912000179290771,learn,60000.0,Wed Apr 22 2026 15:38:32 GMT-0500 (Central Daylight Time),515193.60000002384,A,city,I,y,94,2,549.6000000238419,514644.0,8096,WL,B,12.0
5,13.180000066757202,learn,60000.0,Wed Apr 22 2026 15:38:32 GMT-0500 (Central Daylight Time),515461.5,A,cityenter,I,enter,258,2,817.5,514644.0,8096,WL,B,12.0
5,13.712000131607056,learn,60000.0,Wed Apr 22 2026 15:38:32 GMT-0500 (Central Daylight Time),515993.40000000596,A,c,I,c,526,2,531.5999999940395,515461.8000000119,8096,WL,B,13.0
5,13.828999996185303,learn,60000.0,Wed Apr 22 2026 15:38:32 GMT-0500 (Central Daylight Time),516110.2000000179,A,ca,I,a,99,2,648.4000000059605,515461.8000000119,8096,WL,B,13.0
5,13.962000131607056,learn,60000.0,Wed Apr 22 2026 15:38:32 GMT-0500 (Central Daylight Time),516243.3000000119,A,cab,I,b,117,2,781.5,515461.8000000119,8096,WL,B,13.0
5,14.09500002861023,learn,60000.0,Wed Apr 22 2026 15:38:32 GMT-0500 (Central Daylight Time),516376.7000000179,A,cabi,I,i,120,2,914.9000000059605,515461.8000000119,8096,WL,B,13.0
5,14.17900013923645,learn,60000.0,Wed Apr 22 2026 15:38:32 GMT-0500 (Central Daylight Time),516460.2000000179,A,cabin,I,n,66,2,998.4000000059605,515461.8000000119,8096,WL,B,13.0
5,14.412000179290771,learn,60000.0,Wed Apr 22 2026 15:38:32 GMT-0500 (Central Daylight Time),516693.10000002384,A,cabinenter,I,enter,216,2,1231.300000011921,515461.8000000119,8096,WL,B,13.0
5,14.644999980926514,learn,60000.0,Wed Apr 22 2026 15:38:32 GMT-0500 (Central Daylight Time),516926.40000000596,A,l,I,l,215,2,233.09999999403954,516693.3000000119,8096,WL,B,14.0
5,14.728000164031982,learn,60000.0,Wed Apr 22 2026 15:38:32 GMT-0500 (Central Daylight Time),517009.7000000179,A,la,I,a,69,2,316.40000000596046,516693.3000000119,8096,WL,B,14.0
5,14.945000171661377,learn,60000.0,Wed Apr 22 2026 15:38:32 GMT-0500 (Central Daylight Time),517226.5,A,lak,I,k,202,2,533.1999999880791,516693.3000000119,8096,WL,B,14.0
5,15.062000036239624,learn,60000.0,Wed Apr 22 2026 15:38:32 GMT-0500 (Central Daylight Time),517343.10000002384,A,lake,I,e,105,2,649.8000000119209,516693.3000000119,8096,WL,B,14.0
5,15.195000171661377,learn,60000.0,Wed Apr 22 2026 15:38:32 GMT-0500 (Central Daylight Time),517476.40000000596,A,lakeenter,I,enter,124,2,783.0999999940395,516693.3000000119,8096,WL,B,14.0
5,15.463000059127808,learn,60000.0,Wed Apr 22 2026 15:38:32 GMT-0500 (Central Daylight Time),517743.90000000596,A,f,I,f,255,2,267.2999999821186,517476.60000002384,8096,WL,B,15.0
5,15.59500002861023,learn,60000.0,Wed Apr 22 2026 15:38:32 GMT-0500 (Central Daylight Time),517876.0,A,fi,I,i,123,2,399.39999997615814,517476.60000002384,8096,WL,B,15.0
5,15.711000204086304,learn,60000.0,Wed Apr 22 2026 15:38:32 GMT-0500 (Central Daylight Time),517992.8000000119,A,fir,I,r,103,2,516.1999999880791,517476.60000002384,8096,WL,B,15.0
5,15.761000156402588,learn,60000.0,Wed Apr 22 2026 15:38:32 GMT-0500 (Central Daylight Time),518042.7000000179,A,fire,I,e,35,2,566.0999999940395,517476.60000002384,8096,WL,B,15.0
5,16.1780002117157,learn,60000.0,Wed Apr 22 2026 15:38:32 GMT-0500 (Central Daylight Time),518459.5,A,fireenter,I,enter,401,2,982.8999999761581,517476.60000002384,8096,WL,B,15.0
6,0.4140000343322754,distr,59585.999965667725,Wed Apr 22 2026 15:38:32 GMT-0500 (Central Daylight Time),603879.8000000119,B,b,I,b,410,2,413.80000001192093,603466.0,8096,WL,B,1.0
6,0.43400001525878906,distr,59565.99998474121,Wed Apr 22 2026 15:38:32 GMT-0500 (Central Daylight Time),603899.1000000238,B,ba,I,a,4,2,433.10000002384186,603466.0,8096,WL,B,1.0
6,0.562000036239624,distr,59437.999963760376,Wed Apr 22 2026 15:38:32 GMT-0500 (Central Daylight Time),604027.7000000179,B,bab,I,b,124,2,561.7000000178814,603466.0,8096,WL,B,1.0
6,1.116999864578247,distr,58883.00013542175,Wed Apr 22 2026 15:38:32 GMT-0500 (Central Daylight Time),604582.2000000179,B,baby,I,y,542,2,1116.2000000178814,603466.0,8096,WL,B,1.0
6,1.7170000076293945,distr,58282.999992370605,Wed Apr 22 2026 15:38:32 GMT-0500 (Central Daylight Time),605182.0,B,babyenter,I,enter,581,2,1716.0,603466.0,8096,WL,B,1.0
6,2.75,distr,57250.0,Wed Apr 22 2026 15:38:32 GMT-0500 (Central Daylight Time),606215.1000000238,B,d,I,d,1021,2,1032.800000011921,605182.3000000119,8096,WL,B,2.0
6,2.9489998817443848,distr,57051.000118255615,Wed Apr 22 2026 15:38:32 GMT-0500 (Central Daylight Time),606415.0,B,dr,I,r,180,2,1232.699999988079,605182.3000000119,8096,WL,B,2.0
6,2.9830000400543213,distr,57016.99995994568,Wed Apr 22 2026 15:38:32 GMT-0500 (Central Daylight Time),606448.400000006,B,dre,I,e,12,2,1266.0999999940395,605182.3000000119,8096,WL,B,2.0
6,3.1659998893737793,distr,56834.00011062622,Wed Apr 22 2026 15:38:32 GMT-0500 (Central Daylight Time),606631.7000000179,B,dres,I,s,172,2,1449.4000000059605,605182.3000000119,8096,WL,B,2.0
6,3.3329999446868896,distr,56667.00005531311,Wed Apr 22 2026 15:38:32 GMT-0500 (Central Daylight Time),606798.2000000179,B,dress,I,s,148,2,1615.9000000059605,605182.3000000119,8096,WL,B,2.0
6,3.3989999294281006,distr,56601.0000705719,Wed Apr 22 2026 15:38:32 GMT-0500 (Central Daylight Time),606864.900000006,B,dressenter,I,enter,53,2,1682.5999999940395,605182.3000000119,8096,WL,B,2.0
6,3.6659998893737793,distr,56334.00011062622,Wed Apr 22 2026 15:38:32 GMT-0500 (Central Daylight Time),607131.3000000119,B,p,I,p,250,2,266.09999999403954,606865.2000000179,8096,WL,B,3.0
6,3.7829999923706055,distr,56217.000007629395,Wed Apr 22 2026 15:38:32 GMT-0500 (Central Daylight Time),607248.2000000179,B,pa,I,a,96,2,383.0,606865.2000000179,8096,WL,B,3.0
6,3.882999897003174,distr,56117.000102996826,Wed Apr 22 2026 15:38:32 GMT-0500 (Central Daylight Time),607348.0,B,pap,I,p,91,2,482.7999999821186,606865.2000000179,8096,WL,B,3.0
6,4.299000024795532,distr,55700.99997520447,Wed Apr 22 2026 15:38:32 GMT-0500 (Central Daylight Time),607764.6000000238,B,pa,I,backspace,407,2,899.4000000059605,606865.2000000179,8096,WL,B,3.0
6,4.448999881744385,distr,55551.000118255615,Wed Apr 22 2026 15:38:32 GMT-0500 (Central Daylight Time),607914.5,B,pal,I,l,135,2,1049.2999999821186,606865.2000000179,8096,WL,B,3.0
6,4.516000032424927,distr,55483.99996757507,Wed Apr 22 2026 15:38:32 GMT-0500 (Central Daylight Time),607981.400000006,B,pala,I,a,57,2,1116.199999988079,606865.2000000179,8096,WL,B,3.0
6,4.648999929428101,distr,55351.0000705719,Wed Apr 22 2026 15:38:32 GMT-0500 (Central Daylight Time),608114.5,B,palac,I,c,126,2,1249.2999999821186,606865.2000000179,8096,WL,B,3.0
6,4.848999977111816,distr,55151.00002288818,Wed Apr 22 2026 15:38:32 GMT-0500 (Central Daylight Time),608314.400000006,B,palace,I,e,185,2,1449.199999988079,606865.2000000179,8096,WL,B,3.0
6,4.931999921798706,distr,55068.000078201294,Wed Apr 22 2026 15:38:32 GMT-0500 (Central Daylight Time),608397.900000006,B,palaceenter,I,enter,65,2,1532.699999988079,606865.2000000179,8096,WL,B,3.0
6,5.082000017166138,distr,54917.99998283386,Wed Apr 22 2026 15:38:32 GMT-0500 (Central Daylight Time),608547.7000000179,B,b,I,b,134,2,149.59999999403954,608398.1000000238,8096,WL,B,4.0
6,5.2159998416900635,distr,54784.00015830994,Wed Apr 22 2026 15:38:32 GMT-0500 (Central Daylight Time),608681.0,B,bu,I,u,120,2,282.89999997615814,608398.1000000238,8096,WL,B,4.0
6,5.23199987411499,distr,54768.00012588501,Wed Apr 22 2026 15:38:32 GMT-0500 (Central Daylight Time),608697.6000000238,B,bui,I,i,2,2,299.5,608398.1000000238,8096,WL,B,4.0
6,5.414999961853027,distr,54585.00003814697,Wed Apr 22 2026 15:38:32 GMT-0500 (Central Daylight Time),608881.0,B,buil,I,l,162,2,482.89999997615814,608398.1000000238,8096,WL,B,4.0
6,5.448999881744385,distr,54551.000118255615,Wed Apr 22 2026 15:38:32 GMT-0500 (Central Daylight Time),608914.2000000179,B,build,I,d,27,2,516.0999999940395,608398.1000000238,8096,WL,B,4.0
6,5.615000009536743,distr,54384.99999046326,Wed Apr 22 2026 15:38:32 GMT-0500 (Central Daylight Time),609080.7000000179,B,buildi,I,i,153,2,682.5999999940395,608398.1000000238,8096,WL,B,4.0
6,5.681999921798706,distr,54318.000078201294,Wed Apr 22 2026 15:38:32 GMT-0500 (Central Daylight Time),609147.400000006,B,buildin,I,n,51,2,749.2999999821186,608398.1000000238,8096,WL,B,4.0
6,5.781999826431274,distr,54218.000173568726,Wed Apr 22 2026 15:38:32 GMT-0500 (Central Daylight Time),609247.5,B,building,I,g,79,2,849.3999999761581,608398.1000000238,8096,WL,B,4.0
6,6.031999826431274,distr,53968.000173568726,Wed Apr 22 2026 15:38:32 GMT-0500 (Central Daylight Time),609497.400000006,B,buildingenter,I,enter,236,2,1099.2999999821186,608398.1000000238,8096,WL,B,4.0
6,6.431999921798706,distr,53568.000078201294,Wed Apr 22 2026 15:38:32 GMT-0500 (Central Daylight Time),609897.3000000119,B,o,I,o,386,2,399.80000001192093,609497.5,8096,WL,B,5.0
6,6.531999826431274,distr,53468.000173568726,Wed Apr 22 2026 15:38:32 GMT-0500 (Central Daylight Time),609997.3000000119,B,oc,I,c,82,2,499.80000001192093,609497.5,8096,WL,B,5.0
6,6.7149999141693115,distr,53285.00008583069,Wed Apr 22 2026 15:38:32 GMT-0500 (Central Daylight Time),610180.6000000238,B,oce,I,e,166,2,683.1000000238419,609497.5,8096,WL,B,5.0
6,6.797999858856201,distr,53202.0001411438,Wed Apr 22 2026 15:38:32 GMT-0500 (Central Daylight Time),610263.7000000179,B,ocea,I,a,71,2,766.2000000178814,609497.5,8096,WL,B,5.0
6,6.898999929428101,distr,53101.0000705719,Wed Apr 22 2026 15:38:32 GMT-0500 (Central Daylight Time),610364.3000000119,B,ocean,I,n,84,2,866.8000000119209,609497.5,8096,WL,B,5.0
6,7.115000009536743,distr,52884.99999046326,Wed Apr 22 2026 15:38:32 GMT-0500 (Central Daylight Time),610580.3000000119,B,oceanenter,I,enter,199,2,1082.800000011921,609497.5,8096,WL,B,5.0
6,7.297999858856201,distr,52702.0001411438,Wed Apr 22 2026 15:38:32 GMT-0500 (Central Daylight Time),610763.5,B,s,I,s,175,2,183.0,610580.5,8096,WL,B,6.0
6,7.81499981880188,distr,52185.00018119812,Wed Apr 22 2026 15:38:32 GMT-0500 (Central Daylight Time),611280.1000000238,B,st,I,t,504,2,699.6000000238419,610580.5,8096,WL,B,6.0
6,7.914999961853027,distr,52085.00003814697,Wed Apr 22 2026 15:38:32 GMT-0500 (Central Daylight Time),611380.2000000179,B,sto,I,o,91,2,799.7000000178814,610580.5,8096,WL,B,6.0
6,8.014999866485596,distr,51985.000133514404,Wed Apr 22 2026 15:38:32 GMT-0500 (Central Daylight Time),611480.400000006,B,stor,I,r,87,2,899.9000000059605,610580.5,8096,WL,B,6.0
6,8.13100004196167,distr,51868.99995803833,Wed Apr 22 2026 15:38:32 GMT-0500 (Central Daylight Time),611596.7000000179,B,storm,I,m,107,2,1016.2000000178814,610580.5,8096,WL,B,6.0
6,8.247999906539917,distr,51752.00009346008,Wed Apr 22 2026 15:38:32 GMT-0500 (Central Daylight Time),611713.400000006,B,stormenter,I,enter,103,2,1132.9000000059605,610580.5,8096,WL,B,6.0
6,8.348000049591064,distr,51651.999950408936,Wed Apr 22 2026 15:38:32 GMT-0500 (Central Daylight Time),611813.400000006,B,s,I,s,90,2,99.69999998807907,611713.7000000179,8096,WL,B,7.0
6,8.46399998664856,distr,51536.00001335144,Wed Apr 22 2026 15:38:32 GMT-0500 (Central Daylight Time),611929.8000000119,B,st,I,t,110,2,216.09999999403954,611713.7000000179,8096,WL,B,7.0
6,8.580999851226807,distr,51419.00014877319,Wed Apr 22 2026 15:38:32 GMT-0500 (Central Daylight Time),612046.7000000179,B,ste,I,e,98,2,333.0,611713.7000000179,8096,WL,B,7.0
6,8.697999954223633,distr,51302.00004577637,Wed Apr 22 2026 15:38:32 GMT-0500 (Central Daylight Time),612163.1000000238,B,stea,I,a,101,2,449.40000000596046,611713.7000000179,8096,WL,B,7.0
6,8.780999898910522,distr,51219.00010108948,Wed Apr 22 2026 15:38:32 GMT-0500 (Central Daylight Time),612246.6000000238,B,steam,I,m,72,2,532.9000000059605,611713.7000000179,8096,WL,B,7.0
6,8.980999946594238,distr,51019.00005340576,Wed Apr 22 2026 15:38:32 GMT-0500 (Central Daylight Time),612446.400000006,B,steamenter,I,enter,181,2,732.6999999880791,611713.7000000179,8096,WL,B,7.0
6,9.13100004196167,distr,50868.99995803833,Wed Apr 22 2026 15:38:32 GMT-0500 (Central Daylight Time),612596.400000006,B,a,I,a,133,2,149.59999999403954,612446.8000000119,8096,WL,B,8.0
6,9.280999898910522,distr,50719.00010108948,Wed Apr 22 2026 15:38:32 GMT-0500 (Central Daylight Time),612746.3000000119,B,ar,I,r,143,2,299.5,612446.8000000119,8096,WL,B,8.0
6,9.513999938964844,distr,50486.000061035156,Wed Apr 22 2026 15:38:32 GMT-0500 (Central Daylight Time),612979.6000000238,B,arm,I,m,217,2,532.8000000119209,612446.8000000119,8096,WL,B,8.0
6,9.780999898910522,distr,50219.00010108948,Wed Apr 22 2026 15:38:32 GMT-0500 (Central Daylight Time),613246.3000000119,B,army,I,y,256,2,799.5,612446.8000000119,8096,WL,B,8.0
6,10.013999938964844,distr,49986.000061035156,Wed Apr 22 2026 15:38:32 GMT-0500 (Central Daylight Time),613479.6000000238,B,armyenter,I,enter,213,2,1032.800000011921,612446.8000000119,8096,WL,B,8.0
6,10.77999997138977,distr,49220.00002861023,Wed Apr 22 2026 15:38:32 GMT-0500 (Central Daylight Time),614245.900000006,B,l,I,l,756,2,765.9000000059605,613480.0,8096,WL,B,9.0
6,10.863999843597412,distr,49136.00015640259,Wed Apr 22 2026 15:38:32 GMT-0500 (Central Daylight Time),614329.2000000179,B,li,I,i,78,2,849.2000000178814,613480.0,8096,WL,B,9.0
6,11.04699993133545,distr,48953.00006866455,Wed Apr 22 2026 15:38:32 GMT-0500 (Central Daylight Time),614512.6000000238,B,lip,I,p,162,2,1032.6000000238419,613480.0,8096,WL,B,9.0
6,11.29699993133545,distr,48703.00006866455,Wed Apr 22 2026 15:38:32 GMT-0500 (Central Daylight Time),614762.5,B,lipenter,I,enter,235,2,1282.5,613480.0,8096,WL,B,9.0
6,11.496999979019165,distr,48503.000020980835,Wed Apr 22 2026 15:38:32 GMT-0500 (Central Daylight Time),614962.3000000119,B,b,I,b,193,2,199.59999999403954,614762.7000000179,8096,WL,B,10.0
6,11.596999883651733,distr,48403.00011634827,Wed Apr 22 2026 15:38:32 GMT-0500 (Central Daylight Time),615062.2000000179,B,ba,I,a,89,2,299.5,614762.7000000179,8096,WL,B,10.0
6,11.712999820709229,distr,48287.00017929077,Wed Apr 22 2026 15:38:32 GMT-0500 (Central Daylight Time),615178.8000000119,B,bar,I,r,101,2,416.09999999403954,614762.7000000179,8096,WL,B,10.0
6,11.86299991607666,distr,48137.00008392334,Wed Apr 22 2026 15:38:32 GMT-0500 (Central Daylight Time),615328.8000000119,B,barenter,I,enter,144,2,566.0999999940395,614762.7000000179,8096,WL,B,10.0
6,13.27999997138977,distr,46720.00002861023,Wed Apr 22 2026 15:38:32 GMT-0500 (Central Daylight Time),616745.2000000179,B,c,I,c,1403,2,1416.2000000178814,615329.0,8096,WL,B,11.0
6,13.36299991607666,distr,46637.00008392334,Wed Apr 22 2026 15:38:32 GMT-0500 (Central Daylight Time),616828.400000006,B,co,I,o,74,2,1499.4000000059605,615329.0,8096,WL,B,11.0
6,13.429999828338623,distr,46570.00017166138,Wed Apr 22 2026 15:38:32 GMT-0500 (Central Daylight Time),616895.2000000179,B,coi,I,i,47,2,1566.2000000178814,615329.0,8096,WL,B,11.0
6,13.478999853134155,distr,46521.000146865845,Wed Apr 22 2026 15:38:32 GMT-0500 (Central Daylight Time),616945.0,B,coin,I,n,35,2,1616.0,615329.0,8096,WL,B,11.0
6,13.69599986076355,distr,46304.00013923645,Wed Apr 22 2026 15:38:32 GMT-0500 (Central Daylight Time),617161.6000000238,B,coinenter,I,enter,211,2,1832.6000000238419,615329.0,8096,WL,B,11.0
6,15.845999956130981,distr,44154.00004386902,Wed Apr 22 2026 15:38:32 GMT-0500 (Central Daylight Time),619311.0,B,v,I,v,2130,2,2149.199999988079,617161.8000000119,8096,WL,B,12.0
6,15.944999933242798,distr,44055.0000667572,Wed Apr 22 2026 15:38:32 GMT-0500 (Central Daylight Time),619410.900000006,B,vi,I,i,85,2,2249.0999999940395,617161.8000000119,8096,WL,B,12.0
6,16.09500002861023,distr,43904.99997138977,Wed Apr 22 2026 15:38:32 GMT-0500 (Central Daylight Time),619561.0,B,vil,I,l,130,2,2399.199999988079,617161.8000000119,8096,WL,B,12.0
6,16.228999853134155,distr,43771.000146865845,Wed Apr 22 2026 15:38:32 GMT-0500 (Central Daylight Time),619694.3000000119,B,vill,I,l,115,2,2532.5,617161.8000000119,8096,WL,B,12.0
6,16.26199984550476,distr,43738.00015449524,Wed Apr 22 2026 15:38:32 GMT-0500 (Central Daylight Time),619727.5,B,villa,I,a,21,2,2565.699999988079,617161.8000000119,8096,WL,B,12.0
6,16.312000036239624,distr,43687.999963760376,Wed Apr 22 2026 15:38:32 GMT-0500 (Central Daylight Time),619777.5,B,villag,I,g,44,2,2615.699999988079,617161.8000000119,8096,WL,B,12.0
6,16.444999933242798,distr,43555.0000667572,Wed Apr 22 2026 15:38:32 GMT-0500 (Central Daylight Time),619910.900000006,B,village,I,e,113,2,2749.0999999940395,617161.8000000119,8096,WL,B,12.0
6,16.562999963760376,distr,43437.000036239624,Wed Apr 22 2026 15:38:32 GMT-0500 (Central Daylight Time),620028.8000000119,B,villageenter,I,enter,101,2,2867.0,617161.8000000119,8096,WL,B,12.0
6,26.774999856948853,distr,33225.00014305115,Wed Apr 22 2026 15:38:32 GMT-0500 (Central Daylight Time),630240.900000006,B,enter,I,enter,10192,2,10211.799999982119,620029.1000000238,8096,WL,B,13.0
6,26.941999912261963,distr,33058.00008773804,Wed Apr 22 2026 15:38:32 GMT-0500 (Central Daylight Time),630407.5,B,enter,I,enter,146,2,166.2999999821186,630241.2000000179,8096,WL,B,14.0
6,27.10800004005432,distr,32891.99995994568,Wed Apr 22 2026 15:38:32 GMT-0500 (Central Daylight Time),630574.0,B,enter,I,enter,156,2,166.19999998807907,630407.8000000119,8096,WL,B,15.0
7,0.28299999237060547,immed,59717.000007629395,Wed Apr 22 2026 15:38:32 GMT-0500 (Central Daylight Time),647868.6000000238,A,s,I,s,274,2,283.0,647585.6000000238,8096,WL,B,1.0
7,0.4160001277923584,immed,59583.99987220764,Wed Apr 22 2026 15:38:32 GMT-0500 (Central Daylight Time),648001.900000006,A,st,I,t,126,2,416.2999999821186,647585.6000000238,8096,WL,B,1.0
7,0.6330001354217529,immed,59366.99986457825,Wed Apr 22 2026 15:38:32 GMT-0500 (Central Daylight Time),648218.5,A,str,I,r,201,2,632.8999999761581,647585.6000000238,8096,WL,B,1.0
7,0.9000000953674316,immed,59099.99990463257,Wed Apr 22 2026 15:38:32 GMT-0500 (Central Daylight Time),648485.3000000119,A,stre,I,e,249,2,899.6999999880791,647585.6000000238,8096,WL,B,1.0
7,1.0490000247955322,immed,58950.99997520447,Wed Apr 22 2026 15:38:32 GMT-0500 (Central Daylight Time),648635.0,A,stree,I,e,142,2,1049.3999999761581,647585.6000000238,8096,WL,B,1.0
7,1.25,immed,58750.0,Wed Apr 22 2026 15:38:32 GMT-0500 (Central Daylight Time),648835.0,A,street,I,t,192,2,1249.3999999761581,647585.6000000238,8096,WL,B,1.0
7,1.433000087738037,immed,58566.99991226196,Wed Apr 22 2026 15:38:32 GMT-0500 (Central Daylight Time),649018.2000000179,A,streetenter,I,enter,176,2,1432.5999999940395,647585.6000000238,8096,WL,B,1.0
7,1.5829999446868896,immed,58417.00005531311,Wed Apr 22 2026 15:38:32 GMT-0500 (Central Daylight Time),649168.3000000119,A,g,I,g,137,2,149.80000001192093,649018.5,8096,WL,B,2.0
7,1.749000072479248,immed,58250.99992752075,Wed Apr 22 2026 15:38:32 GMT-0500 (Central Daylight Time),649334.7000000179,A,gr,I,r,155,2,316.2000000178814,649018.5,8096,WL,B,2.0
7,1.8489999771118164,immed,58151.00002288818,Wed Apr 22 2026 15:38:32 GMT-0500 (Central Daylight Time),649434.7000000179,A,gra,I,a,85,2,416.2000000178814,649018.5,8096,WL,B,2.0
7,2.0329999923706055,immed,57967.000007629395,Wed Apr 22 2026 15:38:32 GMT-0500 (Central Daylight Time),649618.0,A,gras,I,s,169,2,599.5,649018.5,8096,WL,B,2.0
7,2.199000120162964,immed,57800.999879837036,Wed Apr 22 2026 15:38:32 GMT-0500 (Central Daylight Time),649784.7000000179,A,grass,I,s,161,2,766.2000000178814,649018.5,8096,WL,B,2.0
7,2.3329999446868896,immed,57667.00005531311,Wed Apr 22 2026 15:38:32 GMT-0500 (Central Daylight Time),649918.1000000238,A,grassenter,I,enter,123,2,899.6000000238419,649018.5,8096,WL,B,2.0
7,4.381999969482422,immed,55618.00003051758,Wed Apr 22 2026 15:38:32 GMT-0500 (Central Daylight Time),651967.3000000119,A,a,I,a,2030,2,2049.0,649918.3000000119,8096,WL,B,3.0
7,4.54800009727478,immed,55451.99990272522,Wed Apr 22 2026 15:38:32 GMT-0500 (Central Daylight Time),652133.900000006,A,ar,I,r,156,2,2215.5999999940395,649918.3000000119,8096,WL,B,3.0
7,4.732000112533569,immed,55267.99988746643,Wed Apr 22 2026 15:38:32 GMT-0500 (Central Daylight Time),652317.1000000238,A,arm,I,m,166,2,2398.800000011921,649918.3000000119,8096,WL,B,3.0
7,4.982000112533569,immed,55017.99988746643,Wed Apr 22 2026 15:38:32 GMT-0500 (Central Daylight Time),652567.2000000179,A,armenter,I,enter,239,2,2648.9000000059605,649918.3000000119,8096,WL,B,3.0
7,5.148000001907349,immed,54851.99999809265,Wed Apr 22 2026 15:38:32 GMT-0500 (Central Daylight Time),652733.7000000179,A,d,I,d,156,2,166.2000000178814,652567.5,8096,WL,B,4.0
7,5.332000017166138,immed,54667.99998283386,Wed Apr 22 2026 15:38:32 GMT-0500 (Central Daylight Time),652917.2000000179,A,do,I,o,166,2,349.7000000178814,652567.5,8096,WL,B,4.0
7,5.498000144958496,immed,54501.999855041504,Wed Apr 22 2026 15:38:32 GMT-0500 (Central Daylight Time),653083.8000000119,A,doo,I,o,150,2,516.3000000119209,652567.5,8096,WL,B,4.0
7,5.664999961853027,immed,54335.00003814697,Wed Apr 22 2026 15:38:32 GMT-0500 (Central Daylight Time),653250.3000000119,A,door,I,r,159,2,682.8000000119209,652567.5,8096,WL,B,4.0
7,5.815000057220459,immed,54184.99994277954,Wed Apr 22 2026 15:38:32 GMT-0500 (Central Daylight Time),653400.3000000119,A,doorenter,I,enter,137,2,832.8000000119209,652567.5,8096,WL,B,4.0
7,6.031000137329102,immed,53968.9998626709,Wed Apr 22 2026 15:38:32 GMT-0500 (Central Daylight Time),653616.900000006,A,s,I,s,203,2,216.2999999821186,653400.6000000238,8096,WL,B,5.0
7,6.0980000495910645,immed,53901.999950408936,Wed Apr 22 2026 15:38:32 GMT-0500 (Central Daylight Time),653683.6000000238,A,sk,I,k,59,2,283.0,653400.6000000238,8096,WL,B,5.0
7,6.29800009727478,immed,53701.99990272522,Wed Apr 22 2026 15:38:32 GMT-0500 (Central Daylight Time),653883.5,A,ski,I,i,184,2,482.89999997615814,653400.6000000238,8096,WL,B,5.0
7,6.38100004196167,immed,53618.99995803833,Wed Apr 22 2026 15:38:32 GMT-0500 (Central Daylight Time),653966.8000000119,A,skin,I,n,72,2,566.1999999880791,653400.6000000238,8096,WL,B,5.0
7,6.5980000495910645,immed,53401.999950408936,Wed Apr 22 2026 15:38:32 GMT-0500 (Central Daylight Time),654183.400000006,A,skinenter,I,enter,205,2,782.7999999821186,653400.6000000238,8096,WL,B,5.0
7,6.79800009727478,immed,53201.99990272522,Wed Apr 22 2026 15:38:32 GMT-0500 (Central Daylight Time),654383.400000006,A,w,I,w,180,2,199.69999998807907,654183.7000000179,8096,WL,B,6.0
7,6.930999994277954,immed,53069.000005722046,Wed Apr 22 2026 15:38:32 GMT-0500 (Central Daylight Time),654516.6000000238,A,wi,I,i,116,2,332.90000000596046,654183.7000000179,8096,WL,B,6.0
7,7.031000137329102,immed,52968.9998626709,Wed Apr 22 2026 15:38:32 GMT-0500 (Central Daylight Time),654616.5,A,wif,I,f,95,2,432.7999999821186,654183.7000000179,8096,WL,B,6.0
7,7.180999994277954,immed,52819.000005722046,Wed Apr 22 2026 15:38:32 GMT-0500 (Central Daylight Time),654766.5,A,wife,I,e,131,2,582.7999999821186,654183.7000000179,8096,WL,B,6.0
7,7.314000129699707,immed,52685.99987030029,Wed Apr 22 2026 15:38:32 GMT-0500 (Central Daylight Time),654899.900000006,A,wifeenter,I,enter,124,2,716.1999999880791,654183.7000000179,8096,WL,B,6.0
7,7.46399998664856,immed,52536.00001335144,Wed Apr 22 2026 15:38:32 GMT-0500 (Central Daylight Time),655049.6000000238,A,w,I,w,144,2,149.5,654900.1000000238,8096,WL,B,7.0
7,7.5980000495910645,immed,52401.999950408936,Wed Apr 22 2026 15:38:32 GMT-0500 (Central Daylight Time),655183.3000000119,A,wi,I,i,114,2,283.19999998807907,654900.1000000238,8096,WL,B,7.0
7,7.697000026702881,immed,52302.99997329712,Wed Apr 22 2026 15:38:32 GMT-0500 (Central Daylight Time),655283.0,A,win,I,n,93,2,382.89999997615814,654900.1000000238,8096,WL,B,7.0
7,7.831000089645386,immed,52168.999910354614,Wed Apr 22 2026 15:38:32 GMT-0500 (Central Daylight Time),655416.7000000179,A,wind,I,d,130,2,516.5999999940395,654900.1000000238,8096,WL,B,7.0
7,7.947000026702881,immed,52052.99997329712,Wed Apr 22 2026 15:38:32 GMT-0500 (Central Daylight Time),655532.8000000119,A,windo,I,o,107,2,632.6999999880791,654900.1000000238,8096,WL,B,7.0
7,8.081000089645386,immed,51918.999910354614,Wed Apr 22 2026 15:38:32 GMT-0500 (Central Daylight Time),655666.2000000179,A,window,I,w,119,2,766.0999999940395,654900.1000000238,8096,WL,B,7.0
7,8.21500015258789,immed,51784.99984741211,Wed Apr 22 2026 15:38:32 GMT-0500 (Central Daylight Time),655800.6000000238,A,windowenter,I,enter,121,2,900.5,654900.1000000238,8096,WL,B,7.0
7,8.647000074386597,immed,51352.9999256134,Wed Apr 22 2026 15:38:32 GMT-0500 (Central Daylight Time),656232.7000000179,A,s,I,s,426,2,431.90000000596046,655800.8000000119,8096,WL,B,8.0
7,8.781000137329102,immed,51218.9998626709,Wed Apr 22 2026 15:38:32 GMT-0500 (Central Daylight Time),656366.1000000238,A,st,I,t,115,2,565.3000000119209,655800.8000000119,8096,WL,B,8.0
7,8.914000034332275,immed,51085.999965667725,Wed Apr 22 2026 15:38:32 GMT-0500 (Central Daylight Time),656499.3000000119,A,sta,I,a,126,2,698.5,655800.8000000119,8096,WL,B,8.0
7,9.02999997138977,immed,50970.00002861023,Wed Apr 22 2026 15:38:32 GMT-0500 (Central Daylight Time),656615.900000006,A,star,I,r,96,2,815.0999999940395,655800.8000000119,8096,WL,B,8.0
