acc_sum,block,block_c,block_cond,con_img,correct,correct_response,datetime,endtime,face,jitter,line,project,response,response_time,row_sel,session_number,start_end,starttime,subject_id,task,task_vers,trial
1,prac,1,A,haborder.png,1,m,Thu Jan 29 2026 11:01:09 GMT-0500 (Eastern Standard Time),59954.599999427795,CFD-WM-028-005-HC.jpg,1400,solid,I,m,593,7,3,2783.3999996185303,57171.199999809265,9017,ATS,C,1
2,prac,1,A,haborder.png,1,z,Thu Jan 29 2026 11:01:09 GMT-0500 (Eastern Standard Time),62237.599999427795,CFD-WF-023-013-A.jpg,1000,solid,I,z,499,12,3,5066.39999961853,57171.199999809265,9017,ATS,C,2
3,prac,1,A,haborder.png,1,m,Thu Jan 29 2026 11:01:09 GMT-0500 (Eastern Standard Time),65404.39999961853,CFD-BM-034-035-HC.jpg,1700,solid,I,m,649,1,3,8233.199999809265,57171.199999809265,9017,ATS,C,3
4,prac,1,A,haborder.png,1,m,Thu Jan 29 2026 11:01:09 GMT-0500 (Eastern Standard Time),69037.69999980927,CFD-BF-019-004-HC.jpg,2000,solid,I,m,848,5,3,11866.5,57171.199999809265,9017,ATS,C,4
5,prac,1,A,haborder.png,1,m,Thu Jan 29 2026 11:01:09 GMT-0500 (Eastern Standard Time),72004.39999961853,CFD-BM-022-004-HC.jpg,1500,solid,I,m,675,3,3,14833.199999809265,57171.199999809265,9017,ATS,C,5
6,prac,1,A,haborder.png,1,z,Thu Jan 29 2026 11:01:09 GMT-0500 (Eastern Standard Time),74454.19999980927,CFD-BF-031-020-A.jpg,1000,solid,I,z,656,4,3,17283.0,57171.199999809265,9017,ATS,C,6
7,prac,1,A,haborder.png,1,z,Thu Jan 29 2026 11:01:09 GMT-0500 (Eastern Standard Time),78087.69999980927,CFD-WM-036-018-A.jpg,1900,solid,I,z,938,8,3,20916.5,57171.199999809265,9017,ATS,C,7
8,prac,1,A,haborder.png,1,m,Thu Jan 29 2026 11:01:09 GMT-0500 (Eastern Standard Time),81221.0,CFD-WF-013-009-HC.jpg,1500,solid,I,m,841,11,3,24049.800000190735,57171.199999809265,9017,ATS,C,8
9,prac,1,A,haborder.png,1,z,Thu Jan 29 2026 11:01:09 GMT-0500 (Eastern Standard Time),84320.89999961853,CFD-WF-037-016-A.jpg,1600,solid,I,z,712,10,3,27149.699999809265,57171.199999809265,9017,ATS,C,9
10,prac,1,A,haborder.png,1,z,Thu Jan 29 2026 11:01:09 GMT-0500 (Eastern Standard Time),87520.89999961853,CFD-BM-043-014-A.jpg,1600,solid,I,z,812,2,3,30349.699999809265,57171.199999809265,9017,ATS,C,10
11,prac,1,A,haborder.png,1,z,Thu Jan 29 2026 11:01:09 GMT-0500 (Eastern Standard Time),90187.69999980927,CFD-BF-002-018-A.jpg,1200,solid,I,z,668,6,3,33016.5,57171.199999809265,9017,ATS,C,11
12,prac,1,A,haborder.png,1,m,Thu Jan 29 2026 11:01:09 GMT-0500 (Eastern Standard Time),93571.0,CFD-WM-035-036-HC.jpg,1700,solid,I,m,893,9,3,36399.800000190735,57171.199999809265,9017,ATS,C,12
1,prac,1,B,mfborder.png,1,z,Thu Jan 29 2026 11:01:09 GMT-0500 (Eastern Standard Time),125670.79999923706,CFD-WF-037-016-A.jpg,1500,11,I,z,872,dash,3,3166.5,122504.29999923706,9017,ATS,C,1
2,prac,1,B,mfborder.png,1,z,Thu Jan 29 2026 11:01:09 GMT-0500 (Eastern Standard Time),128570.89999961853,CFD-BF-042-031-HC.jpg,1500,3,I,z,601,dash,3,6066.60000038147,122504.29999923706,9017,ATS,C,2
3,prac,1,B,mfborder.png,1,m,Thu Jan 29 2026 11:01:09 GMT-0500 (Eastern Standard Time),131670.89999961853,CFD-WM-036-018-A.jpg,1700,9,I,m,605,dash,3,9166.60000038147,122504.29999923706,9017,ATS,C,3
4,prac,1,B,mfborder.png,1,z,Thu Jan 29 2026 11:01:09 GMT-0500 (Eastern Standard Time),134204.29999923706,CFD-BF-031-020-A.jpg,1000,4,I,z,733,dash,3,11700.0,122504.29999923706,9017,ATS,C,4
5,prac,1,B,mfborder.png,1,m,Thu Jan 29 2026 11:01:09 GMT-0500 (Eastern Standard Time),136687.5999994278,CFD-WM-034-040-A.jpg,1200,6,I,m,496,dash,3,14183.300000190735,122504.29999923706,9017,ATS,C,5
6,prac,1,B,mfborder.png,1,m,Thu Jan 29 2026 11:01:09 GMT-0500 (Eastern Standard Time),140120.79999923706,CFD-BM-043-014-A.jpg,2000,5,I,m,637,dash,3,17616.5,122504.29999923706,9017,ATS,C,6
7,prac,1,B,mfborder.png,1,z,Thu Jan 29 2026 11:01:09 GMT-0500 (Eastern Standard Time),143537.5,CFD-WF-001-010-HC.jpg,1900,8,I,z,727,dash,3,21033.20000076294,122504.29999923706,9017,ATS,C,7
8,prac,1,B,mfborder.png,1,z,Thu Jan 29 2026 11:01:09 GMT-0500 (Eastern Standard Time),146520.89999961853,CFD-BF-019-004-HC.jpg,1400,7,I,z,787,dash,3,24016.60000038147,122504.29999923706,9017,ATS,C,8
9,prac,1,B,mfborder.png,1,m,Thu Jan 29 2026 11:01:09 GMT-0500 (Eastern Standard Time),149820.89999961853,CFD-BM-021-026-A.jpg,1600,2,I,m,900,dash,3,27316.60000038147,122504.29999923706,9017,ATS,C,9
10,prac,1,B,mfborder.png,1,m,Thu Jan 29 2026 11:01:09 GMT-0500 (Eastern Standard Time),152904.19999980927,CFD-WM-035-036-HC.jpg,1600,10,I,m,687,dash,3,30399.900000572205,122504.29999923706,9017,ATS,C,10
11,prac,1,B,mfborder.png,1,m,Thu Jan 29 2026 11:01:09 GMT-0500 (Eastern Standard Time),156004.0999994278,CFD-BM-022-004-HC.jpg,1700,1,I,m,609,dash,3,33499.800000190735,122504.29999923706,9017,ATS,C,11
12,prac,1,B,mfborder.png,1,z,Thu Jan 29 2026 11:01:09 GMT-0500 (Eastern Standard Time),159054.0999994278,CFD-WF-013-009-HC.jpg,1000,12,I,z,1265,dash,3,36549.800000190735,122504.29999923706,9017,ATS,C,12
1,test,1,A,haborder.png,1,z,Thu Jan 29 2026 11:01:09 GMT-0500 (Eastern Standard Time),183254.19999980927,CFD-WF-023-013-A.jpg,1000,solid,I,z,1425,12,3,2450.0,180804.19999980927,9017,ATS,C,1
2,test,1,A,haborder.png,1,z,Thu Jan 29 2026 11:01:09 GMT-0500 (Eastern Standard Time),186337.29999923706,CFD-WM-036-018-A.jpg,1900,solid,I,z,1163,8,3,5533.099999427795,180804.19999980927,9017,ATS,C,2
3,test,1,A,haborder.png,1,m,Thu Jan 29 2026 11:01:09 GMT-0500 (Eastern Standard Time),188787.29999923706,CFD-WM-035-036-HC.jpg,1700,solid,I,m,727,9,3,7983.099999427795,180804.19999980927,9017,ATS,C,3
4,test,1,A,haborder.png,1,z,Thu Jan 29 2026 11:01:09 GMT-0500 (Eastern Standard Time),190703.69999980927,CFD-WF-023-013-A.jpg,1000,solid,I,z,897,12,3,9899.5,180804.19999980927,9017,ATS,C,4
5,test,1,A,haborder.png,1,z,Thu Jan 29 2026 11:01:09 GMT-0500 (Eastern Standard Time),192887.19999980927,CFD-WF-037-016-A.jpg,1600,solid,I,z,556,10,3,12083.0,180804.19999980927,9017,ATS,C,5
6,test,1,A,haborder.png,1,z,Thu Jan 29 2026 11:01:09 GMT-0500 (Eastern Standard Time),195453.89999961853,CFD-BM-043-014-A.jpg,1600,solid,I,z,933,2,3,14649.699999809265,180804.19999980927,9017,ATS,C,6
7,test,1,A,haborder.png,1,z,Thu Jan 29 2026 11:01:09 GMT-0500 (Eastern Standard Time),197354.0,CFD-BF-002-018-A.jpg,1200,solid,I,z,671,6,3,16549.800000190735,180804.19999980927,9017,ATS,C,7
8,test,1,A,haborder.png,1,m,Thu Jan 29 2026 11:01:09 GMT-0500 (Eastern Standard Time),199420.5999994278,CFD-BM-022-004-HC.jpg,1500,solid,I,m,534,3,3,18616.39999961853,180804.19999980927,9017,ATS,C,8
9,test,1,A,haborder.png,1,m,Thu Jan 29 2026 11:01:09 GMT-0500 (Eastern Standard Time),201707.0999994278,CFD-WM-028-005-HC.jpg,1400,solid,I,m,856,7,3,20902.89999961853,180804.19999980927,9017,ATS,C,9
10,test,1,A,haborder.png,1,z,Thu Jan 29 2026 11:01:09 GMT-0500 (Eastern Standard Time),203537.39999961853,CFD-BF-031-020-A.jpg,1000,solid,I,z,813,4,3,22733.199999809265,180804.19999980927,9017,ATS,C,10
11,test,1,A,haborder.png,1,m,Thu Jan 29 2026 11:01:09 GMT-0500 (Eastern Standard Time),205687.29999923706,CFD-WM-028-005-HC.jpg,1400,solid,I,m,723,7,3,24883.099999427795,180804.19999980927,9017,ATS,C,11
12,test,1,A,haborder.png,1,z,Thu Jan 29 2026 11:01:09 GMT-0500 (Eastern Standard Time),207587.19999980927,CFD-BF-002-018-A.jpg,1200,solid,I,z,677,6,3,26783.0,180804.19999980927,9017,ATS,C,12
13,test,1,A,haborder.png,1,m,Thu Jan 29 2026 11:01:09 GMT-0500 (Eastern Standard Time),210837.29999923706,CFD-BF-019-004-HC.jpg,2000,solid,I,m,1225,5,3,30033.099999427795,180804.19999980927,9017,ATS,C,13
14,test,1,A,haborder.png,1,m,Thu Jan 29 2026 11:01:09 GMT-0500 (Eastern Standard Time),213287.29999923706,CFD-BM-034-035-HC.jpg,1700,solid,I,m,723,1,3,32483.099999427795,180804.19999980927,9017,ATS,C,14
15,test,1,A,haborder.png,1,m,Thu Jan 29 2026 11:01:09 GMT-0500 (Eastern Standard Time),215420.5,CFD-WF-013-009-HC.jpg,1500,solid,I,m,601,11,3,34616.300000190735,180804.19999980927,9017,ATS,C,15
16,test,1,A,haborder.png,1,m,Thu Jan 29 2026 11:01:09 GMT-0500 (Eastern Standard Time),217770.69999980927,CFD-WM-035-036-HC.jpg,1700,solid,I,m,620,9,3,36966.5,180804.19999980927,9017,ATS,C,16
17,test,1,A,haborder.png,1,z,Thu Jan 29 2026 11:01:09 GMT-0500 (Eastern Standard Time),220637.29999923706,CFD-WM-036-018-A.jpg,1900,solid,I,z,934,8,3,39833.099999427795,180804.19999980927,9017,ATS,C,17
18,test,1,A,haborder.png,1,z,Thu Jan 29 2026 11:01:09 GMT-0500 (Eastern Standard Time),222553.89999961853,CFD-BF-031-020-A.jpg,1000,solid,I,z,887,4,3,41749.699999809265,180804.19999980927,9017,ATS,C,18
19,test,1,A,haborder.png,1,m,Thu Jan 29 2026 11:01:09 GMT-0500 (Eastern Standard Time),225320.69999980927,CFD-BM-034-035-HC.jpg,1700,solid,I,m,1038,1,3,44516.5,180804.19999980927,9017,ATS,C,19
20,test,1,A,haborder.png,1,z,Thu Jan 29 2026 11:01:09 GMT-0500 (Eastern Standard Time),227853.89999961853,CFD-WF-037-016-A.jpg,1600,solid,I,z,900,10,3,47049.699999809265,180804.19999980927,9017,ATS,C,20
21,test,1,A,haborder.png,1,m,Thu Jan 29 2026 11:01:09 GMT-0500 (Eastern Standard Time),230753.79999923706,CFD-BF-019-004-HC.jpg,2000,solid,I,m,879,5,3,49949.599999427795,180804.19999980927,9017,ATS,C,21
21,test,1,A,haborder.png,0,z,Thu Jan 29 2026 11:01:09 GMT-0500 (Eastern Standard Time),233454.19999980927,CFD-BM-043-014-A.jpg,1600,solid,I,m,1083,2,3,52650.0,180804.19999980927,9017,ATS,C,22
22,test,1,A,haborder.png,1,m,Thu Jan 29 2026 11:01:09 GMT-0500 (Eastern Standard Time),235953.19999980927,CFD-WF-013-009-HC.jpg,1500,solid,I,m,978,11,3,55149.0,180804.19999980927,9017,ATS,C,23
23,test,1,A,haborder.png,1,m,Thu Jan 29 2026 11:01:09 GMT-0500 (Eastern Standard Time),238270.5999994278,CFD-BM-022-004-HC.jpg,1500,solid,I,m,782,3,3,57466.39999961853,180804.19999980927,9017,ATS,C,24
1,test,1,B,mfborder.png,1,m,Thu Jan 29 2026 11:01:09 GMT-0500 (Eastern Standard Time),257137.19999980927,CFD-WM-034-040-A.jpg,1200,dash,I,m,712,6,3,1933.1999998092651,255204.0,9017,ATS,C,1
2,test,1,B,mfborder.png,1,m,Thu Jan 29 2026 11:01:09 GMT-0500 (Eastern Standard Time),259287.0999994278,CFD-WM-035-036-HC.jpg,1600,dash,I,m,523,10,3,4083.0999994277954,255204.0,9017,ATS,C,2
3,test,1,B,mfborder.png,1,m,Thu Jan 29 2026 11:01:09 GMT-0500 (Eastern Standard Time),261503.79999923706,CFD-BM-021-026-A.jpg,1600,dash,I,m,597,2,3,6299.799999237061,255204.0,9017,ATS,C,3
4,test,1,B,mfborder.png,1,z,Thu Jan 29 2026 11:01:09 GMT-0500 (Eastern Standard Time),264087.19999980927,CFD-WF-001-010-HC.jpg,1900,dash,I,z,657,8,3,8883.199999809265,255204.0,9017,ATS,C,4
5,test,1,B,mfborder.png,1,z,Thu Jan 29 2026 11:01:09 GMT-0500 (Eastern Standard Time),266686.89999961853,CFD-WF-001-010-HC.jpg,1900,dash,I,z,681,8,3,11482.89999961853,255204.0,9017,ATS,C,5
6,test,1,B,mfborder.png,1,m,Thu Jan 29 2026 11:01:09 GMT-0500 (Eastern Standard Time),268953.5,CFD-WM-035-036-HC.jpg,1600,dash,I,m,636,10,3,13749.5,255204.0,9017,ATS,C,6
7,test,1,B,mfborder.png,1,z,Thu Jan 29 2026 11:01:09 GMT-0500 (Eastern Standard Time),271170.5999994278,CFD-WF-037-016-A.jpg,1500,dash,I,z,695,11,3,15966.599999427795,255204.0,9017,ATS,C,7
8,test,1,B,mfborder.png,1,z,Thu Jan 29 2026 11:01:09 GMT-0500 (Eastern Standard Time),273220.39999961853,CFD-BF-019-004-HC.jpg,1400,dash,I,z,626,7,3,18016.39999961853,255204.0,9017,ATS,C,8
9,test,1,B,mfborder.png,1,m,Thu Jan 29 2026 11:01:09 GMT-0500 (Eastern Standard Time),275937.19999980927,CFD-BM-043-014-A.jpg,2000,dash,I,m,696,5,3,20733.199999809265,255204.0,9017,ATS,C,9
10,test,1,B,mfborder.png,1,z,Thu Jan 29 2026 11:01:09 GMT-0500 (Eastern Standard Time),278270.69999980927,CFD-BF-042-031-HC.jpg,1500,dash,I,z,799,3,3,23066.699999809265,255204.0,9017,ATS,C,10
11,test,1,B,mfborder.png,1,z,Thu Jan 29 2026 11:01:09 GMT-0500 (Eastern Standard Time),280487.19999980927,CFD-BF-042-031-HC.jpg,1500,dash,I,z,690,3,3,25283.199999809265,255204.0,9017,ATS,C,11
12,test,1,B,mfborder.png,1,m,Thu Jan 29 2026 11:01:09 GMT-0500 (Eastern Standard Time),283120.5999994278,CFD-WM-036-018-A.jpg,1700,dash,I,m,913,9,3,27916.599999427795,255204.0,9017,ATS,C,12
13,test,1,B,mfborder.png,1,z,Thu Jan 29 2026 11:01:09 GMT-0500 (Eastern Standard Time),284920.5999994278,CFD-BF-031-020-A.jpg,1000,dash,I,z,772,4,3,29716.599999427795,255204.0,9017,ATS,C,13
14,test,1,B,mfborder.png,1,m,Thu Jan 29 2026 11:01:09 GMT-0500 (Eastern Standard Time),288103.89999961853,CFD-BM-043-014-A.jpg,2000,dash,I,m,1156,5,3,32899.89999961853,255204.0,9017,ATS,C,14
15,test,1,B,mfborder.png,1,m,Thu Jan 29 2026 11:01:09 GMT-0500 (Eastern Standard Time),290703.69999980927,CFD-BM-022-004-HC.jpg,1700,dash,I,m,880,1,3,35499.699999809265,255204.0,9017,ATS,C,15
16,test,1,B,mfborder.png,1,m,Thu Jan 29 2026 11:01:09 GMT-0500 (Eastern Standard Time),293370.5,CFD-BM-021-026-A.jpg,1600,dash,I,m,1037,2,3,38166.5,255204.0,9017,ATS,C,16
17,test,1,B,mfborder.png,1,z,Thu Jan 29 2026 11:01:09 GMT-0500 (Eastern Standard Time),295803.5,CFD-WF-013-009-HC.jpg,1000,dash,I,z,1401,12,3,40599.5,255204.0,9017,ATS,C,17
18,test,1,B,mfborder.png,1,z,Thu Jan 29 2026 11:01:09 GMT-0500 (Eastern Standard Time),297987.0999994278,CFD-WF-037-016-A.jpg,1500,dash,I,z,661,11,3,42783.099999427795,255204.0,9017,ATS,C,18
19,test,1,B,mfborder.png,1,z,Thu Jan 29 2026 11:01:09 GMT-0500 (Eastern Standard Time),300087.19999980927,CFD-BF-019-004-HC.jpg,1400,dash,I,z,673,7,3,44883.199999809265,255204.0,9017,ATS,C,19
20,test,1,B,mfborder.png,1,m,Thu Jan 29 2026 11:01:09 GMT-0500 (Eastern Standard Time),302453.5999994278,CFD-WM-036-018-A.jpg,1700,dash,I,m,641,9,3,47249.599999427795,255204.0,9017,ATS,C,20
21,test,1,B,mfborder.png,1,z,Thu Jan 29 2026 11:01:09 GMT-0500 (Eastern Standard Time),304220.5999994278,CFD-BF-031-020-A.jpg,1000,dash,I,z,733,4,3,49016.599999427795,255204.0,9017,ATS,C,21
22,test,1,B,mfborder.png,1,m,Thu Jan 29 2026 11:01:09 GMT-0500 (Eastern Standard Time),306237.19999980927,CFD-WM-034-040-A.jpg,1200,dash,I,m,784,6,3,51033.199999809265,255204.0,9017,ATS,C,22
23,test,1,B,mfborder.png,1,z,Thu Jan 29 2026 11:01:09 GMT-0500 (Eastern Standard Time),307920.19999980927,CFD-WF-013-009-HC.jpg,1000,dash,I,z,663,12,3,52716.199999809265,255204.0,9017,ATS,C,23
24,test,1,B,mfborder.png,1,m,Thu Jan 29 2026 11:01:09 GMT-0500 (Eastern Standard Time),310286.89999961853,CFD-BM-022-004-HC.jpg,1700,dash,I,m,648,1,3,55082.89999961853,255204.0,9017,ATS,C,24
1,prac,1,C,haborder.png,1,m,Thu Jan 29 2026 11:01:09 GMT-0500 (Eastern Standard Time),350670.79999923706,CFD-BM-022-004-HC.jpg,1500,solid,I,m,1181,1,3,3466.8999996185303,347203.89999961853,9017,ATS,C,1
1,prac,1,C,mfborder.png,0,m,Thu Jan 29 2026 11:01:09 GMT-0500 (Eastern Standard Time),354970.5,CFD-BM-034-035-HC.jpg,2000,solid,I,None,1516,1,3,7766.60000038147,347203.89999961853,9017,ATS,C,2
2,prac,1,C,mfborder.png,1,m,Thu Jan 29 2026 11:01:09 GMT-0500 (Eastern Standard Time),358187.29999923706,CFD-BM-043-014-A.jpg,1200,dash,I,m,1217,1,3,10983.39999961853,347203.89999961853,9017,ATS,C,3
3,prac,1,C,mfborder.png,1,m,Thu Jan 29 2026 11:01:09 GMT-0500 (Eastern Standard Time),361770.5999994278,CFD-WM-036-018-A.jpg,1700,solid,I,m,1086,1,3,14566.699999809265,347203.89999961853,9017,ATS,C,4
4,prac,1,C,mfborder.png,1,z,Thu Jan 29 2026 11:01:09 GMT-0500 (Eastern Standard Time),364687.29999923706,CFD-WF-023-013-A.jpg,1500,solid,I,z,630,1,3,17483.39999961853,347203.89999961853,9017,ATS,C,5
5,prac,1,C,haborder.png,1,z,Thu Jan 29 2026 11:01:09 GMT-0500 (Eastern Standard Time),368537.19999980927,CFD-BF-031-020-A.jpg,1900,dash,I,z,1153,1,3,21333.300000190735,347203.89999961853,9017,ATS,C,6
6,prac,1,C,mfborder.png,1,z,Thu Jan 29 2026 11:01:09 GMT-0500 (Eastern Standard Time),372070.5999994278,CFD-WF-013-009-HC.jpg,1600,dash,I,z,1140,1,3,24866.699999809265,347203.89999961853,9017,ATS,C,7
7,prac,1,C,mfborder.png,1,z,Thu Jan 29 2026 11:01:09 GMT-0500 (Eastern Standard Time),374553.79999923706,CFD-BF-019-004-HC.jpg,1000,dash,I,z,686,1,3,27349.89999961853,347203.89999961853,9017,ATS,C,8
8,prac,1,C,haborder.png,1,z,Thu Jan 29 2026 11:01:09 GMT-0500 (Eastern Standard Time),377970.5999994278,CFD-BF-002-018-A.jpg,1700,solid,I,z,927,1,3,30766.699999809265,347203.89999961853,9017,ATS,C,9
9,prac,1,C,haborder.png,1,m,Thu Jan 29 2026 11:01:09 GMT-0500 (Eastern Standard Time),380753.89999961853,CFD-WM-028-005-HC.jpg,1000,dash,I,m,994,1,3,33550.0,347203.89999961853,9017,ATS,C,10
10,prac,1,C,haborder.png,1,m,Thu Jan 29 2026 11:01:09 GMT-0500 (Eastern Standard Time),383720.5999994278,CFD-WM-028-005-HC.jpg,1400,solid,I,m,771,1,3,36516.699999809265,347203.89999961853,9017,ATS,C,11
11,prac,1,C,haborder.png,1,z,Thu Jan 29 2026 11:01:09 GMT-0500 (Eastern Standard Time),386953.89999961853,CFD-WF-037-016-A.jpg,1600,dash,I,z,836,1,3,39750.0,347203.89999961853,9017,ATS,C,12
1,test,1,C,haborder.png,1,m,Thu Jan 29 2026 11:01:09 GMT-0500 (Eastern Standard Time),412987.19999980927,CFD-BF-019-004-HC.jpg,1600,solid,I,m,1453,10,3,3083.300000190735,409903.89999961853,9017,ATS,C,1
2,test,1,C,haborder.png,1,m,Thu Jan 29 2026 11:01:09 GMT-0500 (Eastern Standard Time),414837.0,CFD-WF-013-009-HC.jpg,1000,solid,I,m,826,12,3,4933.10000038147,409903.89999961853,9017,ATS,C,2
3,test,1,C,mfborder.png,1,m,Thu Jan 29 2026 11:01:09 GMT-0500 (Eastern Standard Time),416887.0999994278,CFD-BM-022-004-HC.jpg,1200,dash,I,m,824,6,3,6983.199999809265,409903.89999961853,9017,ATS,C,3
3,test,1,C,haborder.png,0,z,Thu Jan 29 2026 11:01:09 GMT-0500 (Eastern Standard Time),419553.69999980927,CFD-BM-021-026-A.jpg,1700,solid,I,m,946,9,3,9649.800000190735,409903.89999961853,9017,ATS,C,4
4,test,1,C,mfborder.png,1,z,Thu Jan 29 2026 11:01:09 GMT-0500 (Eastern Standard Time),422270.29999923706,CFD-BF-042-031-HC.jpg,1700,dash,I,z,983,1,3,12366.39999961853,409903.89999961853,9017,ATS,C,5
5,test,1,C,haborder.png,1,m,Thu Jan 29 2026 11:01:09 GMT-0500 (Eastern Standard Time),424403.69999980927,CFD-WF-013-009-HC.jpg,1000,solid,I,m,1110,12,3,14499.800000190735,409903.89999961853,9017,ATS,C,6
6,test,1,C,haborder.png,1,z,Thu Jan 29 2026 11:01:09 GMT-0500 (Eastern Standard Time),427370.19999980927,CFD-BM-021-026-A.jpg,1700,solid,I,z,1237,9,3,17466.300000190735,409903.89999961853,9017,ATS,C,7
7,test,1,C,haborder.png,1,m,Thu Jan 29 2026 11:01:09 GMT-0500 (Eastern Standard Time),429870.29999923706,CFD-WF-001-010-HC.jpg,1500,solid,I,m,967,11,3,19966.39999961853,409903.89999961853,9017,ATS,C,8
8,test,1,C,mfborder.png,1,z,Thu Jan 29 2026 11:01:09 GMT-0500 (Eastern Standard Time),432337.0,CFD-WF-037-016-A.jpg,1500,dash,I,z,946,3,3,22433.10000038147,409903.89999961853,9017,ATS,C,9
9,test,1,C,haborder.png,1,z,Thu Jan 29 2026 11:01:09 GMT-0500 (Eastern Standard Time),434937.0,CFD-WM-036-018-A.jpg,1400,solid,I,z,1171,7,3,25033.10000038147,409903.89999961853,9017,ATS,C,10
10,test,1,C,mfborder.png,1,z,Thu Jan 29 2026 11:01:09 GMT-0500 (Eastern Standard Time),437337.0999994278,CFD-WF-037-016-A.jpg,1500,dash,I,z,872,3,3,27433.199999809265,409903.89999961853,9017,ATS,C,11
11,test,1,C,haborder.png,1,z,Thu Jan 29 2026 11:01:09 GMT-0500 (Eastern Standard Time),440420.29999923706,CFD-BM-043-014-A.jpg,1900,solid,I,z,1160,8,3,30516.39999961853,409903.89999961853,9017,ATS,C,12
12,test,1,C,haborder.png,1,z,Thu Jan 29 2026 11:01:09 GMT-0500 (Eastern Standard Time),442803.29999923706,CFD-WM-036-018-A.jpg,1400,solid,I,z,959,7,3,32899.39999961853,409903.89999961853,9017,ATS,C,13
13,test,1,C,haborder.png,1,m,Thu Jan 29 2026 11:01:09 GMT-0500 (Eastern Standard Time),445520.19999980927,CFD-BF-019-004-HC.jpg,1600,solid,I,m,1097,10,3,35616.300000190735,409903.89999961853,9017,ATS,C,14
14,test,1,C,haborder.png,1,z,Thu Jan 29 2026 11:01:09 GMT-0500 (Eastern Standard Time),448503.69999980927,CFD-BM-043-014-A.jpg,1900,solid,I,z,1056,8,3,38599.800000190735,409903.89999961853,9017,ATS,C,15
15,test,1,C,mfborder.png,1,m,Thu Jan 29 2026 11:01:09 GMT-0500 (Eastern Standard Time),451370.39999961853,CFD-WM-034-040-A.jpg,2000,dash,I,m,837,5,3,41466.5,409903.89999961853,9017,ATS,C,16
16,test,1,C,mfborder.png,1,z,Thu Jan 29 2026 11:01:09 GMT-0500 (Eastern Standard Time),453837.0999994278,CFD-BF-031-020-A.jpg,1600,dash,I,z,834,2,3,43933.199999809265,409903.89999961853,9017,ATS,C,17
17,test,1,C,mfborder.png,1,z,Thu Jan 29 2026 11:01:09 GMT-0500 (Eastern Standard Time),456387.0,CFD-BF-042-031-HC.jpg,1700,dash,I,z,828,1,3,46483.10000038147,409903.89999961853,9017,ATS,C,18
18,test,1,C,mfborder.png,1,m,Thu Jan 29 2026 11:01:09 GMT-0500 (Eastern Standard Time),458887.0,CFD-BM-022-004-HC.jpg,1200,dash,I,m,1274,6,3,48983.10000038147,409903.89999961853,9017,ATS,C,19
19,test,1,C,mfborder.png,1,m,Thu Jan 29 2026 11:01:09 GMT-0500 (Eastern Standard Time),460587.0,CFD-WM-035-036-HC.jpg,1000,dash,I,m,670,4,3,50683.10000038147,409903.89999961853,9017,ATS,C,20
20,test,1,C,mfborder.png,1,m,Thu Jan 29 2026 11:01:09 GMT-0500 (Eastern Standard Time),463220.29999923706,CFD-WM-034-040-A.jpg,2000,dash,I,m,610,5,3,53316.39999961853,409903.89999961853,9017,ATS,C,21
21,test,1,C,mfborder.png,1,z,Thu Jan 29 2026 11:01:09 GMT-0500 (Eastern Standard Time),465503.5,CFD-BF-031-020-A.jpg,1600,dash,I,z,665,2,3,55599.60000038147,409903.89999961853,9017,ATS,C,22
22,test,1,C,mfborder.png,1,m,Thu Jan 29 2026 11:01:09 GMT-0500 (Eastern Standard Time),467286.5999994278,CFD-WM-035-036-HC.jpg,1000,dash,I,m,756,4,3,57382.699999809265,409903.89999961853,9017,ATS,C,23
23,test,1,C,haborder.png,1,m,Thu Jan 29 2026 11:01:09 GMT-0500 (Eastern Standard Time),469870.19999980927,CFD-WF-001-010-HC.jpg,1500,solid,I,m,1065,11,3,59966.300000190735,409903.89999961853,9017,ATS,C,24
0,test,2,C,haborder.png,0,z,Thu Jan 29 2026 11:01:09 GMT-0500 (Eastern Standard Time),475170.69999980927,CFD-WF-037-016-A.jpg,1700,solid,I,None,1516,9,3,3233.6000003814697,471937.0999994278,9017,ATS,C,1
1,test,2,C,mfborder.png,1,z,Thu Jan 29 2026 11:01:09 GMT-0500 (Eastern Standard Time),477653.69999980927,CFD-WF-013-009-HC.jpg,1700,dash,I,z,759,1,3,5716.60000038147,471937.0999994278,9017,ATS,C,2
2,test,2,C,haborder.png,1,z,Thu Jan 29 2026 11:01:09 GMT-0500 (Eastern Standard Time),480220.19999980927,CFD-BF-031-020-A.jpg,1400,solid,I,z,1134,7,3,8283.10000038147,471937.0999994278,9017,ATS,C,3
3,test,2,C,mfborder.png,1,z,Thu Jan 29 2026 11:01:09 GMT-0500 (Eastern Standard Time),482653.5,CFD-WF-023-013-A.jpg,1600,dash,I,z,800,2,3,10716.400000572205,471937.0999994278,9017,ATS,C,4
4,test,2,C,mfborder.png,1,m,Thu Jan 29 2026 11:01:09 GMT-0500 (Eastern Standard Time),484753.5999994278,CFD-BM-034-035-HC.jpg,1000,dash,I,m,1079,4,3,12816.5,471937.0999994278,9017,ATS,C,5
5,test,2,C,haborder.png,1,z,Thu Jan 29 2026 11:01:09 GMT-0500 (Eastern Standard Time),487570.29999923706,CFD-BF-002-018-A.jpg,1900,solid,I,z,895,8,3,15633.199999809265,471937.0999994278,9017,ATS,C,6
6,test,2,C,mfborder.png,1,m,Thu Jan 29 2026 11:01:09 GMT-0500 (Eastern Standard Time),489936.79999923706,CFD-WM-036-018-A.jpg,1200,dash,I,m,1147,6,3,17999.699999809265,471937.0999994278,9017,ATS,C,7
7,test,2,C,haborder.png,1,m,Thu Jan 29 2026 11:01:09 GMT-0500 (Eastern Standard Time),491637.0999994278,CFD-WM-028-005-HC.jpg,1000,solid,I,m,675,12,3,19700.0,471937.0999994278,9017,ATS,C,8
8,test,2,C,haborder.png,1,m,Thu Jan 29 2026 11:01:09 GMT-0500 (Eastern Standard Time),494070.29999923706,CFD-WM-028-005-HC.jpg,1500,solid,I,m,908,11,3,22133.199999809265,471937.0999994278,9017,ATS,C,9
9,test,2,C,haborder.png,1,z,Thu Jan 29 2026 11:01:09 GMT-0500 (Eastern Standard Time),496870.19999980927,CFD-BF-002-018-A.jpg,1900,solid,I,z,874,8,3,24933.10000038147,471937.0999994278,9017,ATS,C,10
9,test,2,C,mfborder.png,0,m,Thu Jan 29 2026 11:01:09 GMT-0500 (Eastern Standard Time),499870.19999980927,CFD-BM-043-014-A.jpg,2000,dash,I,z,965,5,3,27933.10000038147,471937.0999994278,9017,ATS,C,11
10,test,2,C,haborder.png,1,z,Thu Jan 29 2026 11:01:09 GMT-0500 (Eastern Standard Time),502136.69999980927,CFD-BF-031-020-A.jpg,1400,solid,I,z,838,7,3,30199.60000038147,471937.0999994278,9017,ATS,C,12
11,test,2,C,haborder.png,1,m,Thu Jan 29 2026 11:01:09 GMT-0500 (Eastern Standard Time),503837.0,CFD-WM-028-005-HC.jpg,1000,solid,I,m,668,12,3,31899.900000572205,471937.0999994278,9017,ATS,C,13
12,test,2,C,mfborder.png,1,m,Thu Jan 29 2026 11:01:09 GMT-0500 (Eastern Standard Time),506853.5999994278,CFD-BM-043-014-A.jpg,2000,dash,I,m,992,5,3,34916.5,471937.0999994278,9017,ATS,C,14
13,test,2,C,mfborder.png,1,z,Thu Jan 29 2026 11:01:09 GMT-0500 (Eastern Standard Time),509420.19999980927,CFD-BF-019-004-HC.jpg,1500,dash,I,z,1034,3,3,37483.10000038147,471937.0999994278,9017,ATS,C,15
14,test,2,C,haborder.png,1,m,Thu Jan 29 2026 11:01:09 GMT-0500 (Eastern Standard Time),512070.39999961853,CFD-BM-022-004-HC.jpg,1600,solid,I,m,1024,10,3,40133.300000190735,471937.0999994278,9017,ATS,C,16
15,test,2,C,mfborder.png,1,z,Thu Jan 29 2026 11:01:09 GMT-0500 (Eastern Standard Time),514803.5999994278,CFD-BF-019-004-HC.jpg,1500,dash,I,z,1210,3,3,42866.5,471937.0999994278,9017,ATS,C,17
16,test,2,C,haborder.png,1,m,Thu Jan 29 2026 11:01:09 GMT-0500 (Eastern Standard Time),517153.5,CFD-WM-028-005-HC.jpg,1500,solid,I,m,828,11,3,45216.400000572205,471937.0999994278,9017,ATS,C,18
17,test,2,C,mfborder.png,1,z,Thu Jan 29 2026 11:01:09 GMT-0500 (Eastern Standard Time),520237.0,CFD-WF-023-013-A.jpg,1600,dash,I,z,1450,2,3,48299.900000572205,471937.0999994278,9017,ATS,C,19
17,test,2,C,haborder.png,0,z,Thu Jan 29 2026 11:01:09 GMT-0500 (Eastern Standard Time),523470.5999994278,CFD-WF-037-016-A.jpg,1700,solid,I,None,1516,9,3,51533.5,471937.0999994278,9017,ATS,C,20
18,test,2,C,mfborder.png,1,z,Thu Jan 29 2026 11:01:09 GMT-0500 (Eastern Standard Time),526153.5,CFD-WF-013-009-HC.jpg,1700,dash,I,z,955,1,3,54216.400000572205,471937.0999994278,9017,ATS,C,21
18,test,2,C,mfborder.png,0,m,Thu Jan 29 2026 11:01:09 GMT-0500 (Eastern Standard Time),528503.5999994278,CFD-WM-036-018-A.jpg,1200,dash,I,z,1122,6,3,56566.5,471937.0999994278,9017,ATS,C,22
19,test,2,C,haborder.png,1,m,Thu Jan 29 2026 11:01:09 GMT-0500 (Eastern Standard Time),531403.5999994278,CFD-BM-022-004-HC.jpg,1600,solid,I,m,1269,10,3,59466.5,471937.0999994278,9017,ATS,C,23
20,test,2,C,mfborder.png,1,m,Thu Jan 29 2026 11:01:09 GMT-0500 (Eastern Standard Time),533253.2999992371,CFD-BM-034-035-HC.jpg,1000,dash,I,m,825,4,3,61316.199999809265,471937.0999994278,9017,ATS,C,24
1,test,3,C,haborder.png,1,m,Thu Jan 29 2026 11:01:09 GMT-0500 (Eastern Standard Time),539437.0999994278,CFD-BF-019-004-HC.jpg,1600,solid,I,m,1283,10,3,2916.5,536520.5999994278,9017,ATS,C,1
2,test,3,C,haborder.png,1,z,Thu Jan 29 2026 11:01:09 GMT-0500 (Eastern Standard Time),542120.1999998093,CFD-BM-021-026-A.jpg,1700,solid,I,z,955,9,3,5599.60000038147,536520.5999994278,9017,ATS,C,2
3,test,3,C,mfborder.png,1,m,Thu Jan 29 2026 11:01:09 GMT-0500 (Eastern Standard Time),544220.1999998093,CFD-WM-035-036-HC.jpg,1000,dash,I,m,1068,4,3,7699.60000038147,536520.5999994278,9017,ATS,C,3
4,test,3,C,mfborder.png,1,z,Thu Jan 29 2026 11:01:09 GMT-0500 (Eastern Standard Time),546553.5999994278,CFD-BF-031-020-A.jpg,1600,dash,I,z,704,2,3,10033.0,536520.5999994278,9017,ATS,C,4
5,test,3,C,haborder.png,1,m,Thu Jan 29 2026 11:01:09 GMT-0500 (Eastern Standard Time),549119.8999996185,CFD-WF-001-010-HC.jpg,1500,solid,I,m,1046,11,3,12599.300000190735,536520.5999994278,9017,ATS,C,5
6,test,3,C,mfborder.png,1,m,Thu Jan 29 2026 11:01:09 GMT-0500 (Eastern Standard Time),551303.5999994278,CFD-BM-022-004-HC.jpg,1200,dash,I,m,955,6,3,14783.0,536520.5999994278,9017,ATS,C,6
7,test,3,C,mfborder.png,1,z,Thu Jan 29 2026 11:01:09 GMT-0500 (Eastern Standard Time),554120.0,CFD-WF-037-016-A.jpg,1500,dash,I,z,1288,3,3,17599.400000572205,536520.5999994278,9017,ATS,C,7
8,test,3,C,haborder.png,1,z,Thu Jan 29 2026 11:01:09 GMT-0500 (Eastern Standard Time),557386.8999996185,CFD-BM-043-014-A.jpg,1900,solid,I,z,1337,8,3,20866.300000190735,536520.5999994278,9017,ATS,C,8
9,test,3,C,mfborder.png,1,z,Thu Jan 29 2026 11:01:09 GMT-0500 (Eastern Standard Time),560236.8999996185,CFD-BF-042-031-HC.jpg,1700,dash,I,z,1117,1,3,23716.300000190735,536520.5999994278,9017,ATS,C,9
10,test,3,C,mfborder.png,1,m,Thu Jan 29 2026 11:01:09 GMT-0500 (Eastern Standard Time),562403.5,CFD-WM-035-036-HC.jpg,1000,dash,I,m,1143,4,3,25882.900000572205,536520.5999994278,9017,ATS,C,10
11,test,3,C,mfborder.png,1,z,Thu Jan 29 2026 11:01:09 GMT-0500 (Eastern Standard Time),564736.6999998093,CFD-WF-037-016-A.jpg,1500,dash,I,z,812,3,3,28216.10000038147,536520.5999994278,9017,ATS,C,11
12,test,3,C,mfborder.png,1,z,Thu Jan 29 2026 11:01:09 GMT-0500 (Eastern Standard Time),567053.5999994278,CFD-BF-042-031-HC.jpg,1700,dash,I,z,584,1,3,30533.0,536520.5999994278,9017,ATS,C,12
13,test,3,C,haborder.png,1,m,Thu Jan 29 2026 11:01:09 GMT-0500 (Eastern Standard Time),569420.2999992371,CFD-WF-001-010-HC.jpg,1500,solid,I,m,835,11,3,32899.699999809265,536520.5999994278,9017,ATS,C,13
14,test,3,C,haborder.png,1,m,Thu Jan 29 2026 11:01:09 GMT-0500 (Eastern Standard Time),572503.5999994278,CFD-BF-019-004-HC.jpg,1600,solid,I,m,1456,10,3,35983.0,536520.5999994278,9017,ATS,C,14
15,test,3,C,haborder.png,1,m,Thu Jan 29 2026 11:01:09 GMT-0500 (Eastern Standard Time),574636.8999996185,CFD-WF-013-009-HC.jpg,1000,solid,I,m,1100,12,3,38116.300000190735,536520.5999994278,9017,ATS,C,15
16,test,3,C,haborder.png,1,z,Thu Jan 29 2026 11:01:09 GMT-0500 (Eastern Standard Time),577286.8999996185,CFD-WM-036-018-A.jpg,1400,solid,I,z,1223,7,3,40766.300000190735,536520.5999994278,9017,ATS,C,16
17,test,3,C,mfborder.png,1,m,Thu Jan 29 2026 11:01:09 GMT-0500 (Eastern Standard Time),580070.5,CFD-WM-034-040-A.jpg,2000,dash,I,m,760,5,3,43549.900000572205,536520.5999994278,9017,ATS,C,17
18,test,3,C,haborder.png,1,m,Thu Jan 29 2026 11:01:09 GMT-0500 (Eastern Standard Time),582270.0999994278,CFD-WF-013-009-HC.jpg,1000,solid,I,m,1167,12,3,45749.5,536520.5999994278,9017,ATS,C,18
19,test,3,C,haborder.png,1,z,Thu Jan 29 2026 11:01:09 GMT-0500 (Eastern Standard Time),584986.7999992371,CFD-WM-036-018-A.jpg,1400,solid,I,z,1286,7,3,48466.199999809265,536520.5999994278,9017,ATS,C,19
20,test,3,C,mfborder.png,1,m,Thu Jan 29 2026 11:01:09 GMT-0500 (Eastern Standard Time),587070.1999998093,CFD-BM-022-004-HC.jpg,1200,dash,I,m,866,6,3,50549.60000038147,536520.5999994278,9017,ATS,C,20
21,test,3,C,haborder.png,1,z,Thu Jan 29 2026 11:01:09 GMT-0500 (Eastern Standard Time),589853.5,CFD-BM-021-026-A.jpg,1700,solid,I,z,1051,9,3,53332.900000572205,536520.5999994278,9017,ATS,C,21
22,test,3,C,haborder.png,1,z,Thu Jan 29 2026 11:01:09 GMT-0500 (Eastern Standard Time),593019.6999998093,CFD-BM-043-014-A.jpg,1900,solid,I,z,1234,8,3,56499.10000038147,536520.5999994278,9017,ATS,C,22
23,test,3,C,mfborder.png,1,m,Thu Jan 29 2026 11:01:09 GMT-0500 (Eastern Standard Time),595770.1999998093,CFD-WM-034-040-A.jpg,2000,dash,I,m,720,5,3,59249.60000038147,536520.5999994278,9017,ATS,C,23
24,test,3,C,mfborder.png,1,z,Thu Jan 29 2026 11:01:09 GMT-0500 (Eastern Standard Time),598636.8999996185,CFD-BF-031-020-A.jpg,1600,dash,I,z,1233,2,3,62116.300000190735,536520.5999994278,9017,ATS,C,24
1,test,4,C,mfborder.png,1,m,Thu Jan 29 2026 11:01:09 GMT-0500 (Eastern Standard Time),603370.3999996185,CFD-BM-043-014-A.jpg,2000,dash,I,m,1037,5,3,3066.8999996185303,600303.5,9017,ATS,C,1
2,test,4,C,haborder.png,1,m,Thu Jan 29 2026 11:01:09 GMT-0500 (Eastern Standard Time),605936.6999998093,CFD-BM-022-004-HC.jpg,1600,solid,I,m,946,10,3,5633.199999809265,600303.5,9017,ATS,C,2
3,test,4,C,mfborder.png,1,z,Thu Jan 29 2026 11:01:09 GMT-0500 (Eastern Standard Time),608670.1999998093,CFD-WF-013-009-HC.jpg,1700,dash,I,z,1016,1,3,8366.699999809265,600303.5,9017,ATS,C,3
4,test,4,C,mfborder.png,1,z,Thu Jan 29 2026 11:01:09 GMT-0500 (Eastern Standard Time),611036.5999994278,CFD-WF-023-013-A.jpg,1600,dash,I,z,734,2,3,10733.099999427795,600303.5,9017,ATS,C,4
5,test,4,C,mfborder.png,1,z,Thu Jan 29 2026 11:01:09 GMT-0500 (Eastern Standard Time),613353.5,CFD-WF-013-009-HC.jpg,1700,dash,I,z,587,1,3,13050.0,600303.5,9017,ATS,C,5
6,test,4,C,haborder.png,1,m,Thu Jan 29 2026 11:01:09 GMT-0500 (Eastern Standard Time),615603.5,CFD-WM-028-005-HC.jpg,1500,solid,I,m,727,11,3,15300.0,600303.5,9017,ATS,C,6
7,test,4,C,haborder.png,1,z,Thu Jan 29 2026 11:01:09 GMT-0500 (Eastern Standard Time),618670.2999992371,CFD-WF-037-016-A.jpg,1700,solid,I,z,1349,9,3,18366.79999923706,600303.5,9017,ATS,C,7
8,test,4,C,haborder.png,1,m,Thu Jan 29 2026 11:01:09 GMT-0500 (Eastern Standard Time),620936.7999992371,CFD-WM-028-005-HC.jpg,1500,solid,I,m,738,11,3,20633.29999923706,600303.5,9017,ATS,C,8
9,test,4,C,mfborder.png,1,z,Thu Jan 29 2026 11:01:09 GMT-0500 (Eastern Standard Time),623203.5,CFD-WF-023-013-A.jpg,1600,dash,I,z,643,2,3,22900.0,600303.5,9017,ATS,C,9
10,test,4,C,mfborder.png,1,m,Thu Jan 29 2026 11:01:09 GMT-0500 (Eastern Standard Time),625153.3999996185,CFD-WM-036-018-A.jpg,1200,dash,I,m,728,6,3,24849.89999961853,600303.5,9017,ATS,C,10
11,test,4,C,mfborder.png,1,m,Thu Jan 29 2026 11:01:09 GMT-0500 (Eastern Standard Time),628020.0999994278,CFD-BM-043-014-A.jpg,2000,dash,I,m,843,5,3,27716.599999427795,600303.5,9017,ATS,C,11
12,test,4,C,mfborder.png,1,m,Thu Jan 29 2026 11:01:09 GMT-0500 (Eastern Standard Time),629870.1999998093,CFD-BM-034-035-HC.jpg,1000,dash,I,m,832,4,3,29566.699999809265,600303.5,9017,ATS,C,12
13,test,4,C,haborder.png,1,z,Thu Jan 29 2026 11:01:09 GMT-0500 (Eastern Standard Time),632686.5999994278,CFD-BF-002-018-A.jpg,1900,solid,I,z,898,8,3,32383.099999427795,600303.5,9017,ATS,C,13
14,test,4,C,haborder.png,1,z,Thu Jan 29 2026 11:01:09 GMT-0500 (Eastern Standard Time),635320.0999994278,CFD-BF-002-018-A.jpg,1900,solid,I,z,705,8,3,35016.599999427795,600303.5,9017,ATS,C,14
15,test,4,C,haborder.png,1,z,Thu Jan 29 2026 11:01:09 GMT-0500 (Eastern Standard Time),637686.7999992371,CFD-BF-031-020-A.jpg,1400,solid,I,z,940,7,3,37383.29999923706,600303.5,9017,ATS,C,15
15,test,4,C,mfborder.png,0,z,Thu Jan 29 2026 11:01:09 GMT-0500 (Eastern Standard Time),640069.8999996185,CFD-BF-019-004-HC.jpg,1500,dash,I,m,858,3,3,39766.39999961853,600303.5,9017,ATS,C,16
16,test,4,C,haborder.png,1,m,Thu Jan 29 2026 11:01:09 GMT-0500 (Eastern Standard Time),641953.3999996185,CFD-WM-028-005-HC.jpg,1000,solid,I,m,862,12,3,41649.89999961853,600303.5,9017,ATS,C,17
17,test,4,C,haborder.png,1,z,Thu Jan 29 2026 11:01:09 GMT-0500 (Eastern Standard Time),644853.5,CFD-WF-037-016-A.jpg,1700,solid,I,z,1174,9,3,44550.0,600303.5,9017,ATS,C,18
18,test,4,C,haborder.png,1,m,Thu Jan 29 2026 11:01:09 GMT-0500 (Eastern Standard Time),646636.6999998093,CFD-WM-028-005-HC.jpg,1000,solid,I,m,750,12,3,46333.199999809265,600303.5,9017,ATS,C,19
19,test,4,C,haborder.png,1,m,Thu Jan 29 2026 11:01:09 GMT-0500 (Eastern Standard Time),649286.7999992371,CFD-BM-022-004-HC.jpg,1600,solid,I,m,1023,10,3,48983.29999923706,600303.5,9017,ATS,C,20
20,test,4,C,mfborder.png,1,m,Thu Jan 29 2026 11:01:09 GMT-0500 (Eastern Standard Time),651203.3999996185,CFD-BM-034-035-HC.jpg,1000,dash,I,m,895,4,3,50899.89999961853,600303.5,9017,ATS,C,21
21,test,4,C,mfborder.png,1,m,Thu Jan 29 2026 11:01:09 GMT-0500 (Eastern Standard Time),653170.0999994278,CFD-WM-036-018-A.jpg,1200,dash,I,m,744,6,3,52866.599999427795,600303.5,9017,ATS,C,22
22,test,4,C,mfborder.png,1,z,Thu Jan 29 2026 11:01:09 GMT-0500 (Eastern Standard Time),655670.0999994278,CFD-BF-019-004-HC.jpg,1500,dash,I,z,974,3,3,55366.599999427795,600303.5,9017,ATS,C,23
23,test,4,C,haborder.png,1,z,Thu Jan 29 2026 11:01:09 GMT-0500 (Eastern Standard Time),658486.7999992371,CFD-BF-031-020-A.jpg,1400,solid,I,z,1390,7,3,58183.29999923706,600303.5,9017,ATS,C,24
