Q,Q1,Q2,Q3,Q4,acc_sum,block,block_c,correct,correct_response,datetime,endtime,project,response,response_time,row_sel,session_number,squiggle1,squiggle1x,squiggle1y,squiggle2,squiggle2x,squiggle2y,squiggle3,squiggle3x,squiggle3y,squiggle4,squiggle4x,squiggle4y,start_end,starttime,subject_id,target_congruent,task,task_vers,testsquiggle,testsquigglex,testsquiggley,time_practice_delay,time_practice_fixation,time_practice_stimuli,time_practice_study,time_test_delay,time_test_fixation,time_test_stimuli,time_test_study,trial
1,1,0,0,0,1,prac,1,1,z,Mon Jun 22 2026 12:10:36 GMT-0400 (Eastern Daylight Time),159386.89999985695,I,z,1677,1,3,116.bmp,-120,-120,117.bmp,120,-120,118.bmp,-120,120,119.bmp,120,120,10493.599999904633,148893.29999995232,9038,yes,SM,A,116.bmp,-120,-120,144489,138463,146506,140473,,,,,1
3,0,0,1,0,1,prac,1,0,m,Mon Jun 22 2026 12:10:36 GMT-0400 (Eastern Daylight Time),169736.69999980927,I,z,1521,2,3,120.bmp,-120,-120,121.bmp,120,-120,122.bmp,-120,120,123.bmp,120,120,10341.099999904633,159395.59999990463,9038,no,SM,A,123.bmp,-120,120,154989,148965,157006,150973,,,,,2
4,0,0,0,1,1,prac,1,0,m,Mon Jun 22 2026 12:10:36 GMT-0400 (Eastern Daylight Time),180570.0,I,None,2015,3,3,124.bmp,-120,-120,125.bmp,120,-120,126.bmp,-120,120,127.bmp,120,120,10824.900000095367,169745.09999990463,9038,no,SM,A,124.bmp,120,120,165339,159314,167357,161323,,,,,3
2,0,1,0,0,1,prac,1,0,z,Mon Jun 22 2026 12:10:36 GMT-0400 (Eastern Daylight Time),191203.39999985695,I,m,1809,4,3,128.bmp,-120,-120,129.bmp,120,-120,130.bmp,-120,120,131.bmp,120,120,10622.799999952316,180580.59999990463,9038,yes,SM,A,129.bmp,120,-120,176173,170150,178190,172156,,,,,4
3,0,0,1,0,2,prac,1,1,z,Mon Jun 22 2026 12:10:36 GMT-0400 (Eastern Daylight Time),201686.79999995232,I,z,1681,5,3,132.bmp,-120,-120,133.bmp,120,-120,134.bmp,-120,120,135.bmp,120,120,10476.200000047684,191210.59999990463,9038,yes,SM,A,134.bmp,-120,120,186805,180780,188806,182790,,,,,5
1,1,0,0,0,3,prac,1,1,m,Mon Jun 22 2026 12:10:36 GMT-0400 (Eastern Daylight Time),212203.29999995232,I,m,1693,6,3,136.bmp,-120,-120,137.bmp,120,-120,138.bmp,-120,120,139.bmp,120,120,10507.700000047684,201695.59999990463,9038,no,SM,A,139.bmp,-120,-120,197289,191265,199306,193273,,,,,6
2,0,1,0,0,4,prac,1,1,m,Mon Jun 22 2026 12:10:36 GMT-0400 (Eastern Daylight Time),222353.39999985695,I,m,1328,7,3,140.bmp,-120,-120,141.bmp,120,-120,142.bmp,-120,120,143.bmp,120,120,10140.799999952316,212212.59999990463,9038,no,SM,A,140.bmp,120,-120,207806,201782,209823,203790,,,,,7
4,0,0,0,1,4,prac,1,0,z,Mon Jun 22 2026 12:10:36 GMT-0400 (Eastern Daylight Time),233186.59999990463,I,None,2016,8,3,144.bmp,-120,-120,145.bmp,120,-120,146.bmp,-120,120,147.bmp,120,120,10824.0,222362.59999990463,9038,yes,SM,A,147.bmp,120,120,217956,211932,219973,213940,,,,,8
4,0,0,0,1,1,test,1,1,m,Mon Jun 22 2026 12:10:36 GMT-0400 (Eastern Daylight Time),270153.39999985695,I,m,1645,1,3,148.bmp,-120,-120,149.bmp,120,-120,150.bmp,-120,120,143.bmp,120,120,9693.399999856949,260460.0,9038,no,SM,A,150.bmp,120,120,217956,211932,219973,213940,256056.0,250029.0,258073.0,252039.0,1
2,0,1,0,0,2,test,1,1,m,Mon Jun 22 2026 12:10:36 GMT-0400 (Eastern Daylight Time),279703.0,I,m,1497,2,3,101.bmp,-120,-120,102.bmp,120,-120,103.bmp,-120,120,104.bmp,120,120,9541.100000143051,270161.89999985695,9038,no,SM,A,103.bmp,120,-120,217956,211932,219973,213940,265756.0,259731.0,267773.0,261739.0,2
1,1,0,0,0,2,test,1,0,z,Mon Jun 22 2026 12:10:36 GMT-0400 (Eastern Daylight Time),289769.39999985695,I,None,2015,3,3,105.bmp,-120,-120,106.bmp,120,-120,107.bmp,-120,120,108.bmp,120,120,10060.200000047684,279709.19999980927,9038,yes,SM,A,105.bmp,-120,-120,217956,211932,219973,213940,275306.0,269279.0,277323.0,271289.0,3
3,0,0,1,0,2,test,1,0,m,Mon Jun 22 2026 12:10:36 GMT-0400 (Eastern Daylight Time),299236.59999990463,I,z,1401,4,3,109.bmp,-120,-120,110.bmp,120,-120,111.bmp,-120,120,112.bmp,120,120,9461.799999952316,289774.7999999523,9038,no,SM,A,109.bmp,-120,120,217956,211932,219973,213940,285373.0,279344.0,287389.0,281356.0,4
2,0,1,0,0,3,test,1,1,z,Mon Jun 22 2026 12:10:36 GMT-0400 (Eastern Daylight Time),308870.0,I,z,1583,5,3,113.bmp,-120,-120,114.bmp,120,-120,115.bmp,-120,120,116.bmp,120,120,9624.400000095367,299245.59999990463,9038,yes,SM,A,114.bmp,120,-120,217956,211932,219973,213940,294839.0,288815.0,296856.0,290823.0,5
3,0,0,1,0,4,test,1,1,z,Mon Jun 22 2026 12:10:36 GMT-0400 (Eastern Daylight Time),318353.2999999523,I,z,1420,6,3,117.bmp,-120,-120,118.bmp,120,-120,119.bmp,-120,120,120.bmp,120,120,9474.799999952316,308878.5,9038,yes,SM,A,119.bmp,-120,120,217956,211932,219973,213940,304472.0,298448.0,306490.0,300456.0,6
4,0,0,0,1,5,test,1,1,z,Mon Jun 22 2026 12:10:36 GMT-0400 (Eastern Daylight Time),327870.09999990463,I,z,1466,7,3,121.bmp,-120,-120,122.bmp,120,-120,123.bmp,-120,120,124.bmp,120,120,9507.200000047684,318362.89999985695,9038,yes,SM,A,124.bmp,120,120,217956,211932,219973,213940,313956.0,307932.0,315973.0,309939.0,7
2,0,1,0,0,5,test,1,0,m,Mon Jun 22 2026 12:10:36 GMT-0400 (Eastern Daylight Time),337436.69999980927,I,z,1500,8,3,125.bmp,-120,-120,126.bmp,120,-120,127.bmp,-120,120,128.bmp,120,120,9559.399999856949,327877.2999999523,9038,no,SM,A,125.bmp,120,-120,217956,211932,219973,213940,323472.0,317447.0,325489.0,319456.0,8
3,0,0,1,0,6,test,1,1,m,Mon Jun 22 2026 12:10:36 GMT-0400 (Eastern Daylight Time),346786.69999980927,I,m,1287,9,3,129.bmp,-120,-120,130.bmp,120,-120,131.bmp,-120,120,132.bmp,120,120,9343.199999809265,337443.5,9038,no,SM,A,130.bmp,-120,120,217956,211932,219973,213940,333039.0,327013.0,335056.0,329023.0,9
4,0,0,0,1,6,test,1,0,z,Mon Jun 22 2026 12:10:36 GMT-0400 (Eastern Daylight Time),356853.39999985695,I,None,2016,10,3,137.bmp,-120,-120,138.bmp,120,-120,139.bmp,-120,120,140.bmp,120,120,10057.399999856949,346796.0,9038,yes,SM,A,140.bmp,120,120,217956,211932,219973,213940,342389.0,336365.0,344406.0,338372.0,10
3,0,0,1,0,7,test,1,1,z,Mon Jun 22 2026 12:10:36 GMT-0400 (Eastern Daylight Time),366736.59999990463,I,z,1821,11,3,133.bmp,-120,-120,134.bmp,120,-120,135.bmp,-120,120,136.bmp,120,120,9874.0,356862.59999990463,9038,yes,SM,A,135.bmp,-120,120,217956,211932,219973,213940,352456.0,346432.0,354473.0,348439.0,11
2,0,1,0,0,8,test,1,1,m,Mon Jun 22 2026 12:10:36 GMT-0400 (Eastern Daylight Time),376736.59999990463,I,m,1939,12,3,141.bmp,-120,-120,142.bmp,120,-120,143.bmp,-120,120,144.bmp,120,120,9989.299999952316,366747.2999999523,9038,no,SM,A,141.bmp,120,-120,217956,211932,219973,213940,362339.0,356317.0,364356.0,358323.0,12
3,0,0,1,0,9,test,1,1,m,Mon Jun 22 2026 12:10:36 GMT-0400 (Eastern Daylight Time),386103.09999990463,I,m,1306,13,3,145.bmp,-120,-120,146.bmp,120,-120,147.bmp,-120,120,148.bmp,120,120,9358.200000047684,376744.89999985695,9038,no,SM,A,146.bmp,-120,120,217956,211932,219973,213940,372339.0,366314.0,374356.0,368323.0,13
1,1,0,0,0,10,test,1,1,z,Mon Jun 22 2026 12:10:36 GMT-0400 (Eastern Daylight Time),395819.7999999523,I,z,1651,14,3,149.bmp,-120,-120,150.bmp,120,-120,104.bmp,-120,120,101.bmp,120,120,9706.0,386113.7999999523,9038,yes,SM,A,149.bmp,-120,-120,217956,211932,219973,213940,381706.0,375683.0,383723.0,377689.0,14
4,0,0,0,1,10,test,1,0,m,Mon Jun 22 2026 12:10:36 GMT-0400 (Eastern Daylight Time),405586.59999990463,I,z,1702,15,3,110.bmp,-120,-120,111.bmp,120,-120,112.bmp,-120,120,113.bmp,120,120,9759.200000047684,395827.39999985695,9038,no,SM,A,111.bmp,120,120,217956,211932,219973,213940,391422.0,385397.0,393440.0,387406.0,15
1,1,0,0,0,11,test,1,1,m,Mon Jun 22 2026 12:10:36 GMT-0400 (Eastern Daylight Time),415569.89999985695,I,m,1920,16,3,102.bmp,-120,-120,103.bmp,120,-120,104.bmp,-120,120,105.bmp,120,120,9974.0,405595.89999985695,9038,no,SM,A,105.bmp,-120,-120,217956,211932,219973,213940,401189.0,395165.0,403206.0,397173.0,16
3,0,0,1,0,12,test,1,1,m,Mon Jun 22 2026 12:10:36 GMT-0400 (Eastern Daylight Time),425586.59999990463,I,m,1952,17,3,122.bmp,-120,-120,123.bmp,120,-120,124.bmp,-120,120,125.bmp,120,120,10005.799999952316,415580.7999999523,9038,no,SM,A,122.bmp,-120,120,217956,211932,219973,213940,411172.0,405150.0,413189.0,407156.0,17
1,1,0,0,0,13,test,1,1,z,Mon Jun 22 2026 12:10:36 GMT-0400 (Eastern Daylight Time),434769.7999999523,I,z,1128,18,3,106.bmp,-120,-120,107.bmp,120,-120,108.bmp,-120,120,109.bmp,120,120,9174.400000095367,425595.39999985695,9038,yes,SM,A,106.bmp,-120,-120,217956,211932,219973,213940,421189.0,415165.0,423206.0,417174.0,18
2,0,1,0,0,13,test,1,0,z,Mon Jun 22 2026 12:10:36 GMT-0400 (Eastern Daylight Time),444836.59999990463,I,None,2015,19,3,126.bmp,-120,-120,127.bmp,120,-120,128.bmp,-120,120,129.bmp,120,120,10057.799999952316,434778.7999999523,9038,yes,SM,A,127.bmp,120,-120,217956,211932,219973,213940,430372.0,424348.0,432389.0,426356.0,19
3,0,0,1,0,14,test,1,1,z,Mon Jun 22 2026 12:10:36 GMT-0400 (Eastern Daylight Time),454353.19999980927,I,z,1462,20,3,130.bmp,-120,-120,131.bmp,120,-120,132.bmp,-120,120,133.bmp,120,120,9507.899999856949,444845.2999999523,9038,yes,SM,A,132.bmp,-120,120,217956,211932,219973,213940,440439.0,434415.0,442456.0,436423.0,20
1,1,0,0,0,14,test,1,0,m,Mon Jun 22 2026 12:10:36 GMT-0400 (Eastern Daylight Time),464053.19999980927,I,z,1633,21,3,114.bmp,-120,-120,115.bmp,120,-120,116.bmp,-120,120,117.bmp,120,120,9694.199999809265,454359.0,9038,no,SM,A,116.bmp,-120,-120,217956,211932,219973,213940,449956.0,443928.0,451973.0,445939.0,21
4,0,0,0,1,15,test,1,1,z,Mon Jun 22 2026 12:10:36 GMT-0400 (Eastern Daylight Time),473703.19999980927,I,z,1597,22,3,118.bmp,-120,-120,119.bmp,120,-120,120.bmp,-120,120,121.bmp,120,120,9640.799999952316,464062.39999985695,9038,yes,SM,A,121.bmp,120,120,217956,211932,219973,213940,459656.0,453632.0,461673.0,455639.0,22
1,1,0,0,0,15,test,1,0,m,Mon Jun 22 2026 12:10:36 GMT-0400 (Eastern Daylight Time),483019.89999985695,I,z,1259,23,3,134.bmp,-120,-120,135.bmp,120,-120,136.bmp,-120,120,137.bmp,120,120,9307.399999856949,473712.5,9038,no,SM,A,137.bmp,-120,-120,217956,211932,219973,213940,469306.0,463282.0,471323.0,465289.0,23
2,0,1,0,0,16,test,1,1,z,Mon Jun 22 2026 12:10:36 GMT-0400 (Eastern Daylight Time),492119.69999980927,I,z,1039,24,3,142.bmp,-120,-120,143.bmp,120,-120,144.bmp,-120,120,145.bmp,120,120,9091.0,483028.69999980927,9038,yes,SM,A,143.bmp,120,-120,217956,211932,219973,213940,478622.0,472598.0,480639.0,474606.0,24
4,0,0,0,1,16,test,1,0,m,Mon Jun 22 2026 12:10:36 GMT-0400 (Eastern Daylight Time),502186.59999990463,I,None,2016,25,3,146.bmp,-120,-120,147.bmp,120,-120,148.bmp,-120,120,149.bmp,120,120,10059.099999904633,492127.5,9038,no,SM,A,148.bmp,120,120,217956,211932,219973,213940,487722.0,481697.0,489739.0,483706.0,25
1,1,0,0,0,17,test,1,1,z,Mon Jun 22 2026 12:10:36 GMT-0400 (Eastern Daylight Time),511470.0,I,z,1224,26,3,138.bmp,-120,-120,139.bmp,120,-120,140.bmp,-120,120,141.bmp,120,120,9275.5,502194.5,9038,yes,SM,A,138.bmp,-120,-120,217956,211932,219973,213940,497789.0,491764.0,499806.0,493773.0,26
4,0,0,0,1,17,test,1,0,z,Mon Jun 22 2026 12:10:36 GMT-0400 (Eastern Daylight Time),521536.5,I,None,2016,27,3,150.bmp,-120,-120,111.bmp,120,-120,101.bmp,-120,120,102.bmp,120,120,10058.5,511478.0,9038,yes,SM,A,102.bmp,120,120,217956,211932,219973,213940,507072.0,501047.0,509089.0,503056.0,27
3,0,0,1,0,17,test,1,0,m,Mon Jun 22 2026 12:10:36 GMT-0400 (Eastern Daylight Time),531486.399999857,I,z,1890,28,3,103.bmp,-120,-120,104.bmp,120,-120,105.bmp,-120,120,106.bmp,120,120,9940.5,521545.89999985695,9038,no,SM,A,103.bmp,-120,120,217956,211932,219973,213940,517139.0,511115.0,519156.0,513123.0,28
2,0,1,0,0,17,test,1,0,z,Mon Jun 22 2026 12:10:36 GMT-0400 (Eastern Daylight Time),541553.0999999046,I,None,2016,29,3,107.bmp,-120,-120,108.bmp,120,-120,109.bmp,-120,120,110.bmp,120,120,10058.400000095367,531494.6999998093,9038,yes,SM,A,108.bmp,120,-120,217956,211932,219973,213940,527089.0,521064.0,529106.0,523073.0,29
3,0,0,1,0,18,test,1,1,z,Mon Jun 22 2026 12:10:36 GMT-0400 (Eastern Daylight Time),551136.399999857,I,z,1529,30,3,111.bmp,-120,-120,112.bmp,120,-120,113.bmp,-120,120,114.bmp,120,120,9576.099999904633,541560.2999999523,9038,yes,SM,A,113.bmp,-120,120,217956,211932,219973,213940,537156.0,531130.0,539173.0,533139.0,30
1,1,0,0,0,19,test,1,1,z,Mon Jun 22 2026 12:10:36 GMT-0400 (Eastern Daylight Time),559886.2999999523,I,z,698,31,3,115.bmp,-120,-120,116.bmp,120,-120,117.bmp,-120,120,118.bmp,120,120,8740.799999952316,551145.5,9038,yes,SM,A,115.bmp,-120,-120,217956,211932,219973,213940,546739.0,540715.0,548756.0,542723.0,31
2,0,1,0,0,20,test,1,1,m,Mon Jun 22 2026 12:10:36 GMT-0400 (Eastern Daylight Time),569336.399999857,I,m,1396,32,3,119.bmp,-120,-120,120.bmp,120,-120,121.bmp,-120,120,122.bmp,120,120,9442.5,559893.899999857,9038,no,SM,A,119.bmp,120,-120,217956,211932,219973,213940,555489.0,549463.0,557506.0,551473.0,32
4,0,0,0,1,21,test,1,1,z,Mon Jun 22 2026 12:10:36 GMT-0400 (Eastern Daylight Time),579086.5999999046,I,z,1690,33,3,131.bmp,-120,-120,132.bmp,120,-120,133.bmp,-120,120,134.bmp,120,120,9740.900000095367,569345.6999998093,9038,yes,SM,A,134.bmp,120,120,217956,211932,219973,213940,564939.0,558915.0,566956.0,560923.0,33
2,0,1,0,0,22,test,1,1,z,Mon Jun 22 2026 12:10:36 GMT-0400 (Eastern Daylight Time),589019.7999999523,I,z,1868,34,3,123.bmp,-120,-120,124.bmp,120,-120,125.bmp,-120,120,126.bmp,120,120,9924.100000143051,579095.6999998093,9038,yes,SM,A,124.bmp,120,-120,217956,211932,219973,213940,574689.0,568665.0,576706.0,570672.0,34
4,0,0,0,1,22,test,1,0,m,Mon Jun 22 2026 12:10:36 GMT-0400 (Eastern Daylight Time),599086.5,I,None,2016,35,3,127.bmp,-120,-120,128.bmp,120,-120,129.bmp,-120,120,130.bmp,120,120,10057.800000190735,589028.6999998093,9038,no,SM,A,129.bmp,120,120,217956,211932,219973,213940,584622.0,578598.0,586639.0,580606.0,35
3,0,0,1,0,23,test,1,1,m,Mon Jun 22 2026 12:10:36 GMT-0400 (Eastern Daylight Time),609003.1999998093,I,m,1852,36,3,135.bmp,-120,-120,136.bmp,120,-120,137.bmp,-120,120,138.bmp,120,120,9908.099999904633,599095.0999999046,9038,no,SM,A,135.bmp,-120,120,217956,211932,219973,213940,594689.0,588664.0,596706.0,590672.0,36
1,1,0,0,0,24,test,1,1,m,Mon Jun 22 2026 12:10:36 GMT-0400 (Eastern Daylight Time),618936.5999999046,I,m,1871,37,3,139.bmp,-120,-120,140.bmp,120,-120,141.bmp,-120,120,142.bmp,120,120,9922.900000095367,609013.6999998093,9038,no,SM,A,140.bmp,-120,-120,217956,211932,219973,213940,604606.0,598583.0,606623.0,600589.0,37
2,0,1,0,0,25,test,1,1,m,Mon Jun 22 2026 12:10:36 GMT-0400 (Eastern Daylight Time),628653.0999999046,I,m,1658,38,3,143.bmp,-120,-120,144.bmp,120,-120,145.bmp,-120,120,146.bmp,120,120,9709.700000047684,618943.399999857,9038,no,SM,A,145.bmp,120,-120,217956,211932,219973,213940,614539.0,608513.0,616556.0,610522.0,38
4,0,0,0,1,25,test,1,0,z,Mon Jun 22 2026 12:10:36 GMT-0400 (Eastern Daylight Time),638719.7999999523,I,None,2016,39,3,147.bmp,-120,-120,148.bmp,120,-120,149.bmp,-120,120,150.bmp,120,120,10059.0,628660.7999999523,9038,yes,SM,A,150.bmp,120,120,217956,211932,219973,213940,624256.0,618230.0,626273.0,620239.0,39
3,0,0,1,0,26,test,1,1,m,Mon Jun 22 2026 12:10:36 GMT-0400 (Eastern Daylight Time),648203.0999999046,I,m,1427,40,3,104.bmp,-120,-120,105.bmp,120,-120,106.bmp,-120,120,107.bmp,120,120,9476.099999904633,638727.0,9038,no,SM,A,105.bmp,-120,120,217956,211932,219973,213940,634322.0,628296.0,636339.0,630306.0,40
1,1,0,0,0,27,test,1,1,z,Mon Jun 22 2026 12:10:36 GMT-0400 (Eastern Daylight Time),657153.1999998093,I,z,887,41,3,108.bmp,-120,-120,109.bmp,120,-120,110.bmp,-120,120,111.bmp,120,120,8942.899999856949,648210.2999999523,9038,yes,SM,A,108.bmp,-120,-120,217956,211932,219973,213940,643806.0,637780.0,645823.0,639789.0,41
4,0,0,0,1,27,test,1,0,z,Mon Jun 22 2026 12:10:36 GMT-0400 (Eastern Daylight Time),667219.899999857,I,None,2016,42,3,112.bmp,-120,-120,113.bmp,120,-120,114.bmp,-120,120,115.bmp,120,120,10056.0,657163.899999857,9038,yes,SM,A,115.bmp,120,120,217956,211932,219973,213940,652756.0,646733.0,654773.0,648739.0,42
1,1,0,0,0,28,test,1,1,z,Mon Jun 22 2026 12:10:36 GMT-0400 (Eastern Daylight Time),675869.5999999046,I,z,599,43,3,116.bmp,-120,-120,117.bmp,120,-120,118.bmp,-120,120,119.bmp,120,120,8640.099999904633,667229.5,9038,yes,SM,A,116.bmp,-120,-120,217956,211932,219973,213940,662822.0,656799.0,664839.0,658806.0,43
4,0,0,0,1,29,test,1,1,m,Mon Jun 22 2026 12:10:36 GMT-0400 (Eastern Daylight Time),685453.5,I,m,1533,44,3,104.bmp,-120,-120,101.bmp,120,-120,102.bmp,-120,120,103.bmp,120,120,9574.5,675879.0,9038,no,SM,A,104.bmp,120,120,217956,211932,219973,213940,671472.0,665448.0,673489.0,667456.0,44
1,1,0,0,0,30,test,1,1,m,Mon Jun 22 2026 12:10:36 GMT-0400 (Eastern Daylight Time),694903.0999999046,I,m,1389,45,3,128.bmp,-120,-120,129.bmp,120,-120,130.bmp,-120,120,131.bmp,120,120,9442.900000095367,685460.1999998093,9038,no,SM,A,131.bmp,-120,-120,217956,211932,219973,213940,681056.0,675030.0,683073.0,677039.0,45
1,1,0,0,0,31,test,1,1,m,Mon Jun 22 2026 12:10:36 GMT-0400 (Eastern Daylight Time),704203.0999999046,I,m,1243,46,3,120.bmp,-120,-120,121.bmp,120,-120,122.bmp,-120,120,123.bmp,120,120,9289.900000095367,694913.1999998093,9038,no,SM,A,121.bmp,-120,-120,217956,211932,219973,213940,690506.0,684483.0,692523.0,686489.0,46
3,0,0,1,0,32,test,1,1,z,Mon Jun 22 2026 12:10:36 GMT-0400 (Eastern Daylight Time),714086.399999857,I,z,1831,47,3,124.bmp,-120,-120,125.bmp,120,-120,126.bmp,-120,120,127.bmp,120,120,9875.799999952316,704210.5999999046,9038,yes,SM,A,126.bmp,-120,120,217956,211932,219973,213940,699806.0,693780.0,701823.0,695789.0,47
3,0,0,1,0,33,test,1,1,z,Mon Jun 22 2026 12:10:36 GMT-0400 (Eastern Daylight Time),723886.5999999046,I,z,1740,48,3,140.bmp,-120,-120,141.bmp,120,-120,142.bmp,-120,120,143.bmp,120,120,9792.599999904633,714094.0,9038,yes,SM,A,142.bmp,-120,120,217956,211932,219973,213940,709689.0,703663.0,711706.0,705672.0,48
2,0,1,0,0,33,test,1,0,z,Mon Jun 22 2026 12:10:36 GMT-0400 (Eastern Daylight Time),733953.0999999046,I,None,2016,49,3,136.bmp,-120,-120,137.bmp,120,-120,138.bmp,-120,120,139.bmp,120,120,10058.799999952316,723894.2999999523,9038,yes,SM,A,137.bmp,120,-120,217956,211932,219973,213940,719489.0,713464.0,721506.0,715473.0,49
3,0,0,1,0,34,test,1,1,m,Mon Jun 22 2026 12:10:36 GMT-0400 (Eastern Daylight Time),743269.5999999046,I,m,1265,50,3,132.bmp,-120,-120,133.bmp,120,-120,134.bmp,-120,120,135.bmp,120,120,9306.400000095367,733963.1999998093,9038,no,SM,A,132.bmp,-120,120,217956,211932,219973,213940,729556.0,723532.0,731573.0,725539.0,50
2,0,1,0,0,34,test,1,0,z,Mon Jun 22 2026 12:10:36 GMT-0400 (Eastern Daylight Time),753336.5,I,None,2016,51,3,144.bmp,-120,-120,145.bmp,120,-120,146.bmp,-120,120,147.bmp,120,120,10057.800000190735,743278.6999998093,9038,yes,SM,A,145.bmp,120,-120,217956,211932,219973,213940,738872.0,732848.0,740889.0,734856.0,51
4,0,0,0,1,34,test,1,0,m,Mon Jun 22 2026 12:10:36 GMT-0400 (Eastern Daylight Time),763403.2999999523,I,None,2016,52,3,148.bmp,-120,-120,149.bmp,120,-120,150.bmp,-120,120,131.bmp,120,120,10060.400000095367,753342.899999857,9038,no,SM,A,148.bmp,120,120,217956,211932,219973,213940,748939.0,742912.0,750956.0,744922.0,52
3,0,0,1,0,35,test,1,1,z,Mon Jun 22 2026 12:10:36 GMT-0400 (Eastern Daylight Time),772519.6999998093,I,z,1055,53,3,101.bmp,-120,-120,102.bmp,120,-120,103.bmp,-120,120,104.bmp,120,120,9108.799999952316,763410.899999857,9038,yes,SM,A,103.bmp,-120,120,217956,211932,219973,213940,759006.0,752980.0,761023.0,754989.0,53
1,1,0,0,0,36,test,1,1,m,Mon Jun 22 2026 12:10:36 GMT-0400 (Eastern Daylight Time),781786.399999857,I,m,1211,54,3,105.bmp,-120,-120,106.bmp,120,-120,107.bmp,-120,120,108.bmp,120,120,9257.399999856949,772529.0,9038,no,SM,A,107.bmp,-120,-120,217956,211932,219973,213940,768122.0,762098.0,770139.0,764106.0,54
4,0,0,0,1,36,test,1,0,z,Mon Jun 22 2026 12:10:36 GMT-0400 (Eastern Daylight Time),791053.1999998093,I,m,1208,55,3,109.bmp,-120,-120,110.bmp,120,-120,111.bmp,-120,120,112.bmp,120,120,9259.199999809265,781794.0,9038,yes,SM,A,112.bmp,120,120,217956,211932,219973,213940,777389.0,771363.0,779406.0,773373.0,55
2,0,1,0,0,37,test,1,1,m,Mon Jun 22 2026 12:10:36 GMT-0400 (Eastern Daylight Time),800336.2999999523,I,m,1221,56,3,113.bmp,-120,-120,114.bmp,120,-120,115.bmp,-120,120,116.bmp,120,120,9273.799999952316,791062.5,9038,no,SM,A,113.bmp,120,-120,217956,211932,219973,213940,786656.0,780632.0,788673.0,782639.0,56
4,0,0,0,1,38,test,1,1,m,Mon Jun 22 2026 12:10:36 GMT-0400 (Eastern Daylight Time),809686.5,I,m,1290,57,3,117.bmp,-120,-120,118.bmp,120,-120,119.bmp,-120,120,120.bmp,120,120,9341.0,800345.5,9038,no,SM,A,118.bmp,120,120,217956,211932,219973,213940,795939.0,789915.0,797956.0,791923.0,57
3,0,0,1,0,39,test,1,1,z,Mon Jun 22 2026 12:10:36 GMT-0400 (Eastern Daylight Time),818919.7999999523,I,z,1180,58,3,121.bmp,-120,-120,122.bmp,120,-120,123.bmp,-120,120,124.bmp,120,120,9223.100000143051,809696.6999998093,9038,yes,SM,A,123.bmp,-120,120,217956,211932,219973,213940,805289.0,799266.0,807306.0,801273.0,58
2,0,1,0,0,39,test,1,0,m,Mon Jun 22 2026 12:10:36 GMT-0400 (Eastern Daylight Time),828386.399999857,I,z,1411,59,3,125.bmp,-120,-120,126.bmp,120,-120,127.bmp,-120,120,128.bmp,120,120,9459.200000047684,818927.1999998093,9038,no,SM,A,128.bmp,120,-120,217956,211932,219973,213940,814522.0,808496.0,816539.0,810506.0,59
1,1,0,0,0,40,test,1,1,z,Mon Jun 22 2026 12:10:36 GMT-0400 (Eastern Daylight Time),837953.0,I,z,1504,60,3,129.bmp,-120,-120,130.bmp,120,-120,131.bmp,-120,120,132.bmp,120,120,9557.100000143051,828395.899999857,9038,yes,SM,A,129.bmp,-120,-120,217956,211932,219973,213940,823989.0,817965.0,826006.0,819973.0,60
2,0,1,0,0,41,test,1,1,z,Mon Jun 22 2026 12:10:36 GMT-0400 (Eastern Daylight Time),846936.2999999523,I,z,922,61,3,133.bmp,-120,-120,134.bmp,120,-120,135.bmp,-120,120,136.bmp,120,120,8973.700000047684,837962.5999999046,9038,yes,SM,A,134.bmp,120,-120,217956,211932,219973,213940,833556.0,827532.0,835572.0,829539.0,61
4,0,0,0,1,41,test,1,0,z,Mon Jun 22 2026 12:10:36 GMT-0400 (Eastern Daylight Time),857003.0999999046,I,None,2016,62,3,141.bmp,-120,-120,142.bmp,120,-120,143.bmp,-120,120,144.bmp,120,120,10057.799999952316,846945.2999999523,9038,yes,SM,A,144.bmp,120,120,217956,211932,219973,213940,842539.0,836515.0,844556.0,838522.0,62
1,1,0,0,0,41,test,1,0,m,Mon Jun 22 2026 12:10:36 GMT-0400 (Eastern Daylight Time),866452.5999999046,I,z,1398,63,3,145.bmp,-120,-120,146.bmp,120,-120,147.bmp,-120,120,148.bmp,120,120,9441.5,857011.0999999046,9038,no,SM,A,145.bmp,-120,120,217956,211932,219973,213940,852606.0,846580.0,854623.0,848589.0,63
2,0,1,0,0,42,test,1,1,z,Mon Jun 22 2026 12:10:36 GMT-0400 (Eastern Daylight Time),875653.0,I,z,1141,64,3,149.bmp,-120,-120,150.bmp,120,-120,112.bmp,-120,120,101.bmp,120,120,9196.800000190735,866456.1999998093,9038,yes,SM,A,150.bmp,120,-120,217956,211932,219973,213940,862056.0,856025.0,864073.0,858039.0,64
4,0,0,0,1,43,test,1,1,m,Mon Jun 22 2026 12:10:36 GMT-0400 (Eastern Daylight Time),885203.0999999046,I,m,1484,65,3,102.bmp,-120,-120,103.bmp,120,-120,104.bmp,-120,120,105.bmp,120,120,9542.400000095367,875660.6999998093,9038,no,SM,A,104.bmp,120,120,217956,211932,219973,213940,871256.0,865230.0,873273.0,867239.0,65
3,0,0,1,0,44,test,1,1,m,Mon Jun 22 2026 12:10:36 GMT-0400 (Eastern Daylight Time),894469.5,I,m,1215,66,3,106.bmp,-120,-120,107.bmp,120,-120,108.bmp,-120,120,109.bmp,120,120,9256.900000095367,885212.5999999046,9038,no,SM,A,109.bmp,-120,120,217956,211932,219973,213940,880806.0,874782.0,882823.0,876789.0,66
2,0,1,0,0,45,test,1,1,m,Mon Jun 22 2026 12:10:36 GMT-0400 (Eastern Daylight Time),904136.5,I,m,1605,67,3,137.bmp,-120,-120,138.bmp,120,-120,139.bmp,-120,120,140.bmp,120,120,9659.300000190735,894477.1999998093,9038,no,SM,A,139.bmp,120,-120,217956,211932,219973,213940,890072.0,884047.0,892089.0,886056.0,67
3,0,0,1,0,46,test,1,1,z,Mon Jun 22 2026 12:10:36 GMT-0400 (Eastern Daylight Time),913719.5999999046,I,z,1521,68,3,110.bmp,-120,-120,111.bmp,120,-120,112.bmp,-120,120,113.bmp,120,120,9573.400000095367,904146.1999998093,9038,yes,SM,A,112.bmp,-120,120,217956,211932,219973,213940,899739.0,893715.0,901756.0,895723.0,68
1,1,0,0,0,47,test,1,1,m,Mon Jun 22 2026 12:10:36 GMT-0400 (Eastern Daylight Time),923369.7999999523,I,m,1595,69,3,114.bmp,-120,-120,115.bmp,120,-120,116.bmp,-120,120,117.bmp,120,120,9642.0,913727.7999999523,9038,no,SM,A,115.bmp,-120,-120,217956,211932,219973,213940,909322.0,903297.0,911339.0,905306.0,69
2,0,1,0,0,48,test,1,1,m,Mon Jun 22 2026 12:10:36 GMT-0400 (Eastern Daylight Time),932553.1999998093,I,m,1129,70,3,118.bmp,-120,-120,119.bmp,120,-120,120.bmp,-120,120,121.bmp,120,120,9174.099999904633,923379.0999999046,9038,no,SM,A,120.bmp,120,-120,217956,211932,219973,213940,918972.0,912948.0,920989.0,914956.0,70
4,0,0,0,1,49,test,1,1,z,Mon Jun 22 2026 12:10:36 GMT-0400 (Eastern Daylight Time),941819.6999998093,I,z,1201,71,3,122.bmp,-120,-120,123.bmp,120,-120,124.bmp,-120,120,125.bmp,120,120,9259.399999856949,932560.2999999523,9038,yes,SM,A,125.bmp,120,120,217956,211932,219973,213940,928155.0,922130.0,930172.0,924139.0,71
1,1,0,0,0,50,test,1,1,z,Mon Jun 22 2026 12:10:36 GMT-0400 (Eastern Daylight Time),950753.0,I,z,871,72,3,126.bmp,-120,-120,127.bmp,120,-120,128.bmp,-120,120,129.bmp,120,120,8924.200000047684,941828.7999999523,9038,yes,SM,A,126.bmp,-120,-120,217956,211932,219973,213940,937422.0,931398.0,939439.0,933406.0,72
2,0,1,0,0,51,test,1,1,z,Mon Jun 22 2026 12:10:36 GMT-0400 (Eastern Daylight Time),959719.6999998093,I,z,912,73,3,130.bmp,-120,-120,131.bmp,120,-120,132.bmp,-120,120,133.bmp,120,120,8956.899999856949,950762.7999999523,9038,yes,SM,A,131.bmp,120,-120,217956,211932,219973,213940,946356.0,940332.0,948373.0,942339.0,73
4,0,0,0,1,52,test,1,1,m,Mon Jun 22 2026 12:10:36 GMT-0400 (Eastern Daylight Time),969269.7999999523,I,m,1491,74,3,134.bmp,-120,-120,135.bmp,120,-120,136.bmp,-120,120,137.bmp,120,120,9540.900000095367,959728.899999857,9038,no,SM,A,136.bmp,120,120,217956,211932,219973,213940,955322.0,949298.0,957339.0,951306.0,74
2,0,1,0,0,52,test,1,0,m,Mon Jun 22 2026 12:10:36 GMT-0400 (Eastern Daylight Time),979336.5,I,None,2016,75,3,138.bmp,-120,-120,139.bmp,120,-120,140.bmp,-120,120,141.bmp,120,120,10056.400000095367,969280.0999999046,9038,no,SM,A,141.bmp,120,-120,217956,211932,219973,213940,964872.0,958850.0,966889.0,960856.0,75
1,1,0,0,0,53,test,1,1,z,Mon Jun 22 2026 12:10:36 GMT-0400 (Eastern Daylight Time),989002.899999857,I,z,1601,76,3,142.bmp,-120,-120,143.bmp,120,-120,144.bmp,-120,120,145.bmp,120,120,9658.599999904633,979344.2999999523,9038,yes,SM,A,142.bmp,-120,-120,217956,211932,219973,213940,974939.0,968914.0,976956.0,970922.0,76
3,0,0,1,0,54,test,1,1,z,Mon Jun 22 2026 12:10:36 GMT-0400 (Eastern Daylight Time),998236.2999999523,I,z,1166,77,3,150.bmp,-120,-120,111.bmp,120,-120,101.bmp,-120,120,102.bmp,120,120,9224.100000143051,989012.1999998093,9038,yes,SM,A,101.bmp,-120,120,217956,211932,219973,213940,984606.0,978581.0,986622.0,980589.0,77
1,1,0,0,0,55,test,1,1,m,Mon Jun 22 2026 12:10:36 GMT-0400 (Eastern Daylight Time),1007853.0,I,m,1558,78,3,146.bmp,-120,-120,147.bmp,120,-120,148.bmp,-120,120,149.bmp,120,120,9609.0,998244.0,9038,no,SM,A,147.bmp,-120,-120,217956,211932,219973,213940,993839.0,987813.0,995856.0,989823.0,78
4,0,0,0,1,56,test,1,1,m,Mon Jun 22 2026 12:10:36 GMT-0400 (Eastern Daylight Time),1017336.399999857,I,m,1421,79,3,107.bmp,-120,-120,108.bmp,120,-120,109.bmp,-120,120,110.bmp,120,120,9473.700000047684,1007862.6999998093,9038,no,SM,A,107.bmp,120,120,217956,211932,219973,213940,1003456.0,997432.0,1005472.0,999439.0,79
3,0,0,1,0,57,test,1,1,m,Mon Jun 22 2026 12:10:36 GMT-0400 (Eastern Daylight Time),1026719.7999999523,I,m,1330,80,3,103.bmp,-120,-120,104.bmp,120,-120,105.bmp,-120,120,106.bmp,120,120,9374.100000143051,1017345.6999998093,9038,no,SM,A,106.bmp,-120,120,217956,211932,219973,213940,1012939.0,1006915.0,1014956.0,1008923.0,80
