acc_sum,block,block_c,change,condition,correct,correct_response,datetime,endtime,face,project,response,response_time,row_sel,session_number,start_end,starttime,subject_id,task,task_vers,trial
0,prac,1,,1-Back,,,Wed Mar 11 2026 14:22:43 GMT-0500 (Central Daylight Time),,050_m_f_n_a.png,O,space,9183,1,1,,,7770,NNB,A,0
1,prac,1,0.0,1-Back,1.0,m,Wed Mar 11 2026 14:22:43 GMT-0500 (Central Daylight Time),117859.0,063_y_f_n_a.png,O,m,952,2,1,1750.7000000029802,116108.29999999702,7770,NNB,A,1
2,prac,1,1.0,1-Back,1.0,z,Wed Mar 11 2026 14:22:43 GMT-0500 (Central Daylight Time),119592.90000000596,063_y_f_n_a.png,O,z,965,3,1,1724.4000000059605,117868.5,7770,NNB,A,2
3,prac,1,0.0,1-Back,1.0,m,Wed Mar 11 2026 14:22:43 GMT-0500 (Central Daylight Time),121194.59999999404,053_o_m_n_a.png,O,m,802,4,1,1592.199999988079,119602.40000000596,7770,NNB,A,3
4,prac,1,0.0,1-Back,1.0,m,Wed Mar 11 2026 14:22:43 GMT-0500 (Central Daylight Time),122961.09999999404,058_m_m_n_a.png,O,m,966,5,1,1754.5,121206.59999999404,7770,NNB,A,4
5,prac,1,1.0,1-Back,1.0,z,Wed Mar 11 2026 14:22:43 GMT-0500 (Central Daylight Time),124443.59999999404,058_m_m_n_a.png,O,z,695,6,1,1473.0999999940395,122970.5,7770,NNB,A,5
6,prac,1,0.0,1-Back,1.0,m,Wed Mar 11 2026 14:22:43 GMT-0500 (Central Daylight Time),126160.79999999702,047_o_f_n_a.png,O,m,925,7,1,1707.7000000029802,124453.09999999404,7770,NNB,A,6
7,prac,1,0.0,1-Back,1.0,m,Wed Mar 11 2026 14:22:43 GMT-0500 (Central Daylight Time),127759.79999999702,045_m_m_n_a.png,O,m,816,8,1,1591.2000000029802,126168.59999999404,7770,NNB,A,7
8,prac,1,0.0,1-Back,1.0,m,Wed Mar 11 2026 14:22:43 GMT-0500 (Central Daylight Time),129409.20000000298,050_m_f_n_a.png,O,m,856,9,1,1639.7000000029802,127769.5,7770,NNB,A,8
9,prac,1,1.0,1-Back,1.0,z,Wed Mar 11 2026 14:22:43 GMT-0500 (Central Daylight Time),130925.09999999404,050_m_f_n_a.png,O,z,725,10,1,1505.2999999970198,129419.79999999702,7770,NNB,A,9
10,prac,1,0.0,1-Back,1.0,m,Wed Mar 11 2026 14:22:43 GMT-0500 (Central Daylight Time),132457.59999999404,053_o_m_n_a.png,O,m,754,11,1,1521.8999999910593,130935.70000000298,7770,NNB,A,10
11,prac,1,0.0,1-Back,1.0,m,Wed Mar 11 2026 14:22:43 GMT-0500 (Central Daylight Time),134156.29999999702,010_y_f_n_a.png,O,m,874,12,1,1690.3999999910593,132465.90000000596,7770,NNB,A,11
0,test,1,0.0,1-Back,,,Wed Mar 11 2026 14:22:43 GMT-0500 (Central Daylight Time),134156.29999999702,063_y_f_n_a.png,O,space,7214,1,1,1690.3999999910593,132465.90000000596,7770,NNB,A,0
1,test,1,0.0,1-Back,1.0,m,Wed Mar 11 2026 14:22:43 GMT-0500 (Central Daylight Time),151384.09999999404,043_m_f_n_a.png,O,m,750,2,1,1775.199999988079,149608.90000000596,7770,NNB,A,1
2,test,1,0.0,1-Back,1.0,m,Wed Mar 11 2026 14:22:43 GMT-0500 (Central Daylight Time),153133.09999999404,010_y_f_n_a.png,O,m,720,3,1,1743.199999988079,151389.90000000596,7770,NNB,A,2
3,test,1,1.0,1-Back,1.0,z,Wed Mar 11 2026 14:22:43 GMT-0500 (Central Daylight Time),154850.70000000298,010_y_f_n_a.png,O,z,699,4,1,1711.2000000029802,153139.5,7770,NNB,A,3
4,test,1,0.0,1-Back,1.0,m,Wed Mar 11 2026 14:22:43 GMT-0500 (Central Daylight Time),156667.0,043_m_f_n_a.png,O,m,791,5,1,1810.4000000059605,154856.59999999404,7770,NNB,A,4
5,test,1,0.0,1-Back,1.0,m,Wed Mar 11 2026 14:22:43 GMT-0500 (Central Daylight Time),158448.40000000596,053_o_m_n_a.png,O,m,756,6,1,1775.0,156673.40000000596,7770,NNB,A,5
6,test,1,1.0,1-Back,1.0,z,Wed Mar 11 2026 14:22:43 GMT-0500 (Central Daylight Time),160199.09999999404,053_o_m_n_a.png,O,z,720,7,1,1744.7999999970198,158454.29999999702,7770,NNB,A,6
7,test,1,0.0,1-Back,1.0,m,Wed Mar 11 2026 14:22:43 GMT-0500 (Central Daylight Time),161948.90000000596,058_m_m_n_a.png,O,m,731,8,1,1742.800000011921,160206.09999999404,7770,NNB,A,7
8,test,1,0.0,1-Back,1.0,m,Wed Mar 11 2026 14:22:43 GMT-0500 (Central Daylight Time),163747.40000000596,047_o_f_n_a.png,O,m,780,9,1,1792.1000000089407,161955.29999999702,7770,NNB,A,8
9,test,1,0.0,1-Back,1.0,m,Wed Mar 11 2026 14:22:43 GMT-0500 (Central Daylight Time),165563.0,058_m_m_n_a.png,O,m,790,10,1,1811.0,163752.0,7770,NNB,A,9
10,test,1,0.0,1-Back,1.0,m,Wed Mar 11 2026 14:22:43 GMT-0500 (Central Daylight Time),167330.59999999404,041_y_m_n_a.png,O,m,741,11,1,1761.0,165569.59999999404,7770,NNB,A,10
11,test,1,1.0,1-Back,1.0,z,Wed Mar 11 2026 14:22:43 GMT-0500 (Central Daylight Time),169028.29999999702,041_y_m_n_a.png,O,z,679,12,1,1693.3999999910593,167334.90000000596,7770,NNB,A,11
12,test,1,0.0,1-Back,1.0,m,Wed Mar 11 2026 14:22:43 GMT-0500 (Central Daylight Time),170845.70000000298,044_o_f_n_a.png,O,m,788,13,1,1812.2999999970198,169033.40000000596,7770,NNB,A,12
13,test,1,1.0,1-Back,1.0,z,Wed Mar 11 2026 14:22:43 GMT-0500 (Central Daylight Time),172561.0,044_o_f_n_a.png,O,z,683,14,1,1708.5,170852.5,7770,NNB,A,13
14,test,1,0.0,1-Back,1.0,m,Wed Mar 11 2026 14:22:43 GMT-0500 (Central Daylight Time),174344.29999999702,008_y_m_n_a.png,O,m,751,15,1,1776.8999999910593,172567.40000000596,7770,NNB,A,14
15,test,1,0.0,1-Back,1.0,m,Wed Mar 11 2026 14:22:43 GMT-0500 (Central Daylight Time),176161.40000000596,050_m_f_n_a.png,O,m,801,16,1,1810.800000011921,174350.59999999404,7770,NNB,A,15
16,test,1,0.0,1-Back,1.0,m,Wed Mar 11 2026 14:22:43 GMT-0500 (Central Daylight Time),177942.70000000298,046_o_m_n_a.png,O,m,753,17,1,1776.7000000029802,176166.0,7770,NNB,A,16
17,test,1,0.0,1-Back,1.0,m,Wed Mar 11 2026 14:22:43 GMT-0500 (Central Daylight Time),179827.90000000596,050_m_f_n_a.png,O,m,868,18,1,1878.4000000059605,177949.5,7770,NNB,A,17
0,test,2,0.0,1-Back,,,Wed Mar 11 2026 14:22:43 GMT-0500 (Central Daylight Time),179827.90000000596,058_m_m_n_a.png,O,space,2884,1,1,1878.4000000059605,177949.5,7770,NNB,A,0
1,test,2,0.0,1-Back,1.0,m,Wed Mar 11 2026 14:22:43 GMT-0500 (Central Daylight Time),186406.59999999404,043_m_f_n_a.png,O,m,635,2,1,1657.5,184749.09999999404,7770,NNB,A,1
2,test,2,1.0,1-Back,1.0,z,Wed Mar 11 2026 14:22:43 GMT-0500 (Central Daylight Time),188156.09999999404,043_m_f_n_a.png,O,z,723,3,1,1743.199999988079,186412.90000000596,7770,NNB,A,2
3,test,2,0.0,1-Back,1.0,m,Wed Mar 11 2026 14:22:43 GMT-0500 (Central Daylight Time),189939.20000000298,058_m_m_n_a.png,O,m,764,4,1,1777.0,188162.20000000298,7770,NNB,A,3
4,test,2,0.0,1-Back,1.0,m,Wed Mar 11 2026 14:22:43 GMT-0500 (Central Daylight Time),191938.20000000298,041_y_m_n_a.png,O,m,982,5,1,1989.9000000059605,189948.29999999702,7770,NNB,A,4
5,test,2,0.0,1-Back,1.0,m,Wed Mar 11 2026 14:22:43 GMT-0500 (Central Daylight Time),193823.90000000596,063_y_f_n_a.png,O,m,854,6,1,1879.0,191944.90000000596,7770,NNB,A,5
6,test,2,1.0,1-Back,1.0,z,Wed Mar 11 2026 14:22:43 GMT-0500 (Central Daylight Time),195538.40000000596,063_y_f_n_a.png,O,z,700,7,1,1706.800000011921,193831.59999999404,7770,NNB,A,6
7,test,2,0.0,1-Back,1.0,m,Wed Mar 11 2026 14:22:43 GMT-0500 (Central Daylight Time),197303.5,041_y_m_n_a.png,O,m,735,8,1,1759.9000000059605,195543.59999999404,7770,NNB,A,7
8,test,2,0.0,1-Back,1.0,m,Wed Mar 11 2026 14:22:43 GMT-0500 (Central Daylight Time),199103.40000000596,044_o_f_n_a.png,O,m,779,9,1,1794.4000000059605,197309.0,7770,NNB,A,8
9,test,2,0.0,1-Back,1.0,m,Wed Mar 11 2026 14:22:43 GMT-0500 (Central Daylight Time),200951.40000000596,045_m_m_n_a.png,O,m,826,10,1,1842.9000000059605,199108.5,7770,NNB,A,9
10,test,2,1.0,1-Back,1.0,z,Wed Mar 11 2026 14:22:43 GMT-0500 (Central Daylight Time),202684.70000000298,045_m_m_n_a.png,O,z,704,11,1,1727.9000000059605,200956.79999999702,7770,NNB,A,10
11,test,2,0.0,1-Back,1.0,m,Wed Mar 11 2026 14:22:43 GMT-0500 (Central Daylight Time),204435.20000000298,044_o_f_n_a.png,O,m,722,12,1,1744.2000000029802,202691.0,7770,NNB,A,11
12,test,2,0.0,1-Back,1.0,m,Wed Mar 11 2026 14:22:43 GMT-0500 (Central Daylight Time),206183.79999999702,047_o_f_n_a.png,O,m,725,13,1,1744.2999999970198,204439.5,7770,NNB,A,12
13,test,2,0.0,1-Back,1.0,m,Wed Mar 11 2026 14:22:43 GMT-0500 (Central Daylight Time),207983.5,053_o_m_n_a.png,O,m,777,14,1,1796.9000000059605,206186.59999999404,7770,NNB,A,13
14,test,2,0.0,1-Back,1.0,m,Wed Mar 11 2026 14:22:43 GMT-0500 (Central Daylight Time),209732.70000000298,046_o_m_n_a.png,O,m,721,15,1,1742.4000000059605,207990.29999999702,7770,NNB,A,14
15,test,2,1.0,1-Back,1.0,z,Wed Mar 11 2026 14:22:43 GMT-0500 (Central Daylight Time),211448.59999999404,046_o_m_n_a.png,O,z,692,16,1,1708.8999999910593,209739.70000000298,7770,NNB,A,15
16,test,2,0.0,1-Back,1.0,m,Wed Mar 11 2026 14:22:43 GMT-0500 (Central Daylight Time),213247.90000000596,008_y_m_n_a.png,O,m,767,17,1,1794.7000000029802,211453.20000000298,7770,NNB,A,16
17,test,2,1.0,1-Back,1.0,z,Wed Mar 11 2026 14:22:43 GMT-0500 (Central Daylight Time),215147.70000000298,008_y_m_n_a.png,O,z,872,18,1,1894.5,213253.20000000298,7770,NNB,A,17
0,test,3,1.0,1-Back,,,Wed Mar 11 2026 14:22:43 GMT-0500 (Central Daylight Time),215147.70000000298,010_y_f_n_a.png,O,space,2519,1,1,1894.5,213253.20000000298,7770,NNB,A,0
1,test,3,0.0,1-Back,1.0,m,Wed Mar 11 2026 14:22:43 GMT-0500 (Central Daylight Time),221478.40000000596,046_o_m_n_a.png,O,m,727,2,1,1742.4000000059605,219736.0,7770,NNB,A,1
2,test,3,1.0,1-Back,1.0,z,Wed Mar 11 2026 14:22:43 GMT-0500 (Central Daylight Time),223245.40000000596,046_o_m_n_a.png,O,z,737,3,1,1763.4000000059605,221482.0,7770,NNB,A,2
3,test,3,0.0,1-Back,1.0,m,Wed Mar 11 2026 14:22:43 GMT-0500 (Central Daylight Time),224961.29999999702,050_m_f_n_a.png,O,m,692,4,1,1709.0999999940395,223252.20000000298,7770,NNB,A,3
4,test,3,1.0,1-Back,1.0,z,Wed Mar 11 2026 14:22:43 GMT-0500 (Central Daylight Time),226693.79999999702,050_m_f_n_a.png,O,z,712,5,1,1725.3999999910593,224968.40000000596,7770,NNB,A,4
5,test,3,0.0,1-Back,1.0,m,Wed Mar 11 2026 14:22:43 GMT-0500 (Central Daylight Time),228395.59999999404,044_o_f_n_a.png,O,m,685,6,1,1695.2999999970198,226700.29999999702,7770,NNB,A,5
6,test,3,0.0,1-Back,1.0,m,Wed Mar 11 2026 14:22:43 GMT-0500 (Central Daylight Time),230126.40000000596,041_y_m_n_a.png,O,m,703,7,1,1722.7000000029802,228403.70000000298,7770,NNB,A,6
7,test,3,0.0,1-Back,1.0,m,Wed Mar 11 2026 14:22:43 GMT-0500 (Central Daylight Time),231943.40000000596,044_o_f_n_a.png,O,m,785,8,1,1810.6000000089407,230132.79999999702,7770,NNB,A,7
8,test,3,0.0,1-Back,1.0,m,Wed Mar 11 2026 14:22:43 GMT-0500 (Central Daylight Time),233724.0,008_y_m_n_a.png,O,m,762,9,1,1775.0999999940395,231948.90000000596,7770,NNB,A,8
9,test,3,1.0,1-Back,1.0,z,Wed Mar 11 2026 14:22:43 GMT-0500 (Central Daylight Time),235442.70000000298,008_y_m_n_a.png,O,z,701,10,1,1712.4000000059605,233730.29999999702,7770,NNB,A,9
10,test,3,0.0,1-Back,1.0,m,Wed Mar 11 2026 14:22:43 GMT-0500 (Central Daylight Time),237241.09999999404,043_m_f_n_a.png,O,m,776,11,1,1791.699999988079,235449.40000000596,7770,NNB,A,10
11,test,3,0.0,1-Back,1.0,m,Wed Mar 11 2026 14:22:43 GMT-0500 (Central Daylight Time),239091.40000000596,063_y_f_n_a.png,O,m,833,12,1,1842.5,237248.90000000596,7770,NNB,A,11
12,test,3,1.0,1-Back,1.0,z,Wed Mar 11 2026 14:22:43 GMT-0500 (Central Daylight Time),240888.70000000298,063_y_f_n_a.png,O,z,766,13,1,1793.2000000029802,239095.5,7770,NNB,A,12
13,test,3,0.0,1-Back,1.0,m,Wed Mar 11 2026 14:22:43 GMT-0500 (Central Daylight Time),242655.20000000298,043_m_f_n_a.png,O,m,745,14,1,1761.7000000029802,240893.5,7770,NNB,A,13
14,test,3,0.0,1-Back,1.0,m,Wed Mar 11 2026 14:22:43 GMT-0500 (Central Daylight Time),244472.40000000596,058_m_m_n_a.png,O,m,794,15,1,1809.7000000029802,242662.70000000298,7770,NNB,A,14
15,test,3,1.0,1-Back,1.0,z,Wed Mar 11 2026 14:22:43 GMT-0500 (Central Daylight Time),246139.0,058_m_m_n_a.png,O,z,634,16,1,1659.4000000059605,244479.59999999404,7770,NNB,A,15
16,test,3,0.0,1-Back,1.0,m,Wed Mar 11 2026 14:22:43 GMT-0500 (Central Daylight Time),247903.5,047_o_f_n_a.png,O,m,742,17,1,1756.5,246147.0,7770,NNB,A,16
17,test,3,1.0,1-Back,1.0,z,Wed Mar 11 2026 14:22:43 GMT-0500 (Central Daylight Time),249638.0,047_o_f_n_a.png,O,z,705,18,1,1728.0999999940395,247909.90000000596,7770,NNB,A,17
0,test,4,1.0,1-Back,,,Wed Mar 11 2026 14:22:43 GMT-0500 (Central Daylight Time),249638.0,050_m_f_n_a.png,O,space,1627,1,1,1728.0999999940395,247909.90000000596,7770,NNB,A,0
1,test,4,0.0,1-Back,1.0,m,Wed Mar 11 2026 14:22:43 GMT-0500 (Central Daylight Time),254968.20000000298,046_o_m_n_a.png,O,m,659,2,1,1676.2000000029802,253292.0,7770,NNB,A,1
2,test,4,0.0,1-Back,1.0,m,Wed Mar 11 2026 14:22:43 GMT-0500 (Central Daylight Time),256883.79999999702,050_m_f_n_a.png,O,m,888,3,1,1909.8999999910593,254973.90000000596,7770,NNB,A,2
3,test,4,0.0,1-Back,1.0,m,Wed Mar 11 2026 14:22:43 GMT-0500 (Central Daylight Time),258700.59999999404,044_o_f_n_a.png,O,m,800,4,1,1810.3999999910593,256890.20000000298,7770,NNB,A,3
4,test,4,1.0,1-Back,1.0,z,Wed Mar 11 2026 14:22:43 GMT-0500 (Central Daylight Time),260449.29999999702,044_o_f_n_a.png,O,z,717,5,1,1744.7000000029802,258704.59999999404,7770,NNB,A,4
5,test,4,0.0,1-Back,1.0,m,Wed Mar 11 2026 14:22:43 GMT-0500 (Central Daylight Time),262249.0,063_y_f_n_a.png,O,m,767,6,1,1792.2000000029802,260456.79999999702,7770,NNB,A,5
6,test,4,0.0,1-Back,1.0,m,Wed Mar 11 2026 14:22:43 GMT-0500 (Central Daylight Time),264083.5,041_y_m_n_a.png,O,m,801,7,1,1828.0999999940395,262255.40000000596,7770,NNB,A,6
7,test,4,1.0,1-Back,1.0,z,Wed Mar 11 2026 14:22:43 GMT-0500 (Central Daylight Time),265766.09999999404,041_y_m_n_a.png,O,z,655,8,1,1673.5,264092.59999999404,7770,NNB,A,7
8,test,4,0.0,1-Back,1.0,m,Wed Mar 11 2026 14:22:43 GMT-0500 (Central Daylight Time),267532.5,063_y_f_n_a.png,O,m,748,9,1,1758.0999999940395,265774.40000000596,7770,NNB,A,8
9,test,4,0.0,1-Back,1.0,m,Wed Mar 11 2026 14:22:43 GMT-0500 (Central Daylight Time),269297.200000003,045_m_m_n_a.png,O,m,750,10,1,1757.0,267540.200000003,7770,NNB,A,9
10,test,4,1.0,1-Back,1.0,z,Wed Mar 11 2026 14:22:43 GMT-0500 (Central Daylight Time),270978.200000003,045_m_m_n_a.png,O,z,662,11,1,1674.4000000059605,269303.799999997,7770,NNB,A,10
11,test,4,0.0,1-Back,1.0,m,Wed Mar 11 2026 14:22:43 GMT-0500 (Central Daylight Time),272696.09999999404,047_o_f_n_a.png,O,m,694,12,1,1712.0,270984.09999999404,7770,NNB,A,11
12,test,4,0.0,1-Back,1.0,m,Wed Mar 11 2026 14:22:43 GMT-0500 (Central Daylight Time),274428.5,053_o_m_n_a.png,O,m,704,13,1,1724.0,272704.5,7770,NNB,A,12
13,test,4,0.0,1-Back,1.0,m,Wed Mar 11 2026 14:22:43 GMT-0500 (Central Daylight Time),276144.299999997,047_o_f_n_a.png,O,m,692,14,1,1708.5999999940395,274435.700000003,7770,NNB,A,13
14,test,4,0.0,1-Back,1.0,m,Wed Mar 11 2026 14:22:43 GMT-0500 (Central Daylight Time),277911.5,010_y_f_n_a.png,O,m,737,15,1,1760.2000000029802,276151.299999997,7770,NNB,A,14
15,test,4,1.0,1-Back,1.0,z,Wed Mar 11 2026 14:22:43 GMT-0500 (Central Daylight Time),279509.799999997,010_y_f_n_a.png,O,z,578,16,1,1591.0,277918.799999997,7770,NNB,A,15
16,test,4,0.0,1-Back,1.0,m,Wed Mar 11 2026 14:22:43 GMT-0500 (Central Daylight Time),281243.40000000596,043_m_f_n_a.png,O,m,716,17,1,1728.4000000059605,279515.0,7770,NNB,A,16
17,test,4,1.0,1-Back,1.0,z,Wed Mar 11 2026 14:22:43 GMT-0500 (Central Daylight Time),282926.700000003,043_m_f_n_a.png,O,z,653,18,1,1677.7999999970198,281248.90000000596,7770,NNB,A,17
0,test,5,1.0,1-Back,,,Wed Mar 11 2026 14:22:43 GMT-0500 (Central Daylight Time),282926.700000003,053_o_m_n_a.png,O,space,1577,1,1,1677.7999999970198,281248.90000000596,7770,NNB,A,0
0,test,5,1.0,1-Back,0.0,z,Wed Mar 11 2026 14:22:43 GMT-0500 (Central Daylight Time),288373.90000000596,053_o_m_n_a.png,O,m,829,2,1,1842.1000000089407,286531.799999997,7770,NNB,A,1
1,test,5,0.0,1-Back,1.0,m,Wed Mar 11 2026 14:22:43 GMT-0500 (Central Daylight Time),290357.09999999404,063_y_f_n_a.png,O,m,966,3,1,1976.5999999940395,288380.5,7770,NNB,A,2
2,test,5,0.0,1-Back,1.0,m,Wed Mar 11 2026 14:22:43 GMT-0500 (Central Daylight Time),292139.799999997,041_y_m_n_a.png,O,m,756,4,1,1776.7999999970198,290363.0,7770,NNB,A,3
3,test,5,0.0,1-Back,1.0,m,Wed Mar 11 2026 14:22:43 GMT-0500 (Central Daylight Time),294022.799999997,063_y_f_n_a.png,O,m,862,5,1,1876.0,292146.799999997,7770,NNB,A,4
4,test,5,0.0,1-Back,1.0,m,Wed Mar 11 2026 14:22:43 GMT-0500 (Central Daylight Time),296039.0,058_m_m_n_a.png,O,m,986,6,1,2009.0999999940395,294029.90000000596,7770,NNB,A,5
5,test,5,1.0,1-Back,1.0,z,Wed Mar 11 2026 14:22:43 GMT-0500 (Central Daylight Time),297705.40000000596,058_m_m_n_a.png,O,z,634,7,1,1659.2000000029802,296046.200000003,7770,NNB,A,6
6,test,5,0.0,1-Back,1.0,m,Wed Mar 11 2026 14:22:43 GMT-0500 (Central Daylight Time),299370.40000000596,010_y_f_n_a.png,O,m,639,8,1,1657.800000011921,297712.59999999404,7770,NNB,A,7
7,test,5,0.0,1-Back,1.0,m,Wed Mar 11 2026 14:22:43 GMT-0500 (Central Daylight Time),301086.700000003,008_y_m_n_a.png,O,m,694,9,1,1710.7000000029802,299376.0,7770,NNB,A,8
8,test,5,0.0,1-Back,1.0,m,Wed Mar 11 2026 14:22:43 GMT-0500 (Central Daylight Time),302902.700000003,010_y_f_n_a.png,O,m,785,10,1,1808.7000000029802,301094.0,7770,NNB,A,9
9,test,5,0.0,1-Back,1.0,m,Wed Mar 11 2026 14:22:43 GMT-0500 (Central Daylight Time),304637.0,047_o_f_n_a.png,O,m,704,11,1,1727.9000000059605,302909.09999999404,7770,NNB,A,10
10,test,5,1.0,1-Back,1.0,z,Wed Mar 11 2026 14:22:43 GMT-0500 (Central Daylight Time),306152.40000000596,047_o_f_n_a.png,O,z,483,12,1,1508.9000000059605,304643.5,7770,NNB,A,11
11,test,5,0.0,1-Back,1.0,m,Wed Mar 11 2026 14:22:43 GMT-0500 (Central Daylight Time),307751.799999997,046_o_m_n_a.png,O,m,570,13,1,1593.5,306158.299999997,7770,NNB,A,12
12,test,5,0.0,1-Back,1.0,m,Wed Mar 11 2026 14:22:43 GMT-0500 (Central Daylight Time),309387.5,050_m_f_n_a.png,O,m,603,14,1,1629.2999999970198,307758.200000003,7770,NNB,A,13
13,test,5,1.0,1-Back,1.0,z,Wed Mar 11 2026 14:22:43 GMT-0500 (Central Daylight Time),310883.799999997,050_m_f_n_a.png,O,z,482,15,1,1488.8999999910593,309394.90000000596,7770,NNB,A,14
14,test,5,0.0,1-Back,1.0,m,Wed Mar 11 2026 14:22:43 GMT-0500 (Central Daylight Time),312733.09999999404,046_o_m_n_a.png,O,m,829,16,1,1843.7999999970198,310889.299999997,7770,NNB,A,15
15,test,5,0.0,1-Back,1.0,m,Wed Mar 11 2026 14:22:43 GMT-0500 (Central Daylight Time),314381.799999997,043_m_f_n_a.png,O,m,627,17,1,1640.7999999970198,312741.0,7770,NNB,A,16
16,test,5,0.0,1-Back,1.0,m,Wed Mar 11 2026 14:22:43 GMT-0500 (Central Daylight Time),316051.09999999404,045_m_m_n_a.png,O,m,650,18,1,1663.0999999940395,314388.0,7770,NNB,A,17
0,prac,1,0.0,2-Back,,,Wed Mar 11 2026 14:22:43 GMT-0500 (Central Daylight Time),316051.09999999404,008_y_m_n_a.png,O,space,17060,1,1,1663.0999999940395,314388.0,7770,NNB,A,0
0,prac,1,0.0,2-Back,,,Wed Mar 11 2026 14:22:43 GMT-0500 (Central Daylight Time),316051.09999999404,043_m_f_n_a.png,O,space,17060,2,1,1663.0999999940395,314388.0,7770,NNB,A,0
1,prac,1,1.0,2-Back,1.0,m,Wed Mar 11 2026 14:22:43 GMT-0500 (Central Daylight Time),479197.5,046_o_m_n_a.png,O,m,1565,3,1,2356.2999999970198,476841.200000003,7770,NNB,A,1
2,prac,1,0.0,2-Back,1.0,m,Wed Mar 11 2026 14:22:43 GMT-0500 (Central Daylight Time),481214.0,047_o_f_n_a.png,O,m,1191,4,1,2007.2999999970198,479206.700000003,7770,NNB,A,2
3,prac,1,0.0,2-Back,1.0,z,Wed Mar 11 2026 14:22:43 GMT-0500 (Central Daylight Time),482779.5,046_o_m_n_a.png,O,z,778,5,1,1555.5999999940395,481223.90000000596,7770,NNB,A,3
4,prac,1,1.0,2-Back,1.0,z,Wed Mar 11 2026 14:22:43 GMT-0500 (Central Daylight Time),484513.299999997,047_o_f_n_a.png,O,z,940,6,1,1724.8999999910593,482788.40000000596,7770,NNB,A,4
5,prac,1,0.0,2-Back,1.0,m,Wed Mar 11 2026 14:22:43 GMT-0500 (Central Daylight Time),486261.700000003,045_m_m_n_a.png,O,m,943,7,1,1741.9000000059605,484519.799999997,7770,NNB,A,5
6,prac,1,0.0,2-Back,1.0,m,Wed Mar 11 2026 14:22:43 GMT-0500 (Central Daylight Time),487828.09999999404,053_o_m_n_a.png,O,m,756,8,1,1557.0,486271.09999999404,7770,NNB,A,6
7,prac,1,0.0,2-Back,1.0,m,Wed Mar 11 2026 14:22:43 GMT-0500 (Central Daylight Time),489427.700000003,010_y_f_n_a.png,O,m,781,9,1,1593.2000000029802,487834.5,7770,NNB,A,7
8,prac,1,1.0,2-Back,1.0,z,Wed Mar 11 2026 14:22:43 GMT-0500 (Central Daylight Time),491660.09999999404,053_o_m_n_a.png,O,z,1462,10,1,2225.2999999970198,489434.799999997,7770,NNB,A,8
9,prac,1,0.0,2-Back,1.0,m,Wed Mar 11 2026 14:22:43 GMT-0500 (Central Daylight Time),493442.299999997,063_y_f_n_a.png,O,m,971,11,1,1774.5,491667.799999997,7770,NNB,A,9
10,prac,1,0.0,2-Back,1.0,m,Wed Mar 11 2026 14:22:43 GMT-0500 (Central Daylight Time),495424.90000000596,045_m_m_n_a.png,O,m,1200,12,1,1976.0,493448.90000000596,7770,NNB,A,10
0,test,1,0.0,2-Back,,,Wed Mar 11 2026 14:22:43 GMT-0500 (Central Daylight Time),495424.90000000596,041_y_m_n_a.png,O,space,7536,1,1,1976.0,493448.90000000596,7770,NNB,A,0
0,test,1,0.0,2-Back,,,Wed Mar 11 2026 14:22:43 GMT-0500 (Central Daylight Time),495424.90000000596,041_y_m_n_a.png,O,space,7536,2,1,1976.0,493448.90000000596,7770,NNB,A,0
1,test,1,0.0,2-Back,1.0,m,Wed Mar 11 2026 14:22:43 GMT-0500 (Central Daylight Time),528381.200000003,047_o_f_n_a.png,O,m,763,3,1,1775.2999999970198,526605.900000006,7770,NNB,A,1
2,test,1,0.0,2-Back,1.0,m,Wed Mar 11 2026 14:22:43 GMT-0500 (Central Daylight Time),530046.799999997,058_m_m_n_a.png,O,m,644,4,1,1658.7000000029802,528388.099999994,7770,NNB,A,2
3,test,1,1.0,2-Back,1.0,z,Wed Mar 11 2026 14:22:43 GMT-0500 (Central Daylight Time),531847.299999997,047_o_f_n_a.png,O,z,780,5,1,1795.2000000029802,530052.099999994,7770,NNB,A,3
4,test,1,0.0,2-Back,1.0,m,Wed Mar 11 2026 14:22:43 GMT-0500 (Central Daylight Time),533630.400000006,063_y_f_n_a.png,O,m,753,6,1,1777.0,531853.400000006,7770,NNB,A,4
4,test,1,0.0,2-Back,0.0,m,Wed Mar 11 2026 14:22:43 GMT-0500 (Central Daylight Time),535378.900000006,058_m_m_n_a.png,O,z,722,7,1,1741.5,533637.400000006,7770,NNB,A,5
5,test,1,1.0,2-Back,1.0,z,Wed Mar 11 2026 14:22:43 GMT-0500 (Central Daylight Time),537362.299999997,063_y_f_n_a.png,O,z,950,8,1,1974.7000000029802,535387.599999994,7770,NNB,A,6
6,test,1,0.0,2-Back,1.0,m,Wed Mar 11 2026 14:22:43 GMT-0500 (Central Daylight Time),539130.0,008_y_m_n_a.png,O,m,735,9,1,1760.9000000059605,537369.099999994,7770,NNB,A,7
7,test,1,0.0,2-Back,1.0,m,Wed Mar 11 2026 14:22:43 GMT-0500 (Central Daylight Time),540794.599999994,044_o_f_n_a.png,O,m,650,10,1,1661.2999999970198,539133.299999997,7770,NNB,A,8
8,test,1,1.0,2-Back,1.0,z,Wed Mar 11 2026 14:22:43 GMT-0500 (Central Daylight Time),542293.5,008_y_m_n_a.png,O,z,470,11,1,1491.7000000029802,540801.799999997,7770,NNB,A,9
9,test,1,0.0,2-Back,1.0,m,Wed Mar 11 2026 14:22:43 GMT-0500 (Central Daylight Time),544161.5,043_m_f_n_a.png,O,m,837,12,1,1861.5999999940395,542299.900000006,7770,NNB,A,10
10,test,1,0.0,2-Back,1.0,m,Wed Mar 11 2026 14:22:43 GMT-0500 (Central Daylight Time),546443.099999994,043_m_f_n_a.png,O,m,1262,13,1,2274.7999999970198,544168.299999997,7770,NNB,A,11
11,test,1,0.0,2-Back,1.0,m,Wed Mar 11 2026 14:22:43 GMT-0500 (Central Daylight Time),548724.400000006,046_o_m_n_a.png,O,m,1254,14,1,2275.0,546449.400000006,7770,NNB,A,12
12,test,1,0.0,2-Back,1.0,m,Wed Mar 11 2026 14:22:43 GMT-0500 (Central Daylight Time),551025.799999997,044_o_f_n_a.png,O,m,1284,15,1,2295.2999999970198,548730.5,7770,NNB,A,13
13,test,1,1.0,2-Back,1.0,z,Wed Mar 11 2026 14:22:43 GMT-0500 (Central Daylight Time),552874.900000006,046_o_m_n_a.png,O,z,818,16,1,1843.5,551031.400000006,7770,NNB,A,14
14,test,1,0.0,2-Back,1.0,m,Wed Mar 11 2026 14:22:43 GMT-0500 (Central Daylight Time),554923.099999994,050_m_f_n_a.png,O,m,1024,17,1,2041.3999999910593,552881.700000003,7770,NNB,A,15
15,test,1,0.0,2-Back,1.0,m,Wed Mar 11 2026 14:22:43 GMT-0500 (Central Daylight Time),556822.5,045_m_m_n_a.png,O,m,878,18,1,1893.5999999940395,554928.900000006,7770,NNB,A,16
0,test,2,0.0,2-Back,,,Wed Mar 11 2026 14:22:43 GMT-0500 (Central Daylight Time),556822.5,045_m_m_n_a.png,O,space,1707,1,1,1893.5999999940395,554928.900000006,7770,NNB,A,0
0,test,2,0.0,2-Back,,,Wed Mar 11 2026 14:22:43 GMT-0500 (Central Daylight Time),556822.5,010_y_f_n_a.png,O,space,1707,2,1,1893.5999999940395,554928.900000006,7770,NNB,A,0
1,test,2,1.0,2-Back,1.0,z,Wed Mar 11 2026 14:22:43 GMT-0500 (Central Daylight Time),565186.700000003,045_m_m_n_a.png,O,z,522,3,1,1543.7000000029802,563643.0,7770,NNB,A,1
2,test,2,0.0,2-Back,1.0,m,Wed Mar 11 2026 14:22:43 GMT-0500 (Central Daylight Time),566937.799999997,050_m_f_n_a.png,O,m,736,4,1,1745.3999999910593,565192.400000006,7770,NNB,A,2
2,test,2,0.0,2-Back,0.0,m,Wed Mar 11 2026 14:22:43 GMT-0500 (Central Daylight Time),568818.5,010_y_f_n_a.png,O,z,855,5,1,1874.5,566944.0,7770,NNB,A,3
3,test,2,0.0,2-Back,1.0,m,Wed Mar 11 2026 14:22:43 GMT-0500 (Central Daylight Time),570768.5,046_o_m_n_a.png,O,m,926,6,1,1944.0999999940395,568824.400000006,7770,NNB,A,4
4,test,2,0.0,2-Back,1.0,m,Wed Mar 11 2026 14:22:43 GMT-0500 (Central Daylight Time),572785.5,063_y_f_n_a.png,O,m,992,7,1,2011.0999999940395,570774.400000006,7770,NNB,A,5
5,test,2,1.0,2-Back,1.0,z,Wed Mar 11 2026 14:22:43 GMT-0500 (Central Daylight Time),574566.400000006,046_o_m_n_a.png,O,z,762,8,1,1775.300000011921,572791.099999994,7770,NNB,A,6
6,test,2,0.0,2-Back,1.0,m,Wed Mar 11 2026 14:22:43 GMT-0500 (Central Daylight Time),576816.400000006,008_y_m_n_a.png,O,m,1218,9,1,2243.0,574573.400000006,7770,NNB,A,7
7,test,2,0.0,2-Back,1.0,m,Wed Mar 11 2026 14:22:43 GMT-0500 (Central Daylight Time),579398.200000003,008_y_m_n_a.png,O,m,1561,10,1,2575.4000000059605,576822.799999997,7770,NNB,A,8
8,test,2,0.0,2-Back,1.0,m,Wed Mar 11 2026 14:22:43 GMT-0500 (Central Daylight Time),581380.900000006,043_m_f_n_a.png,O,m,962,11,1,1976.7000000029802,579404.200000003,7770,NNB,A,9
9,test,2,0.0,2-Back,1.0,m,Wed Mar 11 2026 14:22:43 GMT-0500 (Central Daylight Time),583931.0,010_y_f_n_a.png,O,m,1517,12,1,2544.5,581386.5,7770,NNB,A,10
10,test,2,1.0,2-Back,1.0,z,Wed Mar 11 2026 14:22:43 GMT-0500 (Central Daylight Time),585979.200000003,043_m_f_n_a.png,O,z,1032,13,1,2041.7000000029802,583937.5,7770,NNB,A,11
11,test,2,0.0,2-Back,1.0,m,Wed Mar 11 2026 14:22:43 GMT-0500 (Central Daylight Time),587844.700000003,053_o_m_n_a.png,O,m,835,14,1,1858.7999999970198,585985.900000006,7770,NNB,A,12
12,test,2,0.0,2-Back,1.0,m,Wed Mar 11 2026 14:22:43 GMT-0500 (Central Daylight Time),589746.599999994,053_o_m_n_a.png,O,m,884,15,1,1896.8999999910593,587849.700000003,7770,NNB,A,13
13,test,2,0.0,2-Back,1.0,m,Wed Mar 11 2026 14:22:43 GMT-0500 (Central Daylight Time),591661.200000003,044_o_f_n_a.png,O,m,895,16,1,1909.5,589751.700000003,7770,NNB,A,14
14,test,2,0.0,2-Back,1.0,m,Wed Mar 11 2026 14:22:43 GMT-0500 (Central Daylight Time),593544.099999994,058_m_m_n_a.png,O,m,850,17,1,1876.699999988079,591667.400000006,7770,NNB,A,15
14,test,2,1.0,2-Back,0.0,z,Wed Mar 11 2026 14:22:43 GMT-0500 (Central Daylight Time),596226.0,044_o_f_n_a.png,O,m,1665,18,1,2675.0,593551.0,7770,NNB,A,16
0,test,3,1.0,2-Back,,,Wed Mar 11 2026 14:22:43 GMT-0500 (Central Daylight Time),596226.0,041_y_m_n_a.png,O,space,1238,1,1,2675.0,593551.0,7770,NNB,A,0
0,test,3,1.0,2-Back,,,Wed Mar 11 2026 14:22:43 GMT-0500 (Central Daylight Time),596226.0,041_y_m_n_a.png,O,space,1238,2,1,2675.0,593551.0,7770,NNB,A,0
1,test,3,0.0,2-Back,1.0,m,Wed Mar 11 2026 14:22:43 GMT-0500 (Central Daylight Time),604241.900000006,044_o_f_n_a.png,O,m,669,3,1,1694.6000000089407,602547.299999997,7770,NNB,A,1
2,test,3,0.0,2-Back,1.0,m,Wed Mar 11 2026 14:22:43 GMT-0500 (Central Daylight Time),605957.599999994,045_m_m_n_a.png,O,m,695,4,1,1707.0999999940395,604250.5,7770,NNB,A,2
3,test,3,1.0,2-Back,1.0,z,Wed Mar 11 2026 14:22:43 GMT-0500 (Central Daylight Time),607556.099999994,044_o_f_n_a.png,O,z,582,5,1,1593.2999999970198,605962.799999997,7770,NNB,A,3
4,test,3,0.0,2-Back,1.0,m,Wed Mar 11 2026 14:22:43 GMT-0500 (Central Daylight Time),609406.700000003,008_y_m_n_a.png,O,m,832,6,1,1843.2999999970198,607563.400000006,7770,NNB,A,4
4,test,3,0.0,2-Back,0.0,m,Wed Mar 11 2026 14:22:43 GMT-0500 (Central Daylight Time),611673.099999994,045_m_m_n_a.png,O,z,1237,7,1,2259.3999999910593,609413.700000003,7770,NNB,A,5
5,test,3,1.0,2-Back,1.0,z,Wed Mar 11 2026 14:22:43 GMT-0500 (Central Daylight Time),614053.700000003,008_y_m_n_a.png,O,z,1347,8,1,2373.7000000029802,611680.0,7770,NNB,A,6
6,test,3,0.0,2-Back,1.0,m,Wed Mar 11 2026 14:22:43 GMT-0500 (Central Daylight Time),615802.599999994,010_y_f_n_a.png,O,m,732,9,1,1741.5999999940395,614061.0,7770,NNB,A,7
7,test,3,0.0,2-Back,1.0,m,Wed Mar 11 2026 14:22:43 GMT-0500 (Central Daylight Time),617753.299999997,058_m_m_n_a.png,O,m,926,10,1,1946.0,615807.299999997,7770,NNB,A,8
8,test,3,1.0,2-Back,1.0,z,Wed Mar 11 2026 14:22:43 GMT-0500 (Central Daylight Time),619536.5,010_y_f_n_a.png,O,z,753,11,1,1777.7000000029802,617758.799999997,7770,NNB,A,9
9,test,3,1.0,2-Back,1.0,z,Wed Mar 11 2026 14:22:43 GMT-0500 (Central Daylight Time),621417.799999997,058_m_m_n_a.png,O,z,858,12,1,1873.5999999940395,619544.200000003,7770,NNB,A,10
10,test,3,0.0,2-Back,1.0,m,Wed Mar 11 2026 14:22:43 GMT-0500 (Central Daylight Time),623134.400000006,044_o_f_n_a.png,O,m,695,13,1,1710.300000011921,621424.099999994,7770,NNB,A,11
11,test,3,0.0,2-Back,1.0,m,Wed Mar 11 2026 14:22:43 GMT-0500 (Central Daylight Time),625066.900000006,050_m_f_n_a.png,O,m,916,14,1,1927.4000000059605,623139.5,7770,NNB,A,12
12,test,3,0.0,2-Back,1.0,m,Wed Mar 11 2026 14:22:43 GMT-0500 (Central Daylight Time),626816.299999997,046_o_m_n_a.png,O,m,725,15,1,1744.8999999910593,625071.400000006,7770,NNB,A,13
13,test,3,1.0,2-Back,1.0,z,Wed Mar 11 2026 14:22:43 GMT-0500 (Central Daylight Time),628765.599999994,050_m_f_n_a.png,O,z,921,16,1,1944.7999999970198,626820.799999997,7770,NNB,A,14
14,test,3,0.0,2-Back,1.0,m,Wed Mar 11 2026 14:22:43 GMT-0500 (Central Daylight Time),631014.799999997,047_o_f_n_a.png,O,m,1228,17,1,2239.5999999940395,628775.200000003,7770,NNB,A,15
15,test,3,0.0,2-Back,1.0,m,Wed Mar 11 2026 14:22:43 GMT-0500 (Central Daylight Time),633481.099999994,047_o_f_n_a.png,O,m,1434,18,1,2463.0999999940395,631018.0,7770,NNB,A,16
0,test,4,0.0,2-Back,,,Wed Mar 11 2026 14:22:43 GMT-0500 (Central Daylight Time),633481.099999994,053_o_m_n_a.png,O,space,1560,1,1,2463.0999999940395,631018.0,7770,NNB,A,0
0,test,4,0.0,2-Back,,,Wed Mar 11 2026 14:22:43 GMT-0500 (Central Daylight Time),633481.099999994,063_y_f_n_a.png,O,space,1560,2,1,2463.0999999940395,631018.0,7770,NNB,A,0
1,test,4,1.0,2-Back,1.0,z,Wed Mar 11 2026 14:22:43 GMT-0500 (Central Daylight Time),641693.799999997,053_o_m_n_a.png,O,z,543,3,1,1558.5,640135.299999997,7770,NNB,A,1
2,test,4,1.0,2-Back,1.0,z,Wed Mar 11 2026 14:22:43 GMT-0500 (Central Daylight Time),643477.5,063_y_f_n_a.png,O,z,763,4,1,1778.0999999940395,641699.400000006,7770,NNB,A,2
3,test,4,0.0,2-Back,1.0,m,Wed Mar 11 2026 14:22:43 GMT-0500 (Central Daylight Time),645393.700000003,044_o_f_n_a.png,O,m,883,5,1,1908.6000000089407,643485.099999994,7770,NNB,A,3
4,test,4,0.0,2-Back,1.0,m,Wed Mar 11 2026 14:22:43 GMT-0500 (Central Daylight Time),647560.5,044_o_f_n_a.png,O,m,1143,6,1,2158.7000000029802,645401.799999997,7770,NNB,A,4
5,test,4,0.0,2-Back,1.0,m,Wed Mar 11 2026 14:22:43 GMT-0500 (Central Daylight Time),650410.0,043_m_f_n_a.png,O,m,1816,7,1,2842.9000000059605,647567.099999994,7770,NNB,A,5
6,test,4,0.0,2-Back,1.0,m,Wed Mar 11 2026 14:22:43 GMT-0500 (Central Daylight Time),652358.0,008_y_m_n_a.png,O,m,929,8,1,1942.5,650415.5,7770,NNB,A,6
7,test,4,1.0,2-Back,1.0,z,Wed Mar 11 2026 14:22:43 GMT-0500 (Central Daylight Time),654209.400000006,043_m_f_n_a.png,O,z,828,9,1,1845.800000011921,652363.599999994,7770,NNB,A,7
8,test,4,0.0,2-Back,1.0,m,Wed Mar 11 2026 14:22:43 GMT-0500 (Central Daylight Time),656058.599999994,058_m_m_n_a.png,O,m,832,10,1,1844.0,654214.599999994,7770,NNB,A,8
9,test,4,0.0,2-Back,1.0,m,Wed Mar 11 2026 14:22:43 GMT-0500 (Central Daylight Time),658173.200000003,008_y_m_n_a.png,O,m,1095,11,1,2106.7000000029802,656066.5,7770,NNB,A,9
10,test,4,0.0,2-Back,1.0,m,Wed Mar 11 2026 14:22:43 GMT-0500 (Central Daylight Time),660355.299999997,047_o_f_n_a.png,O,m,1155,12,1,2174.7000000029802,658180.599999994,7770,NNB,A,10
11,test,4,0.0,2-Back,1.0,m,Wed Mar 11 2026 14:22:43 GMT-0500 (Central Daylight Time),662239.099999994,041_y_m_n_a.png,O,m,852,13,1,1877.5,660361.599999994,7770,NNB,A,11
12,test,4,1.0,2-Back,1.0,z,Wed Mar 11 2026 14:22:43 GMT-0500 (Central Daylight Time),664187.900000006,047_o_f_n_a.png,O,z,923,14,1,1940.4000000059605,662247.5,7770,NNB,A,12
13,test,4,1.0,2-Back,1.0,z,Wed Mar 11 2026 14:22:43 GMT-0500 (Central Daylight Time),666453.799999997,041_y_m_n_a.png,O,z,1239,15,1,2259.7000000029802,664194.099999994,7770,NNB,A,13
14,test,4,0.0,2-Back,1.0,m,Wed Mar 11 2026 14:22:43 GMT-0500 (Central Daylight Time),668153.400000006,045_m_m_n_a.png,O,m,675,16,1,1694.4000000059605,666459.0,7770,NNB,A,14
15,test,4,0.0,2-Back,1.0,m,Wed Mar 11 2026 14:22:43 GMT-0500 (Central Daylight Time),669986.299999997,050_m_f_n_a.png,O,m,816,17,1,1826.8999999910593,668159.400000006,7770,NNB,A,15
16,test,4,1.0,2-Back,1.0,z,Wed Mar 11 2026 14:22:43 GMT-0500 (Central Daylight Time),671635.299999997,045_m_m_n_a.png,O,z,630,18,1,1644.0,669991.299999997,7770,NNB,A,16
0,test,5,1.0,2-Back,,,Wed Mar 11 2026 14:22:43 GMT-0500 (Central Daylight Time),671635.299999997,041_y_m_n_a.png,O,space,1462,1,1,1644.0,669991.299999997,7770,NNB,A,0
0,test,5,1.0,2-Back,,,Wed Mar 11 2026 14:22:43 GMT-0500 (Central Daylight Time),671635.299999997,050_m_f_n_a.png,O,space,1462,2,1,1644.0,669991.299999997,7770,NNB,A,0
1,test,5,1.0,2-Back,1.0,z,Wed Mar 11 2026 14:22:43 GMT-0500 (Central Daylight Time),679965.599999994,041_y_m_n_a.png,O,z,794,3,1,1807.199999988079,678158.400000006,7770,NNB,A,1
2,test,5,1.0,2-Back,1.0,z,Wed Mar 11 2026 14:22:43 GMT-0500 (Central Daylight Time),681716.400000006,050_m_f_n_a.png,O,z,733,4,1,1745.4000000059605,679971.0,7770,NNB,A,2
3,test,5,0.0,2-Back,1.0,m,Wed Mar 11 2026 14:22:43 GMT-0500 (Central Daylight Time),683715.299999997,047_o_f_n_a.png,O,m,973,5,1,1991.2000000029802,681724.099999994,7770,NNB,A,3
4,test,5,0.0,2-Back,1.0,m,Wed Mar 11 2026 14:22:43 GMT-0500 (Central Daylight Time),685681.400000006,041_y_m_n_a.png,O,m,941,6,1,1959.0,683722.400000006,7770,NNB,A,4
5,test,5,0.0,2-Back,1.0,m,Wed Mar 11 2026 14:22:43 GMT-0500 (Central Daylight Time),687447.0,010_y_f_n_a.png,O,m,743,7,1,1759.0999999940395,685687.900000006,7770,NNB,A,5
6,test,5,0.0,2-Back,1.0,m,Wed Mar 11 2026 14:22:43 GMT-0500 (Central Daylight Time),690147.5,047_o_f_n_a.png,O,m,1682,8,1,2693.2999999970198,687454.200000003,7770,NNB,A,6
6,test,5,1.0,2-Back,0.0,z,Wed Mar 11 2026 14:22:43 GMT-0500 (Central Daylight Time),692760.900000006,010_y_f_n_a.png,O,m,1598,9,1,2608.5,690152.400000006,7770,NNB,A,7
7,test,5,0.0,2-Back,1.0,m,Wed Mar 11 2026 14:22:43 GMT-0500 (Central Daylight Time),694528.0,046_o_m_n_a.png,O,m,741,10,1,1763.9000000059605,692764.099999994,7770,NNB,A,8
8,test,5,0.0,2-Back,1.0,m,Wed Mar 11 2026 14:22:43 GMT-0500 (Central Daylight Time),696378.799999997,043_m_f_n_a.png,O,m,833,11,1,1845.0999999940395,694533.700000003,7770,NNB,A,9
9,test,5,0.0,2-Back,1.0,m,Wed Mar 11 2026 14:22:43 GMT-0500 (Central Daylight Time),698461.0,058_m_m_n_a.png,O,m,1050,12,1,2074.0999999940395,696386.900000006,7770,NNB,A,10
10,test,5,0.0,2-Back,1.0,m,Wed Mar 11 2026 14:22:43 GMT-0500 (Central Daylight Time),700909.599999994,046_o_m_n_a.png,O,m,1421,13,1,2441.2999999970198,698468.299999997,7770,NNB,A,11
11,test,5,1.0,2-Back,1.0,z,Wed Mar 11 2026 14:22:43 GMT-0500 (Central Daylight Time),702710.700000003,058_m_m_n_a.png,O,z,780,14,1,1793.9000000059605,700916.799999997,7770,NNB,A,12
12,test,5,0.0,2-Back,1.0,m,Wed Mar 11 2026 14:22:43 GMT-0500 (Central Daylight Time),704643.599999994,063_y_f_n_a.png,O,m,917,15,1,1927.0999999940395,702716.5,7770,NNB,A,13
13,test,5,0.0,2-Back,1.0,m,Wed Mar 11 2026 14:22:43 GMT-0500 (Central Daylight Time),706492.599999994,053_o_m_n_a.png,O,m,833,16,1,1845.0,704647.599999994,7770,NNB,A,14
14,test,5,0.0,2-Back,1.0,m,Wed Mar 11 2026 14:22:43 GMT-0500 (Central Daylight Time),708373.700000003,043_m_f_n_a.png,O,m,861,17,1,1875.5,706498.200000003,7770,NNB,A,15
14,test,5,1.0,2-Back,0.0,z,Wed Mar 11 2026 14:22:43 GMT-0500 (Central Daylight Time),711275.099999994,053_o_m_n_a.png,O,m,1868,18,1,2895.3999999910593,708379.700000003,7770,NNB,A,16
