acc_sum,block,block_c,change,condition,correct,correct_response,datetime,endtime,face,project,response,response_time,row_sel,session_number,start_end,starttime,subject_id,task,task_vers,trial
0,prac,1,,1-Back,,,Tue Aug 06 2024 09:28:42 GMT-0500 (Central Daylight Time),,093_m_f_n_a.png,O,space,9680,1,1,,,7014,NNB,C,0
1,prac,1,0.0,1-Back,1,m,Tue Aug 06 2024 09:28:42 GMT-0500 (Central Daylight Time),255778.20000000298,098_y_f_n_a.png,O,m,946,2,1,1806.8000000044703,253971.3999999985,7014,NNB,C,1
2,prac,1,1.0,1-Back,1,z,Tue Aug 06 2024 09:28:42 GMT-0500 (Central Daylight Time),257727.5,098_y_f_n_a.png,O,z,1170,3,1,1944.5,255783.0,7014,NNB,C,2
3,prac,1,0.0,1-Back,1,m,Tue Aug 06 2024 09:28:42 GMT-0500 (Central Daylight Time),259593.3999999985,059_o_m_n_a.png,O,m,985,4,1,1860.8999999985099,257732.5,7014,NNB,C,3
3,prac,1,0.0,1-Back,0,m,Tue Aug 06 2024 09:28:42 GMT-0500 (Central Daylight Time),261442.8999999985,092_m_m_n_a.png,O,z,977,5,1,1844.1000000014901,259598.79999999702,7014,NNB,C,4
4,prac,1,1.0,1-Back,1,z,Tue Aug 06 2024 09:28:42 GMT-0500 (Central Daylight Time),264158.700000003,092_m_m_n_a.png,O,z,1807,6,1,2708.60000000149,261450.1000000015,7014,NNB,C,5
5,prac,1,0.0,1-Back,1,m,Tue Aug 06 2024 09:28:42 GMT-0500 (Central Daylight Time),265958.200000003,130_o_f_n_a.png,O,m,904,7,1,1794.6000000014901,264163.6000000015,7014,NNB,C,6
5,prac,1,0.0,1-Back,0,m,Tue Aug 06 2024 09:28:42 GMT-0500 (Central Daylight Time),267674.3999999985,082_m_m_n_a.png,O,z,841,8,1,1711.2999999970198,265963.1000000015,7014,NNB,C,7
6,prac,1,0.0,1-Back,1,m,Tue Aug 06 2024 09:28:42 GMT-0500 (Central Daylight Time),270123.700000003,093_m_f_n_a.png,O,m,1666,9,1,2444.4000000059605,267679.299999997,7014,NNB,C,8
7,prac,1,1.0,1-Back,1,z,Tue Aug 06 2024 09:28:42 GMT-0500 (Central Daylight Time),271989.700000003,093_m_f_n_a.png,O,z,1080,10,1,1860.6000000014901,270129.1000000015,7014,NNB,C,9
8,prac,1,0.0,1-Back,1,m,Tue Aug 06 2024 09:28:42 GMT-0500 (Central Daylight Time),273655.6000000015,059_o_m_n_a.png,O,m,886,11,1,1660.5,271995.1000000015,7014,NNB,C,10
9,prac,1,0.0,1-Back,1,m,Tue Aug 06 2024 09:28:42 GMT-0500 (Central Daylight Time),275571.700000003,028_y_f_n_a.png,O,m,1036,12,1,1911.1000000014901,273660.6000000015,7014,NNB,C,11
0,test,1,0.0,1-Back,,,Tue Aug 06 2024 09:28:42 GMT-0500 (Central Daylight Time),275571.700000003,098_y_f_n_a.png,O,space,13130,1,1,1911.1000000014901,273660.6000000015,7014,NNB,C,0
1,test,1,0.0,1-Back,1,m,Tue Aug 06 2024 09:28:42 GMT-0500 (Central Daylight Time),300813.700000003,006_m_f_n_a.png,O,m,812,2,1,1828.5,298985.200000003,7014,NNB,C,1
2,test,1,0.0,1-Back,1,m,Tue Aug 06 2024 09:28:42 GMT-0500 (Central Daylight Time),302713.299999997,028_y_f_n_a.png,O,m,874,3,1,1895.7999999970198,300817.5,7014,NNB,C,2
3,test,1,1.0,1-Back,1,z,Tue Aug 06 2024 09:28:42 GMT-0500 (Central Daylight Time),304462.8999999985,028_y_f_n_a.png,O,z,728,4,1,1746.1999999955297,302716.700000003,7014,NNB,C,3
4,test,1,0.0,1-Back,1,m,Tue Aug 06 2024 09:28:42 GMT-0500 (Central Daylight Time),306095.700000003,006_m_f_n_a.png,O,m,611,5,1,1629.4000000059605,304466.299999997,7014,NNB,C,4
5,test,1,0.0,1-Back,1,m,Tue Aug 06 2024 09:28:42 GMT-0500 (Central Daylight Time),307828.200000003,059_o_m_n_a.png,O,m,714,6,1,1728.5,306099.700000003,7014,NNB,C,5
6,test,1,1.0,1-Back,1,z,Tue Aug 06 2024 09:28:42 GMT-0500 (Central Daylight Time),309777.799999997,059_o_m_n_a.png,O,z,916,7,1,1946.7999999970198,307831.0,7014,NNB,C,6
7,test,1,0.0,1-Back,1,m,Tue Aug 06 2024 09:28:42 GMT-0500 (Central Daylight Time),311960.299999997,092_m_m_n_a.png,O,m,1151,8,1,2178.6999999955297,309781.6000000015,7014,NNB,C,7
7,test,1,0.0,1-Back,0,m,Tue Aug 06 2024 09:28:42 GMT-0500 (Central Daylight Time),314009.5,130_o_f_n_a.png,O,z,1017,9,1,2045.0,311964.5,7014,NNB,C,8
8,test,1,0.0,1-Back,1,m,Tue Aug 06 2024 09:28:42 GMT-0500 (Central Daylight Time),316059.0,092_m_m_n_a.png,O,m,1032,10,1,2045.7000000029802,314013.299999997,7014,NNB,C,9
9,test,1,0.0,1-Back,1,m,Tue Aug 06 2024 09:28:42 GMT-0500 (Central Daylight Time),318108.5,057_y_m_n_a.png,O,m,1030,11,1,2046.3999999985099,316062.1000000015,7014,NNB,C,10
10,test,1,1.0,1-Back,1,z,Tue Aug 06 2024 09:28:42 GMT-0500 (Central Daylight Time),319924.5,057_y_m_n_a.png,O,z,797,12,1,1813.0,318111.5,7014,NNB,C,11
11,test,1,0.0,1-Back,1,m,Tue Aug 06 2024 09:28:42 GMT-0500 (Central Daylight Time),321907.299999997,030_o_f_n_a.png,O,m,964,13,1,1979.5999999940395,319927.700000003,7014,NNB,C,12
12,test,1,1.0,1-Back,1,z,Tue Aug 06 2024 09:28:42 GMT-0500 (Central Daylight Time),324006.700000003,030_o_f_n_a.png,O,z,1069,14,1,2096.3000000044703,321910.3999999985,7014,NNB,C,13
13,test,1,0.0,1-Back,1,m,Tue Aug 06 2024 09:28:42 GMT-0500 (Central Daylight Time),326222.5,031_y_m_n_a.png,O,m,1186,15,1,2212.89999999851,324009.6000000015,7014,NNB,C,14
14,test,1,0.0,1-Back,1,m,Tue Aug 06 2024 09:28:42 GMT-0500 (Central Daylight Time),328355.299999997,093_m_f_n_a.png,O,m,1115,16,1,2128.89999999851,326226.3999999985,7014,NNB,C,15
15,test,1,0.0,1-Back,1,m,Tue Aug 06 2024 09:28:42 GMT-0500 (Central Daylight Time),330321.3999999985,146_o_m_n_a.png,O,m,908,17,1,1962.5,328358.8999999985,7014,NNB,C,16
16,test,1,0.0,1-Back,1,m,Tue Aug 06 2024 09:28:42 GMT-0500 (Central Daylight Time),332587.299999997,093_m_f_n_a.png,O,m,1206,18,1,2262.0999999940395,330325.200000003,7014,NNB,C,17
0,test,2,0.0,1-Back,,,Tue Aug 06 2024 09:28:42 GMT-0500 (Central Daylight Time),332587.299999997,092_m_m_n_a.png,O,space,6781,1,1,2262.0999999940395,330325.200000003,7014,NNB,C,0
1,test,2,0.0,1-Back,1,m,Tue Aug 06 2024 09:28:42 GMT-0500 (Central Daylight Time),343167.299999997,006_m_f_n_a.png,O,m,736,2,1,1762.0999999940395,341405.200000003,7014,NNB,C,1
2,test,2,1.0,1-Back,1,z,Tue Aug 06 2024 09:28:42 GMT-0500 (Central Daylight Time),345016.8999999985,006_m_f_n_a.png,O,z,817,3,1,1846.1999999955297,343170.700000003,7014,NNB,C,2
3,test,2,0.0,1-Back,1,m,Tue Aug 06 2024 09:28:42 GMT-0500 (Central Daylight Time),346866.0,092_m_m_n_a.png,O,m,825,4,1,1845.0,345021.0,7014,NNB,C,3
4,test,2,0.0,1-Back,1,m,Tue Aug 06 2024 09:28:42 GMT-0500 (Central Daylight Time),348932.200000003,057_y_m_n_a.png,O,m,1038,5,1,2062.4000000059605,346869.799999997,7014,NNB,C,4
5,test,2,0.0,1-Back,1,m,Tue Aug 06 2024 09:28:42 GMT-0500 (Central Daylight Time),350681.6000000015,098_y_f_n_a.png,O,m,716,6,1,1745.7000000029802,348935.8999999985,7014,NNB,C,5
6,test,2,1.0,1-Back,1,z,Tue Aug 06 2024 09:28:42 GMT-0500 (Central Daylight Time),352847.299999997,098_y_f_n_a.png,O,z,1143,7,1,2161.7999999970198,350685.5,7014,NNB,C,6
7,test,2,0.0,1-Back,1,m,Tue Aug 06 2024 09:28:42 GMT-0500 (Central Daylight Time),354530.3999999985,057_y_m_n_a.png,O,m,657,8,1,1679.2999999970198,352851.1000000015,7014,NNB,C,7
8,test,2,0.0,1-Back,1,m,Tue Aug 06 2024 09:28:42 GMT-0500 (Central Daylight Time),356463.200000003,030_o_f_n_a.png,O,m,902,9,1,1929.2000000029802,354534.0,7014,NNB,C,8
9,test,2,0.0,1-Back,1,m,Tue Aug 06 2024 09:28:42 GMT-0500 (Central Daylight Time),358345.5,082_m_m_n_a.png,O,m,761,10,1,1878.7000000029802,356466.799999997,7014,NNB,C,9
10,test,2,1.0,1-Back,1,z,Tue Aug 06 2024 09:28:42 GMT-0500 (Central Daylight Time),360245.1000000015,082_m_m_n_a.png,O,z,879,11,1,1895.8000000044703,358349.299999997,7014,NNB,C,10
11,test,2,0.0,1-Back,1,m,Tue Aug 06 2024 09:28:42 GMT-0500 (Central Daylight Time),362161.5,030_o_f_n_a.png,O,m,883,12,1,1912.2999999970198,360249.200000003,7014,NNB,C,11
12,test,2,0.0,1-Back,1,m,Tue Aug 06 2024 09:28:42 GMT-0500 (Central Daylight Time),364094.0,130_o_f_n_a.png,O,m,911,13,1,1928.6000000014901,362165.3999999985,7014,NNB,C,12
13,test,2,0.0,1-Back,1,m,Tue Aug 06 2024 09:28:42 GMT-0500 (Central Daylight Time),366260.0,059_o_m_n_a.png,O,m,1139,14,1,2162.5,364097.5,7014,NNB,C,13
14,test,2,0.0,1-Back,1,m,Tue Aug 06 2024 09:28:42 GMT-0500 (Central Daylight Time),368209.5,146_o_m_n_a.png,O,m,925,15,1,1945.8999999985099,366263.6000000015,7014,NNB,C,14
15,test,2,1.0,1-Back,1,z,Tue Aug 06 2024 09:28:42 GMT-0500 (Central Daylight Time),370075.5,146_o_m_n_a.png,O,z,839,16,1,1862.3999999985099,368213.1000000015,7014,NNB,C,15
16,test,2,0.0,1-Back,1,m,Tue Aug 06 2024 09:28:42 GMT-0500 (Central Daylight Time),372041.5,031_y_m_n_a.png,O,m,934,17,1,1962.3999999985099,370079.1000000015,7014,NNB,C,16
17,test,2,1.0,1-Back,1,z,Tue Aug 06 2024 09:28:42 GMT-0500 (Central Daylight Time),373807.3999999985,031_y_m_n_a.png,O,z,702,18,1,1762.2999999970198,372045.1000000015,7014,NNB,C,17
0,test,3,1.0,1-Back,,,Tue Aug 06 2024 09:28:42 GMT-0500 (Central Daylight Time),373807.3999999985,028_y_f_n_a.png,O,space,1312,1,1,1762.2999999970198,372045.1000000015,7014,NNB,C,0
1,test,3,0.0,1-Back,1,m,Tue Aug 06 2024 09:28:42 GMT-0500 (Central Daylight Time),378989.299999997,146_o_m_n_a.png,O,m,730,1,1,1745.5,377243.799999997,7014,NNB,C,1
2,test,3,1.0,1-Back,1,z,Tue Aug 06 2024 09:28:42 GMT-0500 (Central Daylight Time),380919.6000000015,146_o_m_n_a.png,O,z,913,1,1,1926.7000000029802,378992.8999999985,7014,NNB,C,2
3,test,3,0.0,1-Back,1,m,Tue Aug 06 2024 09:28:42 GMT-0500 (Central Daylight Time),382688.1000000015,093_m_f_n_a.png,O,m,733,1,1,1764.8000000044703,380923.299999997,7014,NNB,C,3
4,test,3,1.0,1-Back,1,z,Tue Aug 06 2024 09:28:42 GMT-0500 (Central Daylight Time),384554.200000003,093_m_f_n_a.png,O,z,849,1,1,1862.3000000044703,382691.8999999985,7014,NNB,C,4
5,test,3,0.0,1-Back,1,m,Tue Aug 06 2024 09:28:42 GMT-0500 (Central Daylight Time),386353.6000000015,030_o_f_n_a.png,O,m,774,1,1,1795.6000000014901,384558.0,7014,NNB,C,5
6,test,3,0.0,1-Back,1,m,Tue Aug 06 2024 09:28:42 GMT-0500 (Central Daylight Time),388286.3999999985,057_y_m_n_a.png,O,m,911,1,1,1929.1000000014901,386357.299999997,7014,NNB,C,6
7,test,3,0.0,1-Back,1,m,Tue Aug 06 2024 09:28:42 GMT-0500 (Central Daylight Time),389919.0,030_o_f_n_a.png,O,m,603,1,1,1629.2000000029802,388289.799999997,7014,NNB,C,7
8,test,3,0.0,1-Back,1,m,Tue Aug 06 2024 09:28:42 GMT-0500 (Central Daylight Time),391585.3999999985,031_y_m_n_a.png,O,m,641,1,1,1662.5,389922.8999999985,7014,NNB,C,8
9,test,3,1.0,1-Back,1,z,Tue Aug 06 2024 09:28:42 GMT-0500 (Central Daylight Time),393401.3999999985,031_y_m_n_a.png,O,z,791,1,1,1812.3999999985099,391589.0,7014,NNB,C,9
10,test,3,0.0,1-Back,1,m,Tue Aug 06 2024 09:28:42 GMT-0500 (Central Daylight Time),395450.799999997,006_m_f_n_a.png,O,m,1024,1,1,2045.5999999940395,393405.200000003,7014,NNB,C,10
11,test,3,0.0,1-Back,1,m,Tue Aug 06 2024 09:28:42 GMT-0500 (Central Daylight Time),397566.700000003,098_y_f_n_a.png,O,m,1094,1,1,2112.3000000044703,395454.3999999985,7014,NNB,C,11
12,test,3,1.0,1-Back,1,z,Tue Aug 06 2024 09:28:42 GMT-0500 (Central Daylight Time),399449.700000003,098_y_f_n_a.png,O,z,866,1,1,1879.3000000044703,397570.3999999985,7014,NNB,C,12
13,test,3,0.0,1-Back,1,m,Tue Aug 06 2024 09:28:42 GMT-0500 (Central Daylight Time),401332.299999997,006_m_f_n_a.png,O,m,863,1,1,1878.6999999955297,399453.6000000015,7014,NNB,C,13
14,test,3,0.0,1-Back,1,m,Tue Aug 06 2024 09:28:42 GMT-0500 (Central Daylight Time),403248.3999999985,092_m_m_n_a.png,O,m,885,1,1,1912.6999999955297,401335.700000003,7014,NNB,C,14
15,test,3,1.0,1-Back,1,z,Tue Aug 06 2024 09:28:42 GMT-0500 (Central Daylight Time),405131.1000000015,092_m_m_n_a.png,O,z,823,1,1,1878.8999999985099,403252.200000003,7014,NNB,C,15
16,test,3,0.0,1-Back,1,m,Tue Aug 06 2024 09:28:42 GMT-0500 (Central Daylight Time),407130.1000000015,130_o_f_n_a.png,O,m,981,1,1,1995.1000000014901,405135.0,7014,NNB,C,16
17,test,3,1.0,1-Back,1,z,Tue Aug 06 2024 09:28:42 GMT-0500 (Central Daylight Time),409146.700000003,130_o_f_n_a.png,O,z,940,1,1,2012.5,407134.200000003,7014,NNB,C,17
0,test,4,1.0,1-Back,,,Tue Aug 06 2024 09:28:42 GMT-0500 (Central Daylight Time),409146.700000003,093_m_f_n_a.png,O,space,1374,1,1,2012.5,407134.200000003,7014,NNB,C,0
1,test,4,0.0,1-Back,1,m,Tue Aug 06 2024 09:28:42 GMT-0500 (Central Daylight Time),414428.1000000015,146_o_m_n_a.png,O,m,781,2,1,1793.1000000014901,412635.0,7014,NNB,C,1
2,test,4,0.0,1-Back,1,m,Tue Aug 06 2024 09:28:42 GMT-0500 (Central Daylight Time),416227.5,093_m_f_n_a.png,O,m,772,3,1,1796.3999999985099,414431.1000000015,7014,NNB,C,2
3,test,4,0.0,1-Back,1,m,Tue Aug 06 2024 09:28:42 GMT-0500 (Central Daylight Time),417844.6000000015,030_o_f_n_a.png,O,m,597,4,1,1613.5,416231.1000000015,7014,NNB,C,3
4,test,4,1.0,1-Back,1,z,Tue Aug 06 2024 09:28:42 GMT-0500 (Central Daylight Time),419593.3999999985,030_o_f_n_a.png,O,z,725,5,1,1744.8999999985099,417848.5,7014,NNB,C,4
5,test,4,0.0,1-Back,1,m,Tue Aug 06 2024 09:28:42 GMT-0500 (Central Daylight Time),421442.5,098_y_f_n_a.png,O,m,831,6,1,1845.7999999970198,419596.700000003,7014,NNB,C,5
6,test,4,0.0,1-Back,1,m,Tue Aug 06 2024 09:28:42 GMT-0500 (Central Daylight Time),423241.8999999985,057_y_m_n_a.png,O,m,782,7,1,1796.0,421445.8999999985,7014,NNB,C,6
7,test,4,1.0,1-Back,1,z,Tue Aug 06 2024 09:28:42 GMT-0500 (Central Daylight Time),425208.200000003,057_y_m_n_a.png,O,z,909,8,1,1962.9000000059605,423245.299999997,7014,NNB,C,7
8,test,4,0.0,1-Back,1,m,Tue Aug 06 2024 09:28:42 GMT-0500 (Central Daylight Time),427024.299999997,098_y_f_n_a.png,O,m,751,9,1,1812.8999999985099,425211.3999999985,7014,NNB,C,8
9,test,4,0.0,1-Back,1,m,Tue Aug 06 2024 09:28:42 GMT-0500 (Central Daylight Time),428990.3999999985,082_m_m_n_a.png,O,m,811,10,1,1962.2999999970198,427028.1000000015,7014,NNB,C,9
10,test,4,1.0,1-Back,1,z,Tue Aug 06 2024 09:28:42 GMT-0500 (Central Daylight Time),430806.5,082_m_m_n_a.png,O,z,787,11,1,1812.5,428994.0,7014,NNB,C,10
11,test,4,0.0,1-Back,1,m,Tue Aug 06 2024 09:28:42 GMT-0500 (Central Daylight Time),432905.5,130_o_f_n_a.png,O,m,1075,12,1,2095.39999999851,430810.1000000015,7014,NNB,C,11
12,test,4,0.0,1-Back,1,m,Tue Aug 06 2024 09:28:42 GMT-0500 (Central Daylight Time),434823.0,059_o_m_n_a.png,O,m,887,13,1,1914.0,432909.0,7014,NNB,C,12
13,test,4,0.0,1-Back,1,m,Tue Aug 06 2024 09:28:42 GMT-0500 (Central Daylight Time),437137.700000003,130_o_f_n_a.png,O,m,1265,14,1,2309.2000000029802,434828.5,7014,NNB,C,13
14,test,4,0.0,1-Back,1,m,Tue Aug 06 2024 09:28:42 GMT-0500 (Central Daylight Time),438837.1000000015,028_y_f_n_a.png,O,m,645,15,1,1696.0,437141.1000000015,7014,NNB,C,14
15,test,4,1.0,1-Back,1,z,Tue Aug 06 2024 09:28:42 GMT-0500 (Central Daylight Time),440703.200000003,028_y_f_n_a.png,O,z,802,16,1,1862.3000000044703,438840.8999999985,7014,NNB,C,15
16,test,4,0.0,1-Back,1,m,Tue Aug 06 2024 09:28:42 GMT-0500 (Central Daylight Time),442386.0,006_m_f_n_a.png,O,m,632,17,1,1679.7000000029802,440706.299999997,7014,NNB,C,16
17,test,4,1.0,1-Back,1,z,Tue Aug 06 2024 09:28:42 GMT-0500 (Central Daylight Time),444452.1000000015,006_m_f_n_a.png,O,z,989,18,1,2063.10000000149,442389.0,7014,NNB,C,17
0,test,5,1.0,1-Back,,,Tue Aug 06 2024 09:28:42 GMT-0500 (Central Daylight Time),444452.1000000015,059_o_m_n_a.png,O,space,1196,1,1,2063.10000000149,442389.0,7014,NNB,C,0
1,test,5,1.0,1-Back,1,z,Tue Aug 06 2024 09:28:42 GMT-0500 (Central Daylight Time),449483.799999997,059_o_m_n_a.png,O,z,789,2,1,1812.3999999985099,447671.3999999985,7014,NNB,C,1
2,test,5,0.0,1-Back,1,m,Tue Aug 06 2024 09:28:42 GMT-0500 (Central Daylight Time),451383.1000000015,098_y_f_n_a.png,O,m,877,3,1,1896.1000000014901,449487.0,7014,NNB,C,2
3,test,5,0.0,1-Back,1,m,Tue Aug 06 2024 09:28:42 GMT-0500 (Central Daylight Time),453099.299999997,057_y_m_n_a.png,O,m,697,4,1,1712.5999999940395,451386.700000003,7014,NNB,C,3
3,test,5,0.0,1-Back,0,m,Tue Aug 06 2024 09:28:42 GMT-0500 (Central Daylight Time),455465.299999997,098_y_f_n_a.png,O,z,1333,5,1,2362.6999999955297,453102.6000000015,7014,NNB,C,4
4,test,5,0.0,1-Back,1,m,Tue Aug 06 2024 09:28:42 GMT-0500 (Central Daylight Time),458281.200000003,092_m_m_n_a.png,O,m,1791,6,1,2812.8000000044703,455468.3999999985,7014,NNB,C,5
5,test,5,1.0,1-Back,1,z,Tue Aug 06 2024 09:28:42 GMT-0500 (Central Daylight Time),459913.8999999985,092_m_m_n_a.png,O,z,608,7,1,1629.0,458284.8999999985,7014,NNB,C,6
6,test,5,0.0,1-Back,1,m,Tue Aug 06 2024 09:28:42 GMT-0500 (Central Daylight Time),461546.5,028_y_f_n_a.png,O,m,614,8,1,1629.0,459917.5,7014,NNB,C,7
7,test,5,0.0,1-Back,1,m,Tue Aug 06 2024 09:28:42 GMT-0500 (Central Daylight Time),463279.5,031_y_m_n_a.png,O,m,703,9,1,1729.7000000029802,461549.799999997,7014,NNB,C,8
8,test,5,0.0,1-Back,1,m,Tue Aug 06 2024 09:28:42 GMT-0500 (Central Daylight Time),465028.799999997,028_y_f_n_a.png,O,m,729,10,1,1746.0,463282.799999997,7014,NNB,C,9
9,test,5,0.0,1-Back,1,m,Tue Aug 06 2024 09:28:42 GMT-0500 (Central Daylight Time),466678.3999999985,130_o_f_n_a.png,O,m,619,11,1,1645.7999999970198,465032.6000000015,7014,NNB,C,10
10,test,5,1.0,1-Back,1,z,Tue Aug 06 2024 09:28:42 GMT-0500 (Central Daylight Time),468428.0,130_o_f_n_a.png,O,z,722,12,1,1746.2000000029802,466681.799999997,7014,NNB,C,11
11,test,5,0.0,1-Back,1,m,Tue Aug 06 2024 09:28:42 GMT-0500 (Central Daylight Time),470177.200000003,146_o_m_n_a.png,O,m,716,13,1,1746.0,468431.200000003,7014,NNB,C,12
12,test,5,0.0,1-Back,1,m,Tue Aug 06 2024 09:28:42 GMT-0500 (Central Daylight Time),472143.299999997,093_m_f_n_a.png,O,m,936,14,1,1962.7999999970198,470180.5,7014,NNB,C,13
12,test,5,1.0,1-Back,0,z,Tue Aug 06 2024 09:28:42 GMT-0500 (Central Daylight Time),473826.299999997,093_m_f_n_a.png,O,m,650,15,1,1679.3999999985099,472146.8999999985,7014,NNB,C,14
13,test,5,0.0,1-Back,1,m,Tue Aug 06 2024 09:28:42 GMT-0500 (Central Daylight Time),475908.799999997,146_o_m_n_a.png,O,m,1062,16,1,2078.7999999970198,473830.0,7014,NNB,C,15
14,test,5,0.0,1-Back,1,m,Tue Aug 06 2024 09:28:42 GMT-0500 (Central Daylight Time),477891.6000000015,006_m_f_n_a.png,O,m,954,17,1,1979.5,475912.1000000015,7014,NNB,C,16
15,test,5,0.0,1-Back,1,m,Tue Aug 06 2024 09:28:42 GMT-0500 (Central Daylight Time),479724.5,082_m_m_n_a.png,O,m,814,18,1,1829.2000000029802,477895.299999997,7014,NNB,C,17
0,prac,1,0.0,2-Back,,,Tue Aug 06 2024 09:28:42 GMT-0500 (Central Daylight Time),479724.5,031_y_m_n_a.png,O,space,12964,1,1,1829.2000000029802,477895.299999997,7014,NNB,C,0
0,prac,1,0.0,2-Back,,,Tue Aug 06 2024 09:28:42 GMT-0500 (Central Daylight Time),479724.5,006_m_f_n_a.png,O,space,12964,2,1,1829.2000000029802,477895.299999997,7014,NNB,C,0
1,prac,1,1.0,2-Back,1,m,Tue Aug 06 2024 09:28:42 GMT-0500 (Central Daylight Time),619813.799999997,146_o_m_n_a.png,O,m,1241,3,1,2126.7999999970198,617687.0,7014,NNB,C,1
1,prac,1,0.0,2-Back,0,m,Tue Aug 06 2024 09:28:42 GMT-0500 (Central Daylight Time),622712.8999999985,130_o_f_n_a.png,O,None,2012,4,1,2894.39999999851,619818.5,7014,NNB,C,2
1,prac,1,0.0,2-Back,0,z,Tue Aug 06 2024 09:28:42 GMT-0500 (Central Daylight Time),623512.799999997,146_o_m_n_a.png,O,m,35,5,1,794.2999999970198,622718.5,7014,NNB,C,3
1,prac,1,1.0,2-Back,0,z,Tue Aug 06 2024 09:28:42 GMT-0500 (Central Daylight Time),626294.8999999985,130_o_f_n_a.png,O,None,2010,6,1,2776.6999999955297,623518.200000003,7014,NNB,C,4
2,prac,1,0.0,2-Back,1,m,Tue Aug 06 2024 09:28:42 GMT-0500 (Central Daylight Time),628860.8999999985,082_m_m_n_a.png,O,m,1683,7,1,2560.6999999955297,626300.200000003,7014,NNB,C,5
3,prac,1,0.0,2-Back,1,m,Tue Aug 06 2024 09:28:42 GMT-0500 (Central Daylight Time),630926.8999999985,059_o_m_n_a.png,O,m,1195,8,1,2061.0,628865.8999999985,7014,NNB,C,6
4,prac,1,0.0,2-Back,1,m,Tue Aug 06 2024 09:28:42 GMT-0500 (Central Daylight Time),632776.5,028_y_f_n_a.png,O,m,981,9,1,1844.0,630932.5,7014,NNB,C,7
5,prac,1,1.0,2-Back,1,z,Tue Aug 06 2024 09:28:42 GMT-0500 (Central Daylight Time),634592.3999999985,059_o_m_n_a.png,O,z,1028,10,1,1810.6999999955297,632781.700000003,7014,NNB,C,8
6,prac,1,0.0,2-Back,1,m,Tue Aug 06 2024 09:28:42 GMT-0500 (Central Daylight Time),636608.6000000015,098_y_f_n_a.png,O,m,1155,11,1,2011.3000000044703,634597.299999997,7014,NNB,C,9
6,prac,1,0.0,2-Back,0,m,Tue Aug 06 2024 09:28:42 GMT-0500 (Central Daylight Time),638407.8999999985,082_m_m_n_a.png,O,z,1021,12,1,1794.7999999970198,636613.1000000015,7014,NNB,C,10
0,test,1,0.0,2-Back,,,Tue Aug 06 2024 09:28:42 GMT-0500 (Central Daylight Time),638407.8999999985,057_y_m_n_a.png,O,space,11537,1,1,1794.7999999970198,636613.1000000015,7014,NNB,C,0
0,test,1,0.0,2-Back,,,Tue Aug 06 2024 09:28:42 GMT-0500 (Central Daylight Time),638407.8999999985,057_y_m_n_a.png,O,space,11537,2,1,1794.7999999970198,636613.1000000015,7014,NNB,C,0
1,test,1,0.0,2-Back,1,m,Tue Aug 06 2024 09:28:42 GMT-0500 (Central Daylight Time),668715.0,130_o_f_n_a.png,O,m,1089,3,1,2112.7999999970198,666602.200000003,7014,NNB,C,1
2,test,1,0.0,2-Back,1,m,Tue Aug 06 2024 09:28:42 GMT-0500 (Central Daylight Time),670531.299999997,092_m_m_n_a.png,O,m,790,4,1,1812.7999999970198,668718.5,7014,NNB,C,2
3,test,1,1.0,2-Back,1,z,Tue Aug 06 2024 09:28:42 GMT-0500 (Central Daylight Time),672313.8999999985,130_o_f_n_a.png,O,z,766,5,1,1779.1999999955297,670534.700000003,7014,NNB,C,3
4,test,1,0.0,2-Back,1,m,Tue Aug 06 2024 09:28:42 GMT-0500 (Central Daylight Time),674114.5,098_y_f_n_a.png,O,m,775,6,1,1796.8999999985099,672317.6000000015,7014,NNB,C,4
4,test,1,0.0,2-Back,0,m,Tue Aug 06 2024 09:28:42 GMT-0500 (Central Daylight Time),676129.3999999985,092_m_m_n_a.png,O,z,992,7,1,2011.2999999970198,674118.1000000015,7014,NNB,C,5
5,test,1,1.0,2-Back,1,z,Tue Aug 06 2024 09:28:42 GMT-0500 (Central Daylight Time),678861.799999997,098_y_f_n_a.png,O,z,1711,8,1,2728.7999999970198,676133.0,7014,NNB,C,6
6,test,1,0.0,2-Back,1,m,Tue Aug 06 2024 09:28:42 GMT-0500 (Central Daylight Time),680894.3999999985,031_y_m_n_a.png,O,m,1004,9,1,2029.6999999955297,678864.700000003,7014,NNB,C,7
7,test,1,0.0,2-Back,1,m,Tue Aug 06 2024 09:28:42 GMT-0500 (Central Daylight Time),682760.700000003,030_o_f_n_a.png,O,m,835,10,1,1862.9000000059605,680897.799999997,7014,NNB,C,8
7,test,1,1.0,2-Back,0,z,Tue Aug 06 2024 09:28:42 GMT-0500 (Central Daylight Time),684943.200000003,031_y_m_n_a.png,O,m,1160,11,1,2179.2000000029802,682764.0,7014,NNB,C,9
8,test,1,0.0,2-Back,1,m,Tue Aug 06 2024 09:28:42 GMT-0500 (Central Daylight Time),687192.700000003,006_m_f_n_a.png,O,m,1218,12,1,2246.2000000029802,684946.5,7014,NNB,C,10
9,test,1,0.0,2-Back,1,m,Tue Aug 06 2024 09:28:42 GMT-0500 (Central Daylight Time),690108.200000003,006_m_f_n_a.png,O,m,1897,13,1,2911.7000000029802,687196.5,7014,NNB,C,11
10,test,1,0.0,2-Back,1,m,Tue Aug 06 2024 09:28:42 GMT-0500 (Central Daylight Time),692074.700000003,146_o_m_n_a.png,O,m,941,14,1,1962.7000000029802,690112.0,7014,NNB,C,12
11,test,1,0.0,2-Back,1,m,Tue Aug 06 2024 09:28:42 GMT-0500 (Central Daylight Time),693857.299999997,030_o_f_n_a.png,O,m,751,15,1,1779.0999999940395,692078.200000003,7014,NNB,C,13
11,test,1,1.0,2-Back,0,z,Tue Aug 06 2024 09:28:42 GMT-0500 (Central Daylight Time),695639.799999997,146_o_m_n_a.png,O,m,752,16,1,1779.3999999985099,693860.3999999985,7014,NNB,C,14
12,test,1,0.0,2-Back,1,m,Tue Aug 06 2024 09:28:42 GMT-0500 (Central Daylight Time),698539.0,093_m_f_n_a.png,O,m,1873,17,1,2895.60000000149,695643.3999999985,7014,NNB,C,15
13,test,1,0.0,2-Back,1,m,Tue Aug 06 2024 09:28:42 GMT-0500 (Central Daylight Time),700438.3999999985,082_m_m_n_a.png,O,m,870,18,1,1895.7999999970198,698542.6000000015,7014,NNB,C,16
0,test,2,0.0,2-Back,,,Tue Aug 06 2024 09:28:42 GMT-0500 (Central Daylight Time),700438.3999999985,082_m_m_n_a.png,O,space,1147,1,1,1895.7999999970198,698542.6000000015,7014,NNB,C,0
0,test,2,0.0,2-Back,,,Tue Aug 06 2024 09:28:42 GMT-0500 (Central Daylight Time),700438.3999999985,028_y_f_n_a.png,O,space,1147,2,1,1895.7999999970198,698542.6000000015,7014,NNB,C,0
1,test,2,1.0,2-Back,1,z,Tue Aug 06 2024 09:28:42 GMT-0500 (Central Daylight Time),708918.799999997,082_m_m_n_a.png,O,z,1177,3,1,2195.2999999970198,706723.5,7014,NNB,C,1
2,test,2,0.0,2-Back,1,m,Tue Aug 06 2024 09:28:42 GMT-0500 (Central Daylight Time),710918.3999999985,093_m_f_n_a.png,O,m,970,4,1,1996.2999999970198,708922.1000000015,7014,NNB,C,2
2,test,2,0.0,2-Back,0,m,Tue Aug 06 2024 09:28:42 GMT-0500 (Central Daylight Time),713951.200000003,028_y_f_n_a.png,O,None,2016,5,1,3029.3000000044703,710921.8999999985,7014,NNB,C,3
3,test,2,0.0,2-Back,1,m,Tue Aug 06 2024 09:28:42 GMT-0500 (Central Daylight Time),716366.5,146_o_m_n_a.png,O,m,1385,6,1,2411.89999999851,713954.6000000015,7014,NNB,C,4
4,test,2,0.0,2-Back,1,m,Tue Aug 06 2024 09:28:42 GMT-0500 (Central Daylight Time),719198.8999999985,098_y_f_n_a.png,O,m,1803,7,1,2828.89999999851,716370.0,7014,NNB,C,5
5,test,2,1.0,2-Back,1,z,Tue Aug 06 2024 09:28:42 GMT-0500 (Central Daylight Time),720965.200000003,146_o_m_n_a.png,O,z,746,8,1,1762.8000000044703,719202.3999999985,7014,NNB,C,6
6,test,2,0.0,2-Back,1,m,Tue Aug 06 2024 09:28:42 GMT-0500 (Central Daylight Time),722931.299999997,031_y_m_n_a.png,O,m,948,9,1,1962.5999999940395,720968.700000003,7014,NNB,C,7
7,test,2,0.0,2-Back,1,m,Tue Aug 06 2024 09:28:42 GMT-0500 (Central Daylight Time),725363.8999999985,031_y_m_n_a.png,O,m,1414,10,1,2429.2999999970198,722934.6000000015,7014,NNB,C,8
8,test,2,0.0,2-Back,1,m,Tue Aug 06 2024 09:28:42 GMT-0500 (Central Daylight Time),727413.3999999985,006_m_f_n_a.png,O,m,1021,11,1,2045.7999999970198,725367.6000000015,7014,NNB,C,9
9,test,2,0.0,2-Back,1,m,Tue Aug 06 2024 09:28:42 GMT-0500 (Central Daylight Time),729545.8999999985,028_y_f_n_a.png,O,m,1108,12,1,2128.7999999970198,727417.1000000015,7014,NNB,C,10
10,test,2,1.0,2-Back,1,z,Tue Aug 06 2024 09:28:42 GMT-0500 (Central Daylight Time),731645.299999997,006_m_f_n_a.png,O,z,1079,13,1,2095.6999999955297,729549.6000000015,7014,NNB,C,11
11,test,2,0.0,2-Back,1,m,Tue Aug 06 2024 09:28:42 GMT-0500 (Central Daylight Time),733544.5,059_o_m_n_a.png,O,m,868,14,1,1896.2000000029802,731648.299999997,7014,NNB,C,12
12,test,2,0.0,2-Back,1,m,Tue Aug 06 2024 09:28:42 GMT-0500 (Central Daylight Time),735644.1000000015,059_o_m_n_a.png,O,m,1081,15,1,2096.3000000044703,733547.799999997,7014,NNB,C,13
13,test,2,0.0,2-Back,1,m,Tue Aug 06 2024 09:28:42 GMT-0500 (Central Daylight Time),737893.299999997,030_o_f_n_a.png,O,m,1220,16,1,2246.1999999955297,735647.1000000015,7014,NNB,C,14
14,test,2,0.0,2-Back,1,m,Tue Aug 06 2024 09:28:42 GMT-0500 (Central Daylight Time),739659.299999997,092_m_m_n_a.png,O,m,740,17,1,1762.2999999970198,737897.0,7014,NNB,C,15
14,test,2,1.0,2-Back,0,z,Tue Aug 06 2024 09:28:42 GMT-0500 (Central Daylight Time),741792.0,030_o_f_n_a.png,O,m,1110,18,1,2129.2000000029802,739662.799999997,7014,NNB,C,16
0,test,3,1.0,2-Back,,,Tue Aug 06 2024 09:28:42 GMT-0500 (Central Daylight Time),741792.0,057_y_m_n_a.png,O,space,1033,1,1,2129.2000000029802,739662.799999997,7014,NNB,C,0
0,test,3,1.0,2-Back,,,Tue Aug 06 2024 09:28:42 GMT-0500 (Central Daylight Time),741792.0,057_y_m_n_a.png,O,space,1033,2,1,2129.2000000029802,739662.799999997,7014,NNB,C,0
1,test,3,0.0,2-Back,1,m,Tue Aug 06 2024 09:28:42 GMT-0500 (Central Daylight Time),749806.0,030_o_f_n_a.png,O,m,771,3,1,1795.3999999985099,748010.6000000015,7014,NNB,C,1
2,test,3,0.0,2-Back,1,m,Tue Aug 06 2024 09:28:42 GMT-0500 (Central Daylight Time),751623.1000000015,082_m_m_n_a.png,O,m,795,4,1,1813.8999999985099,749809.200000003,7014,NNB,C,2
3,test,3,1.0,2-Back,1,z,Tue Aug 06 2024 09:28:42 GMT-0500 (Central Daylight Time),753555.1000000015,030_o_f_n_a.png,O,z,907,5,1,1928.5,751626.6000000015,7014,NNB,C,3
4,test,3,0.0,2-Back,1,m,Tue Aug 06 2024 09:28:42 GMT-0500 (Central Daylight Time),755338.0,031_y_m_n_a.png,O,m,750,6,1,1779.5,753558.5,7014,NNB,C,4
4,test,3,0.0,2-Back,0,m,Tue Aug 06 2024 09:28:42 GMT-0500 (Central Daylight Time),757731.6000000015,082_m_m_n_a.png,O,z,1229,7,1,2390.2000000029802,755341.3999999985,7014,NNB,C,5
5,test,3,1.0,2-Back,1,z,Tue Aug 06 2024 09:28:42 GMT-0500 (Central Daylight Time),759686.6000000015,031_y_m_n_a.png,O,z,937,8,1,1950.7000000029802,757735.8999999985,7014,NNB,C,6
6,test,3,0.0,2-Back,1,m,Tue Aug 06 2024 09:28:42 GMT-0500 (Central Daylight Time),761502.5,028_y_f_n_a.png,O,m,795,9,1,1812.3999999985099,759690.1000000015,7014,NNB,C,7
6,test,3,0.0,2-Back,0,m,Tue Aug 06 2024 09:28:42 GMT-0500 (Central Daylight Time),764535.299999997,092_m_m_n_a.png,O,None,2015,10,1,3029.1999999955297,761506.1000000015,7014,NNB,C,8
7,test,3,1.0,2-Back,1,z,Tue Aug 06 2024 09:28:42 GMT-0500 (Central Daylight Time),766634.299999997,028_y_f_n_a.png,O,z,1073,11,1,2095.6999999955297,764538.6000000015,7014,NNB,C,9
8,test,3,1.0,2-Back,1,z,Tue Aug 06 2024 09:28:42 GMT-0500 (Central Daylight Time),768517.0,092_m_m_n_a.png,O,z,863,12,1,1879.2999999970198,766637.700000003,7014,NNB,C,10
9,test,3,0.0,2-Back,1,m,Tue Aug 06 2024 09:28:42 GMT-0500 (Central Daylight Time),770449.799999997,030_o_f_n_a.png,O,m,900,13,1,1929.1999999955297,768520.6000000015,7014,NNB,C,11
10,test,3,0.0,2-Back,1,m,Tue Aug 06 2024 09:28:42 GMT-0500 (Central Daylight Time),772299.1000000015,093_m_f_n_a.png,O,m,824,14,1,1845.8999999985099,770453.200000003,7014,NNB,C,12
10,test,3,0.0,2-Back,0,m,Tue Aug 06 2024 09:28:42 GMT-0500 (Central Daylight Time),774532.0,146_o_m_n_a.png,O,z,1214,15,1,2229.7999999970198,772302.200000003,7014,NNB,C,13
11,test,3,1.0,2-Back,1,z,Tue Aug 06 2024 09:28:42 GMT-0500 (Central Daylight Time),776630.8999999985,093_m_f_n_a.png,O,z,1077,16,1,2095.89999999851,774535.0,7014,NNB,C,14
12,test,3,0.0,2-Back,1,m,Tue Aug 06 2024 09:28:42 GMT-0500 (Central Daylight Time),778597.299999997,130_o_f_n_a.png,O,m,946,17,1,1962.8999999985099,776634.3999999985,7014,NNB,C,15
13,test,3,0.0,2-Back,1,m,Tue Aug 06 2024 09:28:42 GMT-0500 (Central Daylight Time),780563.299999997,130_o_f_n_a.png,O,m,948,18,1,1962.8999999985099,778600.3999999985,7014,NNB,C,16
0,test,4,0.0,2-Back,,,Tue Aug 06 2024 09:28:42 GMT-0500 (Central Daylight Time),780563.299999997,059_o_m_n_a.png,O,space,1038,1,1,1962.8999999985099,778600.3999999985,7014,NNB,C,0
0,test,4,0.0,2-Back,,,Tue Aug 06 2024 09:28:42 GMT-0500 (Central Daylight Time),780563.299999997,098_y_f_n_a.png,O,space,1038,2,1,1962.8999999985099,778600.3999999985,7014,NNB,C,0
1,test,4,1.0,2-Back,1,z,Tue Aug 06 2024 09:28:42 GMT-0500 (Central Daylight Time),789010.3999999985,059_o_m_n_a.png,O,z,1149,3,1,2162.1999999955297,786848.200000003,7014,NNB,C,1
2,test,4,1.0,2-Back,1,z,Tue Aug 06 2024 09:28:42 GMT-0500 (Central Daylight Time),791076.700000003,098_y_f_n_a.png,O,z,1047,4,1,2063.10000000149,789013.6000000015,7014,NNB,C,2
3,test,4,0.0,2-Back,1,m,Tue Aug 06 2024 09:28:42 GMT-0500 (Central Daylight Time),793092.799999997,030_o_f_n_a.png,O,m,997,5,1,2012.8999999985099,791079.8999999985,7014,NNB,C,3
4,test,4,0.0,2-Back,1,m,Tue Aug 06 2024 09:28:42 GMT-0500 (Central Daylight Time),795158.6000000015,030_o_f_n_a.png,O,m,1037,6,1,2062.39999999851,793096.200000003,7014,NNB,C,4
5,test,4,0.0,2-Back,1,m,Tue Aug 06 2024 09:28:42 GMT-0500 (Central Daylight Time),797274.8999999985,006_m_f_n_a.png,O,m,1091,7,1,2112.7999999970198,795162.1000000015,7014,NNB,C,5
6,test,4,0.0,2-Back,1,m,Tue Aug 06 2024 09:28:42 GMT-0500 (Central Daylight Time),799190.799999997,031_y_m_n_a.png,O,m,887,8,1,1912.3999999985099,797278.3999999985,7014,NNB,C,6
7,test,4,1.0,2-Back,1,z,Tue Aug 06 2024 09:28:42 GMT-0500 (Central Daylight Time),801456.700000003,006_m_f_n_a.png,O,z,1243,9,1,2262.3000000044703,799194.3999999985,7014,NNB,C,7
8,test,4,0.0,2-Back,1,m,Tue Aug 06 2024 09:28:42 GMT-0500 (Central Daylight Time),803423.0,092_m_m_n_a.png,O,m,945,10,1,1963.2999999970198,801459.700000003,7014,NNB,C,8
8,test,4,0.0,2-Back,0,m,Tue Aug 06 2024 09:28:42 GMT-0500 (Central Daylight Time),805405.5,031_y_m_n_a.png,O,z,963,11,1,1979.1000000014901,803426.3999999985,7014,NNB,C,9
9,test,4,0.0,2-Back,1,m,Tue Aug 06 2024 09:28:42 GMT-0500 (Central Daylight Time),807404.700000003,130_o_f_n_a.png,O,m,980,12,1,1996.3000000044703,805408.3999999985,7014,NNB,C,10
10,test,4,0.0,2-Back,1,m,Tue Aug 06 2024 09:28:42 GMT-0500 (Central Daylight Time),810304.1000000015,057_y_m_n_a.png,O,m,1868,13,1,2895.89999999851,807408.200000003,7014,NNB,C,11
11,test,4,1.0,2-Back,1,z,Tue Aug 06 2024 09:28:42 GMT-0500 (Central Daylight Time),812003.3999999985,130_o_f_n_a.png,O,z,673,14,1,1695.6999999955297,810307.700000003,7014,NNB,C,12
12,test,4,1.0,2-Back,1,z,Tue Aug 06 2024 09:28:42 GMT-0500 (Central Daylight Time),814236.0,057_y_m_n_a.png,O,z,1206,15,1,2229.10000000149,812006.8999999985,7014,NNB,C,13
13,test,4,0.0,2-Back,1,m,Tue Aug 06 2024 09:28:42 GMT-0500 (Central Daylight Time),816185.3999999985,082_m_m_n_a.png,O,m,917,16,1,1945.8999999985099,814239.5,7014,NNB,C,14
14,test,4,0.0,2-Back,1,m,Tue Aug 06 2024 09:28:42 GMT-0500 (Central Daylight Time),818151.700000003,093_m_f_n_a.png,O,m,936,17,1,1963.4000000059605,816188.299999997,7014,NNB,C,15
15,test,4,1.0,2-Back,1,z,Tue Aug 06 2024 09:28:42 GMT-0500 (Central Daylight Time),820217.3999999985,082_m_m_n_a.png,O,z,1034,18,1,2062.10000000149,818155.299999997,7014,NNB,C,16
0,test,5,1.0,2-Back,,,Tue Aug 06 2024 09:28:42 GMT-0500 (Central Daylight Time),820217.3999999985,057_y_m_n_a.png,O,space,1200,1,1,2062.10000000149,818155.299999997,7014,NNB,C,0
0,test,5,1.0,2-Back,,,Tue Aug 06 2024 09:28:42 GMT-0500 (Central Daylight Time),820217.3999999985,093_m_f_n_a.png,O,space,1200,2,1,2062.10000000149,818155.299999997,7014,NNB,C,0
1,test,5,1.0,2-Back,1,z,Tue Aug 06 2024 09:28:42 GMT-0500 (Central Daylight Time),828392.5,057_y_m_n_a.png,O,z,875,3,1,1907.2000000029802,826485.299999997,7014,NNB,C,1
2,test,5,1.0,2-Back,1,z,Tue Aug 06 2024 09:28:42 GMT-0500 (Central Daylight Time),830464.200000003,093_m_f_n_a.png,O,z,1060,4,1,2068.7000000029802,828395.5,7014,NNB,C,2
3,test,5,0.0,2-Back,1,m,Tue Aug 06 2024 09:28:42 GMT-0500 (Central Daylight Time),832746.799999997,130_o_f_n_a.png,O,m,1257,5,1,2278.6999999955297,830468.1000000015,7014,NNB,C,3
3,test,5,0.0,2-Back,0,m,Tue Aug 06 2024 09:28:42 GMT-0500 (Central Daylight Time),835362.5,057_y_m_n_a.png,O,z,1599,6,1,2612.2999999970198,832750.200000003,7014,NNB,C,4
4,test,5,0.0,2-Back,1,m,Tue Aug 06 2024 09:28:42 GMT-0500 (Central Daylight Time),837278.700000003,028_y_f_n_a.png,O,m,887,7,1,1912.8000000044703,835365.8999999985,7014,NNB,C,5
4,test,5,0.0,2-Back,0,m,Tue Aug 06 2024 09:28:42 GMT-0500 (Central Daylight Time),839329.299999997,130_o_f_n_a.png,O,z,993,8,1,2046.8999999985099,837282.3999999985,7014,NNB,C,6
5,test,5,1.0,2-Back,1,z,Tue Aug 06 2024 09:28:42 GMT-0500 (Central Daylight Time),841544.1000000015,028_y_f_n_a.png,O,z,1185,9,1,2211.3000000044703,839332.799999997,7014,NNB,C,7
6,test,5,0.0,2-Back,1,m,Tue Aug 06 2024 09:28:42 GMT-0500 (Central Daylight Time),843426.700000003,146_o_m_n_a.png,O,m,857,10,1,1879.0,841547.700000003,7014,NNB,C,8
7,test,5,0.0,2-Back,1,m,Tue Aug 06 2024 09:28:42 GMT-0500 (Central Daylight Time),845526.1000000015,006_m_f_n_a.png,O,m,1079,11,1,2095.60000000149,843430.5,7014,NNB,C,9
8,test,5,0.0,2-Back,1,m,Tue Aug 06 2024 09:28:42 GMT-0500 (Central Daylight Time),847325.5,092_m_m_n_a.png,O,m,779,12,1,1796.2999999970198,845529.200000003,7014,NNB,C,10
8,test,5,0.0,2-Back,0,m,Tue Aug 06 2024 09:28:42 GMT-0500 (Central Daylight Time),849441.8999999985,146_o_m_n_a.png,O,z,1084,13,1,2113.39999999851,847328.5,7014,NNB,C,11
8,test,5,1.0,2-Back,0,z,Tue Aug 06 2024 09:28:42 GMT-0500 (Central Daylight Time),851625.299999997,092_m_m_n_a.png,O,m,1152,14,1,2180.1999999955297,849445.1000000015,7014,NNB,C,12
9,test,5,0.0,2-Back,1,m,Tue Aug 06 2024 09:28:42 GMT-0500 (Central Daylight Time),853473.799999997,098_y_f_n_a.png,O,m,825,15,1,1845.6999999955297,851628.1000000015,7014,NNB,C,13
10,test,5,0.0,2-Back,1,m,Tue Aug 06 2024 09:28:42 GMT-0500 (Central Daylight Time),855256.3999999985,059_o_m_n_a.png,O,m,760,16,1,1779.0,853477.3999999985,7014,NNB,C,14
11,test,5,0.0,2-Back,1,m,Tue Aug 06 2024 09:28:42 GMT-0500 (Central Daylight Time),857072.700000003,006_m_f_n_a.png,O,m,785,17,1,1813.4000000059605,855259.299999997,7014,NNB,C,15
12,test,5,1.0,2-Back,1,z,Tue Aug 06 2024 09:28:42 GMT-0500 (Central Daylight Time),858922.0,059_o_m_n_a.png,O,z,825,18,1,1845.7999999970198,857076.200000003,7014,NNB,C,16
