acc_sum,block,block_c,block_cond,con_img,correct,correct_response,datetime,endtime,face,jitter,line,project,response,response_time,row_sel,session_number,start_end,starttime,subject_id,task,task_vers,trial
0,prac,1,A,haborder.png,0,m,Wed Aug 06 2025 18:10:40 GMT-0500 (Central Daylight Time),54032.700000047684,CFD-WF-017-016-HC.jpg,1500,solid,I,None,1516,11,2,3798.899999976158,50233.800000071526,8037,ATS,A,1
0,prac,1,A,haborder.png,0,m,Wed Aug 06 2025 18:10:40 GMT-0500 (Central Daylight Time),58014.89999997616,CFD-BF-028-020-HC.jpg,2000,solid,I,z,1193,5,2,7781.099999904633,50233.800000071526,8037,ATS,A,2
0,prac,1,A,haborder.png,0,z,Wed Aug 06 2025 18:10:40 GMT-0500 (Central Daylight Time),61680.200000047684,CFD-WM-013-015-A.jpg,1900,solid,I,m,974,8,2,11446.399999976158,50233.800000071526,8037,ATS,A,3
1,prac,1,A,haborder.png,1,m,Wed Aug 06 2025 18:10:40 GMT-0500 (Central Daylight Time),65279.0,CFD-WM-004-005-HC.jpg,1400,solid,I,m,1408,7,2,15045.199999928474,50233.800000071526,8037,ATS,A,4
2,prac,1,A,haborder.png,1,m,Wed Aug 06 2025 18:10:40 GMT-0500 (Central Daylight Time),68811.5,CFD-BM-017-052-HC.jpg,1700,solid,I,m,1038,1,2,18577.699999928474,50233.800000071526,8037,ATS,A,5
3,prac,1,A,haborder.png,1,m,Wed Aug 06 2025 18:10:40 GMT-0500 (Central Daylight Time),72110.20000004768,CFD-WM-006-013-HC.jpg,1700,solid,I,m,801,9,2,21876.399999976158,50233.800000071526,8037,ATS,A,6
4,prac,1,A,haborder.png,1,z,Wed Aug 06 2025 18:10:40 GMT-0500 (Central Daylight Time),74726.20000004768,CFD-WF-019-015-A.jpg,1000,solid,I,z,826,12,2,24492.399999976158,50233.800000071526,8037,ATS,A,7
5,prac,1,A,haborder.png,1,z,Wed Aug 06 2025 18:10:40 GMT-0500 (Central Daylight Time),77225.20000004768,CFD-BF-023-013-A.jpg,1000,solid,I,z,706,4,2,26991.399999976158,50233.800000071526,8037,ATS,A,8
6,prac,1,A,haborder.png,1,m,Wed Aug 06 2025 18:10:40 GMT-0500 (Central Daylight Time),80492.10000002384,CFD-BM-029-026-HC.jpg,1500,solid,I,m,988,3,2,30258.299999952316,50233.800000071526,8037,ATS,A,9
7,prac,1,A,haborder.png,1,z,Wed Aug 06 2025 18:10:40 GMT-0500 (Central Daylight Time),83806.60000002384,CFD-BM-005-010-A.jpg,1600,solid,I,z,927,2,2,33572.799999952316,50233.800000071526,8037,ATS,A,10
8,prac,1,A,haborder.png,1,z,Wed Aug 06 2025 18:10:40 GMT-0500 (Central Daylight Time),86972.5,CFD-WF-003-014-A.jpg,1600,solid,I,z,771,10,2,36738.699999928474,50233.800000071526,8037,ATS,A,11
9,prac,1,A,haborder.png,1,z,Wed Aug 06 2025 18:10:40 GMT-0500 (Central Daylight Time),89938.30000007153,CFD-BF-039-039-A.jpg,1200,solid,I,z,980,6,2,39704.5,50233.800000071526,8037,ATS,A,12
1,prac,1,B,mfborder.png,1,z,Wed Aug 06 2025 18:10:40 GMT-0500 (Central Daylight Time),111514.60000002384,CFD-WF-017-016-HC.jpg,1000,dash,I,z,938,12,2,2732.5,108782.10000002384,8037,ATS,A,1
2,prac,1,B,mfborder.png,1,z,Wed Aug 06 2025 18:10:40 GMT-0500 (Central Daylight Time),114147.10000002384,CFD-BF-023-013-A.jpg,1000,dash,I,z,839,4,2,5365.0,108782.10000002384,8037,ATS,A,2
3,prac,1,B,mfborder.png,1,z,Wed Aug 06 2025 18:10:40 GMT-0500 (Central Daylight Time),117396.0,CFD-BF-010-005-HC.jpg,1500,dash,I,z,962,3,2,8613.899999976158,108782.10000002384,8037,ATS,A,3
4,prac,1,B,mfborder.png,1,m,Wed Aug 06 2025 18:10:40 GMT-0500 (Central Daylight Time),120528.39999997616,CFD-BM-010-019-A.jpg,1600,dash,I,m,748,2,2,11746.299999952316,108782.10000002384,8037,ATS,A,4
5,prac,1,B,mfborder.png,1,m,Wed Aug 06 2025 18:10:40 GMT-0500 (Central Daylight Time),123727.5,CFD-WM-013-015-A.jpg,1700,dash,I,m,700,9,2,14945.399999976158,108782.10000002384,8037,ATS,A,5
6,prac,1,B,mfborder.png,1,m,Wed Aug 06 2025 18:10:40 GMT-0500 (Central Daylight Time),127142.89999997616,CFD-BM-029-026-HC.jpg,1700,dash,I,m,917,1,2,18360.799999952316,108782.10000002384,8037,ATS,A,6
7,prac,1,B,mfborder.png,1,z,Wed Aug 06 2025 18:10:40 GMT-0500 (Central Daylight Time),130175.5,CFD-BF-028-020-HC.jpg,1400,dash,I,z,848,7,2,21393.399999976158,108782.10000002384,8037,ATS,A,7
8,prac,1,B,mfborder.png,1,m,Wed Aug 06 2025 18:10:40 GMT-0500 (Central Daylight Time),133757.5,CFD-BM-005-010-A.jpg,2000,dash,I,m,793,5,2,24975.399999976158,108782.10000002384,8037,ATS,A,8
9,prac,1,B,mfborder.png,1,z,Wed Aug 06 2025 18:10:40 GMT-0500 (Central Daylight Time),137039.80000007153,CFD-WF-003-014-A.jpg,1500,dash,I,z,984,11,2,28257.700000047684,108782.10000002384,8037,ATS,A,9
9,prac,1,B,mfborder.png,0,m,Wed Aug 06 2025 18:10:40 GMT-0500 (Central Daylight Time),140538.70000004768,CFD-WM-019-013-A.jpg,1200,dash,I,None,1516,6,2,31756.600000023842,108782.10000002384,8037,ATS,A,10
10,prac,1,B,mfborder.png,1,z,Wed Aug 06 2025 18:10:40 GMT-0500 (Central Daylight Time),143871.0,CFD-WF-002-008-HC.jpg,1900,dash,I,z,642,8,2,35088.89999997616,108782.10000002384,8037,ATS,A,11
11,prac,1,B,mfborder.png,1,m,Wed Aug 06 2025 18:10:40 GMT-0500 (Central Daylight Time),147053.39999997616,CFD-WM-006-013-HC.jpg,1600,dash,I,m,793,10,2,38271.299999952316,108782.10000002384,8037,ATS,A,12
1,test,1,A,haborder.png,1,z,Wed Aug 06 2025 18:10:40 GMT-0500 (Central Daylight Time),165147.70000004768,CFD-WF-003-014-A.jpg,1600,solid,I,z,1180,10,2,2799.0,162348.70000004768,8037,ATS,A,1
2,test,1,A,haborder.png,1,z,Wed Aug 06 2025 18:10:40 GMT-0500 (Central Daylight Time),167030.60000002384,CFD-WF-019-015-A.jpg,1000,solid,I,z,852,12,2,4681.899999976158,162348.70000004768,8037,ATS,A,2
3,test,1,A,haborder.png,1,m,Wed Aug 06 2025 18:10:40 GMT-0500 (Central Daylight Time),169729.5,CFD-BM-029-026-HC.jpg,1500,solid,I,m,1166,3,2,7380.799999952316,162348.70000004768,8037,ATS,A,3
4,test,1,A,haborder.png,1,z,Wed Aug 06 2025 18:10:40 GMT-0500 (Central Daylight Time),172145.70000004768,CFD-WF-003-014-A.jpg,1600,solid,I,z,799,10,2,9797.0,162348.70000004768,8037,ATS,A,4
5,test,1,A,haborder.png,1,z,Wed Aug 06 2025 18:10:40 GMT-0500 (Central Daylight Time),173861.60000002384,CFD-WF-019-015-A.jpg,1000,solid,I,z,696,12,2,11512.899999976158,162348.70000004768,8037,ATS,A,5
6,test,1,A,haborder.png,1,m,Wed Aug 06 2025 18:10:40 GMT-0500 (Central Daylight Time),176656.10000002384,CFD-WM-006-013-HC.jpg,1700,solid,I,m,1078,9,2,14307.399999976158,162348.70000004768,8037,ATS,A,6
7,test,1,A,haborder.png,1,m,Wed Aug 06 2025 18:10:40 GMT-0500 (Central Daylight Time),179426.5,CFD-WM-006-013-HC.jpg,1700,solid,I,m,1040,9,2,17077.799999952316,162348.70000004768,8037,ATS,A,7
8,test,1,A,haborder.png,1,z,Wed Aug 06 2025 18:10:40 GMT-0500 (Central Daylight Time),182125.60000002384,CFD-BM-005-010-A.jpg,1600,solid,I,z,1070,2,2,19776.899999976158,162348.70000004768,8037,ATS,A,8
9,test,1,A,haborder.png,1,z,Wed Aug 06 2025 18:10:40 GMT-0500 (Central Daylight Time),184474.89999997616,CFD-BM-005-010-A.jpg,1600,solid,I,z,732,2,2,22126.199999928474,162348.70000004768,8037,ATS,A,9
10,test,1,A,haborder.png,1,z,Wed Aug 06 2025 18:10:40 GMT-0500 (Central Daylight Time),187390.60000002384,CFD-WM-013-015-A.jpg,1900,solid,I,z,986,8,2,25041.899999976158,162348.70000004768,8037,ATS,A,10
11,test,1,A,haborder.png,1,m,Wed Aug 06 2025 18:10:40 GMT-0500 (Central Daylight Time),189789.89999997616,CFD-WM-004-005-HC.jpg,1400,solid,I,m,971,7,2,27441.199999928474,162348.70000004768,8037,ATS,A,11
12,test,1,A,haborder.png,1,m,Wed Aug 06 2025 18:10:40 GMT-0500 (Central Daylight Time),192039.20000004768,CFD-WF-017-016-HC.jpg,1500,solid,I,m,718,11,2,29690.5,162348.70000004768,8037,ATS,A,12
13,test,1,A,haborder.png,1,m,Wed Aug 06 2025 18:10:40 GMT-0500 (Central Daylight Time),194804.89999997616,CFD-BF-028-020-HC.jpg,2000,solid,I,m,746,5,2,32456.199999928474,162348.70000004768,8037,ATS,A,13
14,test,1,A,haborder.png,1,m,Wed Aug 06 2025 18:10:40 GMT-0500 (Central Daylight Time),197554.39999997616,CFD-BM-017-052-HC.jpg,1700,solid,I,m,1033,1,2,35205.699999928474,162348.70000004768,8037,ATS,A,14
15,test,1,A,haborder.png,1,z,Wed Aug 06 2025 18:10:40 GMT-0500 (Central Daylight Time),199720.10000002384,CFD-BF-023-013-A.jpg,1000,solid,I,z,1143,4,2,37371.39999997616,162348.70000004768,8037,ATS,A,15
15,test,1,A,haborder.png,0,m,Wed Aug 06 2025 18:10:40 GMT-0500 (Central Daylight Time),203252.39999997616,CFD-BF-028-020-HC.jpg,2000,solid,I,None,1515,5,2,40903.699999928474,162348.70000004768,8037,ATS,A,16
16,test,1,A,haborder.png,1,z,Wed Aug 06 2025 18:10:40 GMT-0500 (Central Daylight Time),205768.39999997616,CFD-BF-039-039-A.jpg,1200,solid,I,z,1285,6,2,43419.699999928474,162348.70000004768,8037,ATS,A,17
17,test,1,A,haborder.png,1,z,Wed Aug 06 2025 18:10:40 GMT-0500 (Central Daylight Time),208434.0,CFD-WM-013-015-A.jpg,1900,solid,I,z,740,8,2,46085.299999952316,162348.70000004768,8037,ATS,A,18
17,test,1,A,haborder.png,0,m,Wed Aug 06 2025 18:10:40 GMT-0500 (Central Daylight Time),211466.60000002384,CFD-BM-029-026-HC.jpg,1500,solid,I,None,1515,3,2,49117.89999997616,162348.70000004768,8037,ATS,A,19
18,test,1,A,haborder.png,1,m,Wed Aug 06 2025 18:10:40 GMT-0500 (Central Daylight Time),213565.70000004768,CFD-WM-004-005-HC.jpg,1400,solid,I,m,670,7,2,51217.0,162348.70000004768,8037,ATS,A,20
19,test,1,A,haborder.png,1,m,Wed Aug 06 2025 18:10:40 GMT-0500 (Central Daylight Time),216198.39999997616,CFD-BM-017-052-HC.jpg,1700,solid,I,m,903,1,2,53849.699999928474,162348.70000004768,8037,ATS,A,21
19,test,1,A,haborder.png,0,z,Wed Aug 06 2025 18:10:40 GMT-0500 (Central Daylight Time),218931.0,CFD-BF-039-039-A.jpg,1200,solid,I,None,1516,6,2,56582.299999952316,162348.70000004768,8037,ATS,A,22
20,test,1,A,haborder.png,1,m,Wed Aug 06 2025 18:10:40 GMT-0500 (Central Daylight Time),221279.89999997616,CFD-WF-017-016-HC.jpg,1500,solid,I,m,819,11,2,58931.199999928474,162348.70000004768,8037,ATS,A,23
21,test,1,A,haborder.png,1,z,Wed Aug 06 2025 18:10:40 GMT-0500 (Central Daylight Time),223229.5,CFD-BF-023-013-A.jpg,1000,solid,I,z,929,4,2,60880.799999952316,162348.70000004768,8037,ATS,A,24
1,test,1,B,mfborder.png,1,m,Wed Aug 06 2025 18:10:40 GMT-0500 (Central Daylight Time),247038.60000002384,CFD-BM-010-019-A.jpg,1600,dash,I,m,1402,2,2,3032.2000000476837,244006.39999997616,8037,ATS,A,1
2,test,1,B,mfborder.png,1,m,Wed Aug 06 2025 18:10:40 GMT-0500 (Central Daylight Time),250220.89999997616,CFD-BM-005-010-A.jpg,2000,dash,I,m,1154,5,2,6214.5,244006.39999997616,8037,ATS,A,2
3,test,1,B,mfborder.png,1,z,Wed Aug 06 2025 18:10:40 GMT-0500 (Central Daylight Time),252736.80000007153,CFD-WF-017-016-HC.jpg,1000,dash,I,z,1492,12,2,8730.400000095367,244006.39999997616,8037,ATS,A,3
4,test,1,B,mfborder.png,1,m,Wed Aug 06 2025 18:10:40 GMT-0500 (Central Daylight Time),255102.70000004768,CFD-WM-019-013-A.jpg,1200,dash,I,m,1136,6,2,11096.300000071526,244006.39999997616,8037,ATS,A,4
5,test,1,B,mfborder.png,1,m,Wed Aug 06 2025 18:10:40 GMT-0500 (Central Daylight Time),258351.60000002384,CFD-BM-005-010-A.jpg,2000,dash,I,m,1218,5,2,14345.200000047684,244006.39999997616,8037,ATS,A,5
6,test,1,B,mfborder.png,1,m,Wed Aug 06 2025 18:10:40 GMT-0500 (Central Daylight Time),261350.70000004768,CFD-BM-029-026-HC.jpg,1700,dash,I,m,1277,1,2,17344.300000071526,244006.39999997616,8037,ATS,A,6
7,test,1,B,mfborder.png,1,m,Wed Aug 06 2025 18:10:40 GMT-0500 (Central Daylight Time),264366.60000002384,CFD-BM-029-026-HC.jpg,1700,dash,I,m,1294,1,2,20360.200000047684,244006.39999997616,8037,ATS,A,7
8,test,1,B,mfborder.png,1,z,Wed Aug 06 2025 18:10:40 GMT-0500 (Central Daylight Time),266865.89999997616,CFD-WF-003-014-A.jpg,1500,dash,I,z,975,11,2,22859.5,244006.39999997616,8037,ATS,A,8
8,test,1,B,mfborder.png,0,z,Wed Aug 06 2025 18:10:40 GMT-0500 (Central Daylight Time),269398.3000000715,CFD-BF-023-013-A.jpg,1000,dash,I,None,1516,4,2,25391.900000095367,244006.39999997616,8037,ATS,A,9
9,test,1,B,mfborder.png,1,z,Wed Aug 06 2025 18:10:40 GMT-0500 (Central Daylight Time),272014.10000002384,CFD-BF-010-005-HC.jpg,1500,dash,I,z,1083,3,2,28007.700000047684,244006.39999997616,8037,ATS,A,10
10,test,1,B,mfborder.png,1,m,Wed Aug 06 2025 18:10:40 GMT-0500 (Central Daylight Time),274646.7000000477,CFD-BM-010-019-A.jpg,1600,dash,I,m,1002,2,2,30640.300000071526,244006.39999997616,8037,ATS,A,11
11,test,1,B,mfborder.png,1,z,Wed Aug 06 2025 18:10:40 GMT-0500 (Central Daylight Time),277878.8000000715,CFD-WF-002-008-HC.jpg,1900,dash,I,z,1302,8,2,33872.40000009537,244006.39999997616,8037,ATS,A,12
12,test,1,B,mfborder.png,1,m,Wed Aug 06 2025 18:10:40 GMT-0500 (Central Daylight Time),280544.8000000715,CFD-WM-013-015-A.jpg,1700,dash,I,m,943,9,2,36538.40000009537,244006.39999997616,8037,ATS,A,13
13,test,1,B,mfborder.png,1,z,Wed Aug 06 2025 18:10:40 GMT-0500 (Central Daylight Time),282993.89999997616,CFD-BF-028-020-HC.jpg,1400,dash,I,z,1032,7,2,38987.5,244006.39999997616,8037,ATS,A,14
14,test,1,B,mfborder.png,1,z,Wed Aug 06 2025 18:10:40 GMT-0500 (Central Daylight Time),285443.2000000477,CFD-BF-010-005-HC.jpg,1500,dash,I,z,923,3,2,41436.800000071526,244006.39999997616,8037,ATS,A,15
15,test,1,B,mfborder.png,1,m,Wed Aug 06 2025 18:10:40 GMT-0500 (Central Daylight Time),288142.3000000715,CFD-WM-006-013-HC.jpg,1600,dash,I,m,1069,10,2,44135.90000009537,244006.39999997616,8037,ATS,A,16
16,test,1,B,mfborder.png,1,z,Wed Aug 06 2025 18:10:40 GMT-0500 (Central Daylight Time),290308.39999997616,CFD-BF-023-013-A.jpg,1000,dash,I,z,1139,4,2,46302.0,244006.39999997616,8037,ATS,A,17
17,test,1,B,mfborder.png,1,m,Wed Aug 06 2025 18:10:40 GMT-0500 (Central Daylight Time),292840.8000000715,CFD-WM-006-013-HC.jpg,1600,dash,I,m,908,10,2,48834.40000009537,244006.39999997616,8037,ATS,A,18
18,test,1,B,mfborder.png,1,m,Wed Aug 06 2025 18:10:40 GMT-0500 (Central Daylight Time),295939.7000000477,CFD-WM-013-015-A.jpg,1700,dash,I,m,1379,9,2,51933.300000071526,244006.39999997616,8037,ATS,A,19
19,test,1,B,mfborder.png,1,m,Wed Aug 06 2025 18:10:40 GMT-0500 (Central Daylight Time),298155.8000000715,CFD-WM-019-013-A.jpg,1200,dash,I,m,989,6,2,54149.40000009537,244006.39999997616,8037,ATS,A,20
20,test,1,B,mfborder.png,1,z,Wed Aug 06 2025 18:10:40 GMT-0500 (Central Daylight Time),300905.10000002384,CFD-WF-003-014-A.jpg,1500,dash,I,z,1217,11,2,56898.700000047684,244006.39999997616,8037,ATS,A,21
21,test,1,B,mfborder.png,1,z,Wed Aug 06 2025 18:10:40 GMT-0500 (Central Daylight Time),303020.89999997616,CFD-WF-017-016-HC.jpg,1000,dash,I,z,1087,12,2,59014.5,244006.39999997616,8037,ATS,A,22
22,test,1,B,mfborder.png,1,z,Wed Aug 06 2025 18:10:40 GMT-0500 (Central Daylight Time),305986.7000000477,CFD-WF-002-008-HC.jpg,1900,dash,I,z,1039,8,2,61980.300000071526,244006.39999997616,8037,ATS,A,23
23,test,1,B,mfborder.png,1,z,Wed Aug 06 2025 18:10:40 GMT-0500 (Central Daylight Time),308302.60000002384,CFD-BF-028-020-HC.jpg,1400,dash,I,z,887,7,2,64296.200000047684,244006.39999997616,8037,ATS,A,24
1,prac,1,C,mfborder.png,1,z,Wed Aug 06 2025 18:10:40 GMT-0500 (Central Daylight Time),343108.5,CFD-WF-017-016-HC.jpg,1600,dash,I,z,1094,1,2,3482.2999999523163,339626.2000000477,8037,ATS,A,1
2,prac,1,C,haborder.png,1,m,Wed Aug 06 2025 18:10:40 GMT-0500 (Central Daylight Time),345974.10000002384,CFD-WM-004-005-HC.jpg,1000,dash,I,m,1077,11,2,6347.899999976158,339626.2000000477,8037,ATS,A,2
3,prac,1,C,haborder.png,1,m,Wed Aug 06 2025 18:10:40 GMT-0500 (Central Daylight Time),349073.3000000715,CFD-WM-004-005-HC.jpg,1400,solid,I,m,914,12,2,9447.100000023842,339626.2000000477,8037,ATS,A,3
4,prac,1,C,haborder.png,1,z,Wed Aug 06 2025 18:10:40 GMT-0500 (Central Daylight Time),352538.7000000477,CFD-BF-039-039-A.jpg,1700,solid,I,z,981,8,2,12912.5,339626.2000000477,8037,ATS,A,4
5,prac,1,C,haborder.png,1,m,Wed Aug 06 2025 18:10:40 GMT-0500 (Central Daylight Time),355821.10000002384,CFD-BM-029-026-HC.jpg,1500,solid,I,m,994,10,2,16194.899999976158,339626.2000000477,8037,ATS,A,5
6,prac,1,C,haborder.png,1,z,Wed Aug 06 2025 18:10:40 GMT-0500 (Central Daylight Time),359503.3000000715,CFD-BF-023-013-A.jpg,1900,dash,I,z,993,7,2,19877.100000023842,339626.2000000477,8037,ATS,A,6
6,prac,1,C,haborder.png,0,z,Wed Aug 06 2025 18:10:40 GMT-0500 (Central Daylight Time),363152.3000000715,CFD-WF-003-014-A.jpg,1600,dash,I,m,1258,9,2,23526.100000023842,339626.2000000477,8037,ATS,A,7
6,prac,1,C,mfborder.png,0,z,Wed Aug 06 2025 18:10:40 GMT-0500 (Central Daylight Time),366900.8000000715,CFD-WF-019-015-A.jpg,1500,solid,I,m,1452,2,2,27274.600000023842,339626.2000000477,8037,ATS,A,8
6,prac,1,C,mfborder.png,0,m,Wed Aug 06 2025 18:10:40 GMT-0500 (Central Daylight Time),370816.5,CFD-WM-013-015-A.jpg,1700,solid,I,z,1416,6,2,31190.299999952316,339626.2000000477,8037,ATS,A,9
7,prac,1,C,mfborder.png,1,m,Wed Aug 06 2025 18:10:40 GMT-0500 (Central Daylight Time),373948.8000000715,CFD-BM-005-010-A.jpg,1200,dash,I,m,1136,5,2,34322.60000002384,339626.2000000477,8037,ATS,A,10
7,prac,1,C,mfborder.png,0,m,Wed Aug 06 2025 18:10:40 GMT-0500 (Central Daylight Time),378247.60000002384,CFD-BM-017-052-HC.jpg,2000,solid,I,None,1516,4,2,38621.39999997616,339626.2000000477,8037,ATS,A,11
8,prac,1,C,mfborder.png,1,z,Wed Aug 06 2025 18:10:40 GMT-0500 (Central Daylight Time),381280.0,CFD-BF-028-020-HC.jpg,1000,dash,I,z,1241,3,2,41653.799999952316,339626.2000000477,8037,ATS,A,12
1,test,1,C,mfborder.png,1,m,Wed Aug 06 2025 18:10:40 GMT-0500 (Central Daylight Time),406188.7000000477,CFD-WM-006-013-HC.jpg,1000,dash,I,m,1196,4,2,2216.100000023842,403972.60000002384,8037,ATS,A,1
1,test,1,C,haborder.png,0,m,Wed Aug 06 2025 18:10:40 GMT-0500 (Central Daylight Time),408721.3000000715,CFD-WF-017-016-HC.jpg,1000,solid,I,None,1516,12,2,4748.700000047684,403972.60000002384,8037,ATS,A,2
1,test,1,C,mfborder.png,0,m,Wed Aug 06 2025 18:10:40 GMT-0500 (Central Daylight Time),411453.60000002384,CFD-BM-029-026-HC.jpg,1200,dash,I,None,1516,6,2,7481.0,403972.60000002384,8037,ATS,A,3
2,test,1,C,haborder.png,1,z,Wed Aug 06 2025 18:10:40 GMT-0500 (Central Daylight Time),414236.0,CFD-BM-005-010-A.jpg,1900,solid,I,z,863,8,2,10263.399999976158,403972.60000002384,8037,ATS,A,4
3,test,1,C,haborder.png,1,z,Wed Aug 06 2025 18:10:40 GMT-0500 (Central Daylight Time),417035.10000002384,CFD-BM-010-019-A.jpg,1700,solid,I,z,1081,9,2,13062.5,403972.60000002384,8037,ATS,A,5
3,test,1,C,mfborder.png,0,z,Wed Aug 06 2025 18:10:40 GMT-0500 (Central Daylight Time),419951.0,CFD-BF-023-013-A.jpg,1600,dash,I,m,1285,2,2,15978.399999976158,403972.60000002384,8037,ATS,A,6
3,test,1,C,mfborder.png,0,m,Wed Aug 06 2025 18:10:40 GMT-0500 (Central Daylight Time),423183.3000000715,CFD-WM-019-013-A.jpg,2000,dash,I,z,1202,5,2,19210.700000047684,403972.60000002384,8037,ATS,A,7
4,test,1,C,haborder.png,1,z,Wed Aug 06 2025 18:10:40 GMT-0500 (Central Daylight Time),426482.3000000715,CFD-BM-005-010-A.jpg,1900,solid,I,z,1373,8,2,22509.700000047684,403972.60000002384,8037,ATS,A,8
4,test,1,C,mfborder.png,0,m,Wed Aug 06 2025 18:10:40 GMT-0500 (Central Daylight Time),429214.7000000477,CFD-BM-029-026-HC.jpg,1200,dash,I,None,1516,6,2,25242.100000023842,403972.60000002384,8037,ATS,A,9
4,test,1,C,mfborder.png,0,z,Wed Aug 06 2025 18:10:40 GMT-0500 (Central Daylight Time),431997.3000000715,CFD-BF-010-005-HC.jpg,1700,dash,I,m,1062,1,2,28024.700000047684,403972.60000002384,8037,ATS,A,10
4,test,1,C,mfborder.png,0,m,Wed Aug 06 2025 18:10:40 GMT-0500 (Central Daylight Time),435529.39999997616,CFD-WM-019-013-A.jpg,2000,dash,I,None,1516,5,2,31556.799999952316,403972.60000002384,8037,ATS,A,11
4,test,1,C,haborder.png,0,m,Wed Aug 06 2025 18:10:40 GMT-0500 (Central Daylight Time),438561.7000000477,CFD-WF-002-008-HC.jpg,1500,solid,I,None,1516,11,2,34589.10000002384,403972.60000002384,8037,ATS,A,12
4,test,1,C,mfborder.png,0,z,Wed Aug 06 2025 18:10:40 GMT-0500 (Central Daylight Time),441577.5,CFD-WF-003-014-A.jpg,1500,dash,I,m,1492,3,2,37604.89999997616,403972.60000002384,8037,ATS,A,13
4,test,1,C,haborder.png,0,m,Wed Aug 06 2025 18:10:40 GMT-0500 (Central Daylight Time),444710.0,CFD-BF-028-020-HC.jpg,1600,solid,I,None,1516,10,2,40737.39999997616,403972.60000002384,8037,ATS,A,14
4,test,1,C,haborder.png,0,z,Wed Aug 06 2025 18:10:40 GMT-0500 (Central Daylight Time),447225.7000000477,CFD-WM-013-015-A.jpg,1400,solid,I,m,1090,7,2,43253.10000002384,403972.60000002384,8037,ATS,A,15
4,test,1,C,haborder.png,0,z,Wed Aug 06 2025 18:10:40 GMT-0500 (Central Daylight Time),449941.5,CFD-WM-013-015-A.jpg,1400,solid,I,m,1295,7,2,45968.89999997616,403972.60000002384,8037,ATS,A,16
5,test,1,C,haborder.png,1,m,Wed Aug 06 2025 18:10:40 GMT-0500 (Central Daylight Time),452873.89999997616,CFD-WF-002-008-HC.jpg,1500,solid,I,m,1407,11,2,48901.299999952316,403972.60000002384,8037,ATS,A,17
5,test,1,C,haborder.png,0,z,Wed Aug 06 2025 18:10:40 GMT-0500 (Central Daylight Time),455656.7000000477,CFD-BM-010-019-A.jpg,1700,solid,I,m,1060,9,2,51684.10000002384,403972.60000002384,8037,ATS,A,18
5,test,1,C,mfborder.png,0,z,Wed Aug 06 2025 18:10:40 GMT-0500 (Central Daylight Time),458689.10000002384,CFD-WF-003-014-A.jpg,1500,dash,I,None,1516,3,2,54716.5,403972.60000002384,8037,ATS,A,19
5,test,1,C,mfborder.png,0,z,Wed Aug 06 2025 18:10:40 GMT-0500 (Central Daylight Time),461921.7000000477,CFD-BF-010-005-HC.jpg,1700,dash,I,None,1516,1,2,57949.10000002384,403972.60000002384,8037,ATS,A,20
5,test,1,C,mfborder.png,0,z,Wed Aug 06 2025 18:10:40 GMT-0500 (Central Daylight Time),465053.8000000715,CFD-BF-023-013-A.jpg,1600,dash,I,None,1516,2,2,61081.200000047684,403972.60000002384,8037,ATS,A,21
5,test,1,C,haborder.png,0,m,Wed Aug 06 2025 18:10:40 GMT-0500 (Central Daylight Time),468186.10000002384,CFD-BF-028-020-HC.jpg,1600,solid,I,None,1516,10,2,64213.5,403972.60000002384,8037,ATS,A,22
6,test,1,C,haborder.png,1,m,Wed Aug 06 2025 18:10:40 GMT-0500 (Central Daylight Time),470385.5,CFD-WF-017-016-HC.jpg,1000,solid,I,m,1168,12,2,66412.89999997616,403972.60000002384,8037,ATS,A,23
7,test,1,C,mfborder.png,1,m,Wed Aug 06 2025 18:10:40 GMT-0500 (Central Daylight Time),472218.2000000477,CFD-WM-006-013-HC.jpg,1000,dash,I,m,800,4,2,68245.60000002384,403972.60000002384,8037,ATS,A,24
0,test,2,C,haborder.png,0,z,Wed Aug 06 2025 18:10:40 GMT-0500 (Central Daylight Time),482648.39999997616,CFD-BF-039-039-A.jpg,1900,solid,I,None,1515,8,2,3432.399999976158,479216.0,8037,ATS,A,1
1,test,2,C,haborder.png,1,m,Wed Aug 06 2025 18:10:40 GMT-0500 (Central Daylight Time),484847.7000000477,CFD-WM-004-005-HC.jpg,1000,solid,I,m,1169,12,2,5631.700000047684,479216.0,8037,ATS,A,2
2,test,2,C,haborder.png,1,z,Wed Aug 06 2025 18:10:40 GMT-0500 (Central Daylight Time),487363.39999997616,CFD-BF-023-013-A.jpg,1400,solid,I,z,1090,7,2,8147.399999976158,479216.0,8037,ATS,A,3
3,test,2,C,mfborder.png,1,m,Wed Aug 06 2025 18:10:40 GMT-0500 (Central Daylight Time),489713.0,CFD-BM-017-052-HC.jpg,1000,dash,I,m,1326,4,2,10497.0,479216.0,8037,ATS,A,4
3,test,2,C,mfborder.png,0,m,Wed Aug 06 2025 18:10:40 GMT-0500 (Central Daylight Time),493245.10000002384,CFD-BM-005-010-A.jpg,2000,dash,I,None,1516,5,2,14029.100000023842,479216.0,8037,ATS,A,5
4,test,2,C,haborder.png,1,m,Wed Aug 06 2025 18:10:40 GMT-0500 (Central Daylight Time),495744.0,CFD-WM-004-005-HC.jpg,1000,solid,I,m,1477,12,2,16528.0,479216.0,8037,ATS,A,6
4,test,2,C,mfborder.png,0,z,Wed Aug 06 2025 18:10:40 GMT-0500 (Central Daylight Time),498976.5,CFD-WF-017-016-HC.jpg,1700,dash,I,None,1515,1,2,19760.5,479216.0,8037,ATS,A,7
5,test,2,C,mfborder.png,1,z,Wed Aug 06 2025 18:10:40 GMT-0500 (Central Daylight Time),501542.5,CFD-BF-028-020-HC.jpg,1500,dash,I,z,1045,3,2,22326.5,479216.0,8037,ATS,A,8
5,test,2,C,haborder.png,0,z,Wed Aug 06 2025 18:10:40 GMT-0500 (Central Daylight Time),504907.89999997616,CFD-BF-039-039-A.jpg,1900,solid,I,m,1439,8,2,25691.899999976158,479216.0,8037,ATS,A,9
5,test,2,C,haborder.png,0,m,Wed Aug 06 2025 18:10:40 GMT-0500 (Central Daylight Time),508056.89999997616,CFD-BM-029-026-HC.jpg,1600,solid,I,None,1505,10,2,28840.899999976158,479216.0,8037,ATS,A,10
5,test,2,C,mfborder.png,0,m,Wed Aug 06 2025 18:10:40 GMT-0500 (Central Daylight Time),510789.5,CFD-WM-013-015-A.jpg,1200,dash,I,None,1516,6,2,31573.5,479216.0,8037,ATS,A,11
6,test,2,C,haborder.png,1,m,Wed Aug 06 2025 18:10:40 GMT-0500 (Central Daylight Time),513622.0,CFD-WM-004-005-HC.jpg,1500,solid,I,m,1312,11,2,34406.0,479216.0,8037,ATS,A,12
6,test,2,C,mfborder.png,0,m,Wed Aug 06 2025 18:10:40 GMT-0500 (Central Daylight Time),517154.0,CFD-BM-005-010-A.jpg,2000,dash,I,None,1516,5,2,37938.0,479216.0,8037,ATS,A,13
6,test,2,C,mfborder.png,0,m,Wed Aug 06 2025 18:10:40 GMT-0500 (Central Daylight Time),519686.7000000477,CFD-BM-017-052-HC.jpg,1000,dash,I,None,1516,4,2,40470.700000047684,479216.0,8037,ATS,A,14
7,test,2,C,haborder.png,1,z,Wed Aug 06 2025 18:10:40 GMT-0500 (Central Daylight Time),522219.10000002384,CFD-BF-023-013-A.jpg,1400,solid,I,z,1107,7,2,43003.10000002384,479216.0,8037,ATS,A,15
8,test,2,C,haborder.png,1,m,Wed Aug 06 2025 18:10:40 GMT-0500 (Central Daylight Time),525001.6000000238,CFD-BM-029-026-HC.jpg,1600,solid,I,m,1158,10,2,45785.60000002384,479216.0,8037,ATS,A,16
9,test,2,C,haborder.png,1,m,Wed Aug 06 2025 18:10:40 GMT-0500 (Central Daylight Time),527850.5,CFD-WM-004-005-HC.jpg,1500,solid,I,m,1332,11,2,48634.5,479216.0,8037,ATS,A,17
10,test,2,C,mfborder.png,1,z,Wed Aug 06 2025 18:10:40 GMT-0500 (Central Daylight Time),530933.5,CFD-WF-017-016-HC.jpg,1700,dash,I,z,1355,1,2,51717.5,479216.0,8037,ATS,A,18
11,test,2,C,mfborder.png,1,z,Wed Aug 06 2025 18:10:40 GMT-0500 (Central Daylight Time),533199.1000000238,CFD-WF-019-015-A.jpg,1600,dash,I,z,636,2,2,53983.10000002384,479216.0,8037,ATS,A,19
12,test,2,C,mfborder.png,1,z,Wed Aug 06 2025 18:10:40 GMT-0500 (Central Daylight Time),535464.8999999762,CFD-BF-028-020-HC.jpg,1500,dash,I,z,734,3,2,56248.89999997616,479216.0,8037,ATS,A,20
13,test,2,C,mfborder.png,1,m,Wed Aug 06 2025 18:10:40 GMT-0500 (Central Daylight Time),537897.7000000477,CFD-WM-013-015-A.jpg,1200,dash,I,m,1201,6,2,58681.700000047684,479216.0,8037,ATS,A,21
14,test,2,C,haborder.png,1,z,Wed Aug 06 2025 18:10:40 GMT-0500 (Central Daylight Time),540880.0,CFD-WF-003-014-A.jpg,1700,solid,I,z,1252,9,2,61664.0,479216.0,8037,ATS,A,22
14,test,2,C,mfborder.png,0,z,Wed Aug 06 2025 18:10:40 GMT-0500 (Central Daylight Time),543612.5,CFD-WF-019-015-A.jpg,1600,dash,I,m,1114,2,2,64396.5,479216.0,8037,ATS,A,23
15,test,2,C,haborder.png,1,z,Wed Aug 06 2025 18:10:40 GMT-0500 (Central Daylight Time),546528.0,CFD-WF-003-014-A.jpg,1700,solid,I,z,1193,9,2,67312.0,479216.0,8037,ATS,A,24
1,test,3,C,mfborder.png,1,m,Wed Aug 06 2025 18:10:40 GMT-0500 (Central Daylight Time),550777.0,CFD-BM-029-026-HC.jpg,1200,dash,I,m,1409,6,2,2632.5,548144.5,8037,ATS,A,1
1,test,3,C,haborder.png,0,m,Wed Aug 06 2025 18:10:40 GMT-0500 (Central Daylight Time),553359.3999999762,CFD-WF-002-008-HC.jpg,1500,solid,I,z,1061,11,2,5214.899999976158,548144.5,8037,ATS,A,2
2,test,3,C,mfborder.png,1,m,Wed Aug 06 2025 18:10:40 GMT-0500 (Central Daylight Time),555342.2000000477,CFD-WM-006-013-HC.jpg,1000,dash,I,m,954,4,2,7197.700000047684,548144.5,8037,ATS,A,3
2,test,3,C,haborder.png,0,m,Wed Aug 06 2025 18:10:40 GMT-0500 (Central Daylight Time),557708.1000000238,CFD-WF-017-016-HC.jpg,1000,solid,I,z,1340,12,2,9563.600000023842,548144.5,8037,ATS,A,4
2,test,3,C,haborder.png,0,z,Wed Aug 06 2025 18:10:40 GMT-0500 (Central Daylight Time),560540.5,CFD-BM-010-019-A.jpg,1700,solid,I,m,1106,9,2,12396.0,548144.5,8037,ATS,A,5
2,test,3,C,haborder.png,0,m,Wed Aug 06 2025 18:10:40 GMT-0500 (Central Daylight Time),563672.8999999762,CFD-BF-028-020-HC.jpg,1600,solid,I,None,1516,10,2,15528.399999976158,548144.5,8037,ATS,A,6
3,test,3,C,haborder.png,1,z,Wed Aug 06 2025 18:10:40 GMT-0500 (Central Daylight Time),566705.2000000477,CFD-BM-005-010-A.jpg,1900,solid,I,z,1109,8,2,18560.700000047684,548144.5,8037,ATS,A,7
4,test,3,C,haborder.png,1,z,Wed Aug 06 2025 18:10:40 GMT-0500 (Central Daylight Time),569537.5,CFD-BM-005-010-A.jpg,1900,solid,I,z,909,8,2,21393.0,548144.5,8037,ATS,A,8
4,test,3,C,haborder.png,0,m,Wed Aug 06 2025 18:10:40 GMT-0500 (Central Daylight Time),572386.8000000715,CFD-WF-002-008-HC.jpg,1500,solid,I,z,1332,11,2,24242.300000071526,548144.5,8037,ATS,A,9
5,test,3,C,haborder.png,1,m,Wed Aug 06 2025 18:10:40 GMT-0500 (Central Daylight Time),574719.3999999762,CFD-WF-017-016-HC.jpg,1000,solid,I,m,1311,12,2,26574.899999976158,548144.5,8037,ATS,A,10
5,test,3,C,mfborder.png,0,z,Wed Aug 06 2025 18:10:40 GMT-0500 (Central Daylight Time),577502.0,CFD-BF-010-005-HC.jpg,1700,dash,I,m,1054,1,2,29357.5,548144.5,8037,ATS,A,11
5,test,3,C,mfborder.png,0,z,Wed Aug 06 2025 18:10:40 GMT-0500 (Central Daylight Time),580251.0,CFD-BF-010-005-HC.jpg,1700,dash,I,m,1024,1,2,32106.5,548144.5,8037,ATS,A,12
5,test,3,C,haborder.png,0,z,Wed Aug 06 2025 18:10:40 GMT-0500 (Central Daylight Time),583483.2000000477,CFD-BM-010-019-A.jpg,1700,solid,I,None,1516,9,2,35338.700000047684,548144.5,8037,ATS,A,13
5,test,3,C,mfborder.png,0,m,Wed Aug 06 2025 18:10:40 GMT-0500 (Central Daylight Time),586449.2000000477,CFD-WM-019-013-A.jpg,2000,dash,I,z,935,5,2,38304.700000047684,548144.5,8037,ATS,A,14
5,test,3,C,haborder.png,0,z,Wed Aug 06 2025 18:10:40 GMT-0500 (Central Daylight Time),589347.7000000477,CFD-WM-013-015-A.jpg,1400,solid,I,m,1481,7,2,41203.200000047684,548144.5,8037,ATS,A,15
6,test,3,C,mfborder.png,1,z,Wed Aug 06 2025 18:10:40 GMT-0500 (Central Daylight Time),592147.1000000238,CFD-WF-003-014-A.jpg,1500,dash,I,z,1281,3,2,44002.60000002384,548144.5,8037,ATS,A,16
6,test,3,C,mfborder.png,0,m,Wed Aug 06 2025 18:10:40 GMT-0500 (Central Daylight Time),594679.8000000715,CFD-WM-006-013-HC.jpg,1000,dash,I,None,1516,4,2,46535.300000071526,548144.5,8037,ATS,A,17
7,test,3,C,haborder.png,1,m,Wed Aug 06 2025 18:10:40 GMT-0500 (Central Daylight Time),597763.2000000477,CFD-BF-028-020-HC.jpg,1600,solid,I,m,1451,10,2,49618.700000047684,548144.5,8037,ATS,A,18
8,test,3,C,mfborder.png,1,m,Wed Aug 06 2025 18:10:40 GMT-0500 (Central Daylight Time),599978.2000000477,CFD-BM-029-026-HC.jpg,1200,dash,I,m,999,6,2,51833.700000047684,548144.5,8037,ATS,A,19
8,test,3,C,mfborder.png,0,z,Wed Aug 06 2025 18:10:40 GMT-0500 (Central Daylight Time),603110.6000000238,CFD-BF-023-013-A.jpg,1600,dash,I,None,1517,2,2,54966.10000002384,548144.5,8037,ATS,A,20
9,test,3,C,mfborder.png,1,z,Wed Aug 06 2025 18:10:40 GMT-0500 (Central Daylight Time),605676.3000000715,CFD-WF-003-014-A.jpg,1500,dash,I,z,1047,3,2,57531.800000071526,548144.5,8037,ATS,A,21
9,test,3,C,haborder.png,0,z,Wed Aug 06 2025 18:10:40 GMT-0500 (Central Daylight Time),608608.8000000715,CFD-WM-013-015-A.jpg,1400,solid,I,None,1516,7,2,60464.300000071526,548144.5,8037,ATS,A,22
9,test,3,C,mfborder.png,0,m,Wed Aug 06 2025 18:10:40 GMT-0500 (Central Daylight Time),612140.8999999762,CFD-WM-019-013-A.jpg,2000,dash,I,None,1516,5,2,63996.39999997616,548144.5,8037,ATS,A,23
10,test,3,C,mfborder.png,1,z,Wed Aug 06 2025 18:10:40 GMT-0500 (Central Daylight Time),615206.7000000477,CFD-BF-023-013-A.jpg,1600,dash,I,z,1440,2,2,67062.20000004768,548144.5,8037,ATS,A,24
1,test,4,C,mfborder.png,1,m,Wed Aug 06 2025 18:10:40 GMT-0500 (Central Daylight Time),620005.1000000238,CFD-WM-013-015-A.jpg,1200,dash,I,m,1329,6,2,2549.2999999523163,617455.8000000715,8037,ATS,A,1
2,test,4,C,mfborder.png,1,z,Wed Aug 06 2025 18:10:40 GMT-0500 (Central Daylight Time),622870.8999999762,CFD-WF-019-015-A.jpg,1600,dash,I,z,1236,2,2,5415.099999904633,617455.8000000715,8037,ATS,A,2
3,test,4,C,haborder.png,1,z,Wed Aug 06 2025 18:10:40 GMT-0500 (Central Daylight Time),625886.6000000238,CFD-BF-039-039-A.jpg,1900,solid,I,z,1095,8,2,8430.799999952316,617455.8000000715,8037,ATS,A,3
4,test,4,C,haborder.png,1,m,Wed Aug 06 2025 18:10:40 GMT-0500 (Central Daylight Time),628269.2000000477,CFD-WM-004-005-HC.jpg,1000,solid,I,m,1355,12,2,10813.399999976158,617455.8000000715,8037,ATS,A,4
5,test,4,C,haborder.png,1,m,Wed Aug 06 2025 18:10:40 GMT-0500 (Central Daylight Time),631334.8999999762,CFD-BM-029-026-HC.jpg,1600,solid,I,m,1436,10,2,13879.099999904633,617455.8000000715,8037,ATS,A,5
5,test,4,C,haborder.png,0,m,Wed Aug 06 2025 18:10:40 GMT-0500 (Central Daylight Time),634333.7000000477,CFD-BM-029-026-HC.jpg,1600,solid,I,z,1371,10,2,16877.899999976158,617455.8000000715,8037,ATS,A,6
6,test,4,C,haborder.png,1,z,Wed Aug 06 2025 18:10:40 GMT-0500 (Central Daylight Time),637549.6000000238,CFD-WF-003-014-A.jpg,1700,solid,I,z,1488,9,2,20093.799999952316,617455.8000000715,8037,ATS,A,7
6,test,4,C,mfborder.png,0,z,Wed Aug 06 2025 18:10:40 GMT-0500 (Central Daylight Time),640682.1000000238,CFD-WF-019-015-A.jpg,1600,dash,I,None,1516,2,2,23226.299999952316,617455.8000000715,8037,ATS,A,8
6,test,4,C,mfborder.png,0,m,Wed Aug 06 2025 18:10:40 GMT-0500 (Central Daylight Time),643414.5,CFD-WM-013-015-A.jpg,1200,dash,I,None,1516,6,2,25958.699999928474,617455.8000000715,8037,ATS,A,9
7,test,4,C,mfborder.png,1,m,Wed Aug 06 2025 18:10:40 GMT-0500 (Central Daylight Time),645780.3000000715,CFD-BM-017-052-HC.jpg,1000,dash,I,m,1339,4,2,28324.5,617455.8000000715,8037,ATS,A,10
8,test,4,C,mfborder.png,1,z,Wed Aug 06 2025 18:10:40 GMT-0500 (Central Daylight Time),648895.7000000477,CFD-WF-017-016-HC.jpg,1700,dash,I,z,1384,1,2,31439.899999976158,617455.8000000715,8037,ATS,A,11
9,test,4,C,mfborder.png,1,z,Wed Aug 06 2025 18:10:40 GMT-0500 (Central Daylight Time),651562.1000000238,CFD-WF-017-016-HC.jpg,1700,dash,I,z,933,1,2,34106.299999952316,617455.8000000715,8037,ATS,A,12
10,test,4,C,haborder.png,1,z,Wed Aug 06 2025 18:10:40 GMT-0500 (Central Daylight Time),654327.8000000715,CFD-BF-023-013-A.jpg,1400,solid,I,z,1336,7,2,36872.0,617455.8000000715,8037,ATS,A,13
11,test,4,C,haborder.png,1,z,Wed Aug 06 2025 18:10:40 GMT-0500 (Central Daylight Time),656943.8999999762,CFD-BF-023-013-A.jpg,1400,solid,I,z,1186,7,2,39488.09999990463,617455.8000000715,8037,ATS,A,14
12,test,4,C,mfborder.png,1,m,Wed Aug 06 2025 18:10:40 GMT-0500 (Central Daylight Time),659126.2000000477,CFD-BM-017-052-HC.jpg,1000,dash,I,m,1162,4,2,41670.39999997616,617455.8000000715,8037,ATS,A,15
13,test,4,C,haborder.png,1,z,Wed Aug 06 2025 18:10:40 GMT-0500 (Central Daylight Time),661975.2000000477,CFD-WF-003-014-A.jpg,1700,solid,I,z,1127,9,2,44519.39999997616,617455.8000000715,8037,ATS,A,16
13,test,4,C,mfborder.png,0,m,Wed Aug 06 2025 18:10:40 GMT-0500 (Central Daylight Time),665340.8999999762,CFD-BM-005-010-A.jpg,2000,dash,I,z,1346,5,2,47885.09999990463,617455.8000000715,8037,ATS,A,17
13,test,4,C,mfborder.png,0,z,Wed Aug 06 2025 18:10:40 GMT-0500 (Central Daylight Time),668373.3999999762,CFD-BF-028-020-HC.jpg,1500,dash,I,None,1516,3,2,50917.59999990463,617455.8000000715,8037,ATS,A,18
13,test,4,C,haborder.png,0,m,Wed Aug 06 2025 18:10:40 GMT-0500 (Central Daylight Time),671448.5,CFD-WM-004-005-HC.jpg,1500,solid,I,None,1558,11,2,53992.699999928474,617455.8000000715,8037,ATS,A,19
14,test,4,C,haborder.png,1,m,Wed Aug 06 2025 18:10:40 GMT-0500 (Central Daylight Time),674054.8999999762,CFD-WM-004-005-HC.jpg,1500,solid,I,m,1087,11,2,56599.09999990463,617455.8000000715,8037,ATS,A,20
14,test,4,C,mfborder.png,0,z,Wed Aug 06 2025 18:10:40 GMT-0500 (Central Daylight Time),677087.3999999762,CFD-BF-028-020-HC.jpg,1500,dash,I,None,1516,3,2,59631.59999990463,617455.8000000715,8037,ATS,A,21
14,test,4,C,mfborder.png,0,m,Wed Aug 06 2025 18:10:40 GMT-0500 (Central Daylight Time),680619.3999999762,CFD-BM-005-010-A.jpg,2000,dash,I,None,1515,5,2,63163.59999990463,617455.8000000715,8037,ATS,A,22
14,test,4,C,haborder.png,0,z,Wed Aug 06 2025 18:10:40 GMT-0500 (Central Daylight Time),684051.7000000477,CFD-BF-039-039-A.jpg,1900,solid,I,None,1515,8,2,66595.89999997616,617455.8000000715,8037,ATS,A,23
15,test,4,C,haborder.png,1,m,Wed Aug 06 2025 18:10:40 GMT-0500 (Central Daylight Time),685084.5,CFD-WM-004-005-HC.jpg,1000,solid,I,m,6,12,2,67628.69999992847,617455.8000000715,8037,ATS,A,24
