acc_sum,block_c,block_dur,condition,correct,correct_response,countdown,datetime,endtime,project,response,response_time,response_time_test1_response,response_time_test2_response,row_sel,same,session_number,start_end,starttime,stim1,stim2,subject_id,task,task_vers,time_test1,time_test2,trial
1,1,0.0,prac,1,z,30000.0,Tue May 13 2025 12:11:39 GMT-0400 (Eastern Daylight Time),52562.599999427795,I,z,950,,,3,yes,2,2476.199999809265,50086.39999961853,practrial3.png,practrial3.png,9009,PC,C,,,1
2,1,0.0,prac,1,z,30000.0,Tue May 13 2025 12:11:39 GMT-0400 (Eastern Daylight Time),55062.5,I,z,962,,,1,yes,2,2491.6000003814697,52570.89999961853,practrial1.png,practrial1.png,9009,PC,C,,,2
3,1,0.0,prac,1,m,30000.0,Tue May 13 2025 12:11:39 GMT-0400 (Eastern Daylight Time),57845.599999427795,I,m,1244,,,4,no,2,2773.0999994277954,55072.5,practrial4.png,practrial4b.png,9009,PC,C,,,3
3,1,0.0,prac,0,m,30000.0,Tue May 13 2025 12:11:39 GMT-0400 (Eastern Daylight Time),60362.300000190735,I,z,990,,,2,no,2,2508.0,57854.300000190735,practrial2.png,practrial2b.png,9009,PC,C,,,4
3,1,0.0,prac,0,m,30000.0,Tue May 13 2025 12:11:39 GMT-0400 (Eastern Daylight Time),63112.199999809265,I,z,1217,,,6,no,2,2741.300000190735,60370.89999961853,practrial6.png,practrial6b.png,9009,PC,C,,,5
4,1,0.0,prac,1,z,30000.0,Tue May 13 2025 12:11:39 GMT-0400 (Eastern Daylight Time),65645.69999980927,I,z,1002,,,5,yes,2,2522.5,63123.199999809265,practrial5.png,practrial5.png,9009,PC,C,,,6
1,1,1.8989999294281006,test,1,z,28101.0000705719,Tue May 13 2025 12:11:39 GMT-0400 (Eastern Daylight Time),77312.80000019073,I,z,1885,1885,,1,yes,2,1896.3000001907349,75416.5,test1trial1.png,test1trial1.png,9009,PC,C,73594,,1
2,1,2.8499999046325684,test,1,m,27150.00009536743,Tue May 13 2025 12:11:39 GMT-0400 (Eastern Daylight Time),78263.19999980927,I,m,941,941,,2,no,2,943.6000003814697,77319.5999994278,test1trial2.png,test1trial2b.png,9009,PC,C,75498,,2
3,1,3.9819998741149902,test,1,z,26018.00012588501,Tue May 13 2025 12:11:39 GMT-0400 (Eastern Daylight Time),79395.80000019073,I,z,1109,1109,,3,yes,2,1124.2000007629395,78271.5999994278,test1trial3.png,test1trial3.png,9009,PC,C,76450,,3
4,1,4.915999889373779,test,1,m,25084.00011062622,Tue May 13 2025 12:11:39 GMT-0400 (Eastern Daylight Time),80329.19999980927,I,m,914,914,,4,no,2,927.1000003814697,79402.0999994278,test1trial4.png,test1trial4b.png,9009,PC,C,77581,,4
5,1,6.131999969482422,test,1,z,23868.000030517578,Tue May 13 2025 12:11:39 GMT-0400 (Eastern Daylight Time),81545.80000019073,I,z,1204,1204,,5,yes,2,1208.7000007629395,80337.0999994278,test1trial5.png,test1trial5.png,9009,PC,C,78515,,5
6,1,7.48199987411499,test,1,m,22518.00012588501,Tue May 13 2025 12:11:39 GMT-0400 (Eastern Daylight Time),82895.80000019073,I,m,1327,1327,,6,no,2,1340.9000005722046,81554.89999961853,test1trial6.png,test1trial6b.png,9009,PC,C,79736,,6
7,1,8.516000032424927,test,1,z,21483.999967575073,Tue May 13 2025 12:11:39 GMT-0400 (Eastern Daylight Time),83928.89999961853,I,z,1015,1015,,7,yes,2,1026.8000001907349,82902.0999994278,test1trial7.png,test1trial7.png,9009,PC,C,81080,,7
8,1,10.516000032424927,test,1,m,19483.999967575073,Tue May 13 2025 12:11:39 GMT-0400 (Eastern Daylight Time),85929.0,I,m,1980,1980,,8,no,2,1992.6000003814697,83936.39999961853,test1trial8.png,test1trial8b.png,9009,PC,C,82115,,8
9,1,11.48199987411499,test,1,z,18518.00012588501,Tue May 13 2025 12:11:39 GMT-0400 (Eastern Daylight Time),86895.89999961853,I,z,950,950,,9,yes,2,960.8000001907349,85935.0999994278,test1trial9.png,test1trial9.png,9009,PC,C,84113,,9
10,1,12.598999977111816,test,1,m,17401.000022888184,Tue May 13 2025 12:11:39 GMT-0400 (Eastern Daylight Time),88012.5,I,m,1092,1092,,10,no,2,1109.5,86903.0,test1trial10.png,test1trial10b.png,9009,PC,C,85082,,10
11,1,13.6489999294281,test,1,z,16351.0000705719,Tue May 13 2025 12:11:39 GMT-0400 (Eastern Daylight Time),89062.39999961853,I,z,1026,1026,,11,yes,2,1043.3999996185303,88019.0,test1trial11.png,test1trial11.png,9009,PC,C,86197,,11
12,1,15.716000080108643,test,1,m,14283.999919891357,Tue May 13 2025 12:11:39 GMT-0400 (Eastern Daylight Time),91129.0,I,m,2044,2044,,12,no,2,2056.6000003814697,89072.39999961853,test1trial12.png,test1trial12b.png,9009,PC,C,87251,,12
13,1,16.832000017166138,test,1,m,13167.999982833862,Tue May 13 2025 12:11:39 GMT-0400 (Eastern Daylight Time),92245.80000019073,I,m,1092,1092,,13,no,2,1109.5,91136.30000019073,test1trial13.png,test1trial13b.png,9009,PC,C,89315,,13
14,1,18.06599998474121,test,1,m,11934.000015258789,Tue May 13 2025 12:11:39 GMT-0400 (Eastern Daylight Time),93479.0999994278,I,m,1216,1216,,14,no,2,1226.7999992370605,92252.30000019073,test1trial14.png,test1trial14b.png,9009,PC,C,90430,,14
15,1,19.082000017166138,test,1,z,10917.999982833862,Tue May 13 2025 12:11:39 GMT-0400 (Eastern Daylight Time),94495.80000019073,I,z,998,998,,15,yes,2,1009.1000003814697,93486.69999980927,test1trial15.png,test1trial15.png,9009,PC,C,91665,,15
16,1,20.499000072479248,test,1,m,9500.999927520752,Tue May 13 2025 12:11:39 GMT-0400 (Eastern Daylight Time),95912.30000019073,I,m,1407,1407,,16,no,2,1410.1000003814697,94502.19999980927,test1trial16.png,test1trial16b.png,9009,PC,C,92680,,16
17,1,21.532000064849854,test,1,z,8467.999935150146,Tue May 13 2025 12:11:39 GMT-0400 (Eastern Daylight Time),96945.80000019073,I,z,1015,1015,,17,yes,2,1027.3000001907349,95918.5,test1trial17.png,test1trial17.png,9009,PC,C,94096,,17
18,1,22.832000017166138,test,1,m,7167.999982833862,Tue May 13 2025 12:11:39 GMT-0400 (Eastern Daylight Time),98245.89999961853,I,m,1284,1284,,18,no,2,1293.6999998092651,96952.19999980927,test1trial18.png,test1trial18b.png,9009,PC,C,95130,,18
19,1,24.25,test,1,m,5750.0,Tue May 13 2025 12:11:39 GMT-0400 (Eastern Daylight Time),99663.30000019073,I,m,1407,1407,,19,no,2,1410.1000003814697,98253.19999980927,test1trial19.png,test1trial19b.png,9009,PC,C,96432,,19
20,1,25.348999977111816,test,1,z,4651.000022888184,Tue May 13 2025 12:11:39 GMT-0400 (Eastern Daylight Time),100762.39999961853,I,z,1079,1079,,20,yes,2,1092.8999996185303,99669.5,test1trial20.png,test1trial20.png,9009,PC,C,97848,,20
21,1,26.41599988937378,test,1,z,3584.0001106262207,Tue May 13 2025 12:11:39 GMT-0400 (Eastern Daylight Time),101829.0999994278,I,z,1044,1044,,21,yes,2,1060.0,100769.0999994278,test1trial21.png,test1trial21.png,9009,PC,C,98947,,21
22,1,27.631999969482422,test,1,z,2368.000030517578,Tue May 13 2025 12:11:39 GMT-0400 (Eastern Daylight Time),103045.89999961853,I,z,1188,1188,,22,yes,2,1207.8000001907349,101838.0999994278,test1trial22.png,test1trial22.png,9009,PC,C,100018,,22
23,1,28.516000032424927,test,1,z,1483.9999675750732,Tue May 13 2025 12:11:39 GMT-0400 (Eastern Daylight Time),103929.0,I,z,861,861,,23,yes,2,873.1999998092651,103055.80000019073,test1trial23.png,test1trial23.png,9009,PC,C,101234,,23
24,1,29.431999921798706,test,1,z,568.000078201294,Tue May 13 2025 12:11:39 GMT-0400 (Eastern Daylight Time),104845.89999961853,I,z,889,889,,24,yes,2,908.1999998092651,103937.69999980927,test1trial24.png,test1trial24.png,9009,PC,C,102118,,24
24,1,30.016000032424927,test,0,m,-16.000032424926758,Tue May 13 2025 12:11:39 GMT-0400 (Eastern Daylight Time),105429.30000019073,I,None,574,574,,25,no,2,575.9000005722046,104853.39999961853,test1trial25.png,test1trial25b.png,9009,PC,C,103032,,25
1,2,1.182999849319458,test,1,m,28817.000150680542,Tue May 13 2025 12:11:39 GMT-0400 (Eastern Daylight Time),112862.0999994278,I,m,1174,,1174.0,1,no,2,8008.699999809265,104853.39999961853,test2trial1.png,test2trial1b.png,9009,PC,C,,109864.0,1
2,2,2.682999849319458,test,1,m,27317.000150680542,Tue May 13 2025 12:11:39 GMT-0400 (Eastern Daylight Time),114362.80000019073,I,m,1479,,1479.0,2,no,2,9509.400000572205,104853.39999961853,test2trial2.png,test2trial2b.png,9009,PC,C,,111048.0,2
3,2,3.682999849319458,test,1,z,26317.000150680542,Tue May 13 2025 12:11:39 GMT-0400 (Eastern Daylight Time),115362.5,I,z,978,,978.0,3,yes,2,10509.10000038147,104853.39999961853,test2trial3.png,test2trial3.png,9009,PC,C,,112549.0,3
4,2,4.565999984741211,test,1,z,25434.00001525879,Tue May 13 2025 12:11:39 GMT-0400 (Eastern Daylight Time),116245.80000019073,I,z,857,,857.0,4,yes,2,11392.400000572205,104853.39999961853,test2trial4.png,test2trial4.png,9009,PC,C,,113550.0,4
5,2,5.849999904632568,test,1,z,24150.00009536743,Tue May 13 2025 12:11:39 GMT-0400 (Eastern Daylight Time),117529.0999994278,I,z,1270,,1270.0,5,yes,2,12675.699999809265,104853.39999961853,test2trial5.png,test2trial5.png,9009,PC,C,,114433.0,5
6,2,7.299999952316284,test,1,z,22700.000047683716,Tue May 13 2025 12:11:39 GMT-0400 (Eastern Daylight Time),118979.19999980927,I,z,1427,,1427.0,6,yes,2,14125.800000190735,104853.39999961853,test2trial6.png,test2trial6.png,9009,PC,C,,115716.0,6
7,2,8.599999904632568,test,1,m,21400.00009536743,Tue May 13 2025 12:11:39 GMT-0400 (Eastern Daylight Time),120279.0,I,m,1291,,1291.0,7,no,2,15425.60000038147,104853.39999961853,test2trial7.png,test2trial7b.png,9009,PC,C,,117164.0,7
8,2,9.83299994468689,test,1,m,20167.00005531311,Tue May 13 2025 12:11:39 GMT-0400 (Eastern Daylight Time),121512.30000019073,I,m,1224,,1224.0,8,no,2,16658.900000572205,104853.39999961853,test2trial8.png,test2trial8b.png,9009,PC,C,,118463.0,8
9,2,10.983999967575073,test,1,z,19016.000032424927,Tue May 13 2025 12:11:39 GMT-0400 (Eastern Daylight Time),122663.30000019073,I,z,1142,,1142.0,9,yes,2,17809.900000572205,104853.39999961853,test2trial9.png,test2trial9.png,9009,PC,C,,119697.0,9
10,2,12.266000032424927,test,1,z,17733.999967575073,Tue May 13 2025 12:11:39 GMT-0400 (Eastern Daylight Time),123945.5,I,z,1270,,1270.0,10,yes,2,19092.10000038147,104853.39999961853,test2trial10.png,test2trial10.png,9009,PC,C,,120848.0,10
11,2,13.266000032424927,test,1,m,16733.999967575073,Tue May 13 2025 12:11:39 GMT-0400 (Eastern Daylight Time),124945.69999980927,I,m,984,,984.0,11,no,2,20092.300000190735,104853.39999961853,test2trial11.png,test2trial11b.png,9009,PC,C,,122127.0,11
12,2,14.66599988937378,test,1,m,15334.00011062622,Tue May 13 2025 12:11:39 GMT-0400 (Eastern Daylight Time),126345.89999961853,I,m,1386,,1386.0,12,no,2,21492.5,104853.39999961853,test2trial12.png,test2trial12b.png,9009,PC,C,,123133.0,12
13,2,15.66599988937378,test,1,z,14334.00011062622,Tue May 13 2025 12:11:39 GMT-0400 (Eastern Daylight Time),127345.80000019073,I,z,989,,989.0,13,yes,2,22492.400000572205,104853.39999961853,test2trial13.png,test2trial13.png,9009,PC,C,,124530.0,13
14,2,16.899999856948853,test,1,m,13100.000143051147,Tue May 13 2025 12:11:39 GMT-0400 (Eastern Daylight Time),128579.0,I,m,1219,,1219.0,14,no,2,23725.60000038147,104853.39999961853,test2trial14.png,test2trial14b.png,9009,PC,C,,125531.0,14
15,2,17.882999897003174,test,1,m,12117.000102996826,Tue May 13 2025 12:11:39 GMT-0400 (Eastern Daylight Time),129562.5,I,m,972,,972.0,15,no,2,24709.10000038147,104853.39999961853,test2trial15.png,test2trial15b.png,9009,PC,C,,126763.0,15
15,2,18.882999897003174,test,0,m,11117.000102996826,Tue May 13 2025 12:11:39 GMT-0400 (Eastern Daylight Time),130562.39999961853,I,z,975,,975.0,16,no,2,25709.0,104853.39999961853,test2trial16.png,test2trial16b.png,9009,PC,C,,127752.0,16
16,2,19.932999849319458,test,1,z,10067.000150680542,Tue May 13 2025 12:11:39 GMT-0400 (Eastern Daylight Time),131612.5,I,z,1027,,1027.0,17,yes,2,26759.10000038147,104853.39999961853,test2trial17.png,test2trial17.png,9009,PC,C,,128747.0,17
17,2,20.83299994468689,test,1,z,9167.00005531311,Tue May 13 2025 12:11:39 GMT-0400 (Eastern Daylight Time),132512.5,I,z,882,,882.0,18,yes,2,27659.10000038147,104853.39999961853,test2trial18.png,test2trial18.png,9009,PC,C,,129797.0,18
18,2,21.83299994468689,test,1,z,8167.00005531311,Tue May 13 2025 12:11:39 GMT-0400 (Eastern Daylight Time),133512.5,I,z,982,,982.0,19,yes,2,28659.10000038147,104853.39999961853,test2trial19.png,test2trial19.png,9009,PC,C,,130697.0,19
19,2,22.715999841690063,test,1,z,7284.0001583099365,Tue May 13 2025 12:11:39 GMT-0400 (Eastern Daylight Time),134395.89999961853,I,z,865,,865.0,20,yes,2,29542.5,104853.39999961853,test2trial20.png,test2trial20.png,9009,PC,C,,131701.0,20
20,2,23.566999912261963,test,1,z,6433.000087738037,Tue May 13 2025 12:11:39 GMT-0400 (Eastern Daylight Time),135246.5,I,z,840,,840.0,21,yes,2,30393.10000038147,104853.39999961853,test2trial21.png,test2trial21.png,9009,PC,C,,132583.0,21
21,2,24.682999849319458,test,1,m,5317.000150680542,Tue May 13 2025 12:11:39 GMT-0400 (Eastern Daylight Time),136362.5,I,m,1096,,1096.0,22,no,2,31509.10000038147,104853.39999961853,test2trial22.png,test2trial22b.png,9009,PC,C,,133431.0,22
21,2,26.132999897003174,test,0,m,3867.000102996826,Tue May 13 2025 12:11:39 GMT-0400 (Eastern Daylight Time),137812.5,I,z,1436,,1436.0,23,no,2,32959.10000038147,104853.39999961853,test2trial23.png,test2trial23b.png,9009,PC,C,,134547.0,23
22,2,27.115999937057495,test,1,m,2884.000062942505,Tue May 13 2025 12:11:39 GMT-0400 (Eastern Daylight Time),138795.80000019073,I,m,969,,969.0,24,no,2,33942.400000572205,104853.39999961853,test2trial24.png,test2trial24b.png,9009,PC,C,,135998.0,24
23,2,28.31599998474121,test,1,z,1684.000015258789,Tue May 13 2025 12:11:39 GMT-0400 (Eastern Daylight Time),139995.80000019073,I,z,1179,,1179.0,25,yes,2,35142.400000572205,104853.39999961853,test2trial25.png,test2trial25.png,9009,PC,C,,136980.0,25
23,2,29.799999952316284,test,0,z,200.00004768371582,Tue May 13 2025 12:11:39 GMT-0400 (Eastern Daylight Time),141479.0,I,m,1472,,1472.0,26,no,2,36625.60000038147,104853.39999961853,test2trial26.png,test2trial26b.png,9009,PC,C,,138183.0,26
23,2,30.016000032424927,test,0,z,-16.000032424926758,Tue May 13 2025 12:11:39 GMT-0400 (Eastern Daylight Time),141695.80000019073,I,None,210,,210.0,27,no,2,36842.400000572205,104853.39999961853,test2trial27.png,test2trial27b.png,9009,PC,C,,139663.0,27
