block_c,block_dur,condition,countdown,datetime,endtime,list,multichar_response,project,response,response_time,session_number,start_end,starttime,subject_id,task,task_vers,trial
,,,,Thu Jun 04 2026 13:32:24 GMT-0500 (Central Daylight Time),,,,O,space,451,1,,,7752,WL,C,
prac,,0,,Thu Jun 04 2026 13:32:24 GMT-0500 (Central Daylight Time),,NA,o,O,o,342,1,,,7752,WL,C,1.0
prac,,0,,Thu Jun 04 2026 13:32:24 GMT-0500 (Central Daylight Time),,NA,oo,O,o,133,1,,,7752,WL,C,1.0
prac,,0,,Thu Jun 04 2026 13:32:24 GMT-0500 (Central Daylight Time),,NA,ooa,O,a,170,1,,,7752,WL,C,1.0
prac,,0,,Thu Jun 04 2026 13:32:24 GMT-0500 (Central Daylight Time),,NA,ooar,O,r,284,1,,,7752,WL,C,1.0
prac,,0,,Thu Jun 04 2026 13:32:24 GMT-0500 (Central Daylight Time),,NA,ooarenter,O,enter,9998,1,,,7752,WL,C,1.0
1,1.681999921798706,learn,58318.000078201294,Thu Jun 04 2026 13:32:24 GMT-0500 (Central Daylight Time),122870.5,A,t,O,t,1673,1,1682.4000000357628,121188.09999996424,7752,WL,C,1.0
1,1.9149999618530273,learn,58085.00003814697,Thu Jun 04 2026 13:32:24 GMT-0500 (Central Daylight Time),123102.69999998808,A,to,O,o,214,1,1914.6000000238419,121188.09999996424,7752,WL,C,1.0
1,2.2319998741149902,learn,57768.00012588501,Thu Jun 04 2026 13:32:24 GMT-0500 (Central Daylight Time),123420.29999995232,A,tow,O,w,304,1,2232.199999988079,121188.09999996424,7752,WL,C,1.0
1,2.7149999141693115,learn,57285.00008583069,Thu Jun 04 2026 13:32:24 GMT-0500 (Central Daylight Time),123902.59999996424,A,towe,O,e,474,1,2714.5,121188.09999996424,7752,WL,C,1.0
1,2.865000009536743,learn,57134.99999046326,Thu Jun 04 2026 13:32:24 GMT-0500 (Central Daylight Time),124052.59999996424,A,tower,O,r,135,1,2864.5,121188.09999996424,7752,WL,C,1.0
1,8.813999891281128,learn,51186.00010871887,Thu Jun 04 2026 13:32:24 GMT-0500 (Central Daylight Time),130002.19999998808,A,towerenter,O,enter,5927,1,8814.100000023842,121188.09999996424,7752,WL,C,1.0
1,9.94599986076355,learn,50054.00013923645,Thu Jun 04 2026 13:32:24 GMT-0500 (Central Daylight Time),131133.59999996424,A,q,O,q,1122,1,1130.8999999761581,130002.69999998808,7752,WL,C,2.0
1,10.328999996185303,learn,49671.0000038147,Thu Jun 04 2026 13:32:24 GMT-0500 (Central Daylight Time),131517.5,A,qu,O,u,364,1,1514.800000011921,130002.69999998808,7752,WL,C,2.0
1,10.679999828338623,learn,49320.00017166138,Thu Jun 04 2026 13:32:24 GMT-0500 (Central Daylight Time),131868.0,A,que,O,e,336,1,1865.300000011921,130002.69999998808,7752,WL,C,2.0
1,10.861999988555908,learn,49138.00001144409,Thu Jun 04 2026 13:32:24 GMT-0500 (Central Daylight Time),132050.59999996424,A,quee,O,e,162,1,2047.8999999761581,130002.69999998808,7752,WL,C,2.0
1,11.77899980545044,learn,48221.00019454956,Thu Jun 04 2026 13:32:24 GMT-0500 (Central Daylight Time),132967.19999998808,A,queen,O,n,899,1,2964.5,130002.69999998808,7752,WL,C,2.0
1,12.394999980926514,learn,47605.000019073486,Thu Jun 04 2026 13:32:24 GMT-0500 (Central Daylight Time),133583.09999996424,A,queenenter,O,enter,597,1,3580.399999976158,130002.69999998808,7752,WL,C,2.0
1,13.579999923706055,learn,46420.000076293945,Thu Jun 04 2026 13:32:24 GMT-0500 (Central Daylight Time),134767.69999998808,A,b,O,b,1162,1,1184.199999988079,133583.5,7752,WL,C,3.0
1,13.944999933242798,learn,46055.0000667572,Thu Jun 04 2026 13:32:24 GMT-0500 (Central Daylight Time),135132.79999995232,A,bo,O,o,344,1,1549.2999999523163,133583.5,7752,WL,C,3.0
1,14.276999950408936,learn,45723.000049591064,Thu Jun 04 2026 13:32:24 GMT-0500 (Central Daylight Time),135464.79999995232,A,boy,O,y,321,1,1881.2999999523163,133583.5,7752,WL,C,3.0
1,15.194000005722046,learn,44805.999994277954,Thu Jun 04 2026 13:32:24 GMT-0500 (Central Daylight Time),136382.09999996424,A,boyenter,O,enter,911,1,2798.599999964237,133583.5,7752,WL,C,3.0
1,16.562999963760376,learn,43437.000036239624,Thu Jun 04 2026 13:32:24 GMT-0500 (Central Daylight Time),137750.59999996424,A,c,O,c,1362,1,1368.199999988079,136382.39999997616,7752,WL,C,4.0
1,16.82799983024597,learn,43172.00016975403,Thu Jun 04 2026 13:32:24 GMT-0500 (Central Daylight Time),138016.09999996424,A,ca,O,a,243,1,1633.699999988079,136382.39999997616,7752,WL,C,4.0
1,17.15999984741211,learn,42840.00015258789,Thu Jun 04 2026 13:32:24 GMT-0500 (Central Daylight Time),138348.39999997616,A,cat,O,t,309,1,1966.0,136382.39999997616,7752,WL,C,4.0
1,17.277999877929688,learn,42722.00012207031,Thu Jun 04 2026 13:32:24 GMT-0500 (Central Daylight Time),138465.59999996424,A,catt,O,t,102,1,2083.199999988079,136382.39999997616,7752,WL,C,4.0
1,17.47699999809265,learn,42523.00000190735,Thu Jun 04 2026 13:32:24 GMT-0500 (Central Daylight Time),138664.79999995232,A,cattl,O,l,177,1,2282.399999976158,136382.39999997616,7752,WL,C,4.0
1,17.57699990272522,learn,42423.00009727478,Thu Jun 04 2026 13:32:24 GMT-0500 (Central Daylight Time),138765.19999998808,A,cattle,O,e,82,1,2382.800000011921,136382.39999997616,7752,WL,C,4.0
1,18.526999950408936,learn,41473.000049591064,Thu Jun 04 2026 13:32:24 GMT-0500 (Central Daylight Time),139715.29999995232,A,cattleenter,O,enter,937,1,3332.899999976158,136382.39999997616,7752,WL,C,4.0
1,21.176999807357788,learn,38823.00019264221,Thu Jun 04 2026 13:32:24 GMT-0500 (Central Daylight Time),142365.0,A,b,O,b,2629,1,2649.400000035763,139715.59999996424,7752,WL,C,5.0
1,21.375999927520752,learn,38624.00007247925,Thu Jun 04 2026 13:32:24 GMT-0500 (Central Daylight Time),142563.79999995232,A,bo,O,o,174,1,2848.199999988079,139715.59999996424,7752,WL,C,5.0
1,21.740999937057495,learn,38259.000062942505,Thu Jun 04 2026 13:32:24 GMT-0500 (Central Daylight Time),142929.0,A,boy,O,y,344,1,3213.400000035763,139715.59999996424,7752,WL,C,5.0
1,22.524999856948853,learn,37475.00014305115,Thu Jun 04 2026 13:32:24 GMT-0500 (Central Daylight Time),143713.09999996424,A,boyenter,O,enter,765,1,3997.5,139715.59999996424,7752,WL,C,5.0
1,31.539000034332275,learn,28460.999965667725,Thu Jun 04 2026 13:32:24 GMT-0500 (Central Daylight Time),152727.5,A,c,O,c,8991,1,9014.0,143713.5,7752,WL,C,6.0
1,31.75599980354309,learn,28244.00019645691,Thu Jun 04 2026 13:32:24 GMT-0500 (Central Daylight Time),152943.69999998808,A,co,O,o,206,1,9230.199999988079,143713.5,7752,WL,C,6.0
1,31.953999996185303,learn,28046.000003814697,Thu Jun 04 2026 13:32:24 GMT-0500 (Central Daylight Time),153142.39999997616,A,cor,O,r,180,1,9428.899999976158,143713.5,7752,WL,C,6.0
1,32.30399990081787,learn,27696.00009918213,Thu Jun 04 2026 13:32:24 GMT-0500 (Central Daylight Time),153492.09999996424,A,corn,O,n,342,1,9778.599999964237,143713.5,7752,WL,C,6.0
1,33.05499982833862,learn,26945.000171661377,Thu Jun 04 2026 13:32:24 GMT-0500 (Central Daylight Time),154243.09999996424,A,cornenter,O,enter,738,1,10529.599999964237,143713.5,7752,WL,C,6.0
1,60.013999938964844,learn,-13.99993896484375,Thu Jun 04 2026 13:32:24 GMT-0500 (Central Daylight Time),181202.19999998808,A,None,O,None,26953,1,26958.80000001192,154243.39999997616,7752,WL,C,7.0
2,2.25,learn,57750.0,Thu Jun 04 2026 13:32:24 GMT-0500 (Central Daylight Time),259526.59999996424,A,t,O,t,2228,1,2249.800000011921,257276.79999995232,7752,WL,C,1.0
2,2.5,learn,57500.0,Thu Jun 04 2026 13:32:24 GMT-0500 (Central Daylight Time),259776.59999996424,A,to,O,o,229,1,2499.800000011921,257276.79999995232,7752,WL,C,1.0
2,2.634000062942505,learn,57365.999937057495,Thu Jun 04 2026 13:32:24 GMT-0500 (Central Daylight Time),259910.5,A,tow,O,w,121,1,2633.7000000476837,257276.79999995232,7752,WL,C,1.0
2,2.949000120162964,learn,57050.999879837036,Thu Jun 04 2026 13:32:24 GMT-0500 (Central Daylight Time),260225.79999995232,A,towe,O,e,295,1,2949.0,257276.79999995232,7752,WL,C,1.0
2,3.069000005722046,learn,56930.999994277954,Thu Jun 04 2026 13:32:24 GMT-0500 (Central Daylight Time),260345.0,A,tower,O,r,105,1,3068.2000000476837,257276.79999995232,7752,WL,C,1.0
2,4.0990002155303955,learn,55900.999784469604,Thu Jun 04 2026 13:32:24 GMT-0500 (Central Daylight Time),261375.5,A,towerenter,O,enter,1019,1,4098.700000047684,257276.79999995232,7752,WL,C,1.0
2,4.89900016784668,learn,55100.99983215332,Thu Jun 04 2026 13:32:24 GMT-0500 (Central Daylight Time),262175.5,A,w,O,w,790,1,799.6000000238419,261375.89999997616,7752,WL,C,2.0
2,5.134999990463257,learn,54865.00000953674,Thu Jun 04 2026 13:32:24 GMT-0500 (Central Daylight Time),262411.1999999881,A,wh,O,h,214,1,1035.300000011921,261375.89999997616,7752,WL,C,2.0
2,5.233000040054321,learn,54766.99995994568,Thu Jun 04 2026 13:32:24 GMT-0500 (Central Daylight Time),262508.7999999523,A,whe,O,e,89,1,1132.8999999761581,261375.89999997616,7752,WL,C,2.0
2,5.433000087738037,learn,54566.99991226196,Thu Jun 04 2026 13:32:24 GMT-0500 (Central Daylight Time),262709.1999999881,A,whea,O,a,181,1,1333.300000011921,261375.89999997616,7752,WL,C,2.0
2,5.515000104904175,learn,54484.999895095825,Thu Jun 04 2026 13:32:24 GMT-0500 (Central Daylight Time),262791.7999999523,A,wheat,O,t,74,1,1415.8999999761581,261375.89999997616,7752,WL,C,2.0
2,6.3500001430511475,learn,53649.99985694885,Thu Jun 04 2026 13:32:24 GMT-0500 (Central Daylight Time),263626.6999999881,A,wheatenter,O,enter,819,1,2250.800000011921,261375.89999997616,7752,WL,C,2.0
2,6.815999984741211,learn,53184.00001525879,Thu Jun 04 2026 13:32:24 GMT-0500 (Central Daylight Time),264092.59999996424,A,q,O,q,445,1,465.5,263627.09999996424,7752,WL,C,3.0
2,6.982000112533569,learn,53017.99988746643,Thu Jun 04 2026 13:32:24 GMT-0500 (Central Daylight Time),264258.2999999523,A,qu,O,u,145,1,631.1999999880791,263627.09999996424,7752,WL,C,3.0
2,7.332000017166138,learn,52667.99998283386,Thu Jun 04 2026 13:32:24 GMT-0500 (Central Daylight Time),264608.39999997616,A,que,O,e,328,1,981.3000000119209,263627.09999996424,7752,WL,C,3.0
2,7.466000080108643,learn,52533.99991989136,Thu Jun 04 2026 13:32:24 GMT-0500 (Central Daylight Time),264742.1999999881,A,quee,O,e,117,1,1115.1000000238419,263627.09999996424,7752,WL,C,3.0
2,7.648000001907349,learn,52351.99999809265,Thu Jun 04 2026 13:32:24 GMT-0500 (Central Daylight Time),264924.59999996424,A,queen,O,n,165,1,1297.5,263627.09999996424,7752,WL,C,3.0
2,8.481000185012817,learn,51518.99981498718,Thu Jun 04 2026 13:32:24 GMT-0500 (Central Daylight Time),265757.39999997616,A,queenenter,O,enter,816,1,2130.300000011921,263627.09999996424,7752,WL,C,3.0
2,9.282999992370605,learn,50717.000007629395,Thu Jun 04 2026 13:32:24 GMT-0500 (Central Daylight Time),266559.5,A,s,O,s,784,1,801.8000000119209,265757.6999999881,7752,WL,C,4.0
2,9.46500015258789,learn,50534.99984741211,Thu Jun 04 2026 13:32:24 GMT-0500 (Central Daylight Time),266741.2999999523,A,sh,O,h,160,1,983.5999999642372,265757.6999999881,7752,WL,C,4.0
2,9.598000049591064,learn,50401.999950408936,Thu Jun 04 2026 13:32:24 GMT-0500 (Central Daylight Time),266874.0,A,sho,O,o,112,1,1116.300000011921,265757.6999999881,7752,WL,C,4.0
2,9.698000192642212,learn,50301.99980735779,Thu Jun 04 2026 13:32:24 GMT-0500 (Central Daylight Time),266973.89999997616,A,shor,O,r,80,1,1216.199999988079,265757.6999999881,7752,WL,C,4.0
2,9.866000175476074,learn,50133.999824523926,Thu Jun 04 2026 13:32:24 GMT-0500 (Central Daylight Time),267142.6999999881,A,shore,O,e,150,1,1385.0,265757.6999999881,7752,WL,C,4.0
2,10.481000185012817,learn,49518.99981498718,Thu Jun 04 2026 13:32:24 GMT-0500 (Central Daylight Time),267757.5,A,shoreenter,O,enter,600,1,1999.800000011921,265757.6999999881,7752,WL,C,4.0
2,11.314000129699707,learn,48685.99987030029,Thu Jun 04 2026 13:32:24 GMT-0500 (Central Daylight Time),268590.59999996424,A,b,O,b,816,1,832.8000000119209,267757.7999999523,7752,WL,C,5.0
2,11.496999979019165,learn,48503.000020980835,Thu Jun 04 2026 13:32:24 GMT-0500 (Central Daylight Time),268773.7999999523,A,bo,O,o,163,1,1016.0,267757.7999999523,7752,WL,C,5.0
2,11.746999979019165,learn,48253.000020980835,Thu Jun 04 2026 13:32:24 GMT-0500 (Central Daylight Time),269023.1999999881,A,boy,O,y,229,1,1265.4000000357628,267757.7999999523,7752,WL,C,5.0
2,12.46399998664856,learn,47536.00001335144,Thu Jun 04 2026 13:32:24 GMT-0500 (Central Daylight Time),269739.7999999523,A,boyenter,O,enter,695,1,1982.0,267757.7999999523,7752,WL,C,5.0
2,14.578999996185303,learn,45421.0000038147,Thu Jun 04 2026 13:32:24 GMT-0500 (Central Daylight Time),271855.7999999523,A,n,O,n,2098,1,2115.699999988079,269740.09999996424,7752,WL,C,6.0
2,14.761000156402588,learn,45238.99984359741,Thu Jun 04 2026 13:32:24 GMT-0500 (Central Daylight Time),272037.09999996424,A,na,O,a,170,1,2297.0,269740.09999996424,7752,WL,C,6.0
2,14.913000106811523,learn,45086.99989318848,Thu Jun 04 2026 13:32:24 GMT-0500 (Central Daylight Time),272189.1999999881,A,nai,O,i,133,1,2449.100000023842,269740.09999996424,7752,WL,C,6.0
2,15.09600019454956,learn,44903.99980545044,Thu Jun 04 2026 13:32:24 GMT-0500 (Central Daylight Time),272372.2999999523,A,nail,O,l,163,1,2632.199999988079,269740.09999996424,7752,WL,C,6.0
2,16.02900004386902,learn,43970.99995613098,Thu Jun 04 2026 13:32:24 GMT-0500 (Central Daylight Time),273305.6999999881,A,nailenter,O,enter,919,1,3565.600000023842,269740.09999996424,7752,WL,C,6.0
2,18.647000074386597,learn,41352.9999256134,Thu Jun 04 2026 13:32:24 GMT-0500 (Central Daylight Time),275923.0,A,c,O,c,2596,1,2617.100000023842,273305.89999997616,7752,WL,C,7.0
2,18.81000018119812,learn,41189.99981880188,Thu Jun 04 2026 13:32:24 GMT-0500 (Central Daylight Time),276086.1999999881,A,co,O,o,146,1,2780.300000011921,273305.89999997616,7752,WL,C,7.0
2,18.961000204086304,learn,41038.999795913696,Thu Jun 04 2026 13:32:24 GMT-0500 (Central Daylight Time),276237.5,A,cor,O,r,137,1,2931.600000023842,273305.89999997616,7752,WL,C,7.0
2,19.278000116348267,learn,40721.99988365173,Thu Jun 04 2026 13:32:24 GMT-0500 (Central Daylight Time),276554.7999999523,A,corn,O,n,304,1,3248.899999976158,273305.89999997616,7752,WL,C,7.0
2,19.99400019645691,learn,40005.99980354309,Thu Jun 04 2026 13:32:24 GMT-0500 (Central Daylight Time),277270.5,A,cornenter,O,enter,698,1,3964.600000023842,273305.89999997616,7752,WL,C,7.0
2,24.79100012779236,learn,35208.99987220764,Thu Jun 04 2026 13:32:24 GMT-0500 (Central Daylight Time),282067.39999997616,A,s,O,s,4790,1,4796.600000023842,277270.7999999523,7752,WL,C,8.0
2,24.9760000705719,learn,35023.9999294281,Thu Jun 04 2026 13:32:24 GMT-0500 (Central Daylight Time),282252.7999999523,A,su,O,u,166,1,4982.0,277270.7999999523,7752,WL,C,8.0
2,25.20900011062622,learn,34790.99988937378,Thu Jun 04 2026 13:32:24 GMT-0500 (Central Daylight Time),282485.1999999881,A,sug,O,g,214,1,5214.400000035763,277270.7999999523,7752,WL,C,8.0
2,25.509999990463257,learn,34490.00000953674,Thu Jun 04 2026 13:32:24 GMT-0500 (Central Daylight Time),282786.39999997616,A,suga,O,a,289,1,5515.600000023842,277270.7999999523,7752,WL,C,8.0
2,25.695000171661377,learn,34304.99982833862,Thu Jun 04 2026 13:32:24 GMT-0500 (Central Daylight Time),282970.7999999523,A,sugar,O,r,161,1,5700.0,277270.7999999523,7752,WL,C,8.0
2,26.276000022888184,learn,33723.99997711182,Thu Jun 04 2026 13:32:24 GMT-0500 (Central Daylight Time),283551.7999999523,A,sugarenter,O,enter,569,1,6281.0,277270.7999999523,7752,WL,C,8.0
2,41.355000019073486,learn,18644.999980926514,Thu Jun 04 2026 13:32:24 GMT-0500 (Central Daylight Time),298631.0,A,b,O,b,15073,1,15078.800000011921,283552.1999999881,7752,WL,C,9.0
2,41.60600018501282,learn,18393.999814987183,Thu Jun 04 2026 13:32:24 GMT-0500 (Central Daylight Time),298882.6999999881,A,bo,O,o,240,1,15330.5,283552.1999999881,7752,WL,C,9.0
2,41.769999980926514,learn,18230.000019073486,Thu Jun 04 2026 13:32:24 GMT-0500 (Central Daylight Time),299046.6999999881,A,bod,O,d,145,1,15494.5,283552.1999999881,7752,WL,C,9.0
2,41.97100019454956,learn,18028.99980545044,Thu Jun 04 2026 13:32:24 GMT-0500 (Central Daylight Time),299247.59999996424,A,body,O,y,182,1,15695.399999976158,283552.1999999881,7752,WL,C,9.0
2,42.73699998855591,learn,17263.00001144409,Thu Jun 04 2026 13:32:24 GMT-0500 (Central Daylight Time),300013.2999999523,A,bodyenter,O,enter,756,1,16461.099999964237,283552.1999999881,7752,WL,C,9.0
2,49.01800012588501,learn,10981.99987411499,Thu Jun 04 2026 13:32:24 GMT-0500 (Central Daylight Time),306294.7999999523,A,c,O,c,6265,1,6281.299999952316,300013.5,7752,WL,C,10.0
2,49.318000078201294,learn,10681.999921798706,Thu Jun 04 2026 13:32:24 GMT-0500 (Central Daylight Time),306594.09999996424,A,ca,O,a,286,1,6580.599999964237,300013.5,7752,WL,C,10.0
2,49.66799998283386,learn,10332.000017166138,Thu Jun 04 2026 13:32:24 GMT-0500 (Central Daylight Time),306944.59999996424,A,cat,O,t,341,1,6931.099999964237,300013.5,7752,WL,C,10.0
2,49.818000078201294,learn,10181.999921798706,Thu Jun 04 2026 13:32:24 GMT-0500 (Central Daylight Time),307094.1999999881,A,catt,O,t,134,1,7080.699999988079,300013.5,7752,WL,C,10.0
2,49.96900010108948,learn,10030.999898910522,Thu Jun 04 2026 13:32:24 GMT-0500 (Central Daylight Time),307245.0,A,cattl,O,l,134,1,7231.5,300013.5,7752,WL,C,10.0
2,50.069000005722046,learn,9930.999994277954,Thu Jun 04 2026 13:32:24 GMT-0500 (Central Daylight Time),307345.09999996424,A,cattle,O,e,82,1,7331.599999964237,300013.5,7752,WL,C,10.0
2,50.70100021362305,learn,9298.999786376953,Thu Jun 04 2026 13:32:24 GMT-0500 (Central Daylight Time),307977.1999999881,A,cattleenter,O,enter,619,1,7963.699999988079,300013.5,7752,WL,C,10.0
2,60.01600003242493,learn,-16.000032424926758,Thu Jun 04 2026 13:32:24 GMT-0500 (Central Daylight Time),317292.09999996424,A,None,O,None,9309,1,9314.599999964237,307977.5,7752,WL,C,11.0
3,2.6659998893737793,learn,57334.00011062622,Thu Jun 04 2026 13:32:24 GMT-0500 (Central Daylight Time),418092.89999997616,A,t,O,t,2651,1,2666.300000011921,415426.59999996424,7752,WL,C,1.0
3,2.882999897003174,learn,57117.000102996826,Thu Jun 04 2026 13:32:24 GMT-0500 (Central Daylight Time),418309.59999996424,A,to,O,o,196,1,2883.0,415426.59999996424,7752,WL,C,1.0
3,3.0829999446868896,learn,56917.00005531311,Thu Jun 04 2026 13:32:24 GMT-0500 (Central Daylight Time),418509.6999999881,A,tow,O,w,190,1,3083.100000023842,415426.59999996424,7752,WL,C,1.0
3,3.4830000400543213,learn,56516.99995994568,Thu Jun 04 2026 13:32:24 GMT-0500 (Central Daylight Time),418909.59999996424,A,towe,O,e,378,1,3483.0,415426.59999996424,7752,WL,C,1.0
3,3.5999999046325684,learn,56400.00009536743,Thu Jun 04 2026 13:32:24 GMT-0500 (Central Daylight Time),419026.2999999523,A,tower,O,r,105,1,3599.699999988079,415426.59999996424,7752,WL,C,1.0
3,4.316999912261963,learn,55683.00008773804,Thu Jun 04 2026 13:32:24 GMT-0500 (Central Daylight Time),419743.2999999523,A,towerenter,O,enter,699,1,4316.699999988079,415426.59999996424,7752,WL,C,1.0
3,6.131999969482422,learn,53868.00003051758,Thu Jun 04 2026 13:32:24 GMT-0500 (Central Daylight Time),421558.5,A,w,O,w,1806,1,1814.9000000357628,419743.59999996424,7752,WL,C,2.0
3,6.331000089645386,learn,53668.999910354614,Thu Jun 04 2026 13:32:24 GMT-0500 (Central Daylight Time),421757.89999997616,A,wh,O,h,183,1,2014.300000011921,419743.59999996424,7752,WL,C,2.0
3,6.499000072479248,learn,53500.99992752075,Thu Jun 04 2026 13:32:24 GMT-0500 (Central Daylight Time),421925.2999999523,A,whe,O,e,153,1,2181.699999988079,419743.59999996424,7752,WL,C,2.0
3,6.765000104904175,learn,53234.999895095825,Thu Jun 04 2026 13:32:24 GMT-0500 (Central Daylight Time),422191.59999996424,A,whes,O,s,247,1,2448.0,419743.59999996424,7752,WL,C,2.0
3,6.931999921798706,learn,53068.000078201294,Thu Jun 04 2026 13:32:24 GMT-0500 (Central Daylight Time),422358.39999997616,A,whest,O,t,149,1,2614.800000011921,419743.59999996424,7752,WL,C,2.0
3,15.278000116348267,learn,44721.99988365173,Thu Jun 04 2026 13:32:24 GMT-0500 (Central Daylight Time),430705.09999996424,A,whestdelete,O,delete,8328,1,10961.5,419743.59999996424,7752,WL,C,2.0
3,17.211999893188477,learn,42788.00010681152,Thu Jun 04 2026 13:32:24 GMT-0500 (Central Daylight Time),432638.1999999881,A,whestdeletew,O,w,1909,1,12894.600000023842,419743.59999996424,7752,WL,C,2.0
3,17.378999948501587,learn,42621.00005149841,Thu Jun 04 2026 13:32:24 GMT-0500 (Central Daylight Time),432805.59999996424,A,whestdeletewh,O,h,149,1,13062.0,419743.59999996424,7752,WL,C,2.0
3,17.49399995803833,learn,42506.00004196167,Thu Jun 04 2026 13:32:24 GMT-0500 (Central Daylight Time),432921.0,A,whestdeletewhe,O,e,95,1,13177.400000035763,419743.59999996424,7752,WL,C,2.0
3,20.943000078201294,learn,39056.999921798706,Thu Jun 04 2026 13:32:24 GMT-0500 (Central Daylight Time),436369.2999999523,A,whestdeletewheenter,O,enter,3433,1,16625.69999998808,419743.59999996424,7752,WL,C,2.0
3,22.125,learn,37875.0,Thu Jun 04 2026 13:32:24 GMT-0500 (Central Daylight Time),437552.0,A,w,O,w,1173,1,1182.5,436369.5,7752,WL,C,3.0
3,22.325999975204468,learn,37674.00002479553,Thu Jun 04 2026 13:32:24 GMT-0500 (Central Daylight Time),437752.89999997616,A,wh,O,h,192,1,1383.3999999761581,436369.5,7752,WL,C,3.0
3,22.42799997329712,learn,37572.00002670288,Thu Jun 04 2026 13:32:24 GMT-0500 (Central Daylight Time),437854.1999999881,A,whe,O,e,79,1,1484.699999988079,436369.5,7752,WL,C,3.0
3,22.776000022888184,learn,37223.99997711182,Thu Jun 04 2026 13:32:24 GMT-0500 (Central Daylight Time),438203.0,A,whes,O,s,335,1,1833.5,436369.5,7752,WL,C,3.0
3,22.97699999809265,learn,37023.00000190735,Thu Jun 04 2026 13:32:24 GMT-0500 (Central Daylight Time),438403.89999997616,A,whest,O,t,178,1,2034.3999999761581,436369.5,7752,WL,C,3.0
3,25.859999895095825,learn,34140.000104904175,Thu Jun 04 2026 13:32:24 GMT-0500 (Central Daylight Time),441286.5,A,whestdelete,O,delete,2861,1,4917.0,436369.5,7752,WL,C,3.0
3,27.174999952316284,learn,32825.000047683716,Thu Jun 04 2026 13:32:24 GMT-0500 (Central Daylight Time),442601.59999996424,A,whestdeleteenter,O,enter,1302,1,6232.099999964237,436369.5,7752,WL,C,3.0
3,28.009999990463257,learn,31990.000009536743,Thu Jun 04 2026 13:32:24 GMT-0500 (Central Daylight Time),443437.0,A,w,O,w,811,1,835.1000000238419,442601.89999997616,7752,WL,C,4.0
3,28.27500009536743,learn,31724.99990463257,Thu Jun 04 2026 13:32:24 GMT-0500 (Central Daylight Time),443701.09999996424,A,wh,O,h,249,1,1099.199999988079,442601.89999997616,7752,WL,C,4.0
3,28.556999921798706,learn,31443.000078201294,Thu Jun 04 2026 13:32:24 GMT-0500 (Central Daylight Time),443984.0,A,whe,O,e,264,1,1382.1000000238419,442601.89999997616,7752,WL,C,4.0
3,28.891000032424927,learn,31108.999967575073,Thu Jun 04 2026 13:32:24 GMT-0500 (Central Daylight Time),444317.59999996424,A,whea,O,a,326,1,1715.699999988079,442601.89999997616,7752,WL,C,4.0
3,29.157000064849854,learn,30842.999935150146,Thu Jun 04 2026 13:32:24 GMT-0500 (Central Daylight Time),444583.7999999523,A,wheat,O,t,249,1,1981.8999999761581,442601.89999997616,7752,WL,C,4.0
3,30.122999906539917,learn,29877.000093460083,Thu Jun 04 2026 13:32:24 GMT-0500 (Central Daylight Time),445549.7999999523,A,wheatenter,O,enter,958,1,2947.899999976158,442601.89999997616,7752,WL,C,4.0
3,31.10700011253357,learn,28892.99988746643,Thu Jun 04 2026 13:32:24 GMT-0500 (Central Daylight Time),446533.39999997616,A,q,O,q,968,1,983.3999999761581,445550.0,7752,WL,C,5.0
3,31.30900001525879,learn,28690.99998474121,Thu Jun 04 2026 13:32:24 GMT-0500 (Central Daylight Time),446735.5,A,qu,O,u,184,1,1185.5,445550.0,7752,WL,C,5.0
3,31.890000104904175,learn,28109.999895095825,Thu Jun 04 2026 13:32:24 GMT-0500 (Central Daylight Time),447316.2999999523,A,que,O,e,566,1,1766.2999999523163,445550.0,7752,WL,C,5.0
3,32.140000104904175,learn,27859.999895095825,Thu Jun 04 2026 13:32:24 GMT-0500 (Central Daylight Time),447566.59999996424,A,quee,O,e,245,1,2016.5999999642372,445550.0,7752,WL,C,5.0
3,32.875,learn,27125.0,Thu Jun 04 2026 13:32:24 GMT-0500 (Central Daylight Time),448301.09999996424,A,queen,O,n,729,1,2751.099999964237,445550.0,7752,WL,C,5.0
3,33.52300000190735,learn,26476.99999809265,Thu Jun 04 2026 13:32:24 GMT-0500 (Central Daylight Time),448949.89999997616,A,queenenter,O,enter,633,1,3399.899999976158,445550.0,7752,WL,C,5.0
3,35.10700011253357,learn,24892.99988746643,Thu Jun 04 2026 13:32:24 GMT-0500 (Central Daylight Time),450533.1999999881,A,d,O,d,1561,1,1583.0,448950.1999999881,7752,WL,C,6.0
3,35.289000034332275,learn,24710.999965667725,Thu Jun 04 2026 13:32:24 GMT-0500 (Central Daylight Time),450716.0,A,do,O,o,167,1,1765.800000011921,448950.1999999881,7752,WL,C,6.0
3,35.42199993133545,learn,24578.00006866455,Thu Jun 04 2026 13:32:24 GMT-0500 (Central Daylight Time),450849.0,A,doc,O,c,112,1,1898.800000011921,448950.1999999881,7752,WL,C,6.0
3,35.706000089645386,learn,24293.999910354614,Thu Jun 04 2026 13:32:24 GMT-0500 (Central Daylight Time),451132.2999999523,A,doct,O,t,261,1,2182.099999964237,448950.1999999881,7752,WL,C,6.0
3,35.87299990653992,learn,24127.000093460083,Thu Jun 04 2026 13:32:24 GMT-0500 (Central Daylight Time),451299.59999996424,A,docto,O,o,154,1,2349.399999976158,448950.1999999881,7752,WL,C,6.0
3,35.956000089645386,learn,24043.999910354614,Thu Jun 04 2026 13:32:24 GMT-0500 (Central Daylight Time),451382.5,A,doctor,O,r,60,1,2432.300000011921,448950.1999999881,7752,WL,C,6.0
3,36.706000089645386,learn,23293.999910354614,Thu Jun 04 2026 13:32:24 GMT-0500 (Central Daylight Time),452132.39999997616,A,doctorenter,O,enter,733,1,3182.199999988079,448950.1999999881,7752,WL,C,6.0
3,36.97099995613098,learn,23029.00004386902,Thu Jun 04 2026 13:32:24 GMT-0500 (Central Daylight Time),452397.89999997616,A,s,O,s,244,1,265.19999998807907,452132.6999999881,7752,WL,C,7.0
3,37.121999979019165,learn,22878.000020980835,Thu Jun 04 2026 13:32:24 GMT-0500 (Central Daylight Time),452548.89999997616,A,sh,O,h,130,1,416.19999998807907,452132.6999999881,7752,WL,C,7.0
3,37.2720000743866,learn,22727.999925613403,Thu Jun 04 2026 13:32:24 GMT-0500 (Central Daylight Time),452698.59999996424,A,sho,O,o,136,1,565.8999999761581,452132.6999999881,7752,WL,C,7.0
3,37.371999979019165,learn,22628.000020980835,Thu Jun 04 2026 13:32:24 GMT-0500 (Central Daylight Time),452798.6999999881,A,shor,O,r,82,1,666.0,452132.6999999881,7752,WL,C,7.0
3,37.5220000743866,learn,22477.999925613403,Thu Jun 04 2026 13:32:24 GMT-0500 (Central Daylight Time),452948.09999996424,A,shore,O,e,133,1,815.3999999761581,452132.6999999881,7752,WL,C,7.0
3,38.371999979019165,learn,21628.000020980835,Thu Jun 04 2026 13:32:24 GMT-0500 (Central Daylight Time),453798.39999997616,A,shoreenter,O,enter,846,1,1665.699999988079,452132.6999999881,7752,WL,C,7.0
3,38.92199993133545,learn,21078.00006866455,Thu Jun 04 2026 13:32:24 GMT-0500 (Central Daylight Time),454348.7999999523,A,h,O,h,535,1,550.1999999880791,453798.59999996424,7752,WL,C,8.0
3,39.07100009918213,learn,20928.99990081787,Thu Jun 04 2026 13:32:24 GMT-0500 (Central Daylight Time),454497.1999999881,A,ho,O,o,128,1,698.6000000238419,453798.59999996424,7752,WL,C,8.0
3,39.2720000743866,learn,20727.999925613403,Thu Jun 04 2026 13:32:24 GMT-0500 (Central Daylight Time),454698.0,A,hom,O,m,178,1,899.4000000357628,453798.59999996424,7752,WL,C,8.0
3,39.37100005149841,learn,20628.999948501587,Thu Jun 04 2026 13:32:24 GMT-0500 (Central Daylight Time),454797.6999999881,A,home,O,e,92,1,999.1000000238419,453798.59999996424,7752,WL,C,8.0
3,40.23799991607666,learn,19762.00008392334,Thu Jun 04 2026 13:32:24 GMT-0500 (Central Daylight Time),455664.1999999881,A,homeenter,O,enter,855,1,1865.6000000238419,453798.59999996424,7752,WL,C,8.0
3,40.75500011444092,learn,19244.999885559082,Thu Jun 04 2026 13:32:24 GMT-0500 (Central Daylight Time),456181.39999997616,A,l,O,l,502,1,516.8999999761581,455664.5,7752,WL,C,9.0
3,40.88599991798401,learn,19114.00008201599,Thu Jun 04 2026 13:32:24 GMT-0500 (Central Daylight Time),456312.59999996424,A,le,O,e,120,1,648.0999999642372,455664.5,7752,WL,C,9.0
3,41.170000076293945,learn,18829.999923706055,Thu Jun 04 2026 13:32:24 GMT-0500 (Central Daylight Time),456596.1999999881,A,let,O,t,278,1,931.6999999880791,455664.5,7752,WL,C,9.0
3,41.30299997329712,learn,18697.00002670288,Thu Jun 04 2026 13:32:24 GMT-0500 (Central Daylight Time),456729.0,A,lett,O,t,114,1,1064.5,455664.5,7752,WL,C,9.0
3,41.47099995613098,learn,18529.00004386902,Thu Jun 04 2026 13:32:24 GMT-0500 (Central Daylight Time),456897.09999996424,A,lette,O,e,150,1,1232.5999999642372,455664.5,7752,WL,C,9.0
3,41.57299995422363,learn,18427.000045776367,Thu Jun 04 2026 13:32:24 GMT-0500 (Central Daylight Time),456999.09999996424,A,letter,O,r,85,1,1334.5999999642372,455664.5,7752,WL,C,9.0
3,42.50200009346008,learn,17497.999906539917,Thu Jun 04 2026 13:32:24 GMT-0500 (Central Daylight Time),457928.89999997616,A,letterenter,O,enter,919,1,2264.399999976158,455664.5,7752,WL,C,9.0
3,43.55299997329712,learn,16447.00002670288,Thu Jun 04 2026 13:32:24 GMT-0500 (Central Daylight Time),458980.0,A,n,O,n,1031,1,1050.7000000476837,457929.2999999523,7752,WL,C,10.0
3,43.687000036239624,learn,16312.999963760376,Thu Jun 04 2026 13:32:24 GMT-0500 (Central Daylight Time),459113.09999996424,A,na,O,a,121,1,1183.800000011921,457929.2999999523,7752,WL,C,10.0
3,43.80299997329712,learn,16197.00002670288,Thu Jun 04 2026 13:32:24 GMT-0500 (Central Daylight Time),459229.6999999881,A,nai,O,i,99,1,1300.4000000357628,457929.2999999523,7752,WL,C,10.0
3,43.97000002861023,learn,16029.99997138977,Thu Jun 04 2026 13:32:24 GMT-0500 (Central Daylight Time),459397.0,A,nail,O,l,149,1,1467.7000000476837,457929.2999999523,7752,WL,C,10.0
3,44.3529999256134,learn,15647.000074386597,Thu Jun 04 2026 13:32:24 GMT-0500 (Central Daylight Time),459779.1999999881,A,nailenter,O,enter,369,1,1849.9000000357628,457929.2999999523,7752,WL,C,10.0
3,44.83800005912781,learn,15161.999940872192,Thu Jun 04 2026 13:32:24 GMT-0500 (Central Daylight Time),460264.2999999523,A,b,O,b,466,1,484.69999998807907,459779.59999996424,7752,WL,C,11.0
3,44.98699998855591,learn,15013.000011444092,Thu Jun 04 2026 13:32:24 GMT-0500 (Central Daylight Time),460413.6999999881,A,bo,O,o,132,1,634.1000000238419,459779.59999996424,7752,WL,C,11.0
3,45.168999910354614,learn,14831.000089645386,Thu Jun 04 2026 13:32:24 GMT-0500 (Central Daylight Time),460595.6999999881,A,bod,O,d,169,1,816.1000000238419,459779.59999996424,7752,WL,C,11.0
3,45.401999950408936,learn,14598.000049591064,Thu Jun 04 2026 13:32:24 GMT-0500 (Central Daylight Time),460828.7999999523,A,body,O,y,212,1,1049.199999988079,459779.59999996424,7752,WL,C,11.0
3,46.13499999046326,learn,13865.000009536743,Thu Jun 04 2026 13:32:24 GMT-0500 (Central Daylight Time),461561.7999999523,A,bodyenter,O,enter,711,1,1782.199999988079,459779.59999996424,7752,WL,C,11.0
3,49.73300004005432,learn,10266.999959945679,Thu Jun 04 2026 13:32:24 GMT-0500 (Central Daylight Time),465159.5,A,s,O,s,3587,1,3597.400000035763,461562.09999996424,7752,WL,C,12.0
3,49.88499999046326,learn,10115.000009536743,Thu Jun 04 2026 13:32:24 GMT-0500 (Central Daylight Time),465311.7999999523,A,sh,O,h,135,1,3749.699999988079,461562.09999996424,7752,WL,C,12.0
3,50.03399991989136,learn,9966.000080108643,Thu Jun 04 2026 13:32:24 GMT-0500 (Central Daylight Time),465460.89999997616,A,sho,O,o,135,1,3898.800000011921,461562.09999996424,7752,WL,C,12.0
3,50.134000062942505,learn,9865.999937057495,Thu Jun 04 2026 13:32:24 GMT-0500 (Central Daylight Time),465560.1999999881,A,shor,O,r,81,1,3998.100000023842,461562.09999996424,7752,WL,C,12.0
3,50.28399991989136,learn,9716.000080108643,Thu Jun 04 2026 13:32:24 GMT-0500 (Central Daylight Time),465711.0,A,shore,O,e,135,1,4148.900000035763,461562.09999996424,7752,WL,C,12.0
3,51.25200009346008,learn,8747.999906539917,Thu Jun 04 2026 13:32:24 GMT-0500 (Central Daylight Time),466679.0,A,shoreenter,O,enter,946,1,5116.900000035763,461562.09999996424,7752,WL,C,12.0
3,52.8510000705719,learn,7148.999929428101,Thu Jun 04 2026 13:32:24 GMT-0500 (Central Daylight Time),468277.1999999881,A,h,O,h,1582,1,1598.0,466679.1999999881,7752,WL,C,13.0
3,53.06599998474121,learn,6934.000015258789,Thu Jun 04 2026 13:32:24 GMT-0500 (Central Daylight Time),468492.89999997616,A,ho,O,o,199,1,1813.699999988079,466679.1999999881,7752,WL,C,13.0
3,53.33200001716614,learn,6667.999982833862,Thu Jun 04 2026 13:32:24 GMT-0500 (Central Daylight Time),468759.0,A,hom,O,m,254,1,2079.800000011921,466679.1999999881,7752,WL,C,13.0
3,53.45199990272522,learn,6548.00009727478,Thu Jun 04 2026 13:32:24 GMT-0500 (Central Daylight Time),468878.39999997616,A,home,O,e,99,1,2199.199999988079,466679.1999999881,7752,WL,C,13.0
3,54.16700005531311,learn,5832.99994468689,Thu Jun 04 2026 13:32:24 GMT-0500 (Central Daylight Time),469593.89999997616,A,homeenter,O,enter,694,1,2914.699999988079,466679.1999999881,7752,WL,C,13.0
3,59.3989999294281,learn,601.0000705718994,Thu Jun 04 2026 13:32:24 GMT-0500 (Central Daylight Time),474825.09999996424,A,s,O,s,5212,1,5231.0,469594.09999996424,7752,WL,C,14.0
3,59.58200001716614,learn,417.9999828338623,Thu Jun 04 2026 13:32:24 GMT-0500 (Central Daylight Time),475008.1999999881,A,su,O,u,173,1,5414.100000023842,469594.09999996424,7752,WL,C,14.0
3,59.91499996185303,learn,85.00003814697266,Thu Jun 04 2026 13:32:24 GMT-0500 (Central Daylight Time),475341.09999996424,A,sug,O,g,315,1,5747.0,469594.09999996424,7752,WL,C,14.0
3,60.015000104904175,learn,-15.000104904174805,Thu Jun 04 2026 13:32:24 GMT-0500 (Central Daylight Time),475441.59999996424,A,sugNone,O,None,96,1,5847.5,469594.09999996424,7752,WL,C,14.0
4,1.5510001182556152,learn,58448.999881744385,Thu Jun 04 2026 13:32:24 GMT-0500 (Central Daylight Time),545702.5,A,t,O,t,1530,1,1550.4000000357628,544152.0999999642,7752,WL,C,1.0
4,1.7180001735687256,learn,58281.999826431274,Thu Jun 04 2026 13:32:24 GMT-0500 (Central Daylight Time),545869.3999999762,A,to,O,o,144,1,1717.300000011921,544152.0999999642,7752,WL,C,1.0
4,2.118000030517578,learn,57881.99996948242,Thu Jun 04 2026 13:32:24 GMT-0500 (Central Daylight Time),546269.2999999523,A,tow,O,w,393,1,2117.199999988079,544152.0999999642,7752,WL,C,1.0
4,2.367000102996826,learn,57632.999897003174,Thu Jun 04 2026 13:32:24 GMT-0500 (Central Daylight Time),546518.6999999881,A,towe,O,e,231,1,2366.600000023842,544152.0999999642,7752,WL,C,1.0
4,2.5500001907348633,learn,57449.99980926514,Thu Jun 04 2026 13:32:24 GMT-0500 (Central Daylight Time),546702.0999999642,A,tower,O,r,177,1,2550.0,544152.0999999642,7752,WL,C,1.0
4,3.75,learn,56250.0,Thu Jun 04 2026 13:32:24 GMT-0500 (Central Daylight Time),547901.5,A,towerenter,O,enter,1190,1,3749.400000035763,544152.0999999642,7752,WL,C,1.0
4,4.383000135421753,learn,55616.99986457825,Thu Jun 04 2026 13:32:24 GMT-0500 (Central Daylight Time),548534.8999999762,A,w,O,w,624,1,633.1999999880791,547901.6999999881,7752,WL,C,2.0
4,4.9150002002716064,learn,55084.99979972839,Thu Jun 04 2026 13:32:24 GMT-0500 (Central Daylight Time),549067.0,A,wh,O,h,518,1,1165.300000011921,547901.6999999881,7752,WL,C,2.0
4,5.1650002002716064,learn,54834.99979972839,Thu Jun 04 2026 13:32:24 GMT-0500 (Central Daylight Time),549317.0999999642,A,whe,O,e,229,1,1415.3999999761581,547901.6999999881,7752,WL,C,2.0
4,5.466000080108643,learn,54533.99991989136,Thu Jun 04 2026 13:32:24 GMT-0500 (Central Daylight Time),549617.3999999762,A,whea,O,a,279,1,1715.699999988079,547901.6999999881,7752,WL,C,2.0
4,5.700000047683716,learn,54299.999952316284,Thu Jun 04 2026 13:32:24 GMT-0500 (Central Daylight Time),549852.0999999642,A,wheat,O,t,211,1,1950.3999999761581,547901.6999999881,7752,WL,C,2.0
4,6.3480000495910645,learn,53651.999950408936,Thu Jun 04 2026 13:32:24 GMT-0500 (Central Daylight Time),550500.0,A,wheatenter,O,enter,642,1,2598.300000011921,547901.6999999881,7752,WL,C,2.0
4,6.7820000648498535,learn,53217.99993515015,Thu Jun 04 2026 13:32:24 GMT-0500 (Central Daylight Time),550933.1999999881,A,q,O,q,420,1,433.0,550500.1999999881,7752,WL,C,3.0
4,7.04800009727478,learn,52951.99990272522,Thu Jun 04 2026 13:32:24 GMT-0500 (Central Daylight Time),551199.6999999881,A,qu,O,u,248,1,699.5,550500.1999999881,7752,WL,C,3.0
4,7.315999984741211,learn,52684.00001525879,Thu Jun 04 2026 13:32:24 GMT-0500 (Central Daylight Time),551467.3999999762,A,que,O,e,254,1,967.1999999880791,550500.1999999881,7752,WL,C,3.0
4,7.466000080108643,learn,52533.99991989136,Thu Jun 04 2026 13:32:24 GMT-0500 (Central Daylight Time),551617.3999999762,A,quee,O,e,129,1,1117.199999988079,550500.1999999881,7752,WL,C,3.0
4,7.615000009536743,learn,52384.99999046326,Thu Jun 04 2026 13:32:24 GMT-0500 (Central Daylight Time),551767.0999999642,A,queen,O,n,130,1,1266.8999999761581,550500.1999999881,7752,WL,C,3.0
4,8.383000135421753,learn,51616.99986457825,Thu Jun 04 2026 13:32:24 GMT-0500 (Central Daylight Time),552534.5,A,queenenter,O,enter,748,1,2034.300000011921,550500.1999999881,7752,WL,C,3.0
4,9.549000024795532,learn,50450.99997520447,Thu Jun 04 2026 13:32:24 GMT-0500 (Central Daylight Time),553700.5,A,s,O,s,1146,1,1165.9000000357628,552534.5999999642,7752,WL,C,4.0
4,9.698000192642212,learn,50301.99980735779,Thu Jun 04 2026 13:32:24 GMT-0500 (Central Daylight Time),553849.5,A,su,O,u,136,1,1314.9000000357628,552534.5999999642,7752,WL,C,4.0
4,9.930999994277954,learn,50069.000005722046,Thu Jun 04 2026 13:32:24 GMT-0500 (Central Daylight Time),554082.5,A,sug,O,g,211,1,1547.9000000357628,552534.5999999642,7752,WL,C,4.0
4,10.098000049591064,learn,49901.999950408936,Thu Jun 04 2026 13:32:24 GMT-0500 (Central Daylight Time),554249.5999999642,A,suga,O,a,152,1,1715.0,552534.5999999642,7752,WL,C,4.0
4,10.21500015258789,learn,49784.99984741211,Thu Jun 04 2026 13:32:24 GMT-0500 (Central Daylight Time),554366.2999999523,A,sugar,O,r,110,1,1831.699999988079,552534.5999999642,7752,WL,C,4.0
4,11.129000186920166,learn,48870.999813079834,Thu Jun 04 2026 13:32:24 GMT-0500 (Central Daylight Time),555281.0,A,sugarenter,O,enter,901,1,2746.400000035763,552534.5999999642,7752,WL,C,4.0
4,11.948000192642212,learn,48051.99980735779,Thu Jun 04 2026 13:32:24 GMT-0500 (Central Daylight Time),556099.5,A,h,O,h,798,1,818.2000000476837,555281.2999999523,7752,WL,C,5.0
4,12.114000082015991,learn,47885.99991798401,Thu Jun 04 2026 13:32:24 GMT-0500 (Central Daylight Time),556265.0999999642,A,ho,O,o,144,1,983.8000000119209,555281.2999999523,7752,WL,C,5.0
4,12.313000202178955,learn,47686.999797821045,Thu Jun 04 2026 13:32:24 GMT-0500 (Central Daylight Time),556464.6999999881,A,hom,O,m,180,1,1183.4000000357628,555281.2999999523,7752,WL,C,5.0
4,12.430000066757202,learn,47569.9999332428,Thu Jun 04 2026 13:32:24 GMT-0500 (Central Daylight Time),556581.3999999762,A,home,O,e,98,1,1300.1000000238419,555281.2999999523,7752,WL,C,5.0
4,13.263000011444092,learn,46736.99998855591,Thu Jun 04 2026 13:32:24 GMT-0500 (Central Daylight Time),557414.6999999881,A,homeenter,O,enter,813,1,2133.400000035763,555281.2999999523,7752,WL,C,5.0
4,14.01200008392334,learn,45987.99991607666,Thu Jun 04 2026 13:32:24 GMT-0500 (Central Daylight Time),558163.2999999523,A,b,O,b,730,1,748.5,557414.7999999523,7752,WL,C,6.0
4,14.178000211715698,learn,45821.9997882843,Thu Jun 04 2026 13:32:24 GMT-0500 (Central Daylight Time),558330.0,A,bo,O,o,147,1,915.2000000476837,557414.7999999523,7752,WL,C,6.0
4,14.396000146865845,learn,45603.999853134155,Thu Jun 04 2026 13:32:24 GMT-0500 (Central Daylight Time),558548.1999999881,A,boy,O,y,199,1,1133.4000000357628,557414.7999999523,7752,WL,C,6.0
4,15.17900013923645,learn,44820.99986076355,Thu Jun 04 2026 13:32:24 GMT-0500 (Central Daylight Time),559330.8999999762,A,boyenter,O,enter,760,1,1916.1000000238419,557414.7999999523,7752,WL,C,6.0
4,15.511000156402588,learn,44488.99984359741,Thu Jun 04 2026 13:32:24 GMT-0500 (Central Daylight Time),559663.0999999642,A,c,O,c,322,1,331.89999997615814,559331.1999999881,7752,WL,C,7.0
4,15.746000051498413,learn,44253.99994850159,Thu Jun 04 2026 13:32:24 GMT-0500 (Central Daylight Time),559897.6999999881,A,ca,O,a,224,1,566.5,559331.1999999881,7752,WL,C,7.0
4,15.92900013923645,learn,44070.99986076355,Thu Jun 04 2026 13:32:24 GMT-0500 (Central Daylight Time),560080.5,A,can,O,n,171,1,749.3000000119209,559331.1999999881,7752,WL,C,7.0
4,16.229000091552734,learn,43770.999908447266,Thu Jun 04 2026 13:32:24 GMT-0500 (Central Daylight Time),560380.2999999523,A,canp,O,p,280,1,1049.0999999642372,559331.1999999881,7752,WL,C,7.0
4,18.97699999809265,learn,41023.00000190735,Thu Jun 04 2026 13:32:24 GMT-0500 (Central Daylight Time),563129.1999999881,A,canpdelete,O,delete,2737,1,3798.0,559331.1999999881,7752,WL,C,7.0
4,20.527000188827515,learn,39472.999811172485,Thu Jun 04 2026 13:32:24 GMT-0500 (Central Daylight Time),564678.6999999881,A,canpdeleteenter,O,enter,1530,1,5347.5,559331.1999999881,7752,WL,C,7.0
4,21.195000171661377,learn,38804.99982833862,Thu Jun 04 2026 13:32:24 GMT-0500 (Central Daylight Time),565346.3999999762,A,c,O,c,656,1,667.5,564678.8999999762,7752,WL,C,8.0
4,21.41100001335144,learn,38588.99998664856,Thu Jun 04 2026 13:32:24 GMT-0500 (Central Daylight Time),565562.3999999762,A,ca,O,a,205,1,883.5,564678.8999999762,7752,WL,C,8.0
4,21.597000122070312,learn,38402.99987792969,Thu Jun 04 2026 13:32:24 GMT-0500 (Central Daylight Time),565748.5999999642,A,cam,O,m,178,1,1069.699999988079,564678.8999999762,7752,WL,C,8.0
4,22.09600019454956,learn,37903.99980545044,Thu Jun 04 2026 13:32:24 GMT-0500 (Central Daylight Time),566247.3999999762,A,camp,O,p,493,1,1568.5,564678.8999999762,7752,WL,C,8.0
4,23.04200005531311,learn,36957.99994468689,Thu Jun 04 2026 13:32:24 GMT-0500 (Central Daylight Time),567194.0,A,campenter,O,enter,933,1,2515.100000023842,564678.8999999762,7752,WL,C,8.0
4,24.042999982833862,learn,35957.00001716614,Thu Jun 04 2026 13:32:24 GMT-0500 (Central Daylight Time),568194.5999999642,A,b,O,b,979,1,1000.3999999761581,567194.1999999881,7752,WL,C,9.0
4,24.211000204086304,learn,35788.999795913696,Thu Jun 04 2026 13:32:24 GMT-0500 (Central Daylight Time),568362.8999999762,A,bo,O,o,164,1,1168.699999988079,567194.1999999881,7752,WL,C,9.0
4,24.360000133514404,learn,35639.999866485596,Thu Jun 04 2026 13:32:24 GMT-0500 (Central Daylight Time),568511.8999999762,A,bod,O,d,130,1,1317.699999988079,567194.1999999881,7752,WL,C,9.0
4,24.526000022888184,learn,35473.99997711182,Thu Jun 04 2026 13:32:24 GMT-0500 (Central Daylight Time),568677.8999999762,A,body,O,y,156,1,1483.699999988079,567194.1999999881,7752,WL,C,9.0
4,25.62600016593933,learn,34373.99983406067,Thu Jun 04 2026 13:32:24 GMT-0500 (Central Daylight Time),569777.5,A,bodyenter,O,enter,1089,1,2583.300000011921,567194.1999999881,7752,WL,C,9.0
4,26.375,learn,33625.0,Thu Jun 04 2026 13:32:24 GMT-0500 (Central Daylight Time),570526.5999999642,A,n,O,n,740,1,748.8999999761581,569777.6999999881,7752,WL,C,10.0
4,26.54200005531311,learn,33457.99994468689,Thu Jun 04 2026 13:32:24 GMT-0500 (Central Daylight Time),570693.6999999881,A,na,O,a,151,1,916.0,569777.6999999881,7752,WL,C,10.0
4,26.642000198364258,learn,33357.99980163574,Thu Jun 04 2026 13:32:24 GMT-0500 (Central Daylight Time),570794.0999999642,A,nai,O,i,90,1,1016.3999999761581,569777.6999999881,7752,WL,C,10.0
4,26.84500002861023,learn,33154.99997138977,Thu Jun 04 2026 13:32:24 GMT-0500 (Central Daylight Time),570996.1999999881,A,nail,O,l,179,1,1218.5,569777.6999999881,7752,WL,C,10.0
4,27.426000118255615,learn,32573.999881744385,Thu Jun 04 2026 13:32:24 GMT-0500 (Central Daylight Time),571577.7999999523,A,nailenter,O,enter,558,1,1800.0999999642372,569777.6999999881,7752,WL,C,10.0
4,28.20900011062622,learn,31790.99988937378,Thu Jun 04 2026 13:32:24 GMT-0500 (Central Daylight Time),572360.6999999881,A,f,O,f,772,1,782.6000000238419,571578.0999999642,7752,WL,C,11.0
4,28.375,learn,31625.0,Thu Jun 04 2026 13:32:24 GMT-0500 (Central Daylight Time),572526.2999999523,A,fl,O,l,147,1,948.1999999880791,571578.0999999642,7752,WL,C,11.0
4,28.509999990463257,learn,31490.000009536743,Thu Jun 04 2026 13:32:24 GMT-0500 (Central Daylight Time),572661.1999999881,A,fla,O,a,118,1,1083.1000000238419,571578.0999999642,7752,WL,C,11.0
4,29.159000158309937,learn,30840.999841690063,Thu Jun 04 2026 13:32:24 GMT-0500 (Central Daylight Time),573310.2999999523,A,flag,O,g,642,1,1732.199999988079,571578.0999999642,7752,WL,C,11.0
4,29.907000064849854,learn,30092.999935150146,Thu Jun 04 2026 13:32:24 GMT-0500 (Central Daylight Time),574058.7999999523,A,flagenter,O,enter,735,1,2480.699999988079,571578.0999999642,7752,WL,C,11.0
4,31.674000024795532,learn,28325.999975204468,Thu Jun 04 2026 13:32:24 GMT-0500 (Central Daylight Time),575826.0999999642,A,d,O,d,1755,1,1767.0999999642372,574059.0,7752,WL,C,12.0
4,31.842000007629395,learn,28157.999992370605,Thu Jun 04 2026 13:32:24 GMT-0500 (Central Daylight Time),575993.1999999881,A,do,O,o,146,1,1934.199999988079,574059.0,7752,WL,C,12.0
4,32.02400016784668,learn,27975.99983215332,Thu Jun 04 2026 13:32:24 GMT-0500 (Central Daylight Time),576176.0,A,doc,O,c,170,1,2117.0,574059.0,7752,WL,C,12.0
4,32.35700011253357,learn,27642.99988746643,Thu Jun 04 2026 13:32:24 GMT-0500 (Central Daylight Time),576509.0999999642,A,doct,O,t,312,1,2450.099999964237,574059.0,7752,WL,C,12.0
4,32.50800013542175,learn,27491.999864578247,Thu Jun 04 2026 13:32:24 GMT-0500 (Central Daylight Time),576660.0,A,docto,O,o,131,1,2601.0,574059.0,7752,WL,C,12.0
4,32.60600018501282,learn,27393.999814987183,Thu Jun 04 2026 13:32:24 GMT-0500 (Central Daylight Time),576757.7999999523,A,doctor,O,r,89,1,2698.7999999523163,574059.0,7752,WL,C,12.0
4,33.37400007247925,learn,26625.999927520752,Thu Jun 04 2026 13:32:24 GMT-0500 (Central Daylight Time),577525.8999999762,A,doctorenter,O,enter,747,1,3466.899999976158,574059.0,7752,WL,C,12.0
4,42.22200012207031,learn,17777.999877929688,Thu Jun 04 2026 13:32:24 GMT-0500 (Central Daylight Time),586373.3999999762,A,f,O,f,8826,1,8847.199999988079,577526.1999999881,7752,WL,C,13.0
4,42.38700008392334,learn,17612.99991607666,Thu Jun 04 2026 13:32:24 GMT-0500 (Central Daylight Time),586538.8999999762,A,fl,O,l,144,1,9012.699999988079,577526.1999999881,7752,WL,C,13.0
4,42.57000017166138,learn,17429.999828338623,Thu Jun 04 2026 13:32:24 GMT-0500 (Central Daylight Time),586721.8999999762,A,fla,O,a,161,1,9195.699999988079,577526.1999999881,7752,WL,C,13.0
4,42.837000131607056,learn,17162.999868392944,Thu Jun 04 2026 13:32:24 GMT-0500 (Central Daylight Time),586988.8999999762,A,flag,O,g,253,1,9462.699999988079,577526.1999999881,7752,WL,C,13.0
4,43.97000002861023,learn,16029.99997138977,Thu Jun 04 2026 13:32:24 GMT-0500 (Central Daylight Time),588121.1999999881,A,flagenter,O,enter,1111,1,10595.0,577526.1999999881,7752,WL,C,13.0
4,53.117000102996826,learn,6882.999897003174,Thu Jun 04 2026 13:32:24 GMT-0500 (Central Daylight Time),597268.6999999881,A,h,O,h,9135,1,9147.400000035763,588121.2999999523,7752,WL,C,14.0
4,53.3510000705719,learn,6648.999929428101,Thu Jun 04 2026 13:32:24 GMT-0500 (Central Daylight Time),597502.2999999523,A,ho,O,o,218,1,9381.0,588121.2999999523,7752,WL,C,14.0
4,53.58300018310547,learn,6416.999816894531,Thu Jun 04 2026 13:32:24 GMT-0500 (Central Daylight Time),597734.7999999523,A,hom,O,m,225,1,9613.5,588121.2999999523,7752,WL,C,14.0
4,53.75100016593933,learn,6248.999834060669,Thu Jun 04 2026 13:32:24 GMT-0500 (Central Daylight Time),597902.8999999762,A,home,O,e,159,1,9781.600000023842,588121.2999999523,7752,WL,C,14.0
4,54.26900005340576,learn,5730.999946594238,Thu Jun 04 2026 13:32:24 GMT-0500 (Central Daylight Time),598420.1999999881,A,homeenter,O,enter,502,1,10298.900000035763,588121.2999999523,7752,WL,C,14.0
4,60.015000104904175,learn,-15.000104904174805,Thu Jun 04 2026 13:32:24 GMT-0500 (Central Daylight Time),604167.0999999642,A,None,O,None,5741,1,5746.5,598420.5999999642,7752,WL,C,15.0
5,1.7170000076293945,learn,60000.0,Thu Jun 04 2026 13:32:24 GMT-0500 (Central Daylight Time),695538.1999999881,A,t,O,t,1707,1,1717.300000011921,693820.8999999762,7752,WL,C,1.0
5,1.8659999370574951,learn,60000.0,Thu Jun 04 2026 13:32:24 GMT-0500 (Central Daylight Time),695686.3999999762,A,to,O,o,130,1,1865.5,693820.8999999762,7752,WL,C,1.0
5,2.132999897003174,learn,60000.0,Thu Jun 04 2026 13:32:24 GMT-0500 (Central Daylight Time),695954.0999999642,A,tow,O,w,246,1,2133.199999988079,693820.8999999762,7752,WL,C,1.0
5,2.3509998321533203,learn,60000.0,Thu Jun 04 2026 13:32:24 GMT-0500 (Central Daylight Time),696172.0999999642,A,towe,O,e,203,1,2351.199999988079,693820.8999999762,7752,WL,C,1.0
5,2.501999855041504,learn,60000.0,Thu Jun 04 2026 13:32:24 GMT-0500 (Central Daylight Time),696322.5999999642,A,tower,O,r,138,1,2501.699999988079,693820.8999999762,7752,WL,C,1.0
5,3.9649999141693115,learn,60000.0,Thu Jun 04 2026 13:32:24 GMT-0500 (Central Daylight Time),697786.1999999881,A,towerenter,O,enter,1450,1,3965.300000011921,693820.8999999762,7752,WL,C,1.0
5,4.5980000495910645,learn,60000.0,Thu Jun 04 2026 13:32:24 GMT-0500 (Central Daylight Time),698419.2999999523,A,w,O,w,620,1,632.8999999761581,697786.3999999762,7752,WL,C,2.0
5,4.865999937057495,learn,60000.0,Thu Jun 04 2026 13:32:24 GMT-0500 (Central Daylight Time),698686.5,A,wh,O,h,249,1,900.1000000238419,697786.3999999762,7752,WL,C,2.0
5,4.9649999141693115,learn,60000.0,Thu Jun 04 2026 13:32:24 GMT-0500 (Central Daylight Time),698786.0,A,whe,O,e,87,1,999.6000000238419,697786.3999999762,7752,WL,C,2.0
5,5.299000024795532,learn,60000.0,Thu Jun 04 2026 13:32:24 GMT-0500 (Central Daylight Time),699120.0,A,whea,O,a,315,1,1333.6000000238419,697786.3999999762,7752,WL,C,2.0
5,5.648999929428101,learn,60000.0,Thu Jun 04 2026 13:32:24 GMT-0500 (Central Daylight Time),699470.0999999642,A,wheat,O,t,329,1,1683.699999988079,697786.3999999762,7752,WL,C,2.0
5,6.365000009536743,learn,60000.0,Thu Jun 04 2026 13:32:24 GMT-0500 (Central Daylight Time),700185.8999999762,A,wheatenter,O,enter,693,1,2399.5,697786.3999999762,7752,WL,C,2.0
5,6.7820000648498535,learn,60000.0,Thu Jun 04 2026 13:32:24 GMT-0500 (Central Daylight Time),700603.0999999642,A,q,O,q,397,1,416.89999997615814,700186.1999999881,7752,WL,C,3.0
5,6.980999946594238,learn,60000.0,Thu Jun 04 2026 13:32:24 GMT-0500 (Central Daylight Time),700801.6999999881,A,qu,O,u,185,1,615.5,700186.1999999881,7752,WL,C,3.0
5,7.2149999141693115,learn,60000.0,Thu Jun 04 2026 13:32:24 GMT-0500 (Central Daylight Time),701035.5,A,que,O,e,221,1,849.3000000119209,700186.1999999881,7752,WL,C,3.0
5,7.3480000495910645,learn,60000.0,Thu Jun 04 2026 13:32:24 GMT-0500 (Central Daylight Time),701168.8999999762,A,quee,O,e,122,1,982.6999999880791,700186.1999999881,7752,WL,C,3.0
5,7.516000032424927,learn,60000.0,Thu Jun 04 2026 13:32:24 GMT-0500 (Central Daylight Time),701336.5999999642,A,queen,O,n,157,1,1150.3999999761581,700186.1999999881,7752,WL,C,3.0
5,8.181999921798706,learn,60000.0,Thu Jun 04 2026 13:32:24 GMT-0500 (Central Daylight Time),702002.5,A,queenenter,O,enter,653,1,1816.300000011921,700186.1999999881,7752,WL,C,3.0
5,8.764999866485596,learn,60000.0,Thu Jun 04 2026 13:32:24 GMT-0500 (Central Daylight Time),702585.6999999881,A,s,O,s,563,1,582.9000000357628,702002.7999999523,7752,WL,C,4.0
5,8.898000001907349,learn,60000.0,Thu Jun 04 2026 13:32:24 GMT-0500 (Central Daylight Time),702718.5999999642,A,su,O,u,123,1,715.8000000119209,702002.7999999523,7752,WL,C,4.0
5,9.04699993133545,learn,60000.0,Thu Jun 04 2026 13:32:24 GMT-0500 (Central Daylight Time),702868.0,A,sua,O,a,128,1,865.2000000476837,702002.7999999523,7752,WL,C,4.0
5,9.280999898910522,learn,60000.0,Thu Jun 04 2026 13:32:24 GMT-0500 (Central Daylight Time),703102.1999999881,A,suag,O,g,216,1,1099.4000000357628,702002.7999999523,7752,WL,C,4.0
5,9.680999994277954,learn,60000.0,Thu Jun 04 2026 13:32:24 GMT-0500 (Central Daylight Time),703501.6999999881,A,suagr,O,r,382,1,1498.9000000357628,702002.7999999523,7752,WL,C,4.0
5,10.348000049591064,learn,60000.0,Thu Jun 04 2026 13:32:24 GMT-0500 (Central Daylight Time),704168.2999999523,A,suagrenter,O,enter,655,1,2165.5,702002.7999999523,7752,WL,C,4.0
5,11.148000001907349,learn,60000.0,Thu Jun 04 2026 13:32:24 GMT-0500 (Central Daylight Time),704968.3999999762,A,b,O,b,790,1,799.8000000119209,704168.5999999642,7752,WL,C,5.0
5,11.313999891281128,learn,60000.0,Thu Jun 04 2026 13:32:24 GMT-0500 (Central Daylight Time),705134.8999999762,A,bo,O,o,149,1,966.3000000119209,704168.5999999642,7752,WL,C,5.0
5,11.44700002670288,learn,60000.0,Thu Jun 04 2026 13:32:24 GMT-0500 (Central Daylight Time),705267.8999999762,A,bod,O,d,112,1,1099.300000011921,704168.5999999642,7752,WL,C,5.0
5,11.664999961853027,learn,60000.0,Thu Jun 04 2026 13:32:24 GMT-0500 (Central Daylight Time),705485.5,A,body,O,y,195,1,1316.9000000357628,704168.5999999642,7752,WL,C,5.0
5,12.746000051498413,learn,60000.0,Thu Jun 04 2026 13:32:24 GMT-0500 (Central Daylight Time),706567.1999999881,A,bodyenter,O,enter,1071,1,2398.600000023842,704168.5999999642,7752,WL,C,5.0
5,13.430000066757202,learn,60000.0,Thu Jun 04 2026 13:32:24 GMT-0500 (Central Daylight Time),707251.1999999881,A,d,O,d,671,1,683.8000000119209,706567.3999999762,7752,WL,C,6.0
5,13.562999963760376,learn,60000.0,Thu Jun 04 2026 13:32:24 GMT-0500 (Central Daylight Time),707383.5999999642,A,do,O,o,112,1,816.1999999880791,706567.3999999762,7752,WL,C,6.0
5,13.69700002670288,learn,60000.0,Thu Jun 04 2026 13:32:24 GMT-0500 (Central Daylight Time),707517.7999999523,A,doc,O,c,115,1,950.3999999761581,706567.3999999762,7752,WL,C,6.0
5,13.930000066757202,learn,60000.0,Thu Jun 04 2026 13:32:24 GMT-0500 (Central Daylight Time),707750.8999999762,A,doct,O,t,225,1,1183.5,706567.3999999762,7752,WL,C,6.0
5,14.062999963760376,learn,60000.0,Thu Jun 04 2026 13:32:24 GMT-0500 (Central Daylight Time),707884.2999999523,A,docto,O,o,117,1,1316.8999999761581,706567.3999999762,7752,WL,C,6.0
5,14.178999900817871,learn,60000.0,Thu Jun 04 2026 13:32:24 GMT-0500 (Central Daylight Time),708000.0999999642,A,doctor,O,r,96,1,1432.699999988079,706567.3999999762,7752,WL,C,6.0
5,14.92799997329712,learn,60000.0,Thu Jun 04 2026 13:32:24 GMT-0500 (Central Daylight Time),708749.0,A,doctorenter,O,enter,732,1,2181.600000023842,706567.3999999762,7752,WL,C,6.0
5,16.544999837875366,learn,60000.0,Thu Jun 04 2026 13:32:24 GMT-0500 (Central Daylight Time),710365.7999999523,A,c,O,c,1610,1,1616.5999999642372,708749.1999999881,7752,WL,C,7.0
5,16.794999837875366,learn,60000.0,Thu Jun 04 2026 13:32:24 GMT-0500 (Central Daylight Time),710616.0999999642,A,ca,O,a,232,1,1866.8999999761581,708749.1999999881,7752,WL,C,7.0
5,16.977999925613403,learn,60000.0,Thu Jun 04 2026 13:32:24 GMT-0500 (Central Daylight Time),710799.0,A,cam,O,m,164,1,2049.800000011921,708749.1999999881,7752,WL,C,7.0
5,17.294999837875366,learn,60000.0,Thu Jun 04 2026 13:32:24 GMT-0500 (Central Daylight Time),711115.7999999523,A,camp,O,p,301,1,2366.599999964237,708749.1999999881,7752,WL,C,7.0
5,17.65999984741211,learn,60000.0,Thu Jun 04 2026 13:32:24 GMT-0500 (Central Daylight Time),711481.1999999881,A,campenter,O,enter,347,1,2732.0,708749.1999999881,7752,WL,C,7.0
5,18.444000005722046,learn,60000.0,Thu Jun 04 2026 13:32:24 GMT-0500 (Central Daylight Time),712265.0999999642,A,f,O,f,772,1,783.8000000119209,711481.2999999523,7752,WL,C,8.0
5,18.611000061035156,learn,60000.0,Thu Jun 04 2026 13:32:24 GMT-0500 (Central Daylight Time),712431.7999999523,A,fl,O,l,155,1,950.5,711481.2999999523,7752,WL,C,8.0
5,18.777999877929688,learn,60000.0,Thu Jun 04 2026 13:32:24 GMT-0500 (Central Daylight Time),712598.3999999762,A,fla,O,a,148,1,1117.1000000238419,711481.2999999523,7752,WL,C,8.0
5,19.043999910354614,learn,60000.0,Thu Jun 04 2026 13:32:24 GMT-0500 (Central Daylight Time),712864.3999999762,A,flag,O,g,256,1,1383.1000000238419,711481.2999999523,7752,WL,C,8.0
5,19.67899990081787,learn,60000.0,Thu Jun 04 2026 13:32:24 GMT-0500 (Central Daylight Time),713499.8999999762,A,flagenter,O,enter,615,1,2018.6000000238419,711481.2999999523,7752,WL,C,8.0
5,20.89199995994568,learn,60000.0,Thu Jun 04 2026 13:32:24 GMT-0500 (Central Daylight Time),714712.5999999642,A,l,O,l,1195,1,1212.5999999642372,713500.0,7752,WL,C,9.0
5,21.044999837875366,learn,60000.0,Thu Jun 04 2026 13:32:24 GMT-0500 (Central Daylight Time),714865.6999999881,A,le,O,e,143,1,1365.699999988079,713500.0,7752,WL,C,9.0
5,21.544999837875366,learn,60000.0,Thu Jun 04 2026 13:32:24 GMT-0500 (Central Daylight Time),715365.3999999762,A,let,O,t,480,1,1865.3999999761581,713500.0,7752,WL,C,9.0
5,21.677000045776367,learn,60000.0,Thu Jun 04 2026 13:32:24 GMT-0500 (Central Daylight Time),715497.2999999523,A,lett,O,t,118,1,1997.2999999523163,713500.0,7752,WL,C,9.0
5,21.859999895095825,learn,60000.0,Thu Jun 04 2026 13:32:24 GMT-0500 (Central Daylight Time),715681.3999999762,A,lette,O,e,174,1,2181.399999976158,713500.0,7752,WL,C,9.0
5,21.944000005722046,learn,60000.0,Thu Jun 04 2026 13:32:24 GMT-0500 (Central Daylight Time),715765.0999999642,A,letter,O,r,68,1,2265.099999964237,713500.0,7752,WL,C,9.0
5,22.859999895095825,learn,60000.0,Thu Jun 04 2026 13:32:24 GMT-0500 (Central Daylight Time),716681.0,A,letterenter,O,enter,903,1,3181.0,713500.0,7752,WL,C,9.0
5,23.54200005531311,learn,60000.0,Thu Jun 04 2026 13:32:24 GMT-0500 (Central Daylight Time),717363.2999999523,A,s,O,s,660,1,682.0999999642372,716681.1999999881,7752,WL,C,10.0
5,23.65999984741211,learn,60000.0,Thu Jun 04 2026 13:32:24 GMT-0500 (Central Daylight Time),717481.0999999642,A,sh,O,h,99,1,799.8999999761581,716681.1999999881,7752,WL,C,10.0
5,23.82699990272522,learn,60000.0,Thu Jun 04 2026 13:32:24 GMT-0500 (Central Daylight Time),717647.7999999523,A,sho,O,o,145,1,966.5999999642372,716681.1999999881,7752,WL,C,10.0
5,23.90999984741211,learn,60000.0,Thu Jun 04 2026 13:32:24 GMT-0500 (Central Daylight Time),717730.3999999762,A,shor,O,r,70,1,1049.199999988079,716681.1999999881,7752,WL,C,10.0
5,24.062000036239624,learn,60000.0,Thu Jun 04 2026 13:32:24 GMT-0500 (Central Daylight Time),717882.8999999762,A,shore,O,e,147,1,1201.699999988079,716681.1999999881,7752,WL,C,10.0
5,24.89299988746643,learn,60000.0,Thu Jun 04 2026 13:32:24 GMT-0500 (Central Daylight Time),718713.3999999762,A,shoreenter,O,enter,812,1,2032.199999988079,716681.1999999881,7752,WL,C,10.0
5,29.39199995994568,learn,60000.0,Thu Jun 04 2026 13:32:24 GMT-0500 (Central Daylight Time),723213.0,A,c,O,c,4479,1,4499.400000035763,718713.5999999642,7752,WL,C,11.0
5,29.54099988937378,learn,60000.0,Thu Jun 04 2026 13:32:24 GMT-0500 (Central Daylight Time),723362.0999999642,A,co,O,o,136,1,4648.5,718713.5999999642,7752,WL,C,11.0
5,29.70799994468689,learn,60000.0,Thu Jun 04 2026 13:32:24 GMT-0500 (Central Daylight Time),723528.7999999523,A,cor,O,r,156,1,4815.199999988079,718713.5999999642,7752,WL,C,11.0
5,30.539999961853027,learn,60000.0,Thu Jun 04 2026 13:32:24 GMT-0500 (Central Daylight Time),724361.0999999642,A,corn,O,n,811,1,5647.5,718713.5999999642,7752,WL,C,11.0
5,31.22499990463257,learn,60000.0,Thu Jun 04 2026 13:32:24 GMT-0500 (Central Daylight Time),725045.5999999642,A,cornenter,O,enter,665,1,6332.0,718713.5999999642,7752,WL,C,11.0
5,31.625,learn,60000.0,Thu Jun 04 2026 13:32:24 GMT-0500 (Central Daylight Time),725445.5,A,c,O,c,379,1,399.60000002384186,725045.8999999762,7752,WL,C,12.0
5,31.823999881744385,learn,60000.0,Thu Jun 04 2026 13:32:24 GMT-0500 (Central Daylight Time),725644.7999999523,A,ca,O,a,186,1,598.8999999761581,725045.8999999762,7752,WL,C,12.0
5,32.00699996948242,learn,60000.0,Thu Jun 04 2026 13:32:24 GMT-0500 (Central Daylight Time),725828.1999999881,A,cat,O,t,161,1,782.3000000119209,725045.8999999762,7752,WL,C,12.0
5,32.44099998474121,learn,60000.0,Thu Jun 04 2026 13:32:24 GMT-0500 (Central Daylight Time),726261.6999999881,A,catt,O,t,424,1,1215.800000011921,725045.8999999762,7752,WL,C,12.0
5,32.68899989128113,learn,60000.0,Thu Jun 04 2026 13:32:24 GMT-0500 (Central Daylight Time),726510.0,A,cattl,O,l,229,1,1464.1000000238419,725045.8999999762,7752,WL,C,12.0
5,32.83999991416931,learn,60000.0,Thu Jun 04 2026 13:32:24 GMT-0500 (Central Daylight Time),726661.1999999881,A,cattle,O,e,130,1,1615.300000011921,725045.8999999762,7752,WL,C,12.0
5,33.10699987411499,learn,60000.0,Thu Jun 04 2026 13:32:24 GMT-0500 (Central Daylight Time),726928.2999999523,A,cattleenter,O,enter,255,1,1882.3999999761581,725045.8999999762,7752,WL,C,12.0
5,37.92199993133545,learn,60000.0,Thu Jun 04 2026 13:32:24 GMT-0500 (Central Daylight Time),731742.7999999523,A,b,O,b,4798,1,4814.299999952316,726928.5,7752,WL,C,13.0
5,38.1710000038147,learn,60000.0,Thu Jun 04 2026 13:32:24 GMT-0500 (Central Daylight Time),731992.0,A,bo,O,o,229,1,5063.5,726928.5,7752,WL,C,13.0
5,38.32200002670288,learn,60000.0,Thu Jun 04 2026 13:32:24 GMT-0500 (Central Daylight Time),732143.2999999523,A,bod,O,d,133,1,5214.799999952316,726928.5,7752,WL,C,13.0
5,38.48799991607666,learn,60000.0,Thu Jun 04 2026 13:32:24 GMT-0500 (Central Daylight Time),732309.0,A,body,O,y,148,1,5380.5,726928.5,7752,WL,C,13.0
5,39.33800005912781,learn,60000.0,Thu Jun 04 2026 13:32:24 GMT-0500 (Central Daylight Time),733158.7999999523,A,bodyenter,O,enter,831,1,6230.299999952316,726928.5,7752,WL,C,13.0
5,44.48699998855591,learn,60000.0,Thu Jun 04 2026 13:32:24 GMT-0500 (Central Daylight Time),738307.8999999762,A,d,O,d,5130,1,5148.899999976158,733159.0,7752,WL,C,14.0
5,44.73699998855591,learn,60000.0,Thu Jun 04 2026 13:32:24 GMT-0500 (Central Daylight Time),738558.0,A,do,O,o,233,1,5399.0,733159.0,7752,WL,C,14.0
5,44.901999950408936,learn,60000.0,Thu Jun 04 2026 13:32:24 GMT-0500 (Central Daylight Time),738723.0999999642,A,doc,O,c,147,1,5564.099999964237,733159.0,7752,WL,C,14.0
5,45.1710000038147,learn,60000.0,Thu Jun 04 2026 13:32:24 GMT-0500 (Central Daylight Time),738992.0999999642,A,doct,O,t,248,1,5833.099999964237,733159.0,7752,WL,C,14.0
5,45.36999988555908,learn,60000.0,Thu Jun 04 2026 13:32:24 GMT-0500 (Central Daylight Time),739191.0,A,docto,O,o,179,1,6032.0,733159.0,7752,WL,C,14.0
5,45.45299983024597,learn,60000.0,Thu Jun 04 2026 13:32:24 GMT-0500 (Central Daylight Time),739273.7999999523,A,doctor,O,r,60,1,6114.799999952316,733159.0,7752,WL,C,14.0
5,46.2189998626709,learn,60000.0,Thu Jun 04 2026 13:32:24 GMT-0500 (Central Daylight Time),740040.1999999881,A,doctorenter,O,enter,755,1,6881.199999988079,733159.0,7752,WL,C,14.0
5,53.16700005531311,learn,60000.0,Thu Jun 04 2026 13:32:24 GMT-0500 (Central Daylight Time),746988.0,A,c,O,c,6928,1,6947.5,740040.5,7752,WL,C,15.0
5,53.41599988937378,learn,60000.0,Thu Jun 04 2026 13:32:24 GMT-0500 (Central Daylight Time),747237.0,A,ca,O,a,232,1,7196.5,740040.5,7752,WL,C,15.0
5,53.58299994468689,learn,60000.0,Thu Jun 04 2026 13:32:24 GMT-0500 (Central Daylight Time),747403.8999999762,A,cam,O,m,150,1,7363.399999976158,740040.5,7752,WL,C,15.0
5,53.91599988937378,learn,60000.0,Thu Jun 04 2026 13:32:24 GMT-0500 (Central Daylight Time),747736.8999999762,A,camp,O,p,318,1,7696.399999976158,740040.5,7752,WL,C,15.0
5,54.24899983406067,learn,60000.0,Thu Jun 04 2026 13:32:24 GMT-0500 (Central Daylight Time),748070.0999999642,A,campenter,O,enter,324,1,8029.599999964237,740040.5,7752,WL,C,15.0
6,2.200000047683716,distr,57799.999952316284,Thu Jun 04 2026 13:32:24 GMT-0500 (Central Daylight Time),841759.0,B,s,O,s,2181,1,2200.0,839559.0,7752,WL,C,1.0
6,2.3489999771118164,distr,57651.00002288818,Thu Jun 04 2026 13:32:24 GMT-0500 (Central Daylight Time),841907.8999999762,B,sk,O,k,128,1,2348.899999976158,839559.0,7752,WL,C,1.0
6,2.63100004196167,distr,57368.99995803833,Thu Jun 04 2026 13:32:24 GMT-0500 (Central Daylight Time),842189.8999999762,B,sky,O,y,273,1,2630.899999976158,839559.0,7752,WL,C,1.0
6,3.799999952316284,distr,56200.000047683716,Thu Jun 04 2026 13:32:24 GMT-0500 (Central Daylight Time),843358.3999999762,B,skyenter,O,enter,1147,1,3799.399999976158,839559.0,7752,WL,C,1.0
6,4.781000137329102,distr,55218.9998626709,Thu Jun 04 2026 13:32:24 GMT-0500 (Central Daylight Time),844340.1999999881,B,v,O,v,963,1,981.6000000238419,843358.5999999642,7752,WL,C,2.0
6,4.980999946594238,distr,55019.00005340576,Thu Jun 04 2026 13:32:24 GMT-0500 (Central Daylight Time),844539.7999999523,B,va,O,a,184,1,1181.199999988079,843358.5999999642,7752,WL,C,2.0
6,5.232000112533569,distr,54767.99988746643,Thu Jun 04 2026 13:32:24 GMT-0500 (Central Daylight Time),844790.5999999642,B,val,O,l,232,1,1432.0,843358.5999999642,7752,WL,C,2.0
6,5.365000009536743,distr,54634.99999046326,Thu Jun 04 2026 13:32:24 GMT-0500 (Central Daylight Time),844923.5,B,vall,O,l,120,1,1564.9000000357628,843358.5999999642,7752,WL,C,2.0
6,5.447000026702881,distr,54552.99997329712,Thu Jun 04 2026 13:32:24 GMT-0500 (Central Daylight Time),845005.5999999642,B,valle,O,e,66,1,1647.0,843358.5999999642,7752,WL,C,2.0
6,5.648000001907349,distr,54351.99999809265,Thu Jun 04 2026 13:32:24 GMT-0500 (Central Daylight Time),845206.5,B,valley,O,y,193,1,1847.9000000357628,843358.5999999642,7752,WL,C,2.0
6,6.814000129699707,distr,53185.99987030029,Thu Jun 04 2026 13:32:24 GMT-0500 (Central Daylight Time),846372.7999999523,B,valleyenter,O,enter,1145,1,3014.199999988079,843358.5999999642,7752,WL,C,2.0
6,8.180000066757202,distr,51819.9999332428,Thu Jun 04 2026 13:32:24 GMT-0500 (Central Daylight Time),847739.2999999523,B,c,O,c,1347,1,1366.2999999523163,846373.0,7752,WL,C,3.0
6,8.398000001907349,distr,51601.99999809265,Thu Jun 04 2026 13:32:24 GMT-0500 (Central Daylight Time),847956.6999999881,B,ch,O,h,200,1,1583.699999988079,846373.0,7752,WL,C,3.0
6,8.581000089645386,distr,51418.999910354614,Thu Jun 04 2026 13:32:24 GMT-0500 (Central Daylight Time),848139.3999999762,B,chr,O,r,161,1,1766.3999999761581,846373.0,7752,WL,C,3.0
6,8.713000059127808,distr,51286.99994087219,Thu Jun 04 2026 13:32:24 GMT-0500 (Central Daylight Time),848272.1999999881,B,chri,O,i,113,1,1899.199999988079,846373.0,7752,WL,C,3.0
6,8.864000082015991,distr,51135.99991798401,Thu Jun 04 2026 13:32:24 GMT-0500 (Central Daylight Time),848422.5999999642,B,chris,O,s,126,1,2049.599999964237,846373.0,7752,WL,C,3.0
6,9.013000011444092,distr,50986.99998855591,Thu Jun 04 2026 13:32:24 GMT-0500 (Central Daylight Time),848572.2999999523,B,christ,O,t,125,1,2199.2999999523163,846373.0,7752,WL,C,3.0
6,9.263000011444092,distr,50736.99998855591,Thu Jun 04 2026 13:32:24 GMT-0500 (Central Daylight Time),848821.5,B,christm,O,m,233,1,2448.5,846373.0,7752,WL,C,3.0
6,11.295000076293945,distr,48704.999923706055,Thu Jun 04 2026 13:32:24 GMT-0500 (Central Daylight Time),850853.8999999762,B,christma,O,a,2016,1,4480.899999976158,846373.0,7752,WL,C,3.0
6,11.57800006866455,distr,48421.99993133545,Thu Jun 04 2026 13:32:24 GMT-0500 (Central Daylight Time),851136.8999999762,B,christmas,O,s,274,1,4763.899999976158,846373.0,7752,WL,C,3.0
6,12.79699993133545,distr,47203.00006866455,Thu Jun 04 2026 13:32:24 GMT-0500 (Central Daylight Time),852355.8999999762,B,christmasenter,O,enter,1197,1,5982.899999976158,846373.0,7752,WL,C,3.0
6,13.614000082015991,distr,46385.99991798401,Thu Jun 04 2026 13:32:24 GMT-0500 (Central Daylight Time),853172.5,B,m,O,m,803,1,816.3000000119209,852356.1999999881,7752,WL,C,4.0
6,13.84500002861023,distr,46154.99997138977,Thu Jun 04 2026 13:32:24 GMT-0500 (Central Daylight Time),853403.5,B,mo,O,o,216,1,1047.300000011921,852356.1999999881,7752,WL,C,4.0
6,14.095999956130981,distr,45904.00004386902,Thu Jun 04 2026 13:32:24 GMT-0500 (Central Daylight Time),853654.3999999762,B,mon,O,n,233,1,1298.199999988079,852356.1999999881,7752,WL,C,4.0
6,14.227999925613403,distr,45772.0000743866,Thu Jun 04 2026 13:32:24 GMT-0500 (Central Daylight Time),853787.0,B,mone,O,e,114,1,1430.800000011921,852356.1999999881,7752,WL,C,4.0
6,14.42799997329712,distr,45572.00002670288,Thu Jun 04 2026 13:32:24 GMT-0500 (Central Daylight Time),853986.5,B,money,O,y,187,1,1630.300000011921,852356.1999999881,7752,WL,C,4.0
6,15.16100001335144,distr,44838.99998664856,Thu Jun 04 2026 13:32:24 GMT-0500 (Central Daylight Time),854720.0999999642,B,moneyenter,O,enter,717,1,2363.899999976158,852356.1999999881,7752,WL,C,4.0
6,22.77500009536743,distr,37224.99990463257,Thu Jun 04 2026 13:32:24 GMT-0500 (Central Daylight Time),862334.0999999642,B,v,O,v,7593,1,7613.800000011921,854720.2999999523,7752,WL,C,5.0
6,23.04100012779236,distr,36958.99987220764,Thu Jun 04 2026 13:32:24 GMT-0500 (Central Daylight Time),862600.2999999523,B,va,O,a,246,1,7880.0,854720.2999999523,7752,WL,C,5.0
6,23.240999937057495,distr,36759.000062942505,Thu Jun 04 2026 13:32:24 GMT-0500 (Central Daylight Time),862800.2999999523,B,val,O,l,178,1,8080.0,854720.2999999523,7752,WL,C,5.0
6,23.375999927520752,distr,36624.00007247925,Thu Jun 04 2026 13:32:24 GMT-0500 (Central Daylight Time),862934.8999999762,B,vall,O,l,126,1,8214.600000023842,854720.2999999523,7752,WL,C,5.0
6,23.44099998474121,distr,36559.00001525879,Thu Jun 04 2026 13:32:24 GMT-0500 (Central Daylight Time),863000.2999999523,B,valle,O,e,45,1,8280.0,854720.2999999523,7752,WL,C,5.0
6,23.641000032424927,distr,36358.99996757507,Thu Jun 04 2026 13:32:24 GMT-0500 (Central Daylight Time),863200.3999999762,B,valley,O,y,187,1,8480.100000023842,854720.2999999523,7752,WL,C,5.0
6,24.325000047683716,distr,35674.999952316284,Thu Jun 04 2026 13:32:24 GMT-0500 (Central Daylight Time),863883.5,B,valleyenter,O,enter,668,1,9163.200000047684,854720.2999999523,7752,WL,C,5.0
6,43.4520001411438,distr,16547.9998588562,Thu Jun 04 2026 13:32:24 GMT-0500 (Central Daylight Time),883010.5,B,m,O,m,19114,1,19126.700000047684,863883.7999999523,7752,WL,C,6.0
6,43.88499999046326,distr,16115.000009536743,Thu Jun 04 2026 13:32:24 GMT-0500 (Central Daylight Time),883444.2999999523,B,mo,O,o,409,1,19560.5,863883.7999999523,7752,WL,C,6.0
6,44.16799998283386,distr,15832.000017166138,Thu Jun 04 2026 13:32:24 GMT-0500 (Central Daylight Time),883727.2999999523,B,mon,O,n,263,1,19843.5,863883.7999999523,7752,WL,C,6.0
6,44.33500003814697,distr,15664.999961853027,Thu Jun 04 2026 13:32:24 GMT-0500 (Central Daylight Time),883893.6999999881,B,mone,O,e,149,1,20009.900000035763,863883.7999999523,7752,WL,C,6.0
6,44.549999952316284,distr,15450.000047683716,Thu Jun 04 2026 13:32:24 GMT-0500 (Central Daylight Time),884109.0999999642,B,money,O,y,204,1,20225.30000001192,863883.7999999523,7752,WL,C,6.0
6,45.33400011062622,distr,14665.99988937378,Thu Jun 04 2026 13:32:24 GMT-0500 (Central Daylight Time),884893.2999999523,B,moneyenter,O,enter,776,1,21009.5,863883.7999999523,7752,WL,C,6.0
6,50.56700015068054,distr,9432.999849319458,Thu Jun 04 2026 13:32:24 GMT-0500 (Central Daylight Time),890126.0999999642,B,p,O,p,5225,1,5232.599999964237,884893.5,7752,WL,C,7.0
6,50.91600012779236,distr,9083.999872207642,Thu Jun 04 2026 13:32:24 GMT-0500 (Central Daylight Time),890475.3999999762,B,pl,O,l,335,1,5581.899999976158,884893.5,7752,WL,C,7.0
6,51.18300008773804,distr,8816.999912261963,Thu Jun 04 2026 13:32:24 GMT-0500 (Central Daylight Time),890742.1999999881,B,pla,O,a,258,1,5848.699999988079,884893.5,7752,WL,C,7.0
6,51.365999937057495,distr,8634.000062942505,Thu Jun 04 2026 13:32:24 GMT-0500 (Central Daylight Time),890924.8999999762,B,plan,O,n,166,1,6031.399999976158,884893.5,7752,WL,C,7.0
6,51.532999992370605,distr,8467.000007629395,Thu Jun 04 2026 13:32:24 GMT-0500 (Central Daylight Time),891091.5999999642,B,plant,O,t,145,1,6198.099999964237,884893.5,7752,WL,C,7.0
6,52.282999992370605,distr,7717.0000076293945,Thu Jun 04 2026 13:32:24 GMT-0500 (Central Daylight Time),891842.1999999881,B,plantenter,O,enter,745,1,6948.699999988079,884893.5,7752,WL,C,7.0
6,60.013999938964844,distr,-13.99993896484375,Thu Jun 04 2026 13:32:24 GMT-0500 (Central Daylight Time),899573.3999999762,B,None,O,None,7728,1,7731.100000023842,891842.2999999523,7752,WL,C,8.0
7,1.2309999465942383,immed,58769.00005340576,Thu Jun 04 2026 13:32:24 GMT-0500 (Central Daylight Time),959301.5999999642,A,t,O,t,1221,1,1230.800000011921,958070.7999999523,7752,WL,C,1.0
7,2.0490000247955322,immed,57950.99997520447,Thu Jun 04 2026 13:32:24 GMT-0500 (Central Daylight Time),960119.8999999762,A,to,O,o,802,1,2049.100000023842,958070.7999999523,7752,WL,C,1.0
7,2.297999858856201,immed,57702.0001411438,Thu Jun 04 2026 13:32:24 GMT-0500 (Central Daylight Time),960369.5,A,tow,O,w,237,1,2298.7000000476837,958070.7999999523,7752,WL,C,1.0
7,2.565999984741211,immed,57434.00001525879,Thu Jun 04 2026 13:32:24 GMT-0500 (Central Daylight Time),960637.1999999881,A,towe,O,e,246,1,2566.400000035763,958070.7999999523,7752,WL,C,1.0
7,2.7319998741149902,immed,57268.00012588501,Thu Jun 04 2026 13:32:24 GMT-0500 (Central Daylight Time),960802.6999999881,A,tower,O,r,154,1,2731.900000035763,958070.7999999523,7752,WL,C,1.0
7,3.9830000400543213,immed,56016.99995994568,Thu Jun 04 2026 13:32:24 GMT-0500 (Central Daylight Time),962053.8999999762,A,towerenter,O,enter,1227,1,3983.100000023842,958070.7999999523,7752,WL,C,1.0
7,4.664000034332275,immed,55335.999965667725,Thu Jun 04 2026 13:32:24 GMT-0500 (Central Daylight Time),962734.6999999881,A,w,O,w,672,1,680.5,962054.1999999881,7752,WL,C,2.0
7,4.846999883651733,immed,55153.00011634827,Thu Jun 04 2026 13:32:24 GMT-0500 (Central Daylight Time),962918.2999999523,A,wh,O,h,166,1,864.0999999642372,962054.1999999881,7752,WL,C,2.0
7,4.947999954223633,immed,55052.00004577637,Thu Jun 04 2026 13:32:24 GMT-0500 (Central Daylight Time),963019.0,A,whe,O,e,81,1,964.8000000119209,962054.1999999881,7752,WL,C,2.0
7,5.430000066757202,immed,54569.9999332428,Thu Jun 04 2026 13:32:24 GMT-0500 (Central Daylight Time),963501.0,A,whea,O,a,465,1,1446.800000011921,962054.1999999881,7752,WL,C,2.0
7,5.613999843597412,immed,54386.00015640259,Thu Jun 04 2026 13:32:24 GMT-0500 (Central Daylight Time),963685.0999999642,A,wheat,O,t,168,1,1630.8999999761581,962054.1999999881,7752,WL,C,2.0
7,6.38100004196167,immed,53618.99995803833,Thu Jun 04 2026 13:32:24 GMT-0500 (Central Daylight Time),964452.1999999881,A,wheatenter,O,enter,753,1,2398.0,962054.1999999881,7752,WL,C,2.0
7,7.628999948501587,immed,52371.00005149841,Thu Jun 04 2026 13:32:24 GMT-0500 (Central Daylight Time),965700.0999999642,A,s,O,s,1241,1,1247.699999988079,964452.3999999762,7752,WL,C,3.0
7,7.7809998989105225,immed,52219.00010108948,Thu Jun 04 2026 13:32:24 GMT-0500 (Central Daylight Time),965851.5999999642,A,su,O,u,139,1,1399.199999988079,964452.3999999762,7752,WL,C,3.0
7,7.947000026702881,immed,52052.99997329712,Thu Jun 04 2026 13:32:24 GMT-0500 (Central Daylight Time),966018.3999999762,A,sug,O,g,152,1,1566.0,964452.3999999762,7752,WL,C,3.0
7,8.111999988555908,immed,51888.00001144409,Thu Jun 04 2026 13:32:24 GMT-0500 (Central Daylight Time),966182.7999999523,A,suga,O,a,145,1,1730.3999999761581,964452.3999999762,7752,WL,C,3.0
7,8.247999906539917,immed,51752.00009346008,Thu Jun 04 2026 13:32:24 GMT-0500 (Central Daylight Time),966319.1999999881,A,sugar,O,r,115,1,1866.800000011921,964452.3999999762,7752,WL,C,3.0
7,8.830999851226807,immed,51169.00014877319,Thu Jun 04 2026 13:32:24 GMT-0500 (Central Daylight Time),966901.5,A,sugarenter,O,enter,565,1,2449.100000023842,964452.3999999762,7752,WL,C,3.0
7,9.394999980926514,immed,50605.000019073486,Thu Jun 04 2026 13:32:24 GMT-0500 (Central Daylight Time),967466.5,A,b,O,b,547,1,564.7000000476837,966901.7999999523,7752,WL,C,4.0
7,9.496000051498413,immed,50503.99994850159,Thu Jun 04 2026 13:32:24 GMT-0500 (Central Daylight Time),967566.6999999881,A,bo,O,o,92,1,664.9000000357628,966901.7999999523,7752,WL,C,4.0
7,9.963000059127808,immed,50036.99994087219,Thu Jun 04 2026 13:32:24 GMT-0500 (Central Daylight Time),968033.8999999762,A,bod,O,d,454,1,1132.1000000238419,966901.7999999523,7752,WL,C,4.0
7,10.129999876022339,immed,49870.00012397766,Thu Jun 04 2026 13:32:24 GMT-0500 (Central Daylight Time),968200.7999999523,A,body,O,y,146,1,1299.0,966901.7999999523,7752,WL,C,4.0
7,12.830999851226807,immed,47169.00014877319,Thu Jun 04 2026 13:32:24 GMT-0500 (Central Daylight Time),970901.5,A,bodydelete,O,delete,2678,1,3999.7000000476837,966901.7999999523,7752,WL,C,4.0
7,14.02999997138977,immed,45970.00002861023,Thu Jun 04 2026 13:32:24 GMT-0500 (Central Daylight Time),972100.5,A,bodydeleteenter,O,enter,1177,1,5198.700000047684,966901.7999999523,7752,WL,C,4.0
7,14.845999956130981,immed,45154.00004386902,Thu Jun 04 2026 13:32:24 GMT-0500 (Central Daylight Time),972917.2999999523,A,b,O,b,795,1,816.5999999642372,972100.6999999881,7752,WL,C,5.0
7,15.062000036239624,immed,44937.999963760376,Thu Jun 04 2026 13:32:24 GMT-0500 (Central Daylight Time),973132.6999999881,A,bo,O,o,194,1,1032.0,972100.6999999881,7752,WL,C,5.0
7,15.444000005722046,immed,44555.999994277954,Thu Jun 04 2026 13:32:24 GMT-0500 (Central Daylight Time),973515.1999999881,A,boy,O,y,362,1,1414.5,972100.6999999881,7752,WL,C,5.0
7,16.34500002861023,immed,43654.99997138977,Thu Jun 04 2026 13:32:24 GMT-0500 (Central Daylight Time),974416.0,A,boydelete,O,delete,884,1,2315.300000011921,972100.6999999881,7752,WL,C,5.0
7,16.64400005340576,immed,43355.99994659424,Thu Jun 04 2026 13:32:24 GMT-0500 (Central Daylight Time),974715.0,A,boydeleted,O,d,277,1,2614.300000011921,972100.6999999881,7752,WL,C,5.0
7,16.812000036239624,immed,43187.999963760376,Thu Jun 04 2026 13:32:24 GMT-0500 (Central Daylight Time),974882.5,A,boydeletedo,O,o,153,1,2781.800000011921,972100.6999999881,7752,WL,C,5.0
7,17.026999950408936,immed,42973.000049591064,Thu Jun 04 2026 13:32:24 GMT-0500 (Central Daylight Time),975098.3999999762,A,boydeletedoc,O,c,194,1,2997.699999988079,972100.6999999881,7752,WL,C,5.0
7,17.26099991798401,immed,42739.00008201599,Thu Jun 04 2026 13:32:24 GMT-0500 (Central Daylight Time),975331.5,A,boydeletedoct,O,t,219,1,3230.800000011921,972100.6999999881,7752,WL,C,5.0
7,17.42899990081787,immed,42571.00009918213,Thu Jun 04 2026 13:32:24 GMT-0500 (Central Daylight Time),975500.2999999523,A,boydeletedocto,O,o,164,1,3399.599999964237,972100.6999999881,7752,WL,C,5.0
7,17.509999990463257,immed,42490.00000953674,Thu Jun 04 2026 13:32:24 GMT-0500 (Central Daylight Time),975580.7999999523,A,boydeletedoctor,O,r,72,1,3480.099999964237,972100.6999999881,7752,WL,C,5.0
7,24.5239999294281,immed,35476.0000705719,Thu Jun 04 2026 13:32:24 GMT-0500 (Central Daylight Time),982594.5999999642,A,boydeletedoctorenter,O,enter,7001,1,10493.899999976158,972100.6999999881,7752,WL,C,5.0
7,26.175999879837036,immed,33824.000120162964,Thu Jun 04 2026 13:32:24 GMT-0500 (Central Daylight Time),984246.5999999642,A,d,O,d,1635,1,1651.800000011921,982594.7999999523,7752,WL,C,6.0
7,26.340999841690063,immed,33659.00015830994,Thu Jun 04 2026 13:32:24 GMT-0500 (Central Daylight Time),984412.0,A,do,O,o,150,1,1817.2000000476837,982594.7999999523,7752,WL,C,6.0
7,26.44000005722046,immed,33559.99994277954,Thu Jun 04 2026 13:32:24 GMT-0500 (Central Daylight Time),984511.3999999762,A,doc,O,c,91,1,1916.6000000238419,982594.7999999523,7752,WL,C,6.0
7,26.70799994468689,immed,33292.00005531311,Thu Jun 04 2026 13:32:24 GMT-0500 (Central Daylight Time),984779.0999999642,A,doct,O,t,244,1,2184.300000011921,982594.7999999523,7752,WL,C,6.0
7,26.840999841690063,immed,33159.00015830994,Thu Jun 04 2026 13:32:24 GMT-0500 (Central Daylight Time),984912.3999999762,A,docto,O,o,122,1,2317.600000023842,982594.7999999523,7752,WL,C,6.0
7,26.97499990463257,immed,33025.00009536743,Thu Jun 04 2026 13:32:24 GMT-0500 (Central Daylight Time),985046.0,A,doctor,O,r,112,1,2451.2000000476837,982594.7999999523,7752,WL,C,6.0
7,28.08999991416931,immed,31910.00008583069,Thu Jun 04 2026 13:32:24 GMT-0500 (Central Daylight Time),986161.2999999523,A,doctorenter,O,enter,1094,1,3566.5,982594.7999999523,7752,WL,C,6.0
7,30.58999991416931,immed,29410.00008583069,Thu Jun 04 2026 13:32:24 GMT-0500 (Central Daylight Time),988660.6999999881,A,c,O,c,2484,1,2499.300000011921,986161.3999999762,7752,WL,C,7.0
7,30.973000049591064,immed,29026.999950408936,Thu Jun 04 2026 13:32:24 GMT-0500 (Central Daylight Time),989044.0,A,ca,O,a,363,1,2882.600000023842,986161.3999999762,7752,WL,C,7.0
7,31.322999954223633,immed,28677.000045776367,Thu Jun 04 2026 13:32:24 GMT-0500 (Central Daylight Time),989393.7999999523,A,cat,O,t,327,1,3232.399999976158,986161.3999999762,7752,WL,C,7.0
7,31.455999851226807,immed,28544.000148773193,Thu Jun 04 2026 13:32:24 GMT-0500 (Central Daylight Time),989527.3999999762,A,catt,O,t,122,1,3366.0,986161.3999999762,7752,WL,C,7.0
7,31.73799991607666,immed,28262.00008392334,Thu Jun 04 2026 13:32:24 GMT-0500 (Central Daylight Time),989809.3999999762,A,catte,O,e,260,1,3648.0,986161.3999999762,7752,WL,C,7.0
7,32.77199983596802,immed,27228.000164031982,Thu Jun 04 2026 13:32:24 GMT-0500 (Central Daylight Time),990843.0,A,catteenter,O,enter,1020,1,4681.600000023842,986161.3999999762,7752,WL,C,7.0
7,33.10599994659424,immed,26894.00005340576,Thu Jun 04 2026 13:32:24 GMT-0500 (Central Daylight Time),991176.7999999523,A,c,O,c,323,1,333.5999999642372,990843.1999999881,7752,WL,C,8.0
7,33.389999866485596,immed,26610.000133514404,Thu Jun 04 2026 13:32:24 GMT-0500 (Central Daylight Time),991460.5999999642,A,ca,O,a,268,1,617.3999999761581,990843.1999999881,7752,WL,C,8.0
7,33.789000034332275,immed,26210.999965667725,Thu Jun 04 2026 13:32:24 GMT-0500 (Central Daylight Time),991860.1999999881,A,cam,O,m,386,1,1017.0,990843.1999999881,7752,WL,C,8.0
7,34.15400004386902,immed,25845.99995613098,Thu Jun 04 2026 13:32:24 GMT-0500 (Central Daylight Time),992225.0999999642,A,camp,O,p,352,1,1381.8999999761581,990843.1999999881,7752,WL,C,8.0
7,34.937999963760376,immed,25062.000036239624,Thu Jun 04 2026 13:32:24 GMT-0500 (Central Daylight Time),993008.8999999762,A,campenter,O,enter,773,1,2165.699999988079,990843.1999999881,7752,WL,C,8.0
7,36.05399990081787,immed,23946.00009918213,Thu Jun 04 2026 13:32:24 GMT-0500 (Central Daylight Time),994125.0999999642,A,n,O,n,1100,1,1115.8999999761581,993009.1999999881,7752,WL,C,9.0
7,36.1710000038147,immed,23828.999996185303,Thu Jun 04 2026 13:32:24 GMT-0500 (Central Daylight Time),994241.5999999642,A,na,O,a,96,1,1232.3999999761581,993009.1999999881,7752,WL,C,9.0
7,36.32099986076355,immed,23679.00013923645,Thu Jun 04 2026 13:32:24 GMT-0500 (Central Daylight Time),994392.5,A,nai,O,i,139,1,1383.300000011921,993009.1999999881,7752,WL,C,9.0
7,36.50399994850159,immed,23496.000051498413,Thu Jun 04 2026 13:32:24 GMT-0500 (Central Daylight Time),994575.3999999762,A,nail,O,l,172,1,1566.199999988079,993009.1999999881,7752,WL,C,9.0
7,36.855000019073486,immed,23144.999980926514,Thu Jun 04 2026 13:32:24 GMT-0500 (Central Daylight Time),994925.6999999881,A,nailenter,O,enter,332,1,1916.5,993009.1999999881,7752,WL,C,9.0
7,38.187000036239624,immed,21812.999963760376,Thu Jun 04 2026 13:32:24 GMT-0500 (Central Daylight Time),996257.8999999762,A,b,O,b,1312,1,1331.8999999761581,994926.0,7752,WL,C,10.0
7,38.353999853134155,immed,21646.000146865845,Thu Jun 04 2026 13:32:24 GMT-0500 (Central Daylight Time),996425.2999999523,A,bo,O,o,146,1,1499.2999999523163,994926.0,7752,WL,C,10.0
7,38.47000002861023,immed,21529.99997138977,Thu Jun 04 2026 13:32:24 GMT-0500 (Central Daylight Time),996541.0999999642,A,bod,O,d,101,1,1615.0999999642372,994926.0,7752,WL,C,10.0
7,38.65299987792969,immed,21347.000122070312,Thu Jun 04 2026 13:32:24 GMT-0500 (Central Daylight Time),996724.3999999762,A,body,O,y,162,1,1798.3999999761581,994926.0,7752,WL,C,10.0
7,39.36899995803833,immed,20631.00004196167,Thu Jun 04 2026 13:32:24 GMT-0500 (Central Daylight Time),997439.5,A,bodyenter,O,enter,698,1,2513.5,994926.0,7752,WL,C,10.0
7,42.901999950408936,immed,17098.000049591064,Thu Jun 04 2026 13:32:24 GMT-0500 (Central Daylight Time),1000972.8999999762,A,h,O,h,3517,1,3533.199999988079,997439.6999999881,7752,WL,C,11.0
7,43.105000019073486,immed,16894.999980926514,Thu Jun 04 2026 13:32:24 GMT-0500 (Central Daylight Time),1001175.5,A,ho,O,o,179,1,3735.800000011921,997439.6999999881,7752,WL,C,11.0
7,43.319000005722046,immed,16680.999994277954,Thu Jun 04 2026 13:32:24 GMT-0500 (Central Daylight Time),1001389.6999999881,A,hom,O,m,200,1,3950.0,997439.6999999881,7752,WL,C,11.0
7,43.43599987030029,immed,16564.000129699707,Thu Jun 04 2026 13:32:24 GMT-0500 (Central Daylight Time),1001506.7999999523,A,home,O,e,103,1,4067.099999964237,997439.6999999881,7752,WL,C,11.0
7,43.717000007629395,immed,16282.999992370605,Thu Jun 04 2026 13:32:24 GMT-0500 (Central Daylight Time),1001788.0999999642,A,homeenter,O,enter,275,1,4348.399999976158,997439.6999999881,7752,WL,C,11.0
7,52.598999977111816,immed,7401.000022888184,Thu Jun 04 2026 13:32:24 GMT-0500 (Central Daylight Time),1010670.5,A,s,O,s,8861,1,8882.200000047684,1001788.2999999523,7752,WL,C,12.0
7,52.76600003242493,immed,7233.999967575073,Thu Jun 04 2026 13:32:24 GMT-0500 (Central Daylight Time),1010837.0,A,sh,O,h,145,1,9048.700000047684,1001788.2999999523,7752,WL,C,12.0
7,52.91599988937378,immed,7084.000110626221,Thu Jun 04 2026 13:32:24 GMT-0500 (Central Daylight Time),1010987.3999999762,A,sho,O,o,126,1,9199.100000023842,1001788.2999999523,7752,WL,C,12.0
7,53.050999879837036,immed,6949.000120162964,Thu Jun 04 2026 13:32:24 GMT-0500 (Central Daylight Time),1011121.7999999523,A,shor,O,r,112,1,9333.5,1001788.2999999523,7752,WL,C,12.0
7,53.181999921798706,immed,6818.000078201294,Thu Jun 04 2026 13:32:24 GMT-0500 (Central Daylight Time),1011253.3999999762,A,shore,O,e,127,1,9465.100000023842,1001788.2999999523,7752,WL,C,12.0
7,53.54900002479553,immed,6450.999975204468,Thu Jun 04 2026 13:32:24 GMT-0500 (Central Daylight Time),1011620.0999999642,A,shoreenter,O,enter,351,1,9831.800000011921,1001788.2999999523,7752,WL,C,12.0
7,60.014999866485596,immed,-14.999866485595703,Thu Jun 04 2026 13:32:24 GMT-0500 (Central Daylight Time),1018085.7999999523,A,None,O,None,6461,1,6465.5,1011620.2999999523,7752,WL,C,13.0
