acc_sum,block,block_c,change,condition,correct,correct_response,datetime,endtime,face,project,response,response_time,row_sel,session_number,start_end,starttime,subject_id,task,task_vers,trial
0,prac,1,,1-Back,,,Mon Dec 15 2025 15:13:26 GMT-0600 (Central Standard Time),,050_m_f_n_a.png,O,space,4299,1,1,,,7722,NNB,A,0
1,prac,1,0.0,1-Back,1.0,m,Mon Dec 15 2025 15:13:26 GMT-0600 (Central Standard Time),122846.59999990463,063_y_f_n_a.png,O,m,854,2,1,1638.0,121208.59999990463,7722,NNB,A,1
1,prac,1,1.0,1-Back,0.0,z,Mon Dec 15 2025 15:13:26 GMT-0600 (Central Standard Time),125627.79999995232,063_y_f_n_a.png,O,None,2003,3,1,2768.7000000476837,122859.09999990463,7722,NNB,A,2
2,prac,1,0.0,1-Back,1.0,m,Mon Dec 15 2025 15:13:26 GMT-0600 (Central Standard Time),127862.89999997616,053_o_m_n_a.png,O,m,1416,4,1,2223.3000000715256,125639.59999990463,7722,NNB,A,3
3,prac,1,0.0,1-Back,1.0,m,Mon Dec 15 2025 15:13:26 GMT-0600 (Central Standard Time),129443.59999990463,058_m_m_n_a.png,O,m,772,5,1,1569.3999999761581,127874.19999992847,7722,NNB,A,4
4,prac,1,1.0,1-Back,1.0,z,Mon Dec 15 2025 15:13:26 GMT-0600 (Central Standard Time),130742.29999995232,058_m_m_n_a.png,O,z,517,6,1,1287.7999999523163,129454.5,7722,NNB,A,5
5,prac,1,0.0,1-Back,1.0,m,Mon Dec 15 2025 15:13:26 GMT-0600 (Central Standard Time),132791.69999992847,047_o_f_n_a.png,O,m,1219,7,1,2040.2999999523163,130751.39999997616,7722,NNB,A,6
6,prac,1,0.0,1-Back,1.0,m,Mon Dec 15 2025 15:13:26 GMT-0600 (Central Standard Time),134557.59999990463,045_m_m_n_a.png,O,m,958,8,1,1755.5,132802.09999990463,7722,NNB,A,7
7,prac,1,0.0,1-Back,1.0,m,Mon Dec 15 2025 15:13:26 GMT-0600 (Central Standard Time),136125.69999992847,050_m_f_n_a.png,O,m,793,9,1,1556.2999999523163,134569.39999997616,7722,NNB,A,8
8,prac,1,1.0,1-Back,1.0,z,Mon Dec 15 2025 15:13:26 GMT-0600 (Central Standard Time),137608.09999990463,050_m_f_n_a.png,O,z,707,10,1,1472.7999999523163,136135.29999995232,7722,NNB,A,9
9,prac,1,0.0,1-Back,1.0,m,Mon Dec 15 2025 15:13:26 GMT-0600 (Central Standard Time),139158.69999992847,053_o_m_n_a.png,O,m,783,11,1,1539.3999999761581,137619.29999995232,7722,NNB,A,10
10,prac,1,0.0,1-Back,1.0,m,Mon Dec 15 2025 15:13:26 GMT-0600 (Central Standard Time),140676.09999990463,010_y_f_n_a.png,O,m,678,12,1,1507.0,139169.09999990463,7722,NNB,A,11
0,test,1,0.0,1-Back,,,Mon Dec 15 2025 15:13:26 GMT-0600 (Central Standard Time),140676.09999990463,063_y_f_n_a.png,O,space,4416,1,1,1507.0,139169.09999990463,7722,NNB,A,0
1,test,1,0.0,1-Back,1.0,m,Mon Dec 15 2025 15:13:26 GMT-0600 (Central Standard Time),155073.39999997616,043_m_f_n_a.png,O,m,458,2,1,1477.3000000715256,153596.09999990463,7722,NNB,A,1
2,test,1,0.0,1-Back,1.0,m,Mon Dec 15 2025 15:13:26 GMT-0600 (Central Standard Time),156666.69999992847,010_y_f_n_a.png,O,m,582,3,1,1583.7999999523163,155082.89999997616,7722,NNB,A,2
3,test,1,1.0,1-Back,1.0,z,Mon Dec 15 2025 15:13:26 GMT-0600 (Central Standard Time),158217.5,010_y_f_n_a.png,O,z,526,4,1,1545.2000000476837,156672.29999995232,7722,NNB,A,3
4,test,1,0.0,1-Back,1.0,m,Mon Dec 15 2025 15:13:26 GMT-0600 (Central Standard Time),160033.29999995232,043_m_f_n_a.png,O,m,784,5,1,1804.2999999523163,158229.0,7722,NNB,A,4
5,test,1,0.0,1-Back,1.0,m,Mon Dec 15 2025 15:13:26 GMT-0600 (Central Standard Time),161565.29999995232,053_o_m_n_a.png,O,m,511,6,1,1523.1000000238419,160042.19999992847,7722,NNB,A,5
6,test,1,1.0,1-Back,1.0,z,Mon Dec 15 2025 15:13:26 GMT-0600 (Central Standard Time),163331.59999990463,053_o_m_n_a.png,O,z,749,7,1,1756.7999999523163,161574.79999995232,7722,NNB,A,6
7,test,1,0.0,1-Back,1.0,m,Mon Dec 15 2025 15:13:26 GMT-0600 (Central Standard Time),165031.5,058_m_m_n_a.png,O,m,679,8,1,1691.1000000238419,163340.39999997616,7722,NNB,A,7
8,test,1,0.0,1-Back,1.0,m,Mon Dec 15 2025 15:13:26 GMT-0600 (Central Standard Time),166631.19999992847,047_o_f_n_a.png,O,m,579,9,1,1590.1999999284744,165041.0,7722,NNB,A,8
9,test,1,0.0,1-Back,1.0,m,Mon Dec 15 2025 15:13:26 GMT-0600 (Central Standard Time),168263.79999995232,058_m_m_n_a.png,O,m,609,10,1,1622.6000000238419,166641.19999992847,7722,NNB,A,9
10,test,1,0.0,1-Back,1.0,m,Mon Dec 15 2025 15:13:26 GMT-0600 (Central Standard Time),169813.39999997616,041_y_m_n_a.png,O,m,531,11,1,1540.3999999761581,168273.0,7722,NNB,A,10
11,test,1,1.0,1-Back,1.0,z,Mon Dec 15 2025 15:13:26 GMT-0600 (Central Standard Time),171462.39999997616,041_y_m_n_a.png,O,z,617,12,1,1639.2000000476837,169823.19999992847,7722,NNB,A,11
12,test,1,0.0,1-Back,1.0,m,Mon Dec 15 2025 15:13:26 GMT-0600 (Central Standard Time),173111.59999990463,044_o_f_n_a.png,O,m,626,13,1,1640.3999999761581,171471.19999992847,7722,NNB,A,12
13,test,1,1.0,1-Back,1.0,z,Mon Dec 15 2025 15:13:26 GMT-0600 (Central Standard Time),174711.0,044_o_f_n_a.png,O,z,578,14,1,1589.3000000715256,173121.69999992847,7722,NNB,A,13
14,test,1,0.0,1-Back,1.0,m,Mon Dec 15 2025 15:13:26 GMT-0600 (Central Standard Time),176445.69999992847,008_y_m_n_a.png,O,m,716,15,1,1725.0,174720.69999992847,7722,NNB,A,14
15,test,1,0.0,1-Back,1.0,m,Mon Dec 15 2025 15:13:26 GMT-0600 (Central Standard Time),178093.09999990463,050_m_f_n_a.png,O,m,629,16,1,1640.0,176453.09999990463,7722,NNB,A,15
16,test,1,0.0,1-Back,1.0,m,Mon Dec 15 2025 15:13:26 GMT-0600 (Central Standard Time),179758.89999997616,046_o_m_n_a.png,O,m,644,17,1,1657.8000000715256,178101.09999990463,7722,NNB,A,16
17,test,1,0.0,1-Back,1.0,m,Mon Dec 15 2025 15:13:26 GMT-0600 (Central Standard Time),181559.29999995232,050_m_f_n_a.png,O,m,780,18,1,1791.2000000476837,179768.09999990463,7722,NNB,A,17
0,test,2,0.0,1-Back,,,Mon Dec 15 2025 15:13:26 GMT-0600 (Central Standard Time),181559.29999995232,058_m_m_n_a.png,O,space,1724,1,1,1791.2000000476837,179768.09999990463,7722,NNB,A,0
1,test,2,0.0,1-Back,1.0,m,Mon Dec 15 2025 15:13:26 GMT-0600 (Central Standard Time),186873.89999997616,043_m_f_n_a.png,O,m,541,2,1,1555.2000000476837,185318.69999992847,7722,NNB,A,1
1,test,2,1.0,1-Back,0.0,z,Mon Dec 15 2025 15:13:26 GMT-0600 (Central Standard Time),188506.59999990463,043_m_f_n_a.png,O,m,599,3,1,1623.5999999046326,186883.0,7722,NNB,A,2
2,test,2,0.0,1-Back,1.0,m,Mon Dec 15 2025 15:13:26 GMT-0600 (Central Standard Time),190206.5,058_m_m_n_a.png,O,m,678,4,1,1688.7000000476837,188517.79999995232,7722,NNB,A,3
3,test,2,0.0,1-Back,1.0,m,Mon Dec 15 2025 15:13:26 GMT-0600 (Central Standard Time),191705.89999997616,041_y_m_n_a.png,O,m,476,5,1,1487.5,190218.39999997616,7722,NNB,A,4
4,test,2,0.0,1-Back,1.0,m,Mon Dec 15 2025 15:13:26 GMT-0600 (Central Standard Time),193322.09999990463,063_y_f_n_a.png,O,m,592,6,1,1607.0999999046326,191715.0,7722,NNB,A,5
5,test,2,1.0,1-Back,1.0,z,Mon Dec 15 2025 15:13:26 GMT-0600 (Central Standard Time),194805.59999990463,063_y_f_n_a.png,O,z,456,7,1,1474.7999999523163,193330.79999995232,7722,NNB,A,6
6,test,2,0.0,1-Back,1.0,m,Mon Dec 15 2025 15:13:26 GMT-0600 (Central Standard Time),196404.09999990463,041_y_m_n_a.png,O,m,571,8,1,1589.3999999761581,194814.69999992847,7722,NNB,A,7
7,test,2,0.0,1-Back,1.0,m,Mon Dec 15 2025 15:13:26 GMT-0600 (Central Standard Time),197987.09999990463,044_o_f_n_a.png,O,m,558,9,1,1572.3999999761581,196414.69999992847,7722,NNB,A,8
8,test,2,0.0,1-Back,1.0,m,Mon Dec 15 2025 15:13:26 GMT-0600 (Central Standard Time),199587.19999992847,045_m_m_n_a.png,O,m,568,10,1,1586.1999999284744,198001.0,7722,NNB,A,9
9,test,2,1.0,1-Back,1.0,z,Mon Dec 15 2025 15:13:26 GMT-0600 (Central Standard Time),201203.0,045_m_m_n_a.png,O,z,583,11,1,1605.8000000715256,199597.19999992847,7722,NNB,A,10
10,test,2,0.0,1-Back,1.0,m,Mon Dec 15 2025 15:13:26 GMT-0600 (Central Standard Time),202887.39999997616,044_o_f_n_a.png,O,m,663,12,1,1673.0,201214.39999997616,7722,NNB,A,11
11,test,2,0.0,1-Back,1.0,m,Mon Dec 15 2025 15:13:26 GMT-0600 (Central Standard Time),204486.5,047_o_f_n_a.png,O,m,583,13,1,1587.6000000238419,202898.89999997616,7722,NNB,A,12
12,test,2,0.0,1-Back,1.0,m,Mon Dec 15 2025 15:13:26 GMT-0600 (Central Standard Time),206101.39999997616,053_o_m_n_a.png,O,m,597,14,1,1603.8999999761581,204497.5,7722,NNB,A,13
13,test,2,0.0,1-Back,1.0,m,Mon Dec 15 2025 15:13:26 GMT-0600 (Central Standard Time),207651.19999992847,046_o_m_n_a.png,O,m,533,15,1,1537.8999999761581,206113.29999995232,7722,NNB,A,14
14,test,2,1.0,1-Back,1.0,z,Mon Dec 15 2025 15:13:26 GMT-0600 (Central Standard Time),209149.5,046_o_m_n_a.png,O,z,479,16,1,1490.0,207659.5,7722,NNB,A,15
15,test,2,0.0,1-Back,1.0,m,Mon Dec 15 2025 15:13:26 GMT-0600 (Central Standard Time),210767.29999995232,008_y_m_n_a.png,O,m,586,17,1,1608.7000000476837,209158.59999990463,7722,NNB,A,16
16,test,2,1.0,1-Back,1.0,z,Mon Dec 15 2025 15:13:26 GMT-0600 (Central Standard Time),212433.0,008_y_m_n_a.png,O,z,636,18,1,1654.1000000238419,210778.89999997616,7722,NNB,A,17
0,test,3,1.0,1-Back,,,Mon Dec 15 2025 15:13:26 GMT-0600 (Central Standard Time),212433.0,010_y_f_n_a.png,O,space,1305,1,1,1654.1000000238419,210778.89999997616,7722,NNB,A,0
1,test,3,0.0,1-Back,1.0,m,Mon Dec 15 2025 15:13:26 GMT-0600 (Central Standard Time),217532.19999992847,046_o_m_n_a.png,O,m,700,2,1,1707.7999999523163,215824.39999997616,7722,NNB,A,1
1,test,3,1.0,1-Back,0.0,z,Mon Dec 15 2025 15:13:26 GMT-0600 (Central Standard Time),219297.59999990463,046_o_m_n_a.png,O,m,745,3,1,1753.0999999046326,217544.5,7722,NNB,A,2
2,test,3,0.0,1-Back,1.0,m,Mon Dec 15 2025 15:13:26 GMT-0600 (Central Standard Time),221164.39999997616,050_m_f_n_a.png,O,m,833,4,1,1857.3000000715256,219307.09999990463,7722,NNB,A,3
3,test,3,1.0,1-Back,1.0,z,Mon Dec 15 2025 15:13:26 GMT-0600 (Central Standard Time),222598.39999997616,050_m_f_n_a.png,O,z,415,5,1,1424.7000000476837,221173.69999992847,7722,NNB,A,4
4,test,3,0.0,1-Back,1.0,m,Mon Dec 15 2025 15:13:26 GMT-0600 (Central Standard Time),224228.89999997616,044_o_f_n_a.png,O,m,600,6,1,1619.8000000715256,222609.09999990463,7722,NNB,A,5
5,test,3,0.0,1-Back,1.0,m,Mon Dec 15 2025 15:13:26 GMT-0600 (Central Standard Time),225894.5,041_y_m_n_a.png,O,m,644,7,1,1654.7000000476837,224239.79999995232,7722,NNB,A,6
6,test,3,0.0,1-Back,1.0,m,Mon Dec 15 2025 15:13:26 GMT-0600 (Central Standard Time),227527.59999990463,044_o_f_n_a.png,O,m,611,8,1,1623.2999999523163,225904.29999995232,7722,NNB,A,7
7,test,3,0.0,1-Back,1.0,m,Mon Dec 15 2025 15:13:26 GMT-0600 (Central Standard Time),229062.69999992847,008_y_m_n_a.png,O,m,514,9,1,1524.1000000238419,227538.59999990463,7722,NNB,A,8
8,test,3,1.0,1-Back,1.0,z,Mon Dec 15 2025 15:13:26 GMT-0600 (Central Standard Time),230677.19999992847,008_y_m_n_a.png,O,z,597,10,1,1603.0,229074.19999992847,7722,NNB,A,9
9,test,3,0.0,1-Back,1.0,m,Mon Dec 15 2025 15:13:26 GMT-0600 (Central Standard Time),232259.59999990463,043_m_f_n_a.png,O,m,557,11,1,1572.1999999284744,230687.39999997616,7722,NNB,A,10
10,test,3,0.0,1-Back,1.0,m,Mon Dec 15 2025 15:13:26 GMT-0600 (Central Standard Time),234025.09999990463,063_y_f_n_a.png,O,m,742,12,1,1755.1999999284744,232269.89999997616,7722,NNB,A,11
11,test,3,1.0,1-Back,1.0,z,Mon Dec 15 2025 15:13:26 GMT-0600 (Central Standard Time),235726.09999990463,063_y_f_n_a.png,O,z,672,13,1,1690.3999999761581,234035.69999992847,7722,NNB,A,12
12,test,3,0.0,1-Back,1.0,m,Mon Dec 15 2025 15:13:26 GMT-0600 (Central Standard Time),237242.0,043_m_f_n_a.png,O,m,493,14,1,1505.7000000476837,235736.29999995232,7722,NNB,A,13
13,test,3,0.0,1-Back,1.0,m,Mon Dec 15 2025 15:13:26 GMT-0600 (Central Standard Time),238874.29999995232,058_m_m_n_a.png,O,m,601,15,1,1621.0,237253.29999995232,7722,NNB,A,14
14,test,3,1.0,1-Back,1.0,z,Mon Dec 15 2025 15:13:26 GMT-0600 (Central Standard Time),240623.79999995232,058_m_m_n_a.png,O,z,720,16,1,1737.1000000238419,238886.69999992847,7722,NNB,A,15
15,test,3,0.0,1-Back,1.0,m,Mon Dec 15 2025 15:13:26 GMT-0600 (Central Standard Time),242172.79999995232,047_o_f_n_a.png,O,m,516,17,1,1537.8999999761581,240634.89999997616,7722,NNB,A,16
16,test,3,1.0,1-Back,1.0,z,Mon Dec 15 2025 15:13:26 GMT-0600 (Central Standard Time),243760.19999992847,047_o_f_n_a.png,O,z,569,18,1,1578.1000000238419,242182.09999990463,7722,NNB,A,17
0,test,4,1.0,1-Back,,,Mon Dec 15 2025 15:13:26 GMT-0600 (Central Standard Time),243760.19999992847,050_m_f_n_a.png,O,space,1187,1,1,1578.1000000238419,242182.09999990463,7722,NNB,A,0
1,test,4,0.0,1-Back,1.0,m,Mon Dec 15 2025 15:13:26 GMT-0600 (Central Standard Time),248520.0,046_o_m_n_a.png,O,m,527,2,1,1543.7000000476837,246976.29999995232,7722,NNB,A,1
2,test,4,0.0,1-Back,1.0,m,Mon Dec 15 2025 15:13:26 GMT-0600 (Central Standard Time),250453.89999997616,050_m_f_n_a.png,O,m,913,3,1,1927.3999999761581,248526.5,7722,NNB,A,2
3,test,4,0.0,1-Back,1.0,m,Mon Dec 15 2025 15:13:26 GMT-0600 (Central Standard Time),252035.89999997616,044_o_f_n_a.png,O,m,564,4,1,1576.1000000238419,250459.79999995232,7722,NNB,A,3
4,test,4,1.0,1-Back,1.0,z,Mon Dec 15 2025 15:13:26 GMT-0600 (Central Standard Time),253569.5,044_o_f_n_a.png,O,z,509,5,1,1527.0,252042.5,7722,NNB,A,4
5,test,4,0.0,1-Back,1.0,m,Mon Dec 15 2025 15:13:26 GMT-0600 (Central Standard Time),255636.09999990463,063_y_f_n_a.png,O,m,1039,6,1,2060.5,253575.59999990463,7722,NNB,A,5
6,test,4,0.0,1-Back,1.0,m,Mon Dec 15 2025 15:13:26 GMT-0600 (Central Standard Time),257501.59999990463,041_y_m_n_a.png,O,m,846,7,1,1855.7999999523163,255645.79999995232,7722,NNB,A,6
6,test,4,1.0,1-Back,0.0,z,Mon Dec 15 2025 15:13:26 GMT-0600 (Central Standard Time),259334.19999992847,041_y_m_n_a.png,O,m,811,8,1,1822.1999999284744,257512.0,7722,NNB,A,7
7,test,4,0.0,1-Back,1.0,m,Mon Dec 15 2025 15:13:26 GMT-0600 (Central Standard Time),261185.0,063_y_f_n_a.png,O,m,821,9,1,1840.0,259345.0,7722,NNB,A,8
8,test,4,0.0,1-Back,1.0,m,Mon Dec 15 2025 15:13:26 GMT-0600 (Central Standard Time),262833.1999999285,045_m_m_n_a.png,O,m,626,10,1,1638.2999999523163,261194.89999997616,7722,NNB,A,9
9,test,4,1.0,1-Back,1.0,z,Mon Dec 15 2025 15:13:26 GMT-0600 (Central Standard Time),264451.89999997616,045_m_m_n_a.png,O,z,585,11,1,1608.0,262843.89999997616,7722,NNB,A,10
10,test,4,0.0,1-Back,1.0,m,Mon Dec 15 2025 15:13:26 GMT-0600 (Central Standard Time),266182.2999999523,047_o_f_n_a.png,O,m,706,12,1,1721.6000000238419,264460.6999999285,7722,NNB,A,11
11,test,4,0.0,1-Back,1.0,m,Mon Dec 15 2025 15:13:26 GMT-0600 (Central Standard Time),267849.6999999285,053_o_m_n_a.png,O,m,636,13,1,1657.1999999284744,266192.5,7722,NNB,A,12
12,test,4,0.0,1-Back,1.0,m,Mon Dec 15 2025 15:13:26 GMT-0600 (Central Standard Time),269497.59999990463,047_o_f_n_a.png,O,m,618,14,1,1639.7999999523163,267857.7999999523,7722,NNB,A,13
13,test,4,0.0,1-Back,1.0,m,Mon Dec 15 2025 15:13:26 GMT-0600 (Central Standard Time),271147.5,010_y_f_n_a.png,O,m,624,15,1,1640.2000000476837,269507.2999999523,7722,NNB,A,14
14,test,4,1.0,1-Back,1.0,z,Mon Dec 15 2025 15:13:26 GMT-0600 (Central Standard Time),272797.2999999523,010_y_f_n_a.png,O,z,632,16,1,1639.8999999761581,271157.39999997616,7722,NNB,A,15
15,test,4,0.0,1-Back,1.0,m,Mon Dec 15 2025 15:13:26 GMT-0600 (Central Standard Time),274379.39999997616,043_m_f_n_a.png,O,m,556,17,1,1572.5,272806.89999997616,7722,NNB,A,16
15,test,4,1.0,1-Back,0.0,z,Mon Dec 15 2025 15:13:26 GMT-0600 (Central Standard Time),275931.2999999523,043_m_f_n_a.png,O,m,526,18,1,1544.7999999523163,274386.5,7722,NNB,A,17
0,test,5,1.0,1-Back,,,Mon Dec 15 2025 15:13:26 GMT-0600 (Central Standard Time),275931.2999999523,053_o_m_n_a.png,O,space,1462,1,1,1544.7999999523163,274386.5,7722,NNB,A,0
1,test,5,1.0,1-Back,1.0,z,Mon Dec 15 2025 15:13:26 GMT-0600 (Central Standard Time),281360.89999997616,053_o_m_n_a.png,O,z,928,2,1,1941.8999999761581,279419.0,7722,NNB,A,1
2,test,5,0.0,1-Back,1.0,m,Mon Dec 15 2025 15:13:26 GMT-0600 (Central Standard Time),283143.7999999523,063_y_f_n_a.png,O,m,752,3,1,1773.8999999761581,281369.89999997616,7722,NNB,A,2
3,test,5,0.0,1-Back,1.0,m,Mon Dec 15 2025 15:13:26 GMT-0600 (Central Standard Time),284709.89999997616,041_y_m_n_a.png,O,m,539,4,1,1555.2000000476837,283154.6999999285,7722,NNB,A,3
4,test,5,0.0,1-Back,1.0,m,Mon Dec 15 2025 15:13:26 GMT-0600 (Central Standard Time),286360.59999990463,063_y_f_n_a.png,O,m,628,5,1,1639.2999999523163,284721.2999999523,7722,NNB,A,4
5,test,5,0.0,1-Back,1.0,m,Mon Dec 15 2025 15:13:26 GMT-0600 (Central Standard Time),287941.89999997616,058_m_m_n_a.png,O,m,555,6,1,1569.2000000476837,286372.6999999285,7722,NNB,A,5
6,test,5,1.0,1-Back,1.0,z,Mon Dec 15 2025 15:13:26 GMT-0600 (Central Standard Time),289709.09999990463,058_m_m_n_a.png,O,z,748,7,1,1758.0,287951.09999990463,7722,NNB,A,6
7,test,5,0.0,1-Back,1.0,m,Mon Dec 15 2025 15:13:26 GMT-0600 (Central Standard Time),291540.6999999285,010_y_f_n_a.png,O,m,796,8,1,1816.2999999523163,289724.39999997616,7722,NNB,A,7
8,test,5,0.0,1-Back,1.0,m,Mon Dec 15 2025 15:13:26 GMT-0600 (Central Standard Time),293257.09999990463,008_y_m_n_a.png,O,m,693,9,1,1706.7999999523163,291550.2999999523,7722,NNB,A,8
9,test,5,0.0,1-Back,1.0,m,Mon Dec 15 2025 15:13:26 GMT-0600 (Central Standard Time),295173.5,010_y_f_n_a.png,O,m,897,10,1,1906.4000000953674,293267.09999990463,7722,NNB,A,9
10,test,5,0.0,1-Back,1.0,m,Mon Dec 15 2025 15:13:26 GMT-0600 (Central Standard Time),296873.1999999285,047_o_f_n_a.png,O,m,668,11,1,1690.0,295183.1999999285,7722,NNB,A,10
11,test,5,1.0,1-Back,1.0,z,Mon Dec 15 2025 15:13:26 GMT-0600 (Central Standard Time),298804.89999997616,047_o_f_n_a.png,O,z,913,12,1,1922.8999999761581,296882.0,7722,NNB,A,11
12,test,5,0.0,1-Back,1.0,m,Mon Dec 15 2025 15:13:26 GMT-0600 (Central Standard Time),300604.59999990463,046_o_m_n_a.png,O,m,772,13,1,1789.8999999761581,298814.6999999285,7722,NNB,A,12
13,test,5,0.0,1-Back,1.0,m,Mon Dec 15 2025 15:13:26 GMT-0600 (Central Standard Time),302203.89999997616,050_m_f_n_a.png,O,m,580,14,1,1589.1000000238419,300614.7999999523,7722,NNB,A,13
14,test,5,1.0,1-Back,1.0,z,Mon Dec 15 2025 15:13:26 GMT-0600 (Central Standard Time),303955.59999990463,050_m_f_n_a.png,O,z,724,15,1,1742.3999999761581,302213.1999999285,7722,NNB,A,14
15,test,5,0.0,1-Back,1.0,m,Mon Dec 15 2025 15:13:26 GMT-0600 (Central Standard Time),305620.09999990463,046_o_m_n_a.png,O,m,645,16,1,1653.5999999046326,303966.5,7722,NNB,A,15
16,test,5,0.0,1-Back,1.0,m,Mon Dec 15 2025 15:13:26 GMT-0600 (Central Standard Time),307436.59999990463,043_m_f_n_a.png,O,m,792,17,1,1807.6999999284744,305628.89999997616,7722,NNB,A,16
17,test,5,0.0,1-Back,1.0,m,Mon Dec 15 2025 15:13:26 GMT-0600 (Central Standard Time),309185.6999999285,045_m_m_n_a.png,O,m,726,18,1,1738.3999999761581,307447.2999999523,7722,NNB,A,17
0,prac,1,0.0,2-Back,,,Mon Dec 15 2025 15:13:26 GMT-0600 (Central Standard Time),309185.6999999285,008_y_m_n_a.png,O,space,5951,1,1,1738.3999999761581,307447.2999999523,7722,NNB,A,0
0,prac,1,0.0,2-Back,,,Mon Dec 15 2025 15:13:26 GMT-0600 (Central Standard Time),309185.6999999285,043_m_f_n_a.png,O,space,5951,2,1,1738.3999999761581,307447.2999999523,7722,NNB,A,0
1,prac,1,1.0,2-Back,1.0,m,Mon Dec 15 2025 15:13:26 GMT-0600 (Central Standard Time),432711.89999997616,046_o_m_n_a.png,O,m,826,3,1,1623.5,431088.39999997616,7722,NNB,A,1
1,prac,1,0.0,2-Back,0.0,m,Mon Dec 15 2025 15:13:26 GMT-0600 (Central Standard Time),434762.0,047_o_f_n_a.png,O,z,1228,4,1,2042.9000000953674,432719.09999990463,7722,NNB,A,2
2,prac,1,0.0,2-Back,1.0,z,Mon Dec 15 2025 15:13:26 GMT-0600 (Central Standard Time),436947.0,046_o_m_n_a.png,O,z,1407,5,1,2174.4000000953674,434772.59999990463,7722,NNB,A,3
2,prac,1,1.0,2-Back,0.0,z,Mon Dec 15 2025 15:13:26 GMT-0600 (Central Standard Time),439160.7999999523,047_o_f_n_a.png,O,m,1429,6,1,2202.899999976158,436957.89999997616,7722,NNB,A,4
3,prac,1,0.0,2-Back,1.0,m,Mon Dec 15 2025 15:13:26 GMT-0600 (Central Standard Time),441278.7999999523,045_m_m_n_a.png,O,m,1300,7,1,2106.2000000476837,439172.59999990463,7722,NNB,A,5
4,prac,1,0.0,2-Back,1.0,m,Mon Dec 15 2025 15:13:26 GMT-0600 (Central Standard Time),443276.09999990463,053_o_m_n_a.png,O,m,1191,8,1,1986.0,441290.09999990463,7722,NNB,A,6
5,prac,1,0.0,2-Back,1.0,m,Mon Dec 15 2025 15:13:26 GMT-0600 (Central Standard Time),445209.59999990463,010_y_f_n_a.png,O,m,1090,9,1,1923.5999999046326,443286.0,7722,NNB,A,7
6,prac,1,1.0,2-Back,1.0,z,Mon Dec 15 2025 15:13:26 GMT-0600 (Central Standard Time),446708.1999999285,053_o_m_n_a.png,O,z,709,10,1,1486.7999999523163,445221.39999997616,7722,NNB,A,8
7,prac,1,0.0,2-Back,1.0,m,Mon Dec 15 2025 15:13:26 GMT-0600 (Central Standard Time),448640.7999999523,063_y_f_n_a.png,O,m,1119,11,1,1920.2000000476837,446720.59999990463,7722,NNB,A,9
7,prac,1,0.0,2-Back,0.0,m,Mon Dec 15 2025 15:13:26 GMT-0600 (Central Standard Time),450340.39999997616,045_m_m_n_a.png,O,z,919,12,1,1688.3000000715256,448652.09999990463,7722,NNB,A,10
0,prac,2,0.0,2-Back,,,Mon Dec 15 2025 15:13:26 GMT-0600 (Central Standard Time),450340.39999997616,008_y_m_n_a.png,O,a,2274,1,1,1688.3000000715256,448652.09999990463,7722,NNB,A,0
0,prac,2,0.0,2-Back,,,Mon Dec 15 2025 15:13:26 GMT-0600 (Central Standard Time),450340.39999997616,043_m_f_n_a.png,O,a,2274,2,1,1688.3000000715256,448652.09999990463,7722,NNB,A,0
1,prac,2,1.0,2-Back,1.0,m,Mon Dec 15 2025 15:13:26 GMT-0600 (Central Standard Time),459772.1999999285,046_o_m_n_a.png,O,m,1325,3,1,2084.0,457688.1999999285,7722,NNB,A,1
2,prac,2,0.0,2-Back,1.0,m,Mon Dec 15 2025 15:13:26 GMT-0600 (Central Standard Time),462073.39999997616,047_o_f_n_a.png,O,m,1528,4,1,2288.7000000476837,459784.6999999285,7722,NNB,A,2
3,prac,2,0.0,2-Back,1.0,z,Mon Dec 15 2025 15:13:26 GMT-0600 (Central Standard Time),464170.1999999285,046_o_m_n_a.png,O,z,1317,5,1,2083.399999976158,462086.7999999523,7722,NNB,A,3
3,prac,2,1.0,2-Back,0.0,z,Mon Dec 15 2025 15:13:26 GMT-0600 (Central Standard Time),465971.0,047_o_f_n_a.png,O,m,1024,6,1,1792.2000000476837,464178.7999999523,7722,NNB,A,4
4,prac,2,0.0,2-Back,1.0,m,Mon Dec 15 2025 15:13:26 GMT-0600 (Central Standard Time),468001.89999997616,045_m_m_n_a.png,O,m,1249,7,1,2016.3000000715256,465985.59999990463,7722,NNB,A,5
4,prac,2,0.0,2-Back,0.0,m,Mon Dec 15 2025 15:13:26 GMT-0600 (Central Standard Time),469618.39999997616,053_o_m_n_a.png,O,z,837,8,1,1605.0,468013.39999997616,7722,NNB,A,6
5,prac,2,0.0,2-Back,1.0,m,Mon Dec 15 2025 15:13:26 GMT-0600 (Central Standard Time),471483.6999999285,010_y_f_n_a.png,O,m,1078,9,1,1854.1000000238419,469629.59999990463,7722,NNB,A,7
6,prac,2,1.0,2-Back,1.0,z,Mon Dec 15 2025 15:13:26 GMT-0600 (Central Standard Time),473634.59999990463,053_o_m_n_a.png,O,z,1356,10,1,2138.399999976158,471496.1999999285,7722,NNB,A,8
7,prac,2,0.0,2-Back,1.0,m,Mon Dec 15 2025 15:13:26 GMT-0600 (Central Standard Time),475382.6999999285,063_y_f_n_a.png,O,m,956,11,1,1736.1000000238419,473646.59999990463,7722,NNB,A,9
7,prac,2,0.0,2-Back,0.0,m,Mon Dec 15 2025 15:13:26 GMT-0600 (Central Standard Time),476948.89999997616,045_m_m_n_a.png,O,z,785,12,1,1555.1000000238419,475393.7999999523,7722,NNB,A,10
0,test,1,0.0,2-Back,,,Mon Dec 15 2025 15:13:26 GMT-0600 (Central Standard Time),476948.89999997616,041_y_m_n_a.png,O,space,4826,1,1,1555.1000000238419,475393.7999999523,7722,NNB,A,0
0,test,1,0.0,2-Back,,,Mon Dec 15 2025 15:13:26 GMT-0600 (Central Standard Time),476948.89999997616,041_y_m_n_a.png,O,space,4826,2,1,1555.1000000238419,475393.7999999523,7722,NNB,A,0
1,test,1,0.0,2-Back,1.0,m,Mon Dec 15 2025 15:13:26 GMT-0600 (Central Standard Time),493327.0,047_o_f_n_a.png,O,m,762,3,1,1771.0,491556.0,7722,NNB,A,1
2,test,1,0.0,2-Back,1.0,m,Mon Dec 15 2025 15:13:26 GMT-0600 (Central Standard Time),495343.1999999285,058_m_m_n_a.png,O,m,996,4,1,2005.8999999761581,493337.2999999523,7722,NNB,A,2
3,test,1,1.0,2-Back,1.0,z,Mon Dec 15 2025 15:13:26 GMT-0600 (Central Standard Time),497677.7999999523,047_o_f_n_a.png,O,z,1316,5,1,2324.7000000476837,495353.09999990463,7722,NNB,A,3
4,test,1,0.0,2-Back,1.0,m,Mon Dec 15 2025 15:13:26 GMT-0600 (Central Standard Time),499676.09999990463,063_y_f_n_a.png,O,m,976,6,1,1986.8999999761581,497689.1999999285,7722,NNB,A,4
4,test,1,0.0,2-Back,0.0,m,Mon Dec 15 2025 15:13:26 GMT-0600 (Central Standard Time),502056.59999990463,058_m_m_n_a.png,O,z,1357,7,1,2371.399999976158,499685.1999999285,7722,NNB,A,5
5,test,1,1.0,2-Back,1.0,z,Mon Dec 15 2025 15:13:26 GMT-0600 (Central Standard Time),504256.59999990463,063_y_f_n_a.png,O,z,1169,8,1,2190.399999976158,502066.1999999285,7722,NNB,A,6
6,test,1,0.0,2-Back,1.0,m,Mon Dec 15 2025 15:13:26 GMT-0600 (Central Standard Time),506439.7999999523,008_y_m_n_a.png,O,m,1154,9,1,2173.2999999523163,504266.5,7722,NNB,A,7
7,test,1,0.0,2-Back,1.0,m,Mon Dec 15 2025 15:13:26 GMT-0600 (Central Standard Time),508638.59999990463,044_o_f_n_a.png,O,m,1179,10,1,2189.1999999284744,506449.39999997616,7722,NNB,A,8
8,test,1,1.0,2-Back,1.0,z,Mon Dec 15 2025 15:13:26 GMT-0600 (Central Standard Time),510371.6999999285,008_y_m_n_a.png,O,z,707,11,1,1723.1000000238419,508648.59999990463,7722,NNB,A,9
9,test,1,0.0,2-Back,1.0,m,Mon Dec 15 2025 15:13:26 GMT-0600 (Central Standard Time),512820.6999999285,043_m_f_n_a.png,O,m,1424,12,1,2439.1999999284744,510381.5,7722,NNB,A,10
10,test,1,0.0,2-Back,1.0,m,Mon Dec 15 2025 15:13:26 GMT-0600 (Central Standard Time),515487.09999990463,043_m_f_n_a.png,O,m,1639,13,1,2655.7999999523163,512831.2999999523,7722,NNB,A,11
11,test,1,0.0,2-Back,1.0,m,Mon Dec 15 2025 15:13:26 GMT-0600 (Central Standard Time),517785.7999999523,046_o_m_n_a.png,O,m,1267,14,1,2287.5,515498.2999999523,7722,NNB,A,12
12,test,1,0.0,2-Back,1.0,m,Mon Dec 15 2025 15:13:26 GMT-0600 (Central Standard Time),520101.7999999523,044_o_f_n_a.png,O,m,1288,15,1,2306.2000000476837,517795.59999990463,7722,NNB,A,13
13,test,1,1.0,2-Back,1.0,z,Mon Dec 15 2025 15:13:26 GMT-0600 (Central Standard Time),522017.1999999285,046_o_m_n_a.png,O,z,893,16,1,1905.6999999284744,520111.5,7722,NNB,A,14
14,test,1,0.0,2-Back,1.0,m,Mon Dec 15 2025 15:13:26 GMT-0600 (Central Standard Time),524818.5999999046,050_m_f_n_a.png,O,m,1777,17,1,2791.399999976158,522027.1999999285,7722,NNB,A,15
15,test,1,0.0,2-Back,1.0,m,Mon Dec 15 2025 15:13:26 GMT-0600 (Central Standard Time),527383.0,045_m_m_n_a.png,O,m,1539,18,1,2554.0,524829.0,7722,NNB,A,16
0,test,2,0.0,2-Back,,,Mon Dec 15 2025 15:13:26 GMT-0600 (Central Standard Time),527383.0,045_m_m_n_a.png,O,space,1084,1,1,2554.0,524829.0,7722,NNB,A,0
0,test,2,0.0,2-Back,,,Mon Dec 15 2025 15:13:26 GMT-0600 (Central Standard Time),527383.0,010_y_f_n_a.png,O,space,1084,2,1,2554.0,524829.0,7722,NNB,A,0
1,test,2,1.0,2-Back,1.0,z,Mon Dec 15 2025 15:13:26 GMT-0600 (Central Standard Time),535564.8999999762,045_m_m_n_a.png,O,z,967,3,1,1975.1000000238419,533589.7999999523,7722,NNB,A,1
2,test,2,0.0,2-Back,1.0,m,Mon Dec 15 2025 15:13:26 GMT-0600 (Central Standard Time),537330.0,050_m_f_n_a.png,O,m,743,4,1,1756.6000000238419,535573.3999999762,7722,NNB,A,2
3,test,2,0.0,2-Back,1.0,m,Mon Dec 15 2025 15:13:26 GMT-0600 (Central Standard Time),539911.7999999523,010_y_f_n_a.png,O,m,1553,5,1,2572.100000023842,537339.6999999285,7722,NNB,A,3
4,test,2,0.0,2-Back,1.0,m,Mon Dec 15 2025 15:13:26 GMT-0600 (Central Standard Time),541727.8999999762,046_o_m_n_a.png,O,m,794,6,1,1806.8999999761581,539921.0,7722,NNB,A,4
4,test,2,0.0,2-Back,0.0,m,Mon Dec 15 2025 15:13:26 GMT-0600 (Central Standard Time),543761.5999999046,063_y_f_n_a.png,O,z,1010,7,1,2022.0999999046326,541739.5,7722,NNB,A,5
5,test,2,1.0,2-Back,1.0,z,Mon Dec 15 2025 15:13:26 GMT-0600 (Central Standard Time),546060.0,046_o_m_n_a.png,O,z,1265,8,1,2288.600000023842,543771.3999999762,7722,NNB,A,6
6,test,2,0.0,2-Back,1.0,m,Mon Dec 15 2025 15:13:26 GMT-0600 (Central Standard Time),548275.8999999762,008_y_m_n_a.png,O,m,1189,9,1,2204.899999976158,546071.0,7722,NNB,A,7
7,test,2,0.0,2-Back,1.0,m,Mon Dec 15 2025 15:13:26 GMT-0600 (Central Standard Time),550391.8999999762,008_y_m_n_a.png,O,m,1094,10,1,2104.3000000715256,548287.5999999046,7722,NNB,A,8
8,test,2,0.0,2-Back,1.0,m,Mon Dec 15 2025 15:13:26 GMT-0600 (Central Standard Time),552328.2999999523,043_m_f_n_a.png,O,m,906,11,1,1924.3999999761581,550403.8999999762,7722,NNB,A,9
9,test,2,0.0,2-Back,1.0,m,Mon Dec 15 2025 15:13:26 GMT-0600 (Central Standard Time),554390.5,010_y_f_n_a.png,O,m,1038,12,1,2052.0,552338.5,7722,NNB,A,10
10,test,2,1.0,2-Back,1.0,z,Mon Dec 15 2025 15:13:26 GMT-0600 (Central Standard Time),556323.2999999523,043_m_f_n_a.png,O,z,907,13,1,1922.5,554400.7999999523,7722,NNB,A,11
11,test,2,0.0,2-Back,1.0,m,Mon Dec 15 2025 15:13:26 GMT-0600 (Central Standard Time),558672.1999999285,053_o_m_n_a.png,O,m,1326,14,1,2338.100000023842,556334.0999999046,7722,NNB,A,12
11,test,2,0.0,2-Back,0.0,m,Mon Dec 15 2025 15:13:26 GMT-0600 (Central Standard Time),561238.3999999762,053_o_m_n_a.png,O,z,1537,15,1,2553.8000000715256,558684.5999999046,7722,NNB,A,13
12,test,2,0.0,2-Back,1.0,m,Mon Dec 15 2025 15:13:26 GMT-0600 (Central Standard Time),563537.5999999046,044_o_f_n_a.png,O,m,1276,16,1,2286.899999976158,561250.6999999285,7722,NNB,A,14
13,test,2,0.0,2-Back,1.0,m,Mon Dec 15 2025 15:13:26 GMT-0600 (Central Standard Time),565621.5,058_m_m_n_a.png,O,m,1065,17,1,2071.4000000953674,563550.0999999046,7722,NNB,A,15
14,test,2,1.0,2-Back,1.0,z,Mon Dec 15 2025 15:13:26 GMT-0600 (Central Standard Time),567387.8999999762,044_o_f_n_a.png,O,z,742,18,1,1757.8999999761581,565630.0,7722,NNB,A,16
0,test,3,1.0,2-Back,,,Mon Dec 15 2025 15:13:26 GMT-0600 (Central Standard Time),567387.8999999762,041_y_m_n_a.png,O,space,1174,1,1,1757.8999999761581,565630.0,7722,NNB,A,0
0,test,3,1.0,2-Back,,,Mon Dec 15 2025 15:13:26 GMT-0600 (Central Standard Time),567387.8999999762,041_y_m_n_a.png,O,space,1174,2,1,1757.8999999761581,565630.0,7722,NNB,A,0
1,test,3,0.0,2-Back,1.0,m,Mon Dec 15 2025 15:13:26 GMT-0600 (Central Standard Time),575501.1999999285,044_o_f_n_a.png,O,m,806,3,1,1820.5,573680.6999999285,7722,NNB,A,1
2,test,3,0.0,2-Back,1.0,m,Mon Dec 15 2025 15:13:26 GMT-0600 (Central Standard Time),577150.0,045_m_m_n_a.png,O,m,621,4,1,1637.3000000715256,575512.6999999285,7722,NNB,A,2
3,test,3,1.0,2-Back,1.0,z,Mon Dec 15 2025 15:13:26 GMT-0600 (Central Standard Time),579086.1999999285,044_o_f_n_a.png,O,z,908,5,1,1930.1999999284744,577156.0,7722,NNB,A,3
4,test,3,0.0,2-Back,1.0,m,Mon Dec 15 2025 15:13:26 GMT-0600 (Central Standard Time),581465.0,008_y_m_n_a.png,O,m,1358,6,1,2372.3000000715256,579092.6999999285,7722,NNB,A,4
4,test,3,0.0,2-Back,0.0,m,Mon Dec 15 2025 15:13:26 GMT-0600 (Central Standard Time),583649.0,045_m_m_n_a.png,O,z,1153,7,1,2171.5,581477.5,7722,NNB,A,5
4,test,3,1.0,2-Back,0.0,z,Mon Dec 15 2025 15:13:26 GMT-0600 (Central Standard Time),585730.3999999762,008_y_m_n_a.png,O,m,1059,8,1,2070.8000000715256,583659.5999999046,7722,NNB,A,6
5,test,3,0.0,2-Back,1.0,m,Mon Dec 15 2025 15:13:26 GMT-0600 (Central Standard Time),587730.0,010_y_f_n_a.png,O,m,975,9,1,1990.1000000238419,585739.8999999762,7722,NNB,A,7
6,test,3,0.0,2-Back,1.0,m,Mon Dec 15 2025 15:13:26 GMT-0600 (Central Standard Time),590062.3999999762,058_m_m_n_a.png,O,m,1303,10,1,2322.8000000715256,587739.5999999046,7722,NNB,A,8
7,test,3,1.0,2-Back,1.0,z,Mon Dec 15 2025 15:13:26 GMT-0600 (Central Standard Time),591829.7999999523,010_y_f_n_a.png,O,z,748,11,1,1758.5,590071.2999999523,7722,NNB,A,9
7,test,3,1.0,2-Back,0.0,z,Mon Dec 15 2025 15:13:26 GMT-0600 (Central Standard Time),593777.6999999285,058_m_m_n_a.png,O,m,917,12,1,1938.8999999761581,591838.7999999523,7722,NNB,A,10
8,test,3,0.0,2-Back,1.0,m,Mon Dec 15 2025 15:13:26 GMT-0600 (Central Standard Time),595611.0,044_o_f_n_a.png,O,m,800,13,1,1823.7000000476837,593787.2999999523,7722,NNB,A,11
9,test,3,0.0,2-Back,1.0,m,Mon Dec 15 2025 15:13:26 GMT-0600 (Central Standard Time),597892.7999999523,050_m_f_n_a.png,O,m,1255,14,1,2274.899999976158,595617.8999999762,7722,NNB,A,12
10,test,3,0.0,2-Back,1.0,m,Mon Dec 15 2025 15:13:26 GMT-0600 (Central Standard Time),599893.0999999046,046_o_m_n_a.png,O,m,982,15,1,1990.8999999761581,597902.1999999285,7722,NNB,A,13
11,test,3,1.0,2-Back,1.0,z,Mon Dec 15 2025 15:13:26 GMT-0600 (Central Standard Time),601741.5,050_m_f_n_a.png,O,z,820,16,1,1838.6000000238419,599902.8999999762,7722,NNB,A,14
12,test,3,0.0,2-Back,1.0,m,Mon Dec 15 2025 15:13:26 GMT-0600 (Central Standard Time),603759.3999999762,047_o_f_n_a.png,O,m,996,17,1,2006.7000000476837,601752.6999999285,7722,NNB,A,15
13,test,3,0.0,2-Back,1.0,m,Mon Dec 15 2025 15:13:26 GMT-0600 (Central Standard Time),606159.5,047_o_f_n_a.png,O,m,1366,18,1,2388.4000000953674,603771.0999999046,7722,NNB,A,16
0,test,4,0.0,2-Back,,,Mon Dec 15 2025 15:13:26 GMT-0600 (Central Standard Time),606159.5,053_o_m_n_a.png,O,space,1268,1,1,2388.4000000953674,603771.0999999046,7722,NNB,A,0
0,test,4,0.0,2-Back,,,Mon Dec 15 2025 15:13:26 GMT-0600 (Central Standard Time),606159.5,063_y_f_n_a.png,O,space,1268,2,1,2388.4000000953674,603771.0999999046,7722,NNB,A,0
1,test,4,1.0,2-Back,1.0,z,Mon Dec 15 2025 15:13:26 GMT-0600 (Central Standard Time),614438.2999999523,053_o_m_n_a.png,O,z,880,3,1,1887.7000000476837,612550.5999999046,7722,NNB,A,1
1,test,4,1.0,2-Back,0.0,z,Mon Dec 15 2025 15:13:26 GMT-0600 (Central Standard Time),616271.5,063_y_f_n_a.png,O,m,803,4,1,1822.8000000715256,614448.6999999285,7722,NNB,A,2
2,test,4,0.0,2-Back,1.0,m,Mon Dec 15 2025 15:13:26 GMT-0600 (Central Standard Time),618371.7999999523,044_o_f_n_a.png,O,m,1082,5,1,2088.600000023842,616283.1999999285,7722,NNB,A,3
3,test,4,0.0,2-Back,1.0,m,Mon Dec 15 2025 15:13:26 GMT-0600 (Central Standard Time),620420.0999999046,044_o_f_n_a.png,O,m,1025,6,1,2038.3999999761581,618381.6999999285,7722,NNB,A,4
4,test,4,0.0,2-Back,1.0,m,Mon Dec 15 2025 15:13:26 GMT-0600 (Central Standard Time),622286.5999999046,043_m_f_n_a.png,O,m,847,7,1,1857.7999999523163,620428.7999999523,7722,NNB,A,5
5,test,4,0.0,2-Back,1.0,m,Mon Dec 15 2025 15:13:26 GMT-0600 (Central Standard Time),624201.8999999762,008_y_m_n_a.png,O,m,892,8,1,1906.1000000238419,622295.7999999523,7722,NNB,A,6
6,test,4,1.0,2-Back,1.0,z,Mon Dec 15 2025 15:13:26 GMT-0600 (Central Standard Time),626085.2999999523,043_m_f_n_a.png,O,z,864,9,1,1872.8999999761581,624212.3999999762,7722,NNB,A,7
7,test,4,0.0,2-Back,1.0,m,Mon Dec 15 2025 15:13:26 GMT-0600 (Central Standard Time),628168.0,058_m_m_n_a.png,O,m,1060,10,1,2073.7000000476837,626094.2999999523,7722,NNB,A,8
8,test,4,0.0,2-Back,1.0,m,Mon Dec 15 2025 15:13:26 GMT-0600 (Central Standard Time),630416.3999999762,008_y_m_n_a.png,O,m,1226,11,1,2237.3000000715256,628179.0999999046,7722,NNB,A,9
9,test,4,0.0,2-Back,1.0,m,Mon Dec 15 2025 15:13:26 GMT-0600 (Central Standard Time),632533.0,047_o_f_n_a.png,O,m,1088,12,1,2106.9000000953674,630426.0999999046,7722,NNB,A,10
10,test,4,0.0,2-Back,1.0,m,Mon Dec 15 2025 15:13:26 GMT-0600 (Central Standard Time),634699.5999999046,041_y_m_n_a.png,O,m,1150,13,1,2155.899999976158,632543.6999999285,7722,NNB,A,11
11,test,4,1.0,2-Back,1.0,z,Mon Dec 15 2025 15:13:26 GMT-0600 (Central Standard Time),636730.6999999285,047_o_f_n_a.png,O,z,1008,14,1,2025.1000000238419,634705.5999999046,7722,NNB,A,12
12,test,4,1.0,2-Back,1.0,z,Mon Dec 15 2025 15:13:26 GMT-0600 (Central Standard Time),638863.6999999285,041_y_m_n_a.png,O,z,1111,15,1,2126.2999999523163,636737.3999999762,7722,NNB,A,13
13,test,4,0.0,2-Back,1.0,m,Mon Dec 15 2025 15:13:26 GMT-0600 (Central Standard Time),641013.8999999762,045_m_m_n_a.png,O,m,1130,16,1,2140.5,638873.3999999762,7722,NNB,A,14
14,test,4,0.0,2-Back,1.0,m,Mon Dec 15 2025 15:13:26 GMT-0600 (Central Standard Time),643112.3999999762,050_m_f_n_a.png,O,m,1066,17,1,2089.100000023842,641023.2999999523,7722,NNB,A,15
15,test,4,1.0,2-Back,1.0,z,Mon Dec 15 2025 15:13:26 GMT-0600 (Central Standard Time),645278.6999999285,045_m_m_n_a.png,O,z,1144,18,1,2155.6999999284744,643123.0,7722,NNB,A,16
0,test,5,1.0,2-Back,,,Mon Dec 15 2025 15:13:26 GMT-0600 (Central Standard Time),645278.6999999285,041_y_m_n_a.png,O,space,1820,1,1,2155.6999999284744,643123.0,7722,NNB,A,0
0,test,5,1.0,2-Back,,,Mon Dec 15 2025 15:13:26 GMT-0600 (Central Standard Time),645278.6999999285,050_m_f_n_a.png,O,space,1820,2,1,2155.6999999284744,643123.0,7722,NNB,A,0
1,test,5,1.0,2-Back,1.0,z,Mon Dec 15 2025 15:13:26 GMT-0600 (Central Standard Time),654158.3999999762,041_y_m_n_a.png,O,z,979,3,1,1989.6000000238419,652168.7999999523,7722,NNB,A,1
1,test,5,1.0,2-Back,0.0,z,Mon Dec 15 2025 15:13:26 GMT-0600 (Central Standard Time),656775.0999999046,050_m_f_n_a.png,O,m,1584,4,1,2604.1999999284744,654170.8999999762,7722,NNB,A,2
1,test,5,0.0,2-Back,0.0,m,Mon Dec 15 2025 15:13:26 GMT-0600 (Central Standard Time),659124.2999999523,047_o_f_n_a.png,O,z,1324,5,1,2338.399999976158,656785.8999999762,7722,NNB,A,3
2,test,5,0.0,2-Back,1.0,m,Mon Dec 15 2025 15:13:26 GMT-0600 (Central Standard Time),661673.0999999046,041_y_m_n_a.png,O,m,1527,6,1,2536.7999999523163,659136.2999999523,7722,NNB,A,4
3,test,5,0.0,2-Back,1.0,m,Mon Dec 15 2025 15:13:26 GMT-0600 (Central Standard Time),663474.7999999523,010_y_f_n_a.png,O,m,769,7,1,1790.2000000476837,661684.5999999046,7722,NNB,A,5
3,test,5,0.0,2-Back,0.0,m,Mon Dec 15 2025 15:13:26 GMT-0600 (Central Standard Time),665541.0,047_o_f_n_a.png,O,z,1042,8,1,2055.3000000715256,663485.6999999285,7722,NNB,A,6
4,test,5,1.0,2-Back,1.0,z,Mon Dec 15 2025 15:13:26 GMT-0600 (Central Standard Time),667755.6999999285,010_y_f_n_a.png,O,z,1192,9,1,2202.2999999523163,665553.3999999762,7722,NNB,A,7
5,test,5,0.0,2-Back,1.0,m,Mon Dec 15 2025 15:13:26 GMT-0600 (Central Standard Time),669622.6999999285,046_o_m_n_a.png,O,m,853,10,1,1856.6000000238419,667766.0999999046,7722,NNB,A,8
5,test,5,0.0,2-Back,0.0,m,Mon Dec 15 2025 15:13:26 GMT-0600 (Central Standard Time),671453.5999999046,043_m_f_n_a.png,O,z,806,11,1,1821.0999999046326,669632.5,7722,NNB,A,9
5,test,5,0.0,2-Back,0.0,m,Mon Dec 15 2025 15:13:26 GMT-0600 (Central Standard Time),673437.5999999046,058_m_m_n_a.png,O,z,956,12,1,1972.0,671465.5999999046,7722,NNB,A,10
6,test,5,0.0,2-Back,1.0,m,Mon Dec 15 2025 15:13:26 GMT-0600 (Central Standard Time),675722.0999999046,046_o_m_n_a.png,O,m,1260,13,1,2271.899999976158,673450.1999999285,7722,NNB,A,11
7,test,5,1.0,2-Back,1.0,z,Mon Dec 15 2025 15:13:26 GMT-0600 (Central Standard Time),678134.5,058_m_m_n_a.png,O,z,1395,14,1,2401.2000000476837,675733.2999999523,7722,NNB,A,12
8,test,5,0.0,2-Back,1.0,m,Mon Dec 15 2025 15:13:26 GMT-0600 (Central Standard Time),680734.3999999762,063_y_f_n_a.png,O,m,1583,15,1,2590.3000000715256,678144.0999999046,7722,NNB,A,13
9,test,5,0.0,2-Back,1.0,m,Mon Dec 15 2025 15:13:26 GMT-0600 (Central Standard Time),682884.7999999523,053_o_m_n_a.png,O,m,1129,16,1,2141.0,680743.7999999523,7722,NNB,A,14
10,test,5,0.0,2-Back,1.0,m,Mon Dec 15 2025 15:13:26 GMT-0600 (Central Standard Time),684732.2999999523,043_m_f_n_a.png,O,m,830,17,1,1834.3999999761581,682897.8999999762,7722,NNB,A,15
11,test,5,1.0,2-Back,1.0,z,Mon Dec 15 2025 15:13:26 GMT-0600 (Central Standard Time),686415.3999999762,053_o_m_n_a.png,O,z,657,18,1,1674.2000000476837,684741.1999999285,7722,NNB,A,16
