block_c,block_dur,condition,countdown,datetime,endtime,list,multichar_response,project,response,response_time,session_number,start_end,starttime,subject_id,task,task_vers,trial
,,,,Tue Aug 12 2025 15:12:08 GMT-0500 (Central Daylight Time),,,,O,space,647,1,,,7194,WL,B,
prac,,0,,Tue Aug 12 2025 15:12:08 GMT-0500 (Central Daylight Time),,NA,b,O,b,1493,1,,,7194,WL,B,1.0
prac,,0,,Tue Aug 12 2025 15:12:08 GMT-0500 (Central Daylight Time),,NA,bo,O,o,317,1,,,7194,WL,B,1.0
prac,,0,,Tue Aug 12 2025 15:12:08 GMT-0500 (Central Daylight Time),,NA,boo,O,o,178,1,,,7194,WL,B,1.0
prac,,0,,Tue Aug 12 2025 15:12:08 GMT-0500 (Central Daylight Time),,NA,boos,O,s,36,1,,,7194,WL,B,1.0
prac,,0,,Tue Aug 12 2025 15:12:08 GMT-0500 (Central Daylight Time),,NA,boost,O,t,244,1,,,7194,WL,B,1.0
prac,,0,,Tue Aug 12 2025 15:12:08 GMT-0500 (Central Daylight Time),,NA,boostenter,O,enter,2170,1,,,7194,WL,B,1.0
1,0.7339999675750732,learn,59266.00003242493,Tue Aug 12 2025 15:12:08 GMT-0500 (Central Daylight Time),111758.09999990463,A,s,O,s,694,1,732.7000000476837,111025.39999985695,7194,WL,B,1.0
1,1.5499999523162842,learn,58450.000047683716,Tue Aug 12 2025 15:12:08 GMT-0500 (Central Daylight Time),112574.0,A,sk,O,k,773,1,1548.6000001430511,111025.39999985695,7194,WL,B,1.0
1,1.9000000953674316,learn,58099.99990463257,Tue Aug 12 2025 15:12:08 GMT-0500 (Central Daylight Time),112923.89999985695,A,ski,O,i,314,1,1898.5,111025.39999985695,7194,WL,B,1.0
1,2.132999897003174,learn,57867.000102996826,Tue Aug 12 2025 15:12:08 GMT-0500 (Central Daylight Time),113157.09999990463,A,skin,O,n,200,1,2131.7000000476837,111025.39999985695,7194,WL,B,1.0
1,2.565000057220459,learn,57434.99994277954,Tue Aug 12 2025 15:12:08 GMT-0500 (Central Daylight Time),113589.29999995232,A,skinenter,O,enter,394,1,2563.9000000953674,111025.39999985695,7194,WL,B,1.0
1,2.7990000247955322,learn,57200.99997520447,Tue Aug 12 2025 15:12:08 GMT-0500 (Central Daylight Time),113823.19999980927,A,f,O,f,222,1,233.5,113589.69999980927,7194,WL,B,2.0
1,2.9660000801086426,learn,57033.99991989136,Tue Aug 12 2025 15:12:08 GMT-0500 (Central Daylight Time),113989.79999995232,A,fi,O,i,145,1,400.10000014305115,113589.69999980927,7194,WL,B,2.0
1,3.1660001277923584,learn,56833.99987220764,Tue Aug 12 2025 15:12:08 GMT-0500 (Central Daylight Time),114190.19999980927,A,fir,O,r,165,1,600.5,113589.69999980927,7194,WL,B,2.0
1,3.249000072479248,learn,56750.99992752075,Tue Aug 12 2025 15:12:08 GMT-0500 (Central Daylight Time),114272.69999980927,A,fire,O,e,41,1,683.0,113589.69999980927,7194,WL,B,2.0
1,3.631999969482422,learn,56368.00003051758,Tue Aug 12 2025 15:12:08 GMT-0500 (Central Daylight Time),114656.0,A,fireenter,O,enter,360,1,1066.3000001907349,113589.69999980927,7194,WL,B,2.0
1,3.8989999294281006,learn,56101.0000705719,Tue Aug 12 2025 15:12:08 GMT-0500 (Central Daylight Time),114923.5,A,c,O,c,253,1,267.10000014305115,114656.39999985695,7194,WL,B,3.0
1,3.999000072479248,learn,56000.99992752075,Tue Aug 12 2025 15:12:08 GMT-0500 (Central Daylight Time),115023.19999980927,A,cl,O,l,71,1,366.7999999523163,114656.39999985695,7194,WL,B,3.0
1,4.433000087738037,learn,55566.99991226196,Tue Aug 12 2025 15:12:08 GMT-0500 (Central Daylight Time),115456.39999985695,A,clo,O,o,399,1,800.0,114656.39999985695,7194,WL,B,3.0
1,4.815999984741211,learn,55184.00001525879,Tue Aug 12 2025 15:12:08 GMT-0500 (Central Daylight Time),115839.5,A,cloc,O,c,347,1,1183.1000001430511,114656.39999985695,7194,WL,B,3.0
1,4.914999961853027,learn,55085.00003814697,Tue Aug 12 2025 15:12:08 GMT-0500 (Central Daylight Time),115938.89999985695,A,clock,O,k,66,1,1282.5,114656.39999985695,7194,WL,B,3.0
1,5.314000129699707,learn,54685.99987030029,Tue Aug 12 2025 15:12:08 GMT-0500 (Central Daylight Time),116338.29999995232,A,clockenter,O,enter,359,1,1681.9000000953674,114656.39999985695,7194,WL,B,3.0
1,5.549000024795532,learn,54450.99997520447,Tue Aug 12 2025 15:12:08 GMT-0500 (Central Daylight Time),116572.89999985695,A,s,O,s,211,1,234.29999995231628,116338.59999990463,7194,WL,B,4.0
1,5.7820000648498535,learn,54217.99993515015,Tue Aug 12 2025 15:12:08 GMT-0500 (Central Daylight Time),116805.5,A,st,O,t,205,1,466.90000009536743,116338.59999990463,7194,WL,B,4.0
1,6.249000072479248,learn,53750.99992752075,Tue Aug 12 2025 15:12:08 GMT-0500 (Central Daylight Time),117272.59999990463,A,str,O,r,428,1,934.0,116338.59999990463,7194,WL,B,4.0
1,6.482000112533569,learn,53517.99988746643,Tue Aug 12 2025 15:12:08 GMT-0500 (Central Daylight Time),117506.0,A,stre,O,e,198,1,1167.4000000953674,116338.59999990463,7194,WL,B,4.0
1,6.614000082015991,learn,53385.99991798401,Tue Aug 12 2025 15:12:08 GMT-0500 (Central Daylight Time),117637.79999995232,A,stree,O,e,101,1,1299.2000000476837,116338.59999990463,7194,WL,B,4.0
1,6.8480000495910645,learn,53151.999950408936,Tue Aug 12 2025 15:12:08 GMT-0500 (Central Daylight Time),117872.29999995232,A,street,O,t,223,1,1533.7000000476837,116338.59999990463,7194,WL,B,4.0
1,7.181999921798706,learn,52818.000078201294,Tue Aug 12 2025 15:12:08 GMT-0500 (Central Daylight Time),118205.59999990463,A,streetenter,O,enter,300,1,1867.0,116338.59999990463,7194,WL,B,4.0
1,7.381999969482422,learn,52618.00003051758,Tue Aug 12 2025 15:12:08 GMT-0500 (Central Daylight Time),118405.19999980927,A,g,O,g,191,1,199.29999995231628,118205.89999985695,7194,WL,B,5.0
1,7.598999977111816,learn,52401.00002288818,Tue Aug 12 2025 15:12:08 GMT-0500 (Central Daylight Time),118622.0,A,gr,O,r,181,1,416.10000014305115,118205.89999985695,7194,WL,B,5.0
1,7.765000104904175,learn,52234.999895095825,Tue Aug 12 2025 15:12:08 GMT-0500 (Central Daylight Time),118788.39999985695,A,gra,O,a,135,1,582.5,118205.89999985695,7194,WL,B,5.0
1,8.065000057220459,learn,51934.99994277954,Tue Aug 12 2025 15:12:08 GMT-0500 (Central Daylight Time),119087.89999985695,A,gras,O,s,266,1,882.0,118205.89999985695,7194,WL,B,5.0
1,8.265000104904175,learn,51734.999895095825,Tue Aug 12 2025 15:12:08 GMT-0500 (Central Daylight Time),119288.39999985695,A,grass,O,s,173,1,1082.5,118205.89999985695,7194,WL,B,5.0
1,10.079999923706055,learn,49920.000076293945,Tue Aug 12 2025 15:12:08 GMT-0500 (Central Daylight Time),121103.5,A,grassenter,O,enter,1776,1,2897.600000143051,118205.89999985695,7194,WL,B,5.0
1,24.674999952316284,learn,35325.000047683716,Tue Aug 12 2025 15:12:08 GMT-0500 (Central Daylight Time),135698.69999980927,A,enter,O,enter,14581,1,14594.899999856949,121103.79999995232,7194,WL,B,6.0
1,26.60800004005432,learn,33391.99995994568,Tue Aug 12 2025 15:12:08 GMT-0500 (Central Daylight Time),137631.39999985695,A,enter,O,enter,1921,1,1932.2000000476837,135699.19999980927,7194,WL,B,7.0
1,26.924999952316284,learn,33075.000047683716,Tue Aug 12 2025 15:12:08 GMT-0500 (Central Daylight Time),137947.89999985695,A,enter,O,enter,301,1,316.09999990463257,137631.79999995232,7194,WL,B,8.0
1,27.125,learn,32875.0,Tue Aug 12 2025 15:12:08 GMT-0500 (Central Daylight Time),138147.89999985695,A,enter,O,enter,193,1,199.5,137948.39999985695,7194,WL,B,9.0
1,27.507999897003174,learn,32492.000102996826,Tue Aug 12 2025 15:12:08 GMT-0500 (Central Daylight Time),138531.09999990463,A,enter,O,enter,377,1,382.7999999523163,138148.29999995232,7194,WL,B,10.0
1,27.70799994468689,learn,32292.00005531311,Tue Aug 12 2025 15:12:08 GMT-0500 (Central Daylight Time),138731.09999990463,A,enter,O,enter,185,1,199.59999990463257,138531.5,7194,WL,B,11.0
1,27.891000032424927,learn,32108.999967575073,Tue Aug 12 2025 15:12:08 GMT-0500 (Central Daylight Time),138914.29999995232,A,enter,O,enter,169,1,182.90000009536743,138731.39999985695,7194,WL,B,12.0
1,28.240999937057495,learn,31759.000062942505,Tue Aug 12 2025 15:12:08 GMT-0500 (Central Daylight Time),139264.09999990463,A,enter,O,enter,330,1,349.5,138914.59999990463,7194,WL,B,13.0
1,28.624000072479248,learn,31375.999927520752,Tue Aug 12 2025 15:12:08 GMT-0500 (Central Daylight Time),139647.39999985695,A,enter,O,enter,373,1,382.89999985694885,139264.5,7194,WL,B,14.0
1,28.990999937057495,learn,31009.000062942505,Tue Aug 12 2025 15:12:08 GMT-0500 (Central Daylight Time),140013.89999985695,A,enter,O,enter,350,1,366.09999990463257,139647.79999995232,7194,WL,B,15.0
2,1.5160000324249268,learn,58483.99996757507,Tue Aug 12 2025 15:12:08 GMT-0500 (Central Daylight Time),210042.09999990463,A,p,O,p,1488,1,1515.9000000953674,208526.19999980927,7194,WL,B,1.0
2,1.683000087738037,learn,58316.99991226196,Tue Aug 12 2025 15:12:08 GMT-0500 (Central Daylight Time),210208.5,A,pi,O,i,128,1,1682.3000001907349,208526.19999980927,7194,WL,B,1.0
2,1.7990000247955322,learn,58200.99997520447,Tue Aug 12 2025 15:12:08 GMT-0500 (Central Daylight Time),210324.29999995232,A,pip,O,p,91,1,1798.1000001430511,208526.19999980927,7194,WL,B,1.0
2,2.0989999771118164,learn,57901.00002288818,Tue Aug 12 2025 15:12:08 GMT-0500 (Central Daylight Time),210625.09999990463,A,pipe,O,e,273,1,2098.9000000953674,208526.19999980927,7194,WL,B,1.0
2,2.631999969482422,learn,57368.00003051758,Tue Aug 12 2025 15:12:08 GMT-0500 (Central Daylight Time),211157.39999985695,A,pipeenter,O,enter,498,1,2631.2000000476837,208526.19999980927,7194,WL,B,1.0
2,3.9660000801086426,learn,56033.99991989136,Tue Aug 12 2025 15:12:08 GMT-0500 (Central Daylight Time),212491.29999995232,A,l,O,l,1321,1,1333.6000001430511,211157.69999980927,7194,WL,B,2.0
2,4.115999937057495,learn,55884.000062942505,Tue Aug 12 2025 15:12:08 GMT-0500 (Central Daylight Time),212641.19999980927,A,la,O,a,121,1,1483.5,211157.69999980927,7194,WL,B,2.0
2,4.365999937057495,learn,55634.000062942505,Tue Aug 12 2025 15:12:08 GMT-0500 (Central Daylight Time),212891.19999980927,A,lak,O,k,209,1,1733.5,211157.69999980927,7194,WL,B,2.0
2,4.799000024795532,learn,55200.99997520447,Tue Aug 12 2025 15:12:08 GMT-0500 (Central Daylight Time),213324.29999995232,A,lake,O,e,400,1,2166.600000143051,211157.69999980927,7194,WL,B,2.0
2,5.164000034332275,learn,54835.999965667725,Tue Aug 12 2025 15:12:08 GMT-0500 (Central Daylight Time),213689.79999995232,A,lakeenter,O,enter,335,1,2532.100000143051,211157.69999980927,7194,WL,B,2.0
2,5.565000057220459,learn,54434.99994277954,Tue Aug 12 2025 15:12:08 GMT-0500 (Central Daylight Time),214090.59999990463,A,w,O,w,388,1,400.40000009536743,213690.19999980927,7194,WL,B,3.0
2,5.697999954223633,learn,54302.00004577637,Tue Aug 12 2025 15:12:08 GMT-0500 (Central Daylight Time),214223.79999995232,A,wi,O,i,98,1,533.6000001430511,213690.19999980927,7194,WL,B,3.0
2,5.898000001907349,learn,54101.99999809265,Tue Aug 12 2025 15:12:08 GMT-0500 (Central Daylight Time),214423.89999985695,A,wif,O,f,165,1,733.7000000476837,213690.19999980927,7194,WL,B,3.0
2,6.0980000495910645,learn,53901.999950408936,Tue Aug 12 2025 15:12:08 GMT-0500 (Central Daylight Time),214623.59999990463,A,wife,O,e,172,1,933.4000000953674,213690.19999980927,7194,WL,B,3.0
2,6.2809998989105225,learn,53719.00010108948,Tue Aug 12 2025 15:12:08 GMT-0500 (Central Daylight Time),214806.19999980927,A,wifeenter,O,enter,156,1,1116.0,213690.19999980927,7194,WL,B,3.0
2,6.480999946594238,learn,53519.00005340576,Tue Aug 12 2025 15:12:08 GMT-0500 (Central Daylight Time),215007.0,A,w,O,w,192,1,200.40000009536743,214806.59999990463,7194,WL,B,4.0
2,6.631999969482422,learn,53368.00003051758,Tue Aug 12 2025 15:12:08 GMT-0500 (Central Daylight Time),215157.39999985695,A,wi,O,i,124,1,350.7999999523163,214806.59999990463,7194,WL,B,4.0
2,6.7820000648498535,learn,53217.99993515015,Tue Aug 12 2025 15:12:08 GMT-0500 (Central Daylight Time),215307.29999995232,A,win,O,n,110,1,500.7000000476837,214806.59999990463,7194,WL,B,4.0
2,6.914999961853027,learn,53085.00003814697,Tue Aug 12 2025 15:12:08 GMT-0500 (Central Daylight Time),215440.29999995232,A,wind,O,d,97,1,633.7000000476837,214806.59999990463,7194,WL,B,4.0
2,7.29800009727478,learn,52701.99990272522,Tue Aug 12 2025 15:12:08 GMT-0500 (Central Daylight Time),215823.5,A,windo,O,o,347,1,1016.9000000953674,214806.59999990463,7194,WL,B,4.0
2,7.581000089645386,learn,52418.999910354614,Tue Aug 12 2025 15:12:08 GMT-0500 (Central Daylight Time),216107.0,A,window,O,w,243,1,1300.4000000953674,214806.59999990463,7194,WL,B,4.0
2,7.832000017166138,learn,52167.99998283386,Tue Aug 12 2025 15:12:08 GMT-0500 (Central Daylight Time),216357.29999995232,A,windown,O,n,227,1,1550.7000000476837,214806.59999990463,7194,WL,B,4.0
2,8.831000089645386,learn,51168.999910354614,Tue Aug 12 2025 15:12:08 GMT-0500 (Central Daylight Time),217356.19999980927,A,window,O,backspace,961,1,2549.5999999046326,214806.59999990463,7194,WL,B,4.0
2,9.828999996185303,learn,50171.0000038147,Tue Aug 12 2025 15:12:08 GMT-0500 (Central Daylight Time),218355.0,A,windowenter,O,enter,966,1,3548.4000000953674,214806.59999990463,7194,WL,B,4.0
2,10.746999979019165,learn,49253.000020980835,Tue Aug 12 2025 15:12:08 GMT-0500 (Central Daylight Time),219272.39999985695,A,g,O,g,908,1,917.0999999046326,218355.29999995232,7194,WL,B,5.0
2,10.980000019073486,learn,49019.999980926514,Tue Aug 12 2025 15:12:08 GMT-0500 (Central Daylight Time),219505.39999985695,A,gr,O,r,202,1,1150.0999999046326,218355.29999995232,7194,WL,B,5.0
2,11.163000106811523,learn,48836.99989318848,Tue Aug 12 2025 15:12:08 GMT-0500 (Central Daylight Time),219688.79999995232,A,gra,O,a,154,1,1333.5,218355.29999995232,7194,WL,B,5.0
2,11.562999963760376,learn,48437.000036239624,Tue Aug 12 2025 15:12:08 GMT-0500 (Central Daylight Time),220088.89999985695,A,gras,O,s,364,1,1733.5999999046326,218355.29999995232,7194,WL,B,5.0
2,11.730000019073486,learn,48269.999980926514,Tue Aug 12 2025 15:12:08 GMT-0500 (Central Daylight Time),220255.39999985695,A,grass,O,s,130,1,1900.0999999046326,218355.29999995232,7194,WL,B,5.0
2,13.461999893188477,learn,46538.00010681152,Tue Aug 12 2025 15:12:08 GMT-0500 (Central Daylight Time),221987.19999980927,A,grassenter,O,enter,1706,1,3631.899999856949,218355.29999995232,7194,WL,B,5.0
2,14.279000043869019,learn,45720.99995613098,Tue Aug 12 2025 15:12:08 GMT-0500 (Central Daylight Time),222804.5,A,s,O,s,803,1,817.0,221987.5,7194,WL,B,6.0
2,14.479000091552734,learn,45520.999908447266,Tue Aug 12 2025 15:12:08 GMT-0500 (Central Daylight Time),223004.5,A,sk,O,k,160,1,1017.0,221987.5,7194,WL,B,6.0
2,14.694999933242798,learn,45305.0000667572,Tue Aug 12 2025 15:12:08 GMT-0500 (Central Daylight Time),223221.0,A,ski,O,i,184,1,1233.5,221987.5,7194,WL,B,6.0
2,14.84500002861023,learn,45154.99997138977,Tue Aug 12 2025 15:12:08 GMT-0500 (Central Daylight Time),223371.0,A,skin,O,n,116,1,1383.5,221987.5,7194,WL,B,6.0
2,15.17799997329712,learn,44822.00002670288,Tue Aug 12 2025 15:12:08 GMT-0500 (Central Daylight Time),223703.19999980927,A,skinenter,O,enter,304,1,1715.6999998092651,221987.5,7194,WL,B,6.0
2,20.776999950408936,learn,39223.000049591064,Tue Aug 12 2025 15:12:08 GMT-0500 (Central Daylight Time),229302.39999985695,A,s,O,s,5584,1,5598.899999856949,223703.5,7194,WL,B,7.0
2,21.009999990463257,learn,38990.00000953674,Tue Aug 12 2025 15:12:08 GMT-0500 (Central Daylight Time),229535.69999980927,A,st,O,t,197,1,5832.199999809265,223703.5,7194,WL,B,7.0
2,21.243000030517578,learn,38756.99996948242,Tue Aug 12 2025 15:12:08 GMT-0500 (Central Daylight Time),229768.89999985695,A,sta,O,a,197,1,6065.399999856949,223703.5,7194,WL,B,7.0
2,21.509999990463257,learn,38490.00000953674,Tue Aug 12 2025 15:12:08 GMT-0500 (Central Daylight Time),230035.5,A,star,O,r,236,1,6332.0,223703.5,7194,WL,B,7.0
2,21.80900001525879,learn,38190.99998474121,Tue Aug 12 2025 15:12:08 GMT-0500 (Central Daylight Time),230334.39999985695,A,starenter,O,enter,263,1,6630.899999856949,223703.5,7194,WL,B,7.0
2,26.674999952316284,learn,33325.000047683716,Tue Aug 12 2025 15:12:08 GMT-0500 (Central Daylight Time),235200.39999985695,A,s,O,s,4848,1,4865.799999952316,230334.59999990463,7194,WL,B,8.0
2,26.891000032424927,learn,33108.99996757507,Tue Aug 12 2025 15:12:08 GMT-0500 (Central Daylight Time),235417.09999990463,A,st,O,t,179,1,5082.5,230334.59999990463,7194,WL,B,8.0
2,27.10800004005432,learn,32891.99995994568,Tue Aug 12 2025 15:12:08 GMT-0500 (Central Daylight Time),235633.69999980927,A,str,O,r,185,1,5299.099999904633,230334.59999990463,7194,WL,B,8.0
2,27.391000032424927,learn,32608.999967575073,Tue Aug 12 2025 15:12:08 GMT-0500 (Central Daylight Time),235916.69999980927,A,stre,O,e,242,1,5582.099999904633,230334.59999990463,7194,WL,B,8.0
2,27.5239999294281,learn,32476.0000705719,Tue Aug 12 2025 15:12:08 GMT-0500 (Central Daylight Time),236049.89999985695,A,stree,O,e,103,1,5715.299999952316,230334.59999990463,7194,WL,B,8.0
2,27.70799994468689,learn,32292.00005531311,Tue Aug 12 2025 15:12:08 GMT-0500 (Central Daylight Time),236233.39999985695,A,street,O,t,154,1,5898.799999952316,230334.59999990463,7194,WL,B,8.0
2,27.822999954223633,learn,32177.000045776367,Tue Aug 12 2025 15:12:08 GMT-0500 (Central Daylight Time),236349.09999990463,A,streetenter,O,enter,90,1,6014.5,230334.59999990463,7194,WL,B,8.0
2,34.687999963760376,learn,25312.000036239624,Tue Aug 12 2025 15:12:08 GMT-0500 (Central Daylight Time),243213.5,A,enter,O,enter,6848,1,6864.100000143051,236349.39999985695,7194,WL,B,9.0
2,34.98799991607666,learn,25012.00008392334,Tue Aug 12 2025 15:12:08 GMT-0500 (Central Daylight Time),243513.39999985695,A,enter,O,enter,280,1,299.59999990463257,243213.79999995232,7194,WL,B,10.0
2,35.187999963760376,learn,24812.000036239624,Tue Aug 12 2025 15:12:08 GMT-0500 (Central Daylight Time),243713.39999985695,A,enter,O,enter,188,1,199.70000004768372,243513.69999980927,7194,WL,B,11.0
2,35.40499997138977,learn,24595.00002861023,Tue Aug 12 2025 15:12:08 GMT-0500 (Central Daylight Time),243929.89999985695,A,enter,O,enter,204,1,216.29999995231628,243713.59999990463,7194,WL,B,12.0
2,35.82100009918213,learn,24178.99990081787,Tue Aug 12 2025 15:12:08 GMT-0500 (Central Daylight Time),244346.5,A,enter,O,enter,403,1,416.2000000476837,243930.29999995232,7194,WL,B,13.0
2,36.105000019073486,learn,23894.999980926514,Tue Aug 12 2025 15:12:08 GMT-0500 (Central Daylight Time),244629.69999980927,A,enter,O,enter,275,1,282.89999985694885,244346.79999995232,7194,WL,B,14.0
2,36.65499997138977,learn,23345.00002861023,Tue Aug 12 2025 15:12:08 GMT-0500 (Central Daylight Time),245179.5,A,enter,O,enter,536,1,549.5,244630.0,7194,WL,B,15.0
3,0.5829999446868896,learn,59417.00005531311,Tue Aug 12 2025 15:12:08 GMT-0500 (Central Daylight Time),313407.0,A,c,O,c,556,1,581.9000000953674,312825.09999990463,7194,WL,B,1.0
3,0.7330000400543213,learn,59266.99995994568,Tue Aug 12 2025 15:12:08 GMT-0500 (Central Daylight Time),313556.89999985695,A,cl,O,l,140,1,731.7999999523163,312825.09999990463,7194,WL,B,1.0
3,1.1489999294281006,learn,58851.0000705719,Tue Aug 12 2025 15:12:08 GMT-0500 (Central Daylight Time),313973.5,A,clo,O,o,399,1,1148.4000000953674,312825.09999990463,7194,WL,B,1.0
3,1.4660000801086426,learn,58533.99991989136,Tue Aug 12 2025 15:12:08 GMT-0500 (Central Daylight Time),314290.0,A,cloc,O,c,294,1,1464.9000000953674,312825.09999990463,7194,WL,B,1.0
3,1.6660001277923584,learn,58333.99987220764,Tue Aug 12 2025 15:12:08 GMT-0500 (Central Daylight Time),314490.19999980927,A,clock,O,k,178,1,1665.0999999046326,312825.09999990463,7194,WL,B,1.0
3,2.881999969482422,learn,57118.00003051758,Tue Aug 12 2025 15:12:08 GMT-0500 (Central Daylight Time),315706.2999999523,A,clockenter,O,enter,1202,1,2881.2000000476837,312825.09999990463,7194,WL,B,1.0
3,3.3320000171661377,learn,56667.99998283386,Tue Aug 12 2025 15:12:08 GMT-0500 (Central Daylight Time),316156.09999990463,A,c,O,c,443,1,449.5,315706.59999990463,7194,WL,B,2.0
3,3.499000072479248,learn,56500.99992752075,Tue Aug 12 2025 15:12:08 GMT-0500 (Central Daylight Time),316323.59999990463,A,ca,O,a,151,1,617.0,315706.59999990463,7194,WL,B,2.0
3,4.098999977111816,learn,55901.00002288818,Tue Aug 12 2025 15:12:08 GMT-0500 (Central Daylight Time),316923.69999980927,A,cab,O,b,560,1,1217.0999999046326,315706.59999990463,7194,WL,B,2.0
3,4.299000024795532,learn,55700.99997520447,Tue Aug 12 2025 15:12:08 GMT-0500 (Central Daylight Time),317123.7999999523,A,cabi,O,i,169,1,1417.2000000476837,315706.59999990463,7194,WL,B,2.0
3,4.3480000495910645,learn,55651.999950408936,Tue Aug 12 2025 15:12:08 GMT-0500 (Central Daylight Time),317172.89999985695,A,cabin,O,n,19,1,1466.2999999523163,315706.59999990463,7194,WL,B,2.0
3,4.7820000648498535,learn,55217.99993515015,Tue Aug 12 2025 15:12:08 GMT-0500 (Central Daylight Time),317606.69999980927,A,cabinenter,O,enter,417,1,1900.0999999046326,315706.59999990463,7194,WL,B,2.0
3,5.081000089645386,learn,54918.999910354614,Tue Aug 12 2025 15:12:08 GMT-0500 (Central Daylight Time),317905.69999980927,A,f,O,f,286,1,298.59999990463257,317607.09999990463,7194,WL,B,3.0
3,5.232000112533569,learn,54767.99988746643,Tue Aug 12 2025 15:12:08 GMT-0500 (Central Daylight Time),318056.59999990463,A,fi,O,i,129,1,449.5,317607.09999990463,7194,WL,B,3.0
3,5.315000057220459,learn,54684.99994277954,Tue Aug 12 2025 15:12:08 GMT-0500 (Central Daylight Time),318139.5,A,fin,O,n,52,1,532.4000000953674,317607.09999990463,7194,WL,B,3.0
3,6.781000137329102,learn,53218.9998626709,Tue Aug 12 2025 15:12:08 GMT-0500 (Central Daylight Time),319605.7999999523,A,fi,O,backspace,1449,1,1998.7000000476837,317607.09999990463,7194,WL,B,3.0
3,6.897000074386597,learn,53102.9999256134,Tue Aug 12 2025 15:12:08 GMT-0500 (Central Daylight Time),319721.69999980927,A,fir,O,r,78,1,2114.5999999046326,317607.09999990463,7194,WL,B,3.0
3,6.998000144958496,learn,53001.999855041504,Tue Aug 12 2025 15:12:08 GMT-0500 (Central Daylight Time),319822.5,A,fire,O,e,84,1,2215.4000000953674,317607.09999990463,7194,WL,B,3.0
3,7.897000074386597,learn,52102.9999256134,Tue Aug 12 2025 15:12:08 GMT-0500 (Central Daylight Time),320721.39999985695,A,fireenter,O,enter,865,1,3114.2999999523163,317607.09999990463,7194,WL,B,3.0
3,8.21399998664856,learn,51786.00001335144,Tue Aug 12 2025 15:12:08 GMT-0500 (Central Daylight Time),321038.0,A,w,O,w,300,1,316.40000009536743,320721.59999990463,7194,WL,B,4.0
3,8.365000009536743,learn,51634.99999046326,Tue Aug 12 2025 15:12:08 GMT-0500 (Central Daylight Time),321189.0,A,wi,O,i,129,1,467.40000009536743,320721.59999990463,7194,WL,B,4.0
3,8.44700002670288,learn,51552.99997329712,Tue Aug 12 2025 15:12:08 GMT-0500 (Central Daylight Time),321271.0,A,win,O,n,54,1,549.4000000953674,320721.59999990463,7194,WL,B,4.0
3,8.930999994277954,learn,51069.000005722046,Tue Aug 12 2025 15:12:08 GMT-0500 (Central Daylight Time),321755.5,A,wind,O,d,461,1,1033.9000000953674,320721.59999990463,7194,WL,B,4.0
3,9.130000114440918,learn,50869.99988555908,Tue Aug 12 2025 15:12:08 GMT-0500 (Central Daylight Time),321954.2999999523,A,windenter,O,enter,166,1,1232.7000000476837,320721.59999990463,7194,WL,B,4.0
3,10.29699993133545,learn,49703.00006866455,Tue Aug 12 2025 15:12:08 GMT-0500 (Central Daylight Time),323121.39999985695,A,s,O,s,1157,1,1166.7999999523163,321954.59999990463,7194,WL,B,5.0
3,10.579999923706055,learn,49420.000076293945,Tue Aug 12 2025 15:12:08 GMT-0500 (Central Daylight Time),323404.89999985695,A,st,O,t,245,1,1450.2999999523163,321954.59999990463,7194,WL,B,5.0
3,10.746999979019165,learn,49253.000020980835,Tue Aug 12 2025 15:12:08 GMT-0500 (Central Daylight Time),323571.5,A,str,O,r,135,1,1616.9000000953674,321954.59999990463,7194,WL,B,5.0
3,10.94700002670288,learn,49052.99997329712,Tue Aug 12 2025 15:12:08 GMT-0500 (Central Daylight Time),323771.59999990463,A,stre,O,e,172,1,1817.0,321954.59999990463,7194,WL,B,5.0
3,11.095999956130981,learn,48904.00004386902,Tue Aug 12 2025 15:12:08 GMT-0500 (Central Daylight Time),323920.19999980927,A,stree,O,e,113,1,1965.5999999046326,321954.59999990463,7194,WL,B,5.0
3,11.312999963760376,learn,48687.000036239624,Tue Aug 12 2025 15:12:08 GMT-0500 (Central Daylight Time),324137.89999985695,A,street,O,t,197,1,2183.2999999523163,321954.59999990463,7194,WL,B,5.0
3,11.712000131607056,learn,48287.999868392944,Tue Aug 12 2025 15:12:08 GMT-0500 (Central Daylight Time),324536.69999980927,A,streetenter,O,enter,361,1,2582.0999999046326,321954.59999990463,7194,WL,B,5.0
3,12.328999996185303,learn,47671.0000038147,Tue Aug 12 2025 15:12:08 GMT-0500 (Central Daylight Time),325153.2999999523,A,g,O,g,596,1,616.2000000476837,324537.09999990463,7194,WL,B,6.0
3,12.513000011444092,learn,47486.99998855591,Tue Aug 12 2025 15:12:08 GMT-0500 (Central Daylight Time),325337.39999985695,A,gr,O,r,171,1,800.2999999523163,324537.09999990463,7194,WL,B,6.0
3,12.663000106811523,learn,47336.99989318848,Tue Aug 12 2025 15:12:08 GMT-0500 (Central Daylight Time),325487.5,A,gra,O,a,128,1,950.4000000953674,324537.09999990463,7194,WL,B,6.0
3,13.045000076293945,learn,46954.999923706055,Tue Aug 12 2025 15:12:08 GMT-0500 (Central Daylight Time),325869.5,A,gras,O,s,358,1,1332.4000000953674,324537.09999990463,7194,WL,B,6.0
3,13.329999923706055,learn,46670.000076293945,Tue Aug 12 2025 15:12:08 GMT-0500 (Central Daylight Time),326154.0,A,grass,O,s,264,1,1616.9000000953674,324537.09999990463,7194,WL,B,6.0
3,13.562000036239624,learn,46437.999963760376,Tue Aug 12 2025 15:12:08 GMT-0500 (Central Daylight Time),326386.2999999523,A,grassenter,O,enter,198,1,1849.2000000476837,324537.09999990463,7194,WL,B,6.0
3,13.779000043869019,learn,46220.99995613098,Tue Aug 12 2025 15:12:08 GMT-0500 (Central Daylight Time),326603.69999980927,A,a,O,a,204,1,217.09999990463257,326386.59999990463,7194,WL,B,7.0
3,13.878000020980835,learn,46121.999979019165,Tue Aug 12 2025 15:12:08 GMT-0500 (Central Daylight Time),326702.89999985695,A,ar,O,r,71,1,316.2999999523163,326386.59999990463,7194,WL,B,7.0
3,15.545000076293945,learn,44454.999923706055,Tue Aug 12 2025 15:12:08 GMT-0500 (Central Daylight Time),328369.19999980927,A,arm,O,m,1641,1,1982.5999999046326,326386.59999990463,7194,WL,B,7.0
3,16.74500012397766,learn,43254.99987602234,Tue Aug 12 2025 15:12:08 GMT-0500 (Central Daylight Time),329569.39999985695,A,armw,O,w,1176,1,3182.7999999523163,326386.59999990463,7194,WL,B,7.0
3,16.811000108718872,learn,43188.99989128113,Tue Aug 12 2025 15:12:08 GMT-0500 (Central Daylight Time),329635.5,A,armwi,O,i,45,1,3248.9000000953674,326386.59999990463,7194,WL,B,7.0
3,17.477999925613403,learn,42522.0000743866,Tue Aug 12 2025 15:12:08 GMT-0500 (Central Daylight Time),330302.69999980927,A,armw,O,backspace,646,1,3916.0999999046326,326386.59999990463,7194,WL,B,7.0
3,17.66000008583069,learn,42339.99991416931,Tue Aug 12 2025 15:12:08 GMT-0500 (Central Daylight Time),330484.7999999523,A,arm,O,backspace,149,1,4098.200000047684,326386.59999990463,7194,WL,B,7.0
3,18.55999994277954,learn,41440.00005722046,Tue Aug 12 2025 15:12:08 GMT-0500 (Central Daylight Time),331384.59999990463,A,armenter,O,enter,886,1,4998.0,326386.59999990463,7194,WL,B,7.0
3,23.424999952316284,learn,36575.000047683716,Tue Aug 12 2025 15:12:08 GMT-0500 (Central Daylight Time),336249.5,A,p,O,p,4844,1,4864.5,331385.0,7194,WL,B,8.0
3,23.55900001525879,learn,36440.99998474121,Tue Aug 12 2025 15:12:08 GMT-0500 (Central Daylight Time),336383.0,A,pi,O,i,114,1,4998.0,331385.0,7194,WL,B,8.0
3,23.692000150680542,learn,36307.99984931946,Tue Aug 12 2025 15:12:08 GMT-0500 (Central Daylight Time),336515.89999985695,A,pip,O,p,125,1,5130.899999856949,331385.0,7194,WL,B,8.0
3,24.192000150680542,learn,35807.99984931946,Tue Aug 12 2025 15:12:08 GMT-0500 (Central Daylight Time),337016.0,A,pipe,O,e,481,1,5631.0,331385.0,7194,WL,B,8.0
3,24.35800004005432,learn,35641.99995994568,Tue Aug 12 2025 15:12:08 GMT-0500 (Central Daylight Time),337182.69999980927,A,pipeenter,O,enter,156,1,5797.699999809265,331385.0,7194,WL,B,8.0
3,27.29100012779236,learn,32708.99987220764,Tue Aug 12 2025 15:12:08 GMT-0500 (Central Daylight Time),340115.69999980927,A,c,O,c,2919,1,2932.699999809265,337183.0,7194,WL,B,9.0
3,27.407000064849854,learn,32592.999935150146,Tue Aug 12 2025 15:12:08 GMT-0500 (Central Daylight Time),340231.59999990463,A,ci,O,i,100,1,3048.5999999046326,337183.0,7194,WL,B,9.0
3,27.591000080108643,learn,32408.999919891357,Tue Aug 12 2025 15:12:08 GMT-0500 (Central Daylight Time),340415.0,A,cit,O,t,173,1,3232.0,337183.0,7194,WL,B,9.0
3,27.69000005722046,learn,32309.99994277954,Tue Aug 12 2025 15:12:08 GMT-0500 (Central Daylight Time),340514.69999980927,A,city,O,y,78,1,3331.699999809265,337183.0,7194,WL,B,9.0
3,28.0239999294281,learn,31976.0000705719,Tue Aug 12 2025 15:12:08 GMT-0500 (Central Daylight Time),340848.0,A,cityenter,O,enter,313,1,3665.0,337183.0,7194,WL,B,9.0
3,37.854000091552734,learn,22145.999908447266,Tue Aug 12 2025 15:12:08 GMT-0500 (Central Daylight Time),350678.19999980927,A,enter,O,enter,9821,1,9829.899999856949,340848.2999999523,7194,WL,B,10.0
3,38.0699999332428,learn,21930.000066757202,Tue Aug 12 2025 15:12:08 GMT-0500 (Central Daylight Time),350894.69999980927,A,enter,O,enter,199,1,216.09999990463257,350678.59999990463,7194,WL,B,11.0
3,38.30400013923645,learn,21695.99986076355,Tue Aug 12 2025 15:12:08 GMT-0500 (Central Daylight Time),351127.89999985695,A,enter,O,enter,214,1,232.89999985694885,350895.0,7194,WL,B,12.0
3,38.519999980926514,learn,21480.000019073486,Tue Aug 12 2025 15:12:08 GMT-0500 (Central Daylight Time),351344.7999999523,A,enter,O,enter,196,1,216.5,351128.2999999523,7194,WL,B,13.0
3,38.88800001144409,learn,21111.99998855591,Tue Aug 12 2025 15:12:08 GMT-0500 (Central Daylight Time),351712.19999980927,A,enter,O,enter,356,1,367.09999990463257,351345.09999990463,7194,WL,B,14.0
3,39.437000036239624,learn,20562.999963760376,Tue Aug 12 2025 15:12:08 GMT-0500 (Central Daylight Time),352260.89999985695,A,enter,O,enter,532,1,548.3999998569489,351712.5,7194,WL,B,15.0
4,0.5329999923706055,learn,59467.000007629395,Tue Aug 12 2025 15:12:08 GMT-0500 (Central Daylight Time),419806.69999980927,A,s,O,s,512,1,532.8999998569489,419273.7999999523,7194,WL,B,1.0
4,0.8169999122619629,learn,59183.00008773804,Tue Aug 12 2025 15:12:08 GMT-0500 (Central Daylight Time),420089.7999999523,A,st,O,t,245,1,816.0,419273.7999999523,7194,WL,B,1.0
4,1.0829999446868896,learn,58917.00005531311,Tue Aug 12 2025 15:12:08 GMT-0500 (Central Daylight Time),420356.5,A,str,O,r,227,1,1082.7000000476837,419273.7999999523,7194,WL,B,1.0
4,1.315999984741211,learn,58684.00001525879,Tue Aug 12 2025 15:12:08 GMT-0500 (Central Daylight Time),420589.69999980927,A,stre,O,e,209,1,1315.8999998569489,419273.7999999523,7194,WL,B,1.0
4,1.4660000801086426,learn,58533.99991989136,Tue Aug 12 2025 15:12:08 GMT-0500 (Central Daylight Time),420739.69999980927,A,stree,O,e,123,1,1465.8999998569489,419273.7999999523,7194,WL,B,1.0
4,1.75,learn,58250.0,Tue Aug 12 2025 15:12:08 GMT-0500 (Central Daylight Time),421022.7999999523,A,street,O,t,250,1,1749.0,419273.7999999523,7194,WL,B,1.0
4,2.115000009536743,learn,57884.99999046326,Tue Aug 12 2025 15:12:08 GMT-0500 (Central Daylight Time),421388.39999985695,A,streetenter,O,enter,342,1,2114.5999999046326,419273.7999999523,7194,WL,B,1.0
4,2.382999897003174,learn,57617.000102996826,Tue Aug 12 2025 15:12:08 GMT-0500 (Central Daylight Time),421656.0,A,g,O,g,250,1,267.40000009536743,421388.59999990463,7194,WL,B,2.0
4,2.632999897003174,learn,57367.000102996826,Tue Aug 12 2025 15:12:08 GMT-0500 (Central Daylight Time),421905.89999985695,A,gr,O,r,223,1,517.2999999523163,421388.59999990463,7194,WL,B,2.0
4,2.8489999771118164,learn,57151.00002288818,Tue Aug 12 2025 15:12:08 GMT-0500 (Central Daylight Time),422122.39999985695,A,gra,O,a,179,1,733.7999999523163,421388.59999990463,7194,WL,B,2.0
4,3.2319998741149902,learn,56768.00012588501,Tue Aug 12 2025 15:12:08 GMT-0500 (Central Daylight Time),422505.69999980927,A,gras,O,s,346,1,1117.0999999046326,421388.59999990463,7194,WL,B,2.0
4,3.6989998817443848,learn,56301.000118255615,Tue Aug 12 2025 15:12:08 GMT-0500 (Central Daylight Time),422972.19999980927,A,grass,O,s,434,1,1583.5999999046326,421388.59999990463,7194,WL,B,2.0
4,4.563999891281128,learn,55436.00010871887,Tue Aug 12 2025 15:12:08 GMT-0500 (Central Daylight Time),423837.69999980927,A,grassenter,O,enter,831,1,2449.0999999046326,421388.59999990463,7194,WL,B,2.0
4,5.265000104904175,learn,54734.999895095825,Tue Aug 12 2025 15:12:08 GMT-0500 (Central Daylight Time),424538.2999999523,A,f,O,f,681,1,700.4000000953674,423837.89999985695,7194,WL,B,3.0
4,5.431999921798706,learn,54568.000078201294,Tue Aug 12 2025 15:12:08 GMT-0500 (Central Daylight Time),424705.0,A,fi,O,i,138,1,867.1000001430511,423837.89999985695,7194,WL,B,3.0
4,5.681999921798706,learn,54318.000078201294,Tue Aug 12 2025 15:12:08 GMT-0500 (Central Daylight Time),424955.09999990463,A,fir,O,r,219,1,1117.2000000476837,423837.89999985695,7194,WL,B,3.0
4,5.815000057220459,learn,54184.99994277954,Tue Aug 12 2025 15:12:08 GMT-0500 (Central Daylight Time),425088.09999990463,A,fire,O,e,100,1,1250.2000000476837,423837.89999985695,7194,WL,B,3.0
4,6.13100004196167,learn,53868.99995803833,Tue Aug 12 2025 15:12:08 GMT-0500 (Central Daylight Time),425403.7999999523,A,fireenter,O,enter,275,1,1565.9000000953674,423837.89999985695,7194,WL,B,3.0
4,6.765000104904175,learn,53234.999895095825,Tue Aug 12 2025 15:12:08 GMT-0500 (Central Daylight Time),426038.0,A,a,O,a,627,1,633.9000000953674,425404.09999990463,7194,WL,B,4.0
4,7.180999994277954,learn,52819.000005722046,Tue Aug 12 2025 15:12:08 GMT-0500 (Central Daylight Time),426454.5,A,,O,backspace,387,1,1050.4000000953674,425404.09999990463,7194,WL,B,4.0
4,7.88100004196167,learn,52118.99995803833,Tue Aug 12 2025 15:12:08 GMT-0500 (Central Daylight Time),427154.0,A,l,O,l,673,1,1749.9000000953674,425404.09999990463,7194,WL,B,4.0
4,8.030999898910522,learn,51969.00010108948,Tue Aug 12 2025 15:12:08 GMT-0500 (Central Daylight Time),427304.19999980927,A,la,O,a,122,1,1900.0999999046326,425404.09999990463,7194,WL,B,4.0
4,8.21399998664856,learn,51786.00001335144,Tue Aug 12 2025 15:12:08 GMT-0500 (Central Daylight Time),427487.39999985695,A,lak,O,k,156,1,2083.2999999523163,425404.09999990463,7194,WL,B,4.0
4,8.86299991607666,learn,51137.00008392334,Tue Aug 12 2025 15:12:08 GMT-0500 (Central Daylight Time),428136.39999985695,A,lake,O,e,612,1,2732.2999999523163,425404.09999990463,7194,WL,B,4.0
4,9.529000043869019,learn,50470.99995613098,Tue Aug 12 2025 15:12:08 GMT-0500 (Central Daylight Time),428802.59999990463,A,lakeenter,O,enter,648,1,3398.5,425404.09999990463,7194,WL,B,4.0
4,10.079999923706055,learn,49920.000076293945,Tue Aug 12 2025 15:12:08 GMT-0500 (Central Daylight Time),429353.7999999523,A,c,O,c,532,1,550.9000000953674,428802.89999985695,7194,WL,B,5.0
4,10.246999979019165,learn,49753.000020980835,Tue Aug 12 2025 15:12:08 GMT-0500 (Central Daylight Time),429520.39999985695,A,ca,O,a,131,1,717.5,428802.89999985695,7194,WL,B,5.0
4,10.496999979019165,learn,49503.000020980835,Tue Aug 12 2025 15:12:08 GMT-0500 (Central Daylight Time),429770.09999990463,A,cab,O,b,220,1,967.2000000476837,428802.89999985695,7194,WL,B,5.0
4,10.730000019073486,learn,49269.999980926514,Tue Aug 12 2025 15:12:08 GMT-0500 (Central Daylight Time),430003.5,A,cabi,O,i,194,1,1200.6000001430511,428802.89999985695,7194,WL,B,5.0
4,10.897000074386597,learn,49102.9999256134,Tue Aug 12 2025 15:12:08 GMT-0500 (Central Daylight Time),430170.09999990463,A,cabin,O,n,129,1,1367.2000000476837,428802.89999985695,7194,WL,B,5.0
4,11.578999996185303,learn,48421.0000038147,Tue Aug 12 2025 15:12:08 GMT-0500 (Central Daylight Time),430851.89999985695,A,cabinenter,O,enter,658,1,2049.0,428802.89999985695,7194,WL,B,5.0
4,12.02999997138977,learn,47970.00002861023,Tue Aug 12 2025 15:12:08 GMT-0500 (Central Daylight Time),431302.7999999523,A,w,O,w,434,1,450.60000014305115,430852.19999980927,7194,WL,B,6.0
4,12.180000066757202,learn,47819.9999332428,Tue Aug 12 2025 15:12:08 GMT-0500 (Central Daylight Time),431452.89999985695,A,wi,O,i,117,1,600.7000000476837,430852.19999980927,7194,WL,B,6.0
4,12.345999956130981,learn,47654.00004386902,Tue Aug 12 2025 15:12:08 GMT-0500 (Central Daylight Time),431619.5,A,wif,O,f,128,1,767.3000001907349,430852.19999980927,7194,WL,B,6.0
4,12.480000019073486,learn,47519.999980926514,Tue Aug 12 2025 15:12:08 GMT-0500 (Central Daylight Time),431752.7999999523,A,wife,O,e,105,1,900.6000001430511,430852.19999980927,7194,WL,B,6.0
4,12.628000020980835,learn,47371.999979019165,Tue Aug 12 2025 15:12:08 GMT-0500 (Central Daylight Time),431901.59999990463,A,wifeenter,O,enter,114,1,1049.4000000953674,430852.19999980927,7194,WL,B,6.0
4,12.796000003814697,learn,47203.9999961853,Tue Aug 12 2025 15:12:08 GMT-0500 (Central Daylight Time),432069.39999985695,A,w,O,w,161,1,167.5,431901.89999985695,7194,WL,B,7.0
4,12.961999893188477,learn,47038.00010681152,Tue Aug 12 2025 15:12:08 GMT-0500 (Central Daylight Time),432235.69999980927,A,wi,O,i,127,1,333.7999999523163,431901.89999985695,7194,WL,B,7.0
4,13.095999956130981,learn,46904.00004386902,Tue Aug 12 2025 15:12:08 GMT-0500 (Central Daylight Time),432369.09999990463,A,win,O,n,106,1,467.2000000476837,431901.89999985695,7194,WL,B,7.0
4,13.122999906539917,learn,46877.00009346008,Tue Aug 12 2025 15:12:08 GMT-0500 (Central Daylight Time),432395.89999985695,A,wind,O,d,2,1,494.0,431901.89999985695,7194,WL,B,7.0
4,13.463000059127808,learn,46536.99994087219,Tue Aug 12 2025 15:12:08 GMT-0500 (Central Daylight Time),432735.69999980927,A,windo,O,o,307,1,833.7999999523163,431901.89999985695,7194,WL,B,7.0
4,13.578999996185303,learn,46421.0000038147,Tue Aug 12 2025 15:12:08 GMT-0500 (Central Daylight Time),432852.39999985695,A,window,O,w,86,1,950.5,431901.89999985695,7194,WL,B,7.0
4,13.895999908447266,learn,46104.000091552734,Tue Aug 12 2025 15:12:08 GMT-0500 (Central Daylight Time),433168.69999980927,A,windown,O,n,281,1,1266.7999999523163,431901.89999985695,7194,WL,B,7.0
4,14.34500002861023,learn,45654.99997138977,Tue Aug 12 2025 15:12:08 GMT-0500 (Central Daylight Time),433618.5,A,window,O,backspace,412,1,1716.6000001430511,431901.89999985695,7194,WL,B,7.0
4,14.67799997329712,learn,45322.00002670288,Tue Aug 12 2025 15:12:08 GMT-0500 (Central Daylight Time),433950.89999985695,A,windowenter,O,enter,304,1,2049.0,431901.89999985695,7194,WL,B,7.0
4,16.26200008392334,learn,43737.99991607666,Tue Aug 12 2025 15:12:08 GMT-0500 (Central Daylight Time),435535.19999980927,A,c,O,c,1569,1,1584.0,433951.19999980927,7194,WL,B,8.0
4,16.293999910354614,learn,43706.000089645386,Tue Aug 12 2025 15:12:08 GMT-0500 (Central Daylight Time),435567.69999980927,A,cl,O,l,4,1,1616.5,433951.19999980927,7194,WL,B,8.0
4,16.994999885559082,learn,43005.00011444092,Tue Aug 12 2025 15:12:08 GMT-0500 (Central Daylight Time),436267.7999999523,A,clo,O,o,671,1,2316.600000143051,433951.19999980927,7194,WL,B,8.0
4,17.061000108718872,learn,42938.99989128113,Tue Aug 12 2025 15:12:08 GMT-0500 (Central Daylight Time),436333.69999980927,A,cloc,O,c,40,1,2382.5,433951.19999980927,7194,WL,B,8.0
4,17.210999965667725,learn,42789.000034332275,Tue Aug 12 2025 15:12:08 GMT-0500 (Central Daylight Time),436484.59999990463,A,clock,O,k,122,1,2533.4000000953674,433951.19999980927,7194,WL,B,8.0
4,18.32699990272522,learn,41673.00009727478,Tue Aug 12 2025 15:12:08 GMT-0500 (Central Daylight Time),437599.89999985695,A,clockenter,O,enter,1080,1,3648.7000000476837,433951.19999980927,7194,WL,B,8.0
4,19.844000101089478,learn,40155.99989891052,Tue Aug 12 2025 15:12:08 GMT-0500 (Central Daylight Time),439116.89999985695,A,p,O,p,1504,1,1516.8999998569489,437600.0,7194,WL,B,9.0
4,20.293999910354614,learn,39706.000089645386,Tue Aug 12 2025 15:12:08 GMT-0500 (Central Daylight Time),439566.89999985695,A,,O,backspace,417,1,1966.8999998569489,437600.0,7194,WL,B,9.0
4,21.842999935150146,learn,38157.00006484985,Tue Aug 12 2025 15:12:08 GMT-0500 (Central Daylight Time),441116.39999985695,A,p,O,p,1513,1,3516.399999856949,437600.0,7194,WL,B,9.0
4,22.092999935150146,learn,37907.00006484985,Tue Aug 12 2025 15:12:08 GMT-0500 (Central Daylight Time),441366.0,A,pu,O,u,215,1,3766.0,437600.0,7194,WL,B,9.0
4,22.30999994277954,learn,37690.00005722046,Tue Aug 12 2025 15:12:08 GMT-0500 (Central Daylight Time),441582.89999985695,A,pup,O,p,186,1,3982.899999856949,437600.0,7194,WL,B,9.0
4,22.509000062942505,learn,37490.999937057495,Tue Aug 12 2025 15:12:08 GMT-0500 (Central Daylight Time),441782.39999985695,A,pupi,O,i,173,1,4182.399999856949,437600.0,7194,WL,B,9.0
4,22.792999982833862,learn,37207.00001716614,Tue Aug 12 2025 15:12:08 GMT-0500 (Central Daylight Time),442065.89999985695,A,pupil,O,l,254,1,4465.899999856949,437600.0,7194,WL,B,9.0
4,23.625,learn,36375.0,Tue Aug 12 2025 15:12:08 GMT-0500 (Central Daylight Time),442898.09999990463,A,pupilenter,O,enter,800,1,5298.099999904633,437600.0,7194,WL,B,9.0
4,27.04099988937378,learn,32959.00011062622,Tue Aug 12 2025 15:12:08 GMT-0500 (Central Daylight Time),446313.89999985695,A,a,O,a,3404,1,3415.5999999046326,442898.2999999523,7194,WL,B,10.0
4,27.19099998474121,learn,32809.00001525879,Tue Aug 12 2025 15:12:08 GMT-0500 (Central Daylight Time),446464.5,A,ar,O,r,121,1,3566.2000000476837,442898.2999999523,7194,WL,B,10.0
4,27.47499990463257,learn,32525.00009536743,Tue Aug 12 2025 15:12:08 GMT-0500 (Central Daylight Time),446748.0,A,arm,O,m,244,1,3849.7000000476837,442898.2999999523,7194,WL,B,10.0
4,27.83999991416931,learn,32160.00008583069,Tue Aug 12 2025 15:12:08 GMT-0500 (Central Daylight Time),447113.39999985695,A,armenter,O,enter,328,1,4215.099999904633,442898.2999999523,7194,WL,B,10.0
4,34.57200002670288,learn,25427.99997329712,Tue Aug 12 2025 15:12:08 GMT-0500 (Central Daylight Time),453845.2999999523,A,d,O,d,6710,1,6731.700000047684,447113.59999990463,7194,WL,B,11.0
4,34.72199988365173,learn,25278.000116348267,Tue Aug 12 2025 15:12:08 GMT-0500 (Central Daylight Time),453995.39999985695,A,do,O,o,114,1,6881.799999952316,447113.59999990463,7194,WL,B,11.0
4,34.871999979019165,learn,25128.000020980835,Tue Aug 12 2025 15:12:08 GMT-0500 (Central Daylight Time),454145.2999999523,A,dow,O,w,118,1,7031.700000047684,447113.59999990463,7194,WL,B,11.0
4,34.97099995613098,learn,25029.00004386902,Tue Aug 12 2025 15:12:08 GMT-0500 (Central Daylight Time),454244.59999990463,A,down,O,n,70,1,7131.0,447113.59999990463,7194,WL,B,11.0
4,35.28800010681152,learn,24711.999893188477,Tue Aug 12 2025 15:12:08 GMT-0500 (Central Daylight Time),454561.0,A,downenter,O,enter,289,1,7447.400000095367,447113.59999990463,7194,WL,B,11.0
4,42.6029999256134,learn,17397.000074386597,Tue Aug 12 2025 15:12:08 GMT-0500 (Central Daylight Time),461876.2999999523,A,enter,O,enter,7293,1,7315.100000143051,454561.19999980927,7194,WL,B,12.0
4,42.83500003814697,learn,17164.999961853027,Tue Aug 12 2025 15:12:08 GMT-0500 (Central Daylight Time),462108.39999985695,A,enter,O,enter,225,1,231.89999985694885,461876.5,7194,WL,B,13.0
4,43.18499994277954,learn,16815.00005722046,Tue Aug 12 2025 15:12:08 GMT-0500 (Central Daylight Time),462458.19999980927,A,enter,O,enter,337,1,349.5,462108.69999980927,7194,WL,B,14.0
4,43.61800003051758,learn,16381.999969482422,Tue Aug 12 2025 15:12:08 GMT-0500 (Central Daylight Time),462891.5,A,enter,O,enter,411,1,433.0,462458.5,7194,WL,B,15.0
5,0.4510002136230469,learn,60000.0,Tue Aug 12 2025 15:12:08 GMT-0500 (Central Daylight Time),531820.399999857,A,s,O,s,431,1,450.59999990463257,531369.7999999523,7194,WL,B,1.0
5,0.7000000476837158,learn,60000.0,Tue Aug 12 2025 15:12:08 GMT-0500 (Central Daylight Time),532069.899999857,A,st,O,t,225,1,700.0999999046326,531369.7999999523,7194,WL,B,1.0
5,0.9660000801086426,learn,60000.0,Tue Aug 12 2025 15:12:08 GMT-0500 (Central Daylight Time),532336.0,A,str,O,r,233,1,966.2000000476837,531369.7999999523,7194,WL,B,1.0
5,1.183000087738037,learn,60000.0,Tue Aug 12 2025 15:12:08 GMT-0500 (Central Daylight Time),532552.7999999523,A,stre,O,e,198,1,1183.0,531369.7999999523,7194,WL,B,1.0
5,1.31600022315979,learn,60000.0,Tue Aug 12 2025 15:12:08 GMT-0500 (Central Daylight Time),532686.0999999046,A,stree,O,e,101,1,1316.2999999523163,531369.7999999523,7194,WL,B,1.0
5,1.6000001430511475,learn,60000.0,Tue Aug 12 2025 15:12:08 GMT-0500 (Central Daylight Time),532969.5,A,street,O,t,258,1,1599.7000000476837,531369.7999999523,7194,WL,B,1.0
5,1.8660001754760742,learn,60000.0,Tue Aug 12 2025 15:12:08 GMT-0500 (Central Daylight Time),533235.0999999046,A,streetenter,O,enter,234,1,1865.2999999523163,531369.7999999523,7194,WL,B,1.0
5,2.1660001277923584,learn,60000.0,Tue Aug 12 2025 15:12:08 GMT-0500 (Central Daylight Time),533535.899999857,A,g,O,g,284,1,300.59999990463257,533235.2999999523,7194,WL,B,2.0
5,2.3990001678466797,learn,60000.0,Tue Aug 12 2025 15:12:08 GMT-0500 (Central Daylight Time),533768.2999999523,A,gr,O,r,193,1,533.0,533235.2999999523,7194,WL,B,2.0
5,2.5830001831054688,learn,60000.0,Tue Aug 12 2025 15:12:08 GMT-0500 (Central Daylight Time),533952.5999999046,A,gra,O,a,165,1,717.2999999523163,533235.2999999523,7194,WL,B,2.0
5,2.933000087738037,learn,60000.0,Tue Aug 12 2025 15:12:08 GMT-0500 (Central Daylight Time),534302.5,A,gras,O,s,317,1,1067.2000000476837,533235.2999999523,7194,WL,B,2.0
5,3.1000001430511475,learn,60000.0,Tue Aug 12 2025 15:12:08 GMT-0500 (Central Daylight Time),534469.0999999046,A,grass,O,s,128,1,1233.7999999523163,533235.2999999523,7194,WL,B,2.0
5,4.29800009727478,learn,60000.0,Tue Aug 12 2025 15:12:08 GMT-0500 (Central Daylight Time),535667.5999999046,A,grassenter,O,enter,1173,1,2432.2999999523163,533235.2999999523,7194,WL,B,2.0
5,4.615000009536743,learn,60000.0,Tue Aug 12 2025 15:12:08 GMT-0500 (Central Daylight Time),535985.0,A,a,O,a,298,1,317.10000014305115,535667.899999857,7194,WL,B,3.0
5,4.749000072479248,learn,60000.0,Tue Aug 12 2025 15:12:08 GMT-0500 (Central Daylight Time),536118.5,A,ar,O,r,102,1,450.60000014305115,535667.899999857,7194,WL,B,3.0
5,4.965000152587891,learn,60000.0,Tue Aug 12 2025 15:12:08 GMT-0500 (Central Daylight Time),536335.0,A,arm,O,m,192,1,667.1000001430511,535667.899999857,7194,WL,B,3.0
5,5.581000089645386,learn,60000.0,Tue Aug 12 2025 15:12:08 GMT-0500 (Central Daylight Time),536950.5,A,armenter,O,enter,580,1,1282.6000001430511,535667.899999857,7194,WL,B,3.0
5,6.115000009536743,learn,60000.0,Tue Aug 12 2025 15:12:08 GMT-0500 (Central Daylight Time),537484.7999999523,A,d,O,d,513,1,534.0,536950.7999999523,7194,WL,B,4.0
5,6.2820000648498535,learn,60000.0,Tue Aug 12 2025 15:12:08 GMT-0500 (Central Daylight Time),537651.399999857,A,do,O,o,130,1,700.5999999046326,536950.7999999523,7194,WL,B,4.0
5,6.482000112533569,learn,60000.0,Tue Aug 12 2025 15:12:08 GMT-0500 (Central Daylight Time),537851.2999999523,A,doo,O,o,161,1,900.5,536950.7999999523,7194,WL,B,4.0
5,6.715000152587891,learn,60000.0,Tue Aug 12 2025 15:12:08 GMT-0500 (Central Daylight Time),538084.399999857,A,door,O,r,193,1,1133.5999999046326,536950.7999999523,7194,WL,B,4.0
5,7.29800009727478,learn,60000.0,Tue Aug 12 2025 15:12:08 GMT-0500 (Central Daylight Time),538666.5999999046,A,doorenter,O,enter,552,1,1715.7999999523163,536950.7999999523,7194,WL,B,4.0
5,7.699000120162964,learn,60000.0,Tue Aug 12 2025 15:12:08 GMT-0500 (Central Daylight Time),539067.5,A,f,O,f,389,1,400.60000014305115,538666.899999857,7194,WL,B,5.0
5,7.8490002155303955,learn,60000.0,Tue Aug 12 2025 15:12:08 GMT-0500 (Central Daylight Time),539217.5999999046,A,fi,O,i,122,1,550.7000000476837,538666.899999857,7194,WL,B,5.0
5,8.032000064849854,learn,60000.0,Tue Aug 12 2025 15:12:08 GMT-0500 (Central Daylight Time),539400.5999999046,A,fir,O,r,157,1,733.7000000476837,538666.899999857,7194,WL,B,5.0
5,8.165000200271606,learn,60000.0,Tue Aug 12 2025 15:12:08 GMT-0500 (Central Daylight Time),539534.0,A,fire,O,e,108,1,867.1000001430511,538666.899999857,7194,WL,B,5.0
5,8.581000089645386,learn,60000.0,Tue Aug 12 2025 15:12:08 GMT-0500 (Central Daylight Time),539949.5999999046,A,fireenter,O,enter,382,1,1282.7000000476837,538666.899999857,7194,WL,B,5.0
5,8.915000200271606,learn,60000.0,Tue Aug 12 2025 15:12:08 GMT-0500 (Central Daylight Time),540283.7999999523,A,w,O,w,321,1,333.90000009536743,539949.899999857,7194,WL,B,6.0
5,9.065000057220459,learn,60000.0,Tue Aug 12 2025 15:12:08 GMT-0500 (Central Daylight Time),540433.6999998093,A,wi,O,i,113,1,483.7999999523163,539949.899999857,7194,WL,B,6.0
5,9.248000144958496,learn,60000.0,Tue Aug 12 2025 15:12:08 GMT-0500 (Central Daylight Time),540617.0,A,wif,O,f,154,1,667.1000001430511,539949.899999857,7194,WL,B,6.0
5,9.398000001907349,learn,60000.0,Tue Aug 12 2025 15:12:08 GMT-0500 (Central Daylight Time),540767.0999999046,A,wife,O,e,117,1,817.2000000476837,539949.899999857,7194,WL,B,6.0
5,9.564000129699707,learn,60000.0,Tue Aug 12 2025 15:12:08 GMT-0500 (Central Daylight Time),540932.5999999046,A,wifeenter,O,enter,134,1,982.7000000476837,539949.899999857,7194,WL,B,6.0
5,9.815000057220459,learn,60000.0,Tue Aug 12 2025 15:12:08 GMT-0500 (Central Daylight Time),541183.5999999046,A,w,O,w,234,1,250.79999995231628,540932.7999999523,7194,WL,B,7.0
5,9.964000225067139,learn,60000.0,Tue Aug 12 2025 15:12:08 GMT-0500 (Central Daylight Time),541333.399999857,A,wi,O,i,117,1,400.59999990463257,540932.7999999523,7194,WL,B,7.0
5,10.081000089645386,learn,60000.0,Tue Aug 12 2025 15:12:08 GMT-0500 (Central Daylight Time),541450.0999999046,A,win,O,n,81,1,517.2999999523163,540932.7999999523,7194,WL,B,7.0
5,10.198000192642212,learn,60000.0,Tue Aug 12 2025 15:12:08 GMT-0500 (Central Daylight Time),541566.6999998093,A,wind,O,d,83,1,633.8999998569489,540932.7999999523,7194,WL,B,7.0
5,10.398000001907349,learn,60000.0,Tue Aug 12 2025 15:12:08 GMT-0500 (Central Daylight Time),541766.5,A,windo,O,o,174,1,833.7000000476837,540932.7999999523,7194,WL,B,7.0
5,10.497000217437744,learn,60000.0,Tue Aug 12 2025 15:12:08 GMT-0500 (Central Daylight Time),541866.0,A,window,O,w,63,1,933.2000000476837,540932.7999999523,7194,WL,B,7.0
5,10.680999994277954,learn,60000.0,Tue Aug 12 2025 15:12:08 GMT-0500 (Central Daylight Time),542049.7999999523,A,windown,O,n,158,1,1117.0,540932.7999999523,7194,WL,B,7.0
5,11.13100004196167,learn,60000.0,Tue Aug 12 2025 15:12:08 GMT-0500 (Central Daylight Time),542499.5999999046,A,window,O,backspace,411,1,1566.7999999523163,540932.7999999523,7194,WL,B,7.0
5,11.496000051498413,learn,60000.0,Tue Aug 12 2025 15:12:08 GMT-0500 (Central Daylight Time),542865.399999857,A,windowenter,O,enter,328,1,1932.5999999046326,540932.7999999523,7194,WL,B,7.0
5,14.912000179290771,learn,60000.0,Tue Aug 12 2025 15:12:08 GMT-0500 (Central Daylight Time),546280.6999998093,A,c,O,c,3396,1,3415.0,542865.6999998093,7194,WL,B,8.0
5,15.07800006866455,learn,60000.0,Tue Aug 12 2025 15:12:08 GMT-0500 (Central Daylight Time),546447.2999999523,A,cl,O,l,154,1,3581.600000143051,542865.6999998093,7194,WL,B,8.0
5,15.361999988555908,learn,60000.0,Tue Aug 12 2025 15:12:08 GMT-0500 (Central Daylight Time),546730.5999999046,A,clo,O,o,261,1,3864.9000000953674,542865.6999998093,7194,WL,B,8.0
5,15.462000131607056,learn,60000.0,Tue Aug 12 2025 15:12:08 GMT-0500 (Central Daylight Time),546830.5,A,cloc,O,c,82,1,3964.800000190735,542865.6999998093,7194,WL,B,8.0
5,15.645000219345093,learn,60000.0,Tue Aug 12 2025 15:12:08 GMT-0500 (Central Daylight Time),547013.7999999523,A,clock,O,k,166,1,4148.100000143051,542865.6999998093,7194,WL,B,8.0
5,16.145000219345093,learn,60000.0,Tue Aug 12 2025 15:12:08 GMT-0500 (Central Daylight Time),547513.5999999046,A,clockenter,O,enter,479,1,4647.900000095367,542865.6999998093,7194,WL,B,8.0
5,16.478000164031982,learn,60000.0,Tue Aug 12 2025 15:12:08 GMT-0500 (Central Daylight Time),547847.0999999046,A,p,O,p,323,1,333.09999990463257,547514.0,7194,WL,B,9.0
5,16.645000219345093,learn,60000.0,Tue Aug 12 2025 15:12:08 GMT-0500 (Central Daylight Time),548013.5999999046,A,pi,O,i,150,1,499.59999990463257,547514.0,7194,WL,B,9.0
5,16.761000156402588,learn,60000.0,Tue Aug 12 2025 15:12:08 GMT-0500 (Central Daylight Time),548130.2999999523,A,pip,O,p,94,1,616.2999999523163,547514.0,7194,WL,B,9.0
5,16.9280002117157,learn,60000.0,Tue Aug 12 2025 15:12:08 GMT-0500 (Central Daylight Time),548296.7999999523,A,pipe,O,e,155,1,782.7999999523163,547514.0,7194,WL,B,9.0
5,17.39400005340576,learn,60000.0,Tue Aug 12 2025 15:12:08 GMT-0500 (Central Daylight Time),548763.2999999523,A,pipeenter,O,enter,452,1,1249.2999999523163,547514.0,7194,WL,B,9.0
5,22.259999990463257,learn,60000.0,Tue Aug 12 2025 15:12:08 GMT-0500 (Central Daylight Time),553629.399999857,A,p,O,p,4843,1,4865.700000047684,548763.6999998093,7194,WL,B,10.0
5,22.427000045776367,learn,60000.0,Tue Aug 12 2025 15:12:08 GMT-0500 (Central Daylight Time),553796.0,A,pu,O,u,141,1,5032.300000190735,548763.6999998093,7194,WL,B,10.0
5,22.5770001411438,learn,60000.0,Tue Aug 12 2025 15:12:08 GMT-0500 (Central Daylight Time),553945.5,A,pup,O,p,121,1,5181.800000190735,548763.6999998093,7194,WL,B,10.0
5,23.110000133514404,learn,60000.0,Tue Aug 12 2025 15:12:08 GMT-0500 (Central Daylight Time),554479.0,A,pupi,O,i,507,1,5715.300000190735,548763.6999998093,7194,WL,B,10.0
5,23.29300022125244,learn,60000.0,Tue Aug 12 2025 15:12:08 GMT-0500 (Central Daylight Time),554661.5999999046,A,pupil,O,l,150,1,5897.900000095367,548763.6999998093,7194,WL,B,10.0
5,23.64300012588501,learn,60000.0,Tue Aug 12 2025 15:12:08 GMT-0500 (Central Daylight Time),555012.2999999523,A,pupilenter,O,enter,327,1,6248.600000143051,548763.6999998093,7194,WL,B,10.0
5,25.2260000705719,learn,60000.0,Tue Aug 12 2025 15:12:08 GMT-0500 (Central Daylight Time),556595.0,A,c,O,c,1562,1,1582.4000000953674,555012.5999999046,7194,WL,B,11.0
5,25.326000213623047,learn,60000.0,Tue Aug 12 2025 15:12:08 GMT-0500 (Central Daylight Time),556694.5,A,ci,O,i,74,1,1681.9000000953674,555012.5999999046,7194,WL,B,11.0
5,25.54300022125244,learn,60000.0,Tue Aug 12 2025 15:12:08 GMT-0500 (Central Daylight Time),556911.6999998093,A,cit,O,t,201,1,1899.0999999046326,555012.5999999046,7194,WL,B,11.0
5,25.642000198364258,learn,60000.0,Tue Aug 12 2025 15:12:08 GMT-0500 (Central Daylight Time),557010.899999857,A,city,O,y,68,1,1998.2999999523163,555012.5999999046,7194,WL,B,11.0
5,26.008000135421753,learn,60000.0,Tue Aug 12 2025 15:12:08 GMT-0500 (Central Daylight Time),557377.2999999523,A,cityenter,O,enter,339,1,2364.7000000476837,555012.5999999046,7194,WL,B,11.0
5,42.60300016403198,learn,60000.0,Tue Aug 12 2025 15:12:08 GMT-0500 (Central Daylight Time),573971.6999998093,A,enter,O,enter,16581,1,16594.099999904633,557377.5999999046,7194,WL,B,12.0
5,42.86900019645691,learn,60000.0,Tue Aug 12 2025 15:12:08 GMT-0500 (Central Daylight Time),574238.399999857,A,enter,O,enter,250,1,266.39999985694885,573972.0,7194,WL,B,13.0
5,43.20300006866455,learn,60000.0,Tue Aug 12 2025 15:12:08 GMT-0500 (Central Daylight Time),574571.6999998093,A,enter,O,enter,327,1,333.09999990463257,574238.5999999046,7194,WL,B,14.0
5,43.63600015640259,learn,60000.0,Tue Aug 12 2025 15:12:08 GMT-0500 (Central Daylight Time),575004.6999998093,A,enter,O,enter,417,1,432.69999980926514,574572.0,7194,WL,B,15.0
6,1.0,distr,59000.0,Tue Aug 12 2025 15:12:08 GMT-0500 (Central Daylight Time),655146.1999998093,B,s,O,s,973,1,999.5,654146.6999998093,7194,WL,B,1.0
6,1.2990000247955322,distr,58700.99997520447,Tue Aug 12 2025 15:12:08 GMT-0500 (Central Daylight Time),655445.7999999523,B,st,O,t,274,1,1299.1000001430511,654146.6999998093,7194,WL,B,1.0
6,1.565999984741211,distr,58434.00001525879,Tue Aug 12 2025 15:12:08 GMT-0500 (Central Daylight Time),655712.6999998093,B,ste,O,e,233,1,1566.0,654146.6999998093,7194,WL,B,1.0
6,1.7660000324249268,distr,58233.99996757507,Tue Aug 12 2025 15:12:08 GMT-0500 (Central Daylight Time),655912.6999998093,B,stea,O,a,165,1,1766.0,654146.6999998093,7194,WL,B,1.0
6,2.1489999294281006,distr,57851.0000705719,Tue Aug 12 2025 15:12:08 GMT-0500 (Central Daylight Time),656295.7999999523,B,steam,O,m,356,1,2149.100000143051,654146.6999998093,7194,WL,B,1.0
6,2.565000057220459,distr,57434.99994277954,Tue Aug 12 2025 15:12:08 GMT-0500 (Central Daylight Time),656711.2999999523,B,steamenter,O,enter,389,1,2564.600000143051,654146.6999998093,7194,WL,B,1.0
6,2.865999937057495,distr,57134.000062942505,Tue Aug 12 2025 15:12:08 GMT-0500 (Central Daylight Time),657012.1999998093,B,c,O,c,288,1,300.69999980926514,656711.5,7194,WL,B,2.0
6,3.065999984741211,distr,56934.00001525879,Tue Aug 12 2025 15:12:08 GMT-0500 (Central Daylight Time),657212.399999857,B,co,O,o,161,1,500.89999985694885,656711.5,7194,WL,B,2.0
6,3.2160000801086426,distr,56783.99991989136,Tue Aug 12 2025 15:12:08 GMT-0500 (Central Daylight Time),657362.0999999046,B,coi,O,i,122,1,650.5999999046326,656711.5,7194,WL,B,2.0
6,3.3329999446868896,distr,56667.00005531311,Tue Aug 12 2025 15:12:08 GMT-0500 (Central Daylight Time),657478.899999857,B,coin,O,n,84,1,767.3999998569489,656711.5,7194,WL,B,2.0
6,3.7160000801086426,distr,56283.99991989136,Tue Aug 12 2025 15:12:08 GMT-0500 (Central Daylight Time),657862.0999999046,B,coinenter,O,enter,357,1,1150.5999999046326,656711.5,7194,WL,B,2.0
6,4.131999969482422,distr,55868.00003051758,Tue Aug 12 2025 15:12:08 GMT-0500 (Central Daylight Time),658278.2999999523,B,o,O,o,409,1,415.90000009536743,657862.399999857,7194,WL,B,3.0
6,4.249000072479248,distr,55750.99992752075,Tue Aug 12 2025 15:12:08 GMT-0500 (Central Daylight Time),658395.0999999046,B,oc,O,c,80,1,532.7000000476837,657862.399999857,7194,WL,B,3.0
6,4.48199987411499,distr,55518.00012588501,Tue Aug 12 2025 15:12:08 GMT-0500 (Central Daylight Time),658628.2999999523,B,oce,O,e,193,1,765.9000000953674,657862.399999857,7194,WL,B,3.0
6,4.865999937057495,distr,55134.000062942505,Tue Aug 12 2025 15:12:08 GMT-0500 (Central Daylight Time),659011.5999999046,B,ocea,O,a,353,1,1149.2000000476837,657862.399999857,7194,WL,B,3.0
6,5.016000032424927,distr,54983.99996757507,Tue Aug 12 2025 15:12:08 GMT-0500 (Central Daylight Time),659161.2999999523,B,ocean,O,n,123,1,1298.9000000953674,657862.399999857,7194,WL,B,3.0
6,5.398000001907349,distr,54601.99999809265,Tue Aug 12 2025 15:12:08 GMT-0500 (Central Daylight Time),659543.5999999046,B,oceanenter,O,enter,346,1,1681.2000000476837,657862.399999857,7194,WL,B,3.0
6,5.73199987411499,distr,54268.00012588501,Tue Aug 12 2025 15:12:08 GMT-0500 (Central Daylight Time),659877.7999999523,B,b,O,b,327,1,334.0,659543.7999999523,7194,WL,B,4.0
6,5.865000009536743,distr,54134.99999046326,Tue Aug 12 2025 15:12:08 GMT-0500 (Central Daylight Time),660011.0999999046,B,ba,O,a,104,1,467.2999999523163,659543.7999999523,7194,WL,B,4.0
6,5.930999994277954,distr,54069.000005722046,Tue Aug 12 2025 15:12:08 GMT-0500 (Central Daylight Time),660077.0999999046,B,bab,O,b,42,1,533.2999999523163,659543.7999999523,7194,WL,B,4.0
6,6.5980000495910645,distr,53401.999950408936,Tue Aug 12 2025 15:12:08 GMT-0500 (Central Daylight Time),660744.2999999523,B,baby,O,y,641,1,1200.5,659543.7999999523,7194,WL,B,4.0
6,9.379999876022339,distr,50620.00012397766,Tue Aug 12 2025 15:12:08 GMT-0500 (Central Daylight Time),663525.7999999523,B,babyenter,O,enter,2757,1,3982.0,659543.7999999523,7194,WL,B,4.0
6,12.562999963760376,distr,47437.000036239624,Tue Aug 12 2025 15:12:08 GMT-0500 (Central Daylight Time),666708.7999999523,B,v,O,v,3169,1,3182.7999999523163,663526.0,7194,WL,B,5.0
6,12.69700002670288,distr,47302.99997329712,Tue Aug 12 2025 15:12:08 GMT-0500 (Central Daylight Time),666842.2999999523,B,vi,O,i,115,1,3316.2999999523163,663526.0,7194,WL,B,5.0
6,13.296000003814697,distr,46703.9999961853,Tue Aug 12 2025 15:12:08 GMT-0500 (Central Daylight Time),667442.0999999046,B,vil,O,l,571,1,3916.0999999046326,663526.0,7194,WL,B,5.0
6,13.496000051498413,distr,46503.99994850159,Tue Aug 12 2025 15:12:08 GMT-0500 (Central Daylight Time),667642.0999999046,B,vill,O,l,163,1,4116.099999904633,663526.0,7194,WL,B,5.0
6,13.578999996185303,distr,46421.0000038147,Tue Aug 12 2025 15:12:08 GMT-0500 (Central Daylight Time),667724.899999857,B,villa,O,a,56,1,4198.899999856949,663526.0,7194,WL,B,5.0
6,13.678999900817871,distr,46321.00009918213,Tue Aug 12 2025 15:12:08 GMT-0500 (Central Daylight Time),667824.6999998093,B,villag,O,g,74,1,4298.699999809265,663526.0,7194,WL,B,5.0
6,14.027999877929688,distr,45972.00012207031,Tue Aug 12 2025 15:12:08 GMT-0500 (Central Daylight Time),668174.0,B,village,O,e,325,1,4648.0,663526.0,7194,WL,B,5.0
6,14.17799997329712,distr,45822.00002670288,Tue Aug 12 2025 15:12:08 GMT-0500 (Central Daylight Time),668324.0,B,villageenter,O,enter,142,1,4798.0,663526.0,7194,WL,B,5.0
6,23.026000022888184,distr,36973.99997711182,Tue Aug 12 2025 15:12:08 GMT-0500 (Central Daylight Time),677172.2999999523,B,l,O,l,8835,1,8848.100000143051,668324.1999998093,7194,WL,B,6.0
6,23.375999927520752,distr,36624.00007247925,Tue Aug 12 2025 15:12:08 GMT-0500 (Central Daylight Time),677522.1999998093,B,li,O,i,314,1,9198.0,668324.1999998093,7194,WL,B,6.0
6,23.859999895095825,distr,36140.000104904175,Tue Aug 12 2025 15:12:08 GMT-0500 (Central Daylight Time),678005.399999857,B,lip,O,p,443,1,9681.200000047684,668324.1999998093,7194,WL,B,6.0
6,24.375,distr,35625.0,Tue Aug 12 2025 15:12:08 GMT-0500 (Central Daylight Time),678520.899999857,B,lipenter,O,enter,486,1,10196.700000047684,668324.1999998093,7194,WL,B,6.0
6,37.6710000038147,distr,22328.999996185303,Tue Aug 12 2025 15:12:08 GMT-0500 (Central Daylight Time),691816.2999999523,B,enter,O,enter,13286,1,13295.200000047684,678521.0999999046,7194,WL,B,7.0
6,37.90400004386902,distr,22095.99995613098,Tue Aug 12 2025 15:12:08 GMT-0500 (Central Daylight Time),692049.5999999046,B,enter,O,enter,220,1,232.90000009536743,691816.6999998093,7194,WL,B,8.0
6,38.13700008392334,distr,21862.99991607666,Tue Aug 12 2025 15:12:08 GMT-0500 (Central Daylight Time),692283.0,B,enter,O,enter,211,1,232.90000009536743,692050.0999999046,7194,WL,B,9.0
6,38.32100009918213,distr,21678.99990081787,Tue Aug 12 2025 15:12:08 GMT-0500 (Central Daylight Time),692466.2999999523,B,enter,O,enter,163,1,183.0,692283.2999999523,7194,WL,B,10.0
6,38.53699994087219,distr,21463.000059127808,Tue Aug 12 2025 15:12:08 GMT-0500 (Central Daylight Time),692683.0,B,enter,O,enter,195,1,216.5,692466.5,7194,WL,B,11.0
6,38.75399994850159,distr,21246.000051498413,Tue Aug 12 2025 15:12:08 GMT-0500 (Central Daylight Time),692899.5,B,enter,O,enter,195,1,216.30000019073486,692683.1999998093,7194,WL,B,12.0
6,39.13700008392334,distr,20862.99991607666,Tue Aug 12 2025 15:12:08 GMT-0500 (Central Daylight Time),693282.5999999046,B,enter,O,enter,371,1,382.90000009536743,692899.6999998093,7194,WL,B,13.0
6,39.47000002861023,distr,20529.99997138977,Tue Aug 12 2025 15:12:08 GMT-0500 (Central Daylight Time),693615.899999857,B,enter,O,enter,324,1,332.89999985694885,693283.0,7194,WL,B,14.0
6,39.8529999256134,distr,20147.000074386597,Tue Aug 12 2025 15:12:08 GMT-0500 (Central Daylight Time),693999.0999999046,B,enter,O,enter,373,1,382.90000009536743,693616.1999998093,7194,WL,B,15.0
7,3.065999984741211,immed,56934.00001525879,Tue Aug 12 2025 15:12:08 GMT-0500 (Central Daylight Time),707928.6999998093,A,s,O,s,3033,1,3065.2999999523163,704863.399999857,7194,WL,B,1.0
7,3.2990000247955322,immed,56700.99997520447,Tue Aug 12 2025 15:12:08 GMT-0500 (Central Daylight Time),708162.2999999523,A,st,O,t,197,1,3298.9000000953674,704863.399999857,7194,WL,B,1.0
7,3.815000057220459,immed,56184.99994277954,Tue Aug 12 2025 15:12:08 GMT-0500 (Central Daylight Time),708678.1999998093,A,str,O,r,489,1,3814.7999999523163,704863.399999857,7194,WL,B,1.0
7,4.082000017166138,immed,55917.99998283386,Tue Aug 12 2025 15:12:08 GMT-0500 (Central Daylight Time),708944.899999857,A,stre,O,e,240,1,4081.5,704863.399999857,7194,WL,B,1.0
7,4.198999881744385,immed,55801.000118255615,Tue Aug 12 2025 15:12:08 GMT-0500 (Central Daylight Time),709062.1999998093,A,stree,O,e,93,1,4198.799999952316,704863.399999857,7194,WL,B,1.0
7,4.764999866485596,immed,55235.000133514404,Tue Aug 12 2025 15:12:08 GMT-0500 (Central Daylight Time),709628.2999999523,A,street,O,t,541,1,4764.900000095367,704863.399999857,7194,WL,B,1.0
7,4.980999946594238,immed,55019.00005340576,Tue Aug 12 2025 15:12:08 GMT-0500 (Central Daylight Time),709844.0,A,streetenter,O,enter,195,1,4980.600000143051,704863.399999857,7194,WL,B,1.0
7,5.2820000648498535,immed,54717.99993515015,Tue Aug 12 2025 15:12:08 GMT-0500 (Central Daylight Time),710144.6999998093,A,s,O,s,292,1,300.39999985694885,709844.2999999523,7194,WL,B,2.0
7,5.914999961853027,immed,54085.00003814697,Tue Aug 12 2025 15:12:08 GMT-0500 (Central Daylight Time),710778.0,A,,O,backspace,606,1,933.7000000476837,709844.2999999523,7194,WL,B,2.0
7,6.014999866485596,immed,53985.000133514404,Tue Aug 12 2025 15:12:08 GMT-0500 (Central Daylight Time),710877.5,A,g,O,g,63,1,1033.2000000476837,709844.2999999523,7194,WL,B,2.0
7,6.197999954223633,immed,53802.00004577637,Tue Aug 12 2025 15:12:08 GMT-0500 (Central Daylight Time),711061.0999999046,A,gr,O,r,152,1,1216.7999999523163,709844.2999999523,7194,WL,B,2.0
7,6.414999961853027,immed,53585.00003814697,Tue Aug 12 2025 15:12:08 GMT-0500 (Central Daylight Time),711277.899999857,A,gra,O,a,194,1,1433.5999999046326,709844.2999999523,7194,WL,B,2.0
7,6.615000009536743,immed,53384.99999046326,Tue Aug 12 2025 15:12:08 GMT-0500 (Central Daylight Time),711477.5999999046,A,graa,O,a,171,1,1633.2999999523163,709844.2999999523,7194,WL,B,2.0
7,7.081000089645386,immed,52918.999910354614,Tue Aug 12 2025 15:12:08 GMT-0500 (Central Daylight Time),711944.0999999046,A,gra,O,backspace,432,1,2099.7999999523163,709844.2999999523,7194,WL,B,2.0
7,7.148000001907349,immed,52851.99999809265,Tue Aug 12 2025 15:12:08 GMT-0500 (Central Daylight Time),712010.399999857,A,gras,O,s,38,1,2166.0999999046326,709844.2999999523,7194,WL,B,2.0
7,7.29800009727478,immed,52701.99990272522,Tue Aug 12 2025 15:12:08 GMT-0500 (Central Daylight Time),712160.7999999523,A,grass,O,s,123,1,2316.5,709844.2999999523,7194,WL,B,2.0
7,7.5299999713897705,immed,52470.00002861023,Tue Aug 12 2025 15:12:08 GMT-0500 (Central Daylight Time),712393.0999999046,A,grassenter,O,enter,204,1,2548.7999999523163,709844.2999999523,7194,WL,B,2.0
7,7.813999891281128,immed,52186.00010871887,Tue Aug 12 2025 15:12:08 GMT-0500 (Central Daylight Time),712677.0999999046,A,a,O,a,271,1,283.7999999523163,712393.2999999523,7194,WL,B,3.0
7,7.9649999141693115,immed,52035.00008583069,Tue Aug 12 2025 15:12:08 GMT-0500 (Central Daylight Time),712827.399999857,A,ar,O,r,119,1,434.09999990463257,712393.2999999523,7194,WL,B,3.0
7,8.197999954223633,immed,51802.00004577637,Tue Aug 12 2025 15:12:08 GMT-0500 (Central Daylight Time),713060.6999998093,A,arm,O,m,195,1,667.3999998569489,712393.2999999523,7194,WL,B,3.0
7,9.645999908447266,immed,50354.000091552734,Tue Aug 12 2025 15:12:08 GMT-0500 (Central Daylight Time),714509.0999999046,A,armenter,O,enter,1416,1,2115.7999999523163,712393.2999999523,7194,WL,B,3.0
7,11.746999979019165,immed,48253.000020980835,Tue Aug 12 2025 15:12:08 GMT-0500 (Central Daylight Time),716609.399999857,A,s,O,s,2082,1,2100.0,714509.399999857,7194,WL,B,4.0
7,11.946000099182129,immed,48053.99990081787,Tue Aug 12 2025 15:12:08 GMT-0500 (Central Daylight Time),716809.0999999046,A,st,O,t,164,1,2299.7000000476837,714509.399999857,7194,WL,B,4.0
7,12.196000099182129,immed,47803.99990081787,Tue Aug 12 2025 15:12:08 GMT-0500 (Central Daylight Time),717059.2999999523,A,sta,O,a,221,1,2549.9000000953674,714509.399999857,7194,WL,B,4.0
7,12.546000003814697,immed,47453.9999961853,Tue Aug 12 2025 15:12:08 GMT-0500 (Central Daylight Time),717408.7999999523,A,star,O,r,322,1,2899.4000000953674,714509.399999857,7194,WL,B,4.0
7,13.411999940872192,immed,46588.00005912781,Tue Aug 12 2025 15:12:08 GMT-0500 (Central Daylight Time),718274.399999857,A,starenter,O,enter,836,1,3765.0,714509.399999857,7194,WL,B,4.0
7,14.595999956130981,immed,45404.00004386902,Tue Aug 12 2025 15:12:08 GMT-0500 (Central Daylight Time),719458.399999857,A,l,O,l,1164,1,1183.7000000476837,718274.6999998093,7194,WL,B,5.0
7,14.763000011444092,immed,45236.99998855591,Tue Aug 12 2025 15:12:08 GMT-0500 (Central Daylight Time),719625.0,A,la,O,a,140,1,1350.3000001907349,718274.6999998093,7194,WL,B,5.0
7,14.979000091552734,immed,45020.999908447266,Tue Aug 12 2025 15:12:08 GMT-0500 (Central Daylight Time),719841.6999998093,A,lak,O,k,188,1,1567.0,718274.6999998093,7194,WL,B,5.0
7,15.162999868392944,immed,44837.000131607056,Tue Aug 12 2025 15:12:08 GMT-0500 (Central Daylight Time),720024.899999857,A,lake,O,e,149,1,1750.2000000476837,718274.6999998093,7194,WL,B,5.0
7,15.378000020980835,immed,44621.999979019165,Tue Aug 12 2025 15:12:08 GMT-0500 (Central Daylight Time),720240.5,A,lakeenter,O,enter,189,1,1965.8000001907349,718274.6999998093,7194,WL,B,5.0
7,15.59500002861023,immed,44404.99997138977,Tue Aug 12 2025 15:12:08 GMT-0500 (Central Daylight Time),720457.5,A,c,O,c,197,1,216.70000004768372,720240.7999999523,7194,WL,B,6.0
7,15.729000091552734,immed,44270.999908447266,Tue Aug 12 2025 15:12:08 GMT-0500 (Central Daylight Time),720591.1999998093,A,ca,O,a,120,1,350.39999985694885,720240.7999999523,7194,WL,B,6.0
7,15.946000099182129,immed,44053.99990081787,Tue Aug 12 2025 15:12:08 GMT-0500 (Central Daylight Time),720808.0,A,cab,O,b,183,1,567.2000000476837,720240.7999999523,7194,WL,B,6.0
7,16.161999940872192,immed,43838.00005912781,Tue Aug 12 2025 15:12:08 GMT-0500 (Central Daylight Time),721024.5999999046,A,cabi,O,i,180,1,783.7999999523163,720240.7999999523,7194,WL,B,6.0
7,16.312000036239624,immed,43687.999963760376,Tue Aug 12 2025 15:12:08 GMT-0500 (Central Daylight Time),721174.399999857,A,cabin,O,n,118,1,933.5999999046326,720240.7999999523,7194,WL,B,6.0
7,16.727999925613403,immed,43272.0000743866,Tue Aug 12 2025 15:12:08 GMT-0500 (Central Daylight Time),721590.0999999046,A,cabinenter,O,enter,381,1,1349.2999999523163,720240.7999999523,7194,WL,B,6.0
7,17.111999988555908,immed,42888.00001144409,Tue Aug 12 2025 15:12:08 GMT-0500 (Central Daylight Time),721974.2999999523,A,p,O,p,377,1,384.0,721590.2999999523,7194,WL,B,7.0
7,17.277999877929688,immed,42722.00012207031,Tue Aug 12 2025 15:12:08 GMT-0500 (Central Daylight Time),722140.5,A,pu,O,u,136,1,550.2000000476837,721590.2999999523,7194,WL,B,7.0
7,17.82800006866455,immed,42171.99993133545,Tue Aug 12 2025 15:12:08 GMT-0500 (Central Daylight Time),722690.399999857,A,pup,O,p,525,1,1100.0999999046326,721590.2999999523,7194,WL,B,7.0
7,18.062000036239624,immed,41937.999963760376,Tue Aug 12 2025 15:12:08 GMT-0500 (Central Daylight Time),722923.899999857,A,pupi,O,i,194,1,1333.5999999046326,721590.2999999523,7194,WL,B,7.0
7,18.361999988555908,immed,41638.00001144409,Tue Aug 12 2025 15:12:08 GMT-0500 (Central Daylight Time),723223.7999999523,A,pupil,O,l,269,1,1633.5,721590.2999999523,7194,WL,B,7.0
7,18.960999965667725,immed,41039.000034332275,Tue Aug 12 2025 15:12:08 GMT-0500 (Central Daylight Time),723822.5999999046,A,pupilenter,O,enter,574,1,2232.2999999523163,721590.2999999523,7194,WL,B,7.0
7,19.911999940872192,immed,40088.00005912781,Tue Aug 12 2025 15:12:08 GMT-0500 (Central Daylight Time),724773.899999857,A,c,O,c,945,1,951.0,723822.899999857,7194,WL,B,8.0
7,20.027999877929688,immed,39972.00012207031,Tue Aug 12 2025 15:12:08 GMT-0500 (Central Daylight Time),724889.7999999523,A,co,O,o,88,1,1066.9000000953674,723822.899999857,7194,WL,B,8.0
7,20.293999910354614,immed,39706.000089645386,Tue Aug 12 2025 15:12:08 GMT-0500 (Central Daylight Time),725156.5,A,cok,O,k,227,1,1333.6000001430511,723822.899999857,7194,WL,B,8.0
7,20.344000101089478,immed,39655.99989891052,Tue Aug 12 2025 15:12:08 GMT-0500 (Central Daylight Time),725205.899999857,A,cokc,O,c,17,1,1383.0,723822.899999857,7194,WL,B,8.0
7,20.793999910354614,immed,39206.000089645386,Tue Aug 12 2025 15:12:08 GMT-0500 (Central Daylight Time),725656.1999998093,A,cok,O,backspace,426,1,1833.2999999523163,723822.899999857,7194,WL,B,8.0
7,20.960000038146973,immed,39039.99996185303,Tue Aug 12 2025 15:12:08 GMT-0500 (Central Daylight Time),725822.5,A,co,O,backspace,142,1,1999.6000001430511,723822.899999857,7194,WL,B,8.0
7,21.128000020980835,immed,38871.999979019165,Tue Aug 12 2025 15:12:08 GMT-0500 (Central Daylight Time),725990.2999999523,A,c,O,backspace,144,1,2167.4000000953674,723822.899999857,7194,WL,B,8.0
7,21.91000008583069,immed,38089.99991416931,Tue Aug 12 2025 15:12:08 GMT-0500 (Central Daylight Time),726772.5999999046,A,cl,O,l,750,1,2949.7000000476837,723822.899999857,7194,WL,B,8.0
7,22.128000020980835,immed,37871.999979019165,Tue Aug 12 2025 15:12:08 GMT-0500 (Central Daylight Time),726990.0,A,clc,O,c,193,1,3167.100000143051,723822.899999857,7194,WL,B,8.0
7,22.72699999809265,immed,37273.00000190735,Tue Aug 12 2025 15:12:08 GMT-0500 (Central Daylight Time),727589.0999999046,A,cl,O,backspace,560,1,3766.2000000476837,723822.899999857,7194,WL,B,8.0
7,22.9760000705719,immed,37023.9999294281,Tue Aug 12 2025 15:12:08 GMT-0500 (Central Daylight Time),727838.6999998093,A,clo,O,o,225,1,4015.7999999523163,723822.899999857,7194,WL,B,8.0
7,23.16000008583069,immed,36839.99991416931,Tue Aug 12 2025 15:12:08 GMT-0500 (Central Daylight Time),728022.2999999523,A,cloc,O,c,154,1,4199.400000095367,723822.899999857,7194,WL,B,8.0
7,23.509000062942505,immed,36490.999937057495,Tue Aug 12 2025 15:12:08 GMT-0500 (Central Daylight Time),728371.1999998093,A,clock,O,k,310,1,4548.299999952316,723822.899999857,7194,WL,B,8.0
7,24.80900001525879,immed,35190.99998474121,Tue Aug 12 2025 15:12:08 GMT-0500 (Central Daylight Time),729670.7999999523,A,clockenter,O,enter,1277,1,5847.900000095367,723822.899999857,7194,WL,B,8.0
7,32.056999921798706,immed,27943.000078201294,Tue Aug 12 2025 15:12:08 GMT-0500 (Central Daylight Time),736919.399999857,A,d,O,d,7233,1,7248.399999856949,729671.0,7194,WL,B,9.0
7,32.40700006484985,immed,27592.999935150146,Tue Aug 12 2025 15:12:08 GMT-0500 (Central Daylight Time),737269.6999998093,A,do,O,o,327,1,7598.699999809265,729671.0,7194,WL,B,9.0
7,32.60699987411499,immed,27393.00012588501,Tue Aug 12 2025 15:12:08 GMT-0500 (Central Daylight Time),737469.6999998093,A,doo,O,o,177,1,7798.699999809265,729671.0,7194,WL,B,9.0
7,32.75699996948242,immed,27243.000030517578,Tue Aug 12 2025 15:12:08 GMT-0500 (Central Daylight Time),737619.0999999046,A,door,O,r,125,1,7948.099999904633,729671.0,7194,WL,B,9.0
7,33.00600004196167,immed,26993.99995803833,Tue Aug 12 2025 15:12:08 GMT-0500 (Central Daylight Time),737868.0999999046,A,doorenter,O,enter,211,1,8197.099999904633,729671.0,7194,WL,B,9.0
7,47.550999879837036,immed,12449.000120162964,Tue Aug 12 2025 15:12:08 GMT-0500 (Central Daylight Time),752413.1999998093,A,enter,O,enter,14538,1,14544.899999856949,737868.2999999523,7194,WL,B,10.0
7,47.73399996757507,immed,12266.000032424927,Tue Aug 12 2025 15:12:08 GMT-0500 (Central Daylight Time),752596.399999857,A,enter,O,enter,176,1,182.89999985694885,752413.5,7194,WL,B,11.0
7,48.01799988746643,immed,11982.00011253357,Tue Aug 12 2025 15:12:08 GMT-0500 (Central Daylight Time),752879.7999999523,A,enter,O,enter,266,1,283.10000014305115,752596.6999998093,7194,WL,B,12.0
7,48.23399996757507,immed,11766.000032424927,Tue Aug 12 2025 15:12:08 GMT-0500 (Central Daylight Time),753096.399999857,A,enter,O,enter,198,1,216.20000004768372,752880.1999998093,7194,WL,B,13.0
7,48.70099997520447,immed,11299.000024795532,Tue Aug 12 2025 15:12:08 GMT-0500 (Central Daylight Time),753562.899999857,A,enter,O,enter,446,1,466.2000000476837,753096.6999998093,7194,WL,B,14.0
7,49.151999950408936,immed,10848.000049591064,Tue Aug 12 2025 15:12:08 GMT-0500 (Central Daylight Time),754013.899999857,A,enter,O,enter,444,1,450.7000000476837,753563.1999998093,7194,WL,B,15.0
