Q,Q1,Q2,Q3,Q4,acc_sum,block,block_c,correct,correct_response,datetime,endtime,project,response,response_time,row_sel,session_number,squiggle1,squiggle1x,squiggle1y,squiggle2,squiggle2x,squiggle2y,squiggle3,squiggle3x,squiggle3y,squiggle4,squiggle4x,squiggle4y,start_end,starttime,subject_id,target_congruent,task,task_vers,testsquiggle,testsquigglex,testsquiggley,time_practice_delay,time_practice_fixation,time_practice_stimuli,time_practice_study,time_test_delay,time_test_fixation,time_test_stimuli,time_test_study,trial
1,1,0,0,0,1,prac,1,1,z,Tue Dec 09 2025 14:33:08 GMT-0600 (Central Standard Time),125567.0,O,z,1718,1,1,116.bmp,-120,-120,117.bmp,120,-120,118.bmp,-120,120,119.bmp,120,120,10544.299999952316,115022.70000004768,7243,yes,SM,A,116.bmp,-120,-120,118777,112748,120793,114761,,,,,1
3,0,0,1,0,2,prac,1,1,m,Tue Dec 09 2025 14:33:08 GMT-0600 (Central Standard Time),136362.90000003576,O,m,1982,2,1,120.bmp,-120,-120,121.bmp,120,-120,122.bmp,-120,120,123.bmp,120,120,10788.5,125574.40000003576,7243,no,SM,A,123.bmp,-120,120,129324,123300,131338,125309,,,,,2
4,0,0,0,1,3,prac,1,1,m,Tue Dec 09 2025 14:33:08 GMT-0600 (Central Standard Time),146594.30000001192,O,m,1406,3,1,124.bmp,-120,-120,125.bmp,120,-120,126.bmp,-120,120,127.bmp,120,120,10228.099999964237,136366.20000004768,7243,no,SM,A,124.bmp,120,120,140121,134091,142138,136106,,,,,3
2,0,1,0,0,4,prac,1,1,z,Tue Dec 09 2025 14:33:08 GMT-0600 (Central Standard Time),157272.0,O,z,1848,4,1,128.bmp,-120,-120,129.bmp,120,-120,130.bmp,-120,120,131.bmp,120,120,10671.199999988079,146600.80000001192,7243,yes,SM,A,129.bmp,120,-120,150350,144326,152367,146335,,,,,4
3,0,0,1,0,5,prac,1,1,z,Tue Dec 09 2025 14:33:08 GMT-0600 (Central Standard Time),167653.70000004768,O,z,1560,5,1,132.bmp,-120,-120,133.bmp,120,-120,134.bmp,-120,120,135.bmp,120,120,10379.300000011921,157274.40000003576,7243,yes,SM,A,134.bmp,-120,120,161029,155000,163047,157015,,,,,5
1,1,0,0,0,5,prac,1,0,m,Tue Dec 09 2025 14:33:08 GMT-0600 (Central Standard Time),178482.80000001192,O,None,2015,6,1,136.bmp,-120,-120,137.bmp,120,-120,138.bmp,-120,120,139.bmp,120,120,10826.599999964237,167656.20000004768,7243,no,SM,A,139.bmp,-120,-120,171410,165381,173427,167395,,,,,6
2,0,1,0,0,5,prac,1,0,m,Tue Dec 09 2025 14:33:08 GMT-0600 (Central Standard Time),189112.80000001192,O,z,1798,7,1,140.bmp,-120,-120,141.bmp,120,-120,142.bmp,-120,120,143.bmp,120,120,10625.0,178487.80000001192,7243,no,SM,A,140.bmp,120,-120,182240,176213,184257,178227,,,,,7
4,0,0,0,1,6,prac,1,1,z,Tue Dec 09 2025 14:33:08 GMT-0600 (Central Standard Time),199128.70000004768,O,z,1184,8,1,144.bmp,-120,-120,145.bmp,120,-120,146.bmp,-120,120,147.bmp,120,120,10007.200000047684,189121.5,7243,yes,SM,A,147.bmp,120,120,192870,186847,194887,188855,,,,,8
4,0,0,0,1,1,test,1,1,m,Tue Dec 09 2025 14:33:08 GMT-0600 (Central Standard Time),237165.5,O,m,1477,1,1,148.bmp,-120,-120,149.bmp,120,-120,150.bmp,-120,120,143.bmp,120,120,9527.099999964237,227638.40000003576,7243,no,SM,A,150.bmp,120,120,192870,186847,194887,188855,231391.0,225364.0,233411.0,227376.0,1
2,0,1,0,0,1,test,1,0,m,Tue Dec 09 2025 14:33:08 GMT-0600 (Central Standard Time),247010.60000002384,O,z,1782,2,1,101.bmp,-120,-120,102.bmp,120,-120,103.bmp,-120,120,104.bmp,120,120,9840.300000011921,237170.30000001192,7243,no,SM,A,103.bmp,120,-120,192870,186847,194887,188855,240926.0,234895.0,242938.0,236905.0,2
1,1,0,0,0,1,test,1,0,z,Tue Dec 09 2025 14:33:08 GMT-0600 (Central Standard Time),256441.80000001192,O,m,1367,3,1,105.bmp,-120,-120,106.bmp,120,-120,107.bmp,-120,120,108.bmp,120,120,9426.800000011921,247015.0,7243,yes,SM,A,105.bmp,-120,-120,192870,186847,194887,188855,250769.0,244740.0,252784.0,246753.0,3
3,0,0,1,0,1,test,1,0,m,Tue Dec 09 2025 14:33:08 GMT-0600 (Central Standard Time),266139.7000000477,O,z,1640,4,1,109.bmp,-120,-120,110.bmp,120,-120,111.bmp,-120,120,112.bmp,120,120,9694.600000023842,256445.10000002384,7243,no,SM,A,109.bmp,-120,120,192870,186847,194887,188855,260199.0,254170.0,262215.0,256185.0,4
2,0,1,0,0,2,test,1,1,z,Tue Dec 09 2025 14:33:08 GMT-0600 (Central Standard Time),275518.3000000119,O,z,1318,5,1,113.bmp,-120,-120,114.bmp,120,-120,115.bmp,-120,120,116.bmp,120,120,9376.300000011921,266142.0,7243,yes,SM,A,114.bmp,120,-120,192870,186847,194887,188855,269898.0,263867.0,271913.0,265881.0,5
3,0,0,1,0,2,test,1,0,z,Tue Dec 09 2025 14:33:08 GMT-0600 (Central Standard Time),285582.40000003576,O,None,2015,6,1,117.bmp,-120,-120,118.bmp,120,-120,119.bmp,-120,120,120.bmp,120,120,10060.900000035763,275521.5,7243,yes,SM,A,119.bmp,-120,120,192870,186847,194887,188855,279278.0,273247.0,281292.0,275261.0,6
4,0,0,0,1,3,test,1,1,z,Tue Dec 09 2025 14:33:08 GMT-0600 (Central Standard Time),295479.3000000119,O,z,1844,7,1,121.bmp,-120,-120,122.bmp,120,-120,123.bmp,-120,120,124.bmp,120,120,9894.199999988079,285585.10000002384,7243,yes,SM,A,124.bmp,120,120,192870,186847,194887,188855,289339.0,283310.0,291355.0,285325.0,7
2,0,1,0,0,3,test,1,0,m,Tue Dec 09 2025 14:33:08 GMT-0600 (Central Standard Time),305543.3000000119,O,None,2015,8,1,125.bmp,-120,-120,126.bmp,120,-120,127.bmp,-120,120,128.bmp,120,120,10060.800000011921,295482.5,7243,no,SM,A,125.bmp,120,-120,192870,186847,194887,188855,299236.0,293208.0,301253.0,295221.0,8
3,0,0,1,0,3,test,1,0,m,Tue Dec 09 2025 14:33:08 GMT-0600 (Central Standard Time),314890.5,O,z,1299,9,1,129.bmp,-120,-120,130.bmp,120,-120,131.bmp,-120,120,132.bmp,120,120,9342.799999952316,305547.7000000477,7243,no,SM,A,130.bmp,-120,120,192870,186847,194887,188855,309300.0,303273.0,311316.0,305285.0,9
4,0,0,0,1,3,test,1,0,z,Tue Dec 09 2025 14:33:08 GMT-0600 (Central Standard Time),324753.3000000119,O,m,1809,10,1,137.bmp,-120,-120,138.bmp,120,-120,139.bmp,-120,120,140.bmp,120,120,9859.300000011921,314894.0,7243,yes,SM,A,140.bmp,120,120,192870,186847,194887,188855,318647.0,312619.0,320663.0,314631.0,10
3,0,0,1,0,4,test,1,1,z,Tue Dec 09 2025 14:33:08 GMT-0600 (Central Standard Time),333966.90000003576,O,z,1161,11,1,133.bmp,-120,-120,134.bmp,120,-120,135.bmp,-120,120,136.bmp,120,120,9204.5,324762.40000003576,7243,yes,SM,A,135.bmp,-120,120,192870,186847,194887,188855,328510.0,322488.0,330526.0,324495.0,11
2,0,1,0,0,5,test,1,1,m,Tue Dec 09 2025 14:33:08 GMT-0600 (Central Standard Time),343063.8000000119,O,m,1044,12,1,141.bmp,-120,-120,142.bmp,120,-120,143.bmp,-120,120,144.bmp,120,120,9092.399999976158,333971.40000003576,7243,no,SM,A,141.bmp,120,-120,192870,186847,194887,188855,337724.0,331697.0,339740.0,333709.0,12
3,0,0,1,0,6,test,1,1,m,Tue Dec 09 2025 14:33:08 GMT-0600 (Central Standard Time),352244.2000000477,O,m,1118,13,1,145.bmp,-120,-120,146.bmp,120,-120,147.bmp,-120,120,148.bmp,120,120,9175.100000023842,343069.10000002384,7243,no,SM,A,146.bmp,-120,120,192870,186847,194887,188855,346822.0,340794.0,348836.0,342806.0,13
1,1,0,0,0,7,test,1,1,z,Tue Dec 09 2025 14:33:08 GMT-0600 (Central Standard Time),361241.60000002384,O,z,942,14,1,149.bmp,-120,-120,150.bmp,120,-120,104.bmp,-120,120,101.bmp,120,120,8993.100000023842,352248.5,7243,yes,SM,A,149.bmp,-120,-120,192870,186847,194887,188855,356002.0,349974.0,358018.0,351987.0,14
4,0,0,0,1,8,test,1,1,m,Tue Dec 09 2025 14:33:08 GMT-0600 (Central Standard Time),370621.5,O,m,1323,15,1,110.bmp,-120,-120,111.bmp,120,-120,112.bmp,-120,120,113.bmp,120,120,9372.199999988079,361249.3000000119,7243,no,SM,A,111.bmp,120,120,192870,186847,194887,188855,364999.0,358974.0,367013.0,360984.0,15
1,1,0,0,0,9,test,1,1,m,Tue Dec 09 2025 14:33:08 GMT-0600 (Central Standard Time),380302.3000000119,O,m,1621,16,1,102.bmp,-120,-120,103.bmp,120,-120,104.bmp,-120,120,105.bmp,120,120,9677.5,370624.8000000119,7243,no,SM,A,105.bmp,-120,-120,192870,186847,194887,188855,374378.0,368350.0,376395.0,370363.0,16
3,0,0,1,0,10,test,1,1,m,Tue Dec 09 2025 14:33:08 GMT-0600 (Central Standard Time),390117.10000002384,O,m,1766,17,1,122.bmp,-120,-120,123.bmp,120,-120,124.bmp,-120,120,125.bmp,120,120,9811.100000023842,380306.0,7243,no,SM,A,122.bmp,-120,120,192870,186847,194887,188855,384059.0,378031.0,386076.0,380044.0,17
1,1,0,0,0,11,test,1,1,z,Tue Dec 09 2025 14:33:08 GMT-0600 (Central Standard Time),399578.7000000477,O,z,1405,18,1,106.bmp,-120,-120,107.bmp,120,-120,108.bmp,-120,120,109.bmp,120,120,9458.200000047684,390120.5,7243,yes,SM,A,106.bmp,-120,-120,192870,186847,194887,188855,393873.0,387846.0,395890.0,389856.0,18
2,0,1,0,0,11,test,1,0,z,Tue Dec 09 2025 14:33:08 GMT-0600 (Central Standard Time),409061.0,O,m,1422,19,1,126.bmp,-120,-120,127.bmp,120,-120,128.bmp,-120,120,129.bmp,120,120,9479.099999964237,399581.90000003576,7243,yes,SM,A,127.bmp,120,-120,192870,186847,194887,188855,403339.0,397307.0,405354.0,399321.0,19
3,0,0,1,0,12,test,1,1,z,Tue Dec 09 2025 14:33:08 GMT-0600 (Central Standard Time),418475.0,O,z,1349,20,1,130.bmp,-120,-120,131.bmp,120,-120,132.bmp,-120,120,133.bmp,120,120,9411.099999964237,409063.90000003576,7243,yes,SM,A,132.bmp,-120,120,192870,186847,194887,188855,412817.0,406789.0,414834.0,408803.0,20
1,1,0,0,0,12,test,1,0,m,Tue Dec 09 2025 14:33:08 GMT-0600 (Central Standard Time),428370.10000002384,O,z,1847,21,1,114.bmp,-120,-120,115.bmp,120,-120,116.bmp,-120,120,117.bmp,120,120,9891.199999988079,418478.90000003576,7243,no,SM,A,116.bmp,-120,-120,192870,186847,194887,188855,422231.0,416204.0,424248.0,418215.0,21
4,0,0,0,1,12,test,1,0,z,Tue Dec 09 2025 14:33:08 GMT-0600 (Central Standard Time),438435.5,O,None,2017,22,1,118.bmp,-120,-120,119.bmp,120,-120,120.bmp,-120,120,121.bmp,120,120,10063.599999964237,428371.90000003576,7243,yes,SM,A,121.bmp,120,120,192870,186847,194887,188855,432128.0,426097.0,434143.0,428113.0,22
1,1,0,0,0,13,test,1,1,m,Tue Dec 09 2025 14:33:08 GMT-0600 (Central Standard Time),448114.0,O,m,1617,23,1,134.bmp,-120,-120,135.bmp,120,-120,136.bmp,-120,120,137.bmp,120,120,9674.899999976158,438439.10000002384,7243,no,SM,A,137.bmp,-120,-120,192870,186847,194887,188855,442191.0,436164.0,444207.0,438175.0,23
2,0,1,0,0,13,test,1,0,z,Tue Dec 09 2025 14:33:08 GMT-0600 (Central Standard Time),458178.60000002384,O,None,2016,24,1,142.bmp,-120,-120,143.bmp,120,-120,144.bmp,-120,120,145.bmp,120,120,10059.699999988079,448118.90000003576,7243,yes,SM,A,143.bmp,120,-120,192870,186847,194887,188855,451870.0,445844.0,453887.0,447855.0,24
4,0,0,0,1,14,test,1,1,m,Tue Dec 09 2025 14:33:08 GMT-0600 (Central Standard Time),467324.5,O,m,1097,25,1,146.bmp,-120,-120,147.bmp,120,-120,148.bmp,-120,120,149.bmp,120,120,9141.299999952316,458183.2000000477,7243,no,SM,A,148.bmp,120,120,192870,186847,194887,188855,461935.0,455909.0,463950.0,457919.0,25
1,1,0,0,0,15,test,1,1,z,Tue Dec 09 2025 14:33:08 GMT-0600 (Central Standard Time),476205.2000000477,O,z,821,26,1,138.bmp,-120,-120,139.bmp,120,-120,140.bmp,-120,120,141.bmp,120,120,8876.5,467328.7000000477,7243,yes,SM,A,138.bmp,-120,-120,192870,186847,194887,188855,471081.0,465054.0,473098.0,467067.0,26
4,0,0,0,1,16,test,1,1,z,Tue Dec 09 2025 14:33:08 GMT-0600 (Central Standard Time),485468.8000000119,O,z,1213,27,1,150.bmp,-120,-120,111.bmp,120,-120,101.bmp,-120,120,102.bmp,120,120,9254.300000011921,476214.5,7243,yes,SM,A,102.bmp,120,120,192870,186847,194887,188855,479962.0,473940.0,481979.0,475948.0,27
3,0,0,1,0,16,test,1,0,m,Tue Dec 09 2025 14:33:08 GMT-0600 (Central Standard Time),495532.60000002384,O,None,2016,28,1,103.bmp,-120,-120,104.bmp,120,-120,105.bmp,-120,120,106.bmp,120,120,10058.899999976158,485473.7000000477,7243,no,SM,A,103.bmp,-120,120,192870,186847,194887,188855,489225.0,483199.0,491242.0,485210.0,28
2,0,1,0,0,17,test,1,1,z,Tue Dec 09 2025 14:33:08 GMT-0600 (Central Standard Time),504646.0,O,z,1053,29,1,107.bmp,-120,-120,108.bmp,120,-120,109.bmp,-120,120,110.bmp,120,120,9107.699999988079,495538.3000000119,7243,yes,SM,A,108.bmp,120,-120,192870,186847,194887,188855,499289.0,493264.0,501306.0,495275.0,29
3,0,0,1,0,18,test,1,1,z,Tue Dec 09 2025 14:33:08 GMT-0600 (Central Standard Time),514010.10000002384,O,z,1309,30,1,111.bmp,-120,-120,112.bmp,120,-120,113.bmp,-120,120,114.bmp,120,120,9359.899999976158,504650.2000000477,7243,yes,SM,A,113.bmp,-120,120,192870,186847,194887,188855,508411.0,502376.0,510419.0,504390.0,30
1,1,0,0,0,18,test,1,0,z,Tue Dec 09 2025 14:33:08 GMT-0600 (Central Standard Time),523892.10000002384,O,m,1833,31,1,115.bmp,-120,-120,116.bmp,120,-120,117.bmp,-120,120,118.bmp,120,120,9875.0,514017.10000002384,7243,yes,SM,A,115.bmp,-120,-120,192870,186847,194887,188855,517767.0,511743.0,519784.0,513752.0,31
2,0,1,0,0,19,test,1,1,m,Tue Dec 09 2025 14:33:08 GMT-0600 (Central Standard Time),533486.6000000238,O,m,1546,32,1,119.bmp,-120,-120,120.bmp,120,-120,121.bmp,-120,120,122.bmp,120,120,9590.399999976158,523896.2000000477,7243,no,SM,A,119.bmp,120,-120,192870,186847,194887,188855,527647.0,521621.0,529662.0,523631.0,32
4,0,0,0,1,20,test,1,1,z,Tue Dec 09 2025 14:33:08 GMT-0600 (Central Standard Time),542918.4000000358,O,z,1372,33,1,131.bmp,-120,-120,132.bmp,120,-120,133.bmp,-120,120,134.bmp,120,120,9428.699999988079,533489.7000000477,7243,yes,SM,A,134.bmp,120,120,192870,186847,194887,188855,537244.0,531215.0,539260.0,533228.0,33
2,0,1,0,0,21,test,1,1,z,Tue Dec 09 2025 14:33:08 GMT-0600 (Central Standard Time),551947.7000000477,O,z,980,34,1,123.bmp,-120,-120,124.bmp,120,-120,125.bmp,-120,120,126.bmp,120,120,9024.700000047684,542923.0,7243,yes,SM,A,124.bmp,120,-120,192870,186847,194887,188855,546674.0,540648.0,548692.0,542659.0,34
4,0,0,0,1,21,test,1,0,m,Tue Dec 09 2025 14:33:08 GMT-0600 (Central Standard Time),561311.1000000238,O,z,1317,35,1,127.bmp,-120,-120,128.bmp,120,-120,129.bmp,-120,120,130.bmp,120,120,9354.699999988079,551956.4000000358,7243,no,SM,A,129.bmp,120,120,192870,186847,194887,188855,555694.0,549682.0,557706.0,551689.0,35
3,0,0,1,0,22,test,1,1,m,Tue Dec 09 2025 14:33:08 GMT-0600 (Central Standard Time),571309.1000000238,O,m,1949,36,1,135.bmp,-120,-120,136.bmp,120,-120,137.bmp,-120,120,138.bmp,120,120,9993.0,561316.1000000238,7243,no,SM,A,135.bmp,-120,120,192870,186847,194887,188855,565068.0,559041.0,567085.0,561053.0,36
1,1,0,0,0,23,test,1,1,m,Tue Dec 09 2025 14:33:08 GMT-0600 (Central Standard Time),580457.9000000358,O,m,1086,37,1,139.bmp,-120,-120,140.bmp,120,-120,141.bmp,-120,120,142.bmp,120,120,9144.600000023842,571313.3000000119,7243,no,SM,A,140.bmp,-120,-120,192870,186847,194887,188855,575067.0,569039.0,577081.0,571049.0,37
2,0,1,0,0,23,test,1,0,m,Tue Dec 09 2025 14:33:08 GMT-0600 (Central Standard Time),590518.8000000119,O,None,2016,38,1,143.bmp,-120,-120,144.bmp,120,-120,145.bmp,-120,120,146.bmp,120,120,10057.399999976158,580461.4000000358,7243,no,SM,A,145.bmp,120,-120,192870,186847,194887,188855,584215.0,578187.0,586228.0,580197.0,38
4,0,0,0,1,24,test,1,1,z,Tue Dec 09 2025 14:33:08 GMT-0600 (Central Standard Time),599566.3000000119,O,z,996,39,1,147.bmp,-120,-120,148.bmp,120,-120,149.bmp,-120,120,150.bmp,120,120,9041.599999964237,590524.7000000477,7243,yes,SM,A,150.bmp,120,120,192870,186847,194887,188855,594276.0,588250.0,596292.0,590262.0,39
3,0,0,1,0,25,test,1,1,m,Tue Dec 09 2025 14:33:08 GMT-0600 (Central Standard Time),608763.5,O,m,1140,40,1,104.bmp,-120,-120,105.bmp,120,-120,106.bmp,-120,120,107.bmp,120,120,9193.599999964237,599569.9000000358,7243,no,SM,A,105.bmp,-120,120,192870,186847,194887,188855,603323.0,597295.0,605339.0,599307.0,40
1,1,0,0,0,26,test,1,1,z,Tue Dec 09 2025 14:33:08 GMT-0600 (Central Standard Time),617778.6000000238,O,z,950,41,1,108.bmp,-120,-120,109.bmp,120,-120,110.bmp,-120,120,111.bmp,120,120,9011.199999988079,608767.4000000358,7243,yes,SM,A,108.bmp,-120,-120,192870,186847,194887,188855,612520.0,606493.0,614537.0,608505.0,41
4,0,0,0,1,26,test,1,0,z,Tue Dec 09 2025 14:33:08 GMT-0600 (Central Standard Time),627190.5,O,m,1352,42,1,112.bmp,-120,-120,113.bmp,120,-120,114.bmp,-120,120,115.bmp,120,120,9408.199999988079,617782.3000000119,7243,yes,SM,A,115.bmp,120,120,192870,186847,194887,188855,621534.0,615508.0,623551.0,617522.0,42
1,1,0,0,0,26,test,1,0,z,Tue Dec 09 2025 14:33:08 GMT-0600 (Central Standard Time),637237.4000000358,O,None,2013,43,1,116.bmp,-120,-120,117.bmp,120,-120,118.bmp,-120,120,119.bmp,120,120,10044.199999988079,627193.2000000477,7243,yes,SM,A,116.bmp,-120,-120,192870,186847,194887,188855,630932.0,624918.0,632948.0,626931.0,43
4,0,0,0,1,27,test,1,1,m,Tue Dec 09 2025 14:33:08 GMT-0600 (Central Standard Time),647117.9000000358,O,m,1822,44,1,104.bmp,-120,-120,101.bmp,120,-120,102.bmp,-120,120,103.bmp,120,120,9876.800000011921,637241.1000000238,7243,no,SM,A,104.bmp,120,120,192870,186847,194887,188855,640993.0,634966.0,643010.0,636979.0,44
1,1,0,0,0,28,test,1,1,m,Tue Dec 09 2025 14:33:08 GMT-0600 (Central Standard Time),656881.1000000238,O,m,1709,45,1,128.bmp,-120,-120,129.bmp,120,-120,130.bmp,-120,120,131.bmp,120,120,9761.0,647120.1000000238,7243,no,SM,A,131.bmp,-120,-120,192870,186847,194887,188855,650875.0,644845.0,652891.0,646859.0,45
1,1,0,0,0,29,test,1,1,m,Tue Dec 09 2025 14:33:08 GMT-0600 (Central Standard Time),666044.7000000477,O,m,1129,46,1,120.bmp,-120,-120,121.bmp,120,-120,122.bmp,-120,120,123.bmp,120,120,9161.200000047684,656883.5,7243,no,SM,A,121.bmp,-120,-120,192870,186847,194887,188855,660637.0,654609.0,662638.0,656622.0,46
3,0,0,1,0,30,test,1,1,z,Tue Dec 09 2025 14:33:08 GMT-0600 (Central Standard Time),675090.9000000358,O,z,999,47,1,124.bmp,-120,-120,125.bmp,120,-120,126.bmp,-120,120,127.bmp,120,120,9043.5,666047.4000000358,7243,yes,SM,A,126.bmp,-120,120,192870,186847,194887,188855,669802.0,663773.0,671817.0,665787.0,47
3,0,0,1,0,31,test,1,1,z,Tue Dec 09 2025 14:33:08 GMT-0600 (Central Standard Time),684471.5,O,z,1317,48,1,140.bmp,-120,-120,141.bmp,120,-120,142.bmp,-120,120,143.bmp,120,120,9378.299999952316,675093.2000000477,7243,yes,SM,A,142.bmp,-120,120,192870,186847,194887,188855,678848.0,672818.0,680866.0,674833.0,48
2,0,1,0,0,32,test,1,1,z,Tue Dec 09 2025 14:33:08 GMT-0600 (Central Standard Time),694004.2000000477,O,z,1482,49,1,136.bmp,-120,-120,137.bmp,120,-120,138.bmp,-120,120,139.bmp,120,120,9528.5,684475.7000000477,7243,yes,SM,A,137.bmp,120,-120,192870,186847,194887,188855,688229.0,682201.0,690246.0,684214.0,49
3,0,0,1,0,33,test,1,1,m,Tue Dec 09 2025 14:33:08 GMT-0600 (Central Standard Time),703581.5,O,m,1528,50,1,132.bmp,-120,-120,133.bmp,120,-120,134.bmp,-120,120,135.bmp,120,120,9571.699999988079,694009.8000000119,7243,no,SM,A,132.bmp,-120,120,192870,186847,194887,188855,697759.0,691735.0,699775.0,693744.0,50
2,0,1,0,0,34,test,1,1,z,Tue Dec 09 2025 14:33:08 GMT-0600 (Central Standard Time),713013.4000000358,O,z,1372,51,1,144.bmp,-120,-120,145.bmp,120,-120,146.bmp,-120,120,147.bmp,120,120,9429.800000011921,703583.6000000238,7243,yes,SM,A,145.bmp,120,-120,192870,186847,194887,188855,707339.0,701309.0,709356.0,703324.0,51
4,0,0,0,1,35,test,1,1,m,Tue Dec 09 2025 14:33:08 GMT-0600 (Central Standard Time),722210.6000000238,O,m,1149,52,1,148.bmp,-120,-120,149.bmp,120,-120,150.bmp,-120,120,131.bmp,120,120,9191.699999988079,713018.9000000358,7243,no,SM,A,148.bmp,120,120,192870,186847,194887,188855,716769.0,710744.0,718786.0,712755.0,52
3,0,0,1,0,36,test,1,1,z,Tue Dec 09 2025 14:33:08 GMT-0600 (Central Standard Time),731624.1000000238,O,z,1359,53,1,101.bmp,-120,-120,102.bmp,120,-120,103.bmp,-120,120,104.bmp,120,120,9409.800000011921,722214.3000000119,7243,yes,SM,A,103.bmp,-120,120,192870,186847,194887,188855,725968.0,719939.0,727985.0,721952.0,53
1,1,0,0,0,37,test,1,1,m,Tue Dec 09 2025 14:33:08 GMT-0600 (Central Standard Time),741588.7000000477,O,m,1917,54,1,105.bmp,-120,-120,106.bmp,120,-120,107.bmp,-120,120,108.bmp,120,120,9962.300000011921,731626.4000000358,7243,no,SM,A,107.bmp,-120,-120,192870,186847,194887,188855,735380.0,729352.0,737397.0,731366.0,54
4,0,0,0,1,37,test,1,0,z,Tue Dec 09 2025 14:33:08 GMT-0600 (Central Standard Time),751652.2000000477,O,None,2016,55,1,109.bmp,-120,-120,110.bmp,120,-120,111.bmp,-120,120,112.bmp,120,120,10059.900000035763,741592.3000000119,7243,yes,SM,A,112.bmp,120,120,192870,186847,194887,188855,745346.0,739317.0,747361.0,741331.0,55
2,0,1,0,0,38,test,1,1,m,Tue Dec 09 2025 14:33:08 GMT-0600 (Central Standard Time),761331.4000000358,O,m,1632,56,1,113.bmp,-120,-120,114.bmp,120,-120,115.bmp,-120,120,116.bmp,120,120,9675.800000011921,751655.6000000238,7243,no,SM,A,113.bmp,120,-120,192870,186847,194887,188855,755408.0,749381.0,757424.0,751393.0,56
4,0,0,0,1,39,test,1,1,m,Tue Dec 09 2025 14:33:08 GMT-0600 (Central Standard Time),771110.4000000358,O,m,1744,57,1,117.bmp,-120,-120,118.bmp,120,-120,119.bmp,-120,120,120.bmp,120,120,9776.400000035763,761334.0,7243,no,SM,A,118.bmp,120,120,192870,186847,194887,188855,765076.0,759059.0,767087.0,761072.0,57
3,0,0,1,0,40,test,1,1,z,Tue Dec 09 2025 14:33:08 GMT-0600 (Central Standard Time),780324.5,O,z,1163,58,1,121.bmp,-120,-120,122.bmp,120,-120,123.bmp,-120,120,124.bmp,120,120,9210.599999964237,771113.9000000358,7243,yes,SM,A,123.bmp,-120,120,192870,186847,194887,188855,774870.0,768839.0,776885.0,770853.0,58
2,0,1,0,0,40,test,1,0,m,Tue Dec 09 2025 14:33:08 GMT-0600 (Central Standard Time),790389.1000000238,O,None,2015,59,1,125.bmp,-120,-120,126.bmp,120,-120,127.bmp,-120,120,128.bmp,120,120,10061.5,780327.6000000238,7243,no,SM,A,128.bmp,120,-120,192870,186847,194887,188855,784082.0,778053.0,786099.0,780067.0,59
1,1,0,0,0,41,test,1,1,z,Tue Dec 09 2025 14:33:08 GMT-0600 (Central Standard Time),799785.4000000358,O,z,1348,60,1,129.bmp,-120,-120,130.bmp,120,-120,131.bmp,-120,120,132.bmp,120,120,9394.0,790391.4000000358,7243,yes,SM,A,129.bmp,-120,-120,192870,186847,194887,188855,794145.0,788117.0,796147.0,790130.0,60
2,0,1,0,0,42,test,1,1,z,Tue Dec 09 2025 14:33:08 GMT-0600 (Central Standard Time),808682.4000000358,O,z,834,61,1,133.bmp,-120,-120,134.bmp,120,-120,135.bmp,-120,120,136.bmp,120,120,8895.0,799787.4000000358,7243,yes,SM,A,134.bmp,120,-120,192870,186847,194887,188855,803542.0,797513.0,805558.0,799527.0,61
4,0,0,0,1,43,test,1,1,z,Tue Dec 09 2025 14:33:08 GMT-0600 (Central Standard Time),818147.0,O,z,1417,62,1,141.bmp,-120,-120,142.bmp,120,-120,143.bmp,-120,120,144.bmp,120,120,9459.099999964237,808687.9000000358,7243,yes,SM,A,144.bmp,120,120,192870,186847,194887,188855,812440.0,806413.0,814455.0,808424.0,62
1,1,0,0,0,44,test,1,1,m,Tue Dec 09 2025 14:33:08 GMT-0600 (Central Standard Time),828027.0,O,m,1815,63,1,145.bmp,-120,-120,146.bmp,120,-120,147.bmp,-120,120,148.bmp,120,120,9875.199999988079,818151.8000000119,7243,no,SM,A,145.bmp,-120,120,192870,186847,194887,188855,821904.0,815877.0,823920.0,817888.0,63
2,0,1,0,0,45,test,1,1,z,Tue Dec 09 2025 14:33:08 GMT-0600 (Central Standard Time),836858.2000000477,O,z,783,64,1,149.bmp,-120,-120,150.bmp,120,-120,112.bmp,-120,120,101.bmp,120,120,8827.5,828030.7000000477,7243,yes,SM,A,150.bmp,120,-120,192870,186847,194887,188855,831785.0,825756.0,833800.0,827768.0,64
4,0,0,0,1,45,test,1,0,m,Tue Dec 09 2025 14:33:08 GMT-0600 (Central Standard Time),846921.7000000477,O,None,2016,65,1,102.bmp,-120,-120,103.bmp,120,-120,104.bmp,-120,120,105.bmp,120,120,10059.300000011921,836862.4000000358,7243,no,SM,A,104.bmp,120,120,192870,186847,194887,188855,840615.0,834588.0,842631.0,836599.0,65
3,0,0,1,0,46,test,1,1,m,Tue Dec 09 2025 14:33:08 GMT-0600 (Central Standard Time),856167.8000000119,O,m,1186,66,1,106.bmp,-120,-120,107.bmp,120,-120,108.bmp,-120,120,109.bmp,120,120,9242.800000011921,846925.0,7243,no,SM,A,109.bmp,-120,120,192870,186847,194887,188855,850677.0,844650.0,852693.0,846664.0,66
2,0,1,0,0,46,test,1,0,m,Tue Dec 09 2025 14:33:08 GMT-0600 (Central Standard Time),865031.0,O,z,796,67,1,137.bmp,-120,-120,138.bmp,120,-120,139.bmp,-120,120,140.bmp,120,120,8861.299999952316,856169.7000000477,7243,no,SM,A,139.bmp,120,-120,192870,186847,194887,188855,859923.0,853895.0,861947.0,855909.0,67
3,0,0,1,0,47,test,1,1,z,Tue Dec 09 2025 14:33:08 GMT-0600 (Central Standard Time),873945.0,O,z,850,68,1,110.bmp,-120,-120,111.bmp,120,-120,112.bmp,-120,120,113.bmp,120,120,8912.199999988079,865032.8000000119,7243,yes,SM,A,112.bmp,-120,120,192870,186847,194887,188855,868788.0,862758.0,870804.0,864772.0,68
1,1,0,0,0,48,test,1,1,m,Tue Dec 09 2025 14:33:08 GMT-0600 (Central Standard Time),882817.0,O,m,824,69,1,114.bmp,-120,-120,115.bmp,120,-120,116.bmp,-120,120,117.bmp,120,120,8870.299999952316,873946.7000000477,7243,no,SM,A,115.bmp,-120,-120,192870,186847,194887,188855,877701.0,871672.0,879703.0,873687.0,69
2,0,1,0,0,49,test,1,1,m,Tue Dec 09 2025 14:33:08 GMT-0600 (Central Standard Time),891838.6000000238,O,m,984,70,1,118.bmp,-120,-120,119.bmp,120,-120,120.bmp,-120,120,121.bmp,120,120,9018.800000011921,882819.8000000119,7243,no,SM,A,120.bmp,120,-120,192870,186847,194887,188855,886565.0,880545.0,888566.0,882553.0,70
4,0,0,0,1,50,test,1,1,z,Tue Dec 09 2025 14:33:08 GMT-0600 (Central Standard Time),901201.9000000358,O,z,1315,71,1,122.bmp,-120,-120,123.bmp,120,-120,124.bmp,-120,120,125.bmp,120,120,9360.400000035763,891841.5,7243,yes,SM,A,125.bmp,120,120,192870,186847,194887,188855,895596.0,889567.0,897612.0,891584.0,71
1,1,0,0,0,51,test,1,1,z,Tue Dec 09 2025 14:33:08 GMT-0600 (Central Standard Time),911188.0,O,z,1930,72,1,126.bmp,-120,-120,127.bmp,120,-120,128.bmp,-120,120,129.bmp,120,120,9983.799999952316,901204.2000000477,7243,yes,SM,A,126.bmp,-120,-120,192870,186847,194887,188855,904959.0,898929.0,906975.0,900944.0,72
2,0,1,0,0,52,test,1,1,z,Tue Dec 09 2025 14:33:08 GMT-0600 (Central Standard Time),920995.8000000119,O,z,1755,73,1,130.bmp,-120,-120,131.bmp,120,-120,132.bmp,-120,120,133.bmp,120,120,9805.5,911190.3000000119,7243,yes,SM,A,131.bmp,120,-120,192870,186847,194887,188855,914940.0,908916.0,916956.0,910924.0,73
4,0,0,0,1,53,test,1,1,m,Tue Dec 09 2025 14:33:08 GMT-0600 (Central Standard Time),930393.0,O,m,1341,74,1,134.bmp,-120,-120,135.bmp,120,-120,136.bmp,-120,120,137.bmp,120,120,9395.5,920997.5,7243,no,SM,A,136.bmp,120,120,192870,186847,194887,188855,924753.0,918723.0,926770.0,920738.0,74
2,0,1,0,0,54,test,1,1,m,Tue Dec 09 2025 14:33:08 GMT-0600 (Central Standard Time),940290.2000000477,O,m,1855,75,1,138.bmp,-120,-120,139.bmp,120,-120,140.bmp,-120,120,141.bmp,120,120,9893.800000011921,930396.4000000358,7243,no,SM,A,141.bmp,120,-120,192870,186847,194887,188855,934150.0,928122.0,936152.0,930136.0,75
1,1,0,0,0,55,test,1,1,z,Tue Dec 09 2025 14:33:08 GMT-0600 (Central Standard Time),949188.2000000477,O,z,839,76,1,142.bmp,-120,-120,143.bmp,120,-120,144.bmp,-120,120,145.bmp,120,120,8894.0,940294.2000000477,7243,yes,SM,A,142.bmp,-120,-120,192870,186847,194887,188855,944048.0,938020.0,946064.0,940034.0,76
3,0,0,1,0,55,test,1,0,z,Tue Dec 09 2025 14:33:08 GMT-0600 (Central Standard Time),959235.5,O,None,2015,77,1,150.bmp,-120,-120,111.bmp,120,-120,101.bmp,-120,120,102.bmp,120,120,10044.5,949191.0,7243,yes,SM,A,101.bmp,-120,120,192870,186847,194887,188855,952930.0,946916.0,954945.0,948929.0,77
1,1,0,0,0,55,test,1,0,m,Tue Dec 09 2025 14:33:08 GMT-0600 (Central Standard Time),969298.8000000119,O,None,2017,78,1,146.bmp,-120,-120,147.bmp,120,-120,148.bmp,-120,120,149.bmp,120,120,10059.399999976158,959239.4000000358,7243,no,SM,A,147.bmp,-120,-120,192870,186847,194887,188855,962992.0,956965.0,965007.0,958976.0,78
4,0,0,0,1,56,test,1,1,m,Tue Dec 09 2025 14:33:08 GMT-0600 (Central Standard Time),978863.3000000119,O,m,1503,79,1,107.bmp,-120,-120,108.bmp,120,-120,109.bmp,-120,120,110.bmp,120,120,9560.399999976158,969302.9000000358,7243,no,SM,A,107.bmp,120,120,192870,186847,194887,188855,973055.0,967028.0,975072.0,969040.0,79
3,0,0,1,0,57,test,1,1,m,Tue Dec 09 2025 14:33:08 GMT-0600 (Central Standard Time),988260.0,O,m,1340,80,1,103.bmp,-120,-120,104.bmp,120,-120,105.bmp,-120,120,106.bmp,120,120,9393.699999988079,978866.3000000119,7243,no,SM,A,106.bmp,-120,120,192870,186847,194887,188855,982619.0,976591.0,984636.0,978604.0,80
