acc_sum,block,block_c,condition,correct,correct_response,datetime,endtime,flanker,jitter,project,response,response_test_buffer_response,response_test_target_response,response_time,response_time_test_buffer_response,response_time_test_target_response,row_sel,session_number,start_end,starttime,subject_id,target,task,task_vers,time_test_buffer,time_test_buffer_response,time_test_constants,time_test_flanker,time_test_jitter,time_test_logger,time_test_target,time_test_target_response,time_test_variables,trial
1,prac,1,con,1,z,Wed Sep 10 2025 16:14:28 GMT-0500 (Central Daylight Time),122429.5,banana,800,I,z,,,669,,,1,1,2777.7999999523163,119651.70000004768,7171,banana,NF,C,,,,,,,,,,1
2,prac,1,inc,1,z,Wed Sep 10 2025 16:14:28 GMT-0500 (Central Daylight Time),125344.90000003576,cobalt,1100,I,z,,,506,,,4,1,2909.800000011921,122435.10000002384,7171,raisin,NF,C,,,,,,,,,,2
3,prac,1,con,1,m,Wed Sep 10 2025 16:14:28 GMT-0500 (Central Daylight Time),128327.40000003576,silver,1000,I,m,,,675,,,11,1,2977.0,125350.40000003576,7171,silver,NF,C,,,,,,,,,,3
4,prac,1,inc,1,z,Wed Sep 10 2025 16:14:28 GMT-0500 (Central Daylight Time),131259.90000003576,lead,1100,I,z,,,519,,,8,1,2927.900000035763,128332.0,7171,plum,NF,C,,,,,,,,,,4
5,prac,1,con,1,m,Wed Sep 10 2025 16:14:28 GMT-0500 (Central Daylight Time),134058.90000003576,bronze,800,I,m,,,688,,,9,1,2793.600000023842,131265.30000001192,7171,bronze,NF,C,,,,,,,,,,5
6,prac,1,inc,1,m,Wed Sep 10 2025 16:14:28 GMT-0500 (Central Daylight Time),137024.60000002384,raisin,1100,I,m,,,565,,,12,1,2961.100000023842,134063.5,7171,cobalt,NF,C,,,,,,,,,,6
7,prac,1,con,1,z,Wed Sep 10 2025 16:14:28 GMT-0500 (Central Daylight Time),139824.20000004768,lime,800,I,z,,,682,,,5,1,2795.300000011921,137028.90000003576,7171,lime,NF,C,,,,,,,,,,7
8,prac,1,inc,1,z,Wed Sep 10 2025 16:14:28 GMT-0500 (Central Daylight Time),142689.90000003576,iron,900,I,z,,,664,,,6,1,2861.900000035763,139828.0,7171,pear,NF,C,,,,,,,,,,8
9,prac,1,con,1,m,Wed Sep 10 2025 16:14:28 GMT-0500 (Central Daylight Time),145338.90000003576,gold,800,I,m,,,537,,,13,1,2644.300000011921,142694.60000002384,7171,gold,NF,C,,,,,,,,,,9
10,prac,1,con,1,m,Wed Sep 10 2025 16:14:28 GMT-0500 (Central Daylight Time),148287.80000001192,zinc,1000,I,m,,,633,,,15,1,2944.300000011921,145343.5,7171,zinc,NF,C,,,,,,,,,,10
11,prac,1,con,1,z,Wed Sep 10 2025 16:14:28 GMT-0500 (Central Daylight Time),151220.30000001192,kiwi,1000,I,z,,,620,,,7,1,2927.0,148293.30000001192,7171,kiwi,NF,C,,,,,,,,,,11
12,prac,1,con,1,z,Wed Sep 10 2025 16:14:28 GMT-0500 (Central Daylight Time),154219.40000003576,orange,1000,I,z,,,688,,,3,1,2994.699999988079,151224.70000004768,7171,orange,NF,C,,,,,,,,,,12
13,prac,1,inc,1,m,Wed Sep 10 2025 16:14:28 GMT-0500 (Central Daylight Time),156951.70000004768,pear,900,I,m,,,533,,,14,1,2727.900000035763,154223.80000001192,7171,iron,NF,C,,,,,,,,,,13
14,prac,1,inc,1,m,Wed Sep 10 2025 16:14:28 GMT-0500 (Central Daylight Time),159850.80000001192,plum,1100,I,m,,,496,,,16,1,2895.099999964237,156955.70000004768,7171,lead,NF,C,,,,,,,,,,14
15,prac,1,inc,1,m,Wed Sep 10 2025 16:14:28 GMT-0500 (Central Daylight Time),162716.90000003576,cherry,900,I,m,,,661,,,10,1,2861.600000023842,159855.30000001192,7171,copper,NF,C,,,,,,,,,,15
16,prac,1,inc,1,z,Wed Sep 10 2025 16:14:28 GMT-0500 (Central Daylight Time),165499.10000002384,copper,900,I,z,,,579,,,2,1,2778.100000023842,162721.0,7171,cherry,NF,C,,,,,,,,,,16
1,test,1,inc,1,z,Wed Sep 10 2025 16:14:28 GMT-0500 (Central Daylight Time),178045.10000002384,lead,1100,I,z,z,None,671,471.0,200.0,56,1,2312.399999976158,175732.70000004768,7171,kiwi,NF,C,173463,173463,171634,172747,171634,173946,173263,173263,173946,1
2,test,1,con,1,z,Wed Sep 10 2025 16:14:28 GMT-0500 (Central Daylight Time),180194.30000001192,lime,1000,I,z,z,None,615,415.0,200.0,35,1,2143.5,178050.80000001192,7171,lime,NF,C,175679,175679,173952,174963,173952,176095,175479,175479,176095,2
3,test,1,inc,1,m,Wed Sep 10 2025 16:14:28 GMT-0500 (Central Daylight Time),182160.5,orange,1000,I,m,m,None,416,217.0,199.0,95,1,1961.3999999761581,180199.10000002384,7171,cobalt,NF,C,177828,177829,176100,177112,176100,178062,177629,177629,178062,3
4,test,1,inc,1,m,Wed Sep 10 2025 16:14:28 GMT-0500 (Central Daylight Time),184276.60000002384,kiwi,1000,I,m,m,None,570,371.0,199.0,111,1,2109.800000011921,182166.80000001192,7171,iron,NF,C,179795,179795,178068,179078,178068,180178,179595,179595,180178,4
5,test,1,con,1,m,Wed Sep 10 2025 16:14:28 GMT-0500 (Central Daylight Time),186575.80000001192,copper,1100,I,m,m,None,659,459.0,200.0,76,1,2294.699999988079,184281.10000002384,7171,copper,NF,C,182011,182011,180182,181294,180182,182477,181810,181810,182477,5
6,test,1,inc,1,z,Wed Sep 10 2025 16:14:28 GMT-0500 (Central Daylight Time),188758.60000002384,lead,1100,I,z,z,None,536,336.0,200.0,48,1,2178.699999988079,186579.90000003576,7171,pear,NF,C,184310,184310,182481,183593,182481,184660,184110,184110,184660,6
7,test,1,inc,1,m,Wed Sep 10 2025 16:14:28 GMT-0500 (Central Daylight Time),190691.30000001192,banana,800,I,m,m,None,596,397.0,199.0,69,1,1928.5999999642372,188762.70000004768,7171,bronze,NF,C,186193,186193,184664,185476,184664,186592,185993,185993,186592,7
8,test,1,inc,1,z,Wed Sep 10 2025 16:14:28 GMT-0500 (Central Daylight Time),192640.40000003576,iron,900,I,z,z,None,501,301.0,200.0,38,1,1945.199999988079,190695.20000004768,7171,lime,NF,C,188225,188225,186596,187509,186596,188541,188025,188025,188541,8
9,test,1,con,1,m,Wed Sep 10 2025 16:14:28 GMT-0500 (Central Daylight Time),194823.20000004768,iron,900,I,m,m,None,734,535.0,199.0,106,1,2178.800000011921,192644.40000003576,7171,iron,NF,C,190175,190175,188545,189458,188546,190724,189975,189975,190724,9
10,test,1,inc,1,z,Wed Sep 10 2025 16:14:28 GMT-0500 (Central Daylight Time),196856.0,zinc,1000,I,z,z,None,485,285.0,200.0,47,1,2028.699999988079,194827.30000001192,7171,pear,NF,C,192457,192457,190728,191741,190729,192757,192257,192257,192757,10
11,test,1,con,1,m,Wed Sep 10 2025 16:14:28 GMT-0500 (Central Daylight Time),198938.5,bronze,1000,I,m,m,None,548,348.0,200.0,67,1,2078.099999964237,196860.40000003576,7171,bronze,NF,C,194490,194490,192761,193774,192762,194840,194290,194290,194840,11
12,test,1,con,1,z,Wed Sep 10 2025 16:14:28 GMT-0500 (Central Daylight Time),200921.30000001192,kiwi,800,I,z,z,None,633,433.0,200.0,49,1,1977.8999999761581,198943.40000003576,7171,kiwi,NF,C,196373,196373,194844,195656,194845,196822,196173,196173,196822,12
13,test,1,inc,1,m,Wed Sep 10 2025 16:14:28 GMT-0500 (Central Daylight Time),203004.0,kiwi,1000,I,m,m,None,539,339.0,200.0,127,1,2078.599999964237,200925.40000003576,7171,lead,NF,C,198555,198555,196826,197839,196827,198905,198355,198355,198905,13
14,test,1,inc,1,z,Wed Sep 10 2025 16:14:28 GMT-0500 (Central Daylight Time),205204.5,zinc,1000,I,z,z,None,664,464.0,200.0,63,1,2196.2999999523163,203008.20000004768,7171,plum,NF,C,200638,200638,198909,199922,198910,201106,200438,200438,201106,14
15,test,1,inc,1,m,Wed Sep 10 2025 16:14:28 GMT-0500 (Central Daylight Time),207269.30000001192,kiwi,1000,I,m,m,None,528,328.0,200.0,103,1,2060.699999988079,205208.60000002384,7171,gold,NF,C,202838,202838,201110,202121,201110,203170,202638,202638,203170,15
16,test,1,inc,1,m,Wed Sep 10 2025 16:14:28 GMT-0500 (Central Daylight Time),209252.20000004768,banana,800,I,m,m,None,637,438.0,199.0,85,1,1978.800000011921,207273.40000003576,7171,silver,NF,C,204704,204704,203174,203987,203175,205153,204504,204504,205153,16
17,test,1,inc,1,m,Wed Sep 10 2025 16:14:28 GMT-0500 (Central Daylight Time),211184.60000002384,banana,800,I,m,m,None,592,392.0,200.0,77,1,1927.8999999761581,209256.70000004768,7171,copper,NF,C,206686,206686,205158,205970,205158,207086,206486,206486,207086,17
18,test,1,inc,1,z,Wed Sep 10 2025 16:14:28 GMT-0500 (Central Daylight Time),213167.60000002384,iron,900,I,z,z,None,535,335.0,200.0,46,1,1978.699999988079,211188.90000003576,7171,pear,NF,C,208719,208719,207090,208002,207090,209069,208519,208519,209069,18
19,test,1,con,1,m,Wed Sep 10 2025 16:14:28 GMT-0500 (Central Daylight Time),215383.5,cobalt,1100,I,m,m,None,567,368.0,199.0,92,1,2211.2999999523163,213172.20000004768,7171,cobalt,NF,C,210902,210902,209073,210185,209074,211285,210702,210702,211284,19
20,test,1,con,1,m,Wed Sep 10 2025 16:14:28 GMT-0500 (Central Daylight Time),217599.5,lead,1000,I,m,m,None,667,468.0,199.0,123,1,2211.899999976158,215387.60000002384,7171,lead,NF,C,213018,213018,211289,212301,211289,213501,212818,212818,213500,20
21,test,1,con,1,z,Wed Sep 10 2025 16:14:28 GMT-0500 (Central Daylight Time),219698.80000001192,cherry,1000,I,z,z,None,555,356.0,199.0,11,1,2095.0,217603.80000001192,7171,cherry,NF,C,215234,215234,213505,214517,213505,215600,215033,215034,215600,21
22,test,1,con,1,z,Wed Sep 10 2025 16:14:28 GMT-0500 (Central Daylight Time),221809.40000003576,banana,1000,I,z,z,None,576,377.0,199.0,3,1,2104.800000011921,219704.60000002384,7171,banana,NF,C,217333,217333,215606,216616,215606,217710,217133,217133,217710,22
23,test,1,con,1,m,Wed Sep 10 2025 16:14:28 GMT-0500 (Central Daylight Time),223697.5,zinc,800,I,m,m,None,549,348.0,201.0,113,1,1883.3999999761581,221814.10000002384,7171,zinc,NF,C,219234,219234,217715,218516,217715,219599,219032,219032,219599,23
24,test,1,con,1,m,Wed Sep 10 2025 16:14:28 GMT-0500 (Central Daylight Time),225913.70000004768,silver,1000,I,m,m,None,681,482.0,199.0,83,1,2211.900000035763,223701.80000001192,7171,silver,NF,C,221332,221332,219603,220615,219603,221815,221132,221132,221815,24
25,test,1,con,1,m,Wed Sep 10 2025 16:14:28 GMT-0500 (Central Daylight Time),227879.60000002384,copper,900,I,m,m,None,525,326.0,199.0,74,1,1961.699999988079,225917.90000003576,7171,copper,NF,C,223448,223448,221819,222732,221819,223781,223248,223248,223781,25
26,test,1,inc,1,m,Wed Sep 10 2025 16:14:28 GMT-0500 (Central Daylight Time),229895.60000002384,cherry,900,I,m,m,None,575,376.0,199.0,70,1,2012.0,227883.60000002384,7171,bronze,NF,C,225414,225414,223785,224697,223785,225797,225214,225214,225797,26
27,test,1,inc,1,m,Wed Sep 10 2025 16:14:28 GMT-0500 (Central Daylight Time),231961.60000002384,lime,800,I,m,m,None,723,524.0,199.0,109,1,2061.699999988079,229899.90000003576,7171,iron,NF,C,227330,227330,225801,226613,225801,227863,227130,227130,227863,27
28,test,1,con,1,z,Wed Sep 10 2025 16:14:28 GMT-0500 (Central Daylight Time),234144.20000004768,plum,1000,I,z,z,None,633,434.0,199.0,59,1,2178.5,231965.70000004768,7171,plum,NF,C,229596,229596,227867,228879,227867,230045,229396,229396,230045,28
29,test,1,con,1,m,Wed Sep 10 2025 16:14:28 GMT-0500 (Central Daylight Time),236243.5,iron,1000,I,m,m,None,564,364.0,200.0,107,1,2095.2999999523163,234148.20000004768,7171,iron,NF,C,231778,231778,230049,231062,230050,232145,231578,231578,232145,29
30,test,1,inc,1,z,Wed Sep 10 2025 16:14:28 GMT-0500 (Central Daylight Time),238126.30000001192,bronze,800,I,z,z,None,535,336.0,199.0,13,1,1878.8999999761581,236247.40000003576,7171,cherry,NF,C,233678,233678,232148,232961,232149,234027,233478,233478,234027,30
31,test,1,con,1,z,Wed Sep 10 2025 16:14:28 GMT-0500 (Central Daylight Time),240075.80000001192,cherry,800,I,z,z,None,605,405.0,200.0,9,1,1945.699999988079,238130.10000002384,7171,cherry,NF,C,235560,235561,234031,234844,234031,235977,235360,235360,235977,31
32,test,1,con,1,z,Wed Sep 10 2025 16:14:28 GMT-0500 (Central Daylight Time),242191.70000004768,pear,1100,I,z,z,None,476,276.0,200.0,44,1,2111.0,240080.70000004768,7171,pear,NF,C,237810,237810,235982,237093,235982,238093,237610,237610,238093,32
33,test,1,inc,1,m,Wed Sep 10 2025 16:14:28 GMT-0500 (Central Daylight Time),244191.0,pear,900,I,m,m,None,551,352.0,199.0,110,1,1995.7999999523163,242195.20000004768,7171,iron,NF,C,239726,239726,238096,239009,238097,240092,239526,239526,240092,33
34,test,1,con,1,m,Wed Sep 10 2025 16:14:28 GMT-0500 (Central Daylight Time),246157.10000002384,silver,800,I,m,m,None,636,421.0,215.0,81,1,1961.800000011921,244195.30000001192,7171,silver,NF,C,241625,241625,240096,240909,240097,242058,241410,241410,242058,34
35,test,1,inc,1,m,Wed Sep 10 2025 16:14:28 GMT-0500 (Central Daylight Time),248123.20000004768,lime,800,I,m,m,None,621,406.0,215.0,117,1,1961.7000000476837,246161.5,7171,zinc,NF,C,243608,243608,242063,242875,242063,244024,243393,243393,244024,35
36,test,1,con,1,z,Wed Sep 10 2025 16:14:28 GMT-0500 (Central Daylight Time),250339.10000002384,raisin,1000,I,z,z,None,682,482.0,200.0,27,1,2212.0,248127.10000002384,7171,raisin,NF,C,245757,245757,244028,245041,244028,246240,245557,245557,246240,36
37,test,1,inc,1,z,Wed Sep 10 2025 16:14:28 GMT-0500 (Central Daylight Time),252405.20000004768,iron,900,I,z,z,None,629,429.0,200.0,54,1,2061.600000023842,250343.60000002384,7171,kiwi,NF,C,247873,247873,246245,247157,246245,248306,247673,247673,248306,37
38,test,1,con,1,m,Wed Sep 10 2025 16:14:28 GMT-0500 (Central Daylight Time),254554.40000003576,zinc,1000,I,m,m,None,607,407.0,200.0,115,1,2144.699999988079,252409.70000004768,7171,zinc,NF,C,250039,250039,248311,249323,248311,250456,249839,249839,250455,38
39,test,1,inc,1,m,Wed Sep 10 2025 16:14:28 GMT-0500 (Central Daylight Time),256753.80000001192,raisin,1100,I,m,m,None,556,357.0,199.0,96,1,2194.800000011921,254559.0,7171,cobalt,NF,C,252289,252289,250460,251572,250460,252655,252088,252089,252655,39
40,test,1,inc,1,m,Wed Sep 10 2025 16:14:28 GMT-0500 (Central Daylight Time),258953.10000002384,plum,1100,I,m,m,None,558,358.0,200.0,120,1,2194.899999976158,256758.20000004768,7171,zinc,NF,C,254488,254488,252659,253771,252659,254854,254288,254288,254854,40
41,test,1,con,1,z,Wed Sep 10 2025 16:14:28 GMT-0500 (Central Daylight Time),261002.40000003576,kiwi,1000,I,z,z,None,515,315.0,200.0,51,1,2044.1000000238419,258958.30000001192,7171,kiwi,NF,C,256587,256587,254859,255871,254860,256903,256387,256387,256903,41
42,test,1,inc,1,z,Wed Sep 10 2025 16:14:28 GMT-0500 (Central Daylight Time),263168.5,silver,1000,I,z,z,None,618,418.0,200.0,7,1,2161.899999976158,261006.60000002384,7171,banana,NF,C,258636,258636,256908,257920,256908,259070,258436,258436,259070,42
43,test,1,con,1,z,Wed Sep 10 2025 16:14:28 GMT-0500 (Central Daylight Time),265251.2000000477,cherry,900,I,z,z,None,646,431.0,215.0,10,1,2078.7000000476837,263172.5,7171,cherry,NF,C,260719,260719,259074,259986,259074,261152,260504,260504,261152,43
44,test,1,inc,1,z,Wed Sep 10 2025 16:14:28 GMT-0500 (Central Daylight Time),267267.2000000477,gold,800,I,z,z,None,673,473.0,200.0,53,1,2012.2000000476837,265255.0,7171,kiwi,NF,C,262685,262685,261156,261970,261156,263168,262485,262485,263168,44
45,test,1,inc,1,m,Wed Sep 10 2025 16:14:28 GMT-0500 (Central Daylight Time),269183.2000000477,banana,800,I,m,m,None,568,276.0,292.0,93,1,1912.1000000238419,267271.10000002384,7171,cobalt,NF,C,264794,264794,263172,263985,263172,265084,264501,264501,265084,45
46,test,1,inc,1,m,Wed Sep 10 2025 16:14:28 GMT-0500 (Central Daylight Time),271332.5,kiwi,1000,I,m,m,None,604,404.0,200.0,119,1,2145.5,269187.0,7171,zinc,NF,C,266818,266818,265088,266101,265088,267234,266617,266617,267234,46
47,test,1,inc,1,m,Wed Sep 10 2025 16:14:28 GMT-0500 (Central Daylight Time),273448.7000000477,orange,1000,I,m,m,None,574,375.0,199.0,71,1,2111.600000023842,271337.10000002384,7171,bronze,NF,C,268967,268967,267238,268250,267238,269350,268767,268767,269350,47
48,test,1,con,1,z,Wed Sep 10 2025 16:14:28 GMT-0500 (Central Daylight Time),275531.3000000119,banana,900,I,z,z,None,647,447.0,200.0,2,1,2079.0,273452.3000000119,7171,banana,NF,C,270983,270983,269353,270266,269354,271432,270783,270783,271432,48
49,test,1,con,1,z,Wed Sep 10 2025 16:14:28 GMT-0500 (Central Daylight Time),277597.2000000477,lime,900,I,z,z,None,620,420.0,200.0,34,1,2062.100000023842,275535.10000002384,7171,lime,NF,C,273066,273066,271436,272349,271436,273498,272865,272865,273498,49
50,test,1,inc,1,z,Wed Sep 10 2025 16:14:28 GMT-0500 (Central Daylight Time),279731.10000002384,zinc,1000,I,z,z,None,590,391.0,199.0,39,1,2129.899999976158,277601.2000000477,7171,lime,NF,C,275231,275231,273502,274515,273503,275632,275032,275032,275632,50
51,test,1,con,1,z,Wed Sep 10 2025 16:14:28 GMT-0500 (Central Daylight Time),281845.8000000119,plum,800,I,z,z,None,778,578.0,200.0,57,1,2110.699999988079,279735.10000002384,7171,plum,NF,C,277164,277164,275636,276448,275636,277747,276964,276964,277747,51
52,test,1,con,1,m,Wed Sep 10 2025 16:14:28 GMT-0500 (Central Daylight Time),283961.90000003576,gold,1000,I,m,m,None,582,382.0,200.0,99,1,2112.199999988079,281849.7000000477,7171,gold,NF,C,279480,279480,277751,278764,277751,279863,279280,279280,279863,52
53,test,1,inc,1,m,Wed Sep 10 2025 16:14:28 GMT-0500 (Central Daylight Time),286211.2000000477,raisin,1100,I,m,m,None,614,414.0,200.0,88,1,2245.600000023842,283965.60000002384,7171,silver,NF,C,281696,281696,279867,280980,279867,282112,281496,281496,282112,53
54,test,1,inc,1,z,Wed Sep 10 2025 16:14:28 GMT-0500 (Central Daylight Time),288294.0,silver,1000,I,z,z,None,545,345.0,200.0,23,1,2078.899999976158,286215.10000002384,7171,orange,NF,C,283845,283845,282116,283129,282116,284195,283645,283645,284195,54
55,test,1,inc,1,m,Wed Sep 10 2025 16:14:28 GMT-0500 (Central Daylight Time),290360.0,pear,900,I,m,m,None,626,426.0,200.0,126,1,2062.2999999523163,288297.7000000477,7171,lead,NF,C,285828,285828,284199,285111,284199,286261,285628,285628,286261,55
56,test,1,con,1,m,Wed Sep 10 2025 16:14:28 GMT-0500 (Central Daylight Time),292442.5,cobalt,800,I,m,m,None,748,548.0,200.0,89,1,2078.599999964237,290363.90000003576,7171,cobalt,NF,C,287794,287794,286265,287078,286265,288344,287594,287594,288344,56
57,test,1,con,1,z,Wed Sep 10 2025 16:14:28 GMT-0500 (Central Daylight Time),294375.3000000119,raisin,900,I,z,z,None,492,293.0,199.0,26,1,1928.5999999642372,292446.7000000477,7171,raisin,NF,C,289977,289977,288348,289260,288348,290276,289777,289777,290276,57
58,test,1,inc,1,z,Wed Sep 10 2025 16:14:28 GMT-0500 (Central Daylight Time),296808.0,lead,1100,I,z,z,None,785,585.0,200.0,64,1,2428.199999988079,294379.8000000119,7171,plum,NF,C,292109,292109,290281,291393,290281,292709,291909,291909,292709,58
59,test,1,con,1,m,Wed Sep 10 2025 16:14:28 GMT-0500 (Central Daylight Time),298790.8000000119,cobalt,900,I,m,m,None,544,344.0,200.0,90,1,1978.3999999761581,296812.40000003576,7171,cobalt,NF,C,294342,294342,292713,293626,292714,294692,294142,294142,294692,59
60,test,1,con,1,m,Wed Sep 10 2025 16:14:28 GMT-0500 (Central Daylight Time),300873.3000000119,zinc,900,I,m,m,None,641,440.0,201.0,114,1,2078.699999988079,298794.60000002384,7171,zinc,NF,C,296326,296326,294696,295608,294696,296774,296125,296125,296774,60
61,test,1,con,1,z,Wed Sep 10 2025 16:14:28 GMT-0500 (Central Daylight Time),302772.7000000477,banana,800,I,z,z,None,562,363.0,199.0,1,1,1895.5,300877.2000000477,7171,banana,NF,C,298307,298307,296778,297592,296779,298674,298108,298108,298674,61
62,test,1,con,1,m,Wed Sep 10 2025 16:14:28 GMT-0500 (Central Daylight Time),305038.60000002384,silver,1100,I,m,m,None,627,427.0,200.0,84,1,2261.5,302777.10000002384,7171,silver,NF,C,300507,300507,298678,299790,298678,300940,300307,300307,300940,62
63,test,1,inc,1,m,Wed Sep 10 2025 16:14:28 GMT-0500 (Central Daylight Time),307188.0,orange,1000,I,m,m,None,604,405.0,199.0,79,1,2145.099999964237,305042.90000003576,7171,copper,NF,C,302673,302673,300944,301956,300944,303089,302473,302473,303089,63
64,test,1,inc,1,z,Wed Sep 10 2025 16:14:28 GMT-0500 (Central Daylight Time),309137.3000000119,gold,800,I,z,z,None,608,407.0,201.0,37,1,1945.5,307191.8000000119,7171,lime,NF,C,304623,304623,303093,303906,303093,305038,304422,304422,305038,64
64,test,1,con,0,z,Wed Sep 10 2025 16:14:28 GMT-0500 (Central Daylight Time),311186.7000000477,orange,900,I,m,m,None,606,406.0,200.0,18,1,2045.1000000238419,309141.60000002384,7171,orange,NF,C,306671,306672,305043,305955,305043,307088,306471,306471,307088,65
65,test,1,con,1,m,Wed Sep 10 2025 16:14:28 GMT-0500 (Central Daylight Time),313169.40000003576,lead,800,I,m,m,None,634,434.0,200.0,121,1,1979.0,311190.40000003576,7171,lead,NF,C,308621,308621,307091,307904,307092,309070,308421,308421,309070,66
66,test,1,inc,1,z,Wed Sep 10 2025 16:14:28 GMT-0500 (Central Daylight Time),315318.7000000477,cobalt,1100,I,z,z,None,510,311.0,199.0,8,1,2145.5,313173.2000000477,7171,banana,NF,C,310903,310903,309074,310187,309074,311220,310704,310704,311220,67
67,test,1,inc,1,z,Wed Sep 10 2025 16:14:28 GMT-0500 (Central Daylight Time),317584.7000000477,cobalt,1100,I,z,z,None,617,417.0,200.0,32,1,2262.300000011921,315322.40000003576,7171,raisin,NF,C,313053,313053,311223,312336,311224,313486,312853,312853,313486,68
68,test,1,con,1,z,Wed Sep 10 2025 16:14:28 GMT-0500 (Central Daylight Time),319800.7000000477,raisin,1100,I,z,z,None,566,367.0,199.0,28,1,2211.900000035763,317588.8000000119,7171,raisin,NF,C,315319,315319,313490,314602,313490,315702,315119,315119,315702,69
69,test,1,con,1,z,Wed Sep 10 2025 16:14:28 GMT-0500 (Central Daylight Time),322050.0,cherry,1100,I,z,z,None,614,415.0,199.0,12,1,2245.599999964237,319804.40000003576,7171,cherry,NF,C,317535,317535,315705,316818,315706,317951,317335,317335,317951,70
70,test,1,inc,1,z,Wed Sep 10 2025 16:14:28 GMT-0500 (Central Daylight Time),324282.60000002384,cobalt,1100,I,z,z,None,598,398.0,200.0,16,1,2228.800000011921,322053.8000000119,7171,cherry,NF,C,319784,319784,317955,319067,317955,320184,319584,319584,320184,71
71,test,1,inc,1,z,Wed Sep 10 2025 16:14:28 GMT-0500 (Central Daylight Time),326565.2000000477,cobalt,1100,I,z,z,None,636,437.0,199.0,24,1,2278.7000000476837,324286.5,7171,orange,NF,C,322016,322017,320188,321300,320188,322466,321817,321817,322466,72
72,test,1,inc,1,z,Wed Sep 10 2025 16:14:28 GMT-0500 (Central Daylight Time),328881.40000003576,lead,1100,I,z,z,None,681,466.0,215.0,40,1,2312.5,326568.90000003576,7171,lime,NF,C,324316,324316,322470,323583,322470,324782,324101,324101,324782,73
73,test,1,inc,1,z,Wed Sep 10 2025 16:14:28 GMT-0500 (Central Daylight Time),330863.90000003576,bronze,800,I,z,z,None,634,435.0,199.0,5,1,1978.800000011921,328885.10000002384,7171,banana,NF,C,326315,326315,324786,325599,324786,326765,326116,326116,326765,74
74,test,1,con,1,m,Wed Sep 10 2025 16:14:28 GMT-0500 (Central Daylight Time),333079.90000003576,iron,1100,I,m,m,None,576,376.0,200.0,108,1,2212.0,330867.90000003576,7171,iron,NF,C,328598,328598,326769,327881,326769,328981,328398,328398,328981,75
75,test,1,con,1,m,Wed Sep 10 2025 16:14:28 GMT-0500 (Central Daylight Time),335112.5,bronze,900,I,m,m,None,584,384.0,200.0,66,1,2029.0,333083.5,7171,bronze,NF,C,330614,330614,328985,329898,328985,331014,330414,330414,331014,76
76,test,1,con,1,z,Wed Sep 10 2025 16:14:28 GMT-0500 (Central Daylight Time),337162.0,pear,1000,I,z,z,None,514,315.0,199.0,43,1,2045.5,335116.5,7171,pear,NF,C,332747,332747,331018,332030,331018,333063,332547,332547,333063,77
77,test,1,inc,1,z,Wed Sep 10 2025 16:14:28 GMT-0500 (Central Daylight Time),339178.10000002384,gold,800,I,z,z,None,674,474.0,200.0,61,1,2012.3999999761581,337165.7000000477,7171,plum,NF,C,334596,334596,333067,333880,333067,335079,334396,334396,335079,78
78,test,1,con,1,m,Wed Sep 10 2025 16:14:28 GMT-0500 (Central Daylight Time),341544.0,zinc,1100,I,m,m,None,726,526.0,200.0,116,1,2362.099999964237,339181.90000003576,7171,zinc,NF,C,336912,336912,335083,336197,335083,337445,336712,336712,337445,79
79,test,1,con,1,z,Wed Sep 10 2025 16:14:28 GMT-0500 (Central Daylight Time),343626.60000002384,kiwi,1100,I,z,z,None,448,248.0,200.0,52,1,2078.699999988079,341547.90000003576,7171,kiwi,NF,C,339278,339278,337449,338561,337449,339528,339078,339078,339528,80
80,test,1,con,1,z,Wed Sep 10 2025 16:14:28 GMT-0500 (Central Daylight Time),345875.8000000119,lime,1100,I,z,z,None,613,414.0,199.0,36,1,2245.099999964237,343630.7000000477,7171,lime,NF,C,341361,341361,339532,340644,339532,341777,341161,341161,341777,81
81,test,1,inc,1,z,Wed Sep 10 2025 16:14:28 GMT-0500 (Central Daylight Time),348008.5,silver,1000,I,z,z,None,592,392.0,200.0,31,1,2128.5,345880.0,7171,raisin,NF,C,343510,343510,341781,342794,341781,343910,343310,343310,343910,82
82,test,1,inc,1,m,Wed Sep 10 2025 16:14:28 GMT-0500 (Central Daylight Time),350041.2000000477,pear,900,I,m,m,None,590,391.0,199.0,118,1,2028.9000000357628,348012.3000000119,7171,zinc,NF,C,345543,345543,343913,344826,343914,345942,345343,345343,345942,83
83,test,1,inc,1,z,Wed Sep 10 2025 16:14:28 GMT-0500 (Central Daylight Time),352024.0,bronze,800,I,z,z,None,635,435.0,200.0,29,1,1978.8999999761581,350045.10000002384,7171,raisin,NF,C,347475,347475,345946,346759,345946,347925,347275,347275,347925,84
84,test,1,con,1,m,Wed Sep 10 2025 16:14:28 GMT-0500 (Central Daylight Time),354323.2000000477,bronze,1100,I,m,m,None,656,456.0,200.0,68,1,2295.2000000476837,352028.0,7171,bronze,NF,C,349758,349758,347929,349042,347929,350224,349558,349558,350224,85
85,test,1,con,1,z,Wed Sep 10 2025 16:14:28 GMT-0500 (Central Daylight Time),356422.5,plum,900,I,z,z,None,653,453.0,200.0,58,1,2095.699999988079,354326.8000000119,7171,plum,NF,C,351857,351857,350228,351141,350228,352324,351657,351657,352324,86
86,test,1,inc,1,z,Wed Sep 10 2025 16:14:28 GMT-0500 (Central Daylight Time),358438.5,copper,900,I,z,z,None,577,377.0,200.0,14,1,2010.8999999761581,356427.60000002384,7171,cherry,NF,C,353957,353957,352329,353240,352329,354340,353757,353757,354340,87
87,test,1,inc,1,z,Wed Sep 10 2025 16:14:28 GMT-0500 (Central Daylight Time),360604.60000002384,silver,1000,I,z,z,None,620,421.0,199.0,15,1,2162.5,358442.10000002384,7171,cherry,NF,C,356073,356073,354343,355356,354343,356506,355873,355873,356506,88
88,test,1,con,1,z,Wed Sep 10 2025 16:14:28 GMT-0500 (Central Daylight Time),362870.5,plum,1100,I,z,z,None,618,419.0,199.0,60,1,2261.0,360609.5,7171,plum,NF,C,358339,358339,356511,357622,356511,358772,358139,358139,358772,89
89,test,1,inc,1,m,Wed Sep 10 2025 16:14:28 GMT-0500 (Central Daylight Time),365003.2000000477,plum,1100,I,m,m,None,496,297.0,199.0,128,1,2128.0,362875.2000000477,7171,lead,NF,C,360604,360605,358776,359888,358776,360904,360405,360405,360904,90
90,test,1,con,1,m,Wed Sep 10 2025 16:14:28 GMT-0500 (Central Daylight Time),367086.0,gold,900,I,m,m,None,638,438.0,200.0,98,1,2079.099999964237,365006.90000003576,7171,gold,NF,C,362537,362537,360908,361821,360908,362987,362337,362337,362987,91
91,test,1,inc,1,m,Wed Sep 10 2025 16:14:28 GMT-0500 (Central Daylight Time),369185.10000002384,cherry,900,I,m,m,None,650,450.0,200.0,94,1,2094.699999988079,367090.40000003576,7171,cobalt,NF,C,364620,364620,362991,363903,362992,365086,364420,364420,365086,92
92,test,1,inc,1,m,Wed Sep 10 2025 16:14:28 GMT-0500 (Central Daylight Time),371384.7000000477,raisin,1100,I,m,m,None,559,359.0,200.0,80,1,2195.800000011921,369188.90000003576,7171,copper,NF,C,366919,366919,365090,366203,365090,367286,366719,366719,367286,93
93,test,1,con,1,m,Wed Sep 10 2025 16:14:28 GMT-0500 (Central Daylight Time),373633.8000000119,gold,1100,I,m,m,None,598,399.0,199.0,100,1,2245.099999964237,371388.7000000477,7171,gold,NF,C,369119,369119,367290,368402,367290,369535,368919,368919,369535,94
94,test,1,con,1,m,Wed Sep 10 2025 16:14:28 GMT-0500 (Central Daylight Time),375649.90000003576,cobalt,1000,I,m,m,None,474,274.0,200.0,91,1,2012.300000011921,373637.60000002384,7171,cobalt,NF,C,371268,371268,369539,370551,369539,371551,371068,371068,371551,95
95,test,1,inc,1,z,Wed Sep 10 2025 16:14:28 GMT-0500 (Central Daylight Time),377599.40000003576,copper,900,I,z,z,None,502,302.0,200.0,6,1,1945.5,375653.90000003576,7171,banana,NF,C,373184,373184,371555,372468,371555,373501,372984,372984,373500,96
96,test,1,inc,1,z,Wed Sep 10 2025 16:14:28 GMT-0500 (Central Daylight Time),379765.5,zinc,1000,I,z,z,None,621,421.0,200.0,55,1,2161.699999988079,377603.8000000119,7171,kiwi,NF,C,375233,375233,373505,374517,373505,375667,375033,375033,375666,97
97,test,1,inc,1,m,Wed Sep 10 2025 16:14:28 GMT-0500 (Central Daylight Time),381981.40000003576,orange,1000,I,m,m,None,670,471.0,199.0,87,1,2212.400000035763,379769.0,7171,silver,NF,C,377399,377399,375670,376683,375670,377882,377199,377200,377882,98
98,test,1,con,1,z,Wed Sep 10 2025 16:14:28 GMT-0500 (Central Daylight Time),384130.5,orange,1000,I,z,z,None,615,415.0,200.0,19,1,2145.2999999523163,381985.2000000477,7171,orange,NF,C,379615,379615,377886,378899,377887,380032,379415,379415,380032,99
99,test,1,con,1,z,Wed Sep 10 2025 16:14:28 GMT-0500 (Central Daylight Time),386363.10000002384,banana,1100,I,z,z,None,588,389.0,199.0,4,1,2228.699999988079,384134.40000003576,7171,banana,NF,C,381865,381865,380035,381148,380036,382264,381665,381665,382264,100
100,test,1,inc,1,m,Wed Sep 10 2025 16:14:28 GMT-0500 (Central Daylight Time),388595.8000000119,plum,1100,I,m,m,None,589,389.0,200.0,104,1,2229.099999964237,386366.7000000477,7171,gold,NF,C,384097,384097,382268,383381,382268,384497,383897,383897,384497,101
101,test,1,con,1,z,Wed Sep 10 2025 16:14:28 GMT-0500 (Central Daylight Time),390528.60000002384,lime,800,I,z,z,None,592,392.0,200.0,33,1,1928.5,388600.10000002384,7171,lime,NF,C,386030,386030,384501,385313,384501,386430,385830,385830,386430,102
102,test,1,con,1,m,Wed Sep 10 2025 16:14:28 GMT-0500 (Central Daylight Time),392577.8000000119,bronze,800,I,m,m,None,715,515.0,200.0,65,1,2045.199999988079,390532.60000002384,7171,bronze,NF,C,387963,387963,386434,387246,386434,388479,387763,387763,388479,103
103,test,1,con,1,z,Wed Sep 10 2025 16:14:28 GMT-0500 (Central Daylight Time),394544.0,pear,900,I,z,z,None,526,326.0,200.0,42,1,1962.199999988079,392581.8000000119,7171,pear,NF,C,390112,390112,388483,389396,388483,390445,389912,389912,390445,104
104,test,1,inc,1,z,Wed Sep 10 2025 16:14:28 GMT-0500 (Central Daylight Time),396743.2000000477,iron,900,I,z,z,None,752,552.0,200.0,62,1,2195.600000023842,394547.60000002384,7171,plum,NF,C,392078,392078,390449,391362,390449,392644,391878,391878,392644,105
105,test,1,inc,1,z,Wed Sep 10 2025 16:14:28 GMT-0500 (Central Daylight Time),399175.7000000477,copper,900,I,z,z,None,985,785.0,200.0,22,1,2428.900000035763,396746.8000000119,7171,orange,NF,C,394277,394277,392648,393561,392648,395077,394077,394077,395077,106
106,test,1,con,1,m,Wed Sep 10 2025 16:14:28 GMT-0500 (Central Daylight Time),401075.3000000119,copper,800,I,m,m,None,556,356.0,200.0,73,1,1895.0,399180.3000000119,7171,copper,NF,C,396610,396610,395081,395893,395082,396976,396410,396410,396976,107
107,test,1,con,1,m,Wed Sep 10 2025 16:14:28 GMT-0500 (Central Daylight Time),403174.60000002384,lead,900,I,m,m,None,661,460.0,201.0,122,1,2095.5,401079.10000002384,7171,lead,NF,C,398610,398610,396980,397893,396980,399076,398409,398409,399076,108
108,test,1,con,1,z,Wed Sep 10 2025 16:14:28 GMT-0500 (Central Daylight Time),405223.90000003576,pear,800,I,z,z,None,700,501.0,199.0,41,1,2045.199999988079,403178.7000000477,7171,pear,NF,C,400609,400609,399080,399892,399080,401125,400409,400409,401125,109
109,test,1,con,1,m,Wed Sep 10 2025 16:14:28 GMT-0500 (Central Daylight Time),407256.60000002384,silver,900,I,m,m,None,591,391.0,200.0,82,1,2028.699999988079,405227.90000003576,7171,silver,NF,C,402759,402759,401129,402042,401129,403158,402558,402558,403158,110
110,test,1,con,1,z,Wed Sep 10 2025 16:14:28 GMT-0500 (Central Daylight Time),409472.60000002384,orange,1100,I,z,z,None,566,367.0,199.0,20,1,2211.699999988079,407260.90000003576,7171,orange,NF,C,404991,404991,403162,404274,403162,405374,404791,404791,405374,111
111,test,1,con,1,m,Wed Sep 10 2025 16:14:28 GMT-0500 (Central Daylight Time),411472.0,iron,800,I,m,m,None,535,335.0,200.0,105,1,1995.2999999523163,409476.7000000477,7171,iron,NF,C,407023,407023,405378,406317,405378,407373,406823,406823,407373,112
112,test,1,con,1,m,Wed Sep 10 2025 16:14:28 GMT-0500 (Central Daylight Time),413471.40000003576,copper,1000,I,m,m,None,452,252.0,200.0,75,1,1995.699999988079,411475.7000000477,7171,copper,NF,C,409106,409106,407377,408389,407377,409373,408906,408906,409372,113
113,test,1,con,1,z,Wed Sep 10 2025 16:14:28 GMT-0500 (Central Daylight Time),415337.7000000477,kiwi,900,I,z,z,None,416,216.0,200.0,50,1,1862.5,413475.2000000477,7171,kiwi,NF,C,411006,411006,409376,410289,409376,411239,410805,410805,411239,114
114,test,1,inc,1,m,Wed Sep 10 2025 16:14:28 GMT-0500 (Central Daylight Time),417303.5,pear,900,I,m,m,None,518,319.0,199.0,102,1,1962.0999999642372,415341.40000003576,7171,gold,NF,C,412871,412871,411242,412155,411243,413205,412672,412672,413204,115
115,test,1,inc,1,z,Wed Sep 10 2025 16:14:28 GMT-0500 (Central Daylight Time),419186.10000002384,gold,800,I,z,z,None,548,349.0,199.0,45,1,1878.8999999761581,417307.2000000477,7171,pear,NF,C,414737,414737,413208,414021,413208,415087,414538,414538,415087,116
116,test,1,inc,1,m,Wed Sep 10 2025 16:14:28 GMT-0500 (Central Daylight Time),421318.90000003576,plum,1100,I,m,m,None,494,294.0,200.0,112,1,2129.100000023842,419189.8000000119,7171,iron,NF,C,416920,416920,415091,416204,415091,417220,416720,416720,417220,117
117,test,1,inc,1,m,Wed Sep 10 2025 16:14:28 GMT-0500 (Central Daylight Time),423401.60000002384,cherry,900,I,m,m,None,634,434.0,200.0,78,1,2079.0,421322.60000002384,7171,copper,NF,C,418853,418853,417224,418136,417224,419303,418653,418653,419303,118
118,test,1,con,1,z,Wed Sep 10 2025 16:14:28 GMT-0500 (Central Daylight Time),425401.0,raisin,800,I,z,z,None,649,450.0,199.0,25,1,1995.8999999761581,423405.10000002384,7171,raisin,NF,C,420836,420836,419306,420119,419306,421302,420636,420636,421302,119
119,test,1,inc,1,z,Wed Sep 10 2025 16:14:28 GMT-0500 (Central Daylight Time),427333.60000002384,bronze,800,I,z,z,None,595,395.0,200.0,21,1,1929.0,425404.60000002384,7171,orange,NF,C,422835,422835,421306,422118,421306,423235,422635,422635,423235,120
120,test,1,inc,1,z,Wed Sep 10 2025 16:14:28 GMT-0500 (Central Daylight Time),429333.10000002384,copper,900,I,z,z,None,554,354.0,200.0,30,1,1995.1000000238419,427338.0,7171,raisin,NF,C,424868,424868,423239,424151,423239,425234,424668,424668,425234,121
121,test,1,inc,1,m,Wed Sep 10 2025 16:14:28 GMT-0500 (Central Daylight Time),431332.3000000119,cherry,900,I,m,m,None,555,354.0,201.0,86,1,1995.5999999642372,429336.7000000477,7171,silver,NF,C,426868,426868,425238,426151,425238,427233,426667,426667,427233,122
122,test,1,inc,1,m,Wed Sep 10 2025 16:14:28 GMT-0500 (Central Daylight Time),433315.2000000477,lime,800,I,m,m,None,639,439.0,200.0,101,1,1978.800000011921,431336.40000003576,7171,gold,NF,C,428767,428767,427237,428050,427238,429216,428566,428566,429216,123
123,test,1,con,1,m,Wed Sep 10 2025 16:14:28 GMT-0500 (Central Daylight Time),435647.7000000477,lead,1100,I,m,m,None,693,493.0,200.0,124,1,2328.7000000476837,433319.0,7171,lead,NF,C,431049,431049,429220,430333,429220,431549,430849,430849,431549,124
124,test,1,inc,1,m,Wed Sep 10 2025 16:14:28 GMT-0500 (Central Daylight Time),437897.0,raisin,1100,I,m,m,None,607,408.0,199.0,72,1,2245.399999976158,435651.60000002384,7171,bronze,NF,C,433382,433382,431553,432665,431553,433798,433182,433182,433798,125
125,test,1,con,1,z,Wed Sep 10 2025 16:14:28 GMT-0500 (Central Daylight Time),439830.90000003576,orange,800,I,z,z,None,595,395.0,200.0,17,1,1930.199999988079,437900.7000000477,7171,orange,NF,C,435331,435331,433802,434615,433802,435732,435131,435131,435732,126
126,test,1,con,1,m,Wed Sep 10 2025 16:14:28 GMT-0500 (Central Daylight Time),441795.8000000119,gold,800,I,m,m,None,622,422.0,200.0,97,1,1961.199999988079,439834.60000002384,7171,gold,NF,C,437264,437264,435736,436547,435736,437697,437064,437064,437697,127
127,test,1,inc,1,m,Wed Sep 10 2025 16:14:28 GMT-0500 (Central Daylight Time),443811.90000003576,lime,800,I,m,m,None,672,472.0,200.0,125,1,2012.4000000357628,441799.5,7171,lead,NF,C,439230,439230,437701,438514,437701,439713,439030,439030,439713,128
