acc_sum,block,block_c,block_cond,con_img,correct,correct_response,datetime,endtime,face,jitter,line,project,response,response_time,row_sel,session_number,start_end,starttime,subject_id,task,task_vers,trial
1,prac,1,A,haborder.png,1,z,Thu Aug 21 2025 11:32:38 GMT-0500 (Central Daylight Time),45079.199999928474,CFD-WF-037-016-A.jpg,1600,solid,I,z,813,10,3,3215.6999999284744,41863.5,8022,ATS,C,1
2,prac,1,A,haborder.png,1,z,Thu Aug 21 2025 11:32:38 GMT-0500 (Central Daylight Time),48127.89999997616,CFD-BM-043-014-A.jpg,1600,solid,I,z,658,2,3,6264.399999976158,41863.5,8022,ATS,C,2
3,prac,1,A,haborder.png,1,z,Thu Aug 21 2025 11:32:38 GMT-0500 (Central Daylight Time),50560.699999928474,CFD-WF-023-013-A.jpg,1000,solid,I,z,648,12,3,8697.199999928474,41863.5,8022,ATS,C,3
4,prac,1,A,haborder.png,1,m,Thu Aug 21 2025 11:32:38 GMT-0500 (Central Daylight Time),54109.60000002384,CFD-BF-019-004-HC.jpg,2000,solid,I,m,760,5,3,12246.100000023842,41863.5,8022,ATS,C,4
5,prac,1,A,haborder.png,1,z,Thu Aug 21 2025 11:32:38 GMT-0500 (Central Daylight Time),57575.199999928474,CFD-WM-036-018-A.jpg,1900,solid,I,z,767,8,3,15711.699999928474,41863.5,8022,ATS,C,5
6,prac,1,A,haborder.png,1,m,Thu Aug 21 2025 11:32:38 GMT-0500 (Central Daylight Time),60590.799999952316,CFD-BM-022-004-HC.jpg,1500,solid,I,m,725,3,3,18727.299999952316,41863.5,8022,ATS,C,6
7,prac,1,A,haborder.png,1,z,Thu Aug 21 2025 11:32:38 GMT-0500 (Central Daylight Time),63190.0,CFD-BF-002-018-A.jpg,1200,solid,I,z,608,6,3,21326.5,41863.5,8022,ATS,C,7
8,prac,1,A,haborder.png,1,z,Thu Aug 21 2025 11:32:38 GMT-0500 (Central Daylight Time),65789.0,CFD-BF-031-020-A.jpg,1000,solid,I,z,803,4,3,23925.5,41863.5,8022,ATS,C,8
9,prac,1,A,haborder.png,1,m,Thu Aug 21 2025 11:32:38 GMT-0500 (Central Daylight Time),69071.39999997616,CFD-BM-034-035-HC.jpg,1700,solid,I,m,799,1,3,27207.899999976158,41863.5,8022,ATS,C,9
10,prac,1,A,haborder.png,1,m,Thu Aug 21 2025 11:32:38 GMT-0500 (Central Daylight Time),72271.10000002384,CFD-WF-013-009-HC.jpg,1500,solid,I,m,909,11,3,30407.600000023842,41863.5,8022,ATS,C,10
11,prac,1,A,haborder.png,1,m,Thu Aug 21 2025 11:32:38 GMT-0500 (Central Daylight Time),75119.69999992847,CFD-WM-028-005-HC.jpg,1400,solid,I,m,665,7,3,33256.199999928474,41863.5,8022,ATS,C,11
11,prac,1,A,haborder.png,0,m,Thu Aug 21 2025 11:32:38 GMT-0500 (Central Daylight Time),78734.89999997616,CFD-WM-035-036-HC.jpg,1700,solid,I,z,1125,9,3,36871.39999997616,41863.5,8022,ATS,C,12
1,prac,1,B,mfborder.png,1,m,Thu Aug 21 2025 11:32:38 GMT-0500 (Central Daylight Time),119138.89999997616,CFD-BM-021-026-A.jpg,1600,2,I,m,928,dash,3,3315.5,115823.39999997616,8022,ATS,C,1
2,prac,1,B,mfborder.png,1,z,Thu Aug 21 2025 11:32:38 GMT-0500 (Central Daylight Time),122638.10000002384,CFD-WF-001-010-HC.jpg,1900,8,I,z,810,dash,3,6814.700000047684,115823.39999997616,8022,ATS,C,2
3,prac,1,B,mfborder.png,1,z,Thu Aug 21 2025 11:32:38 GMT-0500 (Central Daylight Time),126086.69999992847,CFD-BF-019-004-HC.jpg,1400,7,I,z,1259,dash,3,10263.299999952316,115823.39999997616,8022,ATS,C,3
4,prac,1,B,mfborder.png,1,z,Thu Aug 21 2025 11:32:38 GMT-0500 (Central Daylight Time),128786.10000002384,CFD-BF-031-020-A.jpg,1000,4,I,z,905,dash,3,12962.700000047684,115823.39999997616,8022,ATS,C,4
5,prac,1,B,mfborder.png,1,m,Thu Aug 21 2025 11:32:38 GMT-0500 (Central Daylight Time),132101.60000002384,CFD-WM-036-018-A.jpg,1700,9,I,m,826,dash,3,16278.200000047684,115823.39999997616,8022,ATS,C,5
6,prac,1,B,mfborder.png,1,m,Thu Aug 21 2025 11:32:38 GMT-0500 (Central Daylight Time),134884.39999997616,CFD-WM-034-040-A.jpg,1200,6,I,m,795,dash,3,19061.0,115823.39999997616,8022,ATS,C,6
7,prac,1,B,mfborder.png,1,m,Thu Aug 21 2025 11:32:38 GMT-0500 (Central Daylight Time),138549.60000002384,CFD-BM-043-014-A.jpg,2000,5,I,m,867,dash,3,22726.200000047684,115823.39999997616,8022,ATS,C,7
8,prac,1,B,mfborder.png,1,z,Thu Aug 21 2025 11:32:38 GMT-0500 (Central Daylight Time),141581.89999997616,CFD-BF-042-031-HC.jpg,1500,3,I,z,734,dash,3,25758.5,115823.39999997616,8022,ATS,C,8
9,prac,1,B,mfborder.png,1,z,Thu Aug 21 2025 11:32:38 GMT-0500 (Central Daylight Time),144031.19999992847,CFD-WF-013-009-HC.jpg,1000,12,I,z,650,dash,3,28207.799999952316,115823.39999997616,8022,ATS,C,9
10,prac,1,B,mfborder.png,1,z,Thu Aug 21 2025 11:32:38 GMT-0500 (Central Daylight Time),147113.69999992847,CFD-WF-037-016-A.jpg,1500,11,I,z,789,dash,3,31290.299999952316,115823.39999997616,8022,ATS,C,10
11,prac,1,B,mfborder.png,1,m,Thu Aug 21 2025 11:32:38 GMT-0500 (Central Daylight Time),150362.39999997616,CFD-WM-035-036-HC.jpg,1600,10,I,m,863,dash,3,34539.0,115823.39999997616,8022,ATS,C,11
12,prac,1,B,mfborder.png,1,m,Thu Aug 21 2025 11:32:38 GMT-0500 (Central Daylight Time),153661.60000002384,CFD-BM-022-004-HC.jpg,1700,1,I,m,810,dash,3,37838.200000047684,115823.39999997616,8022,ATS,C,12
1,test,1,A,haborder.png,1,m,Thu Aug 21 2025 11:32:38 GMT-0500 (Central Daylight Time),171806.0,CFD-WF-013-009-HC.jpg,1500,solid,I,m,761,11,3,2282.8000000715256,169523.19999992847,8022,ATS,C,1
2,test,1,A,haborder.png,1,z,Thu Aug 21 2025 11:32:38 GMT-0500 (Central Daylight Time),173555.29999995232,CFD-BF-031-020-A.jpg,1000,solid,I,z,730,4,3,4032.100000023842,169523.19999992847,8022,ATS,C,2
3,test,1,A,haborder.png,1,m,Thu Aug 21 2025 11:32:38 GMT-0500 (Central Daylight Time),175554.69999992847,CFD-WM-028-005-HC.jpg,1400,solid,I,m,572,7,3,6031.5,169523.19999992847,8022,ATS,C,3
4,test,1,A,haborder.png,1,m,Thu Aug 21 2025 11:32:38 GMT-0500 (Central Daylight Time),177953.79999995232,CFD-BM-034-035-HC.jpg,1700,solid,I,m,673,1,3,8430.600000023842,169523.19999992847,8022,ATS,C,4
5,test,1,A,haborder.png,1,z,Thu Aug 21 2025 11:32:38 GMT-0500 (Central Daylight Time),180569.5,CFD-WM-036-018-A.jpg,1900,solid,I,z,699,8,3,11046.300000071526,169523.19999992847,8022,ATS,C,5
6,test,1,A,haborder.png,1,z,Thu Aug 21 2025 11:32:38 GMT-0500 (Central Daylight Time),182868.89999997616,CFD-WF-037-016-A.jpg,1600,solid,I,z,678,10,3,13345.700000047684,169523.19999992847,8022,ATS,C,6
7,test,1,A,haborder.png,1,z,Thu Aug 21 2025 11:32:38 GMT-0500 (Central Daylight Time),184851.89999997616,CFD-BF-002-018-A.jpg,1200,solid,I,z,763,6,3,15328.700000047684,169523.19999992847,8022,ATS,C,7
8,test,1,A,haborder.png,1,z,Thu Aug 21 2025 11:32:38 GMT-0500 (Central Daylight Time),186501.0,CFD-WF-023-013-A.jpg,1000,solid,I,z,620,12,3,16977.800000071526,169523.19999992847,8022,ATS,C,8
9,test,1,A,haborder.png,1,z,Thu Aug 21 2025 11:32:38 GMT-0500 (Central Daylight Time),188850.29999995232,CFD-WF-037-016-A.jpg,1600,solid,I,z,730,10,3,19327.100000023842,169523.19999992847,8022,ATS,C,9
10,test,1,A,haborder.png,1,m,Thu Aug 21 2025 11:32:38 GMT-0500 (Central Daylight Time),191216.39999997616,CFD-BM-022-004-HC.jpg,1500,solid,I,m,833,3,3,21693.200000047684,169523.19999992847,8022,ATS,C,10
11,test,1,A,haborder.png,1,m,Thu Aug 21 2025 11:32:38 GMT-0500 (Central Daylight Time),193569.29999995232,CFD-WM-035-036-HC.jpg,1700,solid,I,m,620,9,3,24046.100000023842,169523.19999992847,8022,ATS,C,11
12,test,1,A,haborder.png,1,m,Thu Aug 21 2025 11:32:38 GMT-0500 (Central Daylight Time),195948.39999997616,CFD-WM-028-005-HC.jpg,1400,solid,I,m,954,7,3,26425.200000047684,169523.19999992847,8022,ATS,C,12
13,test,1,A,haborder.png,1,m,Thu Aug 21 2025 11:32:38 GMT-0500 (Central Daylight Time),198397.39999997616,CFD-BM-034-035-HC.jpg,1700,solid,I,m,728,1,3,28874.200000047684,169523.19999992847,8022,ATS,C,13
14,test,1,A,haborder.png,1,z,Thu Aug 21 2025 11:32:38 GMT-0500 (Central Daylight Time),200763.5,CFD-BM-043-014-A.jpg,1600,solid,I,z,738,2,3,31240.300000071526,169523.19999992847,8022,ATS,C,14
15,test,1,A,haborder.png,1,z,Thu Aug 21 2025 11:32:38 GMT-0500 (Central Daylight Time),203046.0,CFD-BM-043-014-A.jpg,1600,solid,I,z,652,2,3,33522.800000071526,169523.19999992847,8022,ATS,C,15
16,test,1,A,haborder.png,1,m,Thu Aug 21 2025 11:32:38 GMT-0500 (Central Daylight Time),205195.29999995232,CFD-WF-013-009-HC.jpg,1500,solid,I,m,629,11,3,35672.10000002384,169523.19999992847,8022,ATS,C,16
17,test,1,A,haborder.png,1,m,Thu Aug 21 2025 11:32:38 GMT-0500 (Central Daylight Time),208028.5,CFD-BF-019-004-HC.jpg,2000,solid,I,m,805,5,3,38505.300000071526,169523.19999992847,8022,ATS,C,17
18,test,1,A,haborder.png,1,z,Thu Aug 21 2025 11:32:38 GMT-0500 (Central Daylight Time),209727.19999992847,CFD-BF-031-020-A.jpg,1000,solid,I,z,667,4,3,40204.0,169523.19999992847,8022,ATS,C,18
19,test,1,A,haborder.png,1,m,Thu Aug 21 2025 11:32:38 GMT-0500 (Central Daylight Time),212476.29999995232,CFD-BF-019-004-HC.jpg,2000,solid,I,m,729,5,3,42953.10000002384,169523.19999992847,8022,ATS,C,19
20,test,1,A,haborder.png,1,z,Thu Aug 21 2025 11:32:38 GMT-0500 (Central Daylight Time),214292.60000002384,CFD-BF-002-018-A.jpg,1200,solid,I,z,587,6,3,44769.40000009537,169523.19999992847,8022,ATS,C,20
21,test,1,A,haborder.png,1,z,Thu Aug 21 2025 11:32:38 GMT-0500 (Central Daylight Time),216041.79999995232,CFD-WF-023-013-A.jpg,1000,solid,I,z,732,12,3,46518.60000002384,169523.19999992847,8022,ATS,C,21
22,test,1,A,haborder.png,1,m,Thu Aug 21 2025 11:32:38 GMT-0500 (Central Daylight Time),218274.29999995232,CFD-BM-022-004-HC.jpg,1500,solid,I,m,715,3,3,48751.10000002384,169523.19999992847,8022,ATS,C,22
23,test,1,A,haborder.png,1,z,Thu Aug 21 2025 11:32:38 GMT-0500 (Central Daylight Time),221173.5,CFD-WM-036-018-A.jpg,1900,solid,I,z,970,8,3,51650.300000071526,169523.19999992847,8022,ATS,C,23
24,test,1,A,haborder.png,1,m,Thu Aug 21 2025 11:32:38 GMT-0500 (Central Daylight Time),223539.60000002384,CFD-WM-035-036-HC.jpg,1700,solid,I,m,638,9,3,54016.40000009537,169523.19999992847,8022,ATS,C,24
1,test,1,B,mfborder.png,1,z,Thu Aug 21 2025 11:32:38 GMT-0500 (Central Daylight Time),237251.79999995232,CFD-BF-042-031-HC.jpg,1500,dash,I,z,680,3,3,2199.100000023842,235052.69999992847,8022,ATS,C,1
2,test,1,B,mfborder.png,1,m,Thu Aug 21 2025 11:32:38 GMT-0500 (Central Daylight Time),239451.29999995232,CFD-WM-035-036-HC.jpg,1600,dash,I,m,571,10,3,4398.600000023842,235052.69999992847,8022,ATS,C,2
3,test,1,B,mfborder.png,1,z,Thu Aug 21 2025 11:32:38 GMT-0500 (Central Daylight Time),241850.39999997616,CFD-WF-001-010-HC.jpg,1900,dash,I,z,480,8,3,6797.700000047684,235052.69999992847,8022,ATS,C,3
4,test,1,B,mfborder.png,1,z,Thu Aug 21 2025 11:32:38 GMT-0500 (Central Daylight Time),244383.29999995232,CFD-WF-001-010-HC.jpg,1900,dash,I,z,610,8,3,9330.600000023842,235052.69999992847,8022,ATS,C,4
5,test,1,B,mfborder.png,1,z,Thu Aug 21 2025 11:32:38 GMT-0500 (Central Daylight Time),246182.39999997616,CFD-BF-031-020-A.jpg,1000,dash,I,z,778,4,3,11129.700000047684,235052.69999992847,8022,ATS,C,5
6,test,1,B,mfborder.png,1,m,Thu Aug 21 2025 11:32:38 GMT-0500 (Central Daylight Time),248931.5,CFD-BM-043-014-A.jpg,2000,dash,I,m,722,5,3,13878.800000071526,235052.69999992847,8022,ATS,C,6
7,test,1,B,mfborder.png,1,m,Thu Aug 21 2025 11:32:38 GMT-0500 (Central Daylight Time),251164.19999992847,CFD-WM-035-036-HC.jpg,1600,dash,I,m,612,10,3,16111.5,235052.69999992847,8022,ATS,C,7
8,test,1,B,mfborder.png,1,m,Thu Aug 21 2025 11:32:38 GMT-0500 (Central Daylight Time),253046.89999997616,CFD-WM-034-040-A.jpg,1200,dash,I,m,660,6,3,17994.200000047684,235052.69999992847,8022,ATS,C,8
9,test,1,B,mfborder.png,1,z,Thu Aug 21 2025 11:32:38 GMT-0500 (Central Daylight Time),254646.29999995232,CFD-BF-031-020-A.jpg,1000,dash,I,z,568,4,3,19593.600000023842,235052.69999992847,8022,ATS,C,9
10,test,1,B,mfborder.png,1,z,Thu Aug 21 2025 11:32:38 GMT-0500 (Central Daylight Time),256379.5,CFD-WF-013-009-HC.jpg,1000,dash,I,z,714,12,3,21326.800000071526,235052.69999992847,8022,ATS,C,10
11,test,1,B,mfborder.png,1,m,Thu Aug 21 2025 11:32:38 GMT-0500 (Central Daylight Time),258628.69999992847,CFD-BM-021-026-A.jpg,1600,dash,I,m,620,2,3,23576.0,235052.69999992847,8022,ATS,C,11
12,test,1,B,mfborder.png,1,m,Thu Aug 21 2025 11:32:38 GMT-0500 (Central Daylight Time),260561.29999995232,CFD-WM-034-040-A.jpg,1200,dash,I,m,700,6,3,25508.600000023842,235052.69999992847,8022,ATS,C,12
13,test,1,B,mfborder.png,1,m,Thu Aug 21 2025 11:32:38 GMT-0500 (Central Daylight Time),262827.0,CFD-WM-036-018-A.jpg,1700,dash,I,m,546,9,3,27774.300000071526,235052.69999992847,8022,ATS,C,13
14,test,1,B,mfborder.png,1,m,Thu Aug 21 2025 11:32:38 GMT-0500 (Central Daylight Time),265193.10000002384,CFD-BM-022-004-HC.jpg,1700,dash,I,m,649,1,3,30140.400000095367,235052.69999992847,8022,ATS,C,14
15,test,1,B,mfborder.png,1,m,Thu Aug 21 2025 11:32:38 GMT-0500 (Central Daylight Time),267892.39999997616,CFD-BM-043-014-A.jpg,2000,dash,I,m,672,5,3,32839.700000047684,235052.69999992847,8022,ATS,C,15
16,test,1,B,mfborder.png,1,m,Thu Aug 21 2025 11:32:38 GMT-0500 (Central Daylight Time),270108.5,CFD-BM-021-026-A.jpg,1600,dash,I,m,588,2,3,35055.800000071526,235052.69999992847,8022,ATS,C,16
17,test,1,B,mfborder.png,1,m,Thu Aug 21 2025 11:32:38 GMT-0500 (Central Daylight Time),272340.89999997616,CFD-BM-022-004-HC.jpg,1700,dash,I,m,512,1,3,37288.200000047684,235052.69999992847,8022,ATS,C,17
18,test,1,B,mfborder.png,1,m,Thu Aug 21 2025 11:32:38 GMT-0500 (Central Daylight Time),274657.0,CFD-WM-036-018-A.jpg,1700,dash,I,m,592,9,3,39604.300000071526,235052.69999992847,8022,ATS,C,18
19,test,1,B,mfborder.png,1,z,Thu Aug 21 2025 11:32:38 GMT-0500 (Central Daylight Time),276306.5,CFD-WF-013-009-HC.jpg,1000,dash,I,z,623,12,3,41253.800000071526,235052.69999992847,8022,ATS,C,19
20,test,1,B,mfborder.png,1,z,Thu Aug 21 2025 11:32:38 GMT-0500 (Central Daylight Time),278389.0,CFD-BF-042-031-HC.jpg,1500,dash,I,z,562,3,3,43336.300000071526,235052.69999992847,8022,ATS,C,20
21,test,1,B,mfborder.png,1,z,Thu Aug 21 2025 11:32:38 GMT-0500 (Central Daylight Time),280321.60000002384,CFD-BF-019-004-HC.jpg,1400,dash,I,z,514,7,3,45268.90000009537,235052.69999992847,8022,ATS,C,21
22,test,1,B,mfborder.png,1,z,Thu Aug 21 2025 11:32:38 GMT-0500 (Central Daylight Time),282504.5,CFD-WF-037-016-A.jpg,1500,dash,I,z,650,11,3,47451.800000071526,235052.69999992847,8022,ATS,C,22
23,test,1,B,mfborder.png,1,z,Thu Aug 21 2025 11:32:38 GMT-0500 (Central Daylight Time),284553.89999997616,CFD-WF-037-016-A.jpg,1500,dash,I,z,524,11,3,49501.200000047684,235052.69999992847,8022,ATS,C,23
24,test,1,B,mfborder.png,1,z,Thu Aug 21 2025 11:32:38 GMT-0500 (Central Daylight Time),286419.7999999523,CFD-BF-019-004-HC.jpg,1400,dash,I,z,447,7,3,51367.10000002384,235052.69999992847,8022,ATS,C,24
1,prac,1,C,haborder.png,1,m,Thu Aug 21 2025 11:32:38 GMT-0500 (Central Daylight Time),336987.39999997616,CFD-WM-028-005-HC.jpg,1000,dash,I,m,1070,7,3,2865.899999976158,334121.5,8022,ATS,C,1
2,prac,1,C,mfborder.png,1,z,Thu Aug 21 2025 11:32:38 GMT-0500 (Central Daylight Time),340602.89999997616,CFD-WF-023-013-A.jpg,1500,solid,I,z,1328,7,3,6481.399999976158,334121.5,8022,ATS,C,2
3,prac,1,C,mfborder.png,1,z,Thu Aug 21 2025 11:32:38 GMT-0500 (Central Daylight Time),344135.10000002384,CFD-WF-013-009-HC.jpg,1600,dash,I,z,1134,7,3,10013.600000023842,334121.5,8022,ATS,C,3
4,prac,1,C,mfborder.png,1,m,Thu Aug 21 2025 11:32:38 GMT-0500 (Central Daylight Time),347983.89999997616,CFD-BM-034-035-HC.jpg,2000,solid,I,m,1058,7,3,13862.399999976158,334121.5,8022,ATS,C,4
5,prac,1,C,haborder.png,1,z,Thu Aug 21 2025 11:32:38 GMT-0500 (Central Daylight Time),351216.6999999285,CFD-BF-002-018-A.jpg,1700,solid,I,z,764,7,3,17095.199999928474,334121.5,8022,ATS,C,5
6,prac,1,C,haborder.png,1,m,Thu Aug 21 2025 11:32:38 GMT-0500 (Central Daylight Time),354382.0,CFD-WM-028-005-HC.jpg,1400,solid,I,m,967,7,3,20260.5,334121.5,8022,ATS,C,6
7,prac,1,C,haborder.png,1,m,Thu Aug 21 2025 11:32:38 GMT-0500 (Central Daylight Time),358097.1999999285,CFD-BM-022-004-HC.jpg,1500,solid,I,m,1423,7,3,23975.699999928474,334121.5,8022,ATS,C,7
8,prac,1,C,mfborder.png,1,m,Thu Aug 21 2025 11:32:38 GMT-0500 (Central Daylight Time),361329.6999999285,CFD-BM-043-014-A.jpg,1200,dash,I,m,1239,7,3,27208.199999928474,334121.5,8022,ATS,C,8
9,prac,1,C,mfborder.png,1,z,Thu Aug 21 2025 11:32:38 GMT-0500 (Central Daylight Time),363829.60000002384,CFD-BF-019-004-HC.jpg,1000,dash,I,z,726,7,3,29708.100000023842,334121.5,8022,ATS,C,9
10,prac,1,C,haborder.png,1,z,Thu Aug 21 2025 11:32:38 GMT-0500 (Central Daylight Time),367261.2999999523,CFD-WF-037-016-A.jpg,1600,dash,I,z,1035,7,3,33139.799999952316,334121.5,8022,ATS,C,10
11,prac,1,C,mfborder.png,1,m,Thu Aug 21 2025 11:32:38 GMT-0500 (Central Daylight Time),371176.89999997616,CFD-WM-036-018-A.jpg,1700,solid,I,m,1424,7,3,37055.39999997616,334121.5,8022,ATS,C,11
11,prac,1,C,haborder.png,0,z,Thu Aug 21 2025 11:32:38 GMT-0500 (Central Daylight Time),375375.10000002384,CFD-BF-031-020-A.jpg,1900,dash,I,None,1516,7,3,41253.60000002384,334121.5,8022,ATS,C,12
1,test,1,C,mfborder.png,1,m,Thu Aug 21 2025 11:32:38 GMT-0500 (Central Daylight Time),391620.1999999285,CFD-WM-035-036-HC.jpg,1000,dash,I,m,896,4,3,1916.0999999046326,389704.10000002384,8022,ATS,C,1
2,test,1,C,haborder.png,1,m,Thu Aug 21 2025 11:32:38 GMT-0500 (Central Daylight Time),394302.60000002384,CFD-WF-001-010-HC.jpg,1500,solid,I,m,1160,11,3,4598.5,389704.10000002384,8022,ATS,C,2
2,test,1,C,mfborder.png,0,z,Thu Aug 21 2025 11:32:38 GMT-0500 (Central Daylight Time),397618.5,CFD-BF-042-031-HC.jpg,1700,dash,I,None,1599,1,3,7914.399999976158,389704.10000002384,8022,ATS,C,3
2,test,1,C,mfborder.png,0,m,Thu Aug 21 2025 11:32:38 GMT-0500 (Central Daylight Time),400634.10000002384,CFD-WM-034-040-A.jpg,2000,dash,I,z,990,5,3,10930.0,389704.10000002384,8022,ATS,C,4
3,test,1,C,haborder.png,1,z,Thu Aug 21 2025 11:32:38 GMT-0500 (Central Daylight Time),403932.89999997616,CFD-BM-043-014-A.jpg,1900,solid,I,z,1370,8,3,14228.799999952316,389704.10000002384,8022,ATS,C,5
4,test,1,C,mfborder.png,1,z,Thu Aug 21 2025 11:32:38 GMT-0500 (Central Daylight Time),406415.89999997616,CFD-BF-031-020-A.jpg,1600,dash,I,z,860,2,3,16711.799999952316,389704.10000002384,8022,ATS,C,6
4,test,1,C,haborder.png,0,z,Thu Aug 21 2025 11:32:38 GMT-0500 (Central Daylight Time),409347.89999997616,CFD-WM-036-018-A.jpg,1400,solid,I,None,1516,7,3,19643.799999952316,389704.10000002384,8022,ATS,C,7
4,test,1,C,mfborder.png,0,z,Thu Aug 21 2025 11:32:38 GMT-0500 (Central Daylight Time),412247.0,CFD-BF-031-020-A.jpg,1600,dash,I,m,1268,2,3,22542.899999976158,389704.10000002384,8022,ATS,C,8
4,test,1,C,haborder.png,0,m,Thu Aug 21 2025 11:32:38 GMT-0500 (Central Daylight Time),414429.7999999523,CFD-WF-013-009-HC.jpg,1000,solid,I,z,1153,12,3,24725.699999928474,389704.10000002384,8022,ATS,C,9
4,test,1,C,mfborder.png,0,z,Thu Aug 21 2025 11:32:38 GMT-0500 (Central Daylight Time),417212.1999999285,CFD-WF-037-016-A.jpg,1500,dash,I,m,1262,3,3,27508.099999904633,389704.10000002384,8022,ATS,C,10
4,test,1,C,haborder.png,0,z,Thu Aug 21 2025 11:32:38 GMT-0500 (Central Daylight Time),419961.1999999285,CFD-BM-043-014-A.jpg,1900,solid,I,m,831,8,3,30257.099999904633,389704.10000002384,8022,ATS,C,11
4,test,1,C,haborder.png,0,m,Thu Aug 21 2025 11:32:38 GMT-0500 (Central Daylight Time),422660.39999997616,CFD-BF-019-004-HC.jpg,1600,solid,I,z,1077,10,3,32956.299999952316,389704.10000002384,8022,ATS,C,12
5,test,1,C,haborder.png,1,m,Thu Aug 21 2025 11:32:38 GMT-0500 (Central Daylight Time),425209.60000002384,CFD-BF-019-004-HC.jpg,1600,solid,I,m,924,10,3,35505.5,389704.10000002384,8022,ATS,C,13
6,test,1,C,mfborder.png,1,m,Thu Aug 21 2025 11:32:38 GMT-0500 (Central Daylight Time),427542.1999999285,CFD-WM-035-036-HC.jpg,1000,dash,I,m,1311,4,3,37838.09999990463,389704.10000002384,8022,ATS,C,14
6,test,1,C,haborder.png,0,z,Thu Aug 21 2025 11:32:38 GMT-0500 (Central Daylight Time),430774.7999999523,CFD-BM-021-026-A.jpg,1700,solid,I,None,1516,9,3,41070.699999928474,389704.10000002384,8022,ATS,C,15
7,test,1,C,mfborder.png,1,m,Thu Aug 21 2025 11:32:38 GMT-0500 (Central Daylight Time),433656.89999997616,CFD-WM-034-040-A.jpg,2000,dash,I,m,866,5,3,43952.799999952316,389704.10000002384,8022,ATS,C,16
7,test,1,C,mfborder.png,0,z,Thu Aug 21 2025 11:32:38 GMT-0500 (Central Daylight Time),436622.6999999285,CFD-BF-042-031-HC.jpg,1700,dash,I,m,1235,1,3,46918.59999990463,389704.10000002384,8022,ATS,C,17
8,test,1,C,haborder.png,1,m,Thu Aug 21 2025 11:32:38 GMT-0500 (Central Daylight Time),439171.6999999285,CFD-WF-001-010-HC.jpg,1500,solid,I,m,1022,11,3,49467.59999990463,389704.10000002384,8022,ATS,C,18
9,test,1,C,mfborder.png,1,m,Thu Aug 21 2025 11:32:38 GMT-0500 (Central Daylight Time),441504.60000002384,CFD-BM-022-004-HC.jpg,1200,dash,I,m,1107,6,3,51800.5,389704.10000002384,8022,ATS,C,19
10,test,1,C,mfborder.png,1,m,Thu Aug 21 2025 11:32:38 GMT-0500 (Central Daylight Time),443687.2999999523,CFD-BM-022-004-HC.jpg,1200,dash,I,m,960,6,3,53983.199999928474,389704.10000002384,8022,ATS,C,20
11,test,1,C,mfborder.png,1,z,Thu Aug 21 2025 11:32:38 GMT-0500 (Central Daylight Time),446069.7999999523,CFD-WF-037-016-A.jpg,1500,dash,I,z,853,3,3,56365.699999928474,389704.10000002384,8022,ATS,C,21
12,test,1,C,haborder.png,1,z,Thu Aug 21 2025 11:32:38 GMT-0500 (Central Daylight Time),448768.89999997616,CFD-BM-021-026-A.jpg,1700,solid,I,z,975,9,3,59064.799999952316,389704.10000002384,8022,ATS,C,22
13,test,1,C,haborder.png,1,z,Thu Aug 21 2025 11:32:38 GMT-0500 (Central Daylight Time),451068.2999999523,CFD-WM-036-018-A.jpg,1400,solid,I,z,880,7,3,61364.199999928474,389704.10000002384,8022,ATS,C,23
14,test,1,C,haborder.png,1,m,Thu Aug 21 2025 11:32:38 GMT-0500 (Central Daylight Time),453100.89999997616,CFD-WF-013-009-HC.jpg,1000,solid,I,m,1012,12,3,63396.799999952316,389704.10000002384,8022,ATS,C,24
1,test,2,C,mfborder.png,1,z,Thu Aug 21 2025 11:32:38 GMT-0500 (Central Daylight Time),466597.6999999285,CFD-WF-023-013-A.jpg,1600,dash,I,z,1212,2,3,2833.5999999046326,463764.10000002384,8022,ATS,C,1
2,test,2,C,mfborder.png,1,m,Thu Aug 21 2025 11:32:38 GMT-0500 (Central Daylight Time),468356.0,CFD-BM-034-035-HC.jpg,1000,dash,I,m,743,4,3,4591.899999976158,463764.10000002384,8022,ATS,C,2
3,test,2,C,haborder.png,1,z,Thu Aug 21 2025 11:32:38 GMT-0500 (Central Daylight Time),471145.2999999523,CFD-BF-002-018-A.jpg,1900,solid,I,z,858,8,3,7381.199999928474,463764.10000002384,8022,ATS,C,3
4,test,2,C,mfborder.png,1,m,Thu Aug 21 2025 11:32:38 GMT-0500 (Central Daylight Time),473127.89999997616,CFD-WM-036-018-A.jpg,1200,dash,I,m,750,6,3,9363.799999952316,463764.10000002384,8022,ATS,C,4
5,test,2,C,haborder.png,1,m,Thu Aug 21 2025 11:32:38 GMT-0500 (Central Daylight Time),475177.0,CFD-WM-028-005-HC.jpg,1000,solid,I,m,1032,12,3,11412.899999976158,463764.10000002384,8022,ATS,C,5
6,test,2,C,mfborder.png,1,z,Thu Aug 21 2025 11:32:38 GMT-0500 (Central Daylight Time),477743.0,CFD-WF-013-009-HC.jpg,1700,dash,I,z,844,1,3,13978.899999976158,463764.10000002384,8022,ATS,C,6
6,test,2,C,haborder.png,0,m,Thu Aug 21 2025 11:32:38 GMT-0500 (Central Daylight Time),479975.6999999285,CFD-WM-028-005-HC.jpg,1000,solid,I,z,1208,12,3,16211.599999904633,463764.10000002384,8022,ATS,C,7
7,test,2,C,mfborder.png,1,m,Thu Aug 21 2025 11:32:38 GMT-0500 (Central Daylight Time),483141.39999997616,CFD-BM-043-014-A.jpg,2000,dash,I,m,1137,5,3,19377.299999952316,463764.10000002384,8022,ATS,C,8
8,test,2,C,mfborder.png,1,m,Thu Aug 21 2025 11:32:38 GMT-0500 (Central Daylight Time),485044.60000002384,CFD-BM-034-035-HC.jpg,1000,dash,I,m,883,4,3,21280.5,463764.10000002384,8022,ATS,C,9
9,test,2,C,haborder.png,1,z,Thu Aug 21 2025 11:32:38 GMT-0500 (Central Daylight Time),487740.1999999285,CFD-BF-002-018-A.jpg,1900,solid,I,z,772,8,3,23976.099999904633,463764.10000002384,8022,ATS,C,10
10,test,2,C,mfborder.png,1,z,Thu Aug 21 2025 11:32:38 GMT-0500 (Central Daylight Time),490305.7999999523,CFD-BF-019-004-HC.jpg,1500,dash,I,z,1041,3,3,26541.699999928474,463764.10000002384,8022,ATS,C,11
11,test,2,C,haborder.png,1,z,Thu Aug 21 2025 11:32:38 GMT-0500 (Central Daylight Time),493138.1999999285,CFD-WF-037-016-A.jpg,1700,solid,I,z,1107,9,3,29374.099999904633,463764.10000002384,8022,ATS,C,12
11,test,2,C,haborder.png,0,m,Thu Aug 21 2025 11:32:38 GMT-0500 (Central Daylight Time),495787.5,CFD-BM-022-004-HC.jpg,1600,solid,I,z,1031,10,3,32023.399999976158,463764.10000002384,8022,ATS,C,13
12,test,2,C,haborder.png,1,z,Thu Aug 21 2025 11:32:38 GMT-0500 (Central Daylight Time),498020.10000002384,CFD-BF-031-020-A.jpg,1400,solid,I,z,812,7,3,34256.0,463764.10000002384,8022,ATS,C,14
13,test,2,C,mfborder.png,1,m,Thu Aug 21 2025 11:32:38 GMT-0500 (Central Daylight Time),500202.7999999523,CFD-WM-036-018-A.jpg,1200,dash,I,m,956,6,3,36438.699999928474,463764.10000002384,8022,ATS,C,15
14,test,2,C,mfborder.png,1,z,Thu Aug 21 2025 11:32:38 GMT-0500 (Central Daylight Time),502535.60000002384,CFD-WF-023-013-A.jpg,1600,dash,I,z,701,2,3,38771.5,463764.10000002384,8022,ATS,C,16
15,test,2,C,haborder.png,1,m,Thu Aug 21 2025 11:32:38 GMT-0500 (Central Daylight Time),504984.6999999285,CFD-WM-028-005-HC.jpg,1500,solid,I,m,925,11,3,41220.59999990463,463764.10000002384,8022,ATS,C,17
16,test,2,C,haborder.png,1,z,Thu Aug 21 2025 11:32:38 GMT-0500 (Central Daylight Time),507600.5,CFD-WF-037-016-A.jpg,1700,solid,I,z,892,9,3,43836.39999997616,463764.10000002384,8022,ATS,C,18
17,test,2,C,mfborder.png,1,z,Thu Aug 21 2025 11:32:38 GMT-0500 (Central Daylight Time),509982.89999997616,CFD-BF-019-004-HC.jpg,1500,dash,I,z,851,3,3,46218.799999952316,463764.10000002384,8022,ATS,C,19
18,test,2,C,haborder.png,1,z,Thu Aug 21 2025 11:32:38 GMT-0500 (Central Daylight Time),512432.5,CFD-BF-031-020-A.jpg,1400,solid,I,z,1025,7,3,48668.39999997616,463764.10000002384,8022,ATS,C,20
19,test,2,C,mfborder.png,1,z,Thu Aug 21 2025 11:32:38 GMT-0500 (Central Daylight Time),514864.6999999285,CFD-WF-013-009-HC.jpg,1700,dash,I,z,707,1,3,51100.59999990463,463764.10000002384,8022,ATS,C,21
20,test,2,C,haborder.png,1,m,Thu Aug 21 2025 11:32:38 GMT-0500 (Central Daylight Time),517713.6999999285,CFD-WM-028-005-HC.jpg,1500,solid,I,m,1332,11,3,53949.59999990463,463764.10000002384,8022,ATS,C,22
21,test,2,C,haborder.png,1,m,Thu Aug 21 2025 11:32:38 GMT-0500 (Central Daylight Time),520379.7999999523,CFD-BM-022-004-HC.jpg,1600,solid,I,m,1047,10,3,56615.699999928474,463764.10000002384,8022,ATS,C,23
22,test,2,C,mfborder.png,1,m,Thu Aug 21 2025 11:32:38 GMT-0500 (Central Daylight Time),523395.5,CFD-BM-043-014-A.jpg,2000,dash,I,m,988,5,3,59631.39999997616,463764.10000002384,8022,ATS,C,24
0,test,3,C,haborder.png,0,z,Thu Aug 21 2025 11:32:38 GMT-0500 (Central Daylight Time),528727.0,CFD-BM-021-026-A.jpg,1700,solid,I,m,1360,9,3,3082.100000023842,525644.8999999762,8022,ATS,C,1
1,test,3,C,mfborder.png,1,m,Thu Aug 21 2025 11:32:38 GMT-0500 (Central Daylight Time),530760.0,CFD-BM-022-004-HC.jpg,1200,dash,I,m,809,6,3,5115.100000023842,525644.8999999762,8022,ATS,C,2
2,test,3,C,haborder.png,1,m,Thu Aug 21 2025 11:32:38 GMT-0500 (Central Daylight Time),533375.6000000238,CFD-BF-019-004-HC.jpg,1600,solid,I,m,984,10,3,7730.700000047684,525644.8999999762,8022,ATS,C,3
3,test,3,C,mfborder.png,1,z,Thu Aug 21 2025 11:32:38 GMT-0500 (Central Daylight Time),535958.2999999523,CFD-BF-042-031-HC.jpg,1700,dash,I,z,852,1,3,10313.399999976158,525644.8999999762,8022,ATS,C,4
3,test,3,C,haborder.png,0,m,Thu Aug 21 2025 11:32:38 GMT-0500 (Central Daylight Time),539108.5,CFD-BF-019-004-HC.jpg,1600,solid,I,None,1533,10,3,13463.600000023842,525644.8999999762,8022,ATS,C,5
4,test,3,C,mfborder.png,1,m,Thu Aug 21 2025 11:32:38 GMT-0500 (Central Daylight Time),542089.3999999762,CFD-WM-034-040-A.jpg,2000,dash,I,m,965,5,3,16444.5,525644.8999999762,8022,ATS,C,6
5,test,3,C,haborder.png,1,m,Thu Aug 21 2025 11:32:38 GMT-0500 (Central Daylight Time),544205.2999999523,CFD-WF-013-009-HC.jpg,1000,solid,I,m,1095,12,3,18560.399999976158,525644.8999999762,8022,ATS,C,7
6,test,3,C,haborder.png,1,z,Thu Aug 21 2025 11:32:38 GMT-0500 (Central Daylight Time),546771.6999999285,CFD-WM-036-018-A.jpg,1400,solid,I,z,1146,7,3,21126.799999952316,525644.8999999762,8022,ATS,C,8
7,test,3,C,mfborder.png,1,m,Thu Aug 21 2025 11:32:38 GMT-0500 (Central Daylight Time),548604.1999999285,CFD-WM-035-036-HC.jpg,1000,dash,I,m,805,4,3,22959.299999952316,525644.8999999762,8022,ATS,C,9
8,test,3,C,mfborder.png,1,m,Thu Aug 21 2025 11:32:38 GMT-0500 (Central Daylight Time),551503.5,CFD-WM-034-040-A.jpg,2000,dash,I,m,867,5,3,25858.600000023842,525644.8999999762,8022,ATS,C,10
8,test,3,C,mfborder.png,0,z,Thu Aug 21 2025 11:32:38 GMT-0500 (Central Daylight Time),554136.0,CFD-WF-037-016-A.jpg,1500,dash,I,m,1108,3,3,28491.100000023842,525644.8999999762,8022,ATS,C,11
9,test,3,C,mfborder.png,1,z,Thu Aug 21 2025 11:32:38 GMT-0500 (Central Daylight Time),556668.2999999523,CFD-BF-031-020-A.jpg,1600,dash,I,z,913,2,3,31023.399999976158,525644.8999999762,8022,ATS,C,12
10,test,3,C,haborder.png,1,m,Thu Aug 21 2025 11:32:38 GMT-0500 (Central Daylight Time),558601.0,CFD-WF-013-009-HC.jpg,1000,solid,I,m,900,12,3,32956.10000002384,525644.8999999762,8022,ATS,C,13
11,test,3,C,mfborder.png,1,z,Thu Aug 21 2025 11:32:38 GMT-0500 (Central Daylight Time),561250.1999999285,CFD-BF-031-020-A.jpg,1600,dash,I,z,1023,2,3,35605.299999952316,525644.8999999762,8022,ATS,C,14
12,test,3,C,haborder.png,1,m,Thu Aug 21 2025 11:32:38 GMT-0500 (Central Daylight Time),563616.1999999285,CFD-WF-001-010-HC.jpg,1500,solid,I,m,833,11,3,37971.299999952316,525644.8999999762,8022,ATS,C,15
13,test,3,C,mfborder.png,1,m,Thu Aug 21 2025 11:32:38 GMT-0500 (Central Daylight Time),565548.8999999762,CFD-WM-035-036-HC.jpg,1000,dash,I,m,912,4,3,39904.0,525644.8999999762,8022,ATS,C,16
14,test,3,C,haborder.png,1,z,Thu Aug 21 2025 11:32:38 GMT-0500 (Central Daylight Time),568114.7999999523,CFD-BM-021-026-A.jpg,1700,solid,I,z,848,9,3,42469.89999997616,525644.8999999762,8022,ATS,C,17
15,test,3,C,haborder.png,1,z,Thu Aug 21 2025 11:32:38 GMT-0500 (Central Daylight Time),570813.7999999523,CFD-BM-043-014-A.jpg,1900,solid,I,z,778,8,3,45168.89999997616,525644.8999999762,8022,ATS,C,18
16,test,3,C,mfborder.png,1,m,Thu Aug 21 2025 11:32:38 GMT-0500 (Central Daylight Time),572796.5,CFD-BM-022-004-HC.jpg,1200,dash,I,m,755,6,3,47151.60000002384,525644.8999999762,8022,ATS,C,19
17,test,3,C,haborder.png,1,z,Thu Aug 21 2025 11:32:38 GMT-0500 (Central Daylight Time),575079.1999999285,CFD-WM-036-018-A.jpg,1400,solid,I,z,860,7,3,49434.299999952316,525644.8999999762,8022,ATS,C,20
18,test,3,C,haborder.png,1,m,Thu Aug 21 2025 11:32:38 GMT-0500 (Central Daylight Time),577928.3999999762,CFD-WF-001-010-HC.jpg,1500,solid,I,m,1325,11,3,52283.5,525644.8999999762,8022,ATS,C,21
19,test,3,C,haborder.png,1,z,Thu Aug 21 2025 11:32:38 GMT-0500 (Central Daylight Time),580760.8999999762,CFD-BM-043-014-A.jpg,1900,solid,I,z,908,8,3,55116.0,525644.8999999762,8022,ATS,C,22
20,test,3,C,mfborder.png,1,z,Thu Aug 21 2025 11:32:38 GMT-0500 (Central Daylight Time),583143.2999999523,CFD-BF-042-031-HC.jpg,1700,dash,I,z,659,1,3,57498.39999997616,525644.8999999762,8022,ATS,C,23
21,test,3,C,mfborder.png,1,z,Thu Aug 21 2025 11:32:38 GMT-0500 (Central Daylight Time),585709.1000000238,CFD-WF-037-016-A.jpg,1500,dash,I,z,1045,3,3,60064.200000047684,525644.8999999762,8022,ATS,C,24
1,test,4,C,mfborder.png,1,z,Thu Aug 21 2025 11:32:38 GMT-0500 (Central Daylight Time),592340.7999999523,CFD-WF-023-013-A.jpg,1600,dash,I,z,903,2,3,2532.899999976158,589807.8999999762,8022,ATS,C,1
2,test,4,C,mfborder.png,1,z,Thu Aug 21 2025 11:32:38 GMT-0500 (Central Daylight Time),594756.5,CFD-WF-013-009-HC.jpg,1700,dash,I,z,696,1,3,4948.600000023842,589807.8999999762,8022,ATS,C,2
3,test,4,C,mfborder.png,1,z,Thu Aug 21 2025 11:32:38 GMT-0500 (Central Daylight Time),597022.5,CFD-BF-019-004-HC.jpg,1500,dash,I,z,744,3,3,7214.600000023842,589807.8999999762,8022,ATS,C,3
4,test,4,C,haborder.png,1,m,Thu Aug 21 2025 11:32:38 GMT-0500 (Central Daylight Time),599321.3999999762,CFD-WM-028-005-HC.jpg,1500,solid,I,m,782,11,3,9513.5,589807.8999999762,8022,ATS,C,4
5,test,4,C,haborder.png,1,z,Thu Aug 21 2025 11:32:38 GMT-0500 (Central Daylight Time),602087.5,CFD-BF-002-018-A.jpg,1900,solid,I,z,834,8,3,12279.600000023842,589807.8999999762,8022,ATS,C,5
6,test,4,C,haborder.png,1,m,Thu Aug 21 2025 11:32:38 GMT-0500 (Central Daylight Time),604469.6999999285,CFD-WM-028-005-HC.jpg,1500,solid,I,m,856,11,3,14661.799999952316,589807.8999999762,8022,ATS,C,6
7,test,4,C,haborder.png,1,z,Thu Aug 21 2025 11:32:38 GMT-0500 (Central Daylight Time),606886.1000000238,CFD-WF-037-016-A.jpg,1700,solid,I,z,686,9,3,17078.200000047684,589807.8999999762,8022,ATS,C,7
8,test,4,C,haborder.png,1,z,Thu Aug 21 2025 11:32:38 GMT-0500 (Central Daylight Time),609468.5,CFD-BF-002-018-A.jpg,1900,solid,I,z,654,8,3,19660.600000023842,589807.8999999762,8022,ATS,C,8
9,test,4,C,haborder.png,1,z,Thu Aug 21 2025 11:32:38 GMT-0500 (Central Daylight Time),611434.3999999762,CFD-BF-031-020-A.jpg,1400,solid,I,z,539,7,3,21626.5,589807.8999999762,8022,ATS,C,9
10,test,4,C,mfborder.png,1,m,Thu Aug 21 2025 11:32:38 GMT-0500 (Central Daylight Time),614017.2999999523,CFD-BM-043-014-A.jpg,2000,dash,I,m,558,5,3,24209.399999976158,589807.8999999762,8022,ATS,C,10
11,test,4,C,haborder.png,1,z,Thu Aug 21 2025 11:32:38 GMT-0500 (Central Daylight Time),616783.0,CFD-WF-037-016-A.jpg,1700,solid,I,z,1044,9,3,26975.100000023842,589807.8999999762,8022,ATS,C,11
12,test,4,C,mfborder.png,1,m,Thu Aug 21 2025 11:32:38 GMT-0500 (Central Daylight Time),619048.8999999762,CFD-WM-036-018-A.jpg,1200,dash,I,m,1050,6,3,29241.0,589807.8999999762,8022,ATS,C,12
13,test,4,C,mfborder.png,1,m,Thu Aug 21 2025 11:32:38 GMT-0500 (Central Daylight Time),620915.1999999285,CFD-BM-034-035-HC.jpg,1000,dash,I,m,839,4,3,31107.299999952316,589807.8999999762,8022,ATS,C,13
14,test,4,C,mfborder.png,1,z,Thu Aug 21 2025 11:32:38 GMT-0500 (Central Daylight Time),623247.7999999523,CFD-WF-023-013-A.jpg,1600,dash,I,z,701,2,3,33439.89999997616,589807.8999999762,8022,ATS,C,14
15,test,4,C,haborder.png,1,m,Thu Aug 21 2025 11:32:38 GMT-0500 (Central Daylight Time),624913.2999999523,CFD-WM-028-005-HC.jpg,1000,solid,I,m,648,12,3,35105.39999997616,589807.8999999762,8022,ATS,C,15
16,test,4,C,haborder.png,1,m,Thu Aug 21 2025 11:32:38 GMT-0500 (Central Daylight Time),627162.8999999762,CFD-BM-022-004-HC.jpg,1600,solid,I,m,631,10,3,37355.0,589807.8999999762,8022,ATS,C,16
17,test,4,C,mfborder.png,1,z,Thu Aug 21 2025 11:32:38 GMT-0500 (Central Daylight Time),629428.7999999523,CFD-BF-019-004-HC.jpg,1500,dash,I,z,738,3,3,39620.89999997616,589807.8999999762,8022,ATS,C,17
18,test,4,C,mfborder.png,1,m,Thu Aug 21 2025 11:32:38 GMT-0500 (Central Daylight Time),631577.8999999762,CFD-BM-034-035-HC.jpg,1000,dash,I,m,1131,4,3,41770.0,589807.8999999762,8022,ATS,C,18
19,test,4,C,haborder.png,1,m,Thu Aug 21 2025 11:32:38 GMT-0500 (Central Daylight Time),634177.2999999523,CFD-BM-022-004-HC.jpg,1600,solid,I,m,895,10,3,44369.39999997616,589807.8999999762,8022,ATS,C,19
20,test,4,C,mfborder.png,1,z,Thu Aug 21 2025 11:32:38 GMT-0500 (Central Daylight Time),636526.2999999523,CFD-WF-013-009-HC.jpg,1700,dash,I,z,618,1,3,46718.39999997616,589807.8999999762,8022,ATS,C,20
21,test,4,C,mfborder.png,1,m,Thu Aug 21 2025 11:32:38 GMT-0500 (Central Daylight Time),639442.2999999523,CFD-BM-043-014-A.jpg,2000,dash,I,m,889,5,3,49634.39999997616,589807.8999999762,8022,ATS,C,21
22,test,4,C,haborder.png,1,m,Thu Aug 21 2025 11:32:38 GMT-0500 (Central Daylight Time),641258.7999999523,CFD-WM-028-005-HC.jpg,1000,solid,I,m,789,12,3,51450.89999997616,589807.8999999762,8022,ATS,C,22
23,test,4,C,haborder.png,1,z,Thu Aug 21 2025 11:32:38 GMT-0500 (Central Daylight Time),643490.8999999762,CFD-BF-031-020-A.jpg,1400,solid,I,z,814,7,3,53683.0,589807.8999999762,8022,ATS,C,23
24,test,4,C,mfborder.png,1,m,Thu Aug 21 2025 11:32:38 GMT-0500 (Central Daylight Time),645473.6000000238,CFD-WM-036-018-A.jpg,1200,dash,I,m,764,6,3,55665.700000047684,589807.8999999762,8022,ATS,C,24
