Q,Q1,Q2,Q3,Q4,acc_sum,block,block_c,correct,correct_response,datetime,endtime,project,response,response_time,row_sel,session_number,squiggle1,squiggle1x,squiggle1y,squiggle2,squiggle2x,squiggle2y,squiggle3,squiggle3x,squiggle3y,squiggle4,squiggle4x,squiggle4y,start_end,starttime,subject_id,target_congruent,task,task_vers,testsquiggle,testsquigglex,testsquiggley,time_practice_delay,time_practice_fixation,time_practice_stimuli,time_practice_study,time_test_delay,time_test_fixation,time_test_stimuli,time_test_study,trial
1,1,0,0,0,1,prac,1,1,z,Fri May 09 2025 14:38:15 GMT-0500 (Central Daylight Time),124606.79999999981,I,z,1109,1,2,116.bmp,-120,-120,117.bmp,120,-120,118.bmp,-120,120,119.bmp,120,120,9927.099999999627,114679.70000000019,8030,yes,SM,A,116.bmp,-120,-120,118377,112349,120394,114362,,,,,1
3,0,0,1,0,1,prac,1,0,m,Fri May 09 2025 14:38:15 GMT-0500 (Central Daylight Time),135337.10000000056,I,z,1915,2,2,120.bmp,-120,-120,121.bmp,120,-120,122.bmp,-120,120,123.bmp,120,120,10726.900000000373,124610.20000000019,8030,no,SM,A,123.bmp,-120,120,128307,122280,130324,124293,,,,,2
4,0,0,0,1,2,prac,1,1,m,Fri May 09 2025 14:38:15 GMT-0500 (Central Daylight Time),145533.7000000002,I,m,1377,3,2,124.bmp,-120,-120,125.bmp,120,-120,126.bmp,-120,120,127.bmp,120,120,10192.799999999814,135340.90000000037,8030,no,SM,A,124.bmp,120,120,139037,133010,141053,135022,,,,,3
2,0,1,0,0,3,prac,1,1,z,Fri May 09 2025 14:38:15 GMT-0500 (Central Daylight Time),155847.0,I,z,1484,4,2,128.bmp,-120,-120,129.bmp,120,-120,130.bmp,-120,120,131.bmp,120,120,10310.0,145537.0,8030,yes,SM,A,129.bmp,120,-120,149234,143206,151251,145219,,,,,4
3,0,0,1,0,4,prac,1,1,z,Fri May 09 2025 14:38:15 GMT-0500 (Central Daylight Time),165644.10000000056,I,z,971,5,2,132.bmp,-120,-120,133.bmp,120,-120,134.bmp,-120,120,135.bmp,120,120,9793.600000000559,155850.5,8030,yes,SM,A,134.bmp,-120,120,159548,153520,161564,155532,,,,,5
1,1,0,0,0,4,prac,1,0,m,Fri May 09 2025 14:38:15 GMT-0500 (Central Daylight Time),175612.5,I,z,1142,6,2,136.bmp,-120,-120,137.bmp,120,-120,138.bmp,-120,120,139.bmp,120,120,9965.299999999814,165647.2000000002,8030,no,SM,A,139.bmp,-120,-120,169345,163316,171361,165330,,,,,6
2,0,1,0,0,5,prac,1,1,m,Fri May 09 2025 14:38:15 GMT-0500 (Central Daylight Time),186170.7999999998,I,m,1747,7,2,140.bmp,-120,-120,141.bmp,120,-120,142.bmp,-120,120,143.bmp,120,120,10554.699999999255,175616.10000000056,8030,no,SM,A,140.bmp,120,-120,179308,173286,181324,175293,,,,,7
4,0,0,0,1,5,prac,1,0,z,Fri May 09 2025 14:38:15 GMT-0500 (Central Daylight Time),196984.40000000037,I,None,2014,8,2,144.bmp,-120,-120,145.bmp,120,-120,146.bmp,-120,120,147.bmp,120,120,10810.0,186174.40000000037,8030,yes,SM,A,147.bmp,120,120,189871,183844,191873,185856,,,,,8
4,0,0,0,1,0,test,1,0,m,Fri May 09 2025 14:38:15 GMT-0500 (Central Daylight Time),219610.2999999998,I,z,1281,1,2,148.bmp,-120,-120,149.bmp,120,-120,150.bmp,-120,120,143.bmp,120,120,9326.599999999627,210283.7000000002,8030,no,SM,A,150.bmp,120,120,189871,183844,191873,185856,213981.0,207953.0,215997.0,209965.0,1
2,0,1,0,0,1,test,1,1,m,Fri May 09 2025 14:38:15 GMT-0500 (Central Daylight Time),229174.10000000056,I,m,1512,2,2,101.bmp,-120,-120,102.bmp,120,-120,103.bmp,-120,120,104.bmp,120,120,9560.800000000745,219613.2999999998,8030,no,SM,A,103.bmp,120,-120,189871,183844,191873,185856,223311.0,217282.0,225327.0,219296.0,2
1,1,0,0,0,2,test,1,1,z,Fri May 09 2025 14:38:15 GMT-0500 (Central Daylight Time),238321.40000000037,I,z,1084,3,2,105.bmp,-120,-120,106.bmp,120,-120,107.bmp,-120,120,108.bmp,120,120,9144.400000000373,229177.0,8030,yes,SM,A,105.bmp,-120,-120,189871,183844,191873,185856,232875.0,226846.0,234891.0,228860.0,3
3,0,0,1,0,3,test,1,1,m,Fri May 09 2025 14:38:15 GMT-0500 (Central Daylight Time),247618.0,I,m,1240,4,2,109.bmp,-120,-120,110.bmp,120,-120,111.bmp,-120,120,112.bmp,120,120,9292.700000000186,238325.2999999998,8030,no,SM,A,109.bmp,-120,120,189871,183844,191873,185856,242022.0,235995.0,244038.0,238007.0,4
2,0,1,0,0,3,test,1,0,z,Fri May 09 2025 14:38:15 GMT-0500 (Central Daylight Time),257481.90000000037,I,m,1807,5,2,113.bmp,-120,-120,114.bmp,120,-120,115.bmp,-120,120,116.bmp,120,120,9860.700000000186,247621.2000000002,8030,yes,SM,A,114.bmp,120,-120,189871,183844,191873,185856,251319.0,245290.0,253335.0,247304.0,5
3,0,0,1,0,3,test,1,0,z,Fri May 09 2025 14:38:15 GMT-0500 (Central Daylight Time),266762.2000000002,I,m,1216,6,2,117.bmp,-120,-120,118.bmp,120,-120,119.bmp,-120,120,120.bmp,120,120,9277.200000000186,257485.0,8030,yes,SM,A,119.bmp,-120,120,189871,183844,191873,185856,261183.0,255154.0,263199.0,257167.0,6
4,0,0,0,1,3,test,1,0,z,Fri May 09 2025 14:38:15 GMT-0500 (Central Daylight Time),276509.2000000002,I,m,1696,7,2,121.bmp,-120,-120,122.bmp,120,-120,123.bmp,-120,120,124.bmp,120,120,9743.799999999814,266765.4000000004,8030,yes,SM,A,124.bmp,120,120,189871,183844,191873,185856,270463.0,264435.0,272479.0,266448.0,7
2,0,1,0,0,3,test,1,0,m,Fri May 09 2025 14:38:15 GMT-0500 (Central Daylight Time),285906.4000000004,I,z,1341,8,2,125.bmp,-120,-120,126.bmp,120,-120,127.bmp,-120,120,128.bmp,120,120,9393.700000000186,276512.7000000002,8030,no,SM,A,125.bmp,120,-120,189871,183844,191873,185856,280210.0,274182.0,282226.0,276195.0,8
3,0,0,1,0,3,test,1,0,m,Fri May 09 2025 14:38:15 GMT-0500 (Central Daylight Time),295119.9000000004,I,z,1160,9,2,129.bmp,-120,-120,130.bmp,120,-120,131.bmp,-120,120,132.bmp,120,120,9208.299999999814,285911.60000000056,8030,no,SM,A,130.bmp,-120,120,189871,183844,191873,185856,289607.0,283581.0,291623.0,285592.0,9
4,0,0,0,1,3,test,1,0,z,Fri May 09 2025 14:38:15 GMT-0500 (Central Daylight Time),305183.4000000004,I,None,2015,10,2,137.bmp,-120,-120,138.bmp,120,-120,139.bmp,-120,120,140.bmp,120,120,10060.0,295123.4000000004,8030,yes,SM,A,140.bmp,120,120,189871,183844,191873,185856,298821.0,292793.0,300837.0,294806.0,10
3,0,0,1,0,4,test,1,1,z,Fri May 09 2025 14:38:15 GMT-0500 (Central Daylight Time),314513.9000000004,I,z,1266,11,2,133.bmp,-120,-120,134.bmp,120,-120,135.bmp,-120,120,136.bmp,120,120,9326.5,305187.4000000004,8030,yes,SM,A,135.bmp,-120,120,189871,183844,191873,185856,308885.0,302857.0,310900.0,304869.0,11
2,0,1,0,0,5,test,1,1,m,Fri May 09 2025 14:38:15 GMT-0500 (Central Daylight Time),324360.7999999998,I,m,1666,12,2,141.bmp,-120,-120,142.bmp,120,-120,143.bmp,-120,120,144.bmp,120,120,9844.099999999627,314516.7000000002,8030,no,SM,A,141.bmp,120,-120,189871,183844,191873,185856,318331.0,312186.0,320347.0,314328.0,12
3,0,0,1,0,6,test,1,1,m,Fri May 09 2025 14:38:15 GMT-0500 (Central Daylight Time),334274.4000000004,I,m,1865,13,2,145.bmp,-120,-120,146.bmp,120,-120,147.bmp,-120,120,148.bmp,120,120,9910.299999999814,324364.10000000056,8030,no,SM,A,146.bmp,-120,120,189871,183844,191873,185856,328062.0,322033.0,330078.0,324046.0,13
1,1,0,0,0,7,test,1,1,z,Fri May 09 2025 14:38:15 GMT-0500 (Central Daylight Time),344387.7999999998,I,z,1991,14,2,149.bmp,-120,-120,150.bmp,120,-120,104.bmp,-120,120,101.bmp,120,120,10110.099999999627,334277.7000000002,8030,yes,SM,A,149.bmp,-120,-120,189871,183844,191873,185856,338050.0,331947.0,340058.0,333960.0,14
4,0,0,0,1,7,test,1,0,m,Fri May 09 2025 14:38:15 GMT-0500 (Central Daylight Time),353918.2999999998,I,z,1478,15,2,110.bmp,-120,-120,111.bmp,120,-120,112.bmp,-120,120,113.bmp,120,120,9526.599999999627,344391.7000000002,8030,no,SM,A,111.bmp,120,120,189871,183844,191873,185856,348089.0,342061.0,350105.0,344074.0,15
1,1,0,0,0,7,test,1,0,m,Fri May 09 2025 14:38:15 GMT-0500 (Central Daylight Time),363115.2000000002,I,z,1147,16,2,102.bmp,-120,-120,103.bmp,120,-120,104.bmp,-120,120,105.bmp,120,120,9193.5,353921.7000000002,8030,no,SM,A,105.bmp,-120,-120,189871,183844,191873,185856,357619.0,351591.0,359635.0,353604.0,16
3,0,0,1,0,7,test,1,0,m,Fri May 09 2025 14:38:15 GMT-0500 (Central Daylight Time),373179.0,I,None,2015,17,2,122.bmp,-120,-120,123.bmp,120,-120,124.bmp,-120,120,125.bmp,120,120,10060.899999999441,363118.10000000056,8030,no,SM,A,122.bmp,-120,120,189871,183844,191873,185856,366816.0,360787.0,368832.0,362801.0,17
1,1,0,0,0,8,test,1,1,z,Fri May 09 2025 14:38:15 GMT-0500 (Central Daylight Time),383225.7000000002,I,z,1983,18,2,106.bmp,-120,-120,107.bmp,120,-120,108.bmp,-120,120,109.bmp,120,120,10043.599999999627,373182.10000000056,8030,yes,SM,A,106.bmp,-120,-120,189871,183844,191873,185856,376879.0,370851.0,378896.0,372865.0,18
2,0,1,0,0,9,test,1,1,z,Fri May 09 2025 14:38:15 GMT-0500 (Central Daylight Time),393189.4000000004,I,z,1912,19,2,126.bmp,-120,-120,127.bmp,120,-120,128.bmp,-120,120,129.bmp,120,120,9960.200000000186,383229.2000000002,8030,yes,SM,A,127.bmp,120,-120,189871,183844,191873,185856,386926.0,380898.0,388943.0,382911.0,19
3,0,0,1,0,10,test,1,1,z,Fri May 09 2025 14:38:15 GMT-0500 (Central Daylight Time),402869.7000000002,I,z,1629,20,2,130.bmp,-120,-120,131.bmp,120,-120,132.bmp,-120,120,133.bmp,120,120,9677.400000000373,393192.2999999998,8030,yes,SM,A,132.bmp,-120,120,189871,183844,191873,185856,396890.0,390862.0,398906.0,392875.0,20
1,1,0,0,0,10,test,1,0,m,Fri May 09 2025 14:38:15 GMT-0500 (Central Daylight Time),413050.10000000056,I,None,2005,21,2,114.bmp,-120,-120,115.bmp,120,-120,116.bmp,-120,120,117.bmp,120,120,10177.400000000373,402872.7000000002,8030,no,SM,A,116.bmp,-120,-120,189871,183844,191873,185856,406570.0,400542.0,408714.0,402555.0,21
4,0,0,0,1,11,test,1,1,z,Fri May 09 2025 14:38:15 GMT-0500 (Central Daylight Time),422730.2000000002,I,z,1616,22,2,118.bmp,-120,-120,119.bmp,120,-120,120.bmp,-120,120,121.bmp,120,120,9676.700000000186,413053.5,8030,yes,SM,A,121.bmp,120,120,189871,183844,191873,185856,416750.0,410723.0,418767.0,412735.0,22
1,1,0,0,0,12,test,1,1,m,Fri May 09 2025 14:38:15 GMT-0500 (Central Daylight Time),432443.7999999998,I,m,1664,23,2,134.bmp,-120,-120,135.bmp,120,-120,136.bmp,-120,120,137.bmp,120,120,9710.799999999814,422733.0,8030,no,SM,A,137.bmp,-120,-120,189871,183844,191873,185856,426431.0,420402.0,428447.0,422416.0,23
2,0,1,0,0,12,test,1,0,z,Fri May 09 2025 14:38:15 GMT-0500 (Central Daylight Time),442507.0,I,None,2016,24,2,142.bmp,-120,-120,143.bmp,120,-120,144.bmp,-120,120,145.bmp,120,120,10060.299999999814,432446.7000000002,8030,yes,SM,A,143.bmp,120,-120,189871,183844,191873,185856,436144.0,430116.0,438160.0,432127.0,24
4,0,0,0,1,13,test,1,1,m,Fri May 09 2025 14:38:15 GMT-0500 (Central Daylight Time),452187.10000000056,I,m,1631,25,2,146.bmp,-120,-120,147.bmp,120,-120,148.bmp,-120,120,149.bmp,120,120,9676.900000000373,442510.2000000002,8030,no,SM,A,148.bmp,120,120,189871,183844,191873,185856,446208.0,440179.0,448224.0,442194.0,25
1,1,0,0,0,13,test,1,0,z,Fri May 09 2025 14:38:15 GMT-0500 (Central Daylight Time),462250.9000000004,I,None,2015,26,2,138.bmp,-120,-120,139.bmp,120,-120,140.bmp,-120,120,141.bmp,120,120,10060.700000000186,452190.2000000002,8030,yes,SM,A,138.bmp,-120,-120,189871,183844,191873,185856,455888.0,449860.0,457905.0,451873.0,26
4,0,0,0,1,14,test,1,1,z,Fri May 09 2025 14:38:15 GMT-0500 (Central Daylight Time),471548.2000000002,I,z,1247,27,2,150.bmp,-120,-120,111.bmp,120,-120,101.bmp,-120,120,102.bmp,120,120,9293.5,462254.7000000002,8030,yes,SM,A,102.bmp,120,120,189871,183844,191873,185856,465952.0,459924.0,467968.0,461937.0,27
3,0,0,1,0,14,test,1,0,m,Fri May 09 2025 14:38:15 GMT-0500 (Central Daylight Time),481685.5,I,None,2088,28,2,103.bmp,-120,-120,104.bmp,120,-120,105.bmp,-120,120,106.bmp,120,120,10134.099999999627,471551.4000000004,8030,no,SM,A,103.bmp,-120,120,189871,183844,191873,185856,475249.0,469224.0,477265.0,471233.0,28
2,0,1,0,0,15,test,1,1,z,Fri May 09 2025 14:38:15 GMT-0500 (Central Daylight Time),491275.10000000056,I,z,1540,29,2,107.bmp,-120,-120,108.bmp,120,-120,109.bmp,-120,120,110.bmp,120,120,9585.600000000559,481689.5,8030,yes,SM,A,108.bmp,120,-120,189871,183844,191873,185856,485379.0,479359.0,487395.0,481365.0,29
3,0,0,1,0,16,test,1,1,z,Fri May 09 2025 14:38:15 GMT-0500 (Central Daylight Time),500355.7000000002,I,z,1023,30,2,111.bmp,-120,-120,112.bmp,120,-120,113.bmp,-120,120,114.bmp,120,120,9077.099999999627,491278.60000000056,8030,yes,SM,A,113.bmp,-120,120,189871,183844,191873,185856,494976.0,488948.0,496992.0,490961.0,30
1,1,0,0,0,17,test,1,1,z,Fri May 09 2025 14:38:15 GMT-0500 (Central Daylight Time),509386.2000000002,I,z,982,31,2,115.bmp,-120,-120,116.bmp,120,-120,117.bmp,-120,120,118.bmp,120,120,9027.400000000373,500358.7999999998,8030,yes,SM,A,115.bmp,-120,-120,189871,183844,191873,185856,504056.0,498028.0,506073.0,500041.0,31
2,0,1,0,0,17,test,1,0,m,Fri May 09 2025 14:38:15 GMT-0500 (Central Daylight Time),518499.7000000002,I,z,1063,32,2,119.bmp,-120,-120,120.bmp,120,-120,121.bmp,-120,120,122.bmp,120,120,9110.5,509389.2000000002,8030,no,SM,A,119.bmp,120,-120,189871,183844,191873,185856,513087.0,507058.0,515104.0,509072.0,32
4,0,0,0,1,18,test,1,1,z,Fri May 09 2025 14:38:15 GMT-0500 (Central Daylight Time),528363.7000000002,I,z,1806,33,2,131.bmp,-120,-120,132.bmp,120,-120,133.bmp,-120,120,134.bmp,120,120,9861.099999999627,518502.60000000056,8030,yes,SM,A,134.bmp,120,120,189871,183844,191873,185856,522201.0,516172.0,524217.0,518186.0,33
2,0,1,0,0,19,test,1,1,z,Fri May 09 2025 14:38:15 GMT-0500 (Central Daylight Time),538127.2999999998,I,z,1711,34,2,123.bmp,-120,-120,124.bmp,120,-120,125.bmp,-120,120,126.bmp,120,120,9760.399999999441,528366.9000000004,8030,yes,SM,A,124.bmp,120,-120,189871,183844,191873,185856,532064.0,526036.0,534080.0,528049.0,34
4,0,0,0,1,20,test,1,1,m,Fri May 09 2025 14:38:15 GMT-0500 (Central Daylight Time),547690.6000000006,I,m,1514,35,2,127.bmp,-120,-120,128.bmp,120,-120,129.bmp,-120,120,130.bmp,120,120,9560.300000000745,538130.2999999998,8030,no,SM,A,129.bmp,120,120,189871,183844,191873,185856,541828.0,535800.0,543844.0,537813.0,35
3,0,0,1,0,20,test,1,0,m,Fri May 09 2025 14:38:15 GMT-0500 (Central Daylight Time),557138.1000000006,I,z,1383,36,2,135.bmp,-120,-120,136.bmp,120,-120,137.bmp,-120,120,138.bmp,120,120,9445.0,547693.1000000006,8030,no,SM,A,135.bmp,-120,120,189871,183844,191873,185856,551392.0,545362.0,553408.0,547376.0,36
1,1,0,0,0,21,test,1,1,m,Fri May 09 2025 14:38:15 GMT-0500 (Central Daylight Time),566418.4000000004,I,m,1224,37,2,139.bmp,-120,-120,140.bmp,120,-120,141.bmp,-120,120,142.bmp,120,120,9277.100000000559,557141.2999999998,8030,no,SM,A,140.bmp,-120,-120,189871,183844,191873,185856,560838.0,554810.0,562855.0,556824.0,37
2,0,1,0,0,22,test,1,1,m,Fri May 09 2025 14:38:15 GMT-0500 (Central Daylight Time),575498.6000000006,I,m,1032,38,2,143.bmp,-120,-120,144.bmp,120,-120,145.bmp,-120,120,146.bmp,120,120,9076.700000000186,566421.9000000004,8030,no,SM,A,145.bmp,120,-120,189871,183844,191873,185856,570119.0,564091.0,572135.0,566104.0,38
4,0,0,0,1,23,test,1,1,z,Fri May 09 2025 14:38:15 GMT-0500 (Central Daylight Time),584779.2000000002,I,z,1231,39,2,147.bmp,-120,-120,148.bmp,120,-120,149.bmp,-120,120,150.bmp,120,120,9278.0,575501.2000000002,8030,yes,SM,A,150.bmp,120,120,189871,183844,191873,185856,579200.0,573170.0,581216.0,575184.0,39
3,0,0,1,0,23,test,1,0,m,Fri May 09 2025 14:38:15 GMT-0500 (Central Daylight Time),594093.2000000002,I,z,1255,40,2,104.bmp,-120,-120,105.bmp,120,-120,106.bmp,-120,120,107.bmp,120,120,9310.400000000373,584782.7999999998,8030,no,SM,A,105.bmp,-120,120,189871,183844,191873,185856,588480.0,582452.0,590496.0,584465.0,40
1,1,0,0,0,24,test,1,1,z,Fri May 09 2025 14:38:15 GMT-0500 (Central Daylight Time),603006.7000000002,I,z,853,41,2,108.bmp,-120,-120,109.bmp,120,-120,110.bmp,-120,120,111.bmp,120,120,8910.700000000186,594096.0,8030,yes,SM,A,108.bmp,-120,-120,189871,183844,191873,185856,597794.0,591765.0,599810.0,593779.0,41
4,0,0,0,1,25,test,1,1,z,Fri May 09 2025 14:38:15 GMT-0500 (Central Daylight Time),612837.2000000002,I,z,1771,42,2,112.bmp,-120,-120,113.bmp,120,-120,114.bmp,-120,120,115.bmp,120,120,9827.5,603009.7000000002,8030,yes,SM,A,115.bmp,120,120,189871,183844,191873,185856,606708.0,600679.0,608724.0,602692.0,42
1,1,0,0,0,26,test,1,1,z,Fri May 09 2025 14:38:15 GMT-0500 (Central Daylight Time),621934.4000000004,I,z,1045,43,2,116.bmp,-120,-120,117.bmp,120,-120,118.bmp,-120,120,119.bmp,120,120,9094.299999999814,612840.1000000006,8030,yes,SM,A,116.bmp,-120,-120,189871,183844,191873,185856,616538.0,610509.0,618554.0,612523.0,43
4,0,0,0,1,27,test,1,1,m,Fri May 09 2025 14:38:15 GMT-0500 (Central Daylight Time),631281.6000000006,I,m,1284,44,2,104.bmp,-120,-120,101.bmp,120,-120,102.bmp,-120,120,103.bmp,120,120,9344.400000000373,621937.2000000002,8030,no,SM,A,104.bmp,120,120,189871,183844,191873,185856,625635.0,619607.0,627651.0,621620.0,44
1,1,0,0,0,28,test,1,1,m,Fri May 09 2025 14:38:15 GMT-0500 (Central Daylight Time),640545.1000000006,I,m,1208,45,2,128.bmp,-120,-120,129.bmp,120,-120,130.bmp,-120,120,131.bmp,120,120,9260.400000000373,631284.7000000002,8030,no,SM,A,131.bmp,-120,-120,189871,183844,191873,185856,634982.0,628954.0,636998.0,630967.0,45
1,1,0,0,0,29,test,1,1,m,Fri May 09 2025 14:38:15 GMT-0500 (Central Daylight Time),649992.1000000006,I,m,1393,46,2,120.bmp,-120,-120,121.bmp,120,-120,122.bmp,-120,120,123.bmp,120,120,9444.0,640548.1000000006,8030,no,SM,A,121.bmp,-120,-120,189871,183844,191873,185856,644245.0,638217.0,646262.0,640231.0,46
3,0,0,1,0,30,test,1,1,z,Fri May 09 2025 14:38:15 GMT-0500 (Central Daylight Time),659305.9000000004,I,z,1258,47,2,124.bmp,-120,-120,125.bmp,120,-120,126.bmp,-120,120,127.bmp,120,120,9311.100000000559,649994.7999999998,8030,yes,SM,A,126.bmp,-120,120,189871,183844,191873,185856,653693.0,647664.0,655709.0,649678.0,47
3,0,0,1,0,31,test,1,1,z,Fri May 09 2025 14:38:15 GMT-0500 (Central Daylight Time),668386.9000000004,I,z,1031,48,2,140.bmp,-120,-120,141.bmp,120,-120,142.bmp,-120,120,143.bmp,120,120,9078.0,659308.9000000004,8030,yes,SM,A,142.bmp,-120,120,189871,183844,191873,185856,663007.0,656978.0,665024.0,658992.0,48
2,0,1,0,0,31,test,1,0,z,Fri May 09 2025 14:38:15 GMT-0500 (Central Daylight Time),678216.7000000002,I,m,1775,49,2,136.bmp,-120,-120,137.bmp,120,-120,138.bmp,-120,120,139.bmp,120,120,9826.5,668390.2000000002,8030,yes,SM,A,137.bmp,120,-120,189871,183844,191873,185856,672087.0,666060.0,674104.0,668072.0,49
3,0,0,1,0,31,test,1,0,m,Fri May 09 2025 14:38:15 GMT-0500 (Central Daylight Time),687830.2000000002,I,z,1561,50,2,132.bmp,-120,-120,133.bmp,120,-120,134.bmp,-120,120,135.bmp,120,120,9610.5,678219.7000000002,8030,no,SM,A,132.bmp,-120,120,189871,183844,191873,185856,681917.0,675889.0,683934.0,677902.0,50
2,0,1,0,0,32,test,1,1,z,Fri May 09 2025 14:38:15 GMT-0500 (Central Daylight Time),697428.2999999998,I,z,1548,51,2,144.bmp,-120,-120,145.bmp,120,-120,146.bmp,-120,120,147.bmp,120,120,9595.099999999627,687833.2000000002,8030,yes,SM,A,145.bmp,120,-120,189871,183844,191873,185856,691531.0,685502.0,693547.0,687516.0,51
4,0,0,0,1,33,test,1,1,m,Fri May 09 2025 14:38:15 GMT-0500 (Central Daylight Time),706907.7000000002,I,m,1430,52,2,148.bmp,-120,-120,149.bmp,120,-120,150.bmp,-120,120,131.bmp,120,120,9476.299999999814,697431.4000000004,8030,no,SM,A,148.bmp,120,120,189871,183844,191873,185856,701128.0,695101.0,703145.0,697113.0,52
3,0,0,1,0,34,test,1,1,z,Fri May 09 2025 14:38:15 GMT-0500 (Central Daylight Time),716638.0,I,z,1678,53,2,101.bmp,-120,-120,102.bmp,120,-120,103.bmp,-120,120,104.bmp,120,120,9726.899999999441,706911.1000000006,8030,yes,SM,A,103.bmp,-120,120,189871,183844,191873,185856,710608.0,704580.0,712625.0,706593.0,53
1,1,0,0,0,34,test,1,0,m,Fri May 09 2025 14:38:15 GMT-0500 (Central Daylight Time),726218.1000000006,I,z,1516,54,2,105.bmp,-120,-120,106.bmp,120,-120,107.bmp,-120,120,108.bmp,120,120,9576.900000000373,716641.2000000002,8030,no,SM,A,107.bmp,-120,-120,189871,183844,191873,185856,720339.0,714310.0,722355.0,716323.0,54
4,0,0,0,1,35,test,1,1,z,Fri May 09 2025 14:38:15 GMT-0500 (Central Daylight Time),735715.5,I,z,1440,55,2,109.bmp,-120,-120,110.bmp,120,-120,111.bmp,-120,120,112.bmp,120,120,9494.599999999627,726220.9000000004,8030,yes,SM,A,112.bmp,120,120,189871,183844,191873,185856,729919.0,723890.0,731935.0,725903.0,55
2,0,1,0,0,36,test,1,1,m,Fri May 09 2025 14:38:15 GMT-0500 (Central Daylight Time),745146.0,I,m,1383,56,2,113.bmp,-120,-120,114.bmp,120,-120,115.bmp,-120,120,116.bmp,120,120,9427.299999999814,735718.7000000002,8030,no,SM,A,113.bmp,120,-120,189871,183844,191873,185856,739416.0,733388.0,741432.0,735402.0,56
4,0,0,0,1,36,test,1,0,m,Fri May 09 2025 14:38:15 GMT-0500 (Central Daylight Time),755209.0,I,None,2015,57,2,117.bmp,-120,-120,118.bmp,120,-120,119.bmp,-120,120,120.bmp,120,120,10060.299999999814,745148.7000000002,8030,no,SM,A,118.bmp,120,120,189871,183844,191873,185856,748846.0,742818.0,750863.0,744831.0,57
3,0,0,1,0,37,test,1,1,z,Fri May 09 2025 14:38:15 GMT-0500 (Central Daylight Time),764956.2000000002,I,z,1697,58,2,121.bmp,-120,-120,122.bmp,120,-120,123.bmp,-120,120,124.bmp,120,120,9744.299999999814,755211.9000000004,8030,yes,SM,A,123.bmp,-120,120,189871,183844,191873,185856,758910.0,752881.0,760926.0,754896.0,58
2,0,1,0,0,38,test,1,1,m,Fri May 09 2025 14:38:15 GMT-0500 (Central Daylight Time),774319.7999999998,I,m,1310,59,2,125.bmp,-120,-120,126.bmp,120,-120,127.bmp,-120,120,128.bmp,120,120,9360.399999999441,764959.4000000004,8030,no,SM,A,128.bmp,120,-120,189871,183844,191873,185856,768657.0,762629.0,770673.0,764643.0,59
1,1,0,0,0,39,test,1,1,z,Fri May 09 2025 14:38:15 GMT-0500 (Central Daylight Time),783433.6000000006,I,z,1058,60,2,129.bmp,-120,-120,130.bmp,120,-120,131.bmp,-120,120,132.bmp,120,120,9110.900000000373,774322.7000000002,8030,yes,SM,A,129.bmp,-120,-120,189871,183844,191873,185856,778021.0,771992.0,780037.0,774005.0,60
2,0,1,0,0,40,test,1,1,z,Fri May 09 2025 14:38:15 GMT-0500 (Central Daylight Time),793114.1000000006,I,z,1624,61,2,133.bmp,-120,-120,134.bmp,120,-120,135.bmp,-120,120,136.bmp,120,120,9677.5,783436.6000000006,8030,yes,SM,A,134.bmp,120,-120,189871,183844,191873,185856,787134.0,781106.0,789151.0,783119.0,61
4,0,0,0,1,41,test,1,1,z,Fri May 09 2025 14:38:15 GMT-0500 (Central Daylight Time),803027.6000000006,I,z,1856,62,2,141.bmp,-120,-120,142.bmp,120,-120,143.bmp,-120,120,144.bmp,120,120,9910.600000000559,793117.0,8030,yes,SM,A,144.bmp,120,120,189871,183844,191873,185856,796815.0,790786.0,798831.0,792800.0,62
1,1,0,0,0,41,test,1,0,m,Fri May 09 2025 14:38:15 GMT-0500 (Central Daylight Time),813090.9000000004,I,None,2015,63,2,145.bmp,-120,-120,146.bmp,120,-120,147.bmp,-120,120,148.bmp,120,120,10059.900000000373,803031.0,8030,no,SM,A,145.bmp,-120,120,189871,183844,191873,185856,806728.0,800700.0,808745.0,802713.0,63
2,0,1,0,0,42,test,1,1,z,Fri May 09 2025 14:38:15 GMT-0500 (Central Daylight Time),822421.6000000006,I,z,1271,64,2,149.bmp,-120,-120,150.bmp,120,-120,112.bmp,-120,120,101.bmp,120,120,9327.300000000745,813094.2999999998,8030,yes,SM,A,150.bmp,120,-120,189871,183844,191873,185856,816792.0,810764.0,818808.0,812777.0,64
4,0,0,0,1,43,test,1,1,m,Fri May 09 2025 14:38:15 GMT-0500 (Central Daylight Time),831885.2000000002,I,m,1412,65,2,102.bmp,-120,-120,103.bmp,120,-120,104.bmp,-120,120,105.bmp,120,120,9460.900000000373,822424.2999999998,8030,no,SM,A,104.bmp,120,120,189871,183844,191873,185856,826122.0,820094.0,828138.0,822107.0,65
3,0,0,1,0,44,test,1,1,m,Fri May 09 2025 14:38:15 GMT-0500 (Central Daylight Time),841398.7000000002,I,m,1461,66,2,106.bmp,-120,-120,107.bmp,120,-120,108.bmp,-120,120,109.bmp,120,120,9510.5,831888.2000000002,8030,no,SM,A,109.bmp,-120,120,189871,183844,191873,185856,835586.0,829558.0,837602.0,831570.0,66
2,0,1,0,0,45,test,1,1,m,Fri May 09 2025 14:38:15 GMT-0500 (Central Daylight Time),850612.6000000006,I,m,1163,67,2,137.bmp,-120,-120,138.bmp,120,-120,139.bmp,-120,120,140.bmp,120,120,9211.300000000745,841401.2999999998,8030,no,SM,A,139.bmp,120,-120,189871,183844,191873,185856,845100.0,839070.0,847116.0,841084.0,67
3,0,0,1,0,46,test,1,1,z,Fri May 09 2025 14:38:15 GMT-0500 (Central Daylight Time),860476.2000000002,I,z,1813,68,2,110.bmp,-120,-120,111.bmp,120,-120,112.bmp,-120,120,113.bmp,120,120,9860.599999999627,850615.6000000006,8030,yes,SM,A,112.bmp,-120,120,189871,183844,191873,185856,854313.0,848285.0,856329.0,850298.0,68
1,1,0,0,0,47,test,1,1,m,Fri May 09 2025 14:38:15 GMT-0500 (Central Daylight Time),869973.2000000002,I,m,1446,69,2,114.bmp,-120,-120,115.bmp,120,-120,116.bmp,-120,120,117.bmp,120,120,9494.0,860479.2000000002,8030,no,SM,A,115.bmp,-120,-120,189871,183844,191873,185856,864177.0,858148.0,866193.0,860162.0,69
2,0,1,0,0,48,test,1,1,m,Fri May 09 2025 14:38:15 GMT-0500 (Central Daylight Time),879303.7999999998,I,m,1269,70,2,118.bmp,-120,-120,119.bmp,120,-120,120.bmp,-120,120,121.bmp,120,120,9327.5,869976.2999999998,8030,no,SM,A,120.bmp,120,-120,189871,183844,191873,185856,873674.0,867646.0,875690.0,869659.0,70
4,0,0,0,1,49,test,1,1,z,Fri May 09 2025 14:38:15 GMT-0500 (Central Daylight Time),888800.7000000002,I,z,1434,71,2,122.bmp,-120,-120,123.bmp,120,-120,124.bmp,-120,120,125.bmp,120,120,9493.900000000373,879306.7999999998,8030,yes,SM,A,125.bmp,120,120,189871,183844,191873,185856,883004.0,876976.0,885021.0,878989.0,71
1,1,0,0,0,50,test,1,1,z,Fri May 09 2025 14:38:15 GMT-0500 (Central Daylight Time),897964.6000000006,I,z,1105,72,2,126.bmp,-120,-120,127.bmp,120,-120,128.bmp,-120,120,129.bmp,120,120,9160.5,888804.1000000006,8030,yes,SM,A,126.bmp,-120,-120,189871,183844,191873,185856,892501.0,886473.0,894518.0,888486.0,72
2,0,1,0,0,51,test,1,1,z,Fri May 09 2025 14:38:15 GMT-0500 (Central Daylight Time),907478.2000000002,I,z,1454,73,2,130.bmp,-120,-120,131.bmp,120,-120,132.bmp,-120,120,133.bmp,120,120,9510.700000000186,897967.5,8030,yes,SM,A,131.bmp,120,-120,189871,183844,191873,185856,901665.0,895637.0,903681.0,897650.0,73
4,0,0,0,1,52,test,1,1,m,Fri May 09 2025 14:38:15 GMT-0500 (Central Daylight Time),916975.1000000006,I,m,1436,74,2,134.bmp,-120,-120,135.bmp,120,-120,136.bmp,-120,120,137.bmp,120,120,9493.700000000186,907481.4000000004,8030,no,SM,A,136.bmp,120,120,189871,183844,191873,185856,911179.0,905151.0,913195.0,907164.0,74
2,0,1,0,0,52,test,1,0,m,Fri May 09 2025 14:38:15 GMT-0500 (Central Daylight Time),926322.1000000006,I,z,1299,75,2,138.bmp,-120,-120,139.bmp,120,-120,140.bmp,-120,120,141.bmp,120,120,9344.100000000559,916978.0,8030,no,SM,A,141.bmp,120,-120,189871,183844,191873,185856,920676.0,914647.0,922692.0,916661.0,75
1,1,0,0,0,53,test,1,1,z,Fri May 09 2025 14:38:15 GMT-0500 (Central Daylight Time),935286.1000000006,I,z,904,76,2,142.bmp,-120,-120,143.bmp,120,-120,144.bmp,-120,120,145.bmp,120,120,8960.400000000373,926325.7000000002,8030,yes,SM,A,142.bmp,-120,-120,189871,183844,191873,185856,930024.0,923995.0,932039.0,926008.0,76
3,0,0,1,0,54,test,1,1,z,Fri May 09 2025 14:38:15 GMT-0500 (Central Daylight Time),945000.0,I,z,1652,77,2,150.bmp,-120,-120,111.bmp,120,-120,101.bmp,-120,120,102.bmp,120,120,9711.0,935289.0,8030,yes,SM,A,101.bmp,-120,120,189871,183844,191873,185856,938987.0,932958.0,941003.0,934971.0,77
1,1,0,0,0,55,test,1,1,m,Fri May 09 2025 14:38:15 GMT-0500 (Central Daylight Time),954480.1000000006,I,m,1418,78,2,146.bmp,-120,-120,147.bmp,120,-120,148.bmp,-120,120,149.bmp,120,120,9476.700000000186,945003.4000000004,8030,no,SM,A,147.bmp,-120,-120,189871,183844,191873,185856,948700.0,942673.0,950717.0,944685.0,78
4,0,0,0,1,56,test,1,1,m,Fri May 09 2025 14:38:15 GMT-0500 (Central Daylight Time),964077.0,I,m,1538,79,2,107.bmp,-120,-120,108.bmp,120,-120,109.bmp,-120,120,110.bmp,120,120,9593.200000000186,954483.7999999998,8030,no,SM,A,107.bmp,120,120,189871,183844,191873,185856,958181.0,952153.0,960197.0,954166.0,79
3,0,0,1,0,57,test,1,1,m,Fri May 09 2025 14:38:15 GMT-0500 (Central Daylight Time),973723.7999999998,I,m,1597,80,2,103.bmp,-120,-120,104.bmp,120,-120,105.bmp,-120,120,106.bmp,120,120,9643.599999999627,964080.2000000002,8030,no,SM,A,106.bmp,-120,120,189871,183844,191873,185856,967778.0,961749.0,969794.0,963762.0,80
