acc_sum,block,block_c,block_cond,con_img,correct,correct_response,datetime,endtime,face,jitter,line,project,response,response_time,row_sel,session_number,start_end,starttime,subject_id,task,task_vers,trial
1,prac,1,A,haborder.png,1,m,Wed Aug 20 2025 13:07:53 GMT-0500 (Central Daylight Time),48211.699999928474,CFD-BF-019-004-HC.jpg,2000,solid,I,m,934,5,2,3731.899999976158,44479.799999952316,8032,ATS,C,1
2,prac,1,A,haborder.png,1,z,Wed Aug 20 2025 13:07:53 GMT-0500 (Central Daylight Time),50644.39999997616,CFD-WF-023-013-A.jpg,1000,solid,I,z,664,12,2,6164.600000023842,44479.799999952316,8032,ATS,C,2
3,prac,1,A,haborder.png,1,z,Wed Aug 20 2025 13:07:53 GMT-0500 (Central Daylight Time),52960.39999997616,CFD-BF-031-020-A.jpg,1000,solid,I,z,521,4,2,8480.600000023842,44479.799999952316,8032,ATS,C,3
4,prac,1,A,haborder.png,1,m,Wed Aug 20 2025 13:07:53 GMT-0500 (Central Daylight Time),55926.09999990463,CFD-BM-034-035-HC.jpg,1700,solid,I,m,473,1,2,11446.299999952316,44479.799999952316,8032,ATS,C,4
5,prac,1,A,haborder.png,1,m,Wed Aug 20 2025 13:07:53 GMT-0500 (Central Daylight Time),58908.5,CFD-WF-013-009-HC.jpg,1500,solid,I,m,684,11,2,14428.700000047684,44479.799999952316,8032,ATS,C,5
6,prac,1,A,haborder.png,1,z,Wed Aug 20 2025 13:07:53 GMT-0500 (Central Daylight Time),61874.0,CFD-BM-043-014-A.jpg,1600,solid,I,z,578,2,2,17394.200000047684,44479.799999952316,8032,ATS,C,6
7,prac,1,A,haborder.png,1,z,Wed Aug 20 2025 13:07:53 GMT-0500 (Central Daylight Time),64440.199999928474,CFD-BF-002-018-A.jpg,1200,solid,I,z,580,6,2,19960.399999976158,44479.799999952316,8032,ATS,C,7
8,prac,1,A,haborder.png,1,m,Wed Aug 20 2025 13:07:53 GMT-0500 (Central Daylight Time),67189.0,CFD-BM-022-004-HC.jpg,1500,solid,I,m,466,3,2,22709.200000047684,44479.799999952316,8032,ATS,C,8
9,prac,1,A,haborder.png,1,z,Wed Aug 20 2025 13:07:53 GMT-0500 (Central Daylight Time),70255.0,CFD-WF-037-016-A.jpg,1600,solid,I,z,672,10,2,25775.200000047684,44479.799999952316,8032,ATS,C,9
10,prac,1,A,haborder.png,1,z,Wed Aug 20 2025 13:07:53 GMT-0500 (Central Daylight Time),73529.09999990463,CFD-WM-036-018-A.jpg,1900,solid,I,z,587,8,2,29049.299999952316,44479.799999952316,8032,ATS,C,10
11,prac,1,A,haborder.png,1,m,Wed Aug 20 2025 13:07:53 GMT-0500 (Central Daylight Time),76586.29999995232,CFD-WM-035-036-HC.jpg,1700,solid,I,m,561,9,2,32106.5,44479.799999952316,8032,ATS,C,11
12,prac,1,A,haborder.png,1,m,Wed Aug 20 2025 13:07:53 GMT-0500 (Central Daylight Time),79302.19999992847,CFD-WM-028-005-HC.jpg,1400,solid,I,m,523,7,2,34822.39999997616,44479.799999952316,8032,ATS,C,12
1,prac,1,B,mfborder.png,1,m,Wed Aug 20 2025 13:07:53 GMT-0500 (Central Daylight Time),101395.0,CFD-WM-035-036-HC.jpg,1600,10,I,m,602,dash,2,3015.7000000476837,98379.29999995232,8032,ATS,C,1
2,prac,1,B,mfborder.png,1,m,Wed Aug 20 2025 13:07:53 GMT-0500 (Central Daylight Time),104311.0,CFD-BM-022-004-HC.jpg,1700,1,I,m,414,dash,2,5931.700000047684,98379.29999995232,8032,ATS,C,2
3,prac,1,B,mfborder.png,1,z,Wed Aug 20 2025 13:07:53 GMT-0500 (Central Daylight Time),107209.89999997616,CFD-BF-042-031-HC.jpg,1500,3,I,z,603,dash,2,8830.600000023842,98379.29999995232,8032,ATS,C,3
4,prac,1,B,mfborder.png,1,z,Wed Aug 20 2025 13:07:53 GMT-0500 (Central Daylight Time),109492.59999990463,CFD-WF-013-009-HC.jpg,1000,12,I,z,491,dash,2,11113.299999952316,98379.29999995232,8032,ATS,C,4
5,prac,1,B,mfborder.png,1,m,Wed Aug 20 2025 13:07:53 GMT-0500 (Central Daylight Time),112174.79999995232,CFD-WM-034-040-A.jpg,1200,6,I,m,698,dash,2,13795.5,98379.29999995232,8032,ATS,C,5
6,prac,1,B,mfborder.png,1,m,Wed Aug 20 2025 13:07:53 GMT-0500 (Central Daylight Time),115140.69999992847,CFD-WM-036-018-A.jpg,1700,9,I,m,474,dash,2,16761.399999976158,98379.29999995232,8032,ATS,C,6
7,prac,1,B,mfborder.png,1,z,Wed Aug 20 2025 13:07:53 GMT-0500 (Central Daylight Time),117839.89999997616,CFD-BF-019-004-HC.jpg,1400,7,I,z,513,dash,2,19460.600000023842,98379.29999995232,8032,ATS,C,7
8,prac,1,B,mfborder.png,1,m,Wed Aug 20 2025 13:07:53 GMT-0500 (Central Daylight Time),120711.39999997616,CFD-BM-021-026-A.jpg,1600,2,I,m,453,dash,2,22332.100000023842,98379.29999995232,8032,ATS,C,8
9,prac,1,B,mfborder.png,1,z,Wed Aug 20 2025 13:07:53 GMT-0500 (Central Daylight Time),123654.69999992847,CFD-WF-037-016-A.jpg,1500,11,I,z,640,dash,2,25275.399999976158,98379.29999995232,8032,ATS,C,9
10,prac,1,B,mfborder.png,1,m,Wed Aug 20 2025 13:07:53 GMT-0500 (Central Daylight Time),126837.0,CFD-BM-043-014-A.jpg,2000,5,I,m,392,dash,2,28457.700000047684,98379.29999995232,8032,ATS,C,10
11,prac,1,B,mfborder.png,1,z,Wed Aug 20 2025 13:07:53 GMT-0500 (Central Daylight Time),130002.79999995232,CFD-WF-001-010-HC.jpg,1900,8,I,z,478,dash,2,31623.5,98379.29999995232,8032,ATS,C,11
12,prac,1,B,mfborder.png,1,z,Wed Aug 20 2025 13:07:53 GMT-0500 (Central Daylight Time),132452.09999990463,CFD-BF-031-020-A.jpg,1000,4,I,z,659,dash,2,34072.799999952316,98379.29999995232,8032,ATS,C,12
1,test,1,A,haborder.png,1,m,Wed Aug 20 2025 13:07:53 GMT-0500 (Central Daylight Time),152112.59999990463,CFD-BM-034-035-HC.jpg,1700,solid,I,m,574,1,2,2299.1999999284744,149813.39999997616,8032,ATS,C,1
2,test,1,A,haborder.png,1,m,Wed Aug 20 2025 13:07:53 GMT-0500 (Central Daylight Time),154311.69999992847,CFD-WM-035-036-HC.jpg,1700,solid,I,m,473,9,2,4498.299999952316,149813.39999997616,8032,ATS,C,2
3,test,1,A,haborder.png,1,m,Wed Aug 20 2025 13:07:53 GMT-0500 (Central Daylight Time),156478.79999995232,CFD-BM-034-035-HC.jpg,1700,solid,I,m,434,1,2,6665.399999976158,149813.39999997616,8032,ATS,C,3
4,test,1,A,haborder.png,1,z,Wed Aug 20 2025 13:07:53 GMT-0500 (Central Daylight Time),158077.19999992847,CFD-BF-031-020-A.jpg,1000,solid,I,z,567,4,2,8263.799999952316,149813.39999997616,8032,ATS,C,4
5,test,1,A,haborder.png,1,z,Wed Aug 20 2025 13:07:53 GMT-0500 (Central Daylight Time),160293.09999990463,CFD-WF-037-016-A.jpg,1600,solid,I,z,592,10,2,10479.699999928474,149813.39999997616,8032,ATS,C,5
6,test,1,A,haborder.png,1,z,Wed Aug 20 2025 13:07:53 GMT-0500 (Central Daylight Time),162709.0,CFD-BM-043-014-A.jpg,1600,solid,I,z,792,2,2,12895.600000023842,149813.39999997616,8032,ATS,C,6
7,test,1,A,haborder.png,1,z,Wed Aug 20 2025 13:07:53 GMT-0500 (Central Daylight Time),164825.0,CFD-WF-037-016-A.jpg,1600,solid,I,z,488,10,2,15011.600000023842,149813.39999997616,8032,ATS,C,7
8,test,1,A,haborder.png,1,m,Wed Aug 20 2025 13:07:53 GMT-0500 (Central Daylight Time),166724.59999990463,CFD-WM-028-005-HC.jpg,1400,solid,I,m,476,7,2,16911.199999928474,149813.39999997616,8032,ATS,C,8
9,test,1,A,haborder.png,1,m,Wed Aug 20 2025 13:07:53 GMT-0500 (Central Daylight Time),169340.5,CFD-BF-019-004-HC.jpg,2000,solid,I,m,593,5,2,19527.100000023842,149813.39999997616,8032,ATS,C,9
10,test,1,A,haborder.png,1,m,Wed Aug 20 2025 13:07:53 GMT-0500 (Central Daylight Time),171506.19999992847,CFD-WM-035-036-HC.jpg,1700,solid,I,m,438,9,2,21692.799999952316,149813.39999997616,8032,ATS,C,10
11,test,1,A,haborder.png,1,z,Wed Aug 20 2025 13:07:53 GMT-0500 (Central Daylight Time),173239.29999995232,CFD-WF-023-013-A.jpg,1000,solid,I,z,707,12,2,23425.899999976158,149813.39999997616,8032,ATS,C,11
12,test,1,A,haborder.png,1,z,Wed Aug 20 2025 13:07:53 GMT-0500 (Central Daylight Time),176005.09999990463,CFD-WM-036-018-A.jpg,1900,solid,I,z,836,8,2,26191.699999928474,149813.39999997616,8032,ATS,C,12
13,test,1,A,haborder.png,1,z,Wed Aug 20 2025 13:07:53 GMT-0500 (Central Daylight Time),177904.29999995232,CFD-BF-002-018-A.jpg,1200,solid,I,z,680,6,2,28090.899999976158,149813.39999997616,8032,ATS,C,13
14,test,1,A,haborder.png,1,z,Wed Aug 20 2025 13:07:53 GMT-0500 (Central Daylight Time),179453.69999992847,CFD-BF-031-020-A.jpg,1000,solid,I,z,525,4,2,29640.299999952316,149813.39999997616,8032,ATS,C,14
15,test,1,A,haborder.png,1,z,Wed Aug 20 2025 13:07:53 GMT-0500 (Central Daylight Time),181036.39999997616,CFD-WF-023-013-A.jpg,1000,solid,I,z,551,12,2,31223.0,149813.39999997616,8032,ATS,C,15
16,test,1,A,haborder.png,1,m,Wed Aug 20 2025 13:07:53 GMT-0500 (Central Daylight Time),183552.59999990463,CFD-BF-019-004-HC.jpg,2000,solid,I,m,490,5,2,33739.199999928474,149813.39999997616,8032,ATS,C,16
17,test,1,A,haborder.png,1,m,Wed Aug 20 2025 13:07:53 GMT-0500 (Central Daylight Time),185485.19999992847,CFD-WM-028-005-HC.jpg,1400,solid,I,m,509,7,2,35671.799999952316,149813.39999997616,8032,ATS,C,17
18,test,1,A,haborder.png,1,z,Wed Aug 20 2025 13:07:53 GMT-0500 (Central Daylight Time),187434.69999992847,CFD-BF-002-018-A.jpg,1200,solid,I,z,729,6,2,37621.299999952316,149813.39999997616,8032,ATS,C,18
19,test,1,A,haborder.png,1,z,Wed Aug 20 2025 13:07:53 GMT-0500 (Central Daylight Time),189867.29999995232,CFD-WM-036-018-A.jpg,1900,solid,I,z,497,8,2,40053.89999997616,149813.39999997616,8032,ATS,C,19
20,test,1,A,haborder.png,1,m,Wed Aug 20 2025 13:07:53 GMT-0500 (Central Daylight Time),191999.89999997616,CFD-BM-022-004-HC.jpg,1500,solid,I,m,575,3,2,42186.5,149813.39999997616,8032,ATS,C,20
21,test,1,A,haborder.png,1,m,Wed Aug 20 2025 13:07:53 GMT-0500 (Central Daylight Time),194132.5,CFD-BM-022-004-HC.jpg,1500,solid,I,m,602,3,2,44319.10000002384,149813.39999997616,8032,ATS,C,21
22,test,1,A,haborder.png,1,z,Wed Aug 20 2025 13:07:53 GMT-0500 (Central Daylight Time),196381.79999995232,CFD-BM-043-014-A.jpg,1600,solid,I,z,626,2,2,46568.39999997616,149813.39999997616,8032,ATS,C,22
23,test,1,A,haborder.png,1,m,Wed Aug 20 2025 13:07:53 GMT-0500 (Central Daylight Time),198664.29999995232,CFD-WF-013-009-HC.jpg,1500,solid,I,m,763,11,2,48850.89999997616,149813.39999997616,8032,ATS,C,23
24,test,1,A,haborder.png,1,m,Wed Aug 20 2025 13:07:53 GMT-0500 (Central Daylight Time),200713.59999990463,CFD-WF-013-009-HC.jpg,1500,solid,I,m,529,11,2,50900.199999928474,149813.39999997616,8032,ATS,C,24
1,test,1,B,mfborder.png,1,m,Wed Aug 20 2025 13:07:53 GMT-0500 (Central Daylight Time),218425.0,CFD-WM-034-040-A.jpg,1200,dash,I,m,540,6,2,1765.9000000953674,216659.09999990463,8032,ATS,C,1
2,test,1,B,mfborder.png,1,z,Wed Aug 20 2025 13:07:53 GMT-0500 (Central Daylight Time),220407.5,CFD-WF-037-016-A.jpg,1500,dash,I,z,465,11,2,3748.4000000953674,216659.09999990463,8032,ATS,C,2
3,test,1,B,mfborder.png,1,z,Wed Aug 20 2025 13:07:53 GMT-0500 (Central Daylight Time),222073.5,CFD-WF-013-009-HC.jpg,1000,dash,I,z,646,12,2,5414.400000095367,216659.09999990463,8032,ATS,C,3
4,test,1,B,mfborder.png,1,m,Wed Aug 20 2025 13:07:53 GMT-0500 (Central Daylight Time),224239.79999995232,CFD-BM-022-004-HC.jpg,1700,dash,I,m,441,1,2,7580.700000047684,216659.09999990463,8032,ATS,C,4
5,test,1,B,mfborder.png,1,m,Wed Aug 20 2025 13:07:53 GMT-0500 (Central Daylight Time),226422.39999997616,CFD-WM-035-036-HC.jpg,1600,dash,I,m,551,10,2,9763.300000071526,216659.09999990463,8032,ATS,C,5
6,test,1,B,mfborder.png,1,m,Wed Aug 20 2025 13:07:53 GMT-0500 (Central Daylight Time),228671.5,CFD-WM-036-018-A.jpg,1700,dash,I,m,523,9,2,12012.400000095367,216659.09999990463,8032,ATS,C,6
7,test,1,B,mfborder.png,1,z,Wed Aug 20 2025 13:07:53 GMT-0500 (Central Daylight Time),231104.0,CFD-BF-042-031-HC.jpg,1500,dash,I,z,914,3,2,14444.900000095367,216659.09999990463,8032,ATS,C,7
8,test,1,B,mfborder.png,1,z,Wed Aug 20 2025 13:07:53 GMT-0500 (Central Daylight Time),232637.09999990463,CFD-BF-031-020-A.jpg,1000,dash,I,z,501,4,2,15978.0,216659.09999990463,8032,ATS,C,8
9,test,1,B,mfborder.png,1,m,Wed Aug 20 2025 13:07:53 GMT-0500 (Central Daylight Time),235153.0,CFD-BM-043-014-A.jpg,2000,dash,I,m,489,5,2,18493.900000095367,216659.09999990463,8032,ATS,C,9
10,test,1,B,mfborder.png,1,m,Wed Aug 20 2025 13:07:53 GMT-0500 (Central Daylight Time),237352.39999997616,CFD-BM-022-004-HC.jpg,1700,dash,I,m,480,1,2,20693.300000071526,216659.09999990463,8032,ATS,C,10
11,test,1,B,mfborder.png,1,z,Wed Aug 20 2025 13:07:53 GMT-0500 (Central Daylight Time),239468.39999997616,CFD-BF-042-031-HC.jpg,1500,dash,I,z,586,3,2,22809.300000071526,216659.09999990463,8032,ATS,C,11
12,test,1,B,mfborder.png,1,z,Wed Aug 20 2025 13:07:53 GMT-0500 (Central Daylight Time),241634.19999992847,CFD-WF-037-016-A.jpg,1500,dash,I,z,637,11,2,24975.100000023842,216659.09999990463,8032,ATS,C,12
13,test,1,B,mfborder.png,1,m,Wed Aug 20 2025 13:07:53 GMT-0500 (Central Daylight Time),243966.89999997616,CFD-WM-035-036-HC.jpg,1600,dash,I,m,707,10,2,27307.800000071526,216659.09999990463,8032,ATS,C,13
14,test,1,B,mfborder.png,1,z,Wed Aug 20 2025 13:07:53 GMT-0500 (Central Daylight Time),246082.79999995232,CFD-BF-019-004-HC.jpg,1400,dash,I,z,694,7,2,29423.700000047684,216659.09999990463,8032,ATS,C,14
15,test,1,B,mfborder.png,1,z,Wed Aug 20 2025 13:07:53 GMT-0500 (Central Daylight Time),248582.09999990463,CFD-WF-001-010-HC.jpg,1900,dash,I,z,567,8,2,31923.0,216659.09999990463,8032,ATS,C,15
16,test,1,B,mfborder.png,1,m,Wed Aug 20 2025 13:07:53 GMT-0500 (Central Daylight Time),250314.79999995232,CFD-WM-034-040-A.jpg,1200,dash,I,m,504,6,2,33655.700000047684,216659.09999990463,8032,ATS,C,16
17,test,1,B,mfborder.png,1,m,Wed Aug 20 2025 13:07:53 GMT-0500 (Central Daylight Time),252614.0,CFD-WM-036-018-A.jpg,1700,dash,I,m,567,9,2,35954.90000009537,216659.09999990463,8032,ATS,C,17
18,test,1,B,mfborder.png,1,m,Wed Aug 20 2025 13:07:53 GMT-0500 (Central Daylight Time),254746.89999997616,CFD-BM-021-026-A.jpg,1600,dash,I,m,511,2,2,38087.800000071526,216659.09999990463,8032,ATS,C,18
19,test,1,B,mfborder.png,1,z,Wed Aug 20 2025 13:07:53 GMT-0500 (Central Daylight Time),257246.09999990463,CFD-WF-001-010-HC.jpg,1900,dash,I,z,576,8,2,40587.0,216659.09999990463,8032,ATS,C,19
20,test,1,B,mfborder.png,1,m,Wed Aug 20 2025 13:07:53 GMT-0500 (Central Daylight Time),259795.09999990463,CFD-BM-043-014-A.jpg,2000,dash,I,m,519,5,2,43136.0,216659.09999990463,8032,ATS,C,20
21,test,1,B,mfborder.png,1,z,Wed Aug 20 2025 13:07:53 GMT-0500 (Central Daylight Time),261827.89999997616,CFD-BF-019-004-HC.jpg,1400,dash,I,z,610,7,2,45168.800000071526,216659.09999990463,8032,ATS,C,21
22,test,1,B,mfborder.png,1,z,Wed Aug 20 2025 13:07:53 GMT-0500 (Central Daylight Time),263510.6999999285,CFD-WF-013-009-HC.jpg,1000,dash,I,z,657,12,2,46851.60000002384,216659.09999990463,8032,ATS,C,22
23,test,1,B,mfborder.png,1,z,Wed Aug 20 2025 13:07:53 GMT-0500 (Central Daylight Time),265193.59999990463,CFD-BF-031-020-A.jpg,1000,dash,I,z,663,4,2,48534.5,216659.09999990463,8032,ATS,C,23
24,test,1,B,mfborder.png,1,m,Wed Aug 20 2025 13:07:53 GMT-0500 (Central Daylight Time),267359.5,CFD-BM-021-026-A.jpg,1600,dash,I,m,548,2,2,50700.40000009537,216659.09999990463,8032,ATS,C,24
1,prac,1,C,mfborder.png,1,z,Wed Aug 20 2025 13:07:53 GMT-0500 (Central Daylight Time),300415.6999999285,CFD-WF-013-009-HC.jpg,1600,dash,I,z,1329,2,2,3715.399999976158,296700.2999999523,8032,ATS,C,1
2,prac,1,C,haborder.png,1,z,Wed Aug 20 2025 13:07:53 GMT-0500 (Central Daylight Time),304048.1999999285,CFD-BF-031-020-A.jpg,1900,dash,I,z,946,2,2,7347.899999976158,296700.2999999523,8032,ATS,C,2
3,prac,1,C,mfborder.png,1,z,Wed Aug 20 2025 13:07:53 GMT-0500 (Central Daylight Time),306713.89999997616,CFD-BF-019-004-HC.jpg,1000,dash,I,z,878,2,2,10013.600000023842,296700.2999999523,8032,ATS,C,3
3,prac,1,C,mfborder.png,0,z,Wed Aug 20 2025 13:07:53 GMT-0500 (Central Daylight Time),310112.6999999285,CFD-WF-023-013-A.jpg,1500,solid,I,m,1130,2,2,13412.399999976158,296700.2999999523,8032,ATS,C,4
4,prac,1,C,haborder.png,1,m,Wed Aug 20 2025 13:07:53 GMT-0500 (Central Daylight Time),313278.59999990463,CFD-BM-022-004-HC.jpg,1500,solid,I,m,873,2,2,16578.299999952316,296700.2999999523,8032,ATS,C,5
4,prac,1,C,mfborder.png,0,m,Wed Aug 20 2025 13:07:53 GMT-0500 (Central Daylight Time),317077.2999999523,CFD-BM-034-035-HC.jpg,2000,solid,I,z,1007,2,2,20377.0,296700.2999999523,8032,ATS,C,6
5,prac,1,C,haborder.png,1,m,Wed Aug 20 2025 13:07:53 GMT-0500 (Central Daylight Time),319559.7999999523,CFD-WM-028-005-HC.jpg,1000,dash,I,m,696,2,2,22859.5,296700.2999999523,8032,ATS,C,7
6,prac,1,C,haborder.png,1,m,Wed Aug 20 2025 13:07:53 GMT-0500 (Central Daylight Time),322675.5,CFD-WM-028-005-HC.jpg,1400,solid,I,m,927,2,2,25975.200000047684,296700.2999999523,8032,ATS,C,8
6,prac,1,C,mfborder.png,0,m,Wed Aug 20 2025 13:07:53 GMT-0500 (Central Daylight Time),326174.39999997616,CFD-BM-043-014-A.jpg,1200,dash,I,None,1516,2,2,29474.100000023842,296700.2999999523,8032,ATS,C,9
6,prac,1,C,mfborder.png,0,m,Wed Aug 20 2025 13:07:53 GMT-0500 (Central Daylight Time),329590.2999999523,CFD-WM-036-018-A.jpg,1700,solid,I,z,931,2,2,32890.0,296700.2999999523,8032,ATS,C,10
7,prac,1,C,haborder.png,1,z,Wed Aug 20 2025 13:07:53 GMT-0500 (Central Daylight Time),332932.1999999285,CFD-WF-037-016-A.jpg,1600,dash,I,z,911,2,2,36231.89999997616,296700.2999999523,8032,ATS,C,11
8,prac,1,C,haborder.png,1,z,Wed Aug 20 2025 13:07:53 GMT-0500 (Central Daylight Time),336288.09999990463,CFD-BF-002-018-A.jpg,1700,solid,I,z,856,2,2,39587.799999952316,296700.2999999523,8032,ATS,C,12
1,test,1,C,mfborder.png,1,z,Wed Aug 20 2025 13:07:53 GMT-0500 (Central Daylight Time),359563.89999997616,CFD-WF-037-016-A.jpg,1500,dash,I,z,1319,3,2,2840.600000023842,356723.2999999523,8032,ATS,C,1
1,test,1,C,haborder.png,0,z,Wed Aug 20 2025 13:07:53 GMT-0500 (Central Daylight Time),362729.5,CFD-BM-043-014-A.jpg,1900,solid,I,m,1246,8,2,6006.200000047684,356723.2999999523,8032,ATS,C,2
2,test,1,C,haborder.png,1,m,Wed Aug 20 2025 13:07:53 GMT-0500 (Central Daylight Time),365728.59999990463,CFD-BF-019-004-HC.jpg,1600,solid,I,m,1373,10,2,9005.299999952316,356723.2999999523,8032,ATS,C,3
3,test,1,C,haborder.png,1,m,Wed Aug 20 2025 13:07:53 GMT-0500 (Central Daylight Time),367678.2999999523,CFD-WF-013-009-HC.jpg,1000,solid,I,m,918,12,2,10955.0,356723.2999999523,8032,ATS,C,4
4,test,1,C,haborder.png,1,m,Wed Aug 20 2025 13:07:53 GMT-0500 (Central Daylight Time),370027.2999999523,CFD-WF-001-010-HC.jpg,1500,solid,I,m,820,11,2,13304.0,356723.2999999523,8032,ATS,C,5
5,test,1,C,mfborder.png,1,z,Wed Aug 20 2025 13:07:53 GMT-0500 (Central Daylight Time),372409.89999997616,CFD-WF-037-016-A.jpg,1500,dash,I,z,862,3,2,15686.600000023842,356723.2999999523,8032,ATS,C,6
6,test,1,C,mfborder.png,1,m,Wed Aug 20 2025 13:07:53 GMT-0500 (Central Daylight Time),374592.5,CFD-BM-022-004-HC.jpg,1200,dash,I,m,964,6,2,17869.200000047684,356723.2999999523,8032,ATS,C,7
7,test,1,C,haborder.png,1,z,Wed Aug 20 2025 13:07:53 GMT-0500 (Central Daylight Time),377159.0,CFD-WM-036-018-A.jpg,1400,solid,I,z,1150,7,2,20435.700000047684,356723.2999999523,8032,ATS,C,8
8,test,1,C,haborder.png,1,m,Wed Aug 20 2025 13:07:53 GMT-0500 (Central Daylight Time),379590.89999997616,CFD-WF-001-010-HC.jpg,1500,solid,I,m,908,11,2,22867.600000023842,356723.2999999523,8032,ATS,C,9
8,test,1,C,mfborder.png,0,m,Wed Aug 20 2025 13:07:53 GMT-0500 (Central Daylight Time),381840.1999999285,CFD-WM-035-036-HC.jpg,1000,dash,I,z,1231,4,2,25116.899999976158,356723.2999999523,8032,ATS,C,10
9,test,1,C,haborder.png,1,m,Wed Aug 20 2025 13:07:53 GMT-0500 (Central Daylight Time),384289.5,CFD-WF-013-009-HC.jpg,1000,solid,I,m,1429,12,2,27566.200000047684,356723.2999999523,8032,ATS,C,11
9,test,1,C,haborder.png,0,z,Wed Aug 20 2025 13:07:53 GMT-0500 (Central Daylight Time),387321.89999997616,CFD-BM-021-026-A.jpg,1700,solid,I,m,1304,9,2,30598.600000023842,356723.2999999523,8032,ATS,C,12
10,test,1,C,mfborder.png,1,z,Wed Aug 20 2025 13:07:53 GMT-0500 (Central Daylight Time),390104.2999999523,CFD-BF-031-020-A.jpg,1600,dash,I,z,1165,2,2,33381.0,356723.2999999523,8032,ATS,C,13
11,test,1,C,haborder.png,1,z,Wed Aug 20 2025 13:07:53 GMT-0500 (Central Daylight Time),392553.6999999285,CFD-WM-036-018-A.jpg,1400,solid,I,z,1029,7,2,35830.39999997616,356723.2999999523,8032,ATS,C,14
12,test,1,C,mfborder.png,1,z,Wed Aug 20 2025 13:07:53 GMT-0500 (Central Daylight Time),395186.09999990463,CFD-BF-042-031-HC.jpg,1700,dash,I,z,903,1,2,38462.799999952316,356723.2999999523,8032,ATS,C,15
13,test,1,C,haborder.png,1,m,Wed Aug 20 2025 13:07:53 GMT-0500 (Central Daylight Time),397585.09999990463,CFD-BF-019-004-HC.jpg,1600,solid,I,m,780,10,2,40861.799999952316,356723.2999999523,8032,ATS,C,16
14,test,1,C,mfborder.png,1,z,Wed Aug 20 2025 13:07:53 GMT-0500 (Central Daylight Time),400551.0,CFD-BF-031-020-A.jpg,1600,dash,I,z,1340,2,2,43827.700000047684,356723.2999999523,8032,ATS,C,17
15,test,1,C,mfborder.png,1,m,Wed Aug 20 2025 13:07:53 GMT-0500 (Central Daylight Time),402817.2999999523,CFD-WM-035-036-HC.jpg,1000,dash,I,m,1247,4,2,46094.0,356723.2999999523,8032,ATS,C,18
16,test,1,C,mfborder.png,1,z,Wed Aug 20 2025 13:07:53 GMT-0500 (Central Daylight Time),405766.0,CFD-BF-042-031-HC.jpg,1700,dash,I,z,1216,1,2,49042.700000047684,356723.2999999523,8032,ATS,C,19
16,test,1,C,haborder.png,0,z,Wed Aug 20 2025 13:07:53 GMT-0500 (Central Daylight Time),409215.0,CFD-BM-043-014-A.jpg,1900,solid,I,None,1516,8,2,52491.700000047684,356723.2999999523,8032,ATS,C,20
17,test,1,C,haborder.png,1,z,Wed Aug 20 2025 13:07:53 GMT-0500 (Central Daylight Time),411818.0,CFD-BM-021-026-A.jpg,1700,solid,I,z,867,9,2,55094.700000047684,356723.2999999523,8032,ATS,C,21
18,test,1,C,mfborder.png,1,m,Wed Aug 20 2025 13:07:53 GMT-0500 (Central Daylight Time),414813.39999997616,CFD-WM-034-040-A.jpg,2000,dash,I,m,967,5,2,58090.10000002384,356723.2999999523,8032,ATS,C,22
19,test,1,C,mfborder.png,1,m,Wed Aug 20 2025 13:07:53 GMT-0500 (Central Daylight Time),416812.6999999285,CFD-BM-022-004-HC.jpg,1200,dash,I,m,776,6,2,60089.39999997616,356723.2999999523,8032,ATS,C,23
20,test,1,C,mfborder.png,1,m,Wed Aug 20 2025 13:07:53 GMT-0500 (Central Daylight Time),419478.6999999285,CFD-WM-034-040-A.jpg,2000,dash,I,m,650,5,2,62755.39999997616,356723.2999999523,8032,ATS,C,24
0,test,2,C,mfborder.png,0,m,Wed Aug 20 2025 13:07:53 GMT-0500 (Central Daylight Time),428259.1999999285,CFD-BM-034-035-HC.jpg,1000,dash,I,z,1403,4,2,2432.600000023842,425826.59999990463,8032,ATS,C,1
0,test,2,C,mfborder.png,0,z,Wed Aug 20 2025 13:07:53 GMT-0500 (Central Daylight Time),431491.39999997616,CFD-WF-013-009-HC.jpg,1700,dash,I,None,1516,1,2,5664.800000071526,425826.59999990463,8032,ATS,C,2
1,test,2,C,haborder.png,1,m,Wed Aug 20 2025 13:07:53 GMT-0500 (Central Daylight Time),433607.59999990463,CFD-WM-028-005-HC.jpg,1500,solid,I,m,599,11,2,7781.0,425826.59999990463,8032,ATS,C,3
2,test,2,C,haborder.png,1,m,Wed Aug 20 2025 13:07:53 GMT-0500 (Central Daylight Time),435840.09999990463,CFD-BM-022-004-HC.jpg,1600,solid,I,m,607,10,2,10013.5,425826.59999990463,8032,ATS,C,4
3,test,2,C,haborder.png,1,z,Wed Aug 20 2025 13:07:53 GMT-0500 (Central Daylight Time),438439.1999999285,CFD-BF-002-018-A.jpg,1900,solid,I,z,682,8,2,12612.600000023842,425826.59999990463,8032,ATS,C,5
4,test,2,C,haborder.png,1,z,Wed Aug 20 2025 13:07:53 GMT-0500 (Central Daylight Time),441055.09999990463,CFD-WF-037-016-A.jpg,1700,solid,I,z,890,9,2,15228.5,425826.59999990463,8032,ATS,C,6
5,test,2,C,mfborder.png,1,m,Wed Aug 20 2025 13:07:53 GMT-0500 (Central Daylight Time),443987.5,CFD-BM-043-014-A.jpg,2000,dash,I,m,911,5,2,18160.900000095367,425826.59999990463,8032,ATS,C,7
6,test,2,C,haborder.png,1,m,Wed Aug 20 2025 13:07:53 GMT-0500 (Central Daylight Time),445870.09999990463,CFD-WM-028-005-HC.jpg,1000,solid,I,m,859,12,2,20043.5,425826.59999990463,8032,ATS,C,8
7,test,2,C,haborder.png,1,z,Wed Aug 20 2025 13:07:53 GMT-0500 (Central Daylight Time),448002.7999999523,CFD-BF-031-020-A.jpg,1400,solid,I,z,711,7,2,22176.200000047684,425826.59999990463,8032,ATS,C,9
8,test,2,C,haborder.png,1,z,Wed Aug 20 2025 13:07:53 GMT-0500 (Central Daylight Time),450818.6999999285,CFD-WF-037-016-A.jpg,1700,solid,I,z,1087,9,2,24992.100000023842,425826.59999990463,8032,ATS,C,10
9,test,2,C,haborder.png,1,m,Wed Aug 20 2025 13:07:53 GMT-0500 (Central Daylight Time),452951.2999999523,CFD-WM-028-005-HC.jpg,1500,solid,I,m,615,11,2,27124.700000047684,425826.59999990463,8032,ATS,C,11
10,test,2,C,haborder.png,1,z,Wed Aug 20 2025 13:07:53 GMT-0500 (Central Daylight Time),455650.6999999285,CFD-BF-002-018-A.jpg,1900,solid,I,z,771,8,2,29824.100000023842,425826.59999990463,8032,ATS,C,12
11,test,2,C,mfborder.png,1,z,Wed Aug 20 2025 13:07:53 GMT-0500 (Central Daylight Time),458299.59999990463,CFD-BF-019-004-HC.jpg,1500,dash,I,z,1120,3,2,32473.0,425826.59999990463,8032,ATS,C,13
12,test,2,C,mfborder.png,1,m,Wed Aug 20 2025 13:07:53 GMT-0500 (Central Daylight Time),460216.5,CFD-BM-034-035-HC.jpg,1000,dash,I,m,890,4,2,34389.90000009537,425826.59999990463,8032,ATS,C,14
13,test,2,C,mfborder.png,1,m,Wed Aug 20 2025 13:07:53 GMT-0500 (Central Daylight Time),462565.59999990463,CFD-WM-036-018-A.jpg,1200,dash,I,m,1118,6,2,36739.0,425826.59999990463,8032,ATS,C,15
14,test,2,C,mfborder.png,1,m,Wed Aug 20 2025 13:07:53 GMT-0500 (Central Daylight Time),465280.6999999285,CFD-BM-043-014-A.jpg,2000,dash,I,m,689,5,2,39454.10000002384,425826.59999990463,8032,ATS,C,16
15,test,2,C,mfborder.png,1,z,Wed Aug 20 2025 13:07:53 GMT-0500 (Central Daylight Time),468046.39999997616,CFD-WF-023-013-A.jpg,1600,dash,I,z,1134,2,2,42219.800000071526,425826.59999990463,8032,ATS,C,17
16,test,2,C,haborder.png,1,z,Wed Aug 20 2025 13:07:53 GMT-0500 (Central Daylight Time),470362.5,CFD-BF-031-020-A.jpg,1400,solid,I,z,888,7,2,44535.90000009537,425826.59999990463,8032,ATS,C,18
17,test,2,C,haborder.png,1,m,Wed Aug 20 2025 13:07:53 GMT-0500 (Central Daylight Time),473228.09999990463,CFD-BM-022-004-HC.jpg,1600,solid,I,m,1243,10,2,47401.5,425826.59999990463,8032,ATS,C,19
18,test,2,C,mfborder.png,1,m,Wed Aug 20 2025 13:07:53 GMT-0500 (Central Daylight Time),475977.39999997616,CFD-WM-036-018-A.jpg,1200,dash,I,m,1405,6,2,50150.800000071526,425826.59999990463,8032,ATS,C,20
19,test,2,C,mfborder.png,1,z,Wed Aug 20 2025 13:07:53 GMT-0500 (Central Daylight Time),478493.09999990463,CFD-BF-019-004-HC.jpg,1500,dash,I,z,992,3,2,52666.5,425826.59999990463,8032,ATS,C,21
20,test,2,C,mfborder.png,1,z,Wed Aug 20 2025 13:07:53 GMT-0500 (Central Daylight Time),480942.5,CFD-WF-013-009-HC.jpg,1700,dash,I,z,717,1,2,55115.90000009537,425826.59999990463,8032,ATS,C,22
21,test,2,C,mfborder.png,1,z,Wed Aug 20 2025 13:07:53 GMT-0500 (Central Daylight Time),483191.6999999285,CFD-WF-023-013-A.jpg,1600,dash,I,z,624,2,2,57365.10000002384,425826.59999990463,8032,ATS,C,23
22,test,2,C,haborder.png,1,m,Wed Aug 20 2025 13:07:53 GMT-0500 (Central Daylight Time),484992.0,CFD-WM-028-005-HC.jpg,1000,solid,I,m,782,12,2,59165.40000009537,425826.59999990463,8032,ATS,C,24
1,test,3,C,mfborder.png,1,m,Wed Aug 20 2025 13:07:53 GMT-0500 (Central Daylight Time),493339.0,CFD-WM-035-036-HC.jpg,1000,dash,I,m,1279,4,2,2298.8000000715256,491040.1999999285,8032,ATS,C,1
2,test,3,C,haborder.png,1,z,Wed Aug 20 2025 13:07:53 GMT-0500 (Central Daylight Time),496054.5,CFD-BM-021-026-A.jpg,1700,solid,I,z,992,9,2,5014.300000071526,491040.1999999285,8032,ATS,C,2
3,test,3,C,mfborder.png,1,m,Wed Aug 20 2025 13:07:53 GMT-0500 (Central Daylight Time),497970.5,CFD-WM-035-036-HC.jpg,1000,dash,I,m,888,4,2,6930.300000071526,491040.1999999285,8032,ATS,C,3
4,test,3,C,mfborder.png,1,z,Wed Aug 20 2025 13:07:53 GMT-0500 (Central Daylight Time),501069.5,CFD-BF-042-031-HC.jpg,1700,dash,I,z,1376,1,2,10029.300000071526,491040.1999999285,8032,ATS,C,4
5,test,3,C,haborder.png,1,m,Wed Aug 20 2025 13:07:53 GMT-0500 (Central Daylight Time),503368.7999999523,CFD-BF-019-004-HC.jpg,1600,solid,I,m,681,10,2,12328.600000023842,491040.1999999285,8032,ATS,C,5
6,test,3,C,mfborder.png,1,z,Wed Aug 20 2025 13:07:53 GMT-0500 (Central Daylight Time),505784.59999990463,CFD-BF-031-020-A.jpg,1600,dash,I,z,781,2,2,14744.399999976158,491040.1999999285,8032,ATS,C,6
7,test,3,C,haborder.png,1,m,Wed Aug 20 2025 13:07:53 GMT-0500 (Central Daylight Time),508250.39999997616,CFD-WF-001-010-HC.jpg,1500,solid,I,m,945,11,2,17210.200000047684,491040.1999999285,8032,ATS,C,7
8,test,3,C,haborder.png,1,z,Wed Aug 20 2025 13:07:53 GMT-0500 (Central Daylight Time),511066.2999999523,CFD-BM-043-014-A.jpg,1900,solid,I,z,887,8,2,20026.100000023842,491040.1999999285,8032,ATS,C,8
9,test,3,C,mfborder.png,1,m,Wed Aug 20 2025 13:07:53 GMT-0500 (Central Daylight Time),513765.5,CFD-WM-034-040-A.jpg,2000,dash,I,m,675,5,2,22725.300000071526,491040.1999999285,8032,ATS,C,9
10,test,3,C,mfborder.png,1,m,Wed Aug 20 2025 13:07:53 GMT-0500 (Central Daylight Time),516331.6999999285,CFD-BM-022-004-HC.jpg,1200,dash,I,m,1336,6,2,25291.5,491040.1999999285,8032,ATS,C,10
11,test,3,C,haborder.png,1,m,Wed Aug 20 2025 13:07:53 GMT-0500 (Central Daylight Time),518863.6999999285,CFD-WF-001-010-HC.jpg,1500,solid,I,m,1006,11,2,27823.5,491040.1999999285,8032,ATS,C,11
12,test,3,C,mfborder.png,1,z,Wed Aug 20 2025 13:07:53 GMT-0500 (Central Daylight Time),521179.6999999285,CFD-BF-031-020-A.jpg,1600,dash,I,z,695,2,2,30139.5,491040.1999999285,8032,ATS,C,12
13,test,3,C,haborder.png,1,m,Wed Aug 20 2025 13:07:53 GMT-0500 (Central Daylight Time),523179.5,CFD-WF-013-009-HC.jpg,1000,solid,I,m,971,12,2,32139.300000071526,491040.1999999285,8032,ATS,C,13
14,test,3,C,haborder.png,1,z,Wed Aug 20 2025 13:07:53 GMT-0500 (Central Daylight Time),526344.7999999523,CFD-BM-043-014-A.jpg,1900,solid,I,z,1238,8,2,35304.60000002384,491040.1999999285,8032,ATS,C,14
15,test,3,C,haborder.png,1,m,Wed Aug 20 2025 13:07:53 GMT-0500 (Central Daylight Time),528677.3999999762,CFD-BF-019-004-HC.jpg,1600,solid,I,m,708,10,2,37637.200000047684,491040.1999999285,8032,ATS,C,15
16,test,3,C,mfborder.png,1,m,Wed Aug 20 2025 13:07:53 GMT-0500 (Central Daylight Time),530943.5999999046,CFD-BM-022-004-HC.jpg,1200,dash,I,m,1041,6,2,39903.39999997616,491040.1999999285,8032,ATS,C,16
17,test,3,C,haborder.png,1,z,Wed Aug 20 2025 13:07:53 GMT-0500 (Central Daylight Time),533542.6999999285,CFD-BM-021-026-A.jpg,1700,solid,I,z,874,9,2,42502.5,491040.1999999285,8032,ATS,C,17
18,test,3,C,mfborder.png,1,m,Wed Aug 20 2025 13:07:53 GMT-0500 (Central Daylight Time),536291.6999999285,CFD-WM-034-040-A.jpg,2000,dash,I,m,727,5,2,45251.5,491040.1999999285,8032,ATS,C,18
19,test,3,C,haborder.png,1,z,Wed Aug 20 2025 13:07:53 GMT-0500 (Central Daylight Time),538707.6999999285,CFD-WM-036-018-A.jpg,1400,solid,I,z,986,7,2,47667.5,491040.1999999285,8032,ATS,C,19
20,test,3,C,mfborder.png,1,z,Wed Aug 20 2025 13:07:53 GMT-0500 (Central Daylight Time),541656.8999999762,CFD-WF-037-016-A.jpg,1500,dash,I,z,1430,3,2,50616.700000047684,491040.1999999285,8032,ATS,C,20
21,test,3,C,haborder.png,1,z,Wed Aug 20 2025 13:07:53 GMT-0500 (Central Daylight Time),544422.3999999762,CFD-WM-036-018-A.jpg,1400,solid,I,z,1334,7,2,53382.200000047684,491040.1999999285,8032,ATS,C,21
22,test,3,C,mfborder.png,1,z,Wed Aug 20 2025 13:07:53 GMT-0500 (Central Daylight Time),546938.3999999762,CFD-BF-042-031-HC.jpg,1700,dash,I,z,787,1,2,55898.200000047684,491040.1999999285,8032,ATS,C,22
23,test,3,C,haborder.png,1,m,Wed Aug 20 2025 13:07:53 GMT-0500 (Central Daylight Time),549170.8999999762,CFD-WF-013-009-HC.jpg,1000,solid,I,m,1212,12,2,58130.700000047684,491040.1999999285,8032,ATS,C,23
24,test,3,C,mfborder.png,1,z,Wed Aug 20 2025 13:07:53 GMT-0500 (Central Daylight Time),551637.0999999046,CFD-WF-037-016-A.jpg,1500,dash,I,z,935,3,2,60596.89999997616,491040.1999999285,8032,ATS,C,24
0,test,4,C,haborder.png,0,z,Wed Aug 20 2025 13:07:53 GMT-0500 (Central Daylight Time),560517.3999999762,CFD-BF-031-020-A.jpg,1400,solid,I,m,950,7,2,2382.2000000476837,558135.1999999285,8032,ATS,C,1
1,test,4,C,haborder.png,1,m,Wed Aug 20 2025 13:07:53 GMT-0500 (Central Daylight Time),562166.8999999762,CFD-WM-028-005-HC.jpg,1000,solid,I,m,632,12,2,4031.7000000476837,558135.1999999285,8032,ATS,C,2
2,test,4,C,mfborder.png,1,z,Wed Aug 20 2025 13:07:53 GMT-0500 (Central Daylight Time),564616.0999999046,CFD-BF-019-004-HC.jpg,1500,dash,I,z,923,3,2,6480.899999976158,558135.1999999285,8032,ATS,C,3
3,test,4,C,mfborder.png,1,z,Wed Aug 20 2025 13:07:53 GMT-0500 (Central Daylight Time),567048.7999999523,CFD-WF-013-009-HC.jpg,1700,dash,I,z,705,1,2,8913.600000023842,558135.1999999285,8032,ATS,C,4
4,test,4,C,haborder.png,1,m,Wed Aug 20 2025 13:07:53 GMT-0500 (Central Daylight Time),569181.5999999046,CFD-WM-028-005-HC.jpg,1500,solid,I,m,601,11,2,11046.399999976158,558135.1999999285,8032,ATS,C,5
5,test,4,C,mfborder.png,1,m,Wed Aug 20 2025 13:07:53 GMT-0500 (Central Daylight Time),571364.2999999523,CFD-WM-036-018-A.jpg,1200,dash,I,m,953,6,2,13229.100000023842,558135.1999999285,8032,ATS,C,6
6,test,4,C,haborder.png,1,m,Wed Aug 20 2025 13:07:53 GMT-0500 (Central Daylight Time),573713.5,CFD-BM-022-004-HC.jpg,1600,solid,I,m,723,10,2,15578.300000071526,558135.1999999285,8032,ATS,C,7
7,test,4,C,mfborder.png,1,z,Wed Aug 20 2025 13:07:53 GMT-0500 (Central Daylight Time),576379.0999999046,CFD-WF-013-009-HC.jpg,1700,dash,I,z,919,1,2,18243.899999976158,558135.1999999285,8032,ATS,C,8
8,test,4,C,mfborder.png,1,z,Wed Aug 20 2025 13:07:53 GMT-0500 (Central Daylight Time),578695.1999999285,CFD-WF-023-013-A.jpg,1600,dash,I,z,690,2,2,20560.0,558135.1999999285,8032,ATS,C,9
9,test,4,C,haborder.png,1,m,Wed Aug 20 2025 13:07:53 GMT-0500 (Central Daylight Time),580977.6999999285,CFD-BM-022-004-HC.jpg,1600,solid,I,m,654,10,2,22842.5,558135.1999999285,8032,ATS,C,10
10,test,4,C,haborder.png,1,z,Wed Aug 20 2025 13:07:53 GMT-0500 (Central Daylight Time),583093.5999999046,CFD-BF-031-020-A.jpg,1400,solid,I,z,692,7,2,24958.399999976158,558135.1999999285,8032,ATS,C,11
11,test,4,C,haborder.png,1,z,Wed Aug 20 2025 13:07:53 GMT-0500 (Central Daylight Time),585976.0999999046,CFD-BF-002-018-A.jpg,1900,solid,I,z,956,8,2,27840.899999976158,558135.1999999285,8032,ATS,C,12
12,test,4,C,mfborder.png,1,m,Wed Aug 20 2025 13:07:53 GMT-0500 (Central Daylight Time),587742.3999999762,CFD-BM-034-035-HC.jpg,1000,dash,I,m,742,4,2,29607.200000047684,558135.1999999285,8032,ATS,C,13
13,test,4,C,mfborder.png,1,m,Wed Aug 20 2025 13:07:53 GMT-0500 (Central Daylight Time),590808.1999999285,CFD-BM-043-014-A.jpg,2000,dash,I,m,1040,5,2,32673.0,558135.1999999285,8032,ATS,C,14
13,test,4,C,mfborder.png,0,m,Wed Aug 20 2025 13:07:53 GMT-0500 (Central Daylight Time),593207.0999999046,CFD-BM-034-035-HC.jpg,1000,dash,I,z,1366,4,2,35071.89999997616,558135.1999999285,8032,ATS,C,15
13,test,4,C,mfborder.png,0,m,Wed Aug 20 2025 13:07:53 GMT-0500 (Central Daylight Time),595939.8999999762,CFD-WM-036-018-A.jpg,1200,dash,I,None,1516,6,2,37804.700000047684,558135.1999999285,8032,ATS,C,16
14,test,4,C,haborder.png,1,z,Wed Aug 20 2025 13:07:53 GMT-0500 (Central Daylight Time),598705.3999999762,CFD-WF-037-016-A.jpg,1700,solid,I,z,1046,9,2,40570.200000047684,558135.1999999285,8032,ATS,C,17
15,test,4,C,haborder.png,1,m,Wed Aug 20 2025 13:07:53 GMT-0500 (Central Daylight Time),600838.0999999046,CFD-WM-028-005-HC.jpg,1500,solid,I,m,608,11,2,42702.89999997616,558135.1999999285,8032,ATS,C,18
16,test,4,C,haborder.png,1,z,Wed Aug 20 2025 13:07:53 GMT-0500 (Central Daylight Time),603453.8999999762,CFD-BF-002-018-A.jpg,1900,solid,I,z,692,8,2,45318.700000047684,558135.1999999285,8032,ATS,C,19
17,test,4,C,haborder.png,1,m,Wed Aug 20 2025 13:07:53 GMT-0500 (Central Daylight Time),605103.6999999285,CFD-WM-028-005-HC.jpg,1000,solid,I,m,624,12,2,46968.5,558135.1999999285,8032,ATS,C,20
18,test,4,C,mfborder.png,1,z,Wed Aug 20 2025 13:07:53 GMT-0500 (Central Daylight Time),607436.0999999046,CFD-WF-023-013-A.jpg,1600,dash,I,z,710,2,2,49300.89999997616,558135.1999999285,8032,ATS,C,21
19,test,4,C,haborder.png,1,z,Wed Aug 20 2025 13:07:53 GMT-0500 (Central Daylight Time),609918.5999999046,CFD-WF-037-016-A.jpg,1700,solid,I,z,750,9,2,51783.39999997616,558135.1999999285,8032,ATS,C,22
20,test,4,C,mfborder.png,1,z,Wed Aug 20 2025 13:07:53 GMT-0500 (Central Daylight Time),612251.1999999285,CFD-BF-019-004-HC.jpg,1500,dash,I,z,803,3,2,54116.0,558135.1999999285,8032,ATS,C,23
21,test,4,C,mfborder.png,1,m,Wed Aug 20 2025 13:07:53 GMT-0500 (Central Daylight Time),615316.7999999523,CFD-BM-043-014-A.jpg,2000,dash,I,m,1034,5,2,57181.60000002384,558135.1999999285,8032,ATS,C,24
