acc_sum,block,block_c,change,condition,correct,correct_response,datetime,endtime,face,project,response,response_time,row_sel,session_number,start_end,starttime,subject_id,task,task_vers,trial
0,prac,1,,1-Back,,,Thu Feb 26 2026 12:05:57 GMT-0600 (Central Standard Time),,005_o_f_d_a.png,O,space,9570,1,1,,,7767,VNB,B,0
1,prac,1,0.0,1-Back,1.0,m,Thu Feb 26 2026 12:05:57 GMT-0600 (Central Standard Time),220350.79999998212,020_y_f_n_a.png,O,m,816,2,1,1654.8999999761581,218695.90000000596,7767,VNB,B,1
1,prac,1,0.0,1-Back,0.0,m,Thu Feb 26 2026 12:05:57 GMT-0600 (Central Standard Time),223216.40000000596,007_m_m_h_a.png,O,None,2009,3,1,2861.2000000178814,220355.19999998808,7767,VNB,B,2
2,prac,1,0.0,1-Back,1.0,m,Thu Feb 26 2026 12:05:57 GMT-0600 (Central Standard Time),225082.40000000596,016_y_m_d_a.png,O,m,1006,4,1,1857.1000000238419,223225.29999998212,7767,VNB,B,3
2,prac,1,0.0,1-Back,0.0,m,Thu Feb 26 2026 12:05:57 GMT-0600 (Central Standard Time),227180.90000000596,005_o_f_n_a.png,O,z,1237,5,1,2094.600000023842,225086.29999998212,7767,VNB,B,4
2,prac,1,1.0,1-Back,0.0,z,Thu Feb 26 2026 12:05:57 GMT-0600 (Central Standard Time),230046.90000000596,016_y_m_n_a.png,O,None,2008,6,1,2856.600000023842,227190.29999998212,7767,VNB,B,5
2,prac,1,0.0,1-Back,0.0,m,Thu Feb 26 2026 12:05:57 GMT-0600 (Central Standard Time),232895.59999999404,004_o_m_h_a.png,O,None,2013,7,1,2844.5999999940395,230051.0,7767,VNB,B,6
3,prac,1,0.0,1-Back,1.0,m,Thu Feb 26 2026 12:05:57 GMT-0600 (Central Standard Time),234928.79999998212,011_m_f_d_a.png,O,m,1171,8,1,2023.0,232905.79999998212,7767,VNB,B,7
3,prac,1,1.0,1-Back,0.0,z,Thu Feb 26 2026 12:05:57 GMT-0600 (Central Standard Time),237627.79999998212,020_y_f_d_a.png,O,m,1845,9,1,2695.5999999940395,234932.19999998808,7767,VNB,B,8
4,prac,1,0.0,1-Back,1.0,m,Thu Feb 26 2026 12:05:57 GMT-0600 (Central Standard Time),240176.40000000596,007_m_m_n_a.png,O,m,1664,10,1,2539.2000000178814,237637.19999998808,7767,VNB,B,9
5,prac,1,0.0,1-Back,1.0,m,Thu Feb 26 2026 12:05:57 GMT-0600 (Central Standard Time),242242.79999998212,005_o_f_h_a.png,O,m,1223,11,1,2063.2999999821186,240179.5,7767,VNB,B,10
6,prac,1,0.0,1-Back,1.0,m,Thu Feb 26 2026 12:05:57 GMT-0600 (Central Standard Time),244477.0,016_y_m_d_a.png,O,m,1358,12,1,2218.4000000059605,242258.59999999404,7767,VNB,B,11
0,prac,2,0.0,1-Back,,,Thu Feb 26 2026 12:05:57 GMT-0600 (Central Standard Time),244477.0,005_o_f_d_a.png,O,a,14176,1,1,2218.4000000059605,242258.59999999404,7767,VNB,B,0
1,prac,2,0.0,1-Back,1.0,m,Thu Feb 26 2026 12:05:57 GMT-0600 (Central Standard Time),264019.7999999821,020_y_f_n_a.png,O,m,1488,2,1,2323.7999999821186,261696.0,7767,VNB,B,1
2,prac,2,0.0,1-Back,1.0,m,Thu Feb 26 2026 12:05:57 GMT-0600 (Central Standard Time),266336.6999999881,007_m_m_h_a.png,O,m,1472,3,1,2312.9000000059605,264023.7999999821,7767,VNB,B,2
3,prac,2,0.0,1-Back,1.0,m,Thu Feb 26 2026 12:05:57 GMT-0600 (Central Standard Time),268620.59999999404,016_y_m_d_a.png,O,m,1492,4,1,2278.0999999940395,266342.5,7767,VNB,B,3
4,prac,2,0.0,1-Back,1.0,m,Thu Feb 26 2026 12:05:57 GMT-0600 (Central Standard Time),270884.2999999821,005_o_f_n_a.png,O,m,1400,5,1,2258.0,268626.2999999821,7767,VNB,B,4
4,prac,2,1.0,1-Back,0.0,z,Thu Feb 26 2026 12:05:57 GMT-0600 (Central Standard Time),273268.6999999881,016_y_m_n_a.png,O,m,1538,6,1,2375.2999999821186,270893.40000000596,7767,VNB,B,5
5,prac,2,0.0,1-Back,1.0,m,Thu Feb 26 2026 12:05:57 GMT-0600 (Central Standard Time),275216.59999999404,004_o_m_h_a.png,O,m,1105,7,1,1943.699999988079,273272.90000000596,7767,VNB,B,6
6,prac,2,0.0,1-Back,1.0,m,Thu Feb 26 2026 12:05:57 GMT-0600 (Central Standard Time),277631.2999999821,011_m_f_d_a.png,O,m,1564,8,1,2404.2999999821186,275227.0,7767,VNB,B,7
7,prac,2,1.0,1-Back,1.0,z,Thu Feb 26 2026 12:05:57 GMT-0600 (Central Standard Time),280047.2999999821,020_y_f_d_a.png,O,z,1560,9,1,2410.0,277637.2999999821,7767,VNB,B,8
7,prac,2,0.0,1-Back,0.0,m,Thu Feb 26 2026 12:05:57 GMT-0600 (Central Standard Time),282546.6999999881,007_m_m_n_a.png,O,z,1624,10,1,2486.7999999821186,280059.90000000596,7767,VNB,B,9
7,prac,2,0.0,1-Back,0.0,m,Thu Feb 26 2026 12:05:57 GMT-0600 (Central Standard Time),284980.0,005_o_f_h_a.png,O,z,1572,11,1,2426.9000000059605,282553.09999999404,7767,VNB,B,10
8,prac,2,0.0,1-Back,1.0,m,Thu Feb 26 2026 12:05:57 GMT-0600 (Central Standard Time),287394.7999999821,016_y_m_d_a.png,O,m,1552,12,1,2405.5,284989.2999999821,7767,VNB,B,11
0,test,1,0.0,1-Back,,,Thu Feb 26 2026 12:05:57 GMT-0600 (Central Standard Time),287394.7999999821,020_y_f_d_a.png,O,space,4535,1,1,2405.5,284989.2999999821,7767,VNB,B,0
1,test,1,0.0,1-Back,1.0,m,Thu Feb 26 2026 12:05:57 GMT-0600 (Central Standard Time),309888.7999999821,011_m_f_n_a.png,O,m,951,2,1,1974.8999999761581,307913.90000000596,7767,VNB,B,1
2,test,1,0.0,1-Back,1.0,m,Thu Feb 26 2026 12:05:57 GMT-0600 (Central Standard Time),311854.09999999404,004_o_m_h_a.png,O,m,936,3,1,1961.800000011921,309892.2999999821,7767,VNB,B,2
3,test,1,1.0,1-Back,1.0,z,Thu Feb 26 2026 12:05:57 GMT-0600 (Central Standard Time),314637.09999999404,007_m_m_h_a.png,O,z,1767,4,1,2776.0,311861.09999999404,7767,VNB,B,3
4,test,1,0.0,1-Back,1.0,m,Thu Feb 26 2026 12:05:57 GMT-0600 (Central Standard Time),316802.90000000596,005_o_f_n_a.png,O,m,1150,5,1,2162.100000023842,314640.7999999821,7767,VNB,B,4
4,test,1,0.0,1-Back,0.0,m,Thu Feb 26 2026 12:05:57 GMT-0600 (Central Standard Time),319667.90000000596,016_y_m_d_a.png,O,z,1846,6,1,2857.300000011921,316810.59999999404,7767,VNB,B,5
5,test,1,1.0,1-Back,1.0,z,Thu Feb 26 2026 12:05:57 GMT-0600 (Central Standard Time),322084.7999999821,011_m_f_d_a.png,O,z,1398,7,1,2415.0,319669.7999999821,7767,VNB,B,6
6,test,1,0.0,1-Back,1.0,m,Thu Feb 26 2026 12:05:57 GMT-0600 (Central Standard Time),323917.40000000596,020_y_f_h_a.png,O,m,805,8,1,1826.800000011921,322090.59999999404,7767,VNB,B,7
7,test,1,0.0,1-Back,1.0,m,Thu Feb 26 2026 12:05:57 GMT-0600 (Central Standard Time),326150.2999999821,004_o_m_n_a.png,O,m,1204,9,1,2228.199999988079,323922.09999999404,7767,VNB,B,8
8,test,1,0.0,1-Back,1.0,m,Thu Feb 26 2026 12:05:57 GMT-0600 (Central Standard Time),328717.09999999404,016_y_m_h_a.png,O,m,1550,10,1,2561.0,326156.09999999404,7767,VNB,B,9
9,test,1,0.0,1-Back,1.0,m,Thu Feb 26 2026 12:05:57 GMT-0600 (Central Standard Time),331031.2999999821,004_o_m_d_a.png,O,m,1285,11,1,2311.5,328719.7999999821,7767,VNB,B,10
10,test,1,1.0,1-Back,1.0,z,Thu Feb 26 2026 12:05:57 GMT-0600 (Central Standard Time),333297.0,005_o_f_d_a.png,O,z,1235,12,1,2258.0999999940395,331038.90000000596,7767,VNB,B,11
10,test,1,0.0,1-Back,0.0,m,Thu Feb 26 2026 12:05:57 GMT-0600 (Central Standard Time),335295.7999999821,007_m_m_n_a.png,O,z,976,13,1,1996.5999999940395,333299.1999999881,7767,VNB,B,12
11,test,1,1.0,1-Back,1.0,z,Thu Feb 26 2026 12:05:57 GMT-0600 (Central Standard Time),337694.90000000596,020_y_f_n_a.png,O,z,1368,14,1,2392.600000023842,335302.2999999821,7767,VNB,B,13
12,test,1,0.0,1-Back,1.0,m,Thu Feb 26 2026 12:05:57 GMT-0600 (Central Standard Time),340228.1999999881,011_m_f_h_a.png,O,m,1513,15,1,2530.5999999940395,337697.59999999404,7767,VNB,B,14
12,test,1,0.0,1-Back,0.0,m,Thu Feb 26 2026 12:05:57 GMT-0600 (Central Standard Time),342413.40000000596,007_m_m_d_a.png,O,z,1167,16,1,2176.5,340236.90000000596,7767,VNB,B,15
12,test,1,0.0,1-Back,0.0,m,Thu Feb 26 2026 12:05:57 GMT-0600 (Central Standard Time),345210.2999999821,016_y_m_n_a.png,O,z,1765,17,1,2794.699999988079,342415.59999999404,7767,VNB,B,16
12,test,1,0.0,1-Back,0.0,m,Thu Feb 26 2026 12:05:57 GMT-0600 (Central Standard Time),348242.6999999881,005_o_f_h_a.png,O,None,2014,18,1,3025.199999988079,345217.5,7767,VNB,B,17
0,test,2,0.0,1-Back,,,Thu Feb 26 2026 12:05:57 GMT-0600 (Central Standard Time),348242.6999999881,016_y_m_n_a.png,O,space,2807,1,1,3025.199999988079,345217.5,7767,VNB,B,0
1,test,2,0.0,1-Back,1.0,m,Thu Feb 26 2026 12:05:57 GMT-0600 (Central Standard Time),355024.0,020_y_f_h_a.png,O,m,918,2,1,1941.4000000059605,353082.59999999404,7767,VNB,B,1
2,test,2,1.0,1-Back,1.0,m,Thu Feb 26 2026 12:05:57 GMT-0600 (Central Standard Time),357157.2999999821,004_o_m_n_a.png,O,m,1105,3,1,2131.2999999821186,355026.0,7767,VNB,B,2
2,test,2,0.0,1-Back,0.0,m,Thu Feb 26 2026 12:05:57 GMT-0600 (Central Standard Time),359422.0,011_m_f_d_a.png,O,z,1245,4,1,2256.4000000059605,357165.59999999404,7767,VNB,B,3
3,test,2,0.0,1-Back,1.0,z,Thu Feb 26 2026 12:05:57 GMT-0600 (Central Standard Time),361990.1999999881,007_m_m_d_a.png,O,z,1539,5,1,2566.199999988079,359424.0,7767,VNB,B,4
4,test,2,0.0,1-Back,1.0,m,Thu Feb 26 2026 12:05:57 GMT-0600 (Central Standard Time),364288.2999999821,016_y_m_h_a.png,O,m,1278,6,1,2290.7999999821186,361997.5,7767,VNB,B,5
4,test,2,1.0,1-Back,0.0,z,Thu Feb 26 2026 12:05:57 GMT-0600 (Central Standard Time),367286.59999999404,005_o_f_h_a.png,O,m,1970,7,1,2995.699999988079,364290.90000000596,7767,VNB,B,6
5,test,2,0.0,1-Back,1.0,m,Thu Feb 26 2026 12:05:57 GMT-0600 (Central Standard Time),369519.5,011_m_f_n_a.png,O,m,1212,8,1,2228.2000000178814,367291.2999999821,7767,VNB,B,7
6,test,2,0.0,1-Back,1.0,m,Thu Feb 26 2026 12:05:57 GMT-0600 (Central Standard Time),371885.5,020_y_f_d_a.png,O,m,1349,9,1,2363.2000000178814,369522.2999999821,7767,VNB,B,8
6,test,2,0.0,1-Back,0.0,m,Thu Feb 26 2026 12:05:57 GMT-0600 (Central Standard Time),374251.0,007_m_m_n_a.png,O,z,1349,10,1,2358.0999999940395,371892.90000000596,7767,VNB,B,9
7,test,2,1.0,1-Back,1.0,m,Thu Feb 26 2026 12:05:57 GMT-0600 (Central Standard Time),376217.5,011_m_f_h_a.png,O,m,935,11,1,1963.7000000178814,374253.7999999821,7767,VNB,B,10
8,test,2,0.0,1-Back,1.0,z,Thu Feb 26 2026 12:05:57 GMT-0600 (Central Standard Time),378766.59999999404,004_o_m_h_a.png,O,z,1528,12,1,2541.5,376225.09999999404,7767,VNB,B,11
9,test,2,0.0,1-Back,1.0,m,Thu Feb 26 2026 12:05:57 GMT-0600 (Central Standard Time),380932.90000000596,016_y_m_d_a.png,O,m,1133,13,1,2164.300000011921,378768.59999999404,7767,VNB,B,12
9,test,2,0.0,1-Back,0.0,m,Thu Feb 26 2026 12:05:57 GMT-0600 (Central Standard Time),383965.1999999881,005_o_f_n_a.png,O,None,2014,14,1,3029.199999988079,380936.0,7767,VNB,B,13
9,test,2,0.0,1-Back,0.0,z,Thu Feb 26 2026 12:05:57 GMT-0600 (Central Standard Time),386013.1999999881,020_y_f_n_a.png,O,m,1028,15,1,2043.0999999940395,383970.09999999404,7767,VNB,B,14
10,test,2,1.0,1-Back,1.0,m,Thu Feb 26 2026 12:05:57 GMT-0600 (Central Standard Time),388179.1999999881,007_m_m_h_a.png,O,m,1144,16,1,2160.199999988079,386019.0,7767,VNB,B,15
11,test,2,0.0,1-Back,1.0,m,Thu Feb 26 2026 12:05:57 GMT-0600 (Central Standard Time),390262.2999999821,005_o_f_d_a.png,O,m,1061,17,1,2078.5,388183.7999999821,7767,VNB,B,16
11,test,2,1.0,1-Back,0.0,z,Thu Feb 26 2026 12:05:57 GMT-0600 (Central Standard Time),392844.6999999881,004_o_m_d_a.png,O,m,1555,18,1,2574.9000000059605,390269.7999999821,7767,VNB,B,17
0,test,3,1.0,1-Back,,,Thu Feb 26 2026 12:05:57 GMT-0600 (Central Standard Time),392844.6999999881,005_o_f_h_a.png,O,space,1396,1,1,2574.9000000059605,390269.7999999821,7767,VNB,B,0
1,test,3,0.0,1-Back,1.0,m,Thu Feb 26 2026 12:05:57 GMT-0600 (Central Standard Time),398560.1999999881,011_m_f_d_a.png,O,m,1202,2,1,2225.5,396334.6999999881,7767,VNB,B,1
2,test,3,1.0,1-Back,1.0,m,Thu Feb 26 2026 12:05:57 GMT-0600 (Central Standard Time),400909.1999999881,007_m_m_n_a.png,O,m,1329,3,1,2344.9000000059605,398564.2999999821,7767,VNB,B,2
2,test,3,0.0,1-Back,0.0,z,Thu Feb 26 2026 12:05:57 GMT-0600 (Central Standard Time),403508.2999999821,005_o_f_n_a.png,O,m,1572,4,1,2595.2999999821186,400913.0,7767,VNB,B,3
3,test,3,1.0,1-Back,1.0,m,Thu Feb 26 2026 12:05:57 GMT-0600 (Central Standard Time),405790.7999999821,004_o_m_d_a.png,O,m,1261,5,1,2276.199999988079,403514.59999999404,7767,VNB,B,4
3,test,3,0.0,1-Back,0.0,m,Thu Feb 26 2026 12:05:57 GMT-0600 (Central Standard Time),407990.6999999881,020_y_f_h_a.png,O,z,1178,6,1,2192.9000000059605,405797.7999999821,7767,VNB,B,5
4,test,3,0.0,1-Back,1.0,z,Thu Feb 26 2026 12:05:57 GMT-0600 (Central Standard Time),410289.5,016_y_m_h_a.png,O,z,1274,7,1,2292.5,407997.0,7767,VNB,B,6
5,test,3,0.0,1-Back,1.0,m,Thu Feb 26 2026 12:05:57 GMT-0600 (Central Standard Time),412272.1999999881,011_m_f_n_a.png,O,m,961,8,1,1975.199999988079,410297.0,7767,VNB,B,7
6,test,3,0.0,1-Back,1.0,m,Thu Feb 26 2026 12:05:57 GMT-0600 (Central Standard Time),414904.0,020_y_f_d_a.png,O,m,1609,9,1,2629.0,412275.0,7767,VNB,B,8
7,test,3,1.0,1-Back,1.0,m,Thu Feb 26 2026 12:05:57 GMT-0600 (Central Standard Time),417437.40000000596,004_o_m_n_a.png,O,m,1505,10,1,2527.100000023842,414910.2999999821,7767,VNB,B,9
8,test,3,0.0,1-Back,1.0,m,Thu Feb 26 2026 12:05:57 GMT-0600 (Central Standard Time),419569.90000000596,007_m_m_h_a.png,O,m,1110,11,1,2129.0,417440.90000000596,7767,VNB,B,10
9,test,3,0.0,1-Back,1.0,z,Thu Feb 26 2026 12:05:57 GMT-0600 (Central Standard Time),421686.0,011_m_f_h_a.png,O,z,1087,12,1,2111.300000011921,419574.6999999881,7767,VNB,B,11
10,test,3,1.0,1-Back,1.0,m,Thu Feb 26 2026 12:05:57 GMT-0600 (Central Standard Time),424018.59999999404,005_o_f_d_a.png,O,m,1299,13,1,2326.300000011921,421692.2999999821,7767,VNB,B,12
11,test,3,0.0,1-Back,1.0,z,Thu Feb 26 2026 12:05:57 GMT-0600 (Central Standard Time),426250.7999999821,007_m_m_d_a.png,O,z,1207,14,1,2227.7999999821186,424023.0,7767,VNB,B,13
11,test,3,0.0,1-Back,0.0,m,Thu Feb 26 2026 12:05:57 GMT-0600 (Central Standard Time),428533.5,016_y_m_n_a.png,O,z,1254,15,1,2274.9000000059605,426258.59999999404,7767,VNB,B,14
12,test,3,1.0,1-Back,1.0,m,Thu Feb 26 2026 12:05:57 GMT-0600 (Central Standard Time),430616.5,004_o_m_h_a.png,O,m,1059,16,1,2080.0,428536.5,7767,VNB,B,15
13,test,3,0.0,1-Back,1.0,m,Thu Feb 26 2026 12:05:57 GMT-0600 (Central Standard Time),432647.09999999404,016_y_m_d_a.png,O,m,1007,17,1,2023.199999988079,430623.90000000596,7767,VNB,B,16
14,test,3,1.0,1-Back,1.0,m,Thu Feb 26 2026 12:05:57 GMT-0600 (Central Standard Time),434980.2999999821,020_y_f_n_a.png,O,m,1329,18,1,2331.5,432648.7999999821,7767,VNB,B,17
0,test,4,1.0,1-Back,,,Thu Feb 26 2026 12:05:57 GMT-0600 (Central Standard Time),434980.2999999821,007_m_m_d_a.png,O,space,1205,1,1,2331.5,432648.7999999821,7767,VNB,B,0
1,test,4,0.0,1-Back,1.0,z,Thu Feb 26 2026 12:05:57 GMT-0600 (Central Standard Time),440813.59999999404,004_o_m_d_a.png,O,z,1582,2,1,2596.0,438217.59999999404,7767,VNB,B,1
2,test,4,0.0,1-Back,1.0,m,Thu Feb 26 2026 12:05:57 GMT-0600 (Central Standard Time),443362.0,016_y_m_h_a.png,O,m,1524,3,1,2538.4000000059605,440823.59999999404,7767,VNB,B,2
3,test,4,0.0,1-Back,1.0,m,Thu Feb 26 2026 12:05:57 GMT-0600 (Central Standard Time),445395.5,011_m_f_n_a.png,O,m,1007,4,1,2031.5,443364.0,7767,VNB,B,3
4,test,4,1.0,1-Back,1.0,m,Thu Feb 26 2026 12:05:57 GMT-0600 (Central Standard Time),447661.40000000596,005_o_f_h_a.png,O,m,1240,5,1,2257.2000000178814,445404.1999999881,7767,VNB,B,4
5,test,4,0.0,1-Back,1.0,m,Thu Feb 26 2026 12:05:57 GMT-0600 (Central Standard Time),449926.6999999881,007_m_m_n_a.png,O,m,1236,6,1,2263.2999999821186,447663.40000000596,7767,VNB,B,5
5,test,4,0.0,1-Back,0.0,m,Thu Feb 26 2026 12:05:57 GMT-0600 (Central Standard Time),452059.6999999881,016_y_m_d_a.png,O,z,1106,7,1,2126.2999999821186,449933.40000000596,7767,VNB,B,6
6,test,4,1.0,1-Back,1.0,z,Thu Feb 26 2026 12:05:57 GMT-0600 (Central Standard Time),454375.40000000596,020_y_f_d_a.png,O,z,1295,8,1,2312.9000000059605,452062.5,7767,VNB,B,7
7,test,4,0.0,1-Back,1.0,m,Thu Feb 26 2026 12:05:57 GMT-0600 (Central Standard Time),456624.90000000596,011_m_f_h_a.png,O,m,1225,9,1,2242.9000000059605,454382.0,7767,VNB,B,8
7,test,4,0.0,1-Back,0.0,z,Thu Feb 26 2026 12:05:57 GMT-0600 (Central Standard Time),458373.6999999881,004_o_m_h_a.png,O,m,720,10,1,1745.699999988079,456628.0,7767,VNB,B,9
8,test,4,1.0,1-Back,1.0,m,Thu Feb 26 2026 12:05:57 GMT-0600 (Central Standard Time),460506.5,005_o_f_n_a.png,O,m,1107,11,1,2126.0999999940395,458380.40000000596,7767,VNB,B,10
8,test,4,0.0,1-Back,0.0,m,Thu Feb 26 2026 12:05:57 GMT-0600 (Central Standard Time),462541.2999999821,011_m_f_d_a.png,O,z,1016,12,1,2032.7999999821186,460508.5,7767,VNB,B,11
8,test,4,0.0,1-Back,0.0,m,Thu Feb 26 2026 12:05:57 GMT-0600 (Central Standard Time),464822.1999999881,020_y_f_n_a.png,O,z,1254,13,1,2272.7999999821186,462549.40000000596,7767,VNB,B,12
8,test,4,0.0,1-Back,0.0,m,Thu Feb 26 2026 12:05:57 GMT-0600 (Central Standard Time),466973.09999999404,005_o_f_d_a.png,O,z,1134,14,1,2148.5999999940395,464824.5,7767,VNB,B,13
9,test,4,0.0,1-Back,1.0,m,Thu Feb 26 2026 12:05:57 GMT-0600 (Central Standard Time),469069.59999999404,020_y_f_h_a.png,O,m,1078,15,1,2085.0999999940395,466984.5,7767,VNB,B,14
9,test,4,1.0,1-Back,0.0,z,Thu Feb 26 2026 12:05:57 GMT-0600 (Central Standard Time),471069.5,007_m_m_h_a.png,O,m,978,16,1,1997.7000000178814,469071.7999999821,7767,VNB,B,15
10,test,4,0.0,1-Back,1.0,m,Thu Feb 26 2026 12:05:57 GMT-0600 (Central Standard Time),472838.2999999821,004_o_m_n_a.png,O,m,739,17,1,1764.8999999761581,471073.40000000596,7767,VNB,B,16
11,test,4,1.0,1-Back,1.0,z,Thu Feb 26 2026 12:05:57 GMT-0600 (Central Standard Time),475069.59999999404,016_y_m_n_a.png,O,z,1205,18,1,2228.5999999940395,472841.0,7767,VNB,B,17
0,test,5,1.0,1-Back,,,Thu Feb 26 2026 12:05:57 GMT-0600 (Central Standard Time),475069.59999999404,004_o_m_n_a.png,O,space,1492,1,1,2228.5999999940395,472841.0,7767,VNB,B,0
0,test,5,1.0,1-Back,0.0,m,Thu Feb 26 2026 12:05:57 GMT-0600 (Central Standard Time),481617.2999999821,005_o_f_h_a.png,O,None,2016,2,1,3029.0999999940395,478588.1999999881,7767,VNB,B,1
1,test,5,0.0,1-Back,1.0,m,Thu Feb 26 2026 12:05:57 GMT-0600 (Central Standard Time),483750.0,016_y_m_d_a.png,O,m,1113,3,1,2128.0999999940395,481621.90000000596,7767,VNB,B,2
1,test,5,0.0,1-Back,0.0,z,Thu Feb 26 2026 12:05:57 GMT-0600 (Central Standard Time),486248.5,004_o_m_d_a.png,O,m,1468,4,1,2495.5,483753.0,7767,VNB,B,3
2,test,5,0.0,1-Back,1.0,m,Thu Feb 26 2026 12:05:57 GMT-0600 (Central Standard Time),488231.59999999404,011_m_f_h_a.png,O,m,953,5,1,1975.0999999940395,486256.5,7767,VNB,B,4
3,test,5,0.0,1-Back,1.0,m,Thu Feb 26 2026 12:05:57 GMT-0600 (Central Standard Time),489997.5,020_y_f_n_a.png,O,m,737,6,1,1763.0,488234.5,7767,VNB,B,5
4,test,5,1.0,1-Back,1.0,z,Thu Feb 26 2026 12:05:57 GMT-0600 (Central Standard Time),492078.1999999881,005_o_f_n_a.png,O,z,1052,7,1,2076.699999988079,490001.5,7767,VNB,B,6
4,test,5,0.0,1-Back,0.0,m,Thu Feb 26 2026 12:05:57 GMT-0600 (Central Standard Time),494395.90000000596,011_m_f_d_a.png,O,z,1290,8,1,2316.100000023842,492079.7999999821,7767,VNB,B,7
5,test,5,0.0,1-Back,1.0,m,Thu Feb 26 2026 12:05:57 GMT-0600 (Central Standard Time),496563.90000000596,016_y_m_h_a.png,O,m,1150,9,1,2162.0,494401.90000000596,7767,VNB,B,8
5,test,5,0.0,1-Back,0.0,m,Thu Feb 26 2026 12:05:57 GMT-0600 (Central Standard Time),498361.2999999821,020_y_f_d_a.png,O,z,775,10,1,1794.7999999821186,496566.5,7767,VNB,B,9
5,test,5,0.0,1-Back,0.0,m,Thu Feb 26 2026 12:05:57 GMT-0600 (Central Standard Time),501178.0,007_m_m_n_a.png,O,z,1782,11,1,2808.9000000059605,498369.09999999404,7767,VNB,B,10
6,test,5,1.0,1-Back,1.0,z,Thu Feb 26 2026 12:05:57 GMT-0600 (Central Standard Time),503492.09999999404,011_m_f_n_a.png,O,z,1289,12,1,2311.5,501180.59999999404,7767,VNB,B,11
7,test,5,0.0,1-Back,1.0,m,Thu Feb 26 2026 12:05:57 GMT-0600 (Central Standard Time),505258.7999999821,004_o_m_h_a.png,O,m,741,13,1,1760.199999988079,503498.59999999404,7767,VNB,B,12
8,test,5,0.0,1-Back,1.0,z,Thu Feb 26 2026 12:05:57 GMT-0600 (Central Standard Time),507525.2999999821,007_m_m_h_a.png,O,z,1237,14,1,2261.5999999940395,505263.6999999881,7767,VNB,B,13
9,test,5,1.0,1-Back,1.0,m,Thu Feb 26 2026 12:05:57 GMT-0600 (Central Standard Time),509491.5,005_o_f_d_a.png,O,m,940,15,1,1956.0,507535.5,7767,VNB,B,14
9,test,5,0.0,1-Back,0.0,m,Thu Feb 26 2026 12:05:57 GMT-0600 (Central Standard Time),511706.7999999821,016_y_m_n_a.png,O,z,1189,16,1,2212.199999988079,509494.59999999404,7767,VNB,B,15
10,test,5,0.0,1-Back,1.0,m,Thu Feb 26 2026 12:05:57 GMT-0600 (Central Standard Time),514023.2999999821,020_y_f_h_a.png,O,m,1286,17,1,2309.399999976158,511713.90000000596,7767,VNB,B,16
11,test,5,0.0,1-Back,1.0,m,Thu Feb 26 2026 12:05:57 GMT-0600 (Central Standard Time),516471.6999999881,007_m_m_d_a.png,O,m,1427,18,1,2445.199999988079,514026.5,7767,VNB,B,17
0,prac,1,0.0,2-Back,,,Thu Feb 26 2026 12:05:57 GMT-0600 (Central Standard Time),516471.6999999881,011_m_f_n_a.png,O,space,7716,1,1,2445.199999988079,514026.5,7767,VNB,B,0
0,prac,1,0.0,2-Back,,,Thu Feb 26 2026 12:05:57 GMT-0600 (Central Standard Time),516471.6999999881,005_o_f_h_a.png,O,space,7716,2,1,2445.199999988079,514026.5,7767,VNB,B,0
0,prac,1,0.0,2-Back,0.0,m,Thu Feb 26 2026 12:05:57 GMT-0600 (Central Standard Time),649097.0,004_o_m_d_a.png,O,None,2011,3,1,2843.800000011921,646253.1999999881,7767,VNB,B,1
0,prac,1,1.0,2-Back,0.0,z,Thu Feb 26 2026 12:05:57 GMT-0600 (Central Standard Time),651962.1999999881,007_m_m_h_a.png,O,None,2008,4,1,2857.7999999821186,649104.400000006,7767,VNB,B,2
0,prac,1,0.0,2-Back,0.0,m,Thu Feb 26 2026 12:05:57 GMT-0600 (Central Standard Time),654278.599999994,020_y_f_n_a.png,O,z,1457,5,1,2311.0999999940395,651967.5,7767,VNB,B,3
0,prac,1,1.0,2-Back,0.0,z,Thu Feb 26 2026 12:05:57 GMT-0600 (Central Standard Time),657126.599999994,004_o_m_h_a.png,O,None,2008,6,1,2839.5999999940395,654287.0,7767,VNB,B,4
0,prac,1,1.0,2-Back,0.0,z,Thu Feb 26 2026 12:05:57 GMT-0600 (Central Standard Time),659994.900000006,016_y_m_n_a.png,O,None,2013,7,1,2863.9000000059605,657131.0,7767,VNB,B,5
1,prac,1,0.0,2-Back,1.0,m,Thu Feb 26 2026 12:05:57 GMT-0600 (Central Standard Time),662275.5,011_m_f_d_a.png,O,m,1415,8,1,2269.5,660006.0,7767,VNB,B,6
2,prac,1,0.0,2-Back,1.0,m,Thu Feb 26 2026 12:05:57 GMT-0600 (Central Standard Time),665111.0,005_o_f_d_a.png,O,m,1994,9,1,2830.7000000178814,662280.2999999821,7767,VNB,B,7
3,prac,1,0.0,2-Back,1.0,m,Thu Feb 26 2026 12:05:57 GMT-0600 (Central Standard Time),667660.400000006,007_m_m_h_a.png,O,m,1761,10,1,2540.100000023842,665120.2999999821,7767,VNB,B,8
3,prac,1,1.0,2-Back,0.0,z,Thu Feb 26 2026 12:05:57 GMT-0600 (Central Standard Time),670422.900000006,020_y_f_d_a.png,O,m,1919,11,1,2758.4000000059605,667664.5,7767,VNB,B,9
3,prac,1,0.0,2-Back,0.0,m,Thu Feb 26 2026 12:05:57 GMT-0600 (Central Standard Time),672855.6999999881,004_o_m_n_a.png,O,z,1584,12,1,2419.199999988079,670436.5,7767,VNB,B,10
0,prac,2,0.0,2-Back,,,Thu Feb 26 2026 12:05:57 GMT-0600 (Central Standard Time),672855.6999999881,011_m_f_n_a.png,O,a,9978,1,1,2419.199999988079,670436.5,7767,VNB,B,0
0,prac,2,0.0,2-Back,,,Thu Feb 26 2026 12:05:57 GMT-0600 (Central Standard Time),672855.6999999881,005_o_f_h_a.png,O,a,9978,2,1,2419.199999988079,670436.5,7767,VNB,B,0
0,prac,2,0.0,2-Back,0.0,m,Thu Feb 26 2026 12:05:57 GMT-0600 (Central Standard Time),690835.0,004_o_m_d_a.png,O,z,1949,3,1,2779.2000000178814,688055.7999999821,7767,VNB,B,1
0,prac,2,1.0,2-Back,0.0,z,Thu Feb 26 2026 12:05:57 GMT-0600 (Central Standard Time),693616.400000006,007_m_m_h_a.png,O,None,2007,4,1,2773.4000000059605,690843.0,7767,VNB,B,2
0,prac,2,0.0,2-Back,0.0,m,Thu Feb 26 2026 12:05:57 GMT-0600 (Central Standard Time),694449.2999999821,020_y_f_n_a.png,O,z,1,5,1,828.3999999761581,693620.900000006,7767,VNB,B,3
0,prac,2,1.0,2-Back,0.0,z,Thu Feb 26 2026 12:05:57 GMT-0600 (Central Standard Time),696331.900000006,004_o_m_h_a.png,O,m,1031,6,1,1874.1000000238419,694457.7999999821,7767,VNB,B,4
0,prac,2,1.0,2-Back,0.0,z,Thu Feb 26 2026 12:05:57 GMT-0600 (Central Standard Time),699131.1999999881,016_y_m_n_a.png,O,m,1940,7,1,2794.4000000059605,696336.7999999821,7767,VNB,B,5
0,prac,2,0.0,2-Back,0.0,m,Thu Feb 26 2026 12:05:57 GMT-0600 (Central Standard Time),701332.900000006,011_m_f_d_a.png,O,z,1358,8,1,2197.7000000178814,699135.1999999881,7767,VNB,B,6
1,prac,2,0.0,2-Back,1.0,m,Thu Feb 26 2026 12:05:57 GMT-0600 (Central Standard Time),703980.6999999881,005_o_f_d_a.png,O,m,1807,9,1,2644.5999999940395,701336.099999994,7767,VNB,B,7
1,prac,2,0.0,2-Back,0.0,m,Thu Feb 26 2026 12:05:57 GMT-0600 (Central Standard Time),706762.1999999881,007_m_m_h_a.png,O,None,2005,10,1,2771.699999988079,703990.5,7767,VNB,B,8
1,prac,2,1.0,2-Back,0.0,z,Thu Feb 26 2026 12:05:57 GMT-0600 (Central Standard Time),709611.5,020_y_f_d_a.png,O,None,2012,11,1,2846.0,706765.5,7767,VNB,B,9
2,prac,2,0.0,2-Back,1.0,m,Thu Feb 26 2026 12:05:57 GMT-0600 (Central Standard Time),712160.6999999881,004_o_m_n_a.png,O,m,1700,12,1,2540.4000000059605,709620.2999999821,7767,VNB,B,10
0,test,1,0.0,2-Back,,,Thu Feb 26 2026 12:05:57 GMT-0600 (Central Standard Time),712160.6999999881,016_y_m_h_a.png,O,space,6677,1,1,2540.4000000059605,709620.2999999821,7767,VNB,B,0
0,test,1,0.0,2-Back,,,Thu Feb 26 2026 12:05:57 GMT-0600 (Central Standard Time),712160.6999999881,005_o_f_n_a.png,O,space,6677,2,1,2540.4000000059605,709620.2999999821,7767,VNB,B,0
1,test,1,0.0,2-Back,1.0,z,Thu Feb 26 2026 12:05:57 GMT-0600 (Central Standard Time),747531.7999999821,004_o_m_h_a.png,O,z,805,3,1,1829.699999988079,745702.099999994,7767,VNB,B,1
2,test,1,0.0,2-Back,1.0,m,Thu Feb 26 2026 12:05:57 GMT-0600 (Central Standard Time),749332.0,011_m_f_d_a.png,O,m,765,4,1,1792.300000011921,747539.6999999881,7767,VNB,B,2
3,test,1,1.0,2-Back,1.0,m,Thu Feb 26 2026 12:05:57 GMT-0600 (Central Standard Time),752131.900000006,016_y_m_n_a.png,O,m,1774,5,1,2795.5,749336.400000006,7767,VNB,B,3
3,test,1,0.0,2-Back,0.0,z,Thu Feb 26 2026 12:05:57 GMT-0600 (Central Standard Time),755163.1999999881,020_y_f_d_a.png,O,None,2015,6,1,3021.9000000059605,752141.2999999821,7767,VNB,B,4
4,test,1,0.0,2-Back,1.0,m,Thu Feb 26 2026 12:05:57 GMT-0600 (Central Standard Time),757412.6999999881,007_m_m_h_a.png,O,m,1216,7,1,2243.9000000059605,755168.7999999821,7767,VNB,B,5
4,test,1,1.0,2-Back,0.0,m,Thu Feb 26 2026 12:05:57 GMT-0600 (Central Standard Time),760011.900000006,020_y_f_n_a.png,O,z,1582,8,1,2591.5,757420.400000006,7767,VNB,B,6
4,test,1,0.0,2-Back,0.0,z,Thu Feb 26 2026 12:05:57 GMT-0600 (Central Standard Time),762361.1999999881,005_o_f_h_a.png,O,m,1318,9,1,2347.4000000059605,760013.7999999821,7767,VNB,B,7
5,test,1,0.0,2-Back,1.0,m,Thu Feb 26 2026 12:05:57 GMT-0600 (Central Standard Time),764810.400000006,004_o_m_d_a.png,O,m,1425,10,1,2441.7000000178814,762368.6999999881,7767,VNB,B,8
5,test,1,1.0,2-Back,0.0,m,Thu Feb 26 2026 12:05:57 GMT-0600 (Central Standard Time),767843.0,007_m_m_d_a.png,O,None,2016,11,1,3031.0,764812.0,7767,VNB,B,9
5,test,1,0.0,2-Back,0.0,m,Thu Feb 26 2026 12:05:57 GMT-0600 (Central Standard Time),770091.599999994,011_m_f_n_a.png,O,z,1216,12,1,2240.0,767851.599999994,7767,VNB,B,10
6,test,1,0.0,2-Back,1.0,m,Thu Feb 26 2026 12:05:57 GMT-0600 (Central Standard Time),772392.2999999821,020_y_f_h_a.png,O,m,1271,13,1,2295.699999988079,770096.599999994,7767,VNB,B,11
7,test,1,0.0,2-Back,1.0,z,Thu Feb 26 2026 12:05:57 GMT-0600 (Central Standard Time),774341.400000006,007_m_m_n_a.png,O,z,931,14,1,1942.1000000238419,772399.2999999821,7767,VNB,B,12
8,test,1,0.0,2-Back,1.0,m,Thu Feb 26 2026 12:05:57 GMT-0600 (Central Standard Time),777272.6999999881,016_y_m_d_a.png,O,m,1900,15,1,2928.199999988079,774344.5,7767,VNB,B,13
8,test,1,1.0,2-Back,0.0,m,Thu Feb 26 2026 12:05:57 GMT-0600 (Central Standard Time),780305.1999999881,011_m_f_h_a.png,O,None,2016,16,1,3027.199999988079,777278.0,7767,VNB,B,14
8,test,1,0.0,2-Back,0.0,z,Thu Feb 26 2026 12:05:57 GMT-0600 (Central Standard Time),783288.5,005_o_f_d_a.png,O,m,1961,17,1,2979.800000011921,780308.6999999881,7767,VNB,B,15
9,test,1,0.0,2-Back,1.0,m,Thu Feb 26 2026 12:05:57 GMT-0600 (Central Standard Time),786052.400000006,004_o_m_n_a.png,O,m,1747,18,1,2757.5,783294.900000006,7767,VNB,B,16
0,test,2,0.0,2-Back,,,Thu Feb 26 2026 12:05:57 GMT-0600 (Central Standard Time),786052.400000006,007_m_m_h_a.png,O,space,1171,1,1,2757.5,783294.900000006,7767,VNB,B,0
0,test,2,0.0,2-Back,,,Thu Feb 26 2026 12:05:57 GMT-0600 (Central Standard Time),786052.400000006,020_y_f_n_a.png,O,space,1171,2,1,2757.5,783294.900000006,7767,VNB,B,0
1,test,2,1.0,2-Back,1.0,z,Thu Feb 26 2026 12:05:57 GMT-0600 (Central Standard Time),794550.5,005_o_f_h_a.png,O,z,1095,3,1,2112.9000000059605,792437.599999994,7767,VNB,B,1
2,test,2,0.0,2-Back,1.0,m,Thu Feb 26 2026 12:05:57 GMT-0600 (Central Standard Time),796983.7999999821,004_o_m_d_a.png,O,m,1411,4,1,2427.5999999940395,794556.1999999881,7767,VNB,B,2
3,test,2,0.0,2-Back,1.0,m,Thu Feb 26 2026 12:05:57 GMT-0600 (Central Standard Time),799749.1999999881,011_m_f_d_a.png,O,m,1737,5,1,2763.7999999821186,796985.400000006,7767,VNB,B,3
4,test,2,0.0,2-Back,1.0,m,Thu Feb 26 2026 12:05:57 GMT-0600 (Central Standard Time),802048.599999994,016_y_m_h_a.png,O,m,1278,6,1,2293.0,799755.599999994,7767,VNB,B,4
5,test,2,0.0,2-Back,1.0,m,Thu Feb 26 2026 12:05:57 GMT-0600 (Central Standard Time),804681.599999994,005_o_f_n_a.png,O,m,1609,7,1,2630.9000000059605,802050.6999999881,7767,VNB,B,5
6,test,2,1.0,2-Back,1.0,z,Thu Feb 26 2026 12:05:57 GMT-0600 (Central Standard Time),806830.1999999881,004_o_m_h_a.png,O,z,1122,8,1,2144.199999988079,804686.0,7767,VNB,B,6
6,test,2,0.0,2-Back,0.0,m,Thu Feb 26 2026 12:05:57 GMT-0600 (Central Standard Time),809613.0,020_y_f_d_a.png,O,z,1755,9,1,2779.9000000059605,806833.099999994,7767,VNB,B,7
6,test,2,0.0,2-Back,0.0,m,Thu Feb 26 2026 12:05:57 GMT-0600 (Central Standard Time),812478.7999999821,016_y_m_d_a.png,O,z,1838,10,1,2858.899999976158,809619.900000006,7767,VNB,B,8
6,test,2,0.0,2-Back,0.0,m,Thu Feb 26 2026 12:05:57 GMT-0600 (Central Standard Time),815393.099999994,007_m_m_n_a.png,O,z,1892,11,1,2911.0999999940395,812482.0,7767,VNB,B,9
6,test,2,0.0,2-Back,0.0,m,Thu Feb 26 2026 12:05:57 GMT-0600 (Central Standard Time),818427.6999999881,011_m_f_h_a.png,O,None,2017,12,1,3028.4000000059605,815399.2999999821,7767,VNB,B,10
7,test,2,1.0,2-Back,1.0,z,Thu Feb 26 2026 12:05:57 GMT-0600 (Central Standard Time),820557.6999999881,004_o_m_n_a.png,O,z,1110,13,1,2128.199999988079,818429.5,7767,VNB,B,11
7,test,2,0.0,2-Back,0.0,m,Thu Feb 26 2026 12:05:57 GMT-0600 (Central Standard Time),823591.6999999881,005_o_f_d_a.png,O,None,2017,14,1,3029.7999999821186,820561.900000006,7767,VNB,B,12
7,test,2,0.0,2-Back,0.0,m,Thu Feb 26 2026 12:05:57 GMT-0600 (Central Standard Time),826055.400000006,020_y_f_h_a.png,O,z,1432,15,1,2461.2000000178814,823594.1999999881,7767,VNB,B,13
7,test,2,0.0,2-Back,0.0,z,Thu Feb 26 2026 12:05:57 GMT-0600 (Central Standard Time),828992.0,007_m_m_d_a.png,O,m,1903,16,1,2933.9000000059605,826058.099999994,7767,VNB,B,14
7,test,2,0.0,2-Back,0.0,m,Thu Feb 26 2026 12:05:57 GMT-0600 (Central Standard Time),832020.7999999821,016_y_m_n_a.png,O,None,2013,17,1,3026.0,828994.7999999821,7767,VNB,B,15
7,test,2,1.0,2-Back,0.0,m,Thu Feb 26 2026 12:05:57 GMT-0600 (Central Standard Time),834154.6999999881,011_m_f_n_a.png,O,z,1108,18,1,2126.699999988079,832028.0,7767,VNB,B,16
0,test,3,1.0,2-Back,,,Thu Feb 26 2026 12:05:57 GMT-0600 (Central Standard Time),834154.6999999881,004_o_m_n_a.png,O,space,1202,1,1,2126.699999988079,832028.0,7767,VNB,B,0
0,test,3,1.0,2-Back,,,Thu Feb 26 2026 12:05:57 GMT-0600 (Central Standard Time),834154.6999999881,005_o_f_d_a.png,O,space,1202,2,1,2126.699999988079,832028.0,7767,VNB,B,0
1,test,3,0.0,2-Back,1.0,m,Thu Feb 26 2026 12:05:57 GMT-0600 (Central Standard Time),842351.0,020_y_f_h_a.png,O,m,916,3,1,1944.9000000059605,840406.099999994,7767,VNB,B,1
2,test,3,0.0,2-Back,1.0,z,Thu Feb 26 2026 12:05:57 GMT-0600 (Central Standard Time),844400.2999999821,011_m_f_d_a.png,O,z,1023,4,1,2041.699999988079,842358.599999994,7767,VNB,B,2
3,test,3,1.0,2-Back,1.0,m,Thu Feb 26 2026 12:05:57 GMT-0600 (Central Standard Time),846750.5,016_y_m_n_a.png,O,m,1329,5,1,2348.4000000059605,844402.099999994,7767,VNB,B,3
3,test,3,0.0,2-Back,0.0,m,Thu Feb 26 2026 12:05:57 GMT-0600 (Central Standard Time),849783.1999999881,004_o_m_h_a.png,O,None,2014,6,1,3027.0,846756.1999999881,7767,VNB,B,4
4,test,3,0.0,2-Back,1.0,z,Thu Feb 26 2026 12:05:57 GMT-0600 (Central Standard Time),852018.0,020_y_f_n_a.png,O,z,1201,7,1,2232.0,849786.0,7767,VNB,B,5
4,test,3,1.0,2-Back,0.0,m,Thu Feb 26 2026 12:05:57 GMT-0600 (Central Standard Time),855048.7999999821,007_m_m_d_a.png,O,None,2017,8,1,3023.199999988079,852025.599999994,7767,VNB,B,6
4,test,3,0.0,2-Back,0.0,m,Thu Feb 26 2026 12:05:57 GMT-0600 (Central Standard Time),858080.2999999821,016_y_m_d_a.png,O,None,2015,9,1,3027.899999976158,855052.400000006,7767,VNB,B,7
4,test,3,0.0,2-Back,0.0,m,Thu Feb 26 2026 12:05:57 GMT-0600 (Central Standard Time),859846.599999994,005_o_f_h_a.png,O,z,744,10,1,1759.0,858087.599999994,7767,VNB,B,8
5,test,3,1.0,2-Back,1.0,m,Thu Feb 26 2026 12:05:57 GMT-0600 (Central Standard Time),862029.099999994,011_m_f_n_a.png,O,m,1155,11,1,2180.5,859848.599999994,7767,VNB,B,9
6,test,3,1.0,2-Back,1.0,z,Thu Feb 26 2026 12:05:57 GMT-0600 (Central Standard Time),864844.2999999821,007_m_m_h_a.png,O,z,1796,12,1,2807.2999999821186,862037.0,7767,VNB,B,10
6,test,3,0.0,2-Back,0.0,m,Thu Feb 26 2026 12:05:57 GMT-0600 (Central Standard Time),867194.2999999821,020_y_f_d_a.png,O,z,1316,13,1,2345.199999988079,864849.099999994,7767,VNB,B,11
6,test,3,0.0,2-Back,0.0,m,Thu Feb 26 2026 12:05:57 GMT-0600 (Central Standard Time),870226.1999999881,005_o_f_n_a.png,O,None,2015,14,1,3024.199999988079,867202.0,7767,VNB,B,12
6,test,3,0.0,2-Back,0.0,z,Thu Feb 26 2026 12:05:57 GMT-0600 (Central Standard Time),873243.900000006,004_o_m_d_a.png,O,None,2001,15,1,3011.9000000059605,870232.0,7767,VNB,B,13
6,test,3,1.0,2-Back,0.0,m,Thu Feb 26 2026 12:05:57 GMT-0600 (Central Standard Time),875476.1999999881,011_m_f_h_a.png,O,z,1218,16,1,2225.699999988079,873250.5,7767,VNB,B,14
7,test,3,0.0,2-Back,1.0,m,Thu Feb 26 2026 12:05:57 GMT-0600 (Central Standard Time),877510.0,007_m_m_n_a.png,O,m,1004,17,1,2030.0,875480.0,7767,VNB,B,15
8,test,3,0.0,2-Back,1.0,z,Thu Feb 26 2026 12:05:57 GMT-0600 (Central Standard Time),880224.099999994,016_y_m_h_a.png,O,z,1695,18,1,2705.0999999940395,877519.0,7767,VNB,B,16
0,test,4,0.0,2-Back,,,Thu Feb 26 2026 12:05:57 GMT-0600 (Central Standard Time),880224.099999994,011_m_f_n_a.png,O,space,1266,1,1,2705.0999999940395,877519.0,7767,VNB,B,0
0,test,4,0.0,2-Back,,,Thu Feb 26 2026 12:05:57 GMT-0600 (Central Standard Time),880224.099999994,004_o_m_n_a.png,O,space,1266,2,1,2705.0999999940395,877519.0,7767,VNB,B,0
1,test,4,1.0,2-Back,1.0,m,Thu Feb 26 2026 12:05:57 GMT-0600 (Central Standard Time),889037.0,016_y_m_h_a.png,O,m,1339,3,1,2362.2000000178814,886674.7999999821,7767,VNB,B,1
1,test,4,1.0,2-Back,0.0,m,Thu Feb 26 2026 12:05:57 GMT-0600 (Central Standard Time),891288.1999999881,005_o_f_d_a.png,O,z,1230,4,1,2243.2999999821186,889044.900000006,7767,VNB,B,2
1,test,4,0.0,2-Back,0.0,z,Thu Feb 26 2026 12:05:57 GMT-0600 (Central Standard Time),894319.0,004_o_m_h_a.png,O,None,2016,5,1,3027.4000000059605,891291.599999994,7767,VNB,B,3
1,test,4,0.0,2-Back,0.0,m,Thu Feb 26 2026 12:05:57 GMT-0600 (Central Standard Time),897184.400000006,007_m_m_n_a.png,O,z,1835,6,1,2859.0,894325.400000006,7767,VNB,B,4
1,test,4,0.0,2-Back,0.0,m,Thu Feb 26 2026 12:05:57 GMT-0600 (Central Standard Time),899733.599999994,011_m_f_d_a.png,O,z,1519,7,1,2546.699999988079,897186.900000006,7767,VNB,B,5
2,test,4,0.0,2-Back,1.0,z,Thu Feb 26 2026 12:05:57 GMT-0600 (Central Standard Time),901966.599999994,020_y_f_n_a.png,O,z,1216,8,1,2226.0,899740.599999994,7767,VNB,B,6
3,test,4,1.0,2-Back,1.0,m,Thu Feb 26 2026 12:05:57 GMT-0600 (Central Standard Time),903915.7999999821,005_o_f_h_a.png,O,m,930,9,1,1946.0999999940395,901969.6999999881,7767,VNB,B,7
4,test,4,0.0,2-Back,1.0,m,Thu Feb 26 2026 12:05:57 GMT-0600 (Central Standard Time),906066.099999994,007_m_m_h_a.png,O,m,1119,10,1,2143.300000011921,903922.7999999821,7767,VNB,B,8
5,test,4,0.0,2-Back,1.0,m,Thu Feb 26 2026 12:05:57 GMT-0600 (Central Standard Time),908031.099999994,020_y_f_d_a.png,O,m,944,11,1,1955.4000000059605,906075.6999999881,7767,VNB,B,9
5,test,4,0.0,2-Back,0.0,m,Thu Feb 26 2026 12:05:57 GMT-0600 (Central Standard Time),910747.2999999821,016_y_m_n_a.png,O,z,1684,12,1,2711.5,908035.7999999821,7767,VNB,B,10
5,test,4,0.0,2-Back,0.0,z,Thu Feb 26 2026 12:05:57 GMT-0600 (Central Standard Time),913246.099999994,004_o_m_d_a.png,O,m,1479,13,1,2494.199999988079,910751.900000006,7767,VNB,B,11
6,test,4,1.0,2-Back,1.0,m,Thu Feb 26 2026 12:05:57 GMT-0600 (Central Standard Time),915731.1999999881,011_m_f_h_a.png,O,m,1453,14,1,2478.5999999940395,913252.599999994,7767,VNB,B,12
7,test,4,1.0,2-Back,1.0,m,Thu Feb 26 2026 12:05:57 GMT-0600 (Central Standard Time),917594.400000006,020_y_f_h_a.png,O,m,834,15,1,1859.1000000238419,915735.2999999821,7767,VNB,B,13
8,test,4,0.0,2-Back,1.0,m,Thu Feb 26 2026 12:05:57 GMT-0600 (Central Standard Time),920461.400000006,005_o_f_n_a.png,O,m,1850,16,1,2857.800000011921,917603.599999994,7767,VNB,B,14
8,test,4,0.0,2-Back,0.0,m,Thu Feb 26 2026 12:05:57 GMT-0600 (Central Standard Time),922677.1999999881,016_y_m_d_a.png,O,z,1198,17,1,2211.0,920466.1999999881,7767,VNB,B,15
8,test,4,1.0,2-Back,0.0,m,Thu Feb 26 2026 12:05:57 GMT-0600 (Central Standard Time),924842.6999999881,007_m_m_d_a.png,O,z,1150,18,1,2158.7999999821186,922683.900000006,7767,VNB,B,16
0,test,5,1.0,2-Back,,,Thu Feb 26 2026 12:05:57 GMT-0600 (Central Standard Time),924842.6999999881,020_y_f_d_a.png,O,space,1271,1,1,2158.7999999821186,922683.900000006,7767,VNB,B,0
0,test,5,1.0,2-Back,,,Thu Feb 26 2026 12:05:57 GMT-0600 (Central Standard Time),924842.6999999881,005_o_f_h_a.png,O,space,1271,2,1,2158.7999999821186,922683.900000006,7767,VNB,B,0
0,test,5,1.0,2-Back,0.0,z,Thu Feb 26 2026 12:05:57 GMT-0600 (Central Standard Time),934356.400000006,004_o_m_d_a.png,O,None,2015,3,1,3031.9000000059605,931324.5,7767,VNB,B,1
1,test,5,1.0,2-Back,1.0,m,Thu Feb 26 2026 12:05:57 GMT-0600 (Central Standard Time),936355.5,011_m_f_n_a.png,O,m,967,4,1,1993.4000000059605,934362.099999994,7767,VNB,B,2
2,test,5,0.0,2-Back,1.0,m,Thu Feb 26 2026 12:05:57 GMT-0600 (Central Standard Time),938572.099999994,007_m_m_h_a.png,O,m,1189,5,1,2214.199999988079,936357.900000006,7767,VNB,B,3
3,test,5,0.0,2-Back,1.0,z,Thu Feb 26 2026 12:05:57 GMT-0600 (Central Standard Time),941589.2999999821,020_y_f_n_a.png,O,z,2000,6,1,3010.5999999940395,938578.6999999881,7767,VNB,B,4
4,test,5,0.0,2-Back,1.0,m,Thu Feb 26 2026 12:05:57 GMT-0600 (Central Standard Time),944385.6999999881,005_o_f_d_a.png,O,m,1774,7,1,2793.7999999821186,941591.900000006,7767,VNB,B,5
4,test,5,0.0,2-Back,0.0,m,Thu Feb 26 2026 12:05:57 GMT-0600 (Central Standard Time),947419.7999999821,004_o_m_h_a.png,O,None,2017,8,1,3029.5999999940395,944390.1999999881,7767,VNB,B,6
5,test,5,1.0,2-Back,1.0,z,Thu Feb 26 2026 12:05:57 GMT-0600 (Central Standard Time),950134.1999999881,011_m_f_d_a.png,O,z,1694,9,1,2711.0999999940395,947423.099999994,7767,VNB,B,7
5,test,5,0.0,2-Back,0.0,m,Thu Feb 26 2026 12:05:57 GMT-0600 (Central Standard Time),953167.0,016_y_m_n_a.png,O,None,2016,10,1,3025.800000011921,950141.1999999881,7767,VNB,B,8
5,test,5,0.0,2-Back,0.0,m,Thu Feb 26 2026 12:05:57 GMT-0600 (Central Standard Time),955649.400000006,007_m_m_n_a.png,O,z,1458,11,1,2479.600000023842,953169.7999999821,7767,VNB,B,9
5,test,5,0.0,2-Back,0.0,m,Thu Feb 26 2026 12:05:57 GMT-0600 (Central Standard Time),958683.400000006,020_y_f_h_a.png,O,None,2016,12,1,3027.2000000178814,955656.1999999881,7767,VNB,B,10
5,test,5,0.0,2-Back,0.0,m,Thu Feb 26 2026 12:05:57 GMT-0600 (Central Standard Time),961231.599999994,016_y_m_d_a.png,O,z,1518,13,1,2544.0999999940395,958687.5,7767,VNB,B,11
5,test,5,1.0,2-Back,0.0,z,Thu Feb 26 2026 12:05:57 GMT-0600 (Central Standard Time),962881.5,011_m_f_h_a.png,O,m,627,14,1,1642.800000011921,961238.6999999881,7767,VNB,B,12
5,test,5,0.0,2-Back,0.0,m,Thu Feb 26 2026 12:05:57 GMT-0600 (Central Standard Time),965913.7999999821,004_o_m_n_a.png,O,None,2016,15,1,3029.699999988079,962884.099999994,7767,VNB,B,13
6,test,5,0.0,2-Back,1.0,m,Thu Feb 26 2026 12:05:57 GMT-0600 (Central Standard Time),968363.2999999821,007_m_m_d_a.png,O,m,1419,16,1,2443.5999999940395,965919.6999999881,7767,VNB,B,14
6,test,5,0.0,2-Back,0.0,z,Thu Feb 26 2026 12:05:57 GMT-0600 (Central Standard Time),970629.1999999881,005_o_f_n_a.png,O,m,1234,17,1,2261.5,968367.6999999881,7767,VNB,B,15
6,test,5,1.0,2-Back,0.0,m,Thu Feb 26 2026 12:05:57 GMT-0600 (Central Standard Time),973659.6999999881,016_y_m_h_a.png,O,None,2015,18,1,3023.5,970636.1999999881,7767,VNB,B,16
