acc_sum,block,block_c,block_cond,con_img,correct,correct_response,datetime,endtime,face,jitter,line,project,response,response_time,row_sel,session_number,start_end,starttime,subject_id,task,task_vers,trial
0,prac,1,A,haborder.png,0,z,Tue Feb 17 2026 14:11:06 GMT-0600 (Central Standard Time),75739.10000002384,CFD-BF-002-018-A.jpg,1200,solid,O,None,1514,6,1,3482.100000023842,72257.0,7761,ATS,C,1
1,prac,1,A,haborder.png,1,m,Tue Feb 17 2026 14:11:06 GMT-0600 (Central Standard Time),79505.30000001192,CFD-BF-019-004-HC.jpg,2000,solid,O,m,974,5,1,7248.300000011921,72257.0,7761,ATS,C,2
2,prac,1,A,haborder.png,1,z,Tue Feb 17 2026 14:11:06 GMT-0600 (Central Standard Time),82886.40000003576,CFD-BM-043-014-A.jpg,1600,solid,O,z,992,2,1,10629.400000035763,72257.0,7761,ATS,C,3
3,prac,1,A,haborder.png,1,z,Tue Feb 17 2026 14:11:06 GMT-0600 (Central Standard Time),86968.90000003576,CFD-WM-036-018-A.jpg,1900,solid,O,z,1397,8,1,14711.900000035763,72257.0,7761,ATS,C,4
4,prac,1,A,haborder.png,1,m,Tue Feb 17 2026 14:11:06 GMT-0600 (Central Standard Time),90001.40000003576,CFD-WF-013-009-HC.jpg,1500,solid,O,m,742,11,1,17744.400000035763,72257.0,7761,ATS,C,5
4,prac,1,A,haborder.png,0,m,Tue Feb 17 2026 14:11:06 GMT-0600 (Central Standard Time),93367.19999998808,CFD-BM-034-035-HC.jpg,1700,solid,O,z,867,1,1,21110.19999998808,72257.0,7761,ATS,C,6
5,prac,1,A,haborder.png,1,z,Tue Feb 17 2026 14:11:06 GMT-0600 (Central Standard Time),96566.40000003576,CFD-WF-037-016-A.jpg,1600,solid,O,z,804,10,1,24309.400000035763,72257.0,7761,ATS,C,7
6,prac,1,A,haborder.png,1,m,Tue Feb 17 2026 14:11:06 GMT-0600 (Central Standard Time),99764.0,CFD-WM-035-036-HC.jpg,1700,solid,O,m,701,9,1,27507.0,72257.0,7761,ATS,C,8
7,prac,1,A,haborder.png,1,m,Tue Feb 17 2026 14:11:06 GMT-0600 (Central Standard Time),103379.69999998808,CFD-BM-022-004-HC.jpg,1500,solid,O,m,1317,3,1,31122.69999998808,72257.0,7761,ATS,C,9
8,prac,1,A,haborder.png,1,m,Tue Feb 17 2026 14:11:06 GMT-0600 (Central Standard Time),106511.40000003576,CFD-WM-028-005-HC.jpg,1400,solid,O,m,942,7,1,34254.40000003576,72257.0,7761,ATS,C,10
9,prac,1,A,haborder.png,1,z,Tue Feb 17 2026 14:11:06 GMT-0600 (Central Standard Time),109197.0,CFD-WF-023-013-A.jpg,1000,solid,O,z,905,12,1,36940.0,72257.0,7761,ATS,C,11
10,prac,1,A,haborder.png,1,z,Tue Feb 17 2026 14:11:06 GMT-0600 (Central Standard Time),111878.30000001192,CFD-BF-031-020-A.jpg,1000,solid,O,z,888,4,1,39621.30000001192,72257.0,7761,ATS,C,12
0,prac,1,B,mfborder.png,0,m,Tue Feb 17 2026 14:11:06 GMT-0600 (Central Standard Time),158830.40000003576,CFD-BM-043-014-A.jpg,2000,5,O,None,1514,dash,1,4298.800000011921,154531.60000002384,7761,ATS,C,1
0,prac,1,B,mfborder.png,0,z,Tue Feb 17 2026 14:11:06 GMT-0600 (Central Standard Time),162511.40000003576,CFD-BF-019-004-HC.jpg,1400,7,O,None,1501,dash,1,7979.800000011921,154531.60000002384,7761,ATS,C,2
1,prac,1,B,mfborder.png,1,z,Tue Feb 17 2026 14:11:06 GMT-0600 (Central Standard Time),165843.69999998808,CFD-WF-001-010-HC.jpg,1900,8,O,z,645,dash,1,11312.099999964237,154531.60000002384,7761,ATS,C,3
2,prac,1,B,mfborder.png,1,m,Tue Feb 17 2026 14:11:06 GMT-0600 (Central Standard Time),169042.5,CFD-WM-034-040-A.jpg,1200,6,O,m,1205,dash,1,14510.899999976158,154531.60000002384,7761,ATS,C,4
2,prac,1,B,mfborder.png,0,m,Tue Feb 17 2026 14:11:06 GMT-0600 (Central Standard Time),173026.40000003576,CFD-WM-036-018-A.jpg,1700,9,O,None,1514,dash,1,18494.80000001192,154531.60000002384,7761,ATS,C,5
3,prac,1,B,mfborder.png,1,z,Tue Feb 17 2026 14:11:06 GMT-0600 (Central Standard Time),176157.30000001192,CFD-BF-031-020-A.jpg,1000,4,O,z,1326,dash,1,21625.69999998808,154531.60000002384,7761,ATS,C,6
4,prac,1,B,mfborder.png,1,m,Tue Feb 17 2026 14:11:06 GMT-0600 (Central Standard Time),179539.19999998808,CFD-WM-035-036-HC.jpg,1600,10,O,m,996,dash,1,25007.599999964237,154531.60000002384,7761,ATS,C,7
5,prac,1,B,mfborder.png,1,m,Tue Feb 17 2026 14:11:06 GMT-0600 (Central Standard Time),182556.80000001192,CFD-BM-021-026-A.jpg,1600,2,O,m,629,dash,1,28025.19999998808,154531.60000002384,7761,ATS,C,8
6,prac,1,B,mfborder.png,1,m,Tue Feb 17 2026 14:11:06 GMT-0600 (Central Standard Time),185704.19999998808,CFD-BM-022-004-HC.jpg,1700,1,O,m,648,dash,1,31172.599999964237,154531.60000002384,7761,ATS,C,9
7,prac,1,B,mfborder.png,1,z,Tue Feb 17 2026 14:11:06 GMT-0600 (Central Standard Time),188620.10000002384,CFD-WF-037-016-A.jpg,1500,11,O,z,630,dash,1,34088.5,154531.60000002384,7761,ATS,C,10
8,prac,1,B,mfborder.png,1,z,Tue Feb 17 2026 14:11:06 GMT-0600 (Central Standard Time),191170.0,CFD-WF-013-009-HC.jpg,1000,12,O,z,765,dash,1,36638.39999997616,154531.60000002384,7761,ATS,C,11
9,prac,1,B,mfborder.png,1,z,Tue Feb 17 2026 14:11:06 GMT-0600 (Central Standard Time),194385.80000001192,CFD-BF-042-031-HC.jpg,1500,3,O,z,940,dash,1,39854.19999998808,154531.60000002384,7761,ATS,C,12
1,test,1,A,haborder.png,1,m,Tue Feb 17 2026 14:11:06 GMT-0600 (Central Standard Time),219959.90000003576,CFD-BM-022-004-HC.jpg,1500,solid,O,m,1376,3,1,2897.100000023842,217062.80000001192,7761,ATS,C,1
2,test,1,A,haborder.png,1,z,Tue Feb 17 2026 14:11:06 GMT-0600 (Central Standard Time),223093.5,CFD-WM-036-018-A.jpg,1900,solid,O,z,1217,8,1,6030.699999988079,217062.80000001192,7761,ATS,C,2
3,test,1,A,haborder.png,1,z,Tue Feb 17 2026 14:11:06 GMT-0600 (Central Standard Time),225957.80000001192,CFD-WM-036-018-A.jpg,1900,solid,O,z,936,8,1,8895.0,217062.80000001192,7761,ATS,C,3
4,test,1,A,haborder.png,1,z,Tue Feb 17 2026 14:11:06 GMT-0600 (Central Standard Time),227923.5,CFD-BF-031-020-A.jpg,1000,solid,O,z,939,4,1,10860.699999988079,217062.80000001192,7761,ATS,C,4
5,test,1,A,haborder.png,1,z,Tue Feb 17 2026 14:11:06 GMT-0600 (Central Standard Time),229706.60000002384,CFD-BF-031-020-A.jpg,1000,solid,O,z,750,4,1,12643.800000011921,217062.80000001192,7761,ATS,C,5
6,test,1,A,haborder.png,1,m,Tue Feb 17 2026 14:11:06 GMT-0600 (Central Standard Time),232273.19999998808,CFD-BM-034-035-HC.jpg,1700,solid,O,m,843,1,1,15210.399999976158,217062.80000001192,7761,ATS,C,6
7,test,1,A,haborder.png,1,z,Tue Feb 17 2026 14:11:06 GMT-0600 (Central Standard Time),234389.80000001192,CFD-WF-023-013-A.jpg,1000,solid,O,z,1086,12,1,17327.0,217062.80000001192,7761,ATS,C,7
8,test,1,A,haborder.png,1,m,Tue Feb 17 2026 14:11:06 GMT-0600 (Central Standard Time),237504.80000001192,CFD-BF-019-004-HC.jpg,2000,solid,O,m,1095,5,1,20442.0,217062.80000001192,7761,ATS,C,8
9,test,1,A,haborder.png,1,m,Tue Feb 17 2026 14:11:06 GMT-0600 (Central Standard Time),239687.19999998808,CFD-WM-028-005-HC.jpg,1400,solid,O,m,754,7,1,22624.399999976158,217062.80000001192,7761,ATS,C,9
10,test,1,A,haborder.png,1,m,Tue Feb 17 2026 14:11:06 GMT-0600 (Central Standard Time),242188.0,CFD-WM-035-036-HC.jpg,1700,solid,O,m,784,9,1,25125.19999998808,217062.80000001192,7761,ATS,C,10
11,test,1,A,haborder.png,1,m,Tue Feb 17 2026 14:11:06 GMT-0600 (Central Standard Time),244652.30000001192,CFD-BM-034-035-HC.jpg,1700,solid,O,m,747,1,1,27589.5,217062.80000001192,7761,ATS,C,11
12,test,1,A,haborder.png,1,z,Tue Feb 17 2026 14:11:06 GMT-0600 (Central Standard Time),247316.90000003576,CFD-WF-037-016-A.jpg,1600,solid,O,z,1045,10,1,30254.100000023842,217062.80000001192,7761,ATS,C,12
13,test,1,A,haborder.png,1,z,Tue Feb 17 2026 14:11:06 GMT-0600 (Central Standard Time),249966.40000003576,CFD-BM-043-014-A.jpg,1600,solid,O,z,1028,2,1,32903.60000002384,217062.80000001192,7761,ATS,C,13
14,test,1,A,haborder.png,1,m,Tue Feb 17 2026 14:11:06 GMT-0600 (Central Standard Time),252316.60000002384,CFD-WF-013-009-HC.jpg,1500,solid,O,m,832,11,1,35253.80000001192,217062.80000001192,7761,ATS,C,14
15,test,1,A,haborder.png,1,m,Tue Feb 17 2026 14:11:06 GMT-0600 (Central Standard Time),254783.40000003576,CFD-WM-035-036-HC.jpg,1700,solid,O,m,737,9,1,37720.60000002384,217062.80000001192,7761,ATS,C,15
16,test,1,A,haborder.png,1,m,Tue Feb 17 2026 14:11:06 GMT-0600 (Central Standard Time),257898.80000001192,CFD-BF-019-004-HC.jpg,2000,solid,O,m,1089,5,1,40836.0,217062.80000001192,7761,ATS,C,16
17,test,1,A,haborder.png,1,z,Tue Feb 17 2026 14:11:06 GMT-0600 (Central Standard Time),259631.5,CFD-WF-023-013-A.jpg,1000,solid,O,z,710,12,1,42568.69999998808,217062.80000001192,7761,ATS,C,17
18,test,1,A,haborder.png,1,z,Tue Feb 17 2026 14:11:06 GMT-0600 (Central Standard Time),261963.5,CFD-WF-037-016-A.jpg,1600,solid,O,z,716,10,1,44900.69999998808,217062.80000001192,7761,ATS,C,18
19,test,1,A,haborder.png,1,z,Tue Feb 17 2026 14:11:06 GMT-0600 (Central Standard Time),264046.10000002384,CFD-BF-002-018-A.jpg,1200,solid,O,z,854,6,1,46983.30000001192,217062.80000001192,7761,ATS,C,19
20,test,1,A,haborder.png,1,z,Tue Feb 17 2026 14:11:06 GMT-0600 (Central Standard Time),265946.60000002384,CFD-BF-002-018-A.jpg,1200,solid,O,z,676,6,1,48883.80000001192,217062.80000001192,7761,ATS,C,20
21,test,1,A,haborder.png,1,m,Tue Feb 17 2026 14:11:06 GMT-0600 (Central Standard Time),268176.90000003576,CFD-WF-013-009-HC.jpg,1500,solid,O,m,706,11,1,51114.10000002384,217062.80000001192,7761,ATS,C,21
22,test,1,A,haborder.png,1,m,Tue Feb 17 2026 14:11:06 GMT-0600 (Central Standard Time),270360.6999999881,CFD-BM-022-004-HC.jpg,1500,solid,O,m,661,3,1,53297.89999997616,217062.80000001192,7761,ATS,C,22
23,test,1,A,haborder.png,1,m,Tue Feb 17 2026 14:11:06 GMT-0600 (Central Standard Time),272478.5,CFD-WM-028-005-HC.jpg,1400,solid,O,m,699,7,1,55415.69999998808,217062.80000001192,7761,ATS,C,23
24,test,1,A,haborder.png,1,z,Tue Feb 17 2026 14:11:06 GMT-0600 (Central Standard Time),275059.90000003576,CFD-BM-043-014-A.jpg,1600,solid,O,z,956,2,1,57997.10000002384,217062.80000001192,7761,ATS,C,24
1,test,1,B,mfborder.png,1,z,Tue Feb 17 2026 14:11:06 GMT-0600 (Central Standard Time),297485.10000002384,CFD-BF-042-031-HC.jpg,1500,dash,O,z,1162,3,1,2679.600000023842,294805.5,7761,ATS,C,1
2,test,1,B,mfborder.png,1,z,Tue Feb 17 2026 14:11:06 GMT-0600 (Central Standard Time),300050.60000002384,CFD-WF-001-010-HC.jpg,1900,dash,O,z,640,8,1,5245.100000023842,294805.5,7761,ATS,C,2
3,test,1,B,mfborder.png,1,m,Tue Feb 17 2026 14:11:06 GMT-0600 (Central Standard Time),302000.3000000119,CFD-WM-034-040-A.jpg,1200,dash,O,m,725,6,1,7194.800000011921,294805.5,7761,ATS,C,3
4,test,1,B,mfborder.png,1,z,Tue Feb 17 2026 14:11:06 GMT-0600 (Central Standard Time),304516.0,CFD-WF-001-010-HC.jpg,1900,dash,O,z,589,8,1,9710.5,294805.5,7761,ATS,C,4
5,test,1,B,mfborder.png,1,m,Tue Feb 17 2026 14:11:06 GMT-0600 (Central Standard Time),306682.1999999881,CFD-BM-021-026-A.jpg,1600,dash,O,m,533,2,1,11876.699999988079,294805.5,7761,ATS,C,5
6,test,1,B,mfborder.png,1,z,Tue Feb 17 2026 14:11:06 GMT-0600 (Central Standard Time),308231.5,CFD-WF-013-009-HC.jpg,1000,dash,O,z,519,12,1,13426.0,294805.5,7761,ATS,C,6
7,test,1,B,mfborder.png,1,m,Tue Feb 17 2026 14:11:06 GMT-0600 (Central Standard Time),310029.60000002384,CFD-WM-034-040-A.jpg,1200,dash,O,m,576,6,1,15224.100000023842,294805.5,7761,ATS,C,7
7,test,1,B,mfborder.png,0,m,Tue Feb 17 2026 14:11:06 GMT-0600 (Central Standard Time),312080.1999999881,CFD-WM-035-036-HC.jpg,1600,dash,O,z,425,10,1,17274.69999998808,294805.5,7761,ATS,C,8
8,test,1,B,mfborder.png,1,m,Tue Feb 17 2026 14:11:06 GMT-0600 (Central Standard Time),314812.5,CFD-WM-036-018-A.jpg,1700,dash,O,m,1012,9,1,20007.0,294805.5,7761,ATS,C,9
9,test,1,B,mfborder.png,1,z,Tue Feb 17 2026 14:11:06 GMT-0600 (Central Standard Time),316996.1999999881,CFD-WF-037-016-A.jpg,1500,dash,O,z,657,11,1,22190.69999998808,294805.5,7761,ATS,C,10
10,test,1,B,mfborder.png,1,m,Tue Feb 17 2026 14:11:06 GMT-0600 (Central Standard Time),319561.60000002384,CFD-BM-022-004-HC.jpg,1700,dash,O,m,842,1,1,24756.100000023842,294805.5,7761,ATS,C,11
11,test,1,B,mfborder.png,1,z,Tue Feb 17 2026 14:11:06 GMT-0600 (Central Standard Time),321827.6999999881,CFD-BF-019-004-HC.jpg,1400,dash,O,z,840,7,1,27022.19999998808,294805.5,7761,ATS,C,12
12,test,1,B,mfborder.png,1,m,Tue Feb 17 2026 14:11:06 GMT-0600 (Central Standard Time),324194.0,CFD-WM-035-036-HC.jpg,1600,dash,O,m,742,10,1,29388.5,294805.5,7761,ATS,C,13
13,test,1,B,mfborder.png,1,m,Tue Feb 17 2026 14:11:06 GMT-0600 (Central Standard Time),326891.90000003576,CFD-BM-043-014-A.jpg,2000,dash,O,m,670,5,1,32086.400000035763,294805.5,7761,ATS,C,14
14,test,1,B,mfborder.png,1,z,Tue Feb 17 2026 14:11:06 GMT-0600 (Central Standard Time),329075.5,CFD-BF-019-004-HC.jpg,1400,dash,O,z,764,7,1,34270.0,294805.5,7761,ATS,C,15
15,test,1,B,mfborder.png,1,m,Tue Feb 17 2026 14:11:06 GMT-0600 (Central Standard Time),331874.0,CFD-BM-043-014-A.jpg,2000,dash,O,m,766,5,1,37068.5,294805.5,7761,ATS,C,16
16,test,1,B,mfborder.png,1,z,Tue Feb 17 2026 14:11:06 GMT-0600 (Central Standard Time),334606.8000000119,CFD-WF-037-016-A.jpg,1500,dash,O,z,1211,11,1,39801.30000001192,294805.5,7761,ATS,C,17
17,test,1,B,mfborder.png,1,m,Tue Feb 17 2026 14:11:06 GMT-0600 (Central Standard Time),337057.10000002384,CFD-BM-022-004-HC.jpg,1700,dash,O,m,727,1,1,42251.60000002384,294805.5,7761,ATS,C,18
18,test,1,B,mfborder.png,1,m,Tue Feb 17 2026 14:11:06 GMT-0600 (Central Standard Time),339622.0,CFD-WM-036-018-A.jpg,1700,dash,O,m,838,9,1,44816.5,294805.5,7761,ATS,C,19
19,test,1,B,mfborder.png,1,m,Tue Feb 17 2026 14:11:06 GMT-0600 (Central Standard Time),342138.60000002384,CFD-BM-021-026-A.jpg,1600,dash,O,m,891,2,1,47333.10000002384,294805.5,7761,ATS,C,20
20,test,1,B,mfborder.png,1,z,Tue Feb 17 2026 14:11:06 GMT-0600 (Central Standard Time),344502.6999999881,CFD-BF-042-031-HC.jpg,1500,dash,O,z,843,3,1,49697.19999998808,294805.5,7761,ATS,C,21
21,test,1,B,mfborder.png,1,z,Tue Feb 17 2026 14:11:06 GMT-0600 (Central Standard Time),346487.1999999881,CFD-WF-013-009-HC.jpg,1000,dash,O,z,953,12,1,51681.69999998808,294805.5,7761,ATS,C,22
22,test,1,B,mfborder.png,1,z,Tue Feb 17 2026 14:11:06 GMT-0600 (Central Standard Time),348318.60000002384,CFD-BF-031-020-A.jpg,1000,dash,O,z,811,4,1,53513.10000002384,294805.5,7761,ATS,C,23
23,test,1,B,mfborder.png,1,z,Tue Feb 17 2026 14:11:06 GMT-0600 (Central Standard Time),350019.1999999881,CFD-BF-031-020-A.jpg,1000,dash,O,z,667,4,1,55213.69999998808,294805.5,7761,ATS,C,24
0,prac,1,C,haborder.png,0,z,Tue Feb 17 2026 14:11:06 GMT-0600 (Central Standard Time),423396.10000002384,CFD-BF-031-020-A.jpg,1900,dash,O,None,1517,4,1,4199.699999988079,419196.40000003576,7761,ATS,C,1
1,prac,1,C,mfborder.png,1,z,Tue Feb 17 2026 14:11:06 GMT-0600 (Central Standard Time),426776.8000000119,CFD-WF-023-013-A.jpg,1500,solid,O,z,1085,4,1,7580.399999976158,419196.40000003576,7761,ATS,C,2
1,prac,1,C,haborder.png,0,z,Tue Feb 17 2026 14:11:06 GMT-0600 (Central Standard Time),430777.6999999881,CFD-BF-002-018-A.jpg,1700,solid,O,None,1516,4,1,11581.299999952316,419196.40000003576,7761,ATS,C,3
2,prac,1,C,haborder.png,1,m,Tue Feb 17 2026 14:11:06 GMT-0600 (Central Standard Time),433928.90000003576,CFD-BM-022-004-HC.jpg,1500,solid,O,m,877,4,1,14732.5,419196.40000003576,7761,ATS,C,4
3,prac,1,C,haborder.png,1,m,Tue Feb 17 2026 14:11:06 GMT-0600 (Central Standard Time),436675.5,CFD-WM-028-005-HC.jpg,1000,dash,O,m,964,4,1,17479.099999964237,419196.40000003576,7761,ATS,C,5
3,prac,1,C,mfborder.png,0,m,Tue Feb 17 2026 14:11:06 GMT-0600 (Central Standard Time),440024.1999999881,CFD-WM-036-018-A.jpg,1700,solid,O,z,851,4,1,20827.799999952316,419196.40000003576,7761,ATS,C,6
3,prac,1,C,haborder.png,0,z,Tue Feb 17 2026 14:11:06 GMT-0600 (Central Standard Time),443922.0,CFD-WF-037-016-A.jpg,1600,dash,O,None,1514,4,1,24725.599999964237,419196.40000003576,7761,ATS,C,7
4,prac,1,C,mfborder.png,1,m,Tue Feb 17 2026 14:11:06 GMT-0600 (Central Standard Time),447555.8000000119,CFD-BM-034-035-HC.jpg,2000,solid,O,m,848,4,1,28359.399999976158,419196.40000003576,7761,ATS,C,8
4,prac,1,C,mfborder.png,0,m,Tue Feb 17 2026 14:11:06 GMT-0600 (Central Standard Time),450603.90000003576,CFD-BM-043-014-A.jpg,1200,dash,O,z,1081,4,1,31407.5,419196.40000003576,7761,ATS,C,9
4,prac,1,C,mfborder.png,0,z,Tue Feb 17 2026 14:11:06 GMT-0600 (Central Standard Time),453902.60000002384,CFD-BF-019-004-HC.jpg,1000,dash,O,None,1516,4,1,34706.19999998808,419196.40000003576,7761,ATS,C,10
4,prac,1,C,mfborder.png,0,z,Tue Feb 17 2026 14:11:06 GMT-0600 (Central Standard Time),457801.5,CFD-WF-013-009-HC.jpg,1600,dash,O,None,1515,4,1,38605.09999996424,419196.40000003576,7761,ATS,C,11
5,prac,1,C,haborder.png,1,m,Tue Feb 17 2026 14:11:06 GMT-0600 (Central Standard Time),460783.8000000119,CFD-WM-028-005-HC.jpg,1400,solid,O,m,784,4,1,41587.39999997616,419196.40000003576,7761,ATS,C,12
0,prac,2,C,haborder.png,0,z,Tue Feb 17 2026 14:11:06 GMT-0600 (Central Standard Time),470530.3000000119,CFD-BF-031-020-A.jpg,1900,dash,O,None,1516,4,1,51333.89999997616,419196.40000003576,7761,ATS,C,1
0,prac,2,C,haborder.png,0,z,Tue Feb 17 2026 14:11:06 GMT-0600 (Central Standard Time),474362.3000000119,CFD-WF-037-016-A.jpg,1600,dash,O,m,1438,4,1,55165.89999997616,419196.40000003576,7761,ATS,C,2
0,prac,2,C,mfborder.png,0,m,Tue Feb 17 2026 14:11:06 GMT-0600 (Central Standard Time),478328.0,CFD-BM-034-035-HC.jpg,2000,solid,O,z,1175,4,1,59131.59999996424,419196.40000003576,7761,ATS,C,3
1,prac,2,C,mfborder.png,1,m,Tue Feb 17 2026 14:11:06 GMT-0600 (Central Standard Time),481360.60000002384,CFD-BM-043-014-A.jpg,1200,dash,O,m,1051,4,1,62164.19999998808,419196.40000003576,7761,ATS,C,4
1,prac,2,C,mfborder.png,0,z,Tue Feb 17 2026 14:11:06 GMT-0600 (Central Standard Time),485242.0,CFD-WF-013-009-HC.jpg,1600,dash,O,None,1501,4,1,66045.59999996424,419196.40000003576,7761,ATS,C,5
1,prac,2,C,haborder.png,0,z,Tue Feb 17 2026 14:11:06 GMT-0600 (Central Standard Time),488773.3000000119,CFD-BF-002-018-A.jpg,1700,solid,O,m,1035,4,1,69576.89999997616,419196.40000003576,7761,ATS,C,6
1,prac,2,C,haborder.png,0,m,Tue Feb 17 2026 14:11:06 GMT-0600 (Central Standard Time),492572.8000000119,CFD-BM-022-004-HC.jpg,1500,solid,O,None,1515,4,1,73376.39999997616,419196.40000003576,7761,ATS,C,7
2,prac,2,C,haborder.png,1,m,Tue Feb 17 2026 14:11:06 GMT-0600 (Central Standard Time),495457.6999999881,CFD-WM-028-005-HC.jpg,1000,dash,O,m,1114,4,1,76261.29999995232,419196.40000003576,7761,ATS,C,8
2,prac,2,C,mfborder.png,0,z,Tue Feb 17 2026 14:11:06 GMT-0600 (Central Standard Time),499238.3000000119,CFD-WF-023-013-A.jpg,1500,solid,O,None,1501,4,1,80041.89999997616,419196.40000003576,7761,ATS,C,9
2,prac,2,C,mfborder.png,0,z,Tue Feb 17 2026 14:11:06 GMT-0600 (Central Standard Time),502537.8000000119,CFD-BF-019-004-HC.jpg,1000,dash,O,None,1515,4,1,83341.39999997616,419196.40000003576,7761,ATS,C,10
3,prac,2,C,mfborder.png,1,m,Tue Feb 17 2026 14:11:06 GMT-0600 (Central Standard Time),506153.3000000119,CFD-WM-036-018-A.jpg,1700,solid,O,m,1125,4,1,86956.89999997616,419196.40000003576,7761,ATS,C,11
3,prac,2,C,haborder.png,0,m,Tue Feb 17 2026 14:11:06 GMT-0600 (Central Standard Time),509850.10000002384,CFD-WM-028-005-HC.jpg,1400,solid,O,None,1516,4,1,90653.69999998808,419196.40000003576,7761,ATS,C,12
0,test,1,C,mfborder.png,0,m,Tue Feb 17 2026 14:11:06 GMT-0600 (Central Standard Time),562603.1999999881,CFD-WM-035-036-HC.jpg,1000,dash,O,None,1517,4,1,2534.599999964237,560068.6000000238,7761,ATS,C,1
0,test,1,C,mfborder.png,0,m,Tue Feb 17 2026 14:11:06 GMT-0600 (Central Standard Time),565132.8000000119,CFD-WM-035-036-HC.jpg,1000,dash,O,None,1515,4,1,5064.199999988079,560068.6000000238,7761,ATS,C,2
0,test,1,C,mfborder.png,0,z,Tue Feb 17 2026 14:11:06 GMT-0600 (Central Standard Time),568168.1999999881,CFD-WF-037-016-A.jpg,1500,dash,O,None,1518,3,1,8099.599999964237,560068.6000000238,7761,ATS,C,3
0,test,1,C,mfborder.png,0,m,Tue Feb 17 2026 14:11:06 GMT-0600 (Central Standard Time),570598.6999999881,CFD-BM-022-004-HC.jpg,1200,dash,O,z,1201,6,1,10530.099999964237,560068.6000000238,7761,ATS,C,4
0,test,1,C,mfborder.png,0,m,Tue Feb 17 2026 14:11:06 GMT-0600 (Central Standard Time),574131.5,CFD-WM-034-040-A.jpg,2000,dash,O,None,1515,5,1,14062.899999976158,560068.6000000238,7761,ATS,C,5
1,test,1,C,mfborder.png,1,z,Tue Feb 17 2026 14:11:06 GMT-0600 (Central Standard Time),576613.5,CFD-BF-031-020-A.jpg,1600,dash,O,z,855,2,1,16544.899999976158,560068.6000000238,7761,ATS,C,6
1,test,1,C,haborder.png,0,m,Tue Feb 17 2026 14:11:06 GMT-0600 (Central Standard Time),579746.3000000119,CFD-BF-019-004-HC.jpg,1600,solid,O,None,1515,10,1,19677.69999998808,560068.6000000238,7761,ATS,C,7
1,test,1,C,haborder.png,0,z,Tue Feb 17 2026 14:11:06 GMT-0600 (Central Standard Time),582246.0,CFD-BM-021-026-A.jpg,1700,solid,O,m,771,9,1,22177.399999976158,560068.6000000238,7761,ATS,C,8
1,test,1,C,haborder.png,0,z,Tue Feb 17 2026 14:11:06 GMT-0600 (Central Standard Time),585259.9000000358,CFD-BM-043-014-A.jpg,1900,solid,O,m,1088,8,1,25191.30000001192,560068.6000000238,7761,ATS,C,9
1,test,1,C,haborder.png,0,m,Tue Feb 17 2026 14:11:06 GMT-0600 (Central Standard Time),587393.0,CFD-WF-013-009-HC.jpg,1000,solid,O,z,1110,12,1,27324.399999976158,560068.6000000238,7761,ATS,C,10
1,test,1,C,haborder.png,0,m,Tue Feb 17 2026 14:11:06 GMT-0600 (Central Standard Time),589342.1999999881,CFD-WF-013-009-HC.jpg,1000,solid,O,z,920,12,1,29273.599999964237,560068.6000000238,7761,ATS,C,11
1,test,1,C,haborder.png,0,z,Tue Feb 17 2026 14:11:06 GMT-0600 (Central Standard Time),591774.5,CFD-BM-021-026-A.jpg,1700,solid,O,m,702,9,1,31705.899999976158,560068.6000000238,7761,ATS,C,12
1,test,1,C,haborder.png,0,m,Tue Feb 17 2026 14:11:06 GMT-0600 (Central Standard Time),594141.1999999881,CFD-WF-001-010-HC.jpg,1500,solid,O,z,850,11,1,34072.59999996424,560068.6000000238,7761,ATS,C,13
1,test,1,C,mfborder.png,0,m,Tue Feb 17 2026 14:11:06 GMT-0600 (Central Standard Time),596857.9000000358,CFD-BM-022-004-HC.jpg,1200,dash,O,None,1501,6,1,36789.30000001192,560068.6000000238,7761,ATS,C,14
2,test,1,C,haborder.png,1,z,Tue Feb 17 2026 14:11:06 GMT-0600 (Central Standard Time),599888.1999999881,CFD-BM-043-014-A.jpg,1900,solid,O,z,1109,8,1,39819.59999996424,560068.6000000238,7761,ATS,C,15
2,test,1,C,mfborder.png,0,z,Tue Feb 17 2026 14:11:06 GMT-0600 (Central Standard Time),602905.6000000238,CFD-WF-037-016-A.jpg,1500,dash,O,None,1501,3,1,42837.0,560068.6000000238,7761,ATS,C,16
2,test,1,C,haborder.png,0,z,Tue Feb 17 2026 14:11:06 GMT-0600 (Central Standard Time),605839.4000000358,CFD-WM-036-018-A.jpg,1400,solid,O,None,1517,7,1,45770.80000001192,560068.6000000238,7761,ATS,C,17
3,test,1,C,haborder.png,1,m,Tue Feb 17 2026 14:11:06 GMT-0600 (Central Standard Time),608902.3000000119,CFD-BF-019-004-HC.jpg,1600,solid,O,m,1436,10,1,48833.69999998808,560068.6000000238,7761,ATS,C,18
3,test,1,C,mfborder.png,0,z,Tue Feb 17 2026 14:11:06 GMT-0600 (Central Standard Time),612036.1000000238,CFD-BF-031-020-A.jpg,1600,dash,O,None,1516,2,1,51967.5,560068.6000000238,7761,ATS,C,19
3,test,1,C,haborder.png,0,z,Tue Feb 17 2026 14:11:06 GMT-0600 (Central Standard Time),614734.6000000238,CFD-WM-036-018-A.jpg,1400,solid,O,m,1274,7,1,54666.0,560068.6000000238,7761,ATS,C,20
3,test,1,C,mfborder.png,0,z,Tue Feb 17 2026 14:11:06 GMT-0600 (Central Standard Time),617967.1999999881,CFD-BF-042-031-HC.jpg,1700,dash,O,None,1516,1,1,57898.59999996424,560068.6000000238,7761,ATS,C,21
3,test,1,C,haborder.png,0,m,Tue Feb 17 2026 14:11:06 GMT-0600 (Central Standard Time),620999.4000000358,CFD-WF-001-010-HC.jpg,1500,solid,O,None,1515,11,1,60930.80000001192,560068.6000000238,7761,ATS,C,22
4,test,1,C,mfborder.png,1,z,Tue Feb 17 2026 14:11:06 GMT-0600 (Central Standard Time),623631.9000000358,CFD-BF-042-031-HC.jpg,1700,dash,O,z,901,1,1,63563.30000001192,560068.6000000238,7761,ATS,C,23
4,test,1,C,mfborder.png,0,m,Tue Feb 17 2026 14:11:06 GMT-0600 (Central Standard Time),627048.6999999881,CFD-WM-034-040-A.jpg,2000,dash,O,z,1396,5,1,66980.09999996424,560068.6000000238,7761,ATS,C,24
0,test,2,C,mfborder.png,0,z,Tue Feb 17 2026 14:11:06 GMT-0600 (Central Standard Time),646342.3000000119,CFD-WF-013-009-HC.jpg,1700,dash,O,None,1516,1,1,3233.5,643108.8000000119,7761,ATS,C,1
1,test,2,C,mfborder.png,1,m,Tue Feb 17 2026 14:11:06 GMT-0600 (Central Standard Time),648773.6000000238,CFD-BM-034-035-HC.jpg,1000,dash,O,m,1405,4,1,5664.800000011921,643108.8000000119,7761,ATS,C,2
2,test,2,C,haborder.png,1,z,Tue Feb 17 2026 14:11:06 GMT-0600 (Central Standard Time),651672.5,CFD-BF-002-018-A.jpg,1900,solid,O,z,976,8,1,8563.699999988079,643108.8000000119,7761,ATS,C,3
3,test,2,C,mfborder.png,1,m,Tue Feb 17 2026 14:11:06 GMT-0600 (Central Standard Time),654107.1000000238,CFD-WM-036-018-A.jpg,1200,dash,O,m,1217,6,1,10998.300000011921,643108.8000000119,7761,ATS,C,4
4,test,2,C,haborder.png,1,m,Tue Feb 17 2026 14:11:06 GMT-0600 (Central Standard Time),656388.1000000238,CFD-WM-028-005-HC.jpg,1000,solid,O,m,1256,12,1,13279.300000011921,643108.8000000119,7761,ATS,C,5
4,test,2,C,mfborder.png,0,z,Tue Feb 17 2026 14:11:06 GMT-0600 (Central Standard Time),659420.3000000119,CFD-BF-019-004-HC.jpg,1500,dash,O,None,1516,3,1,16311.5,643108.8000000119,7761,ATS,C,6
5,test,2,C,haborder.png,1,z,Tue Feb 17 2026 14:11:06 GMT-0600 (Central Standard Time),662685.6000000238,CFD-BF-002-018-A.jpg,1900,solid,O,z,1337,8,1,19576.80000001192,643108.8000000119,7761,ATS,C,7
6,test,2,C,haborder.png,1,m,Tue Feb 17 2026 14:11:06 GMT-0600 (Central Standard Time),665700.8000000119,CFD-BM-022-004-HC.jpg,1600,solid,O,m,1396,10,1,22592.0,643108.8000000119,7761,ATS,C,8
7,test,2,C,haborder.png,1,m,Tue Feb 17 2026 14:11:06 GMT-0600 (Central Standard Time),668533.9000000358,CFD-BM-022-004-HC.jpg,1600,solid,O,m,1211,10,1,25425.100000023842,643108.8000000119,7761,ATS,C,9
7,test,2,C,mfborder.png,0,m,Tue Feb 17 2026 14:11:06 GMT-0600 (Central Standard Time),672050.5,CFD-BM-043-014-A.jpg,2000,dash,O,None,1501,5,1,28941.69999998808,643108.8000000119,7761,ATS,C,10
8,test,2,C,mfborder.png,1,m,Tue Feb 17 2026 14:11:06 GMT-0600 (Central Standard Time),674282.3000000119,CFD-BM-034-035-HC.jpg,1000,dash,O,m,1199,4,1,31173.5,643108.8000000119,7761,ATS,C,11
8,test,2,C,haborder.png,0,z,Tue Feb 17 2026 14:11:06 GMT-0600 (Central Standard Time),677515.4000000358,CFD-WF-037-016-A.jpg,1700,solid,O,None,1515,9,1,34406.60000002384,643108.8000000119,7761,ATS,C,12
8,test,2,C,haborder.png,0,z,Tue Feb 17 2026 14:11:06 GMT-0600 (Central Standard Time),680448.4000000358,CFD-BF-031-020-A.jpg,1400,solid,O,None,1517,7,1,37339.60000002384,643108.8000000119,7761,ATS,C,13
9,test,2,C,haborder.png,1,z,Tue Feb 17 2026 14:11:06 GMT-0600 (Central Standard Time),682596.5,CFD-BF-031-020-A.jpg,1400,solid,O,z,721,7,1,39487.69999998808,643108.8000000119,7761,ATS,C,14
9,test,2,C,mfborder.png,0,m,Tue Feb 17 2026 14:11:06 GMT-0600 (Central Standard Time),685329.5,CFD-WM-036-018-A.jpg,1200,dash,O,None,1516,6,1,42220.69999998808,643108.8000000119,7761,ATS,C,15
9,test,2,C,mfborder.png,0,z,Tue Feb 17 2026 14:11:06 GMT-0600 (Central Standard Time),688561.1000000238,CFD-WF-013-009-HC.jpg,1700,dash,O,None,1516,1,1,45452.30000001192,643108.8000000119,7761,ATS,C,16
10,test,2,C,mfborder.png,1,z,Tue Feb 17 2026 14:11:06 GMT-0600 (Central Standard Time),691244.3000000119,CFD-WF-023-013-A.jpg,1600,dash,O,z,1066,2,1,48135.5,643108.8000000119,7761,ATS,C,17
10,test,2,C,mfborder.png,0,z,Tue Feb 17 2026 14:11:06 GMT-0600 (Central Standard Time),694291.9000000358,CFD-WF-023-013-A.jpg,1600,dash,O,m,1422,2,1,51183.10000002384,643108.8000000119,7761,ATS,C,18
10,test,2,C,haborder.png,0,m,Tue Feb 17 2026 14:11:06 GMT-0600 (Central Standard Time),697310.1999999881,CFD-WM-028-005-HC.jpg,1500,solid,O,None,1501,11,1,54201.39999997616,643108.8000000119,7761,ATS,C,19
10,test,2,C,mfborder.png,0,m,Tue Feb 17 2026 14:11:06 GMT-0600 (Central Standard Time),700724.3000000119,CFD-BM-043-014-A.jpg,2000,dash,O,z,1390,5,1,57615.5,643108.8000000119,7761,ATS,C,20
11,test,2,C,haborder.png,1,m,Tue Feb 17 2026 14:11:06 GMT-0600 (Central Standard Time),703539.1000000238,CFD-WM-028-005-HC.jpg,1500,solid,O,m,1290,11,1,60430.30000001192,643108.8000000119,7761,ATS,C,21
12,test,2,C,haborder.png,1,m,Tue Feb 17 2026 14:11:06 GMT-0600 (Central Standard Time),705306.5,CFD-WM-028-005-HC.jpg,1000,solid,O,m,735,12,1,62197.69999998808,643108.8000000119,7761,ATS,C,22
12,test,2,C,mfborder.png,0,z,Tue Feb 17 2026 14:11:06 GMT-0600 (Central Standard Time),708337.8000000119,CFD-BF-019-004-HC.jpg,1500,dash,O,None,1516,3,1,65229.0,643108.8000000119,7761,ATS,C,23
12,test,2,C,haborder.png,0,z,Tue Feb 17 2026 14:11:06 GMT-0600 (Central Standard Time),711570.4000000358,CFD-WF-037-016-A.jpg,1700,solid,O,None,1515,9,1,68461.60000002384,643108.8000000119,7761,ATS,C,24
0,test,3,C,mfborder.png,0,z,Tue Feb 17 2026 14:11:06 GMT-0600 (Central Standard Time),717168.8000000119,CFD-BF-031-020-A.jpg,1600,dash,O,None,1517,2,1,3132.800000011921,714036.0,7761,ATS,C,1
1,test,3,C,mfborder.png,1,z,Tue Feb 17 2026 14:11:06 GMT-0600 (Central Standard Time),719417.6000000238,CFD-WF-037-016-A.jpg,1500,dash,O,z,717,3,1,5381.600000023842,714036.0,7761,ATS,C,2
2,test,3,C,haborder.png,1,m,Tue Feb 17 2026 14:11:06 GMT-0600 (Central Standard Time),722234.9000000358,CFD-WF-001-010-HC.jpg,1500,solid,O,m,1292,11,1,8198.900000035763,714036.0,7761,ATS,C,3
2,test,3,C,mfborder.png,0,m,Tue Feb 17 2026 14:11:06 GMT-0600 (Central Standard Time),724966.6999999881,CFD-BM-022-004-HC.jpg,1200,dash,O,None,1515,6,1,10930.699999988079,714036.0,7761,ATS,C,4
2,test,3,C,mfborder.png,0,z,Tue Feb 17 2026 14:11:06 GMT-0600 (Central Standard Time),728198.9000000358,CFD-BF-042-031-HC.jpg,1700,dash,O,None,1515,1,1,14162.900000035763,714036.0,7761,ATS,C,5
3,test,3,C,haborder.png,1,m,Tue Feb 17 2026 14:11:06 GMT-0600 (Central Standard Time),730863.8000000119,CFD-BF-019-004-HC.jpg,1600,solid,O,m,1043,10,1,16827.80000001192,714036.0,7761,ATS,C,6
3,test,3,C,mfborder.png,0,z,Tue Feb 17 2026 14:11:06 GMT-0600 (Central Standard Time),733712.8000000119,CFD-BF-042-031-HC.jpg,1700,dash,O,m,1125,1,1,19676.80000001192,714036.0,7761,ATS,C,7
4,test,3,C,haborder.png,1,z,Tue Feb 17 2026 14:11:06 GMT-0600 (Central Standard Time),736713.4000000358,CFD-BM-043-014-A.jpg,1900,solid,O,z,1076,8,1,22677.400000035763,714036.0,7761,ATS,C,8
5,test,3,C,mfborder.png,1,m,Tue Feb 17 2026 14:11:06 GMT-0600 (Central Standard Time),738778.1000000238,CFD-BM-022-004-HC.jpg,1200,dash,O,m,843,6,1,24742.100000023842,714036.0,7761,ATS,C,9
5,test,3,C,haborder.png,0,z,Tue Feb 17 2026 14:11:06 GMT-0600 (Central Standard Time),741995.4000000358,CFD-BM-021-026-A.jpg,1700,solid,O,None,1501,9,1,27959.400000035763,714036.0,7761,ATS,C,10
5,test,3,C,mfborder.png,0,z,Tue Feb 17 2026 14:11:06 GMT-0600 (Central Standard Time),745026.6000000238,CFD-WF-037-016-A.jpg,1500,dash,O,None,1515,3,1,30990.600000023842,714036.0,7761,ATS,C,11
5,test,3,C,mfborder.png,0,m,Tue Feb 17 2026 14:11:06 GMT-0600 (Central Standard Time),748191.9000000358,CFD-WM-034-040-A.jpg,2000,dash,O,z,1135,5,1,34155.90000003576,714036.0,7761,ATS,C,12
5,test,3,C,haborder.png,0,z,Tue Feb 17 2026 14:11:06 GMT-0600 (Central Standard Time),750857.4000000358,CFD-WM-036-018-A.jpg,1400,solid,O,m,1234,7,1,36821.40000003576,714036.0,7761,ATS,C,13
5,test,3,C,haborder.png,0,m,Tue Feb 17 2026 14:11:06 GMT-0600 (Central Standard Time),753890.6999999881,CFD-WF-001-010-HC.jpg,1500,solid,O,None,1517,11,1,39854.69999998808,714036.0,7761,ATS,C,14
5,test,3,C,mfborder.png,0,m,Tue Feb 17 2026 14:11:06 GMT-0600 (Central Standard Time),756422.9000000358,CFD-WM-035-036-HC.jpg,1000,dash,O,None,1516,4,1,42386.90000003576,714036.0,7761,ATS,C,15
6,test,3,C,haborder.png,1,m,Tue Feb 17 2026 14:11:06 GMT-0600 (Central Standard Time),759422.1999999881,CFD-BF-019-004-HC.jpg,1600,solid,O,m,1379,10,1,45386.19999998808,714036.0,7761,ATS,C,16
7,test,3,C,haborder.png,1,z,Tue Feb 17 2026 14:11:06 GMT-0600 (Central Standard Time),762588.6000000238,CFD-BM-021-026-A.jpg,1700,solid,O,z,1437,9,1,48552.60000002384,714036.0,7761,ATS,C,17
7,test,3,C,mfborder.png,0,m,Tue Feb 17 2026 14:11:06 GMT-0600 (Central Standard Time),765122.4000000358,CFD-WM-035-036-HC.jpg,1000,dash,O,None,1515,4,1,51086.40000003576,714036.0,7761,ATS,C,18
7,test,3,C,mfborder.png,0,z,Tue Feb 17 2026 14:11:06 GMT-0600 (Central Standard Time),768236.9000000358,CFD-BF-031-020-A.jpg,1600,dash,O,None,1501,2,1,54200.90000003576,714036.0,7761,ATS,C,19
8,test,3,C,haborder.png,1,z,Tue Feb 17 2026 14:11:06 GMT-0600 (Central Standard Time),771501.1000000238,CFD-BM-043-014-A.jpg,1900,solid,O,z,1337,8,1,57465.10000002384,714036.0,7761,ATS,C,20
8,test,3,C,haborder.png,0,z,Tue Feb 17 2026 14:11:06 GMT-0600 (Central Standard Time),774149.3000000119,CFD-WM-036-018-A.jpg,1400,solid,O,m,1229,7,1,60113.30000001192,714036.0,7761,ATS,C,21
9,test,3,C,haborder.png,1,m,Tue Feb 17 2026 14:11:06 GMT-0600 (Central Standard Time),776198.9000000358,CFD-WF-013-009-HC.jpg,1000,solid,O,m,1020,12,1,62162.90000003576,714036.0,7761,ATS,C,22
9,test,3,C,haborder.png,0,m,Tue Feb 17 2026 14:11:06 GMT-0600 (Central Standard Time),778515.5,CFD-WF-013-009-HC.jpg,1000,solid,O,z,1289,12,1,64479.5,714036.0,7761,ATS,C,23
9,test,3,C,mfborder.png,0,m,Tue Feb 17 2026 14:11:06 GMT-0600 (Central Standard Time),782047.4000000358,CFD-WM-034-040-A.jpg,2000,dash,O,None,1515,5,1,68011.40000003576,714036.0,7761,ATS,C,24
0,test,4,C,haborder.png,0,z,Tue Feb 17 2026 14:11:06 GMT-0600 (Central Standard Time),798876.6999999881,CFD-BF-002-018-A.jpg,1900,solid,O,None,1516,8,1,3432.5,795444.1999999881,7761,ATS,C,1
1,test,4,C,haborder.png,1,m,Tue Feb 17 2026 14:11:06 GMT-0600 (Central Standard Time),801308.4000000358,CFD-WM-028-005-HC.jpg,1000,solid,O,m,1405,12,1,5864.200000047684,795444.1999999881,7761,ATS,C,2
1,test,4,C,mfborder.png,0,m,Tue Feb 17 2026 14:11:06 GMT-0600 (Central Standard Time),803940.1000000238,CFD-WM-036-018-A.jpg,1200,dash,O,z,1405,6,1,8495.900000035763,795444.1999999881,7761,ATS,C,3
2,test,4,C,haborder.png,1,m,Tue Feb 17 2026 14:11:06 GMT-0600 (Central Standard Time),806691.4000000358,CFD-WM-028-005-HC.jpg,1500,solid,O,m,1224,11,1,11247.200000047684,795444.1999999881,7761,ATS,C,4
2,test,4,C,mfborder.png,0,m,Tue Feb 17 2026 14:11:06 GMT-0600 (Central Standard Time),810204.6999999881,CFD-BM-043-014-A.jpg,2000,dash,O,z,1487,5,1,14760.5,795444.1999999881,7761,ATS,C,5
2,test,4,C,mfborder.png,0,z,Tue Feb 17 2026 14:11:06 GMT-0600 (Central Standard Time),813323.0,CFD-WF-023-013-A.jpg,1600,dash,O,None,1501,2,1,17878.80000001192,795444.1999999881,7761,ATS,C,6
2,test,4,C,haborder.png,0,z,Tue Feb 17 2026 14:11:06 GMT-0600 (Central Standard Time),815537.0,CFD-BF-031-020-A.jpg,1400,solid,O,m,792,7,1,20092.80000001192,795444.1999999881,7761,ATS,C,7
2,test,4,C,mfborder.png,0,m,Tue Feb 17 2026 14:11:06 GMT-0600 (Central Standard Time),818068.8000000119,CFD-BM-034-035-HC.jpg,1000,dash,O,None,1514,4,1,22624.600000023842,795444.1999999881,7761,ATS,C,8
3,test,4,C,mfborder.png,1,m,Tue Feb 17 2026 14:11:06 GMT-0600 (Central Standard Time),820086.3000000119,CFD-BM-034-035-HC.jpg,1000,dash,O,m,988,4,1,24642.100000023842,795444.1999999881,7761,ATS,C,9
3,test,4,C,mfborder.png,0,z,Tue Feb 17 2026 14:11:06 GMT-0600 (Central Standard Time),823119.5,CFD-BF-019-004-HC.jpg,1500,dash,O,None,1516,3,1,27675.30000001192,795444.1999999881,7761,ATS,C,10
3,test,4,C,mfborder.png,0,m,Tue Feb 17 2026 14:11:06 GMT-0600 (Central Standard Time),826201.0,CFD-BM-043-014-A.jpg,2000,dash,O,z,1058,5,1,30756.80000001192,795444.1999999881,7761,ATS,C,11
4,test,4,C,haborder.png,1,m,Tue Feb 17 2026 14:11:06 GMT-0600 (Central Standard Time),828782.5,CFD-BM-022-004-HC.jpg,1600,solid,O,m,961,10,1,33338.30000001192,795444.1999999881,7761,ATS,C,12
4,test,4,C,mfborder.png,0,m,Tue Feb 17 2026 14:11:06 GMT-0600 (Central Standard Time),831433.5,CFD-WM-036-018-A.jpg,1200,dash,O,z,1425,6,1,35989.30000001192,795444.1999999881,7761,ATS,C,13
4,test,4,C,mfborder.png,0,z,Tue Feb 17 2026 14:11:06 GMT-0600 (Central Standard Time),834665.1999999881,CFD-WF-013-009-HC.jpg,1700,dash,O,None,1516,1,1,39221.0,795444.1999999881,7761,ATS,C,14
5,test,4,C,haborder.png,1,m,Tue Feb 17 2026 14:11:06 GMT-0600 (Central Standard Time),837780.0,CFD-BM-022-004-HC.jpg,1600,solid,O,m,1498,10,1,42335.80000001192,795444.1999999881,7761,ATS,C,15
6,test,4,C,haborder.png,1,z,Tue Feb 17 2026 14:11:06 GMT-0600 (Central Standard Time),840862.1999999881,CFD-BF-002-018-A.jpg,1900,solid,O,z,1162,8,1,45418.0,795444.1999999881,7761,ATS,C,16
7,test,4,C,haborder.png,1,m,Tue Feb 17 2026 14:11:06 GMT-0600 (Central Standard Time),843595.0,CFD-WM-028-005-HC.jpg,1500,solid,O,m,1204,11,1,48150.80000001192,795444.1999999881,7761,ATS,C,17
8,test,4,C,haborder.png,1,z,Tue Feb 17 2026 14:11:06 GMT-0600 (Central Standard Time),846727.3000000119,CFD-WF-037-016-A.jpg,1700,solid,O,z,1410,9,1,51283.10000002384,795444.1999999881,7761,ATS,C,18
8,test,4,C,mfborder.png,0,z,Tue Feb 17 2026 14:11:06 GMT-0600 (Central Standard Time),849760.6999999881,CFD-BF-019-004-HC.jpg,1500,dash,O,None,1514,3,1,54316.5,795444.1999999881,7761,ATS,C,19
8,test,4,C,haborder.png,0,z,Tue Feb 17 2026 14:11:06 GMT-0600 (Central Standard Time),852691.3000000119,CFD-BF-031-020-A.jpg,1400,solid,O,None,1515,7,1,57247.10000002384,795444.1999999881,7761,ATS,C,20
9,test,4,C,haborder.png,1,z,Tue Feb 17 2026 14:11:06 GMT-0600 (Central Standard Time),855474.1999999881,CFD-WF-037-016-A.jpg,1700,solid,O,z,1056,9,1,60030.0,795444.1999999881,7761,ATS,C,21
10,test,4,C,haborder.png,1,m,Tue Feb 17 2026 14:11:06 GMT-0600 (Central Standard Time),857407.3000000119,CFD-WM-028-005-HC.jpg,1000,solid,O,m,911,12,1,61963.10000002384,795444.1999999881,7761,ATS,C,22
10,test,4,C,mfborder.png,0,z,Tue Feb 17 2026 14:11:06 GMT-0600 (Central Standard Time),860589.0,CFD-WF-013-009-HC.jpg,1700,dash,O,m,1454,1,1,65144.80000001192,795444.1999999881,7761,ATS,C,23
11,test,4,C,mfborder.png,1,z,Tue Feb 17 2026 14:11:06 GMT-0600 (Central Standard Time),863088.6999999881,CFD-WF-023-013-A.jpg,1600,dash,O,z,876,2,1,67644.5,795444.1999999881,7761,ATS,C,24
