acc_sum,block,block_c,change,condition,correct,correct_response,datetime,endtime,face,project,response,response_time,row_sel,session_number,start_end,starttime,subject_id,task,task_vers,trial
0,prac,1,,1-Back,,,Thu Jan 22 2026 09:29:17 GMT-0600 (Central Standard Time),,124_o_f_d_a.png,I,space,18133,1,1,,,8093,VNB,A,0
1,prac,1,0.0,1-Back,1.0,m,Thu Jan 22 2026 09:29:17 GMT-0600 (Central Standard Time),197370.5,071_y_f_n_a.png,I,m,764,2,1,1569.8999999761581,195800.60000002384,8093,VNB,A,1
2,prac,1,0.0,1-Back,1.0,m,Thu Jan 22 2026 09:29:17 GMT-0600 (Central Standard Time),199919.60000002384,165_m_m_h_a.png,I,m,1735,3,1,2538.3000000715256,197381.29999995232,8093,VNB,A,2
3,prac,1,0.0,1-Back,1.0,m,Thu Jan 22 2026 09:29:17 GMT-0600 (Central Standard Time),202385.60000002384,109_y_m_d_a.png,I,m,1655,4,1,2455.5,199930.10000002384,8093,VNB,A,3
4,prac,1,0.0,1-Back,1.0,m,Thu Jan 22 2026 09:29:17 GMT-0600 (Central Standard Time),204168.10000002384,124_o_f_n_a.png,I,m,946,5,1,1770.4000000953674,202397.69999992847,8093,VNB,A,4
4,prac,1,1.0,1-Back,0.0,z,Thu Jan 22 2026 09:29:17 GMT-0600 (Central Standard Time),206650.89999997616,109_y_m_n_a.png,I,m,1661,6,1,2471.899999976158,204179.0,8093,VNB,A,5
5,prac,1,0.0,1-Back,1.0,m,Thu Jan 22 2026 09:29:17 GMT-0600 (Central Standard Time),208983.39999997616,039_o_m_h_a.png,I,m,1531,7,1,2321.899999976158,206661.5,8093,VNB,A,6
6,prac,1,0.0,1-Back,1.0,m,Thu Jan 22 2026 09:29:17 GMT-0600 (Central Standard Time),211249.39999997616,139_m_f_d_a.png,I,m,1316,8,1,2255.2999999523163,208994.10000002384,8093,VNB,A,7
6,prac,1,1.0,1-Back,0.0,z,Thu Jan 22 2026 09:29:17 GMT-0600 (Central Standard Time),213532.10000002384,071_y_f_d_a.png,I,m,1476,9,1,2271.7000000476837,211260.39999997616,8093,VNB,A,8
6,prac,1,0.0,1-Back,0.0,m,Thu Jan 22 2026 09:29:17 GMT-0600 (Central Standard Time),216347.79999995232,165_m_m_n_a.png,I,None,2004,10,1,2797.899999976158,213549.89999997616,8093,VNB,A,9
7,prac,1,0.0,1-Back,1.0,m,Thu Jan 22 2026 09:29:17 GMT-0600 (Central Standard Time),218563.89999997616,124_o_f_h_a.png,I,m,1382,11,1,2205.5,216358.39999997616,8093,VNB,A,10
7,prac,1,0.0,1-Back,0.0,m,Thu Jan 22 2026 09:29:17 GMT-0600 (Central Standard Time),221346.39999997616,109_y_m_d_a.png,I,None,2005,12,1,2771.600000023842,218574.79999995232,8093,VNB,A,11
0,prac,2,0.0,1-Back,,,Thu Jan 22 2026 09:29:17 GMT-0600 (Central Standard Time),221346.39999997616,124_o_f_d_a.png,I,a,6882,1,1,2771.600000023842,218574.79999995232,8093,VNB,A,0
0,prac,2,0.0,1-Back,0.0,m,Thu Jan 22 2026 09:29:17 GMT-0600 (Central Standard Time),234118.29999995232,071_y_f_n_a.png,I,None,2011,2,1,2830.5,231287.79999995232,8093,VNB,A,1
1,prac,2,0.0,1-Back,1.0,m,Thu Jan 22 2026 09:29:17 GMT-0600 (Central Standard Time),236325.0,165_m_m_h_a.png,I,m,1395,3,1,2194.0,234131.0,8093,VNB,A,2
2,prac,2,0.0,1-Back,1.0,m,Thu Jan 22 2026 09:29:17 GMT-0600 (Central Standard Time),238540.79999995232,109_y_m_d_a.png,I,m,1432,4,1,2204.6999999284744,236336.10000002384,8093,VNB,A,3
3,prac,2,0.0,1-Back,1.0,m,Thu Jan 22 2026 09:29:17 GMT-0600 (Central Standard Time),240507.0,124_o_f_n_a.png,I,m,1120,5,1,1955.7000000476837,238551.29999995232,8093,VNB,A,4
3,prac,2,1.0,1-Back,0.0,z,Thu Jan 22 2026 09:29:17 GMT-0600 (Central Standard Time),242739.60000002384,109_y_m_n_a.png,I,m,1417,6,1,2221.0,240518.60000002384,8093,VNB,A,5
4,prac,2,0.0,1-Back,1.0,m,Thu Jan 22 2026 09:29:17 GMT-0600 (Central Standard Time),244622.19999992847,039_o_m_h_a.png,I,m,1064,7,1,1871.1999999284744,242751.0,8093,VNB,A,6
5,prac,2,0.0,1-Back,1.0,m,Thu Jan 22 2026 09:29:17 GMT-0600 (Central Standard Time),246621.69999992847,139_m_f_d_a.png,I,m,1181,8,1,1988.8999999761581,244632.79999995232,8093,VNB,A,7
5,prac,2,1.0,1-Back,0.0,z,Thu Jan 22 2026 09:29:17 GMT-0600 (Central Standard Time),248604.29999995232,071_y_f_d_a.png,I,m,1167,9,1,1971.7999999523163,246632.5,8093,VNB,A,8
6,prac,2,0.0,1-Back,1.0,m,Thu Jan 22 2026 09:29:17 GMT-0600 (Central Standard Time),251070.19999992847,165_m_m_n_a.png,I,m,1656,10,1,2455.1999999284744,248615.0,8093,VNB,A,9
7,prac,2,0.0,1-Back,1.0,m,Thu Jan 22 2026 09:29:17 GMT-0600 (Central Standard Time),252903.29999995232,124_o_f_h_a.png,I,m,1012,11,1,1822.1999999284744,251081.10000002384,8093,VNB,A,10
8,prac,2,0.0,1-Back,1.0,m,Thu Jan 22 2026 09:29:17 GMT-0600 (Central Standard Time),254602.60000002384,109_y_m_d_a.png,I,m,917,12,1,1688.3000000715256,252914.29999995232,8093,VNB,A,11
0,test,1,0.0,1-Back,,,Thu Jan 22 2026 09:29:17 GMT-0600 (Central Standard Time),254602.60000002384,071_y_f_d_a.png,I,space,27133,1,1,1688.3000000715256,252914.29999995232,8093,VNB,A,0
0,test,1,0.0,1-Back,0.0,m,Thu Jan 22 2026 09:29:17 GMT-0600 (Central Standard Time),303170.60000002384,139_m_f_n_a.png,I,None,2015,2,1,3021.2000000476837,300149.39999997616,8093,VNB,A,1
0,test,1,0.0,1-Back,0.0,m,Thu Jan 22 2026 09:29:17 GMT-0600 (Central Standard Time),306202.89999997616,039_o_m_h_a.png,I,None,2016,3,1,3022.2999999523163,303180.60000002384,8093,VNB,A,2
1,test,1,1.0,1-Back,1.0,z,Thu Jan 22 2026 09:29:17 GMT-0600 (Central Standard Time),308269.1999999285,165_m_m_h_a.png,I,z,1037,4,1,2056.5999999046326,306212.60000002384,8093,VNB,A,3
2,test,1,0.0,1-Back,1.0,m,Thu Jan 22 2026 09:29:17 GMT-0600 (Central Standard Time),310651.5,124_o_f_n_a.png,I,m,1355,5,1,2372.5,308279.0,8093,VNB,A,4
3,test,1,0.0,1-Back,1.0,m,Thu Jan 22 2026 09:29:17 GMT-0600 (Central Standard Time),312884.1999999285,109_y_m_d_a.png,I,m,1196,6,1,2214.899999976158,310669.2999999523,8093,VNB,A,5
4,test,1,1.0,1-Back,1.0,z,Thu Jan 22 2026 09:29:17 GMT-0600 (Central Standard Time),314901.5,139_m_f_d_a.png,I,z,988,7,1,2007.5,312894.0,8093,VNB,A,6
4,test,1,0.0,1-Back,0.0,m,Thu Jan 22 2026 09:29:17 GMT-0600 (Central Standard Time),317516.2999999523,071_y_f_h_a.png,I,z,1595,8,1,2605.0,314911.2999999523,8093,VNB,A,7
5,test,1,0.0,1-Back,1.0,m,Thu Jan 22 2026 09:29:17 GMT-0600 (Central Standard Time),319565.60000002384,039_o_m_n_a.png,I,m,1019,9,1,2039.7000000476837,317525.89999997616,8093,VNB,A,8
5,test,1,0.0,1-Back,0.0,m,Thu Jan 22 2026 09:29:17 GMT-0600 (Central Standard Time),321831.39999997616,109_y_m_h_a.png,I,z,1233,10,1,2255.899999976158,319575.5,8093,VNB,A,9
6,test,1,0.0,1-Back,1.0,m,Thu Jan 22 2026 09:29:17 GMT-0600 (Central Standard Time),323897.39999997616,039_o_m_d_a.png,I,m,1048,11,1,2055.899999976158,321841.5,8093,VNB,A,10
7,test,1,1.0,1-Back,1.0,z,Thu Jan 22 2026 09:29:17 GMT-0600 (Central Standard Time),325896.89999997616,124_o_f_d_a.png,I,z,983,12,1,1990.0,323906.89999997616,8093,VNB,A,11
8,test,1,0.0,1-Back,1.0,m,Thu Jan 22 2026 09:29:17 GMT-0600 (Central Standard Time),327929.7999999523,165_m_m_n_a.png,I,m,999,13,1,2022.6999999284744,325907.10000002384,8093,VNB,A,12
9,test,1,1.0,1-Back,1.0,z,Thu Jan 22 2026 09:29:17 GMT-0600 (Central Standard Time),330045.5,071_y_f_n_a.png,I,z,1086,14,1,2105.100000023842,327940.39999997616,8093,VNB,A,13
9,test,1,0.0,1-Back,0.0,m,Thu Jan 22 2026 09:29:17 GMT-0600 (Central Standard Time),332195.0,139_m_f_h_a.png,I,z,1131,15,1,2139.7000000476837,330055.2999999523,8093,VNB,A,14
10,test,1,0.0,1-Back,1.0,m,Thu Jan 22 2026 09:29:17 GMT-0600 (Central Standard Time),334327.60000002384,165_m_m_d_a.png,I,m,1101,16,1,2122.600000023842,332205.0,8093,VNB,A,15
11,test,1,0.0,1-Back,1.0,m,Thu Jan 22 2026 09:29:17 GMT-0600 (Central Standard Time),336843.5,109_y_m_n_a.png,I,m,1497,17,1,2506.0,334337.5,8093,VNB,A,16
12,test,1,0.0,1-Back,1.0,m,Thu Jan 22 2026 09:29:17 GMT-0600 (Central Standard Time),339325.6999999285,124_o_f_h_a.png,I,m,1461,18,1,2472.6999999284744,336853.0,8093,VNB,A,17
0,test,2,0.0,1-Back,,,Thu Jan 22 2026 09:29:17 GMT-0600 (Central Standard Time),339325.6999999285,109_y_m_n_a.png,I,space,1186,1,1,2472.6999999284744,336853.0,8093,VNB,A,0
1,test,2,0.0,1-Back,1.0,m,Thu Jan 22 2026 09:29:17 GMT-0600 (Central Standard Time),345107.6999999285,071_y_f_h_a.png,I,m,1538,2,1,2556.1999999284744,342551.5,8093,VNB,A,1
2,test,2,1.0,1-Back,1.0,m,Thu Jan 22 2026 09:29:17 GMT-0600 (Central Standard Time),347190.5,039_o_m_n_a.png,I,m,1053,3,1,2072.600000023842,345117.89999997616,8093,VNB,A,2
3,test,2,0.0,1-Back,1.0,m,Thu Jan 22 2026 09:29:17 GMT-0600 (Central Standard Time),349756.2999999523,139_m_f_d_a.png,I,m,1546,4,1,2556.0,347200.2999999523,8093,VNB,A,3
4,test,2,0.0,1-Back,1.0,z,Thu Jan 22 2026 09:29:17 GMT-0600 (Central Standard Time),351959.5,165_m_m_d_a.png,I,z,1169,5,1,2193.8000000715256,349765.6999999285,8093,VNB,A,4
5,test,2,0.0,1-Back,1.0,m,Thu Jan 22 2026 09:29:17 GMT-0600 (Central Standard Time),354288.89999997616,109_y_m_h_a.png,I,m,1317,6,1,2318.100000023842,351970.7999999523,8093,VNB,A,5
6,test,2,1.0,1-Back,1.0,z,Thu Jan 22 2026 09:29:17 GMT-0600 (Central Standard Time),356353.7999999523,124_o_f_h_a.png,I,z,1048,7,1,2055.1999999284744,354298.60000002384,8093,VNB,A,6
7,test,2,0.0,1-Back,1.0,m,Thu Jan 22 2026 09:29:17 GMT-0600 (Central Standard Time),358353.39999997616,139_m_f_n_a.png,I,m,966,8,1,1989.8999999761581,356363.5,8093,VNB,A,7
8,test,2,0.0,1-Back,1.0,m,Thu Jan 22 2026 09:29:17 GMT-0600 (Central Standard Time),360652.6999999285,071_y_f_d_a.png,I,m,1279,9,1,2288.6999999284744,358364.0,8093,VNB,A,8
9,test,2,0.0,1-Back,1.0,m,Thu Jan 22 2026 09:29:17 GMT-0600 (Central Standard Time),362718.60000002384,165_m_m_n_a.png,I,m,1044,10,1,2055.2000000476837,360663.39999997616,8093,VNB,A,9
10,test,2,1.0,1-Back,1.0,m,Thu Jan 22 2026 09:29:17 GMT-0600 (Central Standard Time),365501.1999999285,139_m_f_h_a.png,I,m,1761,11,1,2772.0,362729.1999999285,8093,VNB,A,10
11,test,2,0.0,1-Back,1.0,z,Thu Jan 22 2026 09:29:17 GMT-0600 (Central Standard Time),367617.10000002384,039_o_m_h_a.png,I,z,1083,12,1,2106.0,365511.10000002384,8093,VNB,A,11
12,test,2,0.0,1-Back,1.0,m,Thu Jan 22 2026 09:29:17 GMT-0600 (Central Standard Time),369866.6999999285,109_y_m_d_a.png,I,m,1223,13,1,2238.7999999523163,367627.89999997616,8093,VNB,A,12
13,test,2,0.0,1-Back,1.0,m,Thu Jan 22 2026 09:29:17 GMT-0600 (Central Standard Time),371849.10000002384,124_o_f_n_a.png,I,m,966,14,1,1972.5,369876.60000002384,8093,VNB,A,13
13,test,2,0.0,1-Back,0.0,z,Thu Jan 22 2026 09:29:17 GMT-0600 (Central Standard Time),373848.39999997616,071_y_f_n_a.png,I,m,966,15,1,1989.7000000476837,371858.6999999285,8093,VNB,A,14
14,test,2,1.0,1-Back,1.0,m,Thu Jan 22 2026 09:29:17 GMT-0600 (Central Standard Time),376797.6999999285,165_m_m_h_a.png,I,m,1920,16,1,2940.0,373857.6999999285,8093,VNB,A,15
14,test,2,0.0,1-Back,0.0,m,Thu Jan 22 2026 09:29:17 GMT-0600 (Central Standard Time),379830.10000002384,124_o_f_d_a.png,I,None,2016,17,1,3022.7000000476837,376807.39999997616,8093,VNB,A,16
14,test,2,1.0,1-Back,0.0,z,Thu Jan 22 2026 09:29:17 GMT-0600 (Central Standard Time),382379.0,039_o_m_d_a.png,I,m,1522,18,1,2538.8000000715256,379840.1999999285,8093,VNB,A,17
0,test,3,1.0,1-Back,,,Thu Jan 22 2026 09:29:17 GMT-0600 (Central Standard Time),382379.0,124_o_f_h_a.png,I,space,4852,1,1,2538.8000000715256,379840.1999999285,8093,VNB,A,0
1,test,3,0.0,1-Back,1.0,m,Thu Jan 22 2026 09:29:17 GMT-0600 (Central Standard Time),391543.1999999285,139_m_f_d_a.png,I,m,1210,2,1,2222.2999999523163,389320.89999997616,8093,VNB,A,1
1,test,3,1.0,1-Back,0.0,m,Thu Jan 22 2026 09:29:17 GMT-0600 (Central Standard Time),394575.89999997616,165_m_m_n_a.png,I,None,2016,3,1,3023.0,391552.89999997616,8093,VNB,A,2
2,test,3,0.0,1-Back,1.0,z,Thu Jan 22 2026 09:29:17 GMT-0600 (Central Standard Time),397441.0,124_o_f_n_a.png,I,z,1849,4,1,2855.100000023842,394585.89999997616,8093,VNB,A,3
2,test,3,1.0,1-Back,0.0,m,Thu Jan 22 2026 09:29:17 GMT-0600 (Central Standard Time),400490.10000002384,039_o_m_d_a.png,I,None,2015,5,1,3031.9000000953674,397458.1999999285,8093,VNB,A,4
3,test,3,0.0,1-Back,1.0,m,Thu Jan 22 2026 09:29:17 GMT-0600 (Central Standard Time),402839.5,071_y_f_h_a.png,I,m,1325,6,1,2339.100000023842,400500.39999997616,8093,VNB,A,5
4,test,3,0.0,1-Back,1.0,z,Thu Jan 22 2026 09:29:17 GMT-0600 (Central Standard Time),404622.1999999285,109_y_m_h_a.png,I,z,761,7,1,1772.7999999523163,402849.39999997616,8093,VNB,A,6
5,test,3,0.0,1-Back,1.0,m,Thu Jan 22 2026 09:29:17 GMT-0600 (Central Standard Time),406471.6999999285,139_m_f_n_a.png,I,m,826,8,1,1839.0999999046326,404632.60000002384,8093,VNB,A,7
6,test,3,0.0,1-Back,1.0,m,Thu Jan 22 2026 09:29:17 GMT-0600 (Central Standard Time),408354.1999999285,071_y_f_d_a.png,I,m,864,9,1,1867.8999999761581,406486.2999999523,8093,VNB,A,8
7,test,3,1.0,1-Back,1.0,m,Thu Jan 22 2026 09:29:17 GMT-0600 (Central Standard Time),410703.5,039_o_m_n_a.png,I,m,1317,10,1,2339.399999976158,408364.10000002384,8093,VNB,A,9
7,test,3,0.0,1-Back,0.0,m,Thu Jan 22 2026 09:29:17 GMT-0600 (Central Standard Time),413153.0,165_m_m_h_a.png,I,z,1424,11,1,2439.3000000715256,410713.6999999285,8093,VNB,A,10
8,test,3,0.0,1-Back,1.0,z,Thu Jan 22 2026 09:29:17 GMT-0600 (Central Standard Time),414902.39999997616,139_m_f_h_a.png,I,z,718,12,1,1739.5,413162.89999997616,8093,VNB,A,11
9,test,3,1.0,1-Back,1.0,m,Thu Jan 22 2026 09:29:17 GMT-0600 (Central Standard Time),416901.6999999285,124_o_f_d_a.png,I,m,969,13,1,1989.1999999284744,414912.5,8093,VNB,A,12
10,test,3,0.0,1-Back,1.0,z,Thu Jan 22 2026 09:29:17 GMT-0600 (Central Standard Time),418951.0,165_m_m_d_a.png,I,z,1018,14,1,2039.3000000715256,416911.6999999285,8093,VNB,A,13
11,test,3,0.0,1-Back,1.0,m,Thu Jan 22 2026 09:29:17 GMT-0600 (Central Standard Time),420734.2999999523,109_y_m_n_a.png,I,m,753,15,1,1773.6000000238419,418960.6999999285,8093,VNB,A,14
12,test,3,1.0,1-Back,1.0,m,Thu Jan 22 2026 09:29:17 GMT-0600 (Central Standard Time),422800.5,039_o_m_h_a.png,I,m,1042,16,1,2056.100000023842,420744.39999997616,8093,VNB,A,15
13,test,3,0.0,1-Back,1.0,m,Thu Jan 22 2026 09:29:17 GMT-0600 (Central Standard Time),424549.5,109_y_m_d_a.png,I,m,727,17,1,1739.5,422810.0,8093,VNB,A,16
14,test,3,1.0,1-Back,1.0,m,Thu Jan 22 2026 09:29:17 GMT-0600 (Central Standard Time),427014.89999997616,071_y_f_n_a.png,I,m,1434,18,1,2455.7000000476837,424559.1999999285,8093,VNB,A,17
0,test,4,1.0,1-Back,,,Thu Jan 22 2026 09:29:17 GMT-0600 (Central Standard Time),427014.89999997616,165_m_m_d_a.png,I,space,914,1,1,2455.7000000476837,424559.1999999285,8093,VNB,A,0
0,test,4,0.0,1-Back,0.0,z,Thu Jan 22 2026 09:29:17 GMT-0600 (Central Standard Time),431647.1999999285,039_o_m_d_a.png,I,m,677,2,1,1689.5999999046326,429957.60000002384,8093,VNB,A,1
1,test,4,0.0,1-Back,1.0,m,Thu Jan 22 2026 09:29:17 GMT-0600 (Central Standard Time),433863.10000002384,109_y_m_h_a.png,I,m,1192,3,1,2206.2000000476837,431656.89999997616,8093,VNB,A,2
1,test,4,0.0,1-Back,0.0,m,Thu Jan 22 2026 09:29:17 GMT-0600 (Central Standard Time),436895.7999999523,139_m_f_n_a.png,I,None,2016,4,1,3022.1999999284744,433873.60000002384,8093,VNB,A,3
2,test,4,1.0,1-Back,1.0,m,Thu Jan 22 2026 09:29:17 GMT-0600 (Central Standard Time),439211.6999999285,124_o_f_h_a.png,I,m,1288,5,1,2306.0999999046326,436905.60000002384,8093,VNB,A,4
3,test,4,0.0,1-Back,1.0,m,Thu Jan 22 2026 09:29:17 GMT-0600 (Central Standard Time),441027.60000002384,165_m_m_n_a.png,I,m,789,6,1,1806.1000000238419,439221.5,8093,VNB,A,5
4,test,4,0.0,1-Back,1.0,m,Thu Jan 22 2026 09:29:17 GMT-0600 (Central Standard Time),443260.1999999285,109_y_m_d_a.png,I,m,1205,7,1,2222.1999999284744,441038.0,8093,VNB,A,6
5,test,4,1.0,1-Back,1.0,z,Thu Jan 22 2026 09:29:17 GMT-0600 (Central Standard Time),445309.39999997616,071_y_f_d_a.png,I,z,1019,8,1,2037.2999999523163,443272.10000002384,8093,VNB,A,7
6,test,4,0.0,1-Back,1.0,m,Thu Jan 22 2026 09:29:17 GMT-0600 (Central Standard Time),447159.0,139_m_f_h_a.png,I,m,827,9,1,1839.8000000715256,445319.1999999285,8093,VNB,A,8
7,test,4,0.0,1-Back,1.0,z,Thu Jan 22 2026 09:29:17 GMT-0600 (Central Standard Time),449125.0,039_o_m_h_a.png,I,z,946,10,1,1956.6000000238419,447168.39999997616,8093,VNB,A,9
8,test,4,1.0,1-Back,1.0,m,Thu Jan 22 2026 09:29:17 GMT-0600 (Central Standard Time),450824.6999999285,124_o_f_n_a.png,I,m,674,11,1,1689.8999999761581,449134.7999999523,8093,VNB,A,10
9,test,4,0.0,1-Back,1.0,m,Thu Jan 22 2026 09:29:17 GMT-0600 (Central Standard Time),452940.5,139_m_f_d_a.png,I,m,1087,12,1,2105.8000000715256,450834.6999999285,8093,VNB,A,11
10,test,4,0.0,1-Back,1.0,m,Thu Jan 22 2026 09:29:17 GMT-0600 (Central Standard Time),455423.0,071_y_f_n_a.png,I,m,1452,13,1,2472.600000023842,452950.39999997616,8093,VNB,A,12
11,test,4,0.0,1-Back,1.0,m,Thu Jan 22 2026 09:29:17 GMT-0600 (Central Standard Time),457955.7999999523,124_o_f_d_a.png,I,m,1505,14,1,2522.6999999284744,455433.10000002384,8093,VNB,A,13
12,test,4,0.0,1-Back,1.0,m,Thu Jan 22 2026 09:29:17 GMT-0600 (Central Standard Time),460371.60000002384,071_y_f_h_a.png,I,m,1397,15,1,2405.8000000715256,457965.7999999523,8093,VNB,A,14
13,test,4,1.0,1-Back,1.0,z,Thu Jan 22 2026 09:29:17 GMT-0600 (Central Standard Time),462354.2999999523,165_m_m_h_a.png,I,z,956,16,1,1972.5,460381.7999999523,8093,VNB,A,15
14,test,4,0.0,1-Back,1.0,m,Thu Jan 22 2026 09:29:17 GMT-0600 (Central Standard Time),464486.6999999285,039_o_m_n_a.png,I,m,1100,17,1,2121.7999999523163,462364.89999997616,8093,VNB,A,16
15,test,4,1.0,1-Back,1.0,z,Thu Jan 22 2026 09:29:17 GMT-0600 (Central Standard Time),466736.39999997616,109_y_m_n_a.png,I,z,1216,18,1,2239.2000000476837,464497.1999999285,8093,VNB,A,17
0,test,5,1.0,1-Back,,,Thu Jan 22 2026 09:29:17 GMT-0600 (Central Standard Time),466736.39999997616,039_o_m_n_a.png,I,space,4111,1,1,2239.2000000476837,464497.1999999285,8093,VNB,A,0
1,test,5,1.0,1-Back,1.0,m,Thu Jan 22 2026 09:29:17 GMT-0600 (Central Standard Time),475100.39999997616,124_o_f_h_a.png,I,m,1213,2,1,2223.100000023842,472877.2999999523,8093,VNB,A,1
2,test,5,0.0,1-Back,1.0,m,Thu Jan 22 2026 09:29:17 GMT-0600 (Central Standard Time),477183.0,109_y_m_d_a.png,I,m,1060,3,1,2072.399999976158,475110.60000002384,8093,VNB,A,2
3,test,5,0.0,1-Back,1.0,z,Thu Jan 22 2026 09:29:17 GMT-0600 (Central Standard Time),479032.1999999285,039_o_m_d_a.png,I,z,816,4,1,1839.1999999284744,477193.0,8093,VNB,A,3
4,test,5,0.0,1-Back,1.0,m,Thu Jan 22 2026 09:29:17 GMT-0600 (Central Standard Time),481131.7999999523,139_m_f_h_a.png,I,m,1080,5,1,2089.6999999284744,479042.10000002384,8093,VNB,A,4
5,test,5,0.0,1-Back,1.0,m,Thu Jan 22 2026 09:29:17 GMT-0600 (Central Standard Time),483114.39999997616,071_y_f_n_a.png,I,m,957,6,1,1972.2999999523163,481142.10000002384,8093,VNB,A,5
6,test,5,1.0,1-Back,1.0,z,Thu Jan 22 2026 09:29:17 GMT-0600 (Central Standard Time),485180.39999997616,124_o_f_n_a.png,I,z,1020,7,1,2049.2000000476837,483131.1999999285,8093,VNB,A,6
7,test,5,0.0,1-Back,1.0,m,Thu Jan 22 2026 09:29:17 GMT-0600 (Central Standard Time),487096.6999999285,139_m_f_d_a.png,I,m,892,8,1,1906.0,485190.6999999285,8093,VNB,A,7
8,test,5,0.0,1-Back,1.0,m,Thu Jan 22 2026 09:29:17 GMT-0600 (Central Standard Time),489045.89999997616,109_y_m_h_a.png,I,m,928,9,1,1938.8999999761581,487107.0,8093,VNB,A,8
9,test,5,0.0,1-Back,1.0,m,Thu Jan 22 2026 09:29:17 GMT-0600 (Central Standard Time),491211.89999997616,071_y_f_d_a.png,I,m,1139,10,1,2155.7999999523163,489056.10000002384,8093,VNB,A,9
10,test,5,0.0,1-Back,1.0,m,Thu Jan 22 2026 09:29:17 GMT-0600 (Central Standard Time),493398.60000002384,165_m_m_n_a.png,I,m,1169,11,1,2176.7000000476837,491221.89999997616,8093,VNB,A,10
11,test,5,1.0,1-Back,1.0,z,Thu Jan 22 2026 09:29:17 GMT-0600 (Central Standard Time),495377.1999999285,139_m_f_n_a.png,I,z,933,12,1,1965.5,493411.6999999285,8093,VNB,A,11
12,test,5,0.0,1-Back,1.0,m,Thu Jan 22 2026 09:29:17 GMT-0600 (Central Standard Time),497693.10000002384,039_o_m_h_a.png,I,m,1287,13,1,2305.2000000476837,495387.89999997616,8093,VNB,A,12
13,test,5,0.0,1-Back,1.0,z,Thu Jan 22 2026 09:29:17 GMT-0600 (Central Standard Time),499575.7999999523,165_m_m_h_a.png,I,z,850,14,1,1872.2999999523163,497703.5,8093,VNB,A,13
14,test,5,1.0,1-Back,1.0,m,Thu Jan 22 2026 09:29:17 GMT-0600 (Central Standard Time),501558.7999999523,124_o_f_d_a.png,I,m,959,15,1,1972.6999999284744,499586.10000002384,8093,VNB,A,14
15,test,5,0.0,1-Back,1.0,m,Thu Jan 22 2026 09:29:17 GMT-0600 (Central Standard Time),503941.2999999523,109_y_m_n_a.png,I,m,1354,16,1,2372.1999999284744,501569.10000002384,8093,VNB,A,15
15,test,5,0.0,1-Back,0.0,m,Thu Jan 22 2026 09:29:17 GMT-0600 (Central Standard Time),506107.10000002384,071_y_f_h_a.png,I,z,1139,17,1,2155.3000000715256,503951.7999999523,8093,VNB,A,16
16,test,5,0.0,1-Back,1.0,m,Thu Jan 22 2026 09:29:17 GMT-0600 (Central Standard Time),508139.89999997616,165_m_m_d_a.png,I,m,1005,18,1,2022.2999999523163,506117.60000002384,8093,VNB,A,17
0,prac,1,0.0,2-Back,,,Thu Jan 22 2026 09:29:17 GMT-0600 (Central Standard Time),508139.89999997616,139_m_f_n_a.png,I,space,15227,1,1,2022.2999999523163,506117.60000002384,8093,VNB,A,0
0,prac,1,0.0,2-Back,,,Thu Jan 22 2026 09:29:17 GMT-0600 (Central Standard Time),508139.89999997616,124_o_f_h_a.png,I,space,15227,2,1,2022.2999999523163,506117.60000002384,8093,VNB,A,0
1,prac,1,0.0,2-Back,1.0,m,Thu Jan 22 2026 09:29:17 GMT-0600 (Central Standard Time),635450.1999999285,039_o_m_d_a.png,I,m,1717,3,1,2504.5999999046326,632945.6000000238,8093,VNB,A,1
1,prac,1,1.0,2-Back,0.0,z,Thu Jan 22 2026 09:29:17 GMT-0600 (Central Standard Time),638266.1999999285,165_m_m_h_a.png,I,None,2013,4,1,2804.5999999046326,635461.6000000238,8093,VNB,A,2
1,prac,1,0.0,2-Back,0.0,m,Thu Jan 22 2026 09:29:17 GMT-0600 (Central Standard Time),641081.5,071_y_f_n_a.png,I,None,2011,5,1,2804.100000023842,638277.3999999762,8093,VNB,A,3
1,prac,1,1.0,2-Back,0.0,z,Thu Jan 22 2026 09:29:17 GMT-0600 (Central Standard Time),643864.3999999762,039_o_m_h_a.png,I,None,2005,6,1,2771.399999976158,641093.0,8093,VNB,A,4
1,prac,1,1.0,2-Back,0.0,z,Thu Jan 22 2026 09:29:17 GMT-0600 (Central Standard Time),645947.0,109_y_m_n_a.png,I,m,1259,7,1,2071.399999976158,643875.6000000238,8093,VNB,A,5
2,prac,1,0.0,2-Back,1.0,m,Thu Jan 22 2026 09:29:17 GMT-0600 (Central Standard Time),647929.7999999523,139_m_f_d_a.png,I,m,1167,8,1,1971.3999999761581,645958.3999999762,8093,VNB,A,6
2,prac,1,0.0,2-Back,0.0,m,Thu Jan 22 2026 09:29:17 GMT-0600 (Central Standard Time),649895.6999999285,124_o_f_d_a.png,I,z,1123,9,1,1954.5,647941.1999999285,8093,VNB,A,7
3,prac,1,0.0,2-Back,1.0,m,Thu Jan 22 2026 09:29:17 GMT-0600 (Central Standard Time),651578.6000000238,165_m_m_h_a.png,I,m,894,10,1,1671.8000000715256,649906.7999999523,8093,VNB,A,8
3,prac,1,1.0,2-Back,0.0,z,Thu Jan 22 2026 09:29:17 GMT-0600 (Central Standard Time),653394.6999999285,071_y_f_d_a.png,I,m,1002,11,1,1804.5,651590.1999999285,8093,VNB,A,9
4,prac,1,0.0,2-Back,1.0,m,Thu Jan 22 2026 09:29:17 GMT-0600 (Central Standard Time),655127.3999999762,039_o_m_n_a.png,I,m,915,12,1,1721.3999999761581,653406.0,8093,VNB,A,10
0,test,1,0.0,2-Back,,,Thu Jan 22 2026 09:29:17 GMT-0600 (Central Standard Time),655127.3999999762,109_y_m_h_a.png,I,space,13138,1,1,1721.3999999761581,653406.0,8093,VNB,A,0
0,test,1,0.0,2-Back,,,Thu Jan 22 2026 09:29:17 GMT-0600 (Central Standard Time),655127.3999999762,124_o_f_n_a.png,I,space,13138,2,1,1721.3999999761581,653406.0,8093,VNB,A,0
1,test,1,0.0,2-Back,1.0,z,Thu Jan 22 2026 09:29:17 GMT-0600 (Central Standard Time),685717.6000000238,039_o_m_h_a.png,I,z,610,3,1,1623.2000000476837,684094.3999999762,8093,VNB,A,1
2,test,1,0.0,2-Back,1.0,m,Thu Jan 22 2026 09:29:17 GMT-0600 (Central Standard Time),687734.0,139_m_f_d_a.png,I,m,993,4,1,2005.8999999761581,685728.1000000238,8093,VNB,A,2
2,test,1,1.0,2-Back,0.0,m,Thu Jan 22 2026 09:29:17 GMT-0600 (Central Standard Time),690099.7999999523,109_y_m_n_a.png,I,z,1339,5,1,2355.7999999523163,687744.0,8093,VNB,A,3
3,test,1,0.0,2-Back,1.0,z,Thu Jan 22 2026 09:29:17 GMT-0600 (Central Standard Time),692249.1999999285,071_y_f_d_a.png,I,z,1117,6,1,2138.6999999284744,690110.5,8093,VNB,A,4
3,test,1,0.0,2-Back,0.0,m,Thu Jan 22 2026 09:29:17 GMT-0600 (Central Standard Time),695031.6000000238,165_m_m_h_a.png,I,z,1750,7,1,2771.4000000953674,692260.1999999285,8093,VNB,A,5
3,test,1,1.0,2-Back,0.0,m,Thu Jan 22 2026 09:29:17 GMT-0600 (Central Standard Time),698064.0,071_y_f_n_a.png,I,None,2016,8,1,3022.5,695041.5,8093,VNB,A,6
4,test,1,0.0,2-Back,1.0,z,Thu Jan 22 2026 09:29:17 GMT-0600 (Central Standard Time),700596.3999999762,124_o_f_h_a.png,I,z,1505,9,1,2522.899999976158,698073.5,8093,VNB,A,7
4,test,1,0.0,2-Back,0.0,m,Thu Jan 22 2026 09:29:17 GMT-0600 (Central Standard Time),703628.7999999523,039_o_m_d_a.png,I,None,2016,10,1,3022.2999999523163,700606.5,8093,VNB,A,8
5,test,1,1.0,2-Back,1.0,m,Thu Jan 22 2026 09:29:17 GMT-0600 (Central Standard Time),706377.6999999285,165_m_m_d_a.png,I,m,1731,11,1,2738.399999976158,703639.2999999523,8093,VNB,A,9
5,test,1,0.0,2-Back,0.0,m,Thu Jan 22 2026 09:29:17 GMT-0600 (Central Standard Time),708710.2999999523,139_m_f_n_a.png,I,z,1301,12,1,2322.5,706387.7999999523,8093,VNB,A,10
5,test,1,0.0,2-Back,0.0,m,Thu Jan 22 2026 09:29:17 GMT-0600 (Central Standard Time),711393.1999999285,071_y_f_h_a.png,I,z,1650,13,1,2671.899999976158,708721.2999999523,8093,VNB,A,11
5,test,1,0.0,2-Back,0.0,z,Thu Jan 22 2026 09:29:17 GMT-0600 (Central Standard Time),714009.0,165_m_m_n_a.png,I,m,1599,14,1,2605.7000000476837,711403.2999999523,8093,VNB,A,12
5,test,1,0.0,2-Back,0.0,m,Thu Jan 22 2026 09:29:17 GMT-0600 (Central Standard Time),717041.2999999523,109_y_m_d_a.png,I,None,2015,15,1,3022.0,714019.2999999523,8093,VNB,A,13
5,test,1,1.0,2-Back,0.0,m,Thu Jan 22 2026 09:29:17 GMT-0600 (Central Standard Time),718857.1999999285,139_m_f_h_a.png,I,z,799,16,1,1805.7999999523163,717051.3999999762,8093,VNB,A,14
5,test,1,0.0,2-Back,0.0,z,Thu Jan 22 2026 09:29:17 GMT-0600 (Central Standard Time),721856.3999999762,124_o_f_d_a.png,I,m,1975,17,1,2989.2999999523163,718867.1000000238,8093,VNB,A,15
6,test,1,0.0,2-Back,1.0,m,Thu Jan 22 2026 09:29:17 GMT-0600 (Central Standard Time),724472.1999999285,039_o_m_n_a.png,I,m,1592,18,1,2605.6999999284744,721866.5,8093,VNB,A,16
0,test,2,0.0,2-Back,,,Thu Jan 22 2026 09:29:17 GMT-0600 (Central Standard Time),724472.1999999285,165_m_m_h_a.png,I,space,1160,1,1,2605.6999999284744,721866.5,8093,VNB,A,0
0,test,2,0.0,2-Back,,,Thu Jan 22 2026 09:29:17 GMT-0600 (Central Standard Time),724472.1999999285,071_y_f_n_a.png,I,space,1160,2,1,2605.6999999284744,721866.5,8093,VNB,A,0
1,test,2,1.0,2-Back,1.0,z,Thu Jan 22 2026 09:29:17 GMT-0600 (Central Standard Time),732703.1999999285,124_o_f_h_a.png,I,z,927,3,1,1939.6999999284744,730763.5,8093,VNB,A,1
2,test,2,0.0,2-Back,1.0,m,Thu Jan 22 2026 09:29:17 GMT-0600 (Central Standard Time),734952.3999999762,039_o_m_d_a.png,I,m,1215,4,1,2239.100000023842,732713.2999999523,8093,VNB,A,2
2,test,2,0.0,2-Back,0.0,m,Thu Jan 22 2026 09:29:17 GMT-0600 (Central Standard Time),737851.6999999285,139_m_f_d_a.png,I,z,1872,5,1,2889.0,734962.6999999285,8093,VNB,A,3
3,test,2,0.0,2-Back,1.0,m,Thu Jan 22 2026 09:29:17 GMT-0600 (Central Standard Time),740384.1999999285,109_y_m_h_a.png,I,m,1509,6,1,2522.0999999046326,737862.1000000238,8093,VNB,A,4
4,test,2,0.0,2-Back,1.0,m,Thu Jan 22 2026 09:29:17 GMT-0600 (Central Standard Time),742883.1999999285,124_o_f_n_a.png,I,m,1472,7,1,2488.0999999046326,740395.1000000238,8093,VNB,A,5
5,test,2,1.0,2-Back,1.0,z,Thu Jan 22 2026 09:29:17 GMT-0600 (Central Standard Time),744616.1000000238,039_o_m_h_a.png,I,z,700,8,1,1721.2000000476837,742894.8999999762,8093,VNB,A,6
5,test,2,0.0,2-Back,0.0,m,Thu Jan 22 2026 09:29:17 GMT-0600 (Central Standard Time),747348.5,071_y_f_d_a.png,I,z,1704,9,1,2721.5,744627.0,8093,VNB,A,7
6,test,2,0.0,2-Back,1.0,m,Thu Jan 22 2026 09:29:17 GMT-0600 (Central Standard Time),749847.6000000238,109_y_m_d_a.png,I,m,1476,10,1,2487.9000000953674,747359.6999999285,8093,VNB,A,8
7,test,2,0.0,2-Back,1.0,m,Thu Jan 22 2026 09:29:17 GMT-0600 (Central Standard Time),752346.6000000238,165_m_m_n_a.png,I,m,1481,11,1,2488.4000000953674,749858.1999999285,8093,VNB,A,9
8,test,2,0.0,2-Back,1.0,m,Thu Jan 22 2026 09:29:17 GMT-0600 (Central Standard Time),755262.5,139_m_f_h_a.png,I,m,1884,12,1,2905.600000023842,752356.8999999762,8093,VNB,A,10
8,test,2,1.0,2-Back,0.0,z,Thu Jan 22 2026 09:29:17 GMT-0600 (Central Standard Time),758128.3999999762,039_o_m_n_a.png,I,m,1842,13,1,2855.5,755272.8999999762,8093,VNB,A,11
9,test,2,0.0,2-Back,1.0,m,Thu Jan 22 2026 09:29:17 GMT-0600 (Central Standard Time),760777.2999999523,124_o_f_d_a.png,I,m,1631,14,1,2639.0,758138.2999999523,8093,VNB,A,12
9,test,2,0.0,2-Back,0.0,m,Thu Jan 22 2026 09:29:17 GMT-0600 (Central Standard Time),762760.5,071_y_f_h_a.png,I,z,950,15,1,1973.2000000476837,760787.2999999523,8093,VNB,A,13
9,test,2,0.0,2-Back,0.0,z,Thu Jan 22 2026 09:29:17 GMT-0600 (Central Standard Time),765043.1999999285,165_m_m_d_a.png,I,m,1256,16,1,2273.0,762770.1999999285,8093,VNB,A,14
9,test,2,0.0,2-Back,0.0,m,Thu Jan 22 2026 09:29:17 GMT-0600 (Central Standard Time),767225.7999999523,109_y_m_n_a.png,I,z,1166,17,1,2169.6999999284744,765056.1000000238,8093,VNB,A,15
10,test,2,1.0,2-Back,1.0,m,Thu Jan 22 2026 09:29:17 GMT-0600 (Central Standard Time),770091.1999999285,139_m_f_n_a.png,I,m,1846,18,1,2854.0,767237.1999999285,8093,VNB,A,16
0,test,3,1.0,2-Back,,,Thu Jan 22 2026 09:29:17 GMT-0600 (Central Standard Time),770091.1999999285,039_o_m_n_a.png,I,space,5332,1,1,2854.0,767237.1999999285,8093,VNB,A,0
0,test,3,1.0,2-Back,,,Thu Jan 22 2026 09:29:17 GMT-0600 (Central Standard Time),770091.1999999285,124_o_f_d_a.png,I,space,5332,2,1,2854.0,767237.1999999285,8093,VNB,A,0
1,test,3,0.0,2-Back,1.0,m,Thu Jan 22 2026 09:29:17 GMT-0600 (Central Standard Time),783220.6000000238,071_y_f_h_a.png,I,m,1712,3,1,2722.2000000476837,780498.3999999762,8093,VNB,A,1
2,test,3,0.0,2-Back,1.0,z,Thu Jan 22 2026 09:29:17 GMT-0600 (Central Standard Time),785619.6000000238,139_m_f_d_a.png,I,z,1372,4,1,2388.3000000715256,783231.2999999523,8093,VNB,A,2
2,test,3,1.0,2-Back,0.0,m,Thu Jan 22 2026 09:29:17 GMT-0600 (Central Standard Time),788235.6999999285,109_y_m_n_a.png,I,z,1588,5,1,2605.0999999046326,785630.6000000238,8093,VNB,A,3
3,test,3,0.0,2-Back,1.0,m,Thu Jan 22 2026 09:29:17 GMT-0600 (Central Standard Time),790851.6000000238,039_o_m_h_a.png,I,m,1597,6,1,2605.600000023842,788246.0,8093,VNB,A,4
4,test,3,0.0,2-Back,1.0,z,Thu Jan 22 2026 09:29:17 GMT-0600 (Central Standard Time),792967.2999999523,071_y_f_n_a.png,I,z,1091,7,1,2105.1999999284744,790862.1000000238,8093,VNB,A,5
5,test,3,1.0,2-Back,1.0,m,Thu Jan 22 2026 09:29:17 GMT-0600 (Central Standard Time),795417.0,165_m_m_d_a.png,I,m,1425,8,1,2439.0,792978.0,8093,VNB,A,6
6,test,3,0.0,2-Back,1.0,m,Thu Jan 22 2026 09:29:17 GMT-0600 (Central Standard Time),797816.1000000238,109_y_m_d_a.png,I,m,1376,9,1,2386.7000000476837,795429.3999999762,8093,VNB,A,7
7,test,3,0.0,2-Back,1.0,m,Thu Jan 22 2026 09:29:17 GMT-0600 (Central Standard Time),800432.6999999285,124_o_f_h_a.png,I,m,1583,10,1,2605.6999999284744,797827.0,8093,VNB,A,8
8,test,3,1.0,2-Back,1.0,m,Thu Jan 22 2026 09:29:17 GMT-0600 (Central Standard Time),803314.1000000238,139_m_f_n_a.png,I,m,1865,11,1,2871.2000000476837,800442.8999999762,8093,VNB,A,9
9,test,3,1.0,2-Back,1.0,z,Thu Jan 22 2026 09:29:17 GMT-0600 (Central Standard Time),805796.7999999523,165_m_m_h_a.png,I,z,1462,12,1,2471.2999999523163,803325.5,8093,VNB,A,10
10,test,3,0.0,2-Back,1.0,m,Thu Jan 22 2026 09:29:17 GMT-0600 (Central Standard Time),808312.7999999523,071_y_f_d_a.png,I,m,1492,13,1,2505.399999976158,805807.3999999762,8093,VNB,A,11
11,test,3,0.0,2-Back,1.0,m,Thu Jan 22 2026 09:29:17 GMT-0600 (Central Standard Time),810813.1999999285,124_o_f_n_a.png,I,m,1480,14,1,2489.2999999523163,808323.8999999762,8093,VNB,A,12
11,test,3,0.0,2-Back,0.0,z,Thu Jan 22 2026 09:29:17 GMT-0600 (Central Standard Time),813145.1000000238,039_o_m_d_a.png,I,m,1309,15,1,2320.7000000476837,810824.3999999762,8093,VNB,A,13
11,test,3,1.0,2-Back,0.0,m,Thu Jan 22 2026 09:29:17 GMT-0600 (Central Standard Time),815593.6000000238,139_m_f_h_a.png,I,z,1432,16,1,2437.8000000715256,813155.7999999523,8093,VNB,A,14
11,test,3,0.0,2-Back,0.0,m,Thu Jan 22 2026 09:29:17 GMT-0600 (Central Standard Time),818342.7999999523,165_m_m_n_a.png,I,z,1727,17,1,2738.600000023842,815604.1999999285,8093,VNB,A,15
11,test,3,0.0,2-Back,0.0,z,Thu Jan 22 2026 09:29:17 GMT-0600 (Central Standard Time),820109.0,109_y_m_h_a.png,I,m,737,18,1,1755.0,818354.0,8093,VNB,A,16
0,test,4,0.0,2-Back,,,Thu Jan 22 2026 09:29:17 GMT-0600 (Central Standard Time),820109.0,139_m_f_n_a.png,I,space,1859,1,1,1755.0,818354.0,8093,VNB,A,0
0,test,4,0.0,2-Back,,,Thu Jan 22 2026 09:29:17 GMT-0600 (Central Standard Time),820109.0,039_o_m_n_a.png,I,space,1859,2,1,1755.0,818354.0,8093,VNB,A,0
1,test,4,1.0,2-Back,1.0,m,Thu Jan 22 2026 09:29:17 GMT-0600 (Central Standard Time),829422.8999999762,109_y_m_h_a.png,I,m,1342,3,1,2354.7999999523163,827068.1000000238,8093,VNB,A,1
2,test,4,1.0,2-Back,1.0,m,Thu Jan 22 2026 09:29:17 GMT-0600 (Central Standard Time),832305.2999999523,124_o_f_d_a.png,I,m,1866,4,1,2871.899999976158,829433.3999999762,8093,VNB,A,2
2,test,4,0.0,2-Back,0.0,z,Thu Jan 22 2026 09:29:17 GMT-0600 (Central Standard Time),835104.5,039_o_m_h_a.png,I,m,1766,5,1,2788.8000000715256,832315.6999999285,8093,VNB,A,3
2,test,4,0.0,2-Back,0.0,m,Thu Jan 22 2026 09:29:17 GMT-0600 (Central Standard Time),837753.5,165_m_m_n_a.png,I,z,1623,6,1,2638.399999976158,835115.1000000238,8093,VNB,A,4
3,test,4,0.0,2-Back,1.0,m,Thu Jan 22 2026 09:29:17 GMT-0600 (Central Standard Time),840402.6000000238,139_m_f_d_a.png,I,m,1623,7,1,2638.3000000715256,837764.2999999523,8093,VNB,A,5
3,test,4,0.0,2-Back,0.0,z,Thu Jan 22 2026 09:29:17 GMT-0600 (Central Standard Time),843068.6000000238,071_y_f_n_a.png,I,m,1637,8,1,2655.4000000953674,840413.1999999285,8093,VNB,A,6
4,test,4,1.0,2-Back,1.0,m,Thu Jan 22 2026 09:29:17 GMT-0600 (Central Standard Time),845451.1999999285,124_o_f_h_a.png,I,m,1364,9,1,2371.7999999523163,843079.3999999762,8093,VNB,A,7
5,test,4,0.0,2-Back,1.0,m,Thu Jan 22 2026 09:29:17 GMT-0600 (Central Standard Time),848216.8999999762,165_m_m_h_a.png,I,m,1742,10,1,2755.399999976158,845461.5,8093,VNB,A,8
6,test,4,0.0,2-Back,1.0,m,Thu Jan 22 2026 09:29:17 GMT-0600 (Central Standard Time),851066.2999999523,071_y_f_d_a.png,I,m,1824,11,1,2838.7999999523163,848227.5,8093,VNB,A,9
6,test,4,0.0,2-Back,0.0,m,Thu Jan 22 2026 09:29:17 GMT-0600 (Central Standard Time),853881.8999999762,109_y_m_n_a.png,I,z,1790,12,1,2805.2999999523163,851076.6000000238,8093,VNB,A,10
6,test,4,0.0,2-Back,0.0,z,Thu Jan 22 2026 09:29:17 GMT-0600 (Central Standard Time),856497.2999999523,039_o_m_d_a.png,I,m,1597,13,1,2604.399999976158,853892.8999999762,8093,VNB,A,11
7,test,4,1.0,2-Back,1.0,m,Thu Jan 22 2026 09:29:17 GMT-0600 (Central Standard Time),859346.7999999523,139_m_f_h_a.png,I,m,1831,14,1,2839.100000023842,856507.6999999285,8093,VNB,A,12
8,test,4,1.0,2-Back,1.0,m,Thu Jan 22 2026 09:29:17 GMT-0600 (Central Standard Time),861762.3999999762,071_y_f_h_a.png,I,m,1381,15,1,2398.5,859363.8999999762,8093,VNB,A,13
9,test,4,0.0,2-Back,1.0,m,Thu Jan 22 2026 09:29:17 GMT-0600 (Central Standard Time),864695.1000000238,124_o_f_n_a.png,I,m,1902,16,1,2922.7000000476837,861772.3999999762,8093,VNB,A,14
9,test,4,0.0,2-Back,0.0,m,Thu Jan 22 2026 09:29:17 GMT-0600 (Central Standard Time),867727.7999999523,109_y_m_d_a.png,I,None,2015,17,1,3021.600000023842,864706.1999999285,8093,VNB,A,15
10,test,4,1.0,2-Back,1.0,m,Thu Jan 22 2026 09:29:17 GMT-0600 (Central Standard Time),869994.3999999762,165_m_m_d_a.png,I,m,1248,18,1,2255.899999976158,867738.5,8093,VNB,A,16
0,test,5,1.0,2-Back,,,Thu Jan 22 2026 09:29:17 GMT-0600 (Central Standard Time),869994.3999999762,071_y_f_d_a.png,I,space,1774,1,1,2255.899999976158,867738.5,8093,VNB,A,0
0,test,5,1.0,2-Back,,,Thu Jan 22 2026 09:29:17 GMT-0600 (Central Standard Time),869994.3999999762,124_o_f_h_a.png,I,space,1774,2,1,2255.899999976158,867738.5,8093,VNB,A,0
1,test,5,1.0,2-Back,1.0,z,Thu Jan 22 2026 09:29:17 GMT-0600 (Central Standard Time),878907.1000000238,039_o_m_d_a.png,I,z,1013,3,1,2020.6000000238419,876886.5,8093,VNB,A,1
1,test,5,1.0,2-Back,0.0,m,Thu Jan 22 2026 09:29:17 GMT-0600 (Central Standard Time),881939.8999999762,139_m_f_n_a.png,I,None,2016,4,1,3022.2999999523163,878917.6000000238,8093,VNB,A,2
1,test,5,0.0,2-Back,0.0,m,Thu Jan 22 2026 09:29:17 GMT-0600 (Central Standard Time),884305.8999999762,165_m_m_h_a.png,I,z,1340,5,1,2355.2999999523163,881950.6000000238,8093,VNB,A,3
2,test,5,0.0,2-Back,1.0,z,Thu Jan 22 2026 09:29:17 GMT-0600 (Central Standard Time),886938.1999999285,071_y_f_n_a.png,I,z,1614,6,1,2621.5999999046326,884316.6000000238,8093,VNB,A,4
3,test,5,0.0,2-Back,1.0,m,Thu Jan 22 2026 09:29:17 GMT-0600 (Central Standard Time),889520.7999999523,124_o_f_d_a.png,I,m,1558,7,1,2572.0,886948.7999999523,8093,VNB,A,5
4,test,5,0.0,2-Back,1.0,m,Thu Jan 22 2026 09:29:17 GMT-0600 (Central Standard Time),892153.2999999523,039_o_m_h_a.png,I,m,1608,8,1,2620.899999976158,889532.3999999762,8093,VNB,A,6
5,test,5,1.0,2-Back,1.0,z,Thu Jan 22 2026 09:29:17 GMT-0600 (Central Standard Time),894252.6000000238,139_m_f_d_a.png,I,z,1079,9,1,2088.100000023842,892164.5,8093,VNB,A,7
6,test,5,0.0,2-Back,1.0,m,Thu Jan 22 2026 09:29:17 GMT-0600 (Central Standard Time),896485.0,109_y_m_n_a.png,I,m,1204,10,1,2220.399999976158,894264.6000000238,8093,VNB,A,8
7,test,5,0.0,2-Back,1.0,m,Thu Jan 22 2026 09:29:17 GMT-0600 (Central Standard Time),898668.0,165_m_m_n_a.png,I,m,1155,11,1,2171.899999976158,896496.1000000238,8093,VNB,A,9
8,test,5,0.0,2-Back,1.0,m,Thu Jan 22 2026 09:29:17 GMT-0600 (Central Standard Time),901117.1999999285,071_y_f_h_a.png,I,m,1429,12,1,2438.6999999284744,898678.5,8093,VNB,A,10
9,test,5,0.0,2-Back,1.0,m,Thu Jan 22 2026 09:29:17 GMT-0600 (Central Standard Time),903416.2999999523,109_y_m_d_a.png,I,m,1267,13,1,2288.0,901128.2999999523,8093,VNB,A,11
9,test,5,1.0,2-Back,0.0,z,Thu Jan 22 2026 09:29:17 GMT-0600 (Central Standard Time),905665.6999999285,139_m_f_h_a.png,I,m,1224,14,1,2238.399999976158,903427.2999999523,8093,VNB,A,12
10,test,5,0.0,2-Back,1.0,m,Thu Jan 22 2026 09:29:17 GMT-0600 (Central Standard Time),908081.7999999523,039_o_m_n_a.png,I,m,1391,15,1,2405.5,905676.2999999523,8093,VNB,A,13
11,test,5,0.0,2-Back,1.0,m,Thu Jan 22 2026 09:29:17 GMT-0600 (Central Standard Time),910530.8999999762,165_m_m_d_a.png,I,m,1431,16,1,2438.5,908092.3999999762,8093,VNB,A,14
11,test,5,0.0,2-Back,0.0,z,Thu Jan 22 2026 09:29:17 GMT-0600 (Central Standard Time),913563.3999999762,124_o_f_n_a.png,I,None,2015,17,1,3021.7000000476837,910541.6999999285,8093,VNB,A,15
12,test,5,1.0,2-Back,1.0,m,Thu Jan 22 2026 09:29:17 GMT-0600 (Central Standard Time),916195.5,109_y_m_h_a.png,I,m,1605,18,1,2621.399999976158,913574.1000000238,8093,VNB,A,16
