Number,acc_sum,block,block_c,block_cond,con_img,correct,correct_response,datetime,endtime,jitter,project,response,response_time,row_sel,session_number,start_end,starttime,subject_id,task,task_vers,trial
2,1,prac,1,A,circle.png,1,z,Thu Mar 19 2026 14:24:02 GMT-0400 (Eastern Daylight Time),77882.79999995232,2000,I,z,1030,2,1,3808.7999999523163,74074.0,9059,NTS,A,1
6,2,prac,1,A,circle.png,1,m,Thu Mar 19 2026 14:24:02 GMT-0400 (Eastern Daylight Time),81016.29999995232,1900,I,m,443,5,1,3125.2999999523163,77891.0,9059,NTS,A,2
1,3,prac,1,A,circle.png,1,z,Thu Mar 19 2026 14:24:02 GMT-0400 (Eastern Daylight Time),83282.60000002384,1000,I,z,481,1,1,2256.7000000476837,81025.89999997616,9059,NTS,A,3
8,4,prac,1,A,circle.png,1,m,Thu Mar 19 2026 14:24:02 GMT-0400 (Eastern Daylight Time),86183.29999995232,1600,I,m,512,7,1,2893.899999976158,83289.39999997616,9059,NTS,A,4
3,5,prac,1,A,circle.png,1,z,Thu Mar 19 2026 14:24:02 GMT-0400 (Eastern Daylight Time),88700.60000002384,1200,I,z,540,3,1,2506.0,86194.60000002384,9059,NTS,A,5
3,6,prac,1,A,circle.png,1,z,Thu Mar 19 2026 14:24:02 GMT-0400 (Eastern Daylight Time),91182.89999997616,1200,I,z,495,3,1,2475.100000023842,88707.79999995232,9059,NTS,A,6
4,7,prac,1,A,circle.png,1,z,Thu Mar 19 2026 14:24:02 GMT-0400 (Eastern Daylight Time),94282.60000002384,1400,I,z,899,4,1,3090.5,91192.10000002384,9059,NTS,A,7
9,8,prac,1,A,circle.png,1,m,Thu Mar 19 2026 14:24:02 GMT-0400 (Eastern Daylight Time),97116.70000004768,1500,I,m,555,8,1,2826.2000000476837,94290.5,9059,NTS,A,8
1,9,prac,1,A,circle.png,1,z,Thu Mar 19 2026 14:24:02 GMT-0400 (Eastern Daylight Time),99482.70000004768,1000,I,z,583,1,1,2359.3000000715256,97123.39999997616,9059,NTS,A,9
2,10,prac,1,A,circle.png,1,z,Thu Mar 19 2026 14:24:02 GMT-0400 (Eastern Daylight Time),102883.39999997616,2000,I,z,600,2,1,3393.600000023842,99489.79999995232,9059,NTS,A,10
7,11,prac,1,A,circle.png,1,m,Thu Mar 19 2026 14:24:02 GMT-0400 (Eastern Daylight Time),105966.10000002384,1700,I,m,596,6,1,3075.8000000715256,102890.29999995232,9059,NTS,A,11
4,12,prac,1,A,circle.png,1,z,Thu Mar 19 2026 14:24:02 GMT-0400 (Eastern Daylight Time),108633.70000004768,1400,I,z,492,4,1,2659.600000023842,105974.10000002384,9059,NTS,A,12
6,1,prac,1,B,triangle.png,1,m,Thu Mar 19 2026 14:24:02 GMT-0400 (Eastern Daylight Time),151983.29999995232,1000,I,m,677,5,1,2459.2999999523163,149524.0,9059,NTS,A,1
3,2,prac,1,B,triangle.png,1,z,Thu Mar 19 2026 14:24:02 GMT-0400 (Eastern Daylight Time),154850.5,1600,I,z,467,3,1,2861.100000023842,151989.39999997616,9059,NTS,A,2
9,3,prac,1,B,triangle.png,1,z,Thu Mar 19 2026 14:24:02 GMT-0400 (Eastern Daylight Time),158199.29999995232,1400,I,z,1161,8,1,3342.399999976158,154856.89999997616,9059,NTS,A,3
4,4,prac,1,B,triangle.png,1,m,Thu Mar 19 2026 14:24:02 GMT-0400 (Eastern Daylight Time),161383.20000004768,1500,I,m,896,4,1,3175.100000023842,158208.10000002384,9059,NTS,A,4
2,5,prac,1,B,triangle.png,1,m,Thu Mar 19 2026 14:24:02 GMT-0400 (Eastern Daylight Time),164399.60000002384,1700,I,m,527,2,1,3010.5,161389.10000002384,9059,NTS,A,5
4,6,prac,1,B,triangle.png,1,m,Thu Mar 19 2026 14:24:02 GMT-0400 (Eastern Daylight Time),167416.60000002384,1500,I,m,719,4,1,3008.8000000715256,164407.79999995232,9059,NTS,A,6
1,7,prac,1,B,triangle.png,1,z,Thu Mar 19 2026 14:24:02 GMT-0400 (Eastern Daylight Time),170682.89999997616,1900,I,z,580,1,1,3260.100000023842,167422.79999995232,9059,NTS,A,7
3,8,prac,1,B,triangle.png,1,z,Thu Mar 19 2026 14:24:02 GMT-0400 (Eastern Daylight Time),173833.39999997616,1600,I,z,751,3,1,3142.6999999284744,170690.70000004768,9059,NTS,A,8
8,9,prac,1,B,triangle.png,1,m,Thu Mar 19 2026 14:24:02 GMT-0400 (Eastern Daylight Time),176416.89999997616,1200,I,m,585,7,1,2577.2999999523163,173839.60000002384,9059,NTS,A,9
7,9,prac,1,B,triangle.png,0,z,Thu Mar 19 2026 14:24:02 GMT-0400 (Eastern Daylight Time),180199.39999997616,2000,I,m,995,6,1,3774.1999999284744,176425.20000004768,9059,NTS,A,10
6,10,prac,1,B,triangle.png,1,m,Thu Mar 19 2026 14:24:02 GMT-0400 (Eastern Daylight Time),183016.70000004768,1000,I,m,1026,5,1,2809.5,180207.20000004768,9059,NTS,A,11
7,11,prac,1,B,triangle.png,1,z,Thu Mar 19 2026 14:24:02 GMT-0400 (Eastern Daylight Time),187250.10000002384,2000,I,z,1442,6,1,4225.700000047684,183024.39999997616,9059,NTS,A,12
1,1,test,1,A,circle.png,1,z,Thu Mar 19 2026 14:24:02 GMT-0400 (Eastern Daylight Time),229250.5,1000,I,z,894,1,1,1912.1000000238419,227338.39999997616,9059,NTS,A,1
3,2,test,1,A,circle.png,1,z,Thu Mar 19 2026 14:24:02 GMT-0400 (Eastern Daylight Time),231633.79999995232,1200,I,z,1160,3,1,2377.0999999046326,229256.70000004768,9059,NTS,A,2
8,3,test,1,A,circle.png,1,m,Thu Mar 19 2026 14:24:02 GMT-0400 (Eastern Daylight Time),233916.60000002384,1600,I,m,664,7,1,2277.0,231639.60000002384,9059,NTS,A,3
3,4,test,1,A,circle.png,1,z,Thu Mar 19 2026 14:24:02 GMT-0400 (Eastern Daylight Time),235849.39999997616,1200,I,z,701,3,1,1926.5,233922.89999997616,9059,NTS,A,4
1,5,test,1,A,circle.png,1,z,Thu Mar 19 2026 14:24:02 GMT-0400 (Eastern Daylight Time),237417.0,1000,I,z,546,1,1,1561.2000000476837,235855.79999995232,9059,NTS,A,5
9,6,test,1,A,circle.png,1,m,Thu Mar 19 2026 14:24:02 GMT-0400 (Eastern Daylight Time),239666.10000002384,1500,I,m,717,8,1,2243.399999976158,237422.70000004768,9059,NTS,A,6
3,7,test,1,A,circle.png,1,z,Thu Mar 19 2026 14:24:02 GMT-0400 (Eastern Daylight Time),242017.29999995232,1200,I,z,1129,3,1,2346.2999999523163,239671.0,9059,NTS,A,7
7,8,test,1,A,circle.png,1,m,Thu Mar 19 2026 14:24:02 GMT-0400 (Eastern Daylight Time),244683.0,1700,I,m,934,6,1,2660.2000000476837,242022.79999995232,9059,NTS,A,8
4,9,test,1,A,circle.png,1,z,Thu Mar 19 2026 14:24:02 GMT-0400 (Eastern Daylight Time),247050.5,1400,I,z,944,4,1,2362.100000023842,244688.39999997616,9059,NTS,A,9
6,10,test,1,A,circle.png,1,m,Thu Mar 19 2026 14:24:02 GMT-0400 (Eastern Daylight Time),250349.5,1900,I,m,1381,5,1,3293.2999999523163,247056.20000004768,9059,NTS,A,10
2,11,test,1,A,circle.png,1,z,Thu Mar 19 2026 14:24:02 GMT-0400 (Eastern Daylight Time),253117.10000002384,2000,I,z,749,2,1,2762.7000000476837,250354.39999997616,9059,NTS,A,11
1,12,test,1,A,circle.png,1,z,Thu Mar 19 2026 14:24:02 GMT-0400 (Eastern Daylight Time),255199.60000002384,1000,I,z,1062,1,1,2076.8000000715256,253122.79999995232,9059,NTS,A,12
2,13,test,1,A,circle.png,1,z,Thu Mar 19 2026 14:24:02 GMT-0400 (Eastern Daylight Time),257882.70000004768,2000,I,z,659,2,1,2677.4000000953674,255205.29999995232,9059,NTS,A,13
7,14,test,1,A,circle.png,1,m,Thu Mar 19 2026 14:24:02 GMT-0400 (Eastern Daylight Time),260318.29999995232,1700,I,m,707,6,1,2430.1999999284744,257888.10000002384,9059,NTS,A,14
8,15,test,1,A,circle.png,1,m,Thu Mar 19 2026 14:24:02 GMT-0400 (Eastern Daylight Time),262800.10000002384,1600,I,m,864,7,1,2476.5,260323.60000002384,9059,NTS,A,15
2,16,test,1,A,circle.png,1,z,Thu Mar 19 2026 14:24:02 GMT-0400 (Eastern Daylight Time),265617.7999999523,2000,I,z,787,2,1,2812.0,262805.7999999523,9059,NTS,A,16
1,17,test,1,A,circle.png,1,z,Thu Mar 19 2026 14:24:02 GMT-0400 (Eastern Daylight Time),267450.10000002384,1000,I,z,801,1,1,1827.3000000715256,265622.7999999523,9059,NTS,A,17
6,18,test,1,A,circle.png,1,m,Thu Mar 19 2026 14:24:02 GMT-0400 (Eastern Daylight Time),270550.0,1900,I,m,1183,5,1,3094.0,267456.0,9059,NTS,A,18
6,19,test,1,A,circle.png,1,m,Thu Mar 19 2026 14:24:02 GMT-0400 (Eastern Daylight Time),273466.7999999523,1900,I,m,993,5,1,2910.1999999284744,270556.60000002384,9059,NTS,A,19
4,20,test,1,A,circle.png,1,z,Thu Mar 19 2026 14:24:02 GMT-0400 (Eastern Daylight Time),276032.60000002384,1400,I,z,1144,4,1,2559.399999976158,273473.2000000477,9059,NTS,A,20
9,21,test,1,A,circle.png,1,m,Thu Mar 19 2026 14:24:02 GMT-0400 (Eastern Daylight Time),278184.39999997616,1500,I,m,631,8,1,2146.2999999523163,276038.10000002384,9059,NTS,A,21
2,22,test,1,A,circle.png,1,z,Thu Mar 19 2026 14:24:02 GMT-0400 (Eastern Daylight Time),280783.7000000477,2000,I,z,579,2,1,2594.7000000476837,278189.0,9059,NTS,A,22
3,23,test,1,A,circle.png,1,z,Thu Mar 19 2026 14:24:02 GMT-0400 (Eastern Daylight Time),282666.60000002384,1200,I,z,658,3,1,1876.3000000715256,280790.2999999523,9059,NTS,A,23
7,24,test,1,A,circle.png,1,m,Thu Mar 19 2026 14:24:02 GMT-0400 (Eastern Daylight Time),285033.2999999523,1700,I,m,635,6,1,2360.899999976158,282672.39999997616,9059,NTS,A,24
4,1,test,1,B,triangle.png,1,m,Thu Mar 19 2026 14:24:02 GMT-0400 (Eastern Daylight Time),308400.60000002384,1500,I,m,788,4,1,2311.5,306089.10000002384,9059,NTS,A,1
4,2,test,1,B,triangle.png,1,m,Thu Mar 19 2026 14:24:02 GMT-0400 (Eastern Daylight Time),310132.89999997616,1000,I,m,715,12,1,1726.5,308406.39999997616,9059,NTS,A,2
7,3,test,1,B,triangle.png,1,z,Thu Mar 19 2026 14:24:02 GMT-0400 (Eastern Daylight Time),312949.5,2000,I,z,790,6,1,2813.0,310136.5,9059,NTS,A,3
9,4,test,1,B,triangle.png,1,z,Thu Mar 19 2026 14:24:02 GMT-0400 (Eastern Daylight Time),315616.10000002384,1900,I,z,736,16,1,2660.3000000715256,312955.7999999523,9059,NTS,A,4
6,5,test,1,B,triangle.png,1,m,Thu Mar 19 2026 14:24:02 GMT-0400 (Eastern Daylight Time),317399.39999997616,1000,I,m,755,5,1,1777.6999999284744,315621.7000000477,9059,NTS,A,5
6,6,test,1,B,triangle.png,1,m,Thu Mar 19 2026 14:24:02 GMT-0400 (Eastern Daylight Time),319417.2999999523,1500,I,m,494,13,1,2012.3999999761581,317404.89999997616,9059,NTS,A,6
8,7,test,1,B,triangle.png,1,m,Thu Mar 19 2026 14:24:02 GMT-0400 (Eastern Daylight Time),321399.5,1200,I,m,762,7,1,1977.1000000238419,319422.39999997616,9059,NTS,A,7
9,8,test,1,B,triangle.png,1,z,Thu Mar 19 2026 14:24:02 GMT-0400 (Eastern Daylight Time),323932.7000000477,1900,I,z,607,16,1,2528.2000000476837,321404.5,9059,NTS,A,8
1,9,test,1,B,triangle.png,1,z,Thu Mar 19 2026 14:24:02 GMT-0400 (Eastern Daylight Time),326533.7999999523,1900,I,z,674,1,1,2595.6999999284744,323938.10000002384,9059,NTS,A,9
2,10,test,1,B,triangle.png,1,m,Thu Mar 19 2026 14:24:02 GMT-0400 (Eastern Daylight Time),328717.0,1200,I,m,958,10,1,2176.5,326540.5,9059,NTS,A,10
8,11,test,1,B,triangle.png,1,m,Thu Mar 19 2026 14:24:02 GMT-0400 (Eastern Daylight Time),330766.60000002384,1200,I,m,821,7,1,2043.5,328723.10000002384,9059,NTS,A,11
2,12,test,1,B,triangle.png,1,m,Thu Mar 19 2026 14:24:02 GMT-0400 (Eastern Daylight Time),333616.0,1700,I,m,1128,2,1,2844.2000000476837,330771.7999999523,9059,NTS,A,12
3,13,test,1,B,triangle.png,1,z,Thu Mar 19 2026 14:24:02 GMT-0400 (Eastern Daylight Time),335899.5,1600,I,z,659,3,1,2278.2999999523163,333621.2000000477,9059,NTS,A,13
9,13,test,1,B,triangle.png,0,z,Thu Mar 19 2026 14:24:02 GMT-0400 (Eastern Daylight Time),338833.2000000477,1400,I,None,1515,8,1,2928.4000000953674,335904.7999999523,9059,NTS,A,14
1,14,test,1,B,triangle.png,1,z,Thu Mar 19 2026 14:24:02 GMT-0400 (Eastern Daylight Time),341133.39999997616,1400,I,z,881,9,1,2295.0,338838.39999997616,9059,NTS,A,15
2,15,test,1,B,triangle.png,1,m,Thu Mar 19 2026 14:24:02 GMT-0400 (Eastern Daylight Time),343799.7999999523,1700,I,m,946,2,1,2660.5,341139.2999999523,9059,NTS,A,16
1,16,test,1,B,triangle.png,1,z,Thu Mar 19 2026 14:24:02 GMT-0400 (Eastern Daylight Time),346683.60000002384,1900,I,z,951,1,1,2879.0,343804.60000002384,9059,NTS,A,17
7,17,test,1,B,triangle.png,1,z,Thu Mar 19 2026 14:24:02 GMT-0400 (Eastern Daylight Time),349733.39999997616,2000,I,z,1032,6,1,3044.2999999523163,346689.10000002384,9059,NTS,A,18
2,18,test,1,B,triangle.png,1,m,Thu Mar 19 2026 14:24:02 GMT-0400 (Eastern Daylight Time),351667.2999999523,1200,I,m,710,10,1,1928.2999999523163,349739.0,9059,NTS,A,19
3,19,test,1,B,triangle.png,1,z,Thu Mar 19 2026 14:24:02 GMT-0400 (Eastern Daylight Time),354533.10000002384,2000,I,z,840,11,1,2860.600000023842,351672.5,9059,NTS,A,20
4,20,test,1,B,triangle.png,1,m,Thu Mar 19 2026 14:24:02 GMT-0400 (Eastern Daylight Time),356816.7999999523,1500,I,m,762,4,1,2277.899999976158,354538.89999997616,9059,NTS,A,21
4,21,test,1,B,triangle.png,1,m,Thu Mar 19 2026 14:24:02 GMT-0400 (Eastern Daylight Time),358399.5,1000,I,m,554,12,1,1576.8999999761581,356822.60000002384,9059,NTS,A,22
7,22,test,1,B,triangle.png,1,z,Thu Mar 19 2026 14:24:02 GMT-0400 (Eastern Daylight Time),360800.10000002384,1600,I,z,770,14,1,2395.399999976158,358404.7000000477,9059,NTS,A,23
8,22,test,1,B,triangle.png,0,m,Thu Mar 19 2026 14:24:02 GMT-0400 (Eastern Daylight Time),363766.10000002384,1700,I,z,1238,15,1,2961.3000000715256,360804.7999999523,9059,NTS,A,24
1,0,prac,1,C,circle.png,0,z,Thu Mar 19 2026 14:24:02 GMT-0400 (Eastern Daylight Time),455332.89999997616,1700,I,None,1515,1,1,3992.2999999523163,451340.60000002384,9059,NTS,A,1
7,0,prac,1,C,triangle.png,0,z,Thu Mar 19 2026 14:24:02 GMT-0400 (Eastern Daylight Time),458816.2999999523,1200,I,None,1501,6,1,3475.2999999523163,455341.0,9059,NTS,A,2
1,1,prac,1,C,circle.png,1,z,Thu Mar 19 2026 14:24:02 GMT-0400 (Eastern Daylight Time),461966.39999997616,1700,I,z,654,1,1,3143.100000023842,458823.2999999523,9059,NTS,A,3
3,1,prac,1,C,triangle.png,0,z,Thu Mar 19 2026 14:24:02 GMT-0400 (Eastern Daylight Time),465067.10000002384,1500,I,m,800,3,1,3093.399999976158,461973.7000000477,9059,NTS,A,4
6,1,prac,1,C,circle.png,0,m,Thu Mar 19 2026 14:24:02 GMT-0400 (Eastern Daylight Time),468833.0,2000,I,z,968,5,1,3756.899999976158,465076.10000002384,9059,NTS,A,5
2,1,prac,1,C,triangle.png,0,m,Thu Mar 19 2026 14:24:02 GMT-0400 (Eastern Daylight Time),472733.89999997616,1600,I,None,1516,2,1,3894.5,468839.39999997616,9059,NTS,A,6
2,2,prac,1,C,triangle.png,1,m,Thu Mar 19 2026 14:24:02 GMT-0400 (Eastern Daylight Time),475733.10000002384,1600,I,m,605,2,1,2993.0,472740.10000002384,9059,NTS,A,7
9,2,prac,1,C,circle.png,0,m,Thu Mar 19 2026 14:24:02 GMT-0400 (Eastern Daylight Time),479133.0,1900,I,z,713,8,1,3393.100000023842,475739.89999997616,9059,NTS,A,8
4,2,prac,1,C,circle.png,0,z,Thu Mar 19 2026 14:24:02 GMT-0400 (Eastern Daylight Time),481717.7000000477,1000,I,m,797,4,1,2577.100000023842,479140.60000002384,9059,NTS,A,9
9,2,prac,1,C,circle.png,0,m,Thu Mar 19 2026 14:24:02 GMT-0400 (Eastern Daylight Time),485584.0,1900,I,z,1186,8,1,3859.2999999523163,481724.7000000477,9059,NTS,A,10
8,3,prac,1,C,triangle.png,1,m,Thu Mar 19 2026 14:24:02 GMT-0400 (Eastern Daylight Time),488466.5,1400,I,m,684,7,1,2874.399999976158,485592.10000002384,9059,NTS,A,11
6,4,prac,1,C,circle.png,1,m,Thu Mar 19 2026 14:24:02 GMT-0400 (Eastern Daylight Time),491966.7000000477,2000,I,m,728,5,1,3494.0,488472.7000000477,9059,NTS,A,12
9,1,prac,2,C,circle.png,1,m,Thu Mar 19 2026 14:24:02 GMT-0400 (Eastern Daylight Time),504317.2000000477,1900,I,m,1306,8,1,3993.600000023842,500323.60000002384,9059,NTS,A,1
9,2,prac,2,C,circle.png,1,m,Thu Mar 19 2026 14:24:02 GMT-0400 (Eastern Daylight Time),508484.2000000477,1900,I,m,1474,8,1,4159.600000023842,504324.60000002384,9059,NTS,A,2
6,3,prac,2,C,circle.png,1,m,Thu Mar 19 2026 14:24:02 GMT-0400 (Eastern Daylight Time),512183.39999997616,2000,I,m,911,5,1,3690.7999999523163,508492.60000002384,9059,NTS,A,3
1,4,prac,2,C,circle.png,1,z,Thu Mar 19 2026 14:24:02 GMT-0400 (Eastern Daylight Time),515867.2000000477,1700,I,z,1184,1,1,3675.9000000953674,512191.2999999523,9059,NTS,A,4
4,5,prac,2,C,circle.png,1,z,Thu Mar 19 2026 14:24:02 GMT-0400 (Eastern Daylight Time),518933.7999999523,1000,I,z,1271,4,1,3058.5,515875.2999999523,9059,NTS,A,5
1,6,prac,2,C,circle.png,1,z,Thu Mar 19 2026 14:24:02 GMT-0400 (Eastern Daylight Time),522533.7999999523,1700,I,z,1106,1,1,3592.0999999046326,518941.7000000477,9059,NTS,A,6
3,6,prac,2,C,triangle.png,0,z,Thu Mar 19 2026 14:24:02 GMT-0400 (Eastern Daylight Time),526099.8999999762,1500,I,m,1282,3,1,3560.0,522539.89999997616,9059,NTS,A,7
4,6,prac,2,C,circle.png,0,z,Thu Mar 19 2026 14:24:02 GMT-0400 (Eastern Daylight Time),529399.6000000238,1000,I,None,1516,4,1,3292.5,526107.1000000238,9059,NTS,A,8
7,6,prac,2,C,triangle.png,0,z,Thu Mar 19 2026 14:24:02 GMT-0400 (Eastern Daylight Time),532899.8999999762,1200,I,None,1517,6,1,3493.600000023842,529406.2999999523,9059,NTS,A,9
3,6,prac,2,C,triangle.png,0,z,Thu Mar 19 2026 14:24:02 GMT-0400 (Eastern Daylight Time),536700.1000000238,1500,I,None,1515,3,1,3793.3000000715256,532906.7999999523,9059,NTS,A,10
8,6,prac,2,C,triangle.png,0,m,Thu Mar 19 2026 14:24:02 GMT-0400 (Eastern Daylight Time),539734.6000000238,1400,I,z,840,7,1,3026.399999976158,536708.2000000477,9059,NTS,A,11
2,7,prac,2,C,triangle.png,1,m,Thu Mar 19 2026 14:24:02 GMT-0400 (Eastern Daylight Time),543349.8999999762,1600,I,m,1229,2,1,3608.899999976158,539741.0,9059,NTS,A,12
1,1,test,1,C,circle.png,1,z,Thu Mar 19 2026 14:24:02 GMT-0400 (Eastern Daylight Time),587367.3999999762,1000,I,z,1381,1,1,2394.7999999523163,584972.6000000238,9059,NTS,A,1
8,1,test,1,C,triangle.png,0,m,Thu Mar 19 2026 14:24:02 GMT-0400 (Eastern Daylight Time),590501.2000000477,1600,I,None,1517,23,1,3127.7000000476837,587373.5,9059,NTS,A,2
4,1,test,1,C,triangle.png,0,m,Thu Mar 19 2026 14:24:02 GMT-0400 (Eastern Daylight Time),593467.5,1500,I,z,1444,20,1,2961.399999976158,590506.1000000238,9059,NTS,A,3
7,1,test,1,C,triangle.png,0,z,Thu Mar 19 2026 14:24:02 GMT-0400 (Eastern Daylight Time),596700.2999999523,1700,I,None,1516,6,1,3227.5,593472.7999999523,9059,NTS,A,4
9,1,test,1,C,circle.png,0,m,Thu Mar 19 2026 14:24:02 GMT-0400 (Eastern Daylight Time),599733.1000000238,1500,I,None,1516,8,1,3026.8000000715256,596706.2999999523,9059,NTS,A,5
7,2,test,1,C,circle.png,1,m,Thu Mar 19 2026 14:24:02 GMT-0400 (Eastern Daylight Time),602384.0,2000,I,m,629,14,1,2647.899999976158,599736.1000000238,9059,NTS,A,6
2,2,test,1,C,circle.png,0,z,Thu Mar 19 2026 14:24:02 GMT-0400 (Eastern Daylight Time),605616.5,1700,I,None,1515,18,1,3226.899999976158,602389.6000000238,9059,NTS,A,7
3,3,test,1,C,circle.png,1,z,Thu Mar 19 2026 14:24:02 GMT-0400 (Eastern Daylight Time),608449.8999999762,1600,I,z,1210,11,1,2827.399999976158,605622.5,9059,NTS,A,8
2,4,test,1,C,triangle.png,1,m,Thu Mar 19 2026 14:24:02 GMT-0400 (Eastern Daylight Time),611434.1000000238,2000,I,m,954,2,1,2978.399999976158,608455.7000000477,9059,NTS,A,9
1,5,test,1,C,triangle.png,1,z,Thu Mar 19 2026 14:24:02 GMT-0400 (Eastern Daylight Time),614734.6000000238,1900,I,z,1372,9,1,3292.100000023842,611442.5,9059,NTS,A,10
1,6,test,1,C,triangle.png,1,z,Thu Mar 19 2026 14:24:02 GMT-0400 (Eastern Daylight Time),617416.3999999762,1900,I,z,760,17,1,2676.399999976158,614740.0,9059,NTS,A,11
3,6,test,1,C,triangle.png,0,z,Thu Mar 19 2026 14:24:02 GMT-0400 (Eastern Daylight Time),620150.0,1200,I,None,1516,3,1,2727.5,617422.5,9059,NTS,A,12
4,6,test,1,C,triangle.png,0,m,Thu Mar 19 2026 14:24:02 GMT-0400 (Eastern Daylight Time),623168.7000000477,1500,I,None,1502,12,1,3012.5,620156.2000000477,9059,NTS,A,13
8,6,test,1,C,triangle.png,0,m,Thu Mar 19 2026 14:24:02 GMT-0400 (Eastern Daylight Time),626199.7000000477,1600,I,z,1411,7,1,3025.600000023842,623174.1000000238,9059,NTS,A,14
3,6,test,1,C,circle.png,0,z,Thu Mar 19 2026 14:24:02 GMT-0400 (Eastern Daylight Time),629333.7000000477,1600,I,None,1517,19,1,3127.7000000476837,626206.0,9059,NTS,A,15
6,6,test,1,C,triangle.png,0,m,Thu Mar 19 2026 14:24:02 GMT-0400 (Eastern Daylight Time),631133.7999999523,1000,I,z,774,13,1,1792.5,629341.2999999523,9059,NTS,A,16
9,7,test,1,C,circle.png,1,m,Thu Mar 19 2026 14:24:02 GMT-0400 (Eastern Daylight Time),633599.7000000477,1500,I,m,936,24,1,2460.3000000715256,631139.3999999762,9059,NTS,A,17
6,8,test,1,C,circle.png,1,m,Thu Mar 19 2026 14:24:02 GMT-0400 (Eastern Daylight Time),636116.3999999762,1900,I,m,591,5,1,2511.1999999284744,633605.2000000477,9059,NTS,A,18
2,9,test,1,C,circle.png,1,z,Thu Mar 19 2026 14:24:02 GMT-0400 (Eastern Daylight Time),639233.1000000238,1700,I,z,1386,10,1,3111.3000000715256,636121.7999999523,9059,NTS,A,19
4,9,test,1,C,circle.png,0,z,Thu Mar 19 2026 14:24:02 GMT-0400 (Eastern Daylight Time),642017.5,1400,I,m,1362,4,1,2778.7999999523163,639238.7000000477,9059,NTS,A,20
9,10,test,1,C,triangle.png,1,z,Thu Mar 19 2026 14:24:02 GMT-0400 (Eastern Daylight Time),644416.7000000477,1400,I,z,970,16,1,2393.3000000715256,642023.3999999762,9059,NTS,A,21
8,11,test,1,C,circle.png,1,m,Thu Mar 19 2026 14:24:02 GMT-0400 (Eastern Daylight Time),646467.3999999762,1200,I,m,818,15,1,2045.1999999284744,644422.2000000477,9059,NTS,A,22
6,12,test,1,C,circle.png,1,m,Thu Mar 19 2026 14:24:02 GMT-0400 (Eastern Daylight Time),649200.6000000238,1900,I,m,812,21,1,2727.3000000715256,646473.2999999523,9059,NTS,A,23
7,13,test,1,C,triangle.png,1,z,Thu Mar 19 2026 14:24:02 GMT-0400 (Eastern Daylight Time),652317.2000000477,1700,I,z,1398,22,1,3110.2000000476837,649207.0,9059,NTS,A,24
1,0,test,2,C,circle.png,0,z,Thu Mar 19 2026 14:24:02 GMT-0400 (Eastern Daylight Time),662483.7999999523,1000,I,None,1517,1,1,2528.0999999046326,659955.7000000477,9059,NTS,A,1
1,0,test,2,C,triangle.png,0,z,Thu Mar 19 2026 14:24:02 GMT-0400 (Eastern Daylight Time),665916.7000000477,1900,I,None,1516,9,1,3426.2000000476837,662490.5,9059,NTS,A,2
9,0,test,2,C,triangle.png,0,z,Thu Mar 19 2026 14:24:02 GMT-0400 (Eastern Daylight Time),668833.6000000238,1400,I,None,1501,24,1,2911.5,665922.1000000238,9059,NTS,A,3
8,0,test,2,C,triangle.png,0,m,Thu Mar 19 2026 14:24:02 GMT-0400 (Eastern Daylight Time),671966.7000000477,1600,I,None,1515,7,1,3127.7000000476837,668839.0,9059,NTS,A,4
2,0,test,2,C,circle.png,0,z,Thu Mar 19 2026 14:24:02 GMT-0400 (Eastern Daylight Time),675200.7000000477,1700,I,None,1517,10,1,3228.0,671972.7000000477,9059,NTS,A,5
4,0,test,2,C,circle.png,0,z,Thu Mar 19 2026 14:24:02 GMT-0400 (Eastern Daylight Time),677299.8999999762,1400,I,m,674,4,1,2093.399999976158,675206.5,9059,NTS,A,6
6,0,test,2,C,triangle.png,0,m,Thu Mar 19 2026 14:24:02 GMT-0400 (Eastern Daylight Time),679466.5,1000,I,z,1142,13,1,2160.5,677306.0,9059,NTS,A,7
9,0,test,2,C,triangle.png,0,z,Thu Mar 19 2026 14:24:02 GMT-0400 (Eastern Daylight Time),682400.1000000238,1400,I,None,1515,16,1,2926.5,679473.6000000238,9059,NTS,A,8
7,1,test,2,C,circle.png,1,m,Thu Mar 19 2026 14:24:02 GMT-0400 (Eastern Daylight Time),685517.7000000477,2000,I,m,1093,14,1,3111.9000000953674,682405.7999999523,9059,NTS,A,9
2,1,test,2,C,triangle.png,0,m,Thu Mar 19 2026 14:24:02 GMT-0400 (Eastern Daylight Time),688350.6000000238,2000,I,z,806,2,1,2827.0,685523.6000000238,9059,NTS,A,10
3,1,test,2,C,circle.png,0,z,Thu Mar 19 2026 14:24:02 GMT-0400 (Eastern Daylight Time),691283.5,1600,I,m,1299,11,1,2927.2000000476837,688356.2999999523,9059,NTS,A,11
8,2,test,2,C,circle.png,1,m,Thu Mar 19 2026 14:24:02 GMT-0400 (Eastern Daylight Time),693516.6000000238,1200,I,m,1006,15,1,2226.600000023842,691290.0,9059,NTS,A,12
6,3,test,2,C,circle.png,1,m,Thu Mar 19 2026 14:24:02 GMT-0400 (Eastern Daylight Time),696066.7999999523,1900,I,m,625,5,1,2543.0,693523.7999999523,9059,NTS,A,13
3,3,test,2,C,circle.png,0,z,Thu Mar 19 2026 14:24:02 GMT-0400 (Eastern Daylight Time),698901.0,1600,I,m,1199,19,1,2828.7000000476837,696072.2999999523,9059,NTS,A,14
7,4,test,2,C,triangle.png,1,z,Thu Mar 19 2026 14:24:02 GMT-0400 (Eastern Daylight Time),701466.6000000238,1700,I,z,834,6,1,2559.600000023842,698907.0,9059,NTS,A,15
4,5,test,2,C,triangle.png,1,m,Thu Mar 19 2026 14:24:02 GMT-0400 (Eastern Daylight Time),704234.1000000238,1500,I,m,1235,12,1,2761.3000000715256,701472.7999999523,9059,NTS,A,16
1,5,test,2,C,triangle.png,0,z,Thu Mar 19 2026 14:24:02 GMT-0400 (Eastern Daylight Time),707666.8999999762,1900,I,None,1516,17,1,3427.399999976158,704239.5,9059,NTS,A,17
6,5,test,2,C,triangle.png,0,m,Thu Mar 19 2026 14:24:02 GMT-0400 (Eastern Daylight Time),710200.2999999523,1000,I,None,1516,21,1,2528.0,707672.2999999523,9059,NTS,A,18
3,6,test,2,C,triangle.png,1,z,Thu Mar 19 2026 14:24:02 GMT-0400 (Eastern Daylight Time),712600.5,1200,I,z,1171,3,1,2394.100000023842,710206.3999999762,9059,NTS,A,19
8,7,test,2,C,circle.png,1,m,Thu Mar 19 2026 14:24:02 GMT-0400 (Eastern Daylight Time),715133.2999999523,1200,I,m,1306,23,1,2526.399999976158,712606.8999999762,9059,NTS,A,20
4,7,test,2,C,triangle.png,0,m,Thu Mar 19 2026 14:24:02 GMT-0400 (Eastern Daylight Time),718167.1000000238,1500,I,None,1516,20,1,3028.3000000715256,715138.7999999523,9059,NTS,A,21
2,8,test,2,C,circle.png,1,z,Thu Mar 19 2026 14:24:02 GMT-0400 (Eastern Daylight Time),721100.7999999523,1700,I,z,1208,18,1,2927.5999999046326,718173.2000000477,9059,NTS,A,22
7,8,test,2,C,circle.png,0,m,Thu Mar 19 2026 14:24:02 GMT-0400 (Eastern Daylight Time),724633.8999999762,2000,I,None,1517,22,1,3528.100000023842,721105.7999999523,9059,NTS,A,23
9,9,test,2,C,circle.png,1,m,Thu Mar 19 2026 14:24:02 GMT-0400 (Eastern Daylight Time),726750.2000000477,1500,I,m,598,8,1,2111.0,724639.2000000477,9059,NTS,A,24
1,1,test,3,C,triangle.png,1,z,Thu Mar 19 2026 14:24:02 GMT-0400 (Eastern Daylight Time),763017.6000000238,1900,I,z,1036,9,1,2961.399999976158,760056.2000000477,9059,NTS,A,1
6,2,test,3,C,circle.png,1,m,Thu Mar 19 2026 14:24:02 GMT-0400 (Eastern Daylight Time),766183.7999999523,1900,I,m,1246,5,1,3161.0,763022.7999999523,9059,NTS,A,2
9,2,test,3,C,triangle.png,0,z,Thu Mar 19 2026 14:24:02 GMT-0400 (Eastern Daylight Time),769116.7000000477,1400,I,None,1517,16,1,2927.8000000715256,766188.8999999762,9059,NTS,A,3
4,2,test,3,C,circle.png,0,z,Thu Mar 19 2026 14:24:02 GMT-0400 (Eastern Daylight Time),772050.7000000477,1400,I,None,1517,20,1,2931.600000023842,769119.1000000238,9059,NTS,A,4
4,3,test,3,C,circle.png,1,z,Thu Mar 19 2026 14:24:02 GMT-0400 (Eastern Daylight Time),774283.3999999762,1400,I,z,809,4,1,2227.6999999284744,772055.7000000477,9059,NTS,A,5
9,4,test,3,C,circle.png,1,m,Thu Mar 19 2026 14:24:02 GMT-0400 (Eastern Daylight Time),776867.0,1500,I,m,1058,24,1,2577.399999976158,774289.6000000238,9059,NTS,A,6
8,4,test,3,C,triangle.png,0,m,Thu Mar 19 2026 14:24:02 GMT-0400 (Eastern Daylight Time),780000.8999999762,1600,I,None,1517,23,1,3127.600000023842,776873.2999999523,9059,NTS,A,7
7,4,test,3,C,triangle.png,0,z,Thu Mar 19 2026 14:24:02 GMT-0400 (Eastern Daylight Time),783233.2999999523,1700,I,None,1516,22,1,3225.5,780007.7999999523,9059,NTS,A,8
7,5,test,3,C,triangle.png,1,z,Thu Mar 19 2026 14:24:02 GMT-0400 (Eastern Daylight Time),785800.8999999762,1700,I,z,837,6,1,2562.1999999284744,783238.7000000477,9059,NTS,A,9
8,6,test,3,C,circle.png,1,m,Thu Mar 19 2026 14:24:02 GMT-0400 (Eastern Daylight Time),787767.0,1200,I,m,748,15,1,1960.3999999761581,785806.6000000238,9059,NTS,A,10
9,7,test,3,C,circle.png,1,m,Thu Mar 19 2026 14:24:02 GMT-0400 (Eastern Daylight Time),790500.1000000238,1500,I,m,1215,8,1,2728.0,787772.1000000238,9059,NTS,A,11
6,8,test,3,C,circle.png,1,m,Thu Mar 19 2026 14:24:02 GMT-0400 (Eastern Daylight Time),793083.7000000477,1900,I,m,651,21,1,2578.3000000715256,790505.3999999762,9059,NTS,A,12
4,8,test,3,C,triangle.png,0,m,Thu Mar 19 2026 14:24:02 GMT-0400 (Eastern Daylight Time),795400.7000000477,1500,I,z,787,12,1,2310.7000000476837,793090.0,9059,NTS,A,13
1,9,test,3,C,circle.png,1,z,Thu Mar 19 2026 14:24:02 GMT-0400 (Eastern Daylight Time),797867.7999999523,1000,I,z,1435,17,1,2461.1999999284744,795406.6000000238,9059,NTS,A,14
3,10,test,3,C,triangle.png,1,z,Thu Mar 19 2026 14:24:02 GMT-0400 (Eastern Daylight Time),800066.6000000238,1200,I,z,975,19,1,2191.600000023842,797875.0,9059,NTS,A,15
6,10,test,3,C,triangle.png,0,m,Thu Mar 19 2026 14:24:02 GMT-0400 (Eastern Daylight Time),802084.5,1000,I,z,1000,13,1,2012.2999999523163,800072.2000000477,9059,NTS,A,16
2,10,test,3,C,triangle.png,0,m,Thu Mar 19 2026 14:24:02 GMT-0400 (Eastern Daylight Time),805617.6000000238,2000,I,None,1516,2,1,3527.399999976158,802090.2000000477,9059,NTS,A,17
8,11,test,3,C,triangle.png,1,m,Thu Mar 19 2026 14:24:02 GMT-0400 (Eastern Daylight Time),808034.1000000238,1600,I,m,793,7,1,2411.100000023842,805623.0,9059,NTS,A,18
1,12,test,3,C,circle.png,1,z,Thu Mar 19 2026 14:24:02 GMT-0400 (Eastern Daylight Time),809883.7999999523,1000,I,z,817,1,1,1844.1999999284744,808039.6000000238,9059,NTS,A,19
2,12,test,3,C,triangle.png,0,m,Thu Mar 19 2026 14:24:02 GMT-0400 (Eastern Daylight Time),813234.3999999762,2000,I,z,1319,18,1,3344.899999976158,809889.5,9059,NTS,A,20
7,13,test,3,C,circle.png,1,m,Thu Mar 19 2026 14:24:02 GMT-0400 (Eastern Daylight Time),816650.1000000238,2000,I,m,1394,14,1,3410.399999976158,813239.7000000477,9059,NTS,A,21
3,14,test,3,C,triangle.png,1,z,Thu Mar 19 2026 14:24:02 GMT-0400 (Eastern Daylight Time),818884.2999999523,1200,I,z,1002,3,1,2228.6999999284744,816655.6000000238,9059,NTS,A,22
2,14,test,3,C,circle.png,0,z,Thu Mar 19 2026 14:24:02 GMT-0400 (Eastern Daylight Time),821916.7999999523,1700,I,m,1308,10,1,3025.899999976158,818890.8999999762,9059,NTS,A,23
3,15,test,3,C,circle.png,1,z,Thu Mar 19 2026 14:24:02 GMT-0400 (Eastern Daylight Time),824800.2000000477,1600,I,z,1261,11,1,2878.2000000476837,821922.0,9059,NTS,A,24
7,0,test,4,C,triangle.png,0,z,Thu Mar 19 2026 14:24:02 GMT-0400 (Eastern Daylight Time),831101.2000000477,1700,I,None,1516,6,1,3229.0,827872.2000000477,9059,NTS,A,1
8,1,test,4,C,circle.png,1,m,Thu Mar 19 2026 14:24:02 GMT-0400 (Eastern Daylight Time),833133.6000000238,1200,I,m,815,15,1,2025.3000000715256,831108.2999999523,9059,NTS,A,2
2,1,test,4,C,triangle.png,0,m,Thu Mar 19 2026 14:24:02 GMT-0400 (Eastern Daylight Time),835966.7000000477,2000,I,z,813,18,1,2827.3000000715256,833139.3999999762,9059,NTS,A,3
3,2,test,4,C,triangle.png,1,z,Thu Mar 19 2026 14:24:02 GMT-0400 (Eastern Daylight Time),838500.1000000238,1200,I,z,1308,19,1,2527.899999976158,835972.2000000477,9059,NTS,A,4
2,2,test,4,C,circle.png,0,z,Thu Mar 19 2026 14:24:02 GMT-0400 (Eastern Daylight Time),841300.1000000238,1700,I,m,1074,10,1,2794.3000000715256,838505.7999999523,9059,NTS,A,5
3,3,test,4,C,circle.png,1,z,Thu Mar 19 2026 14:24:02 GMT-0400 (Eastern Daylight Time),843884.0,1600,I,z,951,11,1,2578.399999976158,841305.6000000238,9059,NTS,A,6
7,4,test,4,C,circle.png,1,m,Thu Mar 19 2026 14:24:02 GMT-0400 (Eastern Daylight Time),847200.0,2000,I,m,1286,14,1,3309.0,843891.0,9059,NTS,A,7
9,5,test,4,C,circle.png,1,m,Thu Mar 19 2026 14:24:02 GMT-0400 (Eastern Daylight Time),850101.0,1500,I,m,1375,8,1,2895.5,847205.5,9059,NTS,A,8
9,6,test,4,C,triangle.png,1,z,Thu Mar 19 2026 14:24:02 GMT-0400 (Eastern Daylight Time),852866.7000000477,1400,I,z,1334,16,1,2759.600000023842,850107.1000000238,9059,NTS,A,9
6,6,test,4,C,triangle.png,0,m,Thu Mar 19 2026 14:24:02 GMT-0400 (Eastern Daylight Time),855268.2000000477,1000,I,z,1368,13,1,2395.8000000715256,852872.3999999762,9059,NTS,A,10
4,6,test,4,C,circle.png,0,z,Thu Mar 19 2026 14:24:02 GMT-0400 (Eastern Daylight Time),858200.7000000477,1400,I,None,1516,20,1,2926.100000023842,855274.6000000238,9059,NTS,A,11
6,7,test,4,C,circle.png,1,m,Thu Mar 19 2026 14:24:02 GMT-0400 (Eastern Daylight Time),860917.6000000238,1900,I,m,784,21,1,2711.0,858206.6000000238,9059,NTS,A,12
4,7,test,4,C,circle.png,0,z,Thu Mar 19 2026 14:24:02 GMT-0400 (Eastern Daylight Time),863050.2000000477,1400,I,m,710,4,1,2126.3000000715256,860923.8999999762,9059,NTS,A,13
4,8,test,4,C,triangle.png,1,m,Thu Mar 19 2026 14:24:02 GMT-0400 (Eastern Daylight Time),865751.0,1500,I,m,1172,12,1,2695.399999976158,863055.6000000238,9059,NTS,A,14
1,9,test,4,C,circle.png,1,z,Thu Mar 19 2026 14:24:02 GMT-0400 (Eastern Daylight Time),867967.7000000477,1000,I,z,1188,17,1,2210.8000000715256,865756.8999999762,9059,NTS,A,15
3,10,test,4,C,triangle.png,1,z,Thu Mar 19 2026 14:24:02 GMT-0400 (Eastern Daylight Time),870485.1000000238,1200,I,z,1301,3,1,2511.0,867974.1000000238,9059,NTS,A,16
2,10,test,4,C,triangle.png,0,m,Thu Mar 19 2026 14:24:02 GMT-0400 (Eastern Daylight Time),873667.7999999523,2000,I,z,1160,2,1,3178.1999999284744,870489.6000000238,9059,NTS,A,17
8,10,test,4,C,triangle.png,0,m,Thu Mar 19 2026 14:24:02 GMT-0400 (Eastern Daylight Time),876800.2000000477,1600,I,None,1516,7,1,3126.9000000953674,873673.2999999523,9059,NTS,A,18
7,10,test,4,C,triangle.png,0,z,Thu Mar 19 2026 14:24:02 GMT-0400 (Eastern Daylight Time),879717.8999999762,1700,I,m,1191,22,1,2911.7999999523163,876806.1000000238,9059,NTS,A,19
6,10,test,4,C,circle.png,0,m,Thu Mar 19 2026 14:24:02 GMT-0400 (Eastern Daylight Time),883150.7999999523,1900,I,None,1516,5,1,3427.5999999046326,879723.2000000477,9059,NTS,A,20
1,11,test,4,C,circle.png,1,z,Thu Mar 19 2026 14:24:02 GMT-0400 (Eastern Daylight Time),884851.7000000477,1000,I,z,669,1,1,1694.7000000476837,883157.0,9059,NTS,A,21
9,12,test,4,C,circle.png,1,m,Thu Mar 19 2026 14:24:02 GMT-0400 (Eastern Daylight Time),887834.2999999523,1500,I,m,1452,24,1,2976.899999976158,884857.3999999762,9059,NTS,A,22
8,12,test,4,C,triangle.png,0,m,Thu Mar 19 2026 14:24:02 GMT-0400 (Eastern Daylight Time),890400.5,1600,I,z,945,23,1,2559.7999999523163,887840.7000000477,9059,NTS,A,23
1,13,test,4,C,triangle.png,1,z,Thu Mar 19 2026 14:24:02 GMT-0400 (Eastern Daylight Time),893133.8999999762,1900,I,z,814,9,1,2727.0,890406.8999999762,9059,NTS,A,24
