Q,Q1,Q2,Q3,Q4,acc_sum,block,block_c,correct,correct_response,datetime,endtime,project,response,response_time,row_sel,session_number,squiggle1,squiggle1x,squiggle1y,squiggle2,squiggle2x,squiggle2y,squiggle3,squiggle3x,squiggle3y,squiggle4,squiggle4x,squiggle4y,start_end,starttime,subject_id,target_congruent,task,task_vers,testsquiggle,testsquigglex,testsquiggley,time_practice_delay,time_practice_fixation,time_practice_stimuli,time_practice_study,time_test_delay,time_test_fixation,time_test_stimuli,time_test_study,trial
1,1,0,0,0,0,prac,1,0,z,Wed Jun 03 2026 10:48:55 GMT-0400 (Eastern Daylight Time),114254.7000002861,I,m,1297,1,2,116.bmp,-120,-120,117.bmp,120,-120,118.bmp,-120,120,119.bmp,120,120,10109.300000190735,104145.40000009537,9067,yes,SM,A,116.bmp,-120,-120,108180,102155,110198,104164,,,,,1
3,0,0,1,0,0,prac,1,0,m,Wed Jun 03 2026 10:48:55 GMT-0400 (Eastern Daylight Time),124604.5,I,z,1517,2,2,120.bmp,-120,-120,121.bmp,120,-120,122.bmp,-120,120,123.bmp,120,120,10342.199999809265,114262.30000019073,9067,no,SM,A,123.bmp,-120,120,118297,112272,120314,114281,,,,,2
4,0,0,0,1,0,prac,1,0,m,Wed Jun 03 2026 10:48:55 GMT-0400 (Eastern Daylight Time),134871.2000002861,I,z,1439,3,2,124.bmp,-120,-120,125.bmp,120,-120,126.bmp,-120,120,127.bmp,120,120,10259.099999904633,124612.10000038147,9067,no,SM,A,124.bmp,120,120,128647,122621,130664,124631,,,,,3
2,0,1,0,0,0,prac,1,0,z,Wed Jun 03 2026 10:48:55 GMT-0400 (Eastern Daylight Time),145037.90000009537,I,m,1349,4,2,128.bmp,-120,-120,129.bmp,120,-120,130.bmp,-120,120,131.bmp,120,120,10159.599999904633,134878.30000019073,9067,yes,SM,A,129.bmp,120,-120,138914,132888,140931,134897,,,,,4
3,0,0,1,0,1,prac,1,1,z,Wed Jun 03 2026 10:48:55 GMT-0400 (Eastern Daylight Time),154937.90000009537,I,z,1070,5,2,132.bmp,-120,-120,133.bmp,120,-120,134.bmp,-120,120,135.bmp,120,120,9889.799999713898,145048.10000038147,9067,yes,SM,A,134.bmp,-120,120,149080,143057,151097,145064,,,,,5
1,1,0,0,0,2,prac,1,1,m,Wed Jun 03 2026 10:48:55 GMT-0400 (Eastern Daylight Time),165038.0,I,m,1283,6,2,136.bmp,-120,-120,137.bmp,120,-120,138.bmp,-120,120,139.bmp,120,120,10089.89999961853,154948.10000038147,9067,no,SM,A,139.bmp,-120,-120,158980,152957,160997,154964,,,,,6
2,0,1,0,0,3,prac,1,1,m,Wed Jun 03 2026 10:48:55 GMT-0400 (Eastern Daylight Time),174987.5,I,m,1118,7,2,140.bmp,-120,-120,141.bmp,120,-120,142.bmp,-120,120,143.bmp,120,120,9942.299999713898,165045.2000002861,9067,no,SM,A,140.bmp,120,-120,169080,163054,171097,165064,,,,,7
4,0,0,0,1,4,prac,1,1,z,Wed Jun 03 2026 10:48:55 GMT-0400 (Eastern Daylight Time),185287.90000009537,I,z,1473,8,2,144.bmp,-120,-120,145.bmp,120,-120,146.bmp,-120,120,147.bmp,120,120,10295.900000095367,174992.0,9067,yes,SM,A,147.bmp,120,120,179030,173001,181047,175014,,,,,8
1,1,0,0,0,1,prac,2,1,z,Wed Jun 03 2026 10:48:55 GMT-0400 (Eastern Daylight Time),203454.60000038147,I,z,1131,1,2,116.bmp,-120,-120,117.bmp,120,-120,118.bmp,-120,120,119.bmp,120,120,9943.400000095367,193511.2000002861,9067,yes,SM,A,116.bmp,-120,-120,197547,191521,199564,193531,,,,,1
3,0,0,1,0,2,prac,2,1,m,Wed Jun 03 2026 10:48:55 GMT-0400 (Eastern Daylight Time),213488.0,I,m,1214,2,2,120.bmp,-120,-120,121.bmp,120,-120,122.bmp,-120,120,123.bmp,120,120,10023.39999961853,203464.60000038147,9067,no,SM,A,123.bmp,-120,120,207497,201474,209514,203481,,,,,2
4,0,0,0,1,3,prac,2,1,m,Wed Jun 03 2026 10:48:55 GMT-0400 (Eastern Daylight Time),223604.7000002861,I,m,1292,3,2,124.bmp,-120,-120,125.bmp,120,-120,126.bmp,-120,120,127.bmp,120,120,10107.099999904633,213497.60000038147,9067,no,SM,A,124.bmp,120,120,217530,211507,219547,213514,,,,,3
2,0,1,0,0,4,prac,2,1,z,Wed Jun 03 2026 10:48:55 GMT-0400 (Eastern Daylight Time),233604.60000038147,I,z,1175,4,2,128.bmp,-120,-120,129.bmp,120,-120,130.bmp,-120,120,131.bmp,120,120,9992.60000038147,223612.0,9067,yes,SM,A,129.bmp,120,-120,227647,221621,229664,223631,,,,,4
3,0,0,1,0,5,prac,2,1,z,Wed Jun 03 2026 10:48:55 GMT-0400 (Eastern Daylight Time),243571.2000002861,I,z,1144,5,2,132.bmp,-120,-120,133.bmp,120,-120,134.bmp,-120,120,135.bmp,120,120,9958.900000095367,233612.30000019073,9067,yes,SM,A,134.bmp,-120,120,237647,231622,239664,233631,,,,,5
1,1,0,0,0,6,prac,2,1,m,Wed Jun 03 2026 10:48:55 GMT-0400 (Eastern Daylight Time),253504.7000002861,I,m,1112,6,2,136.bmp,-120,-120,137.bmp,120,-120,138.bmp,-120,120,139.bmp,120,120,9925.400000095367,243579.30000019073,9067,no,SM,A,139.bmp,-120,-120,247614,241589,249631,243597,,,,,6
2,0,1,0,0,7,prac,2,1,m,Wed Jun 03 2026 10:48:55 GMT-0400 (Eastern Daylight Time),263704.7000002861,I,m,1372,7,2,140.bmp,-120,-120,141.bmp,120,-120,142.bmp,-120,120,143.bmp,120,120,10192.599999904633,253512.10000038147,9067,no,SM,A,140.bmp,120,-120,257547,251521,259564,253531,,,,,7
4,0,0,0,1,8,prac,2,1,z,Wed Jun 03 2026 10:48:55 GMT-0400 (Eastern Daylight Time),273938.0,I,z,1412,8,2,144.bmp,-120,-120,145.bmp,120,-120,146.bmp,-120,120,147.bmp,120,120,10226.599999904633,263711.40000009537,9067,yes,SM,A,147.bmp,120,120,267747,261721,269764,263731,,,,,8
4,0,0,0,1,0,test,1,0,m,Wed Jun 03 2026 10:48:55 GMT-0400 (Eastern Daylight Time),299121.40000009537,I,z,1263,1,2,148.bmp,-120,-120,149.bmp,120,-120,150.bmp,-120,120,143.bmp,120,120,9309.900000095367,289811.5,9067,no,SM,A,150.bmp,120,120,267747,261721,269764,263731,293847.0,287821.0,295864.0,289831.0,1
2,0,1,0,0,1,test,1,1,m,Wed Jun 03 2026 10:48:55 GMT-0400 (Eastern Daylight Time),308604.40000009537,I,m,1419,2,2,101.bmp,-120,-120,102.bmp,120,-120,103.bmp,-120,120,104.bmp,120,120,9474.400000095367,299130.0,9067,no,SM,A,103.bmp,120,-120,267747,261721,269764,263731,303164.0,297139.0,305181.0,299147.0,2
1,1,0,0,0,2,test,1,1,z,Wed Jun 03 2026 10:48:55 GMT-0400 (Eastern Daylight Time),317971.2000002861,I,z,1312,3,2,105.bmp,-120,-120,106.bmp,120,-120,107.bmp,-120,120,108.bmp,120,120,9357.300000190735,308613.90000009537,9067,yes,SM,A,105.bmp,-120,-120,267747,261721,269764,263731,312647.0,306623.0,314663.0,308631.0,3
3,0,0,1,0,3,test,1,1,m,Wed Jun 03 2026 10:48:55 GMT-0400 (Eastern Daylight Time),327404.5,I,m,1369,4,2,109.bmp,-120,-120,110.bmp,120,-120,111.bmp,-120,120,112.bmp,120,120,9425.099999904633,317979.40000009537,9067,no,SM,A,109.bmp,-120,120,267747,261721,269764,263731,322014.0,315989.0,324031.0,317997.0,4
2,0,1,0,0,3,test,1,0,z,Wed Jun 03 2026 10:48:55 GMT-0400 (Eastern Daylight Time),336654.80000019073,I,m,1199,5,2,113.bmp,-120,-120,114.bmp,120,-120,115.bmp,-120,120,116.bmp,120,120,9240.599999904633,327414.2000002861,9067,yes,SM,A,114.bmp,120,-120,267747,261721,269764,263731,331447.0,325423.0,333464.0,327431.0,5
3,0,0,1,0,4,test,1,1,z,Wed Jun 03 2026 10:48:55 GMT-0400 (Eastern Daylight Time),345587.80000019073,I,z,878,6,2,117.bmp,-120,-120,118.bmp,120,-120,119.bmp,-120,120,120.bmp,120,120,8924.400000095367,336663.40000009537,9067,yes,SM,A,119.bmp,-120,120,267747,261721,269764,263731,340697.0,334673.0,342714.0,336681.0,6
4,0,0,0,1,5,test,1,1,z,Wed Jun 03 2026 10:48:55 GMT-0400 (Eastern Daylight Time),354887.90000009537,I,z,1239,7,2,121.bmp,-120,-120,122.bmp,120,-120,123.bmp,-120,120,124.bmp,120,120,9288.400000095367,345599.5,9067,yes,SM,A,124.bmp,120,120,267747,261721,269764,263731,349630.0,343609.0,351648.0,345614.0,7
2,0,1,0,0,6,test,1,1,m,Wed Jun 03 2026 10:48:55 GMT-0400 (Eastern Daylight Time),364537.80000019073,I,m,1589,8,2,125.bmp,-120,-120,126.bmp,120,-120,127.bmp,-120,120,128.bmp,120,120,9641.199999809265,354896.60000038147,9067,no,SM,A,125.bmp,120,-120,267747,261721,269764,263731,358930.0,352906.0,360947.0,354914.0,8
3,0,0,1,0,7,test,1,1,m,Wed Jun 03 2026 10:48:55 GMT-0400 (Eastern Daylight Time),374071.2000002861,I,m,1473,9,2,129.bmp,-120,-120,130.bmp,120,-120,131.bmp,-120,120,132.bmp,120,120,9526.599999904633,364544.60000038147,9067,no,SM,A,130.bmp,-120,120,267747,261721,269764,263731,368581.0,362554.0,370598.0,364564.0,9
4,0,0,0,1,8,test,1,1,z,Wed Jun 03 2026 10:48:55 GMT-0400 (Eastern Daylight Time),383588.0,I,z,1461,10,2,137.bmp,-120,-120,138.bmp,120,-120,139.bmp,-120,120,140.bmp,120,120,9507.5,374080.5,9067,yes,SM,A,140.bmp,120,120,267747,261721,269764,263731,378114.0,372090.0,380131.0,374097.0,10
3,0,0,1,0,9,test,1,1,z,Wed Jun 03 2026 10:48:55 GMT-0400 (Eastern Daylight Time),392987.60000038147,I,z,1335,11,2,133.bmp,-120,-120,134.bmp,120,-120,135.bmp,-120,120,136.bmp,120,120,9392.300000190735,383595.30000019073,9067,yes,SM,A,135.bmp,-120,120,267747,261721,269764,263731,387631.0,381605.0,389648.0,383614.0,11
2,0,1,0,0,10,test,1,1,m,Wed Jun 03 2026 10:48:55 GMT-0400 (Eastern Daylight Time),402204.5,I,m,1153,12,2,141.bmp,-120,-120,142.bmp,120,-120,143.bmp,-120,120,144.bmp,120,120,9212.599999904633,392991.90000009537,9067,no,SM,A,141.bmp,120,-120,267747,261721,269764,263731,397030.0,391001.0,399047.0,393014.0,12
3,0,0,1,0,10,test,1,0,m,Wed Jun 03 2026 10:48:55 GMT-0400 (Eastern Daylight Time),411521.30000019073,I,z,1263,13,2,145.bmp,-120,-120,146.bmp,120,-120,147.bmp,-120,120,148.bmp,120,120,9307.300000190735,402214.0,9067,no,SM,A,146.bmp,-120,120,267747,261721,269764,263731,406247.0,400223.0,408264.0,402231.0,13
1,1,0,0,0,10,test,1,0,z,Wed Jun 03 2026 10:48:55 GMT-0400 (Eastern Daylight Time),421204.5,I,m,1627,14,2,149.bmp,-120,-120,150.bmp,120,-120,104.bmp,-120,120,101.bmp,120,120,9674.89999961853,411529.60000038147,9067,yes,SM,A,149.bmp,-120,-120,267747,261721,269764,263731,415564.0,409539.0,417581.0,411548.0,14
4,0,0,0,1,10,test,1,0,m,Wed Jun 03 2026 10:48:55 GMT-0400 (Eastern Daylight Time),431004.60000038147,I,z,1735,15,2,110.bmp,-120,-120,111.bmp,120,-120,112.bmp,-120,120,113.bmp,120,120,9792.5,421212.10000038147,9067,no,SM,A,111.bmp,120,120,267747,261721,269764,263731,425247.0,419221.0,427264.0,421231.0,15
1,1,0,0,0,11,test,1,1,m,Wed Jun 03 2026 10:48:55 GMT-0400 (Eastern Daylight Time),440304.40000009537,I,m,1248,16,2,102.bmp,-120,-120,103.bmp,120,-120,104.bmp,-120,120,105.bmp,120,120,9290.400000095367,431014.0,9067,no,SM,A,105.bmp,-120,-120,267747,261721,269764,263731,435047.0,429023.0,437064.0,431031.0,16
3,0,0,1,0,12,test,1,1,m,Wed Jun 03 2026 10:48:55 GMT-0400 (Eastern Daylight Time),449471.40000009537,I,m,1115,17,2,122.bmp,-120,-120,123.bmp,120,-120,124.bmp,-120,120,125.bmp,120,120,9158.5,440312.90000009537,9067,no,SM,A,122.bmp,-120,120,267747,261721,269764,263731,444347.0,438322.0,446364.0,440331.0,17
1,1,0,0,0,13,test,1,1,z,Wed Jun 03 2026 10:48:55 GMT-0400 (Eastern Daylight Time),458571.30000019073,I,z,1037,18,2,106.bmp,-120,-120,107.bmp,120,-120,108.bmp,-120,120,109.bmp,120,120,9093.800000190735,449477.5,9067,yes,SM,A,106.bmp,-120,-120,267747,261721,269764,263731,453514.0,447487.0,455531.0,449498.0,18
2,0,1,0,0,14,test,1,1,z,Wed Jun 03 2026 10:48:55 GMT-0400 (Eastern Daylight Time),468087.90000009537,I,z,1457,19,2,126.bmp,-120,-120,127.bmp,120,-120,128.bmp,-120,120,129.bmp,120,120,9509.299999713898,458578.60000038147,9067,yes,SM,A,127.bmp,120,-120,267747,261721,269764,263731,462614.0,456588.0,464631.0,458598.0,19
3,0,0,1,0,15,test,1,1,z,Wed Jun 03 2026 10:48:55 GMT-0400 (Eastern Daylight Time),477437.90000009537,I,z,1285,20,2,130.bmp,-120,-120,131.bmp,120,-120,132.bmp,-120,120,133.bmp,120,120,9342.199999809265,468095.7000002861,9067,yes,SM,A,132.bmp,-120,120,267747,261721,269764,263731,472131.0,466105.0,474147.0,468114.0,20
1,1,0,0,0,15,test,1,0,m,Wed Jun 03 2026 10:48:55 GMT-0400 (Eastern Daylight Time),486837.90000009537,I,z,1342,21,2,114.bmp,-120,-120,115.bmp,120,-120,116.bmp,-120,120,117.bmp,120,120,9392.799999713898,477445.10000038147,9067,no,SM,A,116.bmp,-120,-120,267747,261721,269764,263731,481481.0,475454.0,483497.0,477464.0,21
4,0,0,0,1,16,test,1,1,z,Wed Jun 03 2026 10:48:55 GMT-0400 (Eastern Daylight Time),496321.10000038147,I,z,1430,22,2,118.bmp,-120,-120,119.bmp,120,-120,120.bmp,-120,120,121.bmp,120,120,9475.10000038147,486846.0,9067,yes,SM,A,121.bmp,120,120,267747,261721,269764,263731,490881.0,484855.0,492897.0,486864.0,22
1,1,0,0,0,17,test,1,1,m,Wed Jun 03 2026 10:48:55 GMT-0400 (Eastern Daylight Time),505737.90000009537,I,m,1355,23,2,134.bmp,-120,-120,135.bmp,120,-120,136.bmp,-120,120,137.bmp,120,120,9410.099999904633,496327.80000019073,9067,no,SM,A,137.bmp,-120,-120,267747,261721,269764,263731,500364.0,494337.0,502381.0,496348.0,23
2,0,1,0,0,18,test,1,1,z,Wed Jun 03 2026 10:48:55 GMT-0400 (Eastern Daylight Time),514971.40000009537,I,z,1170,24,2,142.bmp,-120,-120,143.bmp,120,-120,144.bmp,-120,120,145.bmp,120,120,9225.799999713898,505745.60000038147,9067,yes,SM,A,143.bmp,120,-120,267747,261721,269764,263731,509781.0,503755.0,511798.0,505764.0,24
4,0,0,0,1,19,test,1,1,m,Wed Jun 03 2026 10:48:55 GMT-0400 (Eastern Daylight Time),524504.7000002861,I,m,1472,25,2,146.bmp,-120,-120,147.bmp,120,-120,148.bmp,-120,120,149.bmp,120,120,9523.200000286102,514981.5,9067,no,SM,A,148.bmp,120,120,267747,261721,269764,263731,519014.0,512991.0,521031.0,514998.0,25
1,1,0,0,0,20,test,1,1,z,Wed Jun 03 2026 10:48:55 GMT-0400 (Eastern Daylight Time),533904.5,I,z,1348,26,2,138.bmp,-120,-120,139.bmp,120,-120,140.bmp,-120,120,141.bmp,120,120,9392.599999904633,524511.9000000954,9067,yes,SM,A,138.bmp,-120,-120,267747,261721,269764,263731,528547.0,522521.0,530564.0,524531.0,26
4,0,0,0,1,21,test,1,1,z,Wed Jun 03 2026 10:48:55 GMT-0400 (Eastern Daylight Time),543204.7000002861,I,z,1244,27,2,150.bmp,-120,-120,111.bmp,120,-120,101.bmp,-120,120,102.bmp,120,120,9292.5,533912.2000002861,9067,yes,SM,A,102.bmp,120,120,267747,261721,269764,263731,537947.0,531921.0,539964.0,533931.0,27
3,0,0,1,0,22,test,1,1,m,Wed Jun 03 2026 10:48:55 GMT-0400 (Eastern Daylight Time),552504.6000003815,I,m,1240,28,2,103.bmp,-120,-120,104.bmp,120,-120,105.bmp,-120,120,106.bmp,120,120,9291.400000095367,543213.2000002861,9067,no,SM,A,103.bmp,-120,120,267747,261721,269764,263731,547247.0,541222.0,549264.0,543231.0,28
2,0,1,0,0,23,test,1,1,z,Wed Jun 03 2026 10:48:55 GMT-0400 (Eastern Daylight Time),562138.0,I,z,1572,29,2,107.bmp,-120,-120,108.bmp,120,-120,109.bmp,-120,120,110.bmp,120,120,9625.89999961853,552512.1000003815,9067,yes,SM,A,108.bmp,120,-120,267747,261721,269764,263731,556547.0,550521.0,558564.0,552531.0,29
3,0,0,1,0,24,test,1,1,z,Wed Jun 03 2026 10:48:55 GMT-0400 (Eastern Daylight Time),571455.2000002861,I,z,1266,30,2,111.bmp,-120,-120,112.bmp,120,-120,113.bmp,-120,120,114.bmp,120,120,9308.5,562146.7000002861,9067,yes,SM,A,113.bmp,-120,120,267747,261721,269764,263731,566181.0,560156.0,568198.0,562164.0,30
1,1,0,0,0,25,test,1,1,z,Wed Jun 03 2026 10:48:55 GMT-0400 (Eastern Daylight Time),580721.3000001907,I,z,1214,31,2,115.bmp,-120,-120,116.bmp,120,-120,117.bmp,-120,120,118.bmp,120,120,9259.0,571462.3000001907,9067,yes,SM,A,115.bmp,-120,-120,267747,261721,269764,263731,575497.0,569472.0,577514.0,571481.0,31
2,0,1,0,0,26,test,1,1,m,Wed Jun 03 2026 10:48:55 GMT-0400 (Eastern Daylight Time),589754.8000001907,I,m,988,32,2,119.bmp,-120,-120,120.bmp,120,-120,121.bmp,-120,120,122.bmp,120,120,9026.5,580728.3000001907,9067,no,SM,A,119.bmp,120,-120,267747,261721,269764,263731,584763.0,578738.0,586764.0,580748.0,32
4,0,0,0,1,27,test,1,1,z,Wed Jun 03 2026 10:48:55 GMT-0400 (Eastern Daylight Time),599238.0,I,z,1426,33,2,131.bmp,-120,-120,132.bmp,120,-120,133.bmp,-120,120,134.bmp,120,120,9475.5,589762.5,9067,yes,SM,A,134.bmp,120,120,267747,261721,269764,263731,593797.0,587772.0,595814.0,589781.0,33
2,0,1,0,0,28,test,1,1,z,Wed Jun 03 2026 10:48:55 GMT-0400 (Eastern Daylight Time),608088.1000003815,I,z,790,34,2,123.bmp,-120,-120,124.bmp,120,-120,125.bmp,-120,120,126.bmp,120,120,8840.700000286102,599247.4000000954,9067,yes,SM,A,124.bmp,120,-120,267747,261721,269764,263731,603281.0,597257.0,605298.0,599264.0,34
4,0,0,0,1,29,test,1,1,m,Wed Jun 03 2026 10:48:55 GMT-0400 (Eastern Daylight Time),617421.4000000954,I,m,1267,35,2,127.bmp,-120,-120,128.bmp,120,-120,129.bmp,-120,120,130.bmp,120,120,9324.400000095367,608097.0,9067,no,SM,A,129.bmp,120,120,267747,261721,269764,263731,612131.0,606106.0,614148.0,608114.0,35
3,0,0,1,0,29,test,1,0,m,Wed Jun 03 2026 10:48:55 GMT-0400 (Eastern Daylight Time),626687.9000000954,I,z,1215,36,2,135.bmp,-120,-120,136.bmp,120,-120,137.bmp,-120,120,138.bmp,120,120,9259.599999904633,617428.3000001907,9067,no,SM,A,135.bmp,-120,120,267747,261721,269764,263731,621464.0,615438.0,623481.0,617447.0,36
1,1,0,0,0,30,test,1,1,m,Wed Jun 03 2026 10:48:55 GMT-0400 (Eastern Daylight Time),635854.9000000954,I,m,1100,37,2,139.bmp,-120,-120,140.bmp,120,-120,141.bmp,-120,120,142.bmp,120,120,9161.0,626693.9000000954,9067,no,SM,A,140.bmp,-120,-120,267747,261721,269764,263731,630731.0,624703.0,632748.0,626714.0,37
2,0,1,0,0,31,test,1,1,m,Wed Jun 03 2026 10:48:55 GMT-0400 (Eastern Daylight Time),645454.7000002861,I,m,1534,38,2,143.bmp,-120,-120,144.bmp,120,-120,145.bmp,-120,120,146.bmp,120,120,9591.300000190735,635863.4000000954,9067,no,SM,A,145.bmp,120,-120,267747,261721,269764,263731,639897.0,633873.0,641914.0,635881.0,38
4,0,0,0,1,32,test,1,1,z,Wed Jun 03 2026 10:48:55 GMT-0400 (Eastern Daylight Time),654871.4000000954,I,z,1358,39,2,147.bmp,-120,-120,148.bmp,120,-120,149.bmp,-120,120,150.bmp,120,120,9407.799999713898,645463.6000003815,9067,yes,SM,A,150.bmp,120,120,267747,261721,269764,263731,649497.0,643473.0,651514.0,645481.0,39
3,0,0,1,0,33,test,1,1,m,Wed Jun 03 2026 10:48:55 GMT-0400 (Eastern Daylight Time),664254.7000002861,I,m,1317,40,2,104.bmp,-120,-120,105.bmp,120,-120,106.bmp,-120,120,107.bmp,120,120,9375.200000286102,654879.5,9067,no,SM,A,105.bmp,-120,120,267747,261721,269764,263731,658914.0,652889.0,660931.0,654898.0,40
1,1,0,0,0,33,test,1,0,z,Wed Jun 03 2026 10:48:55 GMT-0400 (Eastern Daylight Time),673654.8000001907,I,m,1342,41,2,108.bmp,-120,-120,109.bmp,120,-120,110.bmp,-120,120,111.bmp,120,120,9392.0,664262.8000001907,9067,yes,SM,A,108.bmp,-120,-120,267747,261721,269764,263731,668297.0,662272.0,670314.0,664281.0,41
4,0,0,0,1,34,test,1,1,z,Wed Jun 03 2026 10:48:55 GMT-0400 (Eastern Daylight Time),682971.5,I,z,1254,42,2,112.bmp,-120,-120,113.bmp,120,-120,114.bmp,-120,120,115.bmp,120,120,9308.89999961853,673662.6000003815,9067,yes,SM,A,115.bmp,120,120,267747,261721,269764,263731,677697.0,671672.0,679714.0,673680.0,42
1,1,0,0,0,35,test,1,1,z,Wed Jun 03 2026 10:48:55 GMT-0400 (Eastern Daylight Time),692454.7000002861,I,z,1425,43,2,116.bmp,-120,-120,117.bmp,120,-120,118.bmp,-120,120,119.bmp,120,120,9475.599999904633,682979.1000003815,9067,yes,SM,A,116.bmp,-120,-120,267747,261721,269764,263731,687014.0,680988.0,689031.0,682998.0,43
4,0,0,0,1,36,test,1,1,m,Wed Jun 03 2026 10:48:55 GMT-0400 (Eastern Daylight Time),701571.5,I,m,1062,44,2,104.bmp,-120,-120,101.bmp,120,-120,102.bmp,-120,120,103.bmp,120,120,9110.099999904633,692461.4000000954,9067,no,SM,A,104.bmp,120,120,267747,261721,269764,263731,696497.0,690471.0,698514.0,692481.0,44
1,1,0,0,0,37,test,1,1,m,Wed Jun 03 2026 10:48:55 GMT-0400 (Eastern Daylight Time),710954.8000001907,I,m,1321,45,2,128.bmp,-120,-120,129.bmp,120,-120,130.bmp,-120,120,131.bmp,120,120,9375.900000095367,701578.9000000954,9067,no,SM,A,131.bmp,-120,-120,267747,261721,269764,263731,705614.0,699588.0,707631.0,701598.0,45
1,1,0,0,0,38,test,1,1,m,Wed Jun 03 2026 10:48:55 GMT-0400 (Eastern Daylight Time),720271.5,I,m,1266,46,2,120.bmp,-120,-120,121.bmp,120,-120,122.bmp,-120,120,123.bmp,120,120,9309.39999961853,710962.1000003815,9067,no,SM,A,121.bmp,-120,-120,267747,261721,269764,263731,714997.0,708971.0,717014.0,710981.0,46
3,0,0,1,0,39,test,1,1,z,Wed Jun 03 2026 10:48:55 GMT-0400 (Eastern Daylight Time),729771.5,I,z,1437,47,2,124.bmp,-120,-120,125.bmp,120,-120,126.bmp,-120,120,127.bmp,120,120,9494.0,720277.5,9067,yes,SM,A,126.bmp,-120,120,267747,261721,269764,263731,724314.0,718287.0,726331.0,720298.0,47
3,0,0,1,0,40,test,1,1,z,Wed Jun 03 2026 10:48:55 GMT-0400 (Eastern Daylight Time),739771.6000003815,I,z,1937,48,2,140.bmp,-120,-120,141.bmp,120,-120,142.bmp,-120,120,143.bmp,120,120,9991.300000190735,729780.3000001907,9067,yes,SM,A,142.bmp,-120,120,267747,261721,269764,263731,733814.0,727790.0,735831.0,729798.0,48
2,0,1,0,0,40,test,1,0,z,Wed Jun 03 2026 10:48:55 GMT-0400 (Eastern Daylight Time),749388.1000003815,I,m,1553,49,2,136.bmp,-120,-120,137.bmp,120,-120,138.bmp,-120,120,139.bmp,120,120,9608.800000190735,739779.3000001907,9067,yes,SM,A,137.bmp,120,-120,267747,261721,269764,263731,743814.0,737789.0,745831.0,739798.0,49
3,0,0,1,0,40,test,1,0,m,Wed Jun 03 2026 10:48:55 GMT-0400 (Eastern Daylight Time),758687.9000000954,I,z,1248,50,2,132.bmp,-120,-120,133.bmp,120,-120,134.bmp,-120,120,135.bmp,120,120,9292.0,749395.9000000954,9067,no,SM,A,132.bmp,-120,120,267747,261721,269764,263731,753431.0,747405.0,755448.0,749414.0,50
2,0,1,0,0,41,test,1,1,z,Wed Jun 03 2026 10:48:55 GMT-0400 (Eastern Daylight Time),767954.8000001907,I,z,1212,51,2,144.bmp,-120,-120,145.bmp,120,-120,146.bmp,-120,120,147.bmp,120,120,9259.5,758695.3000001907,9067,yes,SM,A,145.bmp,120,-120,267747,261721,269764,263731,762731.0,756705.0,764748.0,758714.0,51
4,0,0,0,1,42,test,1,1,m,Wed Jun 03 2026 10:48:55 GMT-0400 (Eastern Daylight Time),777321.5,I,m,1306,52,2,148.bmp,-120,-120,149.bmp,120,-120,150.bmp,-120,120,131.bmp,120,120,9359.799999713898,767961.7000002861,9067,no,SM,A,148.bmp,120,120,267747,261721,269764,263731,771997.0,765971.0,774014.0,767981.0,52
3,0,0,1,0,43,test,1,1,z,Wed Jun 03 2026 10:48:55 GMT-0400 (Eastern Daylight Time),786438.2000002861,I,z,1059,53,2,101.bmp,-120,-120,102.bmp,120,-120,103.bmp,-120,120,104.bmp,120,120,9109.0,777329.2000002861,9067,yes,SM,A,103.bmp,-120,120,267747,261721,269764,263731,781364.0,775338.0,783381.0,777348.0,53
1,1,0,0,0,43,test,1,0,m,Wed Jun 03 2026 10:48:55 GMT-0400 (Eastern Daylight Time),795621.5,I,z,1126,54,2,105.bmp,-120,-120,106.bmp,120,-120,107.bmp,-120,120,108.bmp,120,120,9177.0,786444.5,9067,no,SM,A,107.bmp,-120,-120,267747,261721,269764,263731,790481.0,784454.0,792498.0,786466.0,54
4,0,0,0,1,44,test,1,1,z,Wed Jun 03 2026 10:48:55 GMT-0400 (Eastern Daylight Time),804938.2000002861,I,z,1255,55,2,109.bmp,-120,-120,110.bmp,120,-120,111.bmp,-120,120,112.bmp,120,120,9307.300000190735,795630.9000000954,9067,yes,SM,A,112.bmp,120,120,267747,261721,269764,263731,799664.0,793640.0,801681.0,795648.0,55
2,0,1,0,0,45,test,1,1,m,Wed Jun 03 2026 10:48:55 GMT-0400 (Eastern Daylight Time),814238.3000001907,I,m,1234,56,2,113.bmp,-120,-120,114.bmp,120,-120,115.bmp,-120,120,116.bmp,120,120,9290.900000095367,804947.4000000954,9067,no,SM,A,113.bmp,120,-120,267747,261721,269764,263731,808981.0,802957.0,810998.0,804964.0,56
4,0,0,0,1,46,test,1,1,m,Wed Jun 03 2026 10:48:55 GMT-0400 (Eastern Daylight Time),823471.3000001907,I,m,1182,57,2,117.bmp,-120,-120,118.bmp,120,-120,119.bmp,-120,120,120.bmp,120,120,9225.400000095367,814245.9000000954,9067,no,SM,A,118.bmp,120,120,267747,261721,269764,263731,818281.0,812255.0,820298.0,814264.0,57
3,0,0,1,0,47,test,1,1,z,Wed Jun 03 2026 10:48:55 GMT-0400 (Eastern Daylight Time),832671.7000002861,I,z,1149,58,2,121.bmp,-120,-120,122.bmp,120,-120,123.bmp,-120,120,124.bmp,120,120,9190.700000286102,823481.0,9067,yes,SM,A,123.bmp,-120,120,267747,261721,269764,263731,827514.0,821490.0,829531.0,823498.0,58
2,0,1,0,0,47,test,1,0,m,Wed Jun 03 2026 10:48:55 GMT-0400 (Eastern Daylight Time),842088.2000002861,I,z,1357,59,2,125.bmp,-120,-120,126.bmp,120,-120,127.bmp,-120,120,128.bmp,120,120,9409.0,832679.2000002861,9067,no,SM,A,128.bmp,120,-120,267747,261721,269764,263731,836714.0,830688.0,838731.0,832698.0,59
1,1,0,0,0,48,test,1,1,z,Wed Jun 03 2026 10:48:55 GMT-0400 (Eastern Daylight Time),851338.3000001907,I,z,1188,60,2,129.bmp,-120,-120,130.bmp,120,-120,131.bmp,-120,120,132.bmp,120,120,9241.900000095367,842096.4000000954,9067,yes,SM,A,129.bmp,-120,-120,267747,261721,269764,263731,846131.0,840106.0,848148.0,842115.0,60
2,0,1,0,0,49,test,1,1,z,Wed Jun 03 2026 10:48:55 GMT-0400 (Eastern Daylight Time),860888.2000002861,I,z,1490,61,2,133.bmp,-120,-120,134.bmp,120,-120,135.bmp,-120,120,136.bmp,120,120,9540.900000095367,851347.3000001907,9067,yes,SM,A,134.bmp,120,-120,267747,261721,269764,263731,855381.0,849357.0,857398.0,851364.0,61
4,0,0,0,1,49,test,1,0,z,Wed Jun 03 2026 10:48:55 GMT-0400 (Eastern Daylight Time),869954.8000001907,I,m,1012,62,2,141.bmp,-120,-120,142.bmp,120,-120,143.bmp,-120,120,144.bmp,120,120,9057.900000095367,860896.9000000954,9067,yes,SM,A,144.bmp,120,120,267747,261721,269764,263731,864931.0,858906.0,866948.0,860914.0,62
1,1,0,0,0,50,test,1,1,m,Wed Jun 03 2026 10:48:55 GMT-0400 (Eastern Daylight Time),879555.0,I,m,1546,63,2,145.bmp,-120,-120,146.bmp,120,-120,147.bmp,-120,120,148.bmp,120,120,9593.099999904633,869961.9000000954,9067,no,SM,A,145.bmp,-120,120,267747,261721,269764,263731,873997.0,867971.0,876014.0,869981.0,63
2,0,1,0,0,50,test,1,0,z,Wed Jun 03 2026 10:48:55 GMT-0400 (Eastern Daylight Time),888838.3000001907,I,m,1226,64,2,149.bmp,-120,-120,150.bmp,120,-120,112.bmp,-120,120,101.bmp,120,120,9275.800000190735,879562.5,9067,yes,SM,A,150.bmp,120,-120,267747,261721,269764,263731,883598.0,877572.0,885614.0,879581.0,64
4,0,0,0,1,51,test,1,1,m,Wed Jun 03 2026 10:48:55 GMT-0400 (Eastern Daylight Time),898021.6000003815,I,m,1126,65,2,102.bmp,-120,-120,103.bmp,120,-120,104.bmp,-120,120,105.bmp,120,120,9176.400000095367,888845.2000002861,9067,no,SM,A,104.bmp,120,120,267747,261721,269764,263731,892881.0,886854.0,894898.0,888864.0,65
3,0,0,1,0,52,test,1,1,m,Wed Jun 03 2026 10:48:55 GMT-0400 (Eastern Daylight Time),907271.6000003815,I,m,1191,66,2,106.bmp,-120,-120,107.bmp,120,-120,108.bmp,-120,120,109.bmp,120,120,9240.800000190735,898030.8000001907,9067,no,SM,A,109.bmp,-120,120,267747,261721,269764,263731,902064.0,896040.0,904081.0,898047.0,66
2,0,1,0,0,53,test,1,1,m,Wed Jun 03 2026 10:48:55 GMT-0400 (Eastern Daylight Time),916355.0,I,m,1029,67,2,137.bmp,-120,-120,138.bmp,120,-120,139.bmp,-120,120,140.bmp,120,120,9072.799999713898,907282.2000002861,9067,no,SM,A,139.bmp,120,-120,267747,261721,269764,263731,911314.0,905292.0,913331.0,907297.0,67
3,0,0,1,0,54,test,1,1,z,Wed Jun 03 2026 10:48:55 GMT-0400 (Eastern Daylight Time),925788.3000001907,I,z,1369,68,2,110.bmp,-120,-120,111.bmp,120,-120,112.bmp,-120,120,113.bmp,120,120,9425.800000190735,916362.5,9067,yes,SM,A,112.bmp,-120,120,267747,261721,269764,263731,920398.0,914372.0,922415.0,916381.0,68
1,1,0,0,0,55,test,1,1,m,Wed Jun 03 2026 10:48:55 GMT-0400 (Eastern Daylight Time),934788.3000001907,I,m,944,69,2,114.bmp,-120,-120,115.bmp,120,-120,116.bmp,-120,120,117.bmp,120,120,8992.5,925795.8000001907,9067,no,SM,A,115.bmp,-120,-120,267747,261721,269764,263731,929831.0,923805.0,931848.0,925814.0,69
2,0,1,0,0,56,test,1,1,m,Wed Jun 03 2026 10:48:55 GMT-0400 (Eastern Daylight Time),943821.6000003815,I,m,968,70,2,118.bmp,-120,-120,119.bmp,120,-120,120.bmp,-120,120,121.bmp,120,120,9024.900000095367,934796.7000002861,9067,no,SM,A,120.bmp,120,-120,267747,261721,269764,263731,938831.0,932806.0,940848.0,934814.0,70
4,0,0,0,1,56,test,1,0,z,Wed Jun 03 2026 10:48:55 GMT-0400 (Eastern Daylight Time),953121.7000002861,I,m,1247,71,2,122.bmp,-120,-120,123.bmp,120,-120,124.bmp,-120,120,125.bmp,120,120,9289.800000190735,943831.9000000954,9067,yes,SM,A,125.bmp,120,120,267747,261721,269764,263731,947864.0,941841.0,949881.0,943848.0,71
1,1,0,0,0,57,test,1,1,z,Wed Jun 03 2026 10:48:55 GMT-0400 (Eastern Daylight Time),962188.3000001907,I,z,1003,72,2,126.bmp,-120,-120,127.bmp,120,-120,128.bmp,-120,120,129.bmp,120,120,9058.800000190735,953129.5,9067,yes,SM,A,126.bmp,-120,-120,267747,261721,269764,263731,957164.0,951139.0,959181.0,953148.0,72
2,0,1,0,0,58,test,1,1,z,Wed Jun 03 2026 10:48:55 GMT-0400 (Eastern Daylight Time),971255.1000003815,I,z,1008,73,2,130.bmp,-120,-120,131.bmp,120,-120,132.bmp,-120,120,133.bmp,120,120,9058.400000095367,962196.7000002861,9067,yes,SM,A,131.bmp,120,-120,267747,261721,269764,263731,966231.0,960206.0,968248.0,962215.0,73
4,0,0,0,1,59,test,1,1,m,Wed Jun 03 2026 10:48:55 GMT-0400 (Eastern Daylight Time),980505.0,I,m,1189,74,2,134.bmp,-120,-120,135.bmp,120,-120,136.bmp,-120,120,137.bmp,120,120,9242.799999713898,971262.2000002861,9067,no,SM,A,136.bmp,120,120,267747,261721,269764,263731,975298.0,969271.0,977315.0,971281.0,74
2,0,1,0,0,60,test,1,1,m,Wed Jun 03 2026 10:48:55 GMT-0400 (Eastern Daylight Time),989805.1000003815,I,m,1235,75,2,138.bmp,-120,-120,139.bmp,120,-120,140.bmp,-120,120,141.bmp,120,120,9291.900000095367,980513.2000002861,9067,no,SM,A,141.bmp,120,-120,267747,261721,269764,263731,984548.0,978522.0,986565.0,980531.0,75
1,1,0,0,0,61,test,1,1,z,Wed Jun 03 2026 10:48:55 GMT-0400 (Eastern Daylight Time),998954.9000000954,I,z,1088,76,2,142.bmp,-120,-120,143.bmp,120,-120,144.bmp,-120,120,145.bmp,120,120,9142.599999904633,989812.3000001907,9067,yes,SM,A,142.bmp,-120,-120,267747,261721,269764,263731,993848.0,987822.0,995864.0,989831.0,76
3,0,0,1,0,62,test,1,1,z,Wed Jun 03 2026 10:48:55 GMT-0400 (Eastern Daylight Time),1008538.5,I,z,1521,77,2,150.bmp,-120,-120,111.bmp,120,-120,101.bmp,-120,120,102.bmp,120,120,9575.699999809265,998962.8000001907,9067,yes,SM,A,101.bmp,-120,120,267747,261721,269764,263731,1002998.0,996972.0,1005014.0,998981.0,77
1,1,0,0,0,63,test,1,1,m,Wed Jun 03 2026 10:48:55 GMT-0400 (Eastern Daylight Time),1017871.9000000954,I,m,1282,78,2,146.bmp,-120,-120,147.bmp,120,-120,148.bmp,-120,120,149.bmp,120,120,9324.400000095367,1008547.5,9067,no,SM,A,147.bmp,-120,-120,267747,261721,269764,263731,1012581.0,1006557.0,1014598.0,1008564.0,78
4,0,0,0,1,64,test,1,1,m,Wed Jun 03 2026 10:48:55 GMT-0400 (Eastern Daylight Time),1027071.2000002861,I,m,1148,79,2,107.bmp,-120,-120,108.bmp,120,-120,109.bmp,-120,120,110.bmp,120,120,9193.0,1017878.2000002861,9067,no,SM,A,107.bmp,120,120,267747,261721,269764,263731,1021914.0,1015887.0,1023931.0,1017898.0,79
3,0,0,1,0,65,test,1,1,m,Wed Jun 03 2026 10:48:55 GMT-0400 (Eastern Daylight Time),1036138.3000001907,I,m,1005,80,2,103.bmp,-120,-120,104.bmp,120,-120,105.bmp,-120,120,106.bmp,120,120,9063.0,1027075.3000001907,9067,no,SM,A,106.bmp,-120,120,267747,261721,269764,263731,1031114.0,1025085.0,1033131.0,1027098.0,80
