Number,acc_sum,block,block_c,block_cond,con_img,correct,correct_response,datetime,endtime,jitter,project,response,response_time,row_sel,session_number,start_end,starttime,subject_id,task,task_vers,trial
7,1,prac,1,A,circle.png,1,m,Mon Dec 08 2025 08:26:46 GMT-0600 (Central Standard Time),62448.20000001788,1700,I,m,760,6,3,3227.0,59221.20000001788,8046,NTS,B,1
4,2,prac,1,A,circle.png,1,z,Mon Dec 08 2025 08:26:46 GMT-0600 (Central Standard Time),65213.90000000596,1400,I,z,566,4,3,2758.699999988079,62455.20000001788,8046,NTS,B,2
3,3,prac,1,A,circle.png,1,z,Mon Dec 08 2025 08:26:46 GMT-0600 (Central Standard Time),67813.90000000596,1200,I,z,613,3,3,2593.2999999821186,65220.60000002384,8046,NTS,B,3
2,4,prac,1,A,circle.png,1,z,Mon Dec 08 2025 08:26:46 GMT-0600 (Central Standard Time),71195.10000002384,2000,I,z,590,2,3,3373.300000011921,67821.80000001192,8046,NTS,B,4
3,5,prac,1,A,circle.png,1,z,Mon Dec 08 2025 08:26:46 GMT-0600 (Central Standard Time),73795.90000000596,1200,I,z,615,3,3,2594.9000000059605,71201.0,8046,NTS,B,5
6,6,prac,1,A,circle.png,1,m,Mon Dec 08 2025 08:26:46 GMT-0600 (Central Standard Time),77125.90000000596,1900,I,m,638,5,3,3323.4000000059605,73802.5,8046,NTS,B,6
6,7,prac,1,A,circle.png,1,m,Mon Dec 08 2025 08:26:46 GMT-0600 (Central Standard Time),80492.60000002384,1900,I,m,665,5,3,3362.800000011921,77129.80000001192,8046,NTS,B,7
9,8,prac,1,A,circle.png,1,m,Mon Dec 08 2025 08:26:46 GMT-0600 (Central Standard Time),83275.5,1500,I,m,485,8,3,2775.699999988079,80499.80000001192,8046,NTS,B,8
8,9,prac,1,A,circle.png,1,m,Mon Dec 08 2025 08:26:46 GMT-0600 (Central Standard Time),86123.30000001192,1600,I,m,451,7,3,2841.0999999940395,83282.20000001788,8046,NTS,B,9
1,10,prac,1,A,circle.png,1,z,Mon Dec 08 2025 08:26:46 GMT-0600 (Central Standard Time),88423.70000001788,1000,I,z,520,1,3,2294.5999999940395,86129.10000002384,8046,NTS,B,10
1,11,prac,1,A,circle.png,1,z,Mon Dec 08 2025 08:26:46 GMT-0600 (Central Standard Time),90739.20000001788,1000,I,z,524,1,3,2309.5999999940395,88429.60000002384,8046,NTS,B,11
7,12,prac,1,A,circle.png,1,m,Mon Dec 08 2025 08:26:46 GMT-0600 (Central Standard Time),93703.30000001192,1700,I,m,466,6,3,2958.699999988079,90744.60000002384,8046,NTS,B,12
4,1,prac,1,B,triangle.png,1,m,Mon Dec 08 2025 08:26:46 GMT-0600 (Central Standard Time),122911.60000002384,1500,I,m,869,4,3,3158.9000000059605,119752.70000001788,8046,NTS,B,1
3,2,prac,1,B,triangle.png,1,z,Mon Dec 08 2025 08:26:46 GMT-0600 (Central Standard Time),125962.20000001788,1600,I,z,653,3,3,3042.5,122919.70000001788,8046,NTS,B,2
2,3,prac,1,B,triangle.png,1,m,Mon Dec 08 2025 08:26:46 GMT-0600 (Central Standard Time),129193.80000001192,1700,I,m,736,2,3,3222.4000000059605,125971.40000000596,8046,NTS,B,3
2,4,prac,1,B,triangle.png,1,m,Mon Dec 08 2025 08:26:46 GMT-0600 (Central Standard Time),132260.20000001788,1700,I,m,567,2,3,3058.7000000178814,129201.5,8046,NTS,B,4
4,5,prac,1,B,triangle.png,1,m,Mon Dec 08 2025 08:26:46 GMT-0600 (Central Standard Time),135157.70000001788,1500,I,m,601,4,3,2889.7000000178814,132268.0,8046,NTS,B,5
1,6,prac,1,B,triangle.png,1,z,Mon Dec 08 2025 08:26:46 GMT-0600 (Central Standard Time),138458.20000001788,1900,I,z,625,1,3,3294.0,135164.20000001788,8046,NTS,B,6
6,7,prac,1,B,triangle.png,1,m,Mon Dec 08 2025 08:26:46 GMT-0600 (Central Standard Time),140872.90000000596,1000,I,m,627,5,3,2406.5,138466.40000000596,8046,NTS,B,7
7,8,prac,1,B,triangle.png,1,z,Mon Dec 08 2025 08:26:46 GMT-0600 (Central Standard Time),144555.20000001788,2000,I,z,906,6,3,3676.300000011921,140878.90000000596,8046,NTS,B,8
8,9,prac,1,B,triangle.png,1,m,Mon Dec 08 2025 08:26:46 GMT-0600 (Central Standard Time),147187.40000000596,1200,I,m,640,7,3,2627.4000000059605,144560.0,8046,NTS,B,9
8,10,prac,1,B,triangle.png,1,m,Mon Dec 08 2025 08:26:46 GMT-0600 (Central Standard Time),149771.5,1200,I,m,584,7,3,2576.899999976158,147194.60000002384,8046,NTS,B,10
9,11,prac,1,B,triangle.png,1,z,Mon Dec 08 2025 08:26:46 GMT-0600 (Central Standard Time),152619.10000002384,1400,I,z,658,8,3,2841.2000000178814,149777.90000000596,8046,NTS,B,11
9,12,prac,1,B,triangle.png,1,z,Mon Dec 08 2025 08:26:46 GMT-0600 (Central Standard Time),155684.70000001788,1400,I,z,880,8,3,3059.0,152625.70000001788,8046,NTS,B,12
3,1,test,1,A,circle.png,1,z,Mon Dec 08 2025 08:26:46 GMT-0600 (Central Standard Time),176577.90000000596,1200,I,z,778,3,3,1995.2999999821186,174582.60000002384,8046,NTS,B,1
4,1,test,1,A,circle.png,0,z,Mon Dec 08 2025 08:26:46 GMT-0600 (Central Standard Time),178710.80000001192,1400,I,m,703,4,3,2128.5999999940395,176582.20000001788,8046,NTS,B,2
4,2,test,1,A,circle.png,1,z,Mon Dec 08 2025 08:26:46 GMT-0600 (Central Standard Time),180760.20000001788,1400,I,z,633,4,3,2045.7000000178814,178714.5,8046,NTS,B,3
9,3,test,1,A,circle.png,1,m,Mon Dec 08 2025 08:26:46 GMT-0600 (Central Standard Time),182859.10000002384,1500,I,m,573,8,3,2094.800000011921,180764.30000001192,8046,NTS,B,4
2,4,test,1,A,circle.png,1,z,Mon Dec 08 2025 08:26:46 GMT-0600 (Central Standard Time),185607.70000001788,2000,I,z,721,2,3,2744.800000011921,182862.90000000596,8046,NTS,B,5
1,5,test,1,A,circle.png,1,z,Mon Dec 08 2025 08:26:46 GMT-0600 (Central Standard Time),187257.30000001192,1000,I,z,628,1,3,1645.5999999940395,185611.70000001788,8046,NTS,B,6
6,6,test,1,A,circle.png,1,m,Mon Dec 08 2025 08:26:46 GMT-0600 (Central Standard Time),189774.60000002384,1900,I,m,599,5,3,2513.800000011921,187260.80000001192,8046,NTS,B,7
7,7,test,1,A,circle.png,1,m,Mon Dec 08 2025 08:26:46 GMT-0600 (Central Standard Time),192225.40000000596,1700,I,m,735,6,3,2446.0,189779.40000000596,8046,NTS,B,8
8,8,test,1,A,circle.png,1,m,Mon Dec 08 2025 08:26:46 GMT-0600 (Central Standard Time),194472.90000000596,1600,I,m,621,7,3,2243.9000000059605,192229.0,8046,NTS,B,9
1,9,test,1,A,circle.png,1,z,Mon Dec 08 2025 08:26:46 GMT-0600 (Central Standard Time),196122.30000001192,1000,I,z,619,1,3,1644.5,194477.80000001192,8046,NTS,B,10
7,10,test,1,A,circle.png,1,m,Mon Dec 08 2025 08:26:46 GMT-0600 (Central Standard Time),198603.40000000596,1700,I,m,750,6,3,2478.0999999940395,196125.30000001192,8046,NTS,B,11
4,11,test,1,A,circle.png,1,z,Mon Dec 08 2025 08:26:46 GMT-0600 (Central Standard Time),200587.90000000596,1400,I,z,560,4,3,1980.0,198607.90000000596,8046,NTS,B,12
7,12,test,1,A,circle.png,1,m,Mon Dec 08 2025 08:26:46 GMT-0600 (Central Standard Time),202918.70000001788,1700,I,m,613,6,3,2326.7000000178814,200592.0,8046,NTS,B,13
2,13,test,1,A,circle.png,1,z,Mon Dec 08 2025 08:26:46 GMT-0600 (Central Standard Time),205470.90000000596,2000,I,z,534,2,3,2549.5999999940395,202921.30000001192,8046,NTS,B,14
3,14,test,1,A,circle.png,1,z,Mon Dec 08 2025 08:26:46 GMT-0600 (Central Standard Time),207284.60000002384,1200,I,z,592,3,3,1810.0,205474.60000002384,8046,NTS,B,15
3,15,test,1,A,circle.png,1,z,Mon Dec 08 2025 08:26:46 GMT-0600 (Central Standard Time),208950.70000001788,1200,I,z,437,3,3,1663.0999999940395,207287.60000002384,8046,NTS,B,16
7,16,test,1,A,circle.png,1,m,Mon Dec 08 2025 08:26:46 GMT-0600 (Central Standard Time),211266.90000000596,1700,I,m,584,6,3,2313.5,208953.40000000596,8046,NTS,B,17
8,17,test,1,A,circle.png,1,m,Mon Dec 08 2025 08:26:46 GMT-0600 (Central Standard Time),213566.70000001788,1600,I,m,673,7,3,2294.300000011921,211272.40000000596,8046,NTS,B,18
6,18,test,1,A,circle.png,1,m,Mon Dec 08 2025 08:26:46 GMT-0600 (Central Standard Time),215999.10000002384,1900,I,m,516,5,3,2428.2000000178814,213570.90000000596,8046,NTS,B,19
6,19,test,1,A,circle.png,1,m,Mon Dec 08 2025 08:26:46 GMT-0600 (Central Standard Time),218881.20000001788,1900,I,m,960,5,3,2875.9000000059605,216005.30000001192,8046,NTS,B,20
3,20,test,1,A,circle.png,1,z,Mon Dec 08 2025 08:26:46 GMT-0600 (Central Standard Time),221131.80000001192,1200,I,z,1028,3,3,2246.5999999940395,218885.20000001788,8046,NTS,B,21
8,21,test,1,A,circle.png,1,m,Mon Dec 08 2025 08:26:46 GMT-0600 (Central Standard Time),223412.80000001192,1600,I,m,656,7,3,2278.4000000059605,221134.40000000596,8046,NTS,B,22
9,22,test,1,A,circle.png,1,m,Mon Dec 08 2025 08:26:46 GMT-0600 (Central Standard Time),225762.5,1500,I,m,818,8,3,2344.199999988079,223418.30000001192,8046,NTS,B,23
2,23,test,1,A,circle.png,1,z,Mon Dec 08 2025 08:26:46 GMT-0600 (Central Standard Time),228311.60000002384,2000,I,z,522,2,3,2543.600000023842,225768.0,8046,NTS,B,24
1,1,test,1,B,triangle.png,1,z,Mon Dec 08 2025 08:26:46 GMT-0600 (Central Standard Time),241624.40000000596,1900,I,z,706,1,3,2626.699999988079,238997.70000001788,8046,NTS,B,1
6,2,test,1,B,triangle.png,1,m,Mon Dec 08 2025 08:26:46 GMT-0600 (Central Standard Time),243308.60000002384,1000,I,m,658,5,3,1679.300000011921,241629.30000001192,8046,NTS,B,2
8,3,test,1,B,triangle.png,1,m,Mon Dec 08 2025 08:26:46 GMT-0600 (Central Standard Time),245173.0,1200,I,m,648,7,3,1859.2999999821186,243313.70000001788,8046,NTS,B,3
3,4,test,1,B,triangle.png,1,z,Mon Dec 08 2025 08:26:46 GMT-0600 (Central Standard Time),247438.80000001192,1600,I,z,638,3,3,2262.0999999940395,245176.70000001788,8046,NTS,B,4
3,5,test,1,B,triangle.png,1,z,Mon Dec 08 2025 08:26:46 GMT-0600 (Central Standard Time),250154.5,2000,I,z,686,11,3,2712.199999988079,247442.30000001192,8046,NTS,B,5
8,6,test,1,B,triangle.png,1,m,Mon Dec 08 2025 08:26:46 GMT-0600 (Central Standard Time),252505.5,1700,I,m,634,15,3,2347.899999976158,250157.60000002384,8046,NTS,B,6
9,7,test,1,B,triangle.png,1,z,Mon Dec 08 2025 08:26:46 GMT-0600 (Central Standard Time),255268.90000000596,1900,I,z,849,16,3,2758.4000000059605,252510.5,8046,NTS,B,7
4,8,test,1,B,triangle.png,1,m,Mon Dec 08 2025 08:26:46 GMT-0600 (Central Standard Time),257687.90000000596,1500,I,m,889,4,3,2411.0999999940395,255276.80000001192,8046,NTS,B,8
1,9,test,1,B,triangle.png,1,z,Mon Dec 08 2025 08:26:46 GMT-0600 (Central Standard Time),260284.90000000596,1900,I,z,673,1,3,2592.0999999940395,257692.80000001192,8046,NTS,B,9
7,10,test,1,B,triangle.png,1,z,Mon Dec 08 2025 08:26:46 GMT-0600 (Central Standard Time),262633.90000000596,1600,I,z,730,14,3,2344.4000000059605,260289.5,8046,NTS,B,10
3,11,test,1,B,triangle.png,1,z,Mon Dec 08 2025 08:26:46 GMT-0600 (Central Standard Time),265233.40000000596,2000,I,z,578,11,3,2596.0,262637.40000000596,8046,NTS,B,11
4,12,test,1,B,triangle.png,1,m,Mon Dec 08 2025 08:26:46 GMT-0600 (Central Standard Time),266982.8000000119,1000,I,m,723,12,3,1744.5,265238.3000000119,8046,NTS,B,12
2,13,test,1,B,triangle.png,1,m,Mon Dec 08 2025 08:26:46 GMT-0600 (Central Standard Time),268997.2000000179,1200,I,m,790,10,3,2009.4000000059605,266987.8000000119,8046,NTS,B,13
2,14,test,1,B,triangle.png,1,m,Mon Dec 08 2025 08:26:46 GMT-0600 (Central Standard Time),271298.7000000179,1700,I,m,570,2,3,2298.7000000178814,269000.0,8046,NTS,B,14
9,15,test,1,B,triangle.png,1,z,Mon Dec 08 2025 08:26:46 GMT-0600 (Central Standard Time),273364.7000000179,1400,I,z,633,8,3,2061.5,271303.2000000179,8046,NTS,B,15
4,16,test,1,B,triangle.png,1,m,Mon Dec 08 2025 08:26:46 GMT-0600 (Central Standard Time),275629.2000000179,1500,I,m,741,4,3,2261.7000000178814,273367.5,8046,NTS,B,16
2,17,test,1,B,triangle.png,1,m,Mon Dec 08 2025 08:26:46 GMT-0600 (Central Standard Time),277631.0,1200,I,m,774,10,3,1996.3999999761581,275634.60000002384,8046,NTS,B,17
9,18,test,1,B,triangle.png,1,z,Mon Dec 08 2025 08:26:46 GMT-0600 (Central Standard Time),279795.3000000119,1400,I,z,735,8,3,2159.0999999940395,277636.2000000179,8046,NTS,B,18
4,19,test,1,B,triangle.png,1,m,Mon Dec 08 2025 08:26:46 GMT-0600 (Central Standard Time),281478.60000002384,1000,I,m,667,12,3,1679.6000000238419,279799.0,8046,NTS,B,19
8,20,test,1,B,triangle.png,1,m,Mon Dec 08 2025 08:26:46 GMT-0600 (Central Standard Time),283760.5,1700,I,m,564,15,3,2278.199999988079,281482.3000000119,8046,NTS,B,20
6,21,test,1,B,triangle.png,1,m,Mon Dec 08 2025 08:26:46 GMT-0600 (Central Standard Time),285860.7000000179,1500,I,m,576,13,3,2093.5,283767.2000000179,8046,NTS,B,21
9,22,test,1,B,triangle.png,1,z,Mon Dec 08 2025 08:26:46 GMT-0600 (Central Standard Time),288442.2000000179,1900,I,z,653,16,3,2576.9000000059605,285865.3000000119,8046,NTS,B,22
1,23,test,1,B,triangle.png,1,z,Mon Dec 08 2025 08:26:46 GMT-0600 (Central Standard Time),290491.8000000119,1400,I,z,626,9,3,2046.5999999940395,288445.2000000179,8046,NTS,B,23
7,24,test,1,B,triangle.png,1,z,Mon Dec 08 2025 08:26:46 GMT-0600 (Central Standard Time),293258.10000002384,2000,I,z,737,6,3,2763.7000000178814,290494.40000000596,8046,NTS,B,24
9,1,prac,1,C,circle.png,1,m,Mon Dec 08 2025 08:26:46 GMT-0600 (Central Standard Time),328562.3000000119,1900,I,m,1067,8,3,3759.300000011921,324803.0,8046,NTS,B,1
1,2,prac,1,C,circle.png,1,z,Mon Dec 08 2025 08:26:46 GMT-0600 (Central Standard Time),331862.2000000179,1700,I,z,816,1,3,3293.800000011921,328568.40000000596,8046,NTS,B,2
6,3,prac,1,C,circle.png,1,m,Mon Dec 08 2025 08:26:46 GMT-0600 (Central Standard Time),335527.8000000119,2000,I,m,870,5,3,3661.5,331866.3000000119,8046,NTS,B,3
9,4,prac,1,C,circle.png,1,m,Mon Dec 08 2025 08:26:46 GMT-0600 (Central Standard Time),339510.40000000596,1900,I,m,1299,8,3,3975.699999988079,335534.7000000179,8046,NTS,B,4
3,5,prac,1,C,triangle.png,1,z,Mon Dec 08 2025 08:26:46 GMT-0600 (Central Standard Time),342774.60000002384,1500,I,z,971,3,3,3258.2000000178814,339516.40000000596,8046,NTS,B,5
7,6,prac,1,C,triangle.png,1,z,Mon Dec 08 2025 08:26:46 GMT-0600 (Central Standard Time),345641.2000000179,1200,I,z,875,6,3,2861.5,342779.7000000179,8046,NTS,B,6
1,7,prac,1,C,circle.png,1,z,Mon Dec 08 2025 08:26:46 GMT-0600 (Central Standard Time),349023.3000000119,1700,I,z,886,1,3,3375.9000000059605,345647.40000000596,8046,NTS,B,7
2,8,prac,1,C,triangle.png,1,m,Mon Dec 08 2025 08:26:46 GMT-0600 (Central Standard Time),352673.0,1600,I,m,1269,2,3,3642.2999999821186,349030.7000000179,8046,NTS,B,8
7,9,prac,1,C,triangle.png,1,z,Mon Dec 08 2025 08:26:46 GMT-0600 (Central Standard Time),355754.10000002384,1200,I,z,1092,6,3,3071.5,352682.60000002384,8046,NTS,B,9
4,10,prac,1,C,circle.png,1,z,Mon Dec 08 2025 08:26:46 GMT-0600 (Central Standard Time),358403.5,1000,I,z,867,4,3,2641.0999999940395,355762.40000000596,8046,NTS,B,10
8,11,prac,1,C,triangle.png,1,m,Mon Dec 08 2025 08:26:46 GMT-0600 (Central Standard Time),361669.40000000596,1400,I,m,1073,7,3,3258.7999999821186,358410.60000002384,8046,NTS,B,11
6,12,prac,1,C,circle.png,1,m,Mon Dec 08 2025 08:26:46 GMT-0600 (Central Standard Time),365167.60000002384,2000,I,m,700,5,3,3490.9000000059605,361676.7000000179,8046,NTS,B,12
3,1,test,1,C,triangle.png,1,z,Mon Dec 08 2025 08:26:46 GMT-0600 (Central Standard Time),383212.40000000596,1200,I,z,1177,3,3,2396.2999999821186,380816.10000002384,8046,NTS,B,1
4,2,test,1,C,circle.png,1,z,Mon Dec 08 2025 08:26:46 GMT-0600 (Central Standard Time),386111.40000000596,1400,I,z,1472,4,3,2894.199999988079,383217.2000000179,8046,NTS,B,2
6,3,test,1,C,circle.png,1,m,Mon Dec 08 2025 08:26:46 GMT-0600 (Central Standard Time),388811.10000002384,1900,I,m,769,5,3,2694.2000000178814,386116.90000000596,8046,NTS,B,3
3,4,test,1,C,circle.png,1,z,Mon Dec 08 2025 08:26:46 GMT-0600 (Central Standard Time),391760.2000000179,1600,I,z,1332,11,3,2945.9000000059605,388814.3000000119,8046,NTS,B,4
8,4,test,1,C,triangle.png,0,m,Mon Dec 08 2025 08:26:46 GMT-0600 (Central Standard Time),394892.7000000179,1600,I,None,1516,23,3,3127.5,391765.2000000179,8046,NTS,B,5
7,5,test,1,C,triangle.png,1,z,Mon Dec 08 2025 08:26:46 GMT-0600 (Central Standard Time),397607.10000002384,1700,I,z,982,22,3,2709.0,394898.10000002384,8046,NTS,B,6
6,6,test,1,C,circle.png,1,m,Mon Dec 08 2025 08:26:46 GMT-0600 (Central Standard Time),400374.7000000179,1900,I,m,848,21,3,2761.7000000178814,397613.0,8046,NTS,B,7
8,7,test,1,C,triangle.png,1,m,Mon Dec 08 2025 08:26:46 GMT-0600 (Central Standard Time),403222.90000000596,1600,I,m,1222,7,3,2841.199999988079,400381.7000000179,8046,NTS,B,8
7,8,test,1,C,triangle.png,1,z,Mon Dec 08 2025 08:26:46 GMT-0600 (Central Standard Time),406004.90000000596,1700,I,z,1059,6,3,2778.0999999940395,403226.8000000119,8046,NTS,B,9
8,9,test,1,C,circle.png,1,m,Mon Dec 08 2025 08:26:46 GMT-0600 (Central Standard Time),408120.40000000596,1200,I,m,887,15,3,2110.5999999940395,406009.8000000119,8046,NTS,B,10
2,10,test,1,C,circle.png,1,z,Mon Dec 08 2025 08:26:46 GMT-0600 (Central Standard Time),410503.3000000119,1700,I,z,664,10,3,2378.699999988079,408124.60000002384,8046,NTS,B,11
9,11,test,1,C,circle.png,1,m,Mon Dec 08 2025 08:26:46 GMT-0600 (Central Standard Time),413453.40000000596,1500,I,m,1426,24,3,2947.199999988079,410506.2000000179,8046,NTS,B,12
4,12,test,1,C,triangle.png,1,m,Mon Dec 08 2025 08:26:46 GMT-0600 (Central Standard Time),416251.60000002384,1500,I,m,1275,12,3,2794.800000011921,413456.8000000119,8046,NTS,B,13
7,13,test,1,C,circle.png,1,m,Mon Dec 08 2025 08:26:46 GMT-0600 (Central Standard Time),419101.10000002384,2000,I,m,824,14,3,2845.300000011921,416255.8000000119,8046,NTS,B,14
9,14,test,1,C,circle.png,1,m,Mon Dec 08 2025 08:26:46 GMT-0600 (Central Standard Time),421634.8000000119,1500,I,m,1012,8,3,2529.5,419105.3000000119,8046,NTS,B,15
2,15,test,1,C,triangle.png,1,m,Mon Dec 08 2025 08:26:46 GMT-0600 (Central Standard Time),424832.3000000119,2000,I,m,1166,2,3,3194.300000011921,421638.0,8046,NTS,B,16
1,16,test,1,C,triangle.png,1,z,Mon Dec 08 2025 08:26:46 GMT-0600 (Central Standard Time),427748.10000002384,1900,I,z,984,17,3,2911.5,424836.60000002384,8046,NTS,B,17
1,17,test,1,C,circle.png,1,z,Mon Dec 08 2025 08:26:46 GMT-0600 (Central Standard Time),429531.0,1000,I,z,760,1,3,1780.199999988079,427750.8000000119,8046,NTS,B,18
3,18,test,1,C,circle.png,1,z,Mon Dec 08 2025 08:26:46 GMT-0600 (Central Standard Time),432262.8000000119,1600,I,z,1105,19,3,2729.0,429533.8000000119,8046,NTS,B,19
1,19,test,1,C,triangle.png,1,z,Mon Dec 08 2025 08:26:46 GMT-0600 (Central Standard Time),434762.40000000596,1900,I,z,576,9,3,2497.0999999940395,432265.3000000119,8046,NTS,B,20
4,20,test,1,C,triangle.png,1,m,Mon Dec 08 2025 08:26:46 GMT-0600 (Central Standard Time),437128.60000002384,1500,I,m,838,20,3,2361.4000000059605,434767.2000000179,8046,NTS,B,21
2,21,test,1,C,circle.png,1,z,Mon Dec 08 2025 08:26:46 GMT-0600 (Central Standard Time),439678.8000000119,1700,I,z,826,18,3,2546.0999999940395,437132.7000000179,8046,NTS,B,22
6,22,test,1,C,triangle.png,1,m,Mon Dec 08 2025 08:26:46 GMT-0600 (Central Standard Time),441676.40000000596,1000,I,m,974,13,3,1994.9000000059605,439681.5,8046,NTS,B,23
9,23,test,1,C,triangle.png,1,z,Mon Dec 08 2025 08:26:46 GMT-0600 (Central Standard Time),444441.60000002384,1400,I,z,1342,16,3,2762.800000011921,441678.8000000119,8046,NTS,B,24
9,1,test,2,C,circle.png,1,m,Mon Dec 08 2025 08:26:46 GMT-0600 (Central Standard Time),458606.0,1500,I,m,758,8,3,2277.5999999940395,456328.40000000596,8046,NTS,B,1
6,2,test,2,C,circle.png,1,m,Mon Dec 08 2025 08:26:46 GMT-0600 (Central Standard Time),461438.3000000119,1900,I,m,900,5,3,2828.199999988079,458610.10000002384,8046,NTS,B,2
4,3,test,2,C,triangle.png,1,m,Mon Dec 08 2025 08:26:46 GMT-0600 (Central Standard Time),463952.5,1500,I,m,987,20,3,2510.199999988079,461442.3000000119,8046,NTS,B,3
3,4,test,2,C,triangle.png,1,z,Mon Dec 08 2025 08:26:46 GMT-0600 (Central Standard Time),466168.90000000596,1200,I,z,988,3,3,2211.199999988079,463957.7000000179,8046,NTS,B,4
8,5,test,2,C,circle.png,1,m,Mon Dec 08 2025 08:26:46 GMT-0600 (Central Standard Time),468085.3000000119,1200,I,m,692,15,3,1912.9000000059605,466172.40000000596,8046,NTS,B,5
7,6,test,2,C,circle.png,1,m,Mon Dec 08 2025 08:26:46 GMT-0600 (Central Standard Time),470986.0,2000,I,m,882,22,3,2893.2999999821186,468092.7000000179,8046,NTS,B,6
7,7,test,2,C,circle.png,1,m,Mon Dec 08 2025 08:26:46 GMT-0600 (Central Standard Time),473900.5,2000,I,m,893,14,3,2910.0999999940395,470990.40000000596,8046,NTS,B,7
8,8,test,2,C,circle.png,1,m,Mon Dec 08 2025 08:26:46 GMT-0600 (Central Standard Time),475849.10000002384,1200,I,m,730,23,3,1943.9000000059605,473905.2000000179,8046,NTS,B,8
3,9,test,2,C,circle.png,1,z,Mon Dec 08 2025 08:26:46 GMT-0600 (Central Standard Time),478533.5,1600,I,z,1061,11,3,2677.2999999821186,475856.2000000179,8046,NTS,B,9
8,10,test,2,C,triangle.png,1,m,Mon Dec 08 2025 08:26:46 GMT-0600 (Central Standard Time),480980.8000000119,1600,I,m,817,7,3,2442.0999999940395,478538.7000000179,8046,NTS,B,10
1,11,test,2,C,circle.png,1,z,Mon Dec 08 2025 08:26:46 GMT-0600 (Central Standard Time),482731.0,1000,I,z,726,1,3,1743.0999999940395,480987.90000000596,8046,NTS,B,11
2,12,test,2,C,circle.png,1,z,Mon Dec 08 2025 08:26:46 GMT-0600 (Central Standard Time),485213.2000000179,1700,I,z,758,10,3,2475.2000000178814,482738.0,8046,NTS,B,12
6,13,test,2,C,triangle.png,1,m,Mon Dec 08 2025 08:26:46 GMT-0600 (Central Standard Time),487045.7000000179,1000,I,m,800,21,3,1828.2000000178814,485217.5,8046,NTS,B,13
1,14,test,2,C,triangle.png,1,z,Mon Dec 08 2025 08:26:46 GMT-0600 (Central Standard Time),489645.0,1900,I,z,668,17,3,2593.5999999940395,487051.40000000596,8046,NTS,B,14
9,15,test,2,C,triangle.png,1,z,Mon Dec 08 2025 08:26:46 GMT-0600 (Central Standard Time),492461.2000000179,1400,I,z,1379,16,3,2810.2000000178814,489651.0,8046,NTS,B,15
9,16,test,2,C,triangle.png,1,z,Mon Dec 08 2025 08:26:46 GMT-0600 (Central Standard Time),494563.2000000179,1400,I,z,672,24,3,2098.0999999940395,492465.10000002384,8046,NTS,B,16
2,17,test,2,C,triangle.png,1,m,Mon Dec 08 2025 08:26:46 GMT-0600 (Central Standard Time),497626.8000000119,2000,I,m,1039,2,3,3057.5,494569.3000000119,8046,NTS,B,17
1,18,test,2,C,triangle.png,1,z,Mon Dec 08 2025 08:26:46 GMT-0600 (Central Standard Time),500341.8000000119,1900,I,z,799,9,3,2712.0,497629.8000000119,8046,NTS,B,18
4,19,test,2,C,circle.png,1,z,Mon Dec 08 2025 08:26:46 GMT-0600 (Central Standard Time),502674.10000002384,1400,I,z,911,4,3,2327.2000000178814,500346.90000000596,8046,NTS,B,19
3,20,test,2,C,circle.png,1,z,Mon Dec 08 2025 08:26:46 GMT-0600 (Central Standard Time),505106.60000002384,1600,I,z,810,19,3,2426.7000000178814,502679.90000000596,8046,NTS,B,20
4,21,test,2,C,triangle.png,1,m,Mon Dec 08 2025 08:26:46 GMT-0600 (Central Standard Time),507455.60000002384,1500,I,m,820,12,3,2344.0,505111.60000002384,8046,NTS,B,21
2,22,test,2,C,circle.png,1,z,Mon Dec 08 2025 08:26:46 GMT-0600 (Central Standard Time),510205.3000000119,1700,I,z,1016,18,3,2743.9000000059605,507461.40000000596,8046,NTS,B,22
7,23,test,2,C,triangle.png,1,z,Mon Dec 08 2025 08:26:46 GMT-0600 (Central Standard Time),513038.90000000596,1700,I,z,1100,6,3,2829.2999999821186,510209.60000002384,8046,NTS,B,23
6,24,test,2,C,triangle.png,1,m,Mon Dec 08 2025 08:26:46 GMT-0600 (Central Standard Time),514871.0,1000,I,m,817,13,3,1826.5999999940395,513044.40000000596,8046,NTS,B,24
6,1,test,3,C,triangle.png,1,m,Mon Dec 08 2025 08:26:46 GMT-0600 (Central Standard Time),526618.7000000179,1000,I,m,854,13,3,1876.0,524742.7000000179,8046,NTS,B,1
4,2,test,3,C,circle.png,1,z,Mon Dec 08 2025 08:26:46 GMT-0600 (Central Standard Time),528732.8000000119,1400,I,z,693,20,3,2103.5999999940395,526629.2000000179,8046,NTS,B,2
1,3,test,3,C,circle.png,1,z,Mon Dec 08 2025 08:26:46 GMT-0600 (Central Standard Time),530617.1000000238,1000,I,z,855,1,3,1881.1000000238419,528736.0,8046,NTS,B,3
1,4,test,3,C,circle.png,1,z,Mon Dec 08 2025 08:26:46 GMT-0600 (Central Standard Time),532180.5,1000,I,z,532,17,3,1559.0,530621.5,8046,NTS,B,4
3,5,test,3,C,circle.png,1,z,Mon Dec 08 2025 08:26:46 GMT-0600 (Central Standard Time),534479.8000000119,1600,I,z,670,11,3,2296.199999988079,532183.6000000238,8046,NTS,B,5
7,6,test,3,C,circle.png,1,m,Mon Dec 08 2025 08:26:46 GMT-0600 (Central Standard Time),537413.3000000119,2000,I,m,908,14,3,2930.5999999940395,534482.7000000179,8046,NTS,B,6
8,7,test,3,C,triangle.png,1,m,Mon Dec 08 2025 08:26:46 GMT-0600 (Central Standard Time),539931.0,1600,I,m,887,23,3,2514.7999999821186,537416.2000000179,8046,NTS,B,7
8,8,test,3,C,circle.png,1,m,Mon Dec 08 2025 08:26:46 GMT-0600 (Central Standard Time),541928.0,1200,I,m,771,15,3,1993.2999999821186,539934.7000000179,8046,NTS,B,8
1,9,test,3,C,triangle.png,1,z,Mon Dec 08 2025 08:26:46 GMT-0600 (Central Standard Time),544560.5,1900,I,z,703,9,3,2628.899999976158,541931.6000000238,8046,NTS,B,9
3,10,test,3,C,triangle.png,1,z,Mon Dec 08 2025 08:26:46 GMT-0600 (Central Standard Time),546661.0,1200,I,z,882,3,3,2097.199999988079,544563.8000000119,8046,NTS,B,10
4,11,test,3,C,circle.png,1,z,Mon Dec 08 2025 08:26:46 GMT-0600 (Central Standard Time),548992.6000000238,1400,I,z,912,4,3,2328.300000011921,546664.3000000119,8046,NTS,B,11
7,12,test,3,C,triangle.png,1,z,Mon Dec 08 2025 08:26:46 GMT-0600 (Central Standard Time),551641.8000000119,1700,I,z,919,6,3,2645.199999988079,548996.6000000238,8046,NTS,B,12
8,13,test,3,C,triangle.png,1,m,Mon Dec 08 2025 08:26:46 GMT-0600 (Central Standard Time),554124.7000000179,1600,I,m,849,7,3,2478.300000011921,551646.400000006,8046,NTS,B,13
6,14,test,3,C,circle.png,1,m,Mon Dec 08 2025 08:26:46 GMT-0600 (Central Standard Time),556757.900000006,1900,I,m,700,5,3,2629.5,554128.400000006,8046,NTS,B,14
6,15,test,3,C,circle.png,1,m,Mon Dec 08 2025 08:26:46 GMT-0600 (Central Standard Time),559305.900000006,1900,I,m,619,21,3,2543.199999988079,556762.7000000179,8046,NTS,B,15
4,16,test,3,C,triangle.png,1,m,Mon Dec 08 2025 08:26:46 GMT-0600 (Central Standard Time),561870.7000000179,1500,I,m,1040,12,3,2558.0,559312.7000000179,8046,NTS,B,16
2,17,test,3,C,triangle.png,1,m,Mon Dec 08 2025 08:26:46 GMT-0600 (Central Standard Time),564670.5,2000,I,m,772,18,3,2797.0999999940395,561873.400000006,8046,NTS,B,17
9,18,test,3,C,triangle.png,1,z,Mon Dec 08 2025 08:26:46 GMT-0600 (Central Standard Time),567204.5,1400,I,z,1101,16,3,2528.0999999940395,564676.400000006,8046,NTS,B,18
3,19,test,3,C,triangle.png,1,z,Mon Dec 08 2025 08:26:46 GMT-0600 (Central Standard Time),569736.1000000238,1200,I,z,1305,19,3,2525.9000000059605,567210.2000000179,8046,NTS,B,19
9,20,test,3,C,circle.png,1,m,Mon Dec 08 2025 08:26:46 GMT-0600 (Central Standard Time),572118.8000000119,1500,I,m,856,24,3,2378.0,569740.8000000119,8046,NTS,B,20
2,21,test,3,C,circle.png,1,z,Mon Dec 08 2025 08:26:46 GMT-0600 (Central Standard Time),574884.5,1700,I,z,1029,10,3,2760.0999999940395,572124.400000006,8046,NTS,B,21
7,22,test,3,C,triangle.png,1,z,Mon Dec 08 2025 08:26:46 GMT-0600 (Central Standard Time),577500.7000000179,1700,I,z,890,22,3,2609.2000000178814,574891.5,8046,NTS,B,22
9,23,test,3,C,circle.png,1,m,Mon Dec 08 2025 08:26:46 GMT-0600 (Central Standard Time),579736.6000000238,1500,I,m,707,8,3,2231.9000000059605,577504.7000000179,8046,NTS,B,23
2,23,test,3,C,triangle.png,0,m,Mon Dec 08 2025 08:26:46 GMT-0600 (Central Standard Time),582749.1000000238,2000,I,z,982,2,3,3008.0,579741.1000000238,8046,NTS,B,24
3,1,test,4,C,triangle.png,1,z,Mon Dec 08 2025 08:26:46 GMT-0600 (Central Standard Time),590430.0,1200,I,z,884,3,3,2112.699999988079,588317.3000000119,8046,NTS,B,1
6,2,test,4,C,triangle.png,1,m,Mon Dec 08 2025 08:26:46 GMT-0600 (Central Standard Time),592428.5,1000,I,m,966,13,3,1994.2999999821186,590434.2000000179,8046,NTS,B,2
7,3,test,4,C,triangle.png,1,z,Mon Dec 08 2025 08:26:46 GMT-0600 (Central Standard Time),595028.8000000119,1700,I,z,874,6,3,2592.800000011921,592436.0,8046,NTS,B,3
9,4,test,4,C,triangle.png,1,z,Mon Dec 08 2025 08:26:46 GMT-0600 (Central Standard Time),597178.1000000238,1400,I,z,730,16,3,2146.2000000178814,595031.900000006,8046,NTS,B,4
9,5,test,4,C,circle.png,1,m,Mon Dec 08 2025 08:26:46 GMT-0600 (Central Standard Time),599445.0,1500,I,m,743,8,3,2259.5999999940395,597185.400000006,8046,NTS,B,5
2,5,test,4,C,triangle.png,0,m,Mon Dec 08 2025 08:26:46 GMT-0600 (Central Standard Time),602175.7000000179,2000,I,z,699,2,3,2726.5,599449.2000000179,8046,NTS,B,6
4,5,test,4,C,circle.png,0,z,Mon Dec 08 2025 08:26:46 GMT-0600 (Central Standard Time),605108.8000000119,1400,I,None,1514,20,3,2926.699999988079,602182.1000000238,8046,NTS,B,7
9,6,test,4,C,circle.png,1,m,Mon Dec 08 2025 08:26:46 GMT-0600 (Central Standard Time),607541.5,1500,I,m,907,24,3,2427.199999988079,605114.3000000119,8046,NTS,B,8
2,6,test,4,C,triangle.png,0,m,Mon Dec 08 2025 08:26:46 GMT-0600 (Central Standard Time),610723.2000000179,2000,I,z,1152,18,3,3176.7000000178814,607546.5,8046,NTS,B,9
4,6,test,4,C,triangle.png,0,m,Mon Dec 08 2025 08:26:46 GMT-0600 (Central Standard Time),613756.0,1500,I,None,1512,12,3,3027.699999988079,610728.3000000119,8046,NTS,B,10
1,7,test,4,C,triangle.png,1,z,Mon Dec 08 2025 08:26:46 GMT-0600 (Central Standard Time),616721.900000006,1900,I,z,1047,9,3,2962.199999988079,613759.7000000179,8046,NTS,B,11
1,8,test,4,C,circle.png,1,z,Mon Dec 08 2025 08:26:46 GMT-0600 (Central Standard Time),618520.7000000179,1000,I,z,779,17,3,1795.5,616725.2000000179,8046,NTS,B,12
8,9,test,4,C,triangle.png,1,m,Mon Dec 08 2025 08:26:46 GMT-0600 (Central Standard Time),621386.5,1600,I,m,1236,7,3,2859.699999988079,618526.8000000119,8046,NTS,B,13
2,10,test,4,C,circle.png,1,z,Mon Dec 08 2025 08:26:46 GMT-0600 (Central Standard Time),624402.0,1700,I,z,1285,10,3,3009.899999976158,621392.1000000238,8046,NTS,B,14
8,11,test,4,C,triangle.png,1,m,Mon Dec 08 2025 08:26:46 GMT-0600 (Central Standard Time),626767.5,1600,I,m,746,23,3,2360.5999999940395,624406.900000006,8046,NTS,B,15
1,12,test,4,C,circle.png,1,z,Mon Dec 08 2025 08:26:46 GMT-0600 (Central Standard Time),628518.0,1000,I,z,723,1,3,1747.7999999821186,626770.2000000179,8046,NTS,B,16
3,13,test,4,C,circle.png,1,z,Mon Dec 08 2025 08:26:46 GMT-0600 (Central Standard Time),631383.0,1600,I,z,1238,11,3,2859.899999976158,628523.1000000238,8046,NTS,B,17
4,14,test,4,C,circle.png,1,z,Mon Dec 08 2025 08:26:46 GMT-0600 (Central Standard Time),633933.400000006,1400,I,z,1118,4,3,2545.0999999940395,631388.3000000119,8046,NTS,B,18
8,15,test,4,C,circle.png,1,m,Mon Dec 08 2025 08:26:46 GMT-0600 (Central Standard Time),635897.2000000179,1200,I,m,735,15,3,1958.5,633938.7000000179,8046,NTS,B,19
6,16,test,4,C,circle.png,1,m,Mon Dec 08 2025 08:26:46 GMT-0600 (Central Standard Time),638513.2000000179,1900,I,m,685,21,3,2613.0,635900.2000000179,8046,NTS,B,20
7,17,test,4,C,circle.png,1,m,Mon Dec 08 2025 08:26:46 GMT-0600 (Central Standard Time),641213.900000006,2000,I,m,672,14,3,2697.7999999821186,638516.1000000238,8046,NTS,B,21
7,18,test,4,C,triangle.png,1,z,Mon Dec 08 2025 08:26:46 GMT-0600 (Central Standard Time),643795.2000000179,1700,I,z,852,22,3,2576.0,641219.2000000179,8046,NTS,B,22
3,19,test,4,C,triangle.png,1,z,Mon Dec 08 2025 08:26:46 GMT-0600 (Central Standard Time),645678.7000000179,1200,I,z,664,19,3,1878.5,643800.2000000179,8046,NTS,B,23
6,20,test,4,C,circle.png,1,m,Mon Dec 08 2025 08:26:46 GMT-0600 (Central Standard Time),648311.6000000238,1900,I,m,716,5,3,2627.300000011921,645684.3000000119,8046,NTS,B,24
