acc_sum,block,block_c,block_cond,con_img,correct,correct_response,datetime,endtime,face,jitter,line,project,response,response_time,row_sel,session_number,start_end,starttime,subject_id,task,task_vers,trial
1,prac,1,A,haborder.png,1,z,Wed Sep 03 2025 15:48:57 GMT-0500 (Central Daylight Time),85233.80000019073,CFD-WF-026-008-A.jpg,1600,solid,O,z,1180,10,1,3567.0,81666.80000019073,7212,ATS,B,1
2,prac,1,A,haborder.png,1,z,Wed Sep 03 2025 15:48:57 GMT-0500 (Central Daylight Time),89150.7000002861,CFD-WM-009-009-A.jpg,1900,solid,O,z,1218,8,1,7483.900000095367,81666.80000019073,7212,ATS,B,2
3,prac,1,A,haborder.png,1,m,Wed Sep 03 2025 15:48:57 GMT-0500 (Central Daylight Time),92516.90000009537,CFD-WM-012-007-HC.jpg,1700,solid,O,m,873,9,1,10850.099999904633,81666.80000019073,7212,ATS,B,3
4,prac,1,A,haborder.png,1,m,Wed Sep 03 2025 15:48:57 GMT-0500 (Central Daylight Time),95530.0,CFD-WF-011-006-HC.jpg,1500,solid,O,m,727,11,1,13863.199999809265,81666.80000019073,7212,ATS,B,4
5,prac,1,A,haborder.png,1,z,Wed Sep 03 2025 15:48:57 GMT-0500 (Central Daylight Time),99248.5,CFD-BM-037-041-A.jpg,1600,solid,O,z,1332,2,1,17581.699999809265,81666.80000019073,7212,ATS,B,5
6,prac,1,A,haborder.png,1,z,Wed Sep 03 2025 15:48:57 GMT-0500 (Central Daylight Time),101811.2000002861,CFD-BF-051-043-A.jpg,1000,solid,O,z,778,4,1,20144.400000095367,81666.80000019073,7212,ATS,B,6
7,prac,1,A,haborder.png,1,m,Wed Sep 03 2025 15:48:57 GMT-0500 (Central Daylight Time),105511.2000002861,CFD-BF-035-007-HC.jpg,2000,solid,O,m,910,5,1,23844.400000095367,81666.80000019073,7212,ATS,B,7
8,prac,1,A,haborder.png,1,z,Wed Sep 03 2025 15:48:57 GMT-0500 (Central Daylight Time),108442.80000019073,CFD-BF-050-012-A.jpg,1200,solid,O,z,921,6,1,26776.0,81666.80000019073,7212,ATS,B,8
9,prac,1,A,haborder.png,1,z,Wed Sep 03 2025 15:48:57 GMT-0500 (Central Daylight Time),111491.30000019073,CFD-WF-013-015-A.jpg,1000,solid,O,z,1260,12,1,29824.5,81666.80000019073,7212,ATS,B,9
10,prac,1,A,haborder.png,1,m,Wed Sep 03 2025 15:48:57 GMT-0500 (Central Daylight Time),114657.80000019073,CFD-BM-020-024-HC.jpg,1500,solid,O,m,871,3,1,32991.0,81666.80000019073,7212,ATS,B,10
11,prac,1,A,haborder.png,1,m,Wed Sep 03 2025 15:48:57 GMT-0500 (Central Daylight Time),118586.90000009537,CFD-BM-015-017-HC.jpg,1700,solid,O,m,1421,1,1,36920.09999990463,81666.80000019073,7212,ATS,B,11
12,prac,1,A,haborder.png,1,m,Wed Sep 03 2025 15:48:57 GMT-0500 (Central Daylight Time),121589.40000009537,CFD-WM-011-006-HC.jpg,1400,solid,O,m,826,7,1,39922.59999990463,81666.80000019073,7212,ATS,B,12
0,prac,1,B,mfborder.png,0,z,Wed Sep 03 2025 15:48:57 GMT-0500 (Central Daylight Time),170372.40000009537,CFD-WF-011-006-HC.jpg,1000,dash,O,None,1513,12,1,3297.0999999046326,167075.30000019073,7212,ATS,B,1
1,prac,1,B,mfborder.png,1,z,Wed Sep 03 2025 15:48:57 GMT-0500 (Central Daylight Time),173104.90000009537,CFD-BF-051-043-A.jpg,1000,dash,O,z,940,4,1,6029.599999904633,167075.30000019073,7212,ATS,B,2
2,prac,1,B,mfborder.png,1,m,Wed Sep 03 2025 15:48:57 GMT-0500 (Central Daylight Time),176555.2000002861,CFD-BM-020-024-HC.jpg,1700,dash,O,m,954,1,1,9479.900000095367,167075.30000019073,7212,ATS,B,3
3,prac,1,B,mfborder.png,1,m,Wed Sep 03 2025 15:48:57 GMT-0500 (Central Daylight Time),179920.5,CFD-WM-037-060-A.jpg,1200,dash,O,m,1366,6,1,12845.199999809265,167075.30000019073,7212,ATS,B,4
4,prac,1,B,mfborder.png,1,m,Wed Sep 03 2025 15:48:57 GMT-0500 (Central Daylight Time),183652.09999990463,CFD-BM-037-041-A.jpg,2000,dash,O,m,935,5,1,16576.799999713898,167075.30000019073,7212,ATS,B,5
5,prac,1,B,mfborder.png,1,m,Wed Sep 03 2025 15:48:57 GMT-0500 (Central Daylight Time),186768.7000002861,CFD-BM-041-048-A.jpg,1600,dash,O,m,724,2,1,19693.400000095367,167075.30000019073,7212,ATS,B,6
6,prac,1,B,mfborder.png,1,m,Wed Sep 03 2025 15:48:57 GMT-0500 (Central Daylight Time),190000.90000009537,CFD-WM-012-007-HC.jpg,1600,dash,O,m,843,10,1,22925.599999904633,167075.30000019073,7212,ATS,B,7
7,prac,1,B,mfborder.png,1,m,Wed Sep 03 2025 15:48:57 GMT-0500 (Central Daylight Time),193166.30000019073,CFD-WM-009-009-A.jpg,1700,dash,O,m,676,9,1,26091.0,167075.30000019073,7212,ATS,B,8
8,prac,1,B,mfborder.png,1,z,Wed Sep 03 2025 15:48:57 GMT-0500 (Central Daylight Time),196100.30000019073,CFD-WF-026-008-A.jpg,1500,dash,O,z,631,11,1,29025.0,167075.30000019073,7212,ATS,B,9
9,prac,1,B,mfborder.png,1,z,Wed Sep 03 2025 15:48:57 GMT-0500 (Central Daylight Time),199613.2000002861,CFD-WF-027-007-HC.jpg,1900,dash,O,z,825,8,1,32537.900000095367,167075.30000019073,7212,ATS,B,10
9,prac,1,B,mfborder.png,0,z,Wed Sep 03 2025 15:48:57 GMT-0500 (Central Daylight Time),202929.30000019073,CFD-BF-035-007-HC.jpg,1400,dash,O,m,1133,7,1,35854.0,167075.30000019073,7212,ATS,B,11
10,prac,1,B,mfborder.png,1,z,Wed Sep 03 2025 15:48:57 GMT-0500 (Central Daylight Time),206577.30000019073,CFD-BF-027-013-HC.jpg,1500,dash,O,z,1339,3,1,39502.0,167075.30000019073,7212,ATS,B,12
1,test,1,A,haborder.png,1,m,Wed Sep 03 2025 15:48:57 GMT-0500 (Central Daylight Time),225037.80000019073,CFD-BM-015-017-HC.jpg,1700,solid,O,m,1067,1,1,2798.5999999046326,222239.2000002861,7212,ATS,B,1
2,test,1,A,haborder.png,1,m,Wed Sep 03 2025 15:48:57 GMT-0500 (Central Daylight Time),227370.5,CFD-WF-011-006-HC.jpg,1500,solid,O,m,805,11,1,5131.299999713898,222239.2000002861,7212,ATS,B,2
3,test,1,A,haborder.png,1,z,Wed Sep 03 2025 15:48:57 GMT-0500 (Central Daylight Time),229936.40000009537,CFD-BM-037-041-A.jpg,1600,solid,O,z,935,2,1,7697.199999809265,222239.2000002861,7212,ATS,B,3
4,test,1,A,haborder.png,1,z,Wed Sep 03 2025 15:48:57 GMT-0500 (Central Daylight Time),231617.80000019073,CFD-BF-051-043-A.jpg,1000,solid,O,z,662,4,1,9378.599999904633,222239.2000002861,7212,ATS,B,4
5,test,1,A,haborder.png,1,z,Wed Sep 03 2025 15:48:57 GMT-0500 (Central Daylight Time),233618.7000002861,CFD-WF-013-015-A.jpg,1000,solid,O,z,973,12,1,11379.5,222239.2000002861,7212,ATS,B,5
6,test,1,A,haborder.png,1,z,Wed Sep 03 2025 15:48:57 GMT-0500 (Central Daylight Time),236002.40000009537,CFD-WF-026-008-A.jpg,1600,solid,O,z,752,10,1,13763.199999809265,222239.2000002861,7212,ATS,B,6
7,test,1,A,haborder.png,1,m,Wed Sep 03 2025 15:48:57 GMT-0500 (Central Daylight Time),238450.90000009537,CFD-WM-012-007-HC.jpg,1700,solid,O,m,721,9,1,16211.699999809265,222239.2000002861,7212,ATS,B,7
8,test,1,A,haborder.png,1,z,Wed Sep 03 2025 15:48:57 GMT-0500 (Central Daylight Time),240516.80000019073,CFD-WF-013-015-A.jpg,1000,solid,O,z,1045,12,1,18277.599999904633,222239.2000002861,7212,ATS,B,8
9,test,1,A,haborder.png,1,m,Wed Sep 03 2025 15:48:57 GMT-0500 (Central Daylight Time),243282.90000009537,CFD-BF-035-007-HC.jpg,2000,solid,O,m,735,5,1,21043.699999809265,222239.2000002861,7212,ATS,B,9
10,test,1,A,haborder.png,1,z,Wed Sep 03 2025 15:48:57 GMT-0500 (Central Daylight Time),246148.2000002861,CFD-WM-009-009-A.jpg,1900,solid,O,z,945,8,1,23909.0,222239.2000002861,7212,ATS,B,10
11,test,1,A,haborder.png,1,z,Wed Sep 03 2025 15:48:57 GMT-0500 (Central Daylight Time),247865.5,CFD-BF-051-043-A.jpg,1000,solid,O,z,700,4,1,25626.299999713898,222239.2000002861,7212,ATS,B,11
11,test,1,A,haborder.png,0,m,Wed Sep 03 2025 15:48:57 GMT-0500 (Central Daylight Time),251396.7000002861,CFD-BF-035-007-HC.jpg,2000,solid,O,None,1515,5,1,29157.5,222239.2000002861,7212,ATS,B,12
11,test,1,A,haborder.png,0,z,Wed Sep 03 2025 15:48:57 GMT-0500 (Central Daylight Time),254528.80000019073,CFD-BM-037-041-A.jpg,1600,solid,O,None,1516,2,1,32289.599999904633,222239.2000002861,7212,ATS,B,13
12,test,1,A,haborder.png,1,z,Wed Sep 03 2025 15:48:57 GMT-0500 (Central Daylight Time),257361.90000009537,CFD-WM-009-009-A.jpg,1900,solid,O,z,908,8,1,35122.699999809265,222239.2000002861,7212,ATS,B,14
13,test,1,A,haborder.png,1,m,Wed Sep 03 2025 15:48:57 GMT-0500 (Central Daylight Time),259579.2000002861,CFD-WF-011-006-HC.jpg,1500,solid,O,m,688,11,1,37340.0,222239.2000002861,7212,ATS,B,15
14,test,1,A,haborder.png,1,m,Wed Sep 03 2025 15:48:57 GMT-0500 (Central Daylight Time),262176.59999990463,CFD-BM-020-024-HC.jpg,1500,solid,O,m,1075,3,1,39937.39999961853,222239.2000002861,7212,ATS,B,16
15,test,1,A,haborder.png,1,m,Wed Sep 03 2025 15:48:57 GMT-0500 (Central Daylight Time),264210.2000002861,CFD-WM-011-006-HC.jpg,1400,solid,O,m,608,7,1,41971.0,222239.2000002861,7212,ATS,B,17
16,test,1,A,haborder.png,1,z,Wed Sep 03 2025 15:48:57 GMT-0500 (Central Daylight Time),266193.59999990463,CFD-BF-050-012-A.jpg,1200,solid,O,z,750,6,1,43954.39999961853,222239.2000002861,7212,ATS,B,18
17,test,1,A,haborder.png,1,m,Wed Sep 03 2025 15:48:57 GMT-0500 (Central Daylight Time),268307.5,CFD-WM-011-006-HC.jpg,1400,solid,O,m,687,7,1,46068.2999997139,222239.2000002861,7212,ATS,B,19
18,test,1,A,haborder.png,1,m,Wed Sep 03 2025 15:48:57 GMT-0500 (Central Daylight Time),270576.59999990463,CFD-BM-015-017-HC.jpg,1700,solid,O,m,542,1,1,48337.39999961853,222239.2000002861,7212,ATS,B,20
19,test,1,A,haborder.png,1,m,Wed Sep 03 2025 15:48:57 GMT-0500 (Central Daylight Time),272658.90000009537,CFD-BM-020-024-HC.jpg,1500,solid,O,m,551,3,1,50419.699999809265,222239.2000002861,7212,ATS,B,21
20,test,1,A,haborder.png,1,z,Wed Sep 03 2025 15:48:57 GMT-0500 (Central Daylight Time),274687.90000009537,CFD-BF-050-012-A.jpg,1200,solid,O,z,815,6,1,52448.699999809265,222239.2000002861,7212,ATS,B,22
21,test,1,A,haborder.png,1,m,Wed Sep 03 2025 15:48:57 GMT-0500 (Central Daylight Time),277105.7000002861,CFD-WM-012-007-HC.jpg,1700,solid,O,m,691,9,1,54866.5,222239.2000002861,7212,ATS,B,23
22,test,1,A,haborder.png,1,z,Wed Sep 03 2025 15:48:57 GMT-0500 (Central Daylight Time),279437.80000019073,CFD-WF-026-008-A.jpg,1600,solid,O,z,702,10,1,57198.59999990463,222239.2000002861,7212,ATS,B,24
1,test,1,B,mfborder.png,1,z,Wed Sep 03 2025 15:48:57 GMT-0500 (Central Daylight Time),294681.80000019073,CFD-WF-027-007-HC.jpg,1900,dash,O,z,820,8,1,2748.800000190735,291933.0,7212,ATS,B,1
2,test,1,B,mfborder.png,1,m,Wed Sep 03 2025 15:48:57 GMT-0500 (Central Daylight Time),296866.2000002861,CFD-BM-041-048-A.jpg,1600,dash,O,m,555,2,1,4933.200000286102,291933.0,7212,ATS,B,2
3,test,1,B,mfborder.png,1,z,Wed Sep 03 2025 15:48:57 GMT-0500 (Central Daylight Time),298630.0,CFD-WF-011-006-HC.jpg,1000,dash,O,z,731,12,1,6697.0,291933.0,7212,ATS,B,3
4,test,1,B,mfborder.png,1,m,Wed Sep 03 2025 15:48:57 GMT-0500 (Central Daylight Time),300997.40000009537,CFD-BM-020-024-HC.jpg,1700,dash,O,m,644,1,1,9064.400000095367,291933.0,7212,ATS,B,4
5,test,1,B,mfborder.png,1,z,Wed Sep 03 2025 15:48:57 GMT-0500 (Central Daylight Time),303246.5,CFD-WF-026-008-A.jpg,1500,dash,O,z,716,11,1,11313.5,291933.0,7212,ATS,B,5
6,test,1,B,mfborder.png,1,m,Wed Sep 03 2025 15:48:57 GMT-0500 (Central Daylight Time),305679.59999990463,CFD-BM-020-024-HC.jpg,1700,dash,O,m,710,1,1,13746.599999904633,291933.0,7212,ATS,B,6
7,test,1,B,mfborder.png,1,z,Wed Sep 03 2025 15:48:57 GMT-0500 (Central Daylight Time),308644.90000009537,CFD-BF-027-013-HC.jpg,1500,dash,O,z,1435,3,1,16711.900000095367,291933.0,7212,ATS,B,7
8,test,1,B,mfborder.png,1,z,Wed Sep 03 2025 15:48:57 GMT-0500 (Central Daylight Time),311127.09999990463,CFD-BF-035-007-HC.jpg,1400,dash,O,z,1049,7,1,19194.099999904633,291933.0,7212,ATS,B,8
9,test,1,B,mfborder.png,1,m,Wed Sep 03 2025 15:48:57 GMT-0500 (Central Daylight Time),313510.2000002861,CFD-WM-009-009-A.jpg,1700,dash,O,m,660,9,1,21577.200000286102,291933.0,7212,ATS,B,9
10,test,1,B,mfborder.png,1,z,Wed Sep 03 2025 15:48:57 GMT-0500 (Central Daylight Time),316126.09999990463,CFD-WF-027-007-HC.jpg,1900,dash,O,z,678,8,1,24193.099999904633,291933.0,7212,ATS,B,10
11,test,1,B,mfborder.png,1,z,Wed Sep 03 2025 15:48:57 GMT-0500 (Central Daylight Time),318377.09999990463,CFD-BF-035-007-HC.jpg,1400,dash,O,z,818,7,1,26444.099999904633,291933.0,7212,ATS,B,11
12,test,1,B,mfborder.png,1,z,Wed Sep 03 2025 15:48:57 GMT-0500 (Central Daylight Time),320242.59999990463,CFD-WF-011-006-HC.jpg,1000,dash,O,z,834,12,1,28309.599999904633,291933.0,7212,ATS,B,12
13,test,1,B,mfborder.png,1,m,Wed Sep 03 2025 15:48:57 GMT-0500 (Central Daylight Time),323043.30000019073,CFD-BM-037-041-A.jpg,2000,dash,O,m,765,5,1,31110.300000190735,291933.0,7212,ATS,B,13
14,test,1,B,mfborder.png,1,m,Wed Sep 03 2025 15:48:57 GMT-0500 (Central Daylight Time),325755.59999990463,CFD-BM-037-041-A.jpg,2000,dash,O,m,687,5,1,33822.59999990463,291933.0,7212,ATS,B,14
15,test,1,B,mfborder.png,1,m,Wed Sep 03 2025 15:48:57 GMT-0500 (Central Daylight Time),328204.90000009537,CFD-WM-012-007-HC.jpg,1600,dash,O,m,817,10,1,36271.90000009537,291933.0,7212,ATS,B,15
16,test,1,B,mfborder.png,1,z,Wed Sep 03 2025 15:48:57 GMT-0500 (Central Daylight Time),330670.7000002861,CFD-BF-051-043-A.jpg,1000,dash,O,z,1441,4,1,38737.7000002861,291933.0,7212,ATS,B,16
17,test,1,B,mfborder.png,1,z,Wed Sep 03 2025 15:48:57 GMT-0500 (Central Daylight Time),333203.5,CFD-BF-027-013-HC.jpg,1500,dash,O,z,1012,3,1,41270.5,291933.0,7212,ATS,B,17
18,test,1,B,mfborder.png,1,z,Wed Sep 03 2025 15:48:57 GMT-0500 (Central Daylight Time),335403.09999990463,CFD-BF-051-043-A.jpg,1000,dash,O,z,1173,4,1,43470.09999990463,291933.0,7212,ATS,B,18
19,test,1,B,mfborder.png,1,m,Wed Sep 03 2025 15:48:57 GMT-0500 (Central Daylight Time),337853.09999990463,CFD-WM-012-007-HC.jpg,1600,dash,O,m,827,10,1,45920.09999990463,291933.0,7212,ATS,B,19
20,test,1,B,mfborder.png,1,m,Wed Sep 03 2025 15:48:57 GMT-0500 (Central Daylight Time),339867.90000009537,CFD-WM-037-060-A.jpg,1200,dash,O,m,788,6,1,47934.90000009537,291933.0,7212,ATS,B,20
21,test,1,B,mfborder.png,1,m,Wed Sep 03 2025 15:48:57 GMT-0500 (Central Daylight Time),341851.0,CFD-WM-037-060-A.jpg,1200,dash,O,m,755,6,1,49918.0,291933.0,7212,ATS,B,21
22,test,1,B,mfborder.png,1,z,Wed Sep 03 2025 15:48:57 GMT-0500 (Central Daylight Time),344167.5,CFD-WF-026-008-A.jpg,1500,dash,O,z,785,11,1,52234.5,291933.0,7212,ATS,B,22
23,test,1,B,mfborder.png,1,m,Wed Sep 03 2025 15:48:57 GMT-0500 (Central Daylight Time),346682.40000009537,CFD-WM-009-009-A.jpg,1700,dash,O,m,789,9,1,54749.40000009537,291933.0,7212,ATS,B,23
24,test,1,B,mfborder.png,1,m,Wed Sep 03 2025 15:48:57 GMT-0500 (Central Daylight Time),348914.80000019073,CFD-BM-041-048-A.jpg,1600,dash,O,m,606,2,1,56981.800000190735,291933.0,7212,ATS,B,24
0,11,1,C,haborder.png,0,m,Wed Sep 03 2025 15:48:57 GMT-0500 (Central Daylight Time),398282.90000009537,CFD-WM-011-006-HC.jpg,1000,dash,O,None,1514,prac,1,3298.800000190735,394984.09999990463,7212,ATS,B,1
1,12,1,C,haborder.png,1,m,Wed Sep 03 2025 15:48:57 GMT-0500 (Central Daylight Time),401683.90000009537,CFD-WM-011-006-HC.jpg,1400,solid,O,m,1228,prac,1,6699.800000190735,394984.09999990463,7212,ATS,B,2
1,3,1,C,mfborder.png,0,z,Wed Sep 03 2025 15:48:57 GMT-0500 (Central Daylight Time),404967.0,CFD-BF-035-007-HC.jpg,1000,dash,O,None,1512,prac,1,9982.900000095367,394984.09999990463,7212,ATS,B,3
1,2,1,C,mfborder.png,0,z,Wed Sep 03 2025 15:48:57 GMT-0500 (Central Daylight Time),408664.80000019073,CFD-WF-013-015-A.jpg,1500,solid,O,m,1408,prac,1,13680.700000286102,394984.09999990463,7212,ATS,B,4
1,9,1,C,haborder.png,0,z,Wed Sep 03 2025 15:48:57 GMT-0500 (Central Daylight Time),412563.0,CFD-WF-026-008-A.jpg,1600,dash,O,None,1516,prac,1,17578.900000095367,394984.09999990463,7212,ATS,B,5
1,7,1,C,haborder.png,0,z,Wed Sep 03 2025 15:48:57 GMT-0500 (Central Daylight Time),416728.7000002861,CFD-BF-051-043-A.jpg,1900,dash,O,m,1488,prac,1,21744.60000038147,394984.09999990463,7212,ATS,B,6
1,6,1,C,mfborder.png,0,m,Wed Sep 03 2025 15:48:57 GMT-0500 (Central Daylight Time),420726.7000002861,CFD-WM-009-009-A.jpg,1700,solid,O,None,1516,prac,1,25742.60000038147,394984.09999990463,7212,ATS,B,7
2,1,1,C,mfborder.png,1,z,Wed Sep 03 2025 15:48:57 GMT-0500 (Central Daylight Time),423942.40000009537,CFD-WF-011-006-HC.jpg,1600,dash,O,z,819,prac,1,28958.300000190735,394984.09999990463,7212,ATS,B,8
3,8,1,C,haborder.png,1,z,Wed Sep 03 2025 15:48:57 GMT-0500 (Central Daylight Time),427540.0,CFD-BF-050-012-A.jpg,1700,solid,O,z,1109,prac,1,32555.900000095367,394984.09999990463,7212,ATS,B,9
3,4,1,C,mfborder.png,0,m,Wed Sep 03 2025 15:48:57 GMT-0500 (Central Daylight Time),431823.09999990463,CFD-BM-015-017-HC.jpg,2000,solid,O,None,1501,prac,1,36839.0,394984.09999990463,7212,ATS,B,10
4,5,1,C,mfborder.png,1,m,Wed Sep 03 2025 15:48:57 GMT-0500 (Central Daylight Time),434872.09999990463,CFD-BM-037-041-A.jpg,1200,dash,O,m,1058,prac,1,39888.0,394984.09999990463,7212,ATS,B,11
4,10,1,C,haborder.png,0,m,Wed Sep 03 2025 15:48:57 GMT-0500 (Central Daylight Time),438671.80000019073,CFD-BM-020-024-HC.jpg,1500,solid,O,None,1516,prac,1,43687.7000002861,394984.09999990463,7212,ATS,B,12
0,7,2,C,haborder.png,0,z,Wed Sep 03 2025 15:48:57 GMT-0500 (Central Daylight Time),462579.5,CFD-BF-051-043-A.jpg,1900,dash,O,None,1514,prac,1,67595.40000009537,394984.09999990463,7212,ATS,B,1
0,3,2,C,mfborder.png,0,z,Wed Sep 03 2025 15:48:57 GMT-0500 (Central Daylight Time),465545.5,CFD-BF-035-007-HC.jpg,1000,dash,O,m,1173,prac,1,70561.40000009537,394984.09999990463,7212,ATS,B,2
1,2,2,C,mfborder.png,1,z,Wed Sep 03 2025 15:48:57 GMT-0500 (Central Daylight Time),468727.80000019073,CFD-WF-013-015-A.jpg,1500,solid,O,z,906,prac,1,73743.7000002861,394984.09999990463,7212,ATS,B,3
2,5,2,C,mfborder.png,1,m,Wed Sep 03 2025 15:48:57 GMT-0500 (Central Daylight Time),472042.7000002861,CFD-BM-037-041-A.jpg,1200,dash,O,m,1329,prac,1,77058.60000038147,394984.09999990463,7212,ATS,B,4
3,6,2,C,mfborder.png,1,m,Wed Sep 03 2025 15:48:57 GMT-0500 (Central Daylight Time),475491.09999990463,CFD-WM-009-009-A.jpg,1700,solid,O,m,943,prac,1,80507.0,394984.09999990463,7212,ATS,B,5
4,10,2,C,haborder.png,1,m,Wed Sep 03 2025 15:48:57 GMT-0500 (Central Daylight Time),479041.59999990463,CFD-BM-020-024-HC.jpg,1500,solid,O,m,1250,prac,1,84057.5,394984.09999990463,7212,ATS,B,6
5,9,2,C,haborder.png,1,z,Wed Sep 03 2025 15:48:57 GMT-0500 (Central Daylight Time),482323.7000002861,CFD-WF-026-008-A.jpg,1600,dash,O,z,895,prac,1,87339.60000038147,394984.09999990463,7212,ATS,B,7
6,12,2,C,haborder.png,1,m,Wed Sep 03 2025 15:48:57 GMT-0500 (Central Daylight Time),485521.7000002861,CFD-WM-011-006-HC.jpg,1400,solid,O,m,1016,prac,1,90537.60000038147,394984.09999990463,7212,ATS,B,8
7,1,2,C,mfborder.png,1,z,Wed Sep 03 2025 15:48:57 GMT-0500 (Central Daylight Time),489371.80000019073,CFD-WF-011-006-HC.jpg,1600,dash,O,z,1480,prac,1,94387.7000002861,394984.09999990463,7212,ATS,B,9
7,8,2,C,haborder.png,0,z,Wed Sep 03 2025 15:48:57 GMT-0500 (Central Daylight Time),493370.0,CFD-BF-050-012-A.jpg,1700,solid,O,None,1513,prac,1,98385.90000009537,394984.09999990463,7212,ATS,B,10
7,4,2,C,mfborder.png,0,m,Wed Sep 03 2025 15:48:57 GMT-0500 (Central Daylight Time),497668.30000019073,CFD-BM-015-017-HC.jpg,2000,solid,O,None,1515,prac,1,102684.2000002861,394984.09999990463,7212,ATS,B,11
8,11,2,C,haborder.png,1,m,Wed Sep 03 2025 15:48:57 GMT-0500 (Central Daylight Time),500585.80000019073,CFD-WM-011-006-HC.jpg,1000,dash,O,m,1122,prac,1,105601.7000002861,394984.09999990463,7212,ATS,B,12
0,test,1,C,haborder.png,0,m,Wed Sep 03 2025 15:48:57 GMT-0500 (Central Daylight Time),537090.2000002861,CFD-BF-035-007-HC.jpg,1600,solid,O,None,1517,10,1,3133.2000002861023,533957.0,7212,ATS,B,1
1,test,1,C,haborder.png,1,z,Wed Sep 03 2025 15:48:57 GMT-0500 (Central Daylight Time),539979.5999999046,CFD-BM-037-041-A.jpg,1900,solid,O,z,973,8,1,6022.599999904633,533957.0,7212,ATS,B,2
1,test,1,C,mfborder.png,0,m,Wed Sep 03 2025 15:48:57 GMT-0500 (Central Daylight Time),542703.7000002861,CFD-BM-020-024-HC.jpg,1200,dash,O,None,1515,6,1,8746.700000286102,533957.0,7212,ATS,B,3
2,test,1,C,mfborder.png,1,m,Wed Sep 03 2025 15:48:57 GMT-0500 (Central Daylight Time),545586.3000001907,CFD-WM-037-060-A.jpg,2000,dash,O,m,850,5,1,11629.300000190735,533957.0,7212,ATS,B,4
3,test,1,C,mfborder.png,1,z,Wed Sep 03 2025 15:48:57 GMT-0500 (Central Daylight Time),548269.0999999046,CFD-BF-027-013-HC.jpg,1700,dash,O,z,954,1,1,14312.099999904633,533957.0,7212,ATS,B,5
4,test,1,C,mfborder.png,1,m,Wed Sep 03 2025 15:48:57 GMT-0500 (Central Daylight Time),551135.5999999046,CFD-WM-037-060-A.jpg,2000,dash,O,m,835,5,1,17178.599999904633,533957.0,7212,ATS,B,6
4,test,1,C,haborder.png,0,m,Wed Sep 03 2025 15:48:57 GMT-0500 (Central Daylight Time),553667.8000001907,CFD-WF-011-006-HC.jpg,1000,solid,O,None,1518,12,1,19710.800000190735,533957.0,7212,ATS,B,7
5,test,1,C,haborder.png,1,z,Wed Sep 03 2025 15:48:57 GMT-0500 (Central Daylight Time),556384.0,CFD-BM-041-048-A.jpg,1700,solid,O,z,1000,9,1,22427.0,533957.0,7212,ATS,B,8
6,test,1,C,haborder.png,1,z,Wed Sep 03 2025 15:48:57 GMT-0500 (Central Daylight Time),558749.9000000954,CFD-WM-009-009-A.jpg,1400,solid,O,z,939,7,1,24792.900000095367,533957.0,7212,ATS,B,9
7,test,1,C,haborder.png,1,z,Wed Sep 03 2025 15:48:57 GMT-0500 (Central Daylight Time),561380.5999999046,CFD-BM-041-048-A.jpg,1700,solid,O,z,910,9,1,27423.599999904633,533957.0,7212,ATS,B,10
8,test,1,C,haborder.png,1,m,Wed Sep 03 2025 15:48:57 GMT-0500 (Central Daylight Time),563847.0999999046,CFD-WF-011-006-HC.jpg,1000,solid,O,m,1443,12,1,29890.099999904633,533957.0,7212,ATS,B,11
9,test,1,C,haborder.png,1,m,Wed Sep 03 2025 15:48:57 GMT-0500 (Central Daylight Time),566412.2000002861,CFD-WF-027-007-HC.jpg,1500,solid,O,m,1045,11,1,32455.200000286102,533957.0,7212,ATS,B,12
9,test,1,C,mfborder.png,0,z,Wed Sep 03 2025 15:48:57 GMT-0500 (Central Daylight Time),569544.5999999046,CFD-BF-051-043-A.jpg,1600,dash,O,None,1515,2,1,35587.59999990463,533957.0,7212,ATS,B,13
9,test,1,C,mfborder.png,0,z,Wed Sep 03 2025 15:48:57 GMT-0500 (Central Daylight Time),572777.8000001907,CFD-BF-027-013-HC.jpg,1700,dash,O,None,1517,1,1,38820.800000190735,533957.0,7212,ATS,B,14
10,test,1,C,mfborder.png,1,z,Wed Sep 03 2025 15:48:57 GMT-0500 (Central Daylight Time),575177.0,CFD-WF-026-008-A.jpg,1500,dash,O,z,867,3,1,41220.0,533957.0,7212,ATS,B,15
10,test,1,C,haborder.png,0,z,Wed Sep 03 2025 15:48:57 GMT-0500 (Central Daylight Time),577842.7000002861,CFD-WM-009-009-A.jpg,1400,solid,O,m,1238,7,1,43885.7000002861,533957.0,7212,ATS,B,16
11,test,1,C,mfborder.png,1,m,Wed Sep 03 2025 15:48:57 GMT-0500 (Central Daylight Time),580242.3000001907,CFD-WM-012-007-HC.jpg,1000,dash,O,m,1382,4,1,46285.300000190735,533957.0,7212,ATS,B,17
12,test,1,C,mfborder.png,1,m,Wed Sep 03 2025 15:48:57 GMT-0500 (Central Daylight Time),582157.4000000954,CFD-WM-012-007-HC.jpg,1000,dash,O,m,894,4,1,48200.40000009537,533957.0,7212,ATS,B,18
13,test,1,C,mfborder.png,1,z,Wed Sep 03 2025 15:48:57 GMT-0500 (Central Daylight Time),585089.5,CFD-WF-026-008-A.jpg,1500,dash,O,z,1412,3,1,51132.5,533957.0,7212,ATS,B,19
14,test,1,C,haborder.png,1,z,Wed Sep 03 2025 15:48:57 GMT-0500 (Central Daylight Time),588205.3000001907,CFD-BM-037-041-A.jpg,1900,solid,O,z,1195,8,1,54248.300000190735,533957.0,7212,ATS,B,20
15,test,1,C,mfborder.png,1,z,Wed Sep 03 2025 15:48:57 GMT-0500 (Central Daylight Time),591171.0,CFD-BF-051-043-A.jpg,1600,dash,O,z,1339,2,1,57214.0,533957.0,7212,ATS,B,21
16,test,1,C,haborder.png,1,m,Wed Sep 03 2025 15:48:57 GMT-0500 (Central Daylight Time),593820.3000001907,CFD-WF-027-007-HC.jpg,1500,solid,O,m,1128,11,1,59863.300000190735,533957.0,7212,ATS,B,22
16,test,1,C,mfborder.png,0,m,Wed Sep 03 2025 15:48:57 GMT-0500 (Central Daylight Time),596420.9000000954,CFD-BM-020-024-HC.jpg,1200,dash,O,z,1382,6,1,62463.90000009537,533957.0,7212,ATS,B,23
16,test,1,C,haborder.png,0,m,Wed Sep 03 2025 15:48:57 GMT-0500 (Central Daylight Time),599335.8000001907,CFD-BF-035-007-HC.jpg,1600,solid,O,z,1284,10,1,65378.800000190735,533957.0,7212,ATS,B,24
1,test,2,C,haborder.png,1,m,Wed Sep 03 2025 15:48:57 GMT-0500 (Central Daylight Time),612263.9000000954,CFD-WM-011-006-HC.jpg,1500,solid,O,m,906,11,1,2430.9000000953674,609833.0,7212,ATS,B,1
2,test,2,C,mfborder.png,1,m,Wed Sep 03 2025 15:48:57 GMT-0500 (Central Daylight Time),614963.0,CFD-WM-009-009-A.jpg,1200,dash,O,m,1469,6,1,5130.0,609833.0,7212,ATS,B,2
3,test,2,C,mfborder.png,1,z,Wed Sep 03 2025 15:48:57 GMT-0500 (Central Daylight Time),617480.4000000954,CFD-WF-013-015-A.jpg,1600,dash,O,z,892,2,1,7647.400000095367,609833.0,7212,ATS,B,3
4,test,2,C,mfborder.png,1,z,Wed Sep 03 2025 15:48:57 GMT-0500 (Central Daylight Time),619979.0,CFD-WF-011-006-HC.jpg,1700,dash,O,z,782,1,1,10146.0,609833.0,7212,ATS,B,4
5,test,2,C,haborder.png,1,z,Wed Sep 03 2025 15:48:57 GMT-0500 (Central Daylight Time),622361.7000002861,CFD-BF-051-043-A.jpg,1400,solid,O,z,956,7,1,12528.700000286102,609833.0,7212,ATS,B,5
6,test,2,C,mfborder.png,1,m,Wed Sep 03 2025 15:48:57 GMT-0500 (Central Daylight Time),624344.9000000954,CFD-BM-015-017-HC.jpg,1000,dash,O,m,959,4,1,14511.900000095367,609833.0,7212,ATS,B,6
6,test,2,C,haborder.png,0,z,Wed Sep 03 2025 15:48:57 GMT-0500 (Central Daylight Time),627442.0,CFD-WF-026-008-A.jpg,1700,solid,O,m,1380,9,1,17609.0,609833.0,7212,ATS,B,7
7,test,2,C,haborder.png,1,m,Wed Sep 03 2025 15:48:57 GMT-0500 (Central Daylight Time),630393.7000002861,CFD-WM-011-006-HC.jpg,1500,solid,O,m,1419,11,1,20560.700000286102,609833.0,7212,ATS,B,8
8,test,2,C,haborder.png,1,m,Wed Sep 03 2025 15:48:57 GMT-0500 (Central Daylight Time),632290.9000000954,CFD-WM-011-006-HC.jpg,1000,solid,O,m,868,12,1,22457.900000095367,609833.0,7212,ATS,B,9
9,test,2,C,mfborder.png,1,z,Wed Sep 03 2025 15:48:57 GMT-0500 (Central Daylight Time),634725.5999999046,CFD-BF-035-007-HC.jpg,1500,dash,O,z,912,3,1,24892.599999904633,609833.0,7212,ATS,B,10
10,test,2,C,mfborder.png,1,m,Wed Sep 03 2025 15:48:57 GMT-0500 (Central Daylight Time),637623.0999999046,CFD-BM-037-041-A.jpg,2000,dash,O,m,874,5,1,27790.099999904633,609833.0,7212,ATS,B,11
11,test,2,C,haborder.png,1,m,Wed Sep 03 2025 15:48:57 GMT-0500 (Central Daylight Time),639641.4000000954,CFD-WM-011-006-HC.jpg,1000,solid,O,m,990,12,1,29808.400000095367,609833.0,7212,ATS,B,12
12,test,2,C,haborder.png,1,m,Wed Sep 03 2025 15:48:57 GMT-0500 (Central Daylight Time),642171.9000000954,CFD-BM-020-024-HC.jpg,1600,solid,O,m,901,10,1,32338.900000095367,609833.0,7212,ATS,B,13
13,test,2,C,haborder.png,1,m,Wed Sep 03 2025 15:48:57 GMT-0500 (Central Daylight Time),644655.0999999046,CFD-BM-020-024-HC.jpg,1600,solid,O,m,851,10,1,34822.09999990463,609833.0,7212,ATS,B,14
14,test,2,C,haborder.png,1,z,Wed Sep 03 2025 15:48:57 GMT-0500 (Central Daylight Time),647520.9000000954,CFD-BF-050-012-A.jpg,1900,solid,O,z,932,8,1,37687.90000009537,609833.0,7212,ATS,B,15
14,test,2,C,mfborder.png,0,m,Wed Sep 03 2025 15:48:57 GMT-0500 (Central Daylight Time),650259.9000000954,CFD-WM-009-009-A.jpg,1200,dash,O,None,1517,6,1,40426.90000009537,609833.0,7212,ATS,B,16
15,test,2,C,mfborder.png,1,z,Wed Sep 03 2025 15:48:57 GMT-0500 (Central Daylight Time),653202.5,CFD-WF-013-015-A.jpg,1600,dash,O,z,1322,2,1,43369.5,609833.0,7212,ATS,B,17
16,test,2,C,mfborder.png,1,z,Wed Sep 03 2025 15:48:57 GMT-0500 (Central Daylight Time),655501.0999999046,CFD-BF-035-007-HC.jpg,1500,dash,O,z,770,3,1,45668.09999990463,609833.0,7212,ATS,B,18
17,test,2,C,mfborder.png,1,z,Wed Sep 03 2025 15:48:57 GMT-0500 (Central Daylight Time),657866.5,CFD-WF-011-006-HC.jpg,1700,dash,O,z,633,1,1,48033.5,609833.0,7212,ATS,B,19
18,test,2,C,haborder.png,1,z,Wed Sep 03 2025 15:48:57 GMT-0500 (Central Daylight Time),660733.7000002861,CFD-WF-026-008-A.jpg,1700,solid,O,z,1144,9,1,50900.7000002861,609833.0,7212,ATS,B,20
19,test,2,C,haborder.png,1,z,Wed Sep 03 2025 15:48:57 GMT-0500 (Central Daylight Time),663332.8000001907,CFD-BF-051-043-A.jpg,1400,solid,O,z,1179,7,1,53499.800000190735,609833.0,7212,ATS,B,21
20,test,2,C,haborder.png,1,z,Wed Sep 03 2025 15:48:57 GMT-0500 (Central Daylight Time),665981.9000000954,CFD-BF-050-012-A.jpg,1900,solid,O,z,727,8,1,56148.90000009537,609833.0,7212,ATS,B,22
21,test,2,C,mfborder.png,1,m,Wed Sep 03 2025 15:48:57 GMT-0500 (Central Daylight Time),669396.8000001907,CFD-BM-037-041-A.jpg,2000,dash,O,m,1386,5,1,59563.800000190735,609833.0,7212,ATS,B,23
22,test,2,C,mfborder.png,1,m,Wed Sep 03 2025 15:48:57 GMT-0500 (Central Daylight Time),671196.3000001907,CFD-BM-015-017-HC.jpg,1000,dash,O,m,771,4,1,61363.300000190735,609833.0,7212,ATS,B,24
1,test,3,C,haborder.png,1,m,Wed Sep 03 2025 15:48:57 GMT-0500 (Central Daylight Time),681960.8000001907,CFD-BF-035-007-HC.jpg,1600,solid,O,m,974,10,1,2600.2000002861023,679360.5999999046,7212,ATS,B,1
2,test,3,C,haborder.png,1,z,Wed Sep 03 2025 15:48:57 GMT-0500 (Central Daylight Time),684774.9000000954,CFD-BM-037-041-A.jpg,1900,solid,O,z,895,8,1,5414.300000190735,679360.5999999046,7212,ATS,B,2
3,test,3,C,mfborder.png,1,m,Wed Sep 03 2025 15:48:57 GMT-0500 (Central Daylight Time),688089.8000001907,CFD-WM-037-060-A.jpg,2000,dash,O,m,1297,5,1,8729.200000286102,679360.5999999046,7212,ATS,B,3
3,test,3,C,haborder.png,0,m,Wed Sep 03 2025 15:48:57 GMT-0500 (Central Daylight Time),690605.0999999046,CFD-WF-011-006-HC.jpg,1000,solid,O,z,1493,12,1,11244.5,679360.5999999046,7212,ATS,B,4
4,test,3,C,mfborder.png,1,m,Wed Sep 03 2025 15:48:57 GMT-0500 (Central Daylight Time),693954.8000001907,CFD-WM-037-060-A.jpg,2000,dash,O,m,1321,5,1,14594.200000286102,679360.5999999046,7212,ATS,B,5
5,test,3,C,mfborder.png,1,z,Wed Sep 03 2025 15:48:57 GMT-0500 (Central Daylight Time),696622.0999999046,CFD-WF-026-008-A.jpg,1500,dash,O,z,1136,3,1,17261.5,679360.5999999046,7212,ATS,B,6
6,test,3,C,mfborder.png,1,z,Wed Sep 03 2025 15:48:57 GMT-0500 (Central Daylight Time),699503.2000002861,CFD-BF-051-043-A.jpg,1600,dash,O,z,1259,2,1,20142.60000038147,679360.5999999046,7212,ATS,B,7
7,test,3,C,mfborder.png,1,m,Wed Sep 03 2025 15:48:57 GMT-0500 (Central Daylight Time),701718.9000000954,CFD-WM-012-007-HC.jpg,1000,dash,O,m,1184,4,1,22358.300000190735,679360.5999999046,7212,ATS,B,8
8,test,3,C,mfborder.png,1,z,Wed Sep 03 2025 15:48:57 GMT-0500 (Central Daylight Time),704718.7000002861,CFD-BF-027-013-HC.jpg,1700,dash,O,z,1268,1,1,25358.10000038147,679360.5999999046,7212,ATS,B,9
9,test,3,C,mfborder.png,1,m,Wed Sep 03 2025 15:48:57 GMT-0500 (Central Daylight Time),706817.5,CFD-BM-020-024-HC.jpg,1200,dash,O,m,881,6,1,27456.900000095367,679360.5999999046,7212,ATS,B,10
10,test,3,C,mfborder.png,1,m,Wed Sep 03 2025 15:48:57 GMT-0500 (Central Daylight Time),708600.2000002861,CFD-WM-012-007-HC.jpg,1000,dash,O,m,751,4,1,29239.60000038147,679360.5999999046,7212,ATS,B,11
11,test,3,C,haborder.png,1,z,Wed Sep 03 2025 15:48:57 GMT-0500 (Central Daylight Time),711699.9000000954,CFD-BM-041-048-A.jpg,1700,solid,O,z,1367,9,1,32339.300000190735,679360.5999999046,7212,ATS,B,12
12,test,3,C,haborder.png,1,z,Wed Sep 03 2025 15:48:57 GMT-0500 (Central Daylight Time),713916.0,CFD-WM-009-009-A.jpg,1400,solid,O,z,788,7,1,34555.40000009537,679360.5999999046,7212,ATS,B,13
13,test,3,C,haborder.png,1,m,Wed Sep 03 2025 15:48:57 GMT-0500 (Central Daylight Time),717033.3000001907,CFD-BF-035-007-HC.jpg,1600,solid,O,m,1492,10,1,37672.7000002861,679360.5999999046,7212,ATS,B,14
13,test,3,C,mfborder.png,0,m,Wed Sep 03 2025 15:48:57 GMT-0500 (Central Daylight Time),719770.2000002861,CFD-BM-020-024-HC.jpg,1200,dash,O,None,1515,6,1,40409.60000038147,679360.5999999046,7212,ATS,B,15
14,test,3,C,haborder.png,1,m,Wed Sep 03 2025 15:48:57 GMT-0500 (Central Daylight Time),722546.0,CFD-WF-027-007-HC.jpg,1500,solid,O,m,1256,11,1,43185.40000009537,679360.5999999046,7212,ATS,B,16
15,test,3,C,mfborder.png,1,z,Wed Sep 03 2025 15:48:57 GMT-0500 (Central Daylight Time),725445.0999999046,CFD-WF-026-008-A.jpg,1500,dash,O,z,1377,3,1,46084.5,679360.5999999046,7212,ATS,B,17
15,test,3,C,haborder.png,0,z,Wed Sep 03 2025 15:48:57 GMT-0500 (Central Daylight Time),728412.5,CFD-BM-041-048-A.jpg,1700,solid,O,m,1238,9,1,49051.90000009537,679360.5999999046,7212,ATS,B,18
16,test,3,C,haborder.png,1,z,Wed Sep 03 2025 15:48:57 GMT-0500 (Central Daylight Time),731142.8000001907,CFD-WM-009-009-A.jpg,1400,solid,O,z,1308,7,1,51782.2000002861,679360.5999999046,7212,ATS,B,19
17,test,3,C,haborder.png,1,m,Wed Sep 03 2025 15:48:57 GMT-0500 (Central Daylight Time),733742.3000001907,CFD-WF-027-007-HC.jpg,1500,solid,O,m,1078,11,1,54381.7000002861,679360.5999999046,7212,ATS,B,20
17,test,3,C,mfborder.png,0,z,Wed Sep 03 2025 15:48:57 GMT-0500 (Central Daylight Time),736876.5999999046,CFD-BF-051-043-A.jpg,1600,dash,O,None,1517,2,1,57516.0,679360.5999999046,7212,ATS,B,21
17,test,3,C,haborder.png,0,z,Wed Sep 03 2025 15:48:57 GMT-0500 (Central Daylight Time),739891.5,CFD-BM-037-041-A.jpg,1900,solid,O,m,1086,8,1,60530.90000009537,679360.5999999046,7212,ATS,B,22
18,test,3,C,mfborder.png,1,z,Wed Sep 03 2025 15:48:57 GMT-0500 (Central Daylight Time),742724.0999999046,CFD-BF-027-013-HC.jpg,1700,dash,O,z,1100,1,1,63363.5,679360.5999999046,7212,ATS,B,23
19,test,3,C,haborder.png,1,m,Wed Sep 03 2025 15:48:57 GMT-0500 (Central Daylight Time),744539.5999999046,CFD-WF-011-006-HC.jpg,1000,solid,O,m,789,12,1,65179.0,679360.5999999046,7212,ATS,B,24
1,test,4,C,mfborder.png,1,z,Wed Sep 03 2025 15:48:57 GMT-0500 (Central Daylight Time),755984.0999999046,CFD-BF-035-007-HC.jpg,1500,dash,O,z,1279,3,1,2796.8999996185303,753187.2000002861,7212,ATS,B,1
2,test,4,C,mfborder.png,1,z,Wed Sep 03 2025 15:48:57 GMT-0500 (Central Daylight Time),758318.0999999046,CFD-BF-035-007-HC.jpg,1500,dash,O,z,810,3,1,5130.89999961853,753187.2000002861,7212,ATS,B,2
3,test,4,C,mfborder.png,1,z,Wed Sep 03 2025 15:48:57 GMT-0500 (Central Daylight Time),760884.5,CFD-WF-013-015-A.jpg,1600,dash,O,z,936,2,1,7697.299999713898,753187.2000002861,7212,ATS,B,3
4,test,4,C,haborder.png,1,m,Wed Sep 03 2025 15:48:57 GMT-0500 (Central Daylight Time),763333.0999999046,CFD-WM-011-006-HC.jpg,1500,solid,O,m,926,11,1,10145.89999961853,753187.2000002861,7212,ATS,B,4
5,test,4,C,haborder.png,1,m,Wed Sep 03 2025 15:48:57 GMT-0500 (Central Daylight Time),765883.9000000954,CFD-BM-020-024-HC.jpg,1600,solid,O,m,933,10,1,12696.699999809265,753187.2000002861,7212,ATS,B,5
6,test,4,C,haborder.png,1,z,Wed Sep 03 2025 15:48:57 GMT-0500 (Central Daylight Time),768830.9000000954,CFD-BF-050-012-A.jpg,1900,solid,O,z,1016,8,1,15643.699999809265,753187.2000002861,7212,ATS,B,6
7,test,4,C,haborder.png,1,m,Wed Sep 03 2025 15:48:57 GMT-0500 (Central Daylight Time),770632.2000002861,CFD-WM-011-006-HC.jpg,1000,solid,O,m,769,12,1,17445.0,753187.2000002861,7212,ATS,B,7
8,test,4,C,haborder.png,1,z,Wed Sep 03 2025 15:48:57 GMT-0500 (Central Daylight Time),772931.5,CFD-BF-051-043-A.jpg,1400,solid,O,z,881,7,1,19744.299999713898,753187.2000002861,7212,ATS,B,8
9,test,4,C,haborder.png,1,z,Wed Sep 03 2025 15:48:57 GMT-0500 (Central Daylight Time),775429.9000000954,CFD-WF-026-008-A.jpg,1700,solid,O,z,767,9,1,22242.699999809265,753187.2000002861,7212,ATS,B,9
10,test,4,C,haborder.png,1,z,Wed Sep 03 2025 15:48:57 GMT-0500 (Central Daylight Time),777945.5,CFD-WF-026-008-A.jpg,1700,solid,O,z,786,9,1,24758.299999713898,753187.2000002861,7212,ATS,B,10
11,test,4,C,haborder.png,1,z,Wed Sep 03 2025 15:48:57 GMT-0500 (Central Daylight Time),780080.2000002861,CFD-BF-051-043-A.jpg,1400,solid,O,z,717,7,1,26893.0,753187.2000002861,7212,ATS,B,11
12,test,4,C,mfborder.png,1,m,Wed Sep 03 2025 15:48:57 GMT-0500 (Central Daylight Time),782296.7000002861,CFD-WM-009-009-A.jpg,1200,dash,O,m,979,6,1,29109.5,753187.2000002861,7212,ATS,B,12
13,test,4,C,haborder.png,1,m,Wed Sep 03 2025 15:48:57 GMT-0500 (Central Daylight Time),784826.2000002861,CFD-WM-011-006-HC.jpg,1500,solid,O,m,1005,11,1,31639.0,753187.2000002861,7212,ATS,B,13
14,test,4,C,mfborder.png,1,z,Wed Sep 03 2025 15:48:57 GMT-0500 (Central Daylight Time),787759.2000002861,CFD-WF-013-015-A.jpg,1600,dash,O,z,1301,2,1,34572.0,753187.2000002861,7212,ATS,B,14
15,test,4,C,mfborder.png,1,m,Wed Sep 03 2025 15:48:57 GMT-0500 (Central Daylight Time),789860.0999999046,CFD-WM-009-009-A.jpg,1200,dash,O,m,885,6,1,36672.89999961853,753187.2000002861,7212,ATS,B,15
16,test,4,C,mfborder.png,1,z,Wed Sep 03 2025 15:48:57 GMT-0500 (Central Daylight Time),792422.9000000954,CFD-WF-011-006-HC.jpg,1700,dash,O,z,832,1,1,39235.699999809265,753187.2000002861,7212,ATS,B,16
17,test,4,C,mfborder.png,1,m,Wed Sep 03 2025 15:48:57 GMT-0500 (Central Daylight Time),794222.9000000954,CFD-BM-015-017-HC.jpg,1000,dash,O,m,773,4,1,41035.699999809265,753187.2000002861,7212,ATS,B,17
18,test,4,C,haborder.png,1,m,Wed Sep 03 2025 15:48:57 GMT-0500 (Central Daylight Time),796956.0999999046,CFD-BM-020-024-HC.jpg,1600,solid,O,m,1115,10,1,43768.89999961853,753187.2000002861,7212,ATS,B,18
19,test,4,C,mfborder.png,1,m,Wed Sep 03 2025 15:48:57 GMT-0500 (Central Daylight Time),800438.0999999046,CFD-BM-037-041-A.jpg,2000,dash,O,m,1450,5,1,47250.89999961853,753187.2000002861,7212,ATS,B,19
20,test,4,C,mfborder.png,1,z,Wed Sep 03 2025 15:48:57 GMT-0500 (Central Daylight Time),803521.7000002861,CFD-WF-011-006-HC.jpg,1700,dash,O,z,1357,1,1,50334.5,753187.2000002861,7212,ATS,B,20
21,test,4,C,haborder.png,1,m,Wed Sep 03 2025 15:48:57 GMT-0500 (Central Daylight Time),805669.5999999046,CFD-WM-011-006-HC.jpg,1000,solid,O,m,1118,12,1,52482.39999961853,753187.2000002861,7212,ATS,B,21
22,test,4,C,haborder.png,1,z,Wed Sep 03 2025 15:48:57 GMT-0500 (Central Daylight Time),808319.0,CFD-BF-050-012-A.jpg,1900,solid,O,z,716,8,1,55131.7999997139,753187.2000002861,7212,ATS,B,22
23,test,4,C,mfborder.png,1,m,Wed Sep 03 2025 15:48:57 GMT-0500 (Central Daylight Time),810334.3000001907,CFD-BM-015-017-HC.jpg,1000,dash,O,m,993,4,1,57147.09999990463,753187.2000002861,7212,ATS,B,23
23,test,4,C,mfborder.png,0,m,Wed Sep 03 2025 15:48:57 GMT-0500 (Central Daylight Time),813866.8000001907,CFD-BM-037-041-A.jpg,2000,dash,O,None,1514,5,1,60679.59999990463,753187.2000002861,7212,ATS,B,24
