Q,Q1,Q2,Q3,Q4,acc_sum,block,block_c,correct,correct_response,datetime,endtime,project,response,response_time,row_sel,session_number,squiggle1,squiggle1x,squiggle1y,squiggle2,squiggle2x,squiggle2y,squiggle3,squiggle3x,squiggle3y,squiggle4,squiggle4x,squiggle4y,start_end,starttime,subject_id,target_congruent,task,task_vers,testsquiggle,testsquigglex,testsquiggley,time_practice_delay,time_practice_fixation,time_practice_stimuli,time_practice_study,time_test_delay,time_test_fixation,time_test_stimuli,time_test_study,trial
1,1,0,0,0,0,prac,1,0,z,Mon Dec 15 2025 18:48:00 GMT-0600 (Central Standard Time),122826.20000004768,O,m,1688,1,1,116.bmp,-120,-120,117.bmp,120,-120,118.bmp,-120,120,119.bmp,120,120,10493.799999952316,112332.40000009537,7241,yes,SM,A,116.bmp,-120,-120,112693,106667,114695,108679,,,,,1
3,0,0,1,0,0,prac,1,0,m,Mon Dec 15 2025 18:48:00 GMT-0600 (Central Standard Time),133655.90000009537,O,None,2016,2,1,120.bmp,-120,-120,121.bmp,120,-120,122.bmp,-120,120,123.bmp,120,120,10825.300000071526,122830.60000002384,7241,no,SM,A,123.bmp,-120,120,123191,117165,125208,119176,,,,,2
4,0,0,0,1,1,prac,1,1,m,Mon Dec 15 2025 18:48:00 GMT-0600 (Central Standard Time),144002.10000002384,O,m,1532,3,1,124.bmp,-120,-120,125.bmp,120,-120,126.bmp,-120,120,127.bmp,120,120,10342.399999976158,133659.70000004768,7241,no,SM,A,124.bmp,120,120,134022,127994,136037,130007,,,,,3
2,0,1,0,0,1,prac,1,0,z,Mon Dec 15 2025 18:48:00 GMT-0600 (Central Standard Time),154232.30000007153,O,m,1409,4,1,128.bmp,-120,-120,129.bmp,120,-120,130.bmp,-120,120,131.bmp,120,120,10226.399999976158,144005.90000009537,7241,yes,SM,A,129.bmp,120,-120,144368,138340,146384,140353,,,,,4
3,0,0,1,0,1,prac,1,0,z,Mon Dec 15 2025 18:48:00 GMT-0600 (Central Standard Time),164662.90000009537,O,m,1599,5,1,132.bmp,-120,-120,133.bmp,120,-120,134.bmp,-120,120,135.bmp,120,120,10424.0,154238.90000009537,7241,yes,SM,A,134.bmp,-120,120,154598,148573,156615,150583,,,,,5
1,1,0,0,0,2,prac,1,1,m,Mon Dec 15 2025 18:48:00 GMT-0600 (Central Standard Time),175043.30000007153,O,m,1562,6,1,136.bmp,-120,-120,137.bmp,120,-120,138.bmp,-120,120,139.bmp,120,120,10375.100000023842,164668.20000004768,7241,no,SM,A,139.bmp,-120,-120,165028,159002,167045,161013,,,,,6
2,0,1,0,0,2,prac,1,0,m,Mon Dec 15 2025 18:48:00 GMT-0600 (Central Standard Time),185871.90000009537,O,None,2015,7,1,140.bmp,-120,-120,141.bmp,120,-120,142.bmp,-120,120,143.bmp,120,120,10821.5,175050.40000009537,7241,no,SM,A,140.bmp,120,-120,175408,169385,177425,171393,,,,,7
4,0,0,0,1,3,prac,1,1,z,Mon Dec 15 2025 18:48:00 GMT-0600 (Central Standard Time),196569.70000004768,O,z,1883,8,1,144.bmp,-120,-120,145.bmp,120,-120,146.bmp,-120,120,147.bmp,120,120,10695.5,185874.20000004768,7241,yes,SM,A,147.bmp,120,120,186238,180208,188254,182223,,,,,8
4,0,0,0,1,0,test,1,0,m,Mon Dec 15 2025 18:48:00 GMT-0600 (Central Standard Time),214097.10000002384,O,None,2015,1,1,148.bmp,-120,-120,149.bmp,120,-120,150.bmp,-120,120,143.bmp,120,120,10059.199999928474,204037.90000009537,7241,no,SM,A,150.bmp,120,120,186238,180208,188254,182223,204399.0,198372.0,206416.0,200384.0,1
2,0,1,0,0,0,test,1,0,m,Mon Dec 15 2025 18:48:00 GMT-0600 (Central Standard Time),224161.90000009537,O,None,2017,2,1,101.bmp,-120,-120,102.bmp,120,-120,103.bmp,-120,120,104.bmp,120,120,10061.100000023842,214100.80000007153,7241,no,SM,A,103.bmp,120,-120,186238,180208,188254,182223,214464.0,208435.0,216479.0,210447.0,2
1,1,0,0,0,1,test,1,1,z,Mon Dec 15 2025 18:48:00 GMT-0600 (Central Standard Time),234174.0,O,z,1968,3,1,105.bmp,-120,-120,106.bmp,120,-120,107.bmp,-120,120,108.bmp,120,120,10008.0,224166.0,7241,yes,SM,A,105.bmp,-120,-120,186238,180208,188254,182223,224526.0,218500.0,226528.0,220512.0,3
3,0,0,1,0,1,test,1,0,m,Mon Dec 15 2025 18:48:00 GMT-0600 (Central Standard Time),243955.0,O,z,1732,4,1,109.bmp,-120,-120,110.bmp,120,-120,111.bmp,-120,120,112.bmp,120,120,9778.299999952316,234176.70000004768,7241,no,SM,A,109.bmp,-120,120,186238,180208,188254,182223,234541.0,228511.0,236556.0,230525.0,4
2,0,1,0,0,2,test,1,1,z,Mon Dec 15 2025 18:48:00 GMT-0600 (Central Standard Time),253236.0,O,z,1223,5,1,113.bmp,-120,-120,114.bmp,120,-120,115.bmp,-120,120,116.bmp,120,120,9277.899999976158,243958.10000002384,7241,yes,SM,A,114.bmp,120,-120,186238,180208,188254,182223,244320.0,238292.0,246337.0,240304.0,5
3,0,0,1,0,2,test,1,0,z,Mon Dec 15 2025 18:48:00 GMT-0600 (Central Standard Time),263283.3000000715,O,None,2016,6,1,117.bmp,-120,-120,118.bmp,120,-120,119.bmp,-120,120,120.bmp,120,120,10044.5,253238.80000007153,7241,yes,SM,A,119.bmp,-120,120,186238,180208,188254,182223,253600.0,247573.0,255601.0,249585.0,6
4,0,0,0,1,2,test,1,0,z,Mon Dec 15 2025 18:48:00 GMT-0600 (Central Standard Time),272027.8000000715,O,m,688,7,1,121.bmp,-120,-120,122.bmp,120,-120,123.bmp,-120,120,124.bmp,120,120,8740.300000071526,263287.5,7241,yes,SM,A,124.bmp,120,120,186238,180208,188254,182223,263647.0,257622.0,265663.0,259633.0,7
2,0,1,0,0,3,test,1,1,m,Mon Dec 15 2025 18:48:00 GMT-0600 (Central Standard Time),281657.10000002384,O,m,1596,8,1,125.bmp,-120,-120,126.bmp,120,-120,127.bmp,-120,120,128.bmp,120,120,9623.5,272033.60000002384,7241,no,SM,A,125.bmp,120,-120,186238,180208,188254,182223,272393.0,266368.0,274395.0,268379.0,8
3,0,0,1,0,4,test,1,1,m,Mon Dec 15 2025 18:48:00 GMT-0600 (Central Standard Time),290988.8000000715,O,m,1279,9,1,129.bmp,-120,-120,130.bmp,120,-120,131.bmp,-120,120,132.bmp,120,120,9329.5,281659.3000000715,7241,no,SM,A,130.bmp,-120,120,186238,180208,188254,182223,282024.0,275994.0,284040.0,278009.0,9
4,0,0,0,1,5,test,1,1,z,Mon Dec 15 2025 18:48:00 GMT-0600 (Central Standard Time),301036.10000002384,O,z,1989,10,1,137.bmp,-120,-120,138.bmp,120,-120,139.bmp,-120,120,140.bmp,120,120,10040.799999952316,290995.3000000715,7241,yes,SM,A,140.bmp,120,120,186238,180208,188254,182223,291354.0,285329.0,293370.0,287339.0,10
3,0,0,1,0,6,test,1,1,z,Mon Dec 15 2025 18:48:00 GMT-0600 (Central Standard Time),309633.90000009537,O,z,558,11,1,133.bmp,-120,-120,134.bmp,120,-120,135.bmp,-120,120,136.bmp,120,120,8594.400000095367,301039.5,7241,yes,SM,A,135.bmp,-120,120,186238,180208,188254,182223,301400.0,295374.0,303401.0,297388.0,11
2,0,1,0,0,7,test,1,1,m,Mon Dec 15 2025 18:48:00 GMT-0600 (Central Standard Time),318963.40000009537,O,m,1271,12,1,141.bmp,-120,-120,142.bmp,120,-120,143.bmp,-120,120,144.bmp,120,120,9325.5,309637.90000009537,7241,no,SM,A,141.bmp,120,-120,186238,180208,188254,182223,309999.0,303972.0,312015.0,305984.0,12
3,0,0,1,0,8,test,1,1,m,Mon Dec 15 2025 18:48:00 GMT-0600 (Central Standard Time),327977.2000000477,O,m,974,13,1,145.bmp,-120,-120,146.bmp,120,-120,147.bmp,-120,120,148.bmp,120,120,9010.299999952316,318966.90000009537,7241,no,SM,A,146.bmp,-120,120,186238,180208,188254,182223,319328.0,313302.0,321330.0,315314.0,13
1,1,0,0,0,9,test,1,1,z,Mon Dec 15 2025 18:48:00 GMT-0600 (Central Standard Time),337708.0,O,z,1673,14,1,149.bmp,-120,-120,150.bmp,120,-120,104.bmp,-120,120,101.bmp,120,120,9723.299999952316,327984.7000000477,7241,yes,SM,A,149.bmp,-120,-120,186238,180208,188254,182223,328343.0,322319.0,330359.0,324328.0,14
4,0,0,0,1,9,test,1,0,m,Mon Dec 15 2025 18:48:00 GMT-0600 (Central Standard Time),347771.3000000715,O,None,2015,15,1,110.bmp,-120,-120,111.bmp,120,-120,112.bmp,-120,120,113.bmp,120,120,10057.800000071526,337713.5,7241,no,SM,A,111.bmp,120,120,186238,180208,188254,182223,338074.0,332048.0,340090.0,334059.0,15
1,1,0,0,0,10,test,1,1,m,Mon Dec 15 2025 18:48:00 GMT-0600 (Central Standard Time),357451.0,O,m,1623,16,1,102.bmp,-120,-120,103.bmp,120,-120,104.bmp,-120,120,105.bmp,120,120,9675.399999976158,347775.60000002384,7241,no,SM,A,105.bmp,-120,-120,186238,180208,188254,182223,348137.0,342110.0,350152.0,344122.0,16
3,0,0,1,0,11,test,1,1,m,Mon Dec 15 2025 18:48:00 GMT-0600 (Central Standard Time),366830.90000009537,O,m,1318,17,1,122.bmp,-120,-120,123.bmp,120,-120,124.bmp,-120,120,125.bmp,120,120,9374.700000047684,357456.2000000477,7241,no,SM,A,122.bmp,-120,120,186238,180208,188254,182223,357817.0,351790.0,359833.0,353803.0,17
1,1,0,0,0,12,test,1,1,z,Mon Dec 15 2025 18:48:00 GMT-0600 (Central Standard Time),376012.3000000715,O,z,1131,18,1,106.bmp,-120,-120,107.bmp,120,-120,108.bmp,-120,120,109.bmp,120,120,9177.300000071526,366835.0,7241,yes,SM,A,106.bmp,-120,-120,186238,180208,188254,182223,367199.0,361169.0,369213.0,363182.0,18
2,0,1,0,0,13,test,1,1,z,Mon Dec 15 2025 18:48:00 GMT-0600 (Central Standard Time),385758.8000000715,O,z,1701,19,1,126.bmp,-120,-120,127.bmp,120,-120,128.bmp,-120,120,129.bmp,120,120,9743.600000023842,376015.2000000477,7241,yes,SM,A,127.bmp,120,-120,186238,180208,188254,182223,376376.0,370350.0,378378.0,372363.0,19
3,0,0,1,0,14,test,1,1,z,Mon Dec 15 2025 18:48:00 GMT-0600 (Central Standard Time),395022.5,O,z,1200,20,1,130.bmp,-120,-120,131.bmp,120,-120,132.bmp,-120,120,133.bmp,120,120,9260.0,385762.5,7241,yes,SM,A,132.bmp,-120,120,186238,180208,188254,182223,386124.0,380097.0,388143.0,382109.0,20
1,1,0,0,0,14,test,1,0,m,Mon Dec 15 2025 18:48:00 GMT-0600 (Central Standard Time),405086.7000000477,O,None,2017,21,1,114.bmp,-120,-120,115.bmp,120,-120,116.bmp,-120,120,117.bmp,120,120,10060.200000047684,395026.5,7241,no,SM,A,116.bmp,-120,-120,186238,180208,188254,182223,395387.0,389361.0,397404.0,391373.0,21
4,0,0,0,1,15,test,1,1,z,Mon Dec 15 2025 18:48:00 GMT-0600 (Central Standard Time),414766.2000000477,O,z,1633,22,1,118.bmp,-120,-120,119.bmp,120,-120,120.bmp,-120,120,121.bmp,120,120,9675.299999952316,405090.90000009537,7241,yes,SM,A,121.bmp,120,120,186238,180208,188254,182223,405454.0,399425.0,407455.0,401436.0,22
1,1,0,0,0,16,test,1,1,m,Mon Dec 15 2025 18:48:00 GMT-0600 (Central Standard Time),424246.5,O,m,1418,23,1,134.bmp,-120,-120,135.bmp,120,-120,136.bmp,-120,120,137.bmp,120,120,9475.199999928474,414771.3000000715,7241,no,SM,A,137.bmp,-120,-120,186238,180208,188254,182223,415132.0,409106.0,417149.0,411117.0,23
2,0,1,0,0,16,test,1,0,z,Mon Dec 15 2025 18:48:00 GMT-0600 (Central Standard Time),434310.8000000715,O,None,2016,24,1,142.bmp,-120,-120,143.bmp,120,-120,144.bmp,-120,120,145.bmp,120,120,10060.899999976158,424249.90000009537,7241,yes,SM,A,143.bmp,120,-120,186238,180208,188254,182223,424612.0,418584.0,426629.0,420597.0,24
4,0,0,0,1,17,test,1,1,m,Mon Dec 15 2025 18:48:00 GMT-0600 (Central Standard Time),443906.3000000715,O,m,1540,25,1,146.bmp,-120,-120,147.bmp,120,-120,148.bmp,-120,120,149.bmp,120,120,9590.5,434315.8000000715,7241,no,SM,A,148.bmp,120,120,186238,180208,188254,182223,434675.0,428650.0,436691.0,430660.0,25
1,1,0,0,0,18,test,1,1,z,Mon Dec 15 2025 18:48:00 GMT-0600 (Central Standard Time),453436.60000002384,O,z,1471,26,1,138.bmp,-120,-120,139.bmp,120,-120,140.bmp,-120,120,141.bmp,120,120,9522.399999976158,443914.2000000477,7241,yes,SM,A,138.bmp,-120,-120,186238,180208,188254,182223,444274.0,438248.0,446288.0,440260.0,26
4,0,0,0,1,19,test,1,1,z,Mon Dec 15 2025 18:48:00 GMT-0600 (Central Standard Time),463417.3000000715,O,z,1925,27,1,150.bmp,-120,-120,111.bmp,120,-120,101.bmp,-120,120,102.bmp,120,120,9978.0,453439.3000000715,7241,yes,SM,A,102.bmp,120,120,186238,180208,188254,182223,453803.0,447773.0,455819.0,449789.0,27
3,0,0,1,0,19,test,1,0,m,Mon Dec 15 2025 18:48:00 GMT-0600 (Central Standard Time),473349.3000000715,O,z,1894,28,1,103.bmp,-120,-120,104.bmp,120,-120,105.bmp,-120,120,106.bmp,120,120,9929.700000047684,463419.60000002384,7241,no,SM,A,103.bmp,-120,120,186238,180208,188254,182223,463768.0,457754.0,465785.0,459767.0,28
2,0,1,0,0,20,test,1,1,z,Mon Dec 15 2025 18:48:00 GMT-0600 (Central Standard Time),482545.2000000477,O,z,1150,29,1,107.bmp,-120,-120,108.bmp,120,-120,109.bmp,-120,120,110.bmp,120,120,9191.399999976158,473353.8000000715,7241,yes,SM,A,108.bmp,120,-120,186238,180208,188254,182223,473714.0,467688.0,475729.0,469698.0,29
3,0,0,1,0,21,test,1,1,z,Mon Dec 15 2025 18:48:00 GMT-0600 (Central Standard Time),492025.5,O,z,1431,30,1,111.bmp,-120,-120,112.bmp,120,-120,113.bmp,-120,120,114.bmp,120,120,9478.099999904633,482547.40000009537,7241,yes,SM,A,113.bmp,-120,120,186238,180208,188254,182223,482911.0,476882.0,484928.0,478895.0,30
1,1,0,0,0,22,test,1,1,z,Mon Dec 15 2025 18:48:00 GMT-0600 (Central Standard Time),501155.8000000715,O,z,1072,31,1,115.bmp,-120,-120,116.bmp,120,-120,117.bmp,-120,120,118.bmp,120,120,9127.800000071526,492028.0,7241,yes,SM,A,115.bmp,-120,-120,186238,180208,188254,182223,492392.0,486362.0,494407.0,488377.0,31
2,0,1,0,0,23,test,1,1,m,Mon Dec 15 2025 18:48:00 GMT-0600 (Central Standard Time),510669.5,O,m,1463,32,1,119.bmp,-120,-120,120.bmp,120,-120,121.bmp,-120,120,122.bmp,120,120,9510.699999928474,501158.8000000715,7241,no,SM,A,119.bmp,120,-120,186238,180208,188254,182223,501521.0,495493.0,503537.0,497506.0,32
4,0,0,0,1,24,test,1,1,z,Mon Dec 15 2025 18:48:00 GMT-0600 (Central Standard Time),520149.3000000715,O,z,1420,33,1,131.bmp,-120,-120,132.bmp,120,-120,133.bmp,-120,120,134.bmp,120,120,9476.100000023842,510673.2000000477,7241,yes,SM,A,134.bmp,120,120,186238,180208,188254,182223,511034.0,505007.0,513051.0,507020.0,33
2,0,1,0,0,25,test,1,1,z,Mon Dec 15 2025 18:48:00 GMT-0600 (Central Standard Time),529146.2000000477,O,z,941,34,1,123.bmp,-120,-120,124.bmp,120,-120,125.bmp,-120,120,126.bmp,120,120,8989.799999952316,520156.40000009537,7241,yes,SM,A,124.bmp,120,-120,186238,180208,188254,182223,520516.0,514491.0,522531.0,516500.0,34
4,0,0,0,1,26,test,1,1,m,Mon Dec 15 2025 18:48:00 GMT-0600 (Central Standard Time),538926.7000000477,O,m,1728,35,1,127.bmp,-120,-120,128.bmp,120,-120,129.bmp,-120,120,130.bmp,120,120,9775.0,529151.7000000477,7241,no,SM,A,129.bmp,120,120,186238,180208,188254,182223,529511.0,523486.0,531527.0,525500.0,35
3,0,0,1,0,27,test,1,1,m,Mon Dec 15 2025 18:48:00 GMT-0600 (Central Standard Time),548572.3000000715,O,m,1586,36,1,135.bmp,-120,-120,136.bmp,120,-120,137.bmp,-120,120,138.bmp,120,120,9641.399999976158,538930.9000000954,7241,no,SM,A,135.bmp,-120,120,186238,180208,188254,182223,539292.0,533265.0,541309.0,535277.0,36
1,1,0,0,0,28,test,1,1,m,Mon Dec 15 2025 18:48:00 GMT-0600 (Central Standard Time),557821.1000000238,O,m,1211,37,1,139.bmp,-120,-120,140.bmp,120,-120,141.bmp,-120,120,142.bmp,120,120,9246.799999952316,548574.3000000715,7241,no,SM,A,140.bmp,-120,-120,186238,180208,188254,182223,548939.0,542909.0,550940.0,544924.0,37
2,0,1,0,0,29,test,1,1,m,Mon Dec 15 2025 18:48:00 GMT-0600 (Central Standard Time),567550.0,O,m,1677,38,1,143.bmp,-120,-120,144.bmp,120,-120,145.bmp,-120,120,146.bmp,120,120,9724.199999928474,557825.8000000715,7241,no,SM,A,145.bmp,120,-120,186238,180208,188254,182223,558187.0,552160.0,560202.0,554171.0,38
4,0,0,0,1,30,test,1,1,z,Mon Dec 15 2025 18:48:00 GMT-0600 (Central Standard Time),577083.1000000238,O,z,1480,39,1,147.bmp,-120,-120,148.bmp,120,-120,149.bmp,-120,120,150.bmp,120,120,9530.899999976158,567552.2000000477,7241,yes,SM,A,150.bmp,120,120,186238,180208,188254,182223,567917.0,561886.0,569936.0,563901.0,39
3,0,0,1,0,31,test,1,1,m,Mon Dec 15 2025 18:48:00 GMT-0600 (Central Standard Time),587045.4000000954,O,m,1901,40,1,104.bmp,-120,-120,105.bmp,120,-120,106.bmp,-120,120,107.bmp,120,120,9959.5,577085.9000000954,7241,no,SM,A,105.bmp,-120,120,186238,180208,188254,182223,577447.0,571420.0,579462.0,573433.0,40
1,1,0,0,0,31,test,1,0,z,Mon Dec 15 2025 18:48:00 GMT-0600 (Central Standard Time),597108.6000000238,O,None,2017,41,1,108.bmp,-120,-120,109.bmp,120,-120,110.bmp,-120,120,111.bmp,120,120,10060.399999976158,587048.2000000477,7241,yes,SM,A,108.bmp,-120,-120,186238,180208,188254,182223,587411.0,581382.0,589426.0,583397.0,41
4,0,0,0,1,32,test,1,1,z,Mon Dec 15 2025 18:48:00 GMT-0600 (Central Standard Time),606621.3000000715,O,z,1462,42,1,112.bmp,-120,-120,113.bmp,120,-120,114.bmp,-120,120,115.bmp,120,120,9509.899999976158,597111.4000000954,7241,yes,SM,A,115.bmp,120,120,186238,180208,188254,182223,597474.0,591446.0,599489.0,593458.0,42
1,1,0,0,0,33,test,1,1,z,Mon Dec 15 2025 18:48:00 GMT-0600 (Central Standard Time),616303.1000000238,O,z,1628,43,1,116.bmp,-120,-120,117.bmp,120,-120,118.bmp,-120,120,119.bmp,120,120,9678.399999976158,606624.7000000477,7241,yes,SM,A,116.bmp,-120,-120,186238,180208,188254,182223,606988.0,600959.0,609004.0,602972.0,43
4,0,0,0,1,34,test,1,1,m,Mon Dec 15 2025 18:48:00 GMT-0600 (Central Standard Time),625850.0,O,m,1499,44,1,104.bmp,-120,-120,101.bmp,120,-120,102.bmp,-120,120,103.bmp,120,120,9544.599999904633,616305.4000000954,7241,no,SM,A,104.bmp,120,120,186238,180208,188254,182223,616669.0,610640.0,618685.0,612652.0,44
1,1,0,0,0,35,test,1,1,m,Mon Dec 15 2025 18:48:00 GMT-0600 (Central Standard Time),635481.9000000954,O,m,1577,45,1,128.bmp,-120,-120,129.bmp,120,-120,130.bmp,-120,120,131.bmp,120,120,9629.100000023842,625852.8000000715,7241,no,SM,A,131.bmp,-120,-120,186238,180208,188254,182223,626214.0,620187.0,628231.0,622199.0,45
1,1,0,0,0,36,test,1,1,m,Mon Dec 15 2025 18:48:00 GMT-0600 (Central Standard Time),644826.1000000238,O,m,1298,46,1,120.bmp,-120,-120,121.bmp,120,-120,122.bmp,-120,120,123.bmp,120,120,9337.399999976158,635488.7000000477,7241,no,SM,A,121.bmp,-120,-120,186238,180208,188254,182223,635845.0,629823.0,637861.0,631831.0,46
3,0,0,1,0,37,test,1,1,z,Mon Dec 15 2025 18:48:00 GMT-0600 (Central Standard Time),654457.0,O,z,1576,47,1,124.bmp,-120,-120,125.bmp,120,-120,126.bmp,-120,120,127.bmp,120,120,9626.199999928474,644830.8000000715,7241,yes,SM,A,126.bmp,-120,120,186238,180208,188254,182223,645192.0,639165.0,647208.0,641179.0,47
3,0,0,1,0,38,test,1,1,z,Mon Dec 15 2025 18:48:00 GMT-0600 (Central Standard Time),664487.7000000477,O,z,1976,48,1,140.bmp,-120,-120,141.bmp,120,-120,142.bmp,-120,120,143.bmp,120,120,10025.200000047684,654462.5,7241,yes,SM,A,142.bmp,-120,120,186238,180208,188254,182223,654822.0,648797.0,656840.0,650808.0,48
2,0,1,0,0,39,test,1,1,z,Mon Dec 15 2025 18:48:00 GMT-0600 (Central Standard Time),674034.5,O,z,1499,49,1,136.bmp,-120,-120,137.bmp,120,-120,138.bmp,-120,120,139.bmp,120,120,9542.699999928474,664491.8000000715,7241,yes,SM,A,137.bmp,120,-120,186238,180208,188254,182223,664854.0,658826.0,666869.0,660837.0,49
3,0,0,1,0,39,test,1,0,m,Mon Dec 15 2025 18:48:00 GMT-0600 (Central Standard Time),683615.7000000477,O,z,1521,50,1,132.bmp,-120,-120,133.bmp,120,-120,134.bmp,-120,120,135.bmp,120,120,9577.799999952316,674037.9000000954,7241,no,SM,A,132.bmp,-120,120,186238,180208,188254,182223,674401.0,668372.0,676416.0,670385.0,50
2,0,1,0,0,40,test,1,1,z,Mon Dec 15 2025 18:48:00 GMT-0600 (Central Standard Time),693477.7000000477,O,z,1802,51,1,144.bmp,-120,-120,145.bmp,120,-120,146.bmp,-120,120,147.bmp,120,120,9854.200000047684,683623.5,7241,yes,SM,A,145.bmp,120,-120,186238,180208,188254,182223,683981.0,677958.0,685997.0,679966.0,51
4,0,0,0,1,41,test,1,1,m,Mon Dec 15 2025 18:48:00 GMT-0600 (Central Standard Time),703108.0,O,m,1595,52,1,148.bmp,-120,-120,149.bmp,120,-120,150.bmp,-120,120,131.bmp,120,120,9627.5,693480.5,7241,no,SM,A,148.bmp,120,120,186238,180208,188254,182223,693842.0,687815.0,695844.0,689827.0,52
3,0,0,1,0,41,test,1,0,z,Mon Dec 15 2025 18:48:00 GMT-0600 (Central Standard Time),713171.7000000477,O,None,2016,53,1,101.bmp,-120,-120,102.bmp,120,-120,103.bmp,-120,120,104.bmp,120,120,10061.600000023842,703110.1000000238,7241,yes,SM,A,103.bmp,-120,120,186238,180208,188254,182223,703473.0,697444.0,705490.0,699460.0,53
1,1,0,0,0,41,test,1,0,m,Mon Dec 15 2025 18:48:00 GMT-0600 (Central Standard Time),723035.0,O,z,1814,54,1,105.bmp,-120,-120,106.bmp,120,-120,107.bmp,-120,120,108.bmp,120,120,9859.599999904633,713175.4000000954,7241,no,SM,A,107.bmp,-120,-120,186238,180208,188254,182223,713537.0,707510.0,715553.0,709522.0,54
4,0,0,0,1,42,test,1,1,z,Mon Dec 15 2025 18:48:00 GMT-0600 (Central Standard Time),732733.2000000477,O,z,1662,55,1,109.bmp,-120,-120,110.bmp,120,-120,111.bmp,-120,120,112.bmp,120,120,9693.799999952316,723039.4000000954,7241,yes,SM,A,112.bmp,120,120,186238,180208,188254,182223,723401.0,717374.0,725402.0,719386.0,55
2,0,1,0,0,43,test,1,1,m,Mon Dec 15 2025 18:48:00 GMT-0600 (Central Standard Time),742612.7000000477,O,m,1820,56,1,113.bmp,-120,-120,114.bmp,120,-120,115.bmp,-120,120,116.bmp,120,120,9874.700000047684,732738.0,7241,no,SM,A,113.bmp,120,-120,186238,180208,188254,182223,733098.0,727072.0,735115.0,729083.0,56
4,0,0,0,1,44,test,1,1,m,Mon Dec 15 2025 18:48:00 GMT-0600 (Central Standard Time),752127.2000000477,O,m,1475,57,1,117.bmp,-120,-120,118.bmp,120,-120,119.bmp,-120,120,120.bmp,120,120,9510.299999952316,742616.9000000954,7241,no,SM,A,118.bmp,120,120,186238,180208,188254,182223,742977.0,736951.0,744981.0,738963.0,57
3,0,0,1,0,45,test,1,1,z,Mon Dec 15 2025 18:48:00 GMT-0600 (Central Standard Time),762140.2000000477,O,z,1955,58,1,121.bmp,-120,-120,122.bmp,120,-120,123.bmp,-120,120,124.bmp,120,120,10008.600000023842,752131.6000000238,7241,yes,SM,A,123.bmp,-120,120,186238,180208,188254,182223,752494.0,746466.0,754508.0,748476.0,58
2,0,1,0,0,45,test,1,0,m,Mon Dec 15 2025 18:48:00 GMT-0600 (Central Standard Time),772202.8000000715,O,None,2013,59,1,125.bmp,-120,-120,126.bmp,120,-120,127.bmp,-120,120,128.bmp,120,120,10059.100000023842,762143.7000000477,7241,no,SM,A,128.bmp,120,-120,186238,180208,188254,182223,762505.0,756478.0,764524.0,758492.0,59
1,1,0,0,0,45,test,1,0,z,Mon Dec 15 2025 18:48:00 GMT-0600 (Central Standard Time),782254.3000000715,O,None,2001,60,1,129.bmp,-120,-120,130.bmp,120,-120,131.bmp,-120,120,132.bmp,120,120,10047.0,772207.3000000715,7241,yes,SM,A,129.bmp,-120,-120,186238,180208,188254,182223,772569.0,766542.0,774587.0,768553.0,60
2,0,1,0,0,46,test,1,1,z,Mon Dec 15 2025 18:48:00 GMT-0600 (Central Standard Time),791480.4000000954,O,z,1169,61,1,133.bmp,-120,-120,134.bmp,120,-120,135.bmp,-120,120,136.bmp,120,120,9223.600000023842,782256.8000000715,7241,yes,SM,A,134.bmp,120,-120,186238,180208,188254,182223,782616.0,776591.0,784630.0,778600.0,61
4,0,0,0,1,47,test,1,1,z,Mon Dec 15 2025 18:48:00 GMT-0600 (Central Standard Time),800859.9000000954,O,z,1321,62,1,141.bmp,-120,-120,142.bmp,120,-120,143.bmp,-120,120,144.bmp,120,120,9371.600000023842,791488.3000000715,7241,yes,SM,A,144.bmp,120,120,186238,180208,188254,182223,791847.0,785823.0,793862.0,787831.0,62
1,1,0,0,0,47,test,1,0,m,Mon Dec 15 2025 18:48:00 GMT-0600 (Central Standard Time),810923.7000000477,O,None,2016,63,1,145.bmp,-120,-120,146.bmp,120,-120,147.bmp,-120,120,148.bmp,120,120,10060.0,800863.7000000477,7241,no,SM,A,145.bmp,-120,120,186238,180208,188254,182223,801226.0,795198.0,803242.0,797212.0,63
2,0,1,0,0,48,test,1,1,z,Mon Dec 15 2025 18:48:00 GMT-0600 (Central Standard Time),819972.5,O,z,991,64,1,149.bmp,-120,-120,150.bmp,120,-120,112.bmp,-120,120,101.bmp,120,120,9046.5,810926.0,7241,yes,SM,A,150.bmp,120,-120,186238,180208,188254,182223,811290.0,805260.0,813305.0,807274.0,64
4,0,0,0,1,49,test,1,1,m,Mon Dec 15 2025 18:48:00 GMT-0600 (Central Standard Time),829884.9000000954,O,m,1867,65,1,102.bmp,-120,-120,103.bmp,120,-120,104.bmp,-120,120,105.bmp,120,120,9909.900000095367,819975.0,7241,no,SM,A,104.bmp,120,120,186238,180208,188254,182223,820337.0,814309.0,822352.0,816323.0,65
3,0,0,1,0,50,test,1,1,m,Mon Dec 15 2025 18:48:00 GMT-0600 (Central Standard Time),839581.8000000715,O,m,1644,66,1,106.bmp,-120,-120,107.bmp,120,-120,108.bmp,-120,120,109.bmp,120,120,9694.200000047684,829887.6000000238,7241,no,SM,A,109.bmp,-120,120,186238,180208,188254,182223,830250.0,824222.0,832267.0,826235.0,66
2,0,1,0,0,51,test,1,1,m,Mon Dec 15 2025 18:48:00 GMT-0600 (Central Standard Time),849146.7000000477,O,m,1517,67,1,137.bmp,-120,-120,138.bmp,120,-120,139.bmp,-120,120,140.bmp,120,120,9562.200000047684,839584.5,7241,no,SM,A,139.bmp,120,-120,186238,180208,188254,182223,839945.0,833919.0,841948.0,835931.0,67
3,0,0,1,0,52,test,1,1,z,Mon Dec 15 2025 18:48:00 GMT-0600 (Central Standard Time),858507.8000000715,O,z,1312,68,1,110.bmp,-120,-120,111.bmp,120,-120,112.bmp,-120,120,113.bmp,120,120,9358.399999976158,849149.4000000954,7241,yes,SM,A,112.bmp,-120,120,186238,180208,188254,182223,849511.0,843484.0,851527.0,845495.0,68
1,1,0,0,0,53,test,1,1,m,Mon Dec 15 2025 18:48:00 GMT-0600 (Central Standard Time),868270.8000000715,O,m,1701,69,1,114.bmp,-120,-120,115.bmp,120,-120,116.bmp,-120,120,117.bmp,120,120,9760.399999976158,858510.4000000954,7241,no,SM,A,115.bmp,-120,-120,186238,180208,188254,182223,858875.0,852845.0,860890.0,854859.0,69
2,0,1,0,0,54,test,1,1,m,Mon Dec 15 2025 18:48:00 GMT-0600 (Central Standard Time),878319.1000000238,O,m,1986,70,1,118.bmp,-120,-120,119.bmp,120,-120,120.bmp,-120,120,121.bmp,120,120,10044.5,868274.6000000238,7241,no,SM,A,120.bmp,120,-120,186238,180208,188254,182223,868638.0,862609.0,870654.0,864622.0,70
4,0,0,0,1,55,test,1,1,z,Mon Dec 15 2025 18:48:00 GMT-0600 (Central Standard Time),887899.7000000477,O,z,1522,71,1,122.bmp,-120,-120,123.bmp,120,-120,124.bmp,-120,120,125.bmp,120,120,9573.5,878326.2000000477,7241,yes,SM,A,125.bmp,120,120,186238,180208,188254,182223,878684.0,872660.0,880701.0,874670.0,71
1,1,0,0,0,56,test,1,1,z,Mon Dec 15 2025 18:48:00 GMT-0600 (Central Standard Time),897412.9000000954,O,z,1463,72,1,126.bmp,-120,-120,127.bmp,120,-120,128.bmp,-120,120,129.bmp,120,120,9509.900000095367,887903.0,7241,yes,SM,A,126.bmp,-120,-120,186238,180208,188254,182223,888265.0,882237.0,890281.0,884251.0,72
2,0,1,0,0,57,test,1,1,z,Mon Dec 15 2025 18:48:00 GMT-0600 (Central Standard Time),907009.8000000715,O,z,1549,73,1,130.bmp,-120,-120,131.bmp,120,-120,132.bmp,-120,120,133.bmp,120,120,9591.5,897418.3000000715,7241,yes,SM,A,131.bmp,120,-120,186238,180208,188254,182223,897780.0,891752.0,899794.0,893764.0,73
4,0,0,0,1,58,test,1,1,m,Mon Dec 15 2025 18:48:00 GMT-0600 (Central Standard Time),916323.4000000954,O,m,1265,74,1,134.bmp,-120,-120,135.bmp,120,-120,136.bmp,-120,120,137.bmp,120,120,9308.600000023842,907014.8000000715,7241,no,SM,A,136.bmp,120,120,186238,180208,188254,182223,907376.0,901349.0,909392.0,903362.0,74
2,0,1,0,0,58,test,1,0,m,Mon Dec 15 2025 18:48:00 GMT-0600 (Central Standard Time),926387.7000000477,O,None,2016,75,1,138.bmp,-120,-120,139.bmp,120,-120,140.bmp,-120,120,141.bmp,120,120,10060.600000023842,916327.1000000238,7241,no,SM,A,141.bmp,120,-120,186238,180208,188254,182223,916689.0,910661.0,918706.0,912674.0,75
1,1,0,0,0,59,test,1,1,z,Mon Dec 15 2025 18:48:00 GMT-0600 (Central Standard Time),935551.5,O,z,1102,76,1,142.bmp,-120,-120,143.bmp,120,-120,144.bmp,-120,120,145.bmp,120,120,9159.0,926392.5,7241,yes,SM,A,142.bmp,-120,-120,186238,180208,188254,182223,926755.0,920727.0,928769.0,922738.0,76
3,0,0,1,0,59,test,1,0,z,Mon Dec 15 2025 18:48:00 GMT-0600 (Central Standard Time),945616.4000000954,O,None,2015,77,1,150.bmp,-120,-120,111.bmp,120,-120,101.bmp,-120,120,102.bmp,120,120,10063.100000023842,935553.3000000715,7241,yes,SM,A,101.bmp,-120,120,186238,180208,188254,182223,935916.0,929887.0,937935.0,931901.0,77
1,1,0,0,0,60,test,1,1,m,Mon Dec 15 2025 18:48:00 GMT-0600 (Central Standard Time),955396.0,O,m,1729,78,1,146.bmp,-120,-120,147.bmp,120,-120,148.bmp,-120,120,149.bmp,120,120,9773.799999952316,945622.2000000477,7241,no,SM,A,147.bmp,-120,-120,186238,180208,188254,182223,945981.0,939957.0,947998.0,941965.0,78
4,0,0,0,1,61,test,1,1,m,Mon Dec 15 2025 18:48:00 GMT-0600 (Central Standard Time),964924.7000000477,O,m,1471,79,1,107.bmp,-120,-120,108.bmp,120,-120,109.bmp,-120,120,110.bmp,120,120,9524.299999952316,955400.4000000954,7241,no,SM,A,107.bmp,120,120,186238,180208,188254,182223,955759.0,949735.0,957776.0,951745.0,79
3,0,0,1,0,62,test,1,1,m,Mon Dec 15 2025 18:48:00 GMT-0600 (Central Standard Time),974421.2000000477,O,m,1436,80,1,103.bmp,-120,-120,104.bmp,120,-120,105.bmp,-120,120,106.bmp,120,120,9491.0,964930.2000000477,7241,no,SM,A,106.bmp,-120,120,186238,180208,188254,182223,965292.0,959264.0,967307.0,961275.0,80
