acc_sum,block,block_c,change,condition,correct,correct_response,datetime,endtime,face,project,response,response_time,row_sel,session_number,start_end,starttime,subject_id,task,task_vers,trial
0,prac,1,,1-Back,,,Fri Feb 06 2026 13:29:20 GMT-0500 (Eastern Standard Time),,005_o_f_d_a.png,I,space,8985,1,2,,,9034,VNB,B,0
1,prac,1,0.0,1-Back,1.0,m,Fri Feb 06 2026 13:29:20 GMT-0500 (Eastern Standard Time),187836.60000038147,020_y_f_n_a.png,I,m,1890,2,2,2798.199999809265,185038.4000005722,9034,VNB,B,1
2,prac,1,0.0,1-Back,1.0,m,Fri Feb 06 2026 13:29:20 GMT-0500 (Eastern Standard Time),189919.80000019073,007_m_m_h_a.png,I,m,1146,3,2,2075.699999809265,187844.10000038147,9034,VNB,B,2
3,prac,1,0.0,1-Back,1.0,m,Fri Feb 06 2026 13:29:20 GMT-0500 (Eastern Standard Time),191703.20000076294,016_y_m_d_a.png,I,m,819,4,2,1768.0,189935.20000076294,9034,VNB,B,3
4,prac,1,0.0,1-Back,1.0,m,Fri Feb 06 2026 13:29:20 GMT-0500 (Eastern Standard Time),193586.60000038147,005_o_f_n_a.png,I,m,951,5,2,1873.6000003814697,191713.0,9034,VNB,B,4
5,prac,1,1.0,1-Back,1.0,z,Fri Feb 06 2026 13:29:20 GMT-0500 (Eastern Standard Time),195553.20000076294,016_y_m_n_a.png,I,z,1011,6,2,1951.7000007629395,193601.5,9034,VNB,B,5
6,prac,1,0.0,1-Back,1.0,m,Fri Feb 06 2026 13:29:20 GMT-0500 (Eastern Standard Time),197286.4000005722,004_o_m_h_a.png,I,m,812,7,2,1721.6000003814697,195564.80000019073,9034,VNB,B,6
7,prac,1,0.0,1-Back,1.0,m,Fri Feb 06 2026 13:29:20 GMT-0500 (Eastern Standard Time),199219.9000005722,011_m_f_d_a.png,I,m,985,8,2,1915.6000003814697,197304.30000019073,9034,VNB,B,7
7,prac,1,1.0,1-Back,0.0,z,Fri Feb 06 2026 13:29:20 GMT-0500 (Eastern Standard Time),200919.80000019073,020_y_f_d_a.png,I,m,776,9,2,1690.8000001907349,199229.0,9034,VNB,B,8
8,prac,1,0.0,1-Back,1.0,m,Fri Feb 06 2026 13:29:20 GMT-0500 (Eastern Standard Time),203436.4000005722,007_m_m_n_a.png,I,m,1566,10,2,2500.5,200935.9000005722,9034,VNB,B,9
9,prac,1,0.0,1-Back,1.0,m,Fri Feb 06 2026 13:29:20 GMT-0500 (Eastern Standard Time),205603.0,005_o_f_h_a.png,I,m,1235,11,2,2158.2999992370605,203444.70000076294,9034,VNB,B,10
10,prac,1,0.0,1-Back,1.0,m,Fri Feb 06 2026 13:29:20 GMT-0500 (Eastern Standard Time),207453.30000019073,016_y_m_d_a.png,I,m,897,12,2,1835.3999996185303,205617.9000005722,9034,VNB,B,11
0,test,1,0.0,1-Back,,,Fri Feb 06 2026 13:29:20 GMT-0500 (Eastern Standard Time),207453.30000019073,020_y_f_d_a.png,I,space,16830,1,2,1835.3999996185303,205617.9000005722,9034,VNB,B,0
1,test,1,0.0,1-Back,1.0,m,Fri Feb 06 2026 13:29:20 GMT-0500 (Eastern Standard Time),234653.10000038147,011_m_f_n_a.png,I,m,833,2,2,1866.8999996185303,232786.20000076294,9034,VNB,B,1
2,test,1,0.0,1-Back,1.0,m,Fri Feb 06 2026 13:29:20 GMT-0500 (Eastern Standard Time),236486.30000019073,004_o_m_h_a.png,I,m,806,3,2,1825.6999998092651,234660.60000038147,9034,VNB,B,2
3,test,1,1.0,1-Back,1.0,z,Fri Feb 06 2026 13:29:20 GMT-0500 (Eastern Standard Time),238203.0,007_m_m_h_a.png,I,z,684,4,2,1704.6999998092651,236498.30000019073,9034,VNB,B,3
4,test,1,0.0,1-Back,1.0,m,Fri Feb 06 2026 13:29:20 GMT-0500 (Eastern Standard Time),239969.60000038147,005_o_f_n_a.png,I,m,745,5,2,1760.3999996185303,238209.20000076294,9034,VNB,B,4
5,test,1,0.0,1-Back,1.0,m,Fri Feb 06 2026 13:29:20 GMT-0500 (Eastern Standard Time),241786.30000019073,016_y_m_d_a.png,I,m,786,6,2,1803.1999998092651,239983.10000038147,9034,VNB,B,5
6,test,1,1.0,1-Back,1.0,z,Fri Feb 06 2026 13:29:20 GMT-0500 (Eastern Standard Time),243852.9000005722,011_m_f_d_a.png,I,z,1033,7,2,2060.199999809265,241792.70000076294,9034,VNB,B,6
7,test,1,0.0,1-Back,1.0,m,Fri Feb 06 2026 13:29:20 GMT-0500 (Eastern Standard Time),245719.60000038147,020_y_f_h_a.png,I,m,839,8,2,1852.5,243867.10000038147,9034,VNB,B,7
8,test,1,0.0,1-Back,1.0,m,Fri Feb 06 2026 13:29:20 GMT-0500 (Eastern Standard Time),247936.20000076294,004_o_m_n_a.png,I,m,1196,9,2,2208.300000190735,245727.9000005722,9034,VNB,B,8
9,test,1,0.0,1-Back,1.0,m,Fri Feb 06 2026 13:29:20 GMT-0500 (Eastern Standard Time),249736.30000019073,016_y_m_h_a.png,I,m,770,10,2,1786.3000001907349,247950.0,9034,VNB,B,9
10,test,1,0.0,1-Back,1.0,m,Fri Feb 06 2026 13:29:20 GMT-0500 (Eastern Standard Time),251502.9000005722,004_o_m_d_a.png,I,m,747,11,2,1759.6000003814697,249743.30000019073,9034,VNB,B,10
11,test,1,1.0,1-Back,1.0,z,Fri Feb 06 2026 13:29:20 GMT-0500 (Eastern Standard Time),253469.60000038147,005_o_f_d_a.png,I,z,932,12,2,1953.1000003814697,251516.5,9034,VNB,B,11
12,test,1,0.0,1-Back,1.0,m,Fri Feb 06 2026 13:29:20 GMT-0500 (Eastern Standard Time),255369.60000038147,007_m_m_n_a.png,I,m,870,13,2,1893.1999998092651,253476.4000005722,9034,VNB,B,12
13,test,1,1.0,1-Back,1.0,z,Fri Feb 06 2026 13:29:20 GMT-0500 (Eastern Standard Time),257453.30000019073,020_y_f_n_a.png,I,z,1066,14,2,2071.800000190735,255381.5,9034,VNB,B,13
14,test,1,0.0,1-Back,1.0,m,Fri Feb 06 2026 13:29:20 GMT-0500 (Eastern Standard Time),259319.60000038147,011_m_f_h_a.png,I,m,839,15,2,1857.3999996185303,257462.20000076294,9034,VNB,B,14
14,test,1,0.0,1-Back,0.0,m,Fri Feb 06 2026 13:29:20 GMT-0500 (Eastern Standard Time),261186.30000019073,007_m_m_d_a.png,I,z,827,16,2,1848.5999994277954,259337.70000076294,9034,VNB,B,15
15,test,1,0.0,1-Back,1.0,m,Fri Feb 06 2026 13:29:20 GMT-0500 (Eastern Standard Time),263303.0,016_y_m_n_a.png,I,m,1089,17,2,2108.0,261195.0,9034,VNB,B,16
16,test,1,0.0,1-Back,1.0,m,Fri Feb 06 2026 13:29:20 GMT-0500 (Eastern Standard Time),265136.20000076294,005_o_f_h_a.png,I,m,813,18,2,1820.2000007629395,263316.0,9034,VNB,B,17
0,test,2,0.0,1-Back,,,Fri Feb 06 2026 13:29:20 GMT-0500 (Eastern Standard Time),265136.20000076294,016_y_m_n_a.png,I,space,1355,1,2,1820.2000007629395,263316.0,9034,VNB,B,0
1,test,2,0.0,1-Back,1.0,m,Fri Feb 06 2026 13:29:20 GMT-0500 (Eastern Standard Time),270253.0,020_y_f_h_a.png,I,m,700,2,2,1720.1999998092651,268532.80000019073,9034,VNB,B,1
2,test,2,1.0,1-Back,1.0,m,Fri Feb 06 2026 13:29:20 GMT-0500 (Eastern Standard Time),272119.5,004_o_m_n_a.png,I,m,838,3,2,1858.3999996185303,270261.10000038147,9034,VNB,B,2
3,test,2,0.0,1-Back,1.0,m,Fri Feb 06 2026 13:29:20 GMT-0500 (Eastern Standard Time),273969.60000038147,011_m_f_d_a.png,I,m,828,4,2,1836.1000003814697,272133.5,9034,VNB,B,3
4,test,2,0.0,1-Back,1.0,z,Fri Feb 06 2026 13:29:20 GMT-0500 (Eastern Standard Time),275819.5,007_m_m_d_a.png,I,z,818,5,2,1843.0,273976.5,9034,VNB,B,4
5,test,2,0.0,1-Back,1.0,m,Fri Feb 06 2026 13:29:20 GMT-0500 (Eastern Standard Time),277702.9000005722,016_y_m_h_a.png,I,m,840,6,2,1866.3000001907349,275836.60000038147,9034,VNB,B,5
6,test,2,1.0,1-Back,1.0,z,Fri Feb 06 2026 13:29:20 GMT-0500 (Eastern Standard Time),279636.30000019073,005_o_f_h_a.png,I,z,909,7,2,1926.1999998092651,277710.10000038147,9034,VNB,B,6
7,test,2,0.0,1-Back,1.0,m,Fri Feb 06 2026 13:29:20 GMT-0500 (Eastern Standard Time),281419.60000038147,011_m_f_n_a.png,I,m,750,8,2,1770.5,279649.10000038147,9034,VNB,B,7
8,test,2,0.0,1-Back,1.0,m,Fri Feb 06 2026 13:29:20 GMT-0500 (Eastern Standard Time),283452.9000005722,020_y_f_d_a.png,I,m,1015,9,2,2024.6999998092651,281428.20000076294,9034,VNB,B,8
9,test,2,0.0,1-Back,1.0,m,Fri Feb 06 2026 13:29:20 GMT-0500 (Eastern Standard Time),285869.60000038147,007_m_m_n_a.png,I,m,1399,10,2,2407.8999996185303,283461.70000076294,9034,VNB,B,9
10,test,2,1.0,1-Back,1.0,m,Fri Feb 06 2026 13:29:20 GMT-0500 (Eastern Standard Time),288052.9000005722,011_m_f_h_a.png,I,m,1158,11,2,2174.800000190735,285878.10000038147,9034,VNB,B,10
11,test,2,0.0,1-Back,1.0,z,Fri Feb 06 2026 13:29:20 GMT-0500 (Eastern Standard Time),289853.0,004_o_m_h_a.png,I,z,767,12,2,1785.6999998092651,288067.30000019073,9034,VNB,B,11
12,test,2,0.0,1-Back,1.0,m,Fri Feb 06 2026 13:29:20 GMT-0500 (Eastern Standard Time),291569.60000038147,016_y_m_d_a.png,I,m,695,13,2,1709.6999998092651,289859.9000005722,9034,VNB,B,12
13,test,2,0.0,1-Back,1.0,m,Fri Feb 06 2026 13:29:20 GMT-0500 (Eastern Standard Time),293419.60000038147,005_o_f_n_a.png,I,m,801,14,2,1830.3999996185303,291589.20000076294,9034,VNB,B,13
14,test,2,0.0,1-Back,1.0,z,Fri Feb 06 2026 13:29:20 GMT-0500 (Eastern Standard Time),295269.5,020_y_f_n_a.png,I,z,824,15,2,1841.5999994277954,293427.9000005722,9034,VNB,B,14
15,test,2,1.0,1-Back,1.0,m,Fri Feb 06 2026 13:29:20 GMT-0500 (Eastern Standard Time),297086.10000038147,007_m_m_h_a.png,I,m,798,16,2,1805.6999998092651,295280.4000005722,9034,VNB,B,15
16,test,2,0.0,1-Back,1.0,m,Fri Feb 06 2026 13:29:20 GMT-0500 (Eastern Standard Time),299052.9000005722,005_o_f_d_a.png,I,m,933,17,2,1961.4000005722046,297091.5,9034,VNB,B,16
16,test,2,1.0,1-Back,0.0,z,Fri Feb 06 2026 13:29:20 GMT-0500 (Eastern Standard Time),301169.60000038147,004_o_m_d_a.png,I,m,1077,18,2,2103.0,299066.60000038147,9034,VNB,B,17
0,test,3,1.0,1-Back,,,Fri Feb 06 2026 13:29:20 GMT-0500 (Eastern Standard Time),301169.60000038147,005_o_f_h_a.png,I,space,1449,1,2,2103.0,299066.60000038147,9034,VNB,B,0
1,test,3,0.0,1-Back,1.0,m,Fri Feb 06 2026 13:29:20 GMT-0500 (Eastern Standard Time),306636.20000076294,011_m_f_d_a.png,I,m,800,2,2,1819.0,304817.20000076294,9034,VNB,B,1
2,test,3,1.0,1-Back,1.0,m,Fri Feb 06 2026 13:29:20 GMT-0500 (Eastern Standard Time),308502.9000005722,007_m_m_n_a.png,I,m,839,3,2,1859.1000003814697,306643.80000019073,9034,VNB,B,2
3,test,3,0.0,1-Back,1.0,z,Fri Feb 06 2026 13:29:20 GMT-0500 (Eastern Standard Time),310436.30000019073,005_o_f_n_a.png,I,z,909,4,2,1920.3000001907349,308516.0,9034,VNB,B,3
4,test,3,1.0,1-Back,1.0,m,Fri Feb 06 2026 13:29:20 GMT-0500 (Eastern Standard Time),312253.0,004_o_m_d_a.png,I,m,799,5,2,1809.2999992370605,310443.70000076294,9034,VNB,B,4
5,test,3,0.0,1-Back,1.0,m,Fri Feb 06 2026 13:29:20 GMT-0500 (Eastern Standard Time),314236.30000019073,020_y_f_h_a.png,I,m,950,6,2,1973.0999994277954,312263.20000076294,9034,VNB,B,5
6,test,3,0.0,1-Back,1.0,z,Fri Feb 06 2026 13:29:20 GMT-0500 (Eastern Standard Time),316136.20000076294,016_y_m_h_a.png,I,z,870,7,2,1892.9000005722046,314243.30000019073,9034,VNB,B,6
7,test,3,0.0,1-Back,1.0,m,Fri Feb 06 2026 13:29:20 GMT-0500 (Eastern Standard Time),318019.60000038147,011_m_f_n_a.png,I,m,843,8,2,1866.0,316153.60000038147,9034,VNB,B,7
8,test,3,0.0,1-Back,1.0,m,Fri Feb 06 2026 13:29:20 GMT-0500 (Eastern Standard Time),320069.60000038147,020_y_f_d_a.png,I,m,1024,9,2,2041.3999996185303,318028.20000076294,9034,VNB,B,8
9,test,3,1.0,1-Back,1.0,m,Fri Feb 06 2026 13:29:20 GMT-0500 (Eastern Standard Time),322286.0,004_o_m_n_a.png,I,m,1198,10,2,2205.8999996185303,320080.10000038147,9034,VNB,B,9
10,test,3,0.0,1-Back,1.0,m,Fri Feb 06 2026 13:29:20 GMT-0500 (Eastern Standard Time),324253.0,007_m_m_h_a.png,I,m,950,11,2,1959.0999994277954,322293.9000005722,9034,VNB,B,10
11,test,3,0.0,1-Back,1.0,z,Fri Feb 06 2026 13:29:20 GMT-0500 (Eastern Standard Time),326069.5,011_m_f_h_a.png,I,z,791,12,2,1804.0,324265.5,9034,VNB,B,11
12,test,3,1.0,1-Back,1.0,m,Fri Feb 06 2026 13:29:20 GMT-0500 (Eastern Standard Time),327902.60000038147,005_o_f_d_a.png,I,m,813,13,2,1826.1999998092651,326076.4000005722,9034,VNB,B,12
13,test,3,0.0,1-Back,1.0,z,Fri Feb 06 2026 13:29:20 GMT-0500 (Eastern Standard Time),329853.0,007_m_m_d_a.png,I,z,932,14,2,1938.6999998092651,327914.30000019073,9034,VNB,B,13
14,test,3,0.0,1-Back,1.0,m,Fri Feb 06 2026 13:29:20 GMT-0500 (Eastern Standard Time),331752.9000005722,016_y_m_n_a.png,I,m,871,15,2,1894.4000005722046,329858.5,9034,VNB,B,14
15,test,3,1.0,1-Back,1.0,m,Fri Feb 06 2026 13:29:20 GMT-0500 (Eastern Standard Time),333802.9000005722,004_o_m_h_a.png,I,m,1017,16,2,2036.9000005722046,331766.0,9034,VNB,B,15
16,test,3,0.0,1-Back,1.0,m,Fri Feb 06 2026 13:29:20 GMT-0500 (Eastern Standard Time),335619.5,016_y_m_d_a.png,I,m,793,17,2,1808.0,333811.5,9034,VNB,B,16
17,test,3,1.0,1-Back,1.0,m,Fri Feb 06 2026 13:29:20 GMT-0500 (Eastern Standard Time),337802.80000019073,020_y_f_n_a.png,I,m,1151,18,2,2170.5,335632.30000019073,9034,VNB,B,17
0,test,4,1.0,1-Back,,,Fri Feb 06 2026 13:29:20 GMT-0500 (Eastern Standard Time),337802.80000019073,007_m_m_d_a.png,I,space,1168,1,2,2170.5,335632.30000019073,9034,VNB,B,0
0,test,4,0.0,1-Back,0.0,z,Fri Feb 06 2026 13:29:20 GMT-0500 (Eastern Standard Time),343236.20000076294,004_o_m_d_a.png,I,m,1209,2,2,2220.6000003814697,341015.60000038147,9034,VNB,B,1
1,test,4,0.0,1-Back,1.0,m,Fri Feb 06 2026 13:29:20 GMT-0500 (Eastern Standard Time),345152.80000019073,016_y_m_h_a.png,I,m,895,3,2,1909.8000001907349,343243.0,9034,VNB,B,2
2,test,4,0.0,1-Back,1.0,m,Fri Feb 06 2026 13:29:20 GMT-0500 (Eastern Standard Time),346919.60000038147,011_m_f_n_a.png,I,m,739,4,2,1754.3999996185303,345165.20000076294,9034,VNB,B,3
3,test,4,1.0,1-Back,1.0,m,Fri Feb 06 2026 13:29:20 GMT-0500 (Eastern Standard Time),348802.9000005722,005_o_f_h_a.png,I,m,859,5,2,1876.6000003814697,346926.30000019073,9034,VNB,B,4
4,test,4,0.0,1-Back,1.0,m,Fri Feb 06 2026 13:29:20 GMT-0500 (Eastern Standard Time),350719.4000005722,007_m_m_n_a.png,I,m,897,6,2,1904.1999998092651,348815.20000076294,9034,VNB,B,5
5,test,4,0.0,1-Back,1.0,m,Fri Feb 06 2026 13:29:20 GMT-0500 (Eastern Standard Time),352653.10000038147,016_y_m_d_a.png,I,m,916,7,2,1926.6999998092651,350726.4000005722,9034,VNB,B,6
6,test,4,1.0,1-Back,1.0,z,Fri Feb 06 2026 13:29:20 GMT-0500 (Eastern Standard Time),354652.80000019073,020_y_f_d_a.png,I,z,950,8,2,1992.0999994277954,352660.70000076294,9034,VNB,B,7
7,test,4,0.0,1-Back,1.0,m,Fri Feb 06 2026 13:29:20 GMT-0500 (Eastern Standard Time),356602.80000019073,011_m_f_h_a.png,I,m,918,9,2,1942.8000001907349,354660.0,9034,VNB,B,8
8,test,4,0.0,1-Back,1.0,z,Fri Feb 06 2026 13:29:20 GMT-0500 (Eastern Standard Time),358436.20000076294,004_o_m_h_a.png,I,z,792,10,2,1815.7000007629395,356620.5,9034,VNB,B,9
9,test,4,1.0,1-Back,1.0,m,Fri Feb 06 2026 13:29:20 GMT-0500 (Eastern Standard Time),360319.4000005722,005_o_f_n_a.png,I,m,863,11,2,1875.9000005722046,358443.5,9034,VNB,B,10
10,test,4,0.0,1-Back,1.0,m,Fri Feb 06 2026 13:29:20 GMT-0500 (Eastern Standard Time),362502.9000005722,011_m_f_d_a.png,I,m,1155,12,2,2171.4000005722046,360331.5,9034,VNB,B,11
11,test,4,0.0,1-Back,1.0,m,Fri Feb 06 2026 13:29:20 GMT-0500 (Eastern Standard Time),364469.4000005722,020_y_f_n_a.png,I,m,941,13,2,1960.3000001907349,362509.10000038147,9034,VNB,B,12
12,test,4,0.0,1-Back,1.0,m,Fri Feb 06 2026 13:29:20 GMT-0500 (Eastern Standard Time),366569.5,005_o_f_d_a.png,I,m,1070,14,2,2088.5999994277954,364480.9000005722,9034,VNB,B,13
13,test,4,0.0,1-Back,1.0,m,Fri Feb 06 2026 13:29:20 GMT-0500 (Eastern Standard Time),368602.4000005722,020_y_f_h_a.png,I,m,1003,15,2,2024.5,366577.9000005722,9034,VNB,B,14
14,test,4,1.0,1-Back,1.0,z,Fri Feb 06 2026 13:29:20 GMT-0500 (Eastern Standard Time),370336.10000038147,007_m_m_h_a.png,I,z,713,16,2,1727.1999998092651,368608.9000005722,9034,VNB,B,15
15,test,4,0.0,1-Back,1.0,m,Fri Feb 06 2026 13:29:20 GMT-0500 (Eastern Standard Time),372069.4000005722,004_o_m_n_a.png,I,m,707,17,2,1726.3000001907349,370343.10000038147,9034,VNB,B,16
16,test,4,1.0,1-Back,1.0,z,Fri Feb 06 2026 13:29:20 GMT-0500 (Eastern Standard Time),373886.10000038147,016_y_m_n_a.png,I,z,782,18,2,1801.0,372085.10000038147,9034,VNB,B,17
0,test,5,1.0,1-Back,,,Fri Feb 06 2026 13:29:20 GMT-0500 (Eastern Standard Time),373886.10000038147,004_o_m_n_a.png,I,space,1261,1,2,1801.0,372085.10000038147,9034,VNB,B,0
1,test,5,1.0,1-Back,1.0,m,Fri Feb 06 2026 13:29:20 GMT-0500 (Eastern Standard Time),379019.5,005_o_f_h_a.png,I,m,818,2,2,1839.6999998092651,377179.80000019073,9034,VNB,B,1
2,test,5,0.0,1-Back,1.0,m,Fri Feb 06 2026 13:29:20 GMT-0500 (Eastern Standard Time),380852.80000019073,016_y_m_d_a.png,I,m,808,3,2,1825.8999996185303,379026.9000005722,9034,VNB,B,2
3,test,5,0.0,1-Back,1.0,z,Fri Feb 06 2026 13:29:20 GMT-0500 (Eastern Standard Time),383002.80000019073,004_o_m_d_a.png,I,z,1101,4,2,2134.699999809265,380868.10000038147,9034,VNB,B,3
4,test,5,0.0,1-Back,1.0,m,Fri Feb 06 2026 13:29:20 GMT-0500 (Eastern Standard Time),384902.80000019073,011_m_f_h_a.png,I,m,873,5,2,1892.8999996185303,383009.9000005722,9034,VNB,B,4
5,test,5,0.0,1-Back,1.0,m,Fri Feb 06 2026 13:29:20 GMT-0500 (Eastern Standard Time),386685.9000005722,020_y_f_n_a.png,I,m,765,6,2,1773.5,384912.4000005722,9034,VNB,B,5
6,test,5,1.0,1-Back,1.0,z,Fri Feb 06 2026 13:29:20 GMT-0500 (Eastern Standard Time),388519.9000005722,005_o_f_n_a.png,I,z,805,7,2,1825.0,386694.9000005722,9034,VNB,B,6
7,test,5,0.0,1-Back,1.0,m,Fri Feb 06 2026 13:29:20 GMT-0500 (Eastern Standard Time),390352.80000019073,011_m_f_d_a.png,I,m,812,8,2,1827.0999994277954,388525.70000076294,9034,VNB,B,7
8,test,5,0.0,1-Back,1.0,m,Fri Feb 06 2026 13:29:20 GMT-0500 (Eastern Standard Time),392402.4000005722,016_y_m_h_a.png,I,m,1026,9,2,2039.9000005722046,390362.5,9034,VNB,B,8
9,test,5,0.0,1-Back,1.0,m,Fri Feb 06 2026 13:29:20 GMT-0500 (Eastern Standard Time),394236.10000038147,020_y_f_d_a.png,I,m,800,10,2,1825.3999996185303,392410.70000076294,9034,VNB,B,9
10,test,5,0.0,1-Back,1.0,m,Fri Feb 06 2026 13:29:20 GMT-0500 (Eastern Standard Time),396102.80000019073,007_m_m_n_a.png,I,m,840,11,2,1860.5,394242.30000019073,9034,VNB,B,10
11,test,5,1.0,1-Back,1.0,z,Fri Feb 06 2026 13:29:20 GMT-0500 (Eastern Standard Time),398052.70000076294,011_m_f_n_a.png,I,z,924,12,2,1941.9000005722046,396110.80000019073,9034,VNB,B,11
12,test,5,0.0,1-Back,1.0,m,Fri Feb 06 2026 13:29:20 GMT-0500 (Eastern Standard Time),399919.20000076294,004_o_m_h_a.png,I,m,847,13,2,1859.4000005722046,398059.80000019073,9034,VNB,B,12
13,test,5,0.0,1-Back,1.0,z,Fri Feb 06 2026 13:29:20 GMT-0500 (Eastern Standard Time),401969.0,007_m_m_h_a.png,I,z,1027,14,2,2040.2999992370605,399928.70000076294,9034,VNB,B,13
14,test,5,1.0,1-Back,1.0,m,Fri Feb 06 2026 13:29:20 GMT-0500 (Eastern Standard Time),403852.70000076294,005_o_f_d_a.png,I,m,850,15,2,1880.6000003814697,401972.10000038147,9034,VNB,B,14
15,test,5,0.0,1-Back,1.0,m,Fri Feb 06 2026 13:29:20 GMT-0500 (Eastern Standard Time),406136.10000038147,016_y_m_n_a.png,I,m,1254,16,2,2271.800000190735,403864.30000019073,9034,VNB,B,15
16,test,5,0.0,1-Back,1.0,m,Fri Feb 06 2026 13:29:20 GMT-0500 (Eastern Standard Time),408102.80000019073,020_y_f_h_a.png,I,m,939,17,2,1960.6999998092651,406142.10000038147,9034,VNB,B,16
17,test,5,0.0,1-Back,1.0,m,Fri Feb 06 2026 13:29:20 GMT-0500 (Eastern Standard Time),410285.9000005722,007_m_m_d_a.png,I,m,1164,18,2,2168.9000005722046,408117.0,9034,VNB,B,17
0,prac,1,0.0,2-Back,,,Fri Feb 06 2026 13:29:20 GMT-0500 (Eastern Standard Time),410285.9000005722,011_m_f_n_a.png,I,space,10526,1,2,2168.9000005722046,408117.0,9034,VNB,B,0
0,prac,1,0.0,2-Back,,,Fri Feb 06 2026 13:29:20 GMT-0500 (Eastern Standard Time),410285.9000005722,005_o_f_h_a.png,I,space,10526,2,2,2168.9000005722046,408117.0,9034,VNB,B,0
1,prac,1,0.0,2-Back,1.0,m,Fri Feb 06 2026 13:29:20 GMT-0500 (Eastern Standard Time),527186.4000005722,004_o_m_d_a.png,I,m,1544,3,2,2454.0,524732.4000005722,9034,VNB,B,1
2,prac,1,1.0,2-Back,1.0,z,Fri Feb 06 2026 13:29:20 GMT-0500 (Eastern Standard Time),529069.5,007_m_m_h_a.png,I,z,919,4,2,1867.0,527202.5,9034,VNB,B,2
3,prac,1,0.0,2-Back,1.0,m,Fri Feb 06 2026 13:29:20 GMT-0500 (Eastern Standard Time),530986.0,020_y_f_n_a.png,I,m,987,5,2,1904.0,529082.0,9034,VNB,B,3
4,prac,1,1.0,2-Back,1.0,z,Fri Feb 06 2026 13:29:20 GMT-0500 (Eastern Standard Time),532902.8000001907,004_o_m_h_a.png,I,z,982,6,2,1897.1999998092651,531005.6000003815,9034,VNB,B,4
5,prac,1,1.0,2-Back,1.0,z,Fri Feb 06 2026 13:29:20 GMT-0500 (Eastern Standard Time),535136.0,016_y_m_n_a.png,I,z,1289,7,2,2223.8999996185303,532912.1000003815,9034,VNB,B,5
6,prac,1,0.0,2-Back,1.0,m,Fri Feb 06 2026 13:29:20 GMT-0500 (Eastern Standard Time),536986.1000003815,011_m_f_d_a.png,I,m,880,8,2,1830.3000001907349,535155.8000001907,9034,VNB,B,6
7,prac,1,0.0,2-Back,1.0,m,Fri Feb 06 2026 13:29:20 GMT-0500 (Eastern Standard Time),539302.7000007629,005_o_f_d_a.png,I,m,1376,9,2,2305.5,536997.2000007629,9034,VNB,B,7
8,prac,1,0.0,2-Back,1.0,m,Fri Feb 06 2026 13:29:20 GMT-0500 (Eastern Standard Time),541236.1000003815,007_m_m_h_a.png,I,m,973,10,2,1913.0,539323.1000003815,9034,VNB,B,8
9,prac,1,1.0,2-Back,1.0,z,Fri Feb 06 2026 13:29:20 GMT-0500 (Eastern Standard Time),543019.5,020_y_f_d_a.png,I,z,872,11,2,1774.7999992370605,541244.7000007629,9034,VNB,B,9
10,prac,1,0.0,2-Back,1.0,m,Fri Feb 06 2026 13:29:20 GMT-0500 (Eastern Standard Time),544819.4000005722,004_o_m_n_a.png,I,m,867,12,2,1779.0,543040.4000005722,9034,VNB,B,10
0,test,1,0.0,2-Back,,,Fri Feb 06 2026 13:29:20 GMT-0500 (Eastern Standard Time),544819.4000005722,016_y_m_h_a.png,I,space,13537,1,2,1779.0,543040.4000005722,9034,VNB,B,0
0,test,1,0.0,2-Back,,,Fri Feb 06 2026 13:29:20 GMT-0500 (Eastern Standard Time),544819.4000005722,005_o_f_n_a.png,I,space,13537,2,2,1779.0,543040.4000005722,9034,VNB,B,0
1,test,1,0.0,2-Back,1.0,z,Fri Feb 06 2026 13:29:20 GMT-0500 (Eastern Standard Time),572769.4000005722,004_o_m_h_a.png,I,z,1028,3,2,2043.3000001907349,570726.1000003815,9034,VNB,B,1
2,test,1,0.0,2-Back,1.0,m,Fri Feb 06 2026 13:29:20 GMT-0500 (Eastern Standard Time),574885.9000005722,011_m_f_d_a.png,I,m,1074,4,2,2100.800000190735,572785.1000003815,9034,VNB,B,2
3,test,1,1.0,2-Back,1.0,m,Fri Feb 06 2026 13:29:20 GMT-0500 (Eastern Standard Time),577435.7000007629,016_y_m_n_a.png,I,m,1518,5,2,2540.9000005722046,574894.8000001907,9034,VNB,B,3
4,test,1,0.0,2-Back,1.0,z,Fri Feb 06 2026 13:29:20 GMT-0500 (Eastern Standard Time),579219.2000007629,020_y_f_d_a.png,I,z,759,6,2,1769.5,577449.7000007629,9034,VNB,B,4
5,test,1,0.0,2-Back,1.0,m,Fri Feb 06 2026 13:29:20 GMT-0500 (Eastern Standard Time),581085.8000001907,007_m_m_h_a.png,I,m,848,7,2,1859.8000001907349,579226.0,9034,VNB,B,5
5,test,1,1.0,2-Back,0.0,m,Fri Feb 06 2026 13:29:20 GMT-0500 (Eastern Standard Time),583219.2000007629,020_y_f_n_a.png,I,z,1109,8,2,2120.0,581099.2000007629,9034,VNB,B,6
6,test,1,0.0,2-Back,1.0,z,Fri Feb 06 2026 13:29:20 GMT-0500 (Eastern Standard Time),585319.2000007629,005_o_f_h_a.png,I,z,1072,9,2,2091.7000007629395,583227.5,9034,VNB,B,7
7,test,1,0.0,2-Back,1.0,m,Fri Feb 06 2026 13:29:20 GMT-0500 (Eastern Standard Time),587252.5,004_o_m_d_a.png,I,m,907,10,2,1920.7999992370605,585331.7000007629,9034,VNB,B,8
8,test,1,1.0,2-Back,1.0,m,Fri Feb 06 2026 13:29:20 GMT-0500 (Eastern Standard Time),589119.1000003815,007_m_m_d_a.png,I,m,847,11,2,1858.3000001907349,587260.8000001907,9034,VNB,B,9
8,test,1,0.0,2-Back,0.0,m,Fri Feb 06 2026 13:29:20 GMT-0500 (Eastern Standard Time),591219.3000001907,011_m_f_n_a.png,I,z,1076,12,2,2086.5,589132.8000001907,9034,VNB,B,10
9,test,1,0.0,2-Back,1.0,m,Fri Feb 06 2026 13:29:20 GMT-0500 (Eastern Standard Time),593252.5,020_y_f_h_a.png,I,m,1007,13,2,2025.1999998092651,591227.3000001907,9034,VNB,B,11
10,test,1,0.0,2-Back,1.0,z,Fri Feb 06 2026 13:29:20 GMT-0500 (Eastern Standard Time),595252.7000007629,007_m_m_n_a.png,I,z,974,14,2,1985.3000001907349,593267.4000005722,9034,VNB,B,12
11,test,1,0.0,2-Back,1.0,m,Fri Feb 06 2026 13:29:20 GMT-0500 (Eastern Standard Time),597169.2000007629,016_y_m_d_a.png,I,m,894,15,2,1909.4000005722046,595259.8000001907,9034,VNB,B,13
12,test,1,1.0,2-Back,1.0,m,Fri Feb 06 2026 13:29:20 GMT-0500 (Eastern Standard Time),599319.2000007629,011_m_f_h_a.png,I,m,1122,16,2,2137.300000190735,597181.9000005722,9034,VNB,B,14
12,test,1,0.0,2-Back,0.0,z,Fri Feb 06 2026 13:29:20 GMT-0500 (Eastern Standard Time),602352.6000003815,005_o_f_d_a.png,I,None,2016,17,2,3026.300000190735,599326.3000001907,9034,VNB,B,15
13,test,1,0.0,2-Back,1.0,m,Fri Feb 06 2026 13:29:20 GMT-0500 (Eastern Standard Time),603456.6000003815,004_o_m_n_a.png,I,m,17,18,2,1090.5,602366.1000003815,9034,VNB,B,16
0,test,2,0.0,2-Back,,,Fri Feb 06 2026 13:29:20 GMT-0500 (Eastern Standard Time),603456.6000003815,007_m_m_h_a.png,I,space,1546,1,2,1090.5,602366.1000003815,9034,VNB,B,0
0,test,2,0.0,2-Back,,,Fri Feb 06 2026 13:29:20 GMT-0500 (Eastern Standard Time),603456.6000003815,020_y_f_n_a.png,I,space,1546,2,2,1090.5,602366.1000003815,9034,VNB,B,0
1,test,2,1.0,2-Back,1.0,z,Fri Feb 06 2026 13:29:20 GMT-0500 (Eastern Standard Time),612269.1000003815,005_o_f_h_a.png,I,z,883,3,2,1907.3999996185303,610361.7000007629,9034,VNB,B,1
2,test,2,0.0,2-Back,1.0,m,Fri Feb 06 2026 13:29:20 GMT-0500 (Eastern Standard Time),614119.2000007629,004_o_m_d_a.png,I,m,822,4,2,1836.7000007629395,612282.5,9034,VNB,B,2
3,test,2,0.0,2-Back,1.0,m,Fri Feb 06 2026 13:29:20 GMT-0500 (Eastern Standard Time),616002.5,011_m_f_d_a.png,I,m,860,5,2,1876.3999996185303,614126.1000003815,9034,VNB,B,3
3,test,2,0.0,2-Back,0.0,m,Fri Feb 06 2026 13:29:20 GMT-0500 (Eastern Standard Time),617902.3000001907,016_y_m_h_a.png,I,z,864,6,2,1882.3999996185303,616019.9000005722,9034,VNB,B,4
4,test,2,0.0,2-Back,1.0,m,Fri Feb 06 2026 13:29:20 GMT-0500 (Eastern Standard Time),620102.6000003815,005_o_f_n_a.png,I,m,1172,7,2,2193.699999809265,617908.9000005722,9034,VNB,B,5
5,test,2,1.0,2-Back,1.0,z,Fri Feb 06 2026 13:29:20 GMT-0500 (Eastern Standard Time),622285.6000003815,004_o_m_h_a.png,I,z,1165,8,2,2168.3999996185303,620117.2000007629,9034,VNB,B,6
6,test,2,0.0,2-Back,1.0,m,Fri Feb 06 2026 13:29:20 GMT-0500 (Eastern Standard Time),624519.1000003815,020_y_f_d_a.png,I,m,1205,9,2,2226.3999996185303,622292.7000007629,9034,VNB,B,7
7,test,2,0.0,2-Back,1.0,m,Fri Feb 06 2026 13:29:20 GMT-0500 (Eastern Standard Time),626602.3000001907,016_y_m_d_a.png,I,m,1051,10,2,2068.0999994277954,624534.2000007629,9034,VNB,B,8
8,test,2,0.0,2-Back,1.0,m,Fri Feb 06 2026 13:29:20 GMT-0500 (Eastern Standard Time),628869.3000001907,007_m_m_n_a.png,I,m,1240,11,2,2262.800000190735,626606.5,9034,VNB,B,9
9,test,2,0.0,2-Back,1.0,m,Fri Feb 06 2026 13:29:20 GMT-0500 (Eastern Standard Time),630952.5,011_m_f_h_a.png,I,m,1053,12,2,2067.8999996185303,628884.6000003815,9034,VNB,B,10
9,test,2,1.0,2-Back,0.0,z,Fri Feb 06 2026 13:29:20 GMT-0500 (Eastern Standard Time),633369.3000001907,004_o_m_n_a.png,I,m,1387,13,2,2409.0999994277954,630960.2000007629,9034,VNB,B,11
10,test,2,0.0,2-Back,1.0,m,Fri Feb 06 2026 13:29:20 GMT-0500 (Eastern Standard Time),635552.5,005_o_f_d_a.png,I,m,1160,14,2,2168.0,633384.5,9034,VNB,B,12
11,test,2,0.0,2-Back,1.0,m,Fri Feb 06 2026 13:29:20 GMT-0500 (Eastern Standard Time),637702.5,020_y_f_h_a.png,I,m,1122,15,2,2143.199999809265,635559.3000001907,9034,VNB,B,13
12,test,2,0.0,2-Back,1.0,z,Fri Feb 06 2026 13:29:20 GMT-0500 (Eastern Standard Time),639685.9000005722,007_m_m_d_a.png,I,z,956,16,2,1968.6000003814697,637717.3000001907,9034,VNB,B,14
13,test,2,0.0,2-Back,1.0,m,Fri Feb 06 2026 13:29:20 GMT-0500 (Eastern Standard Time),641719.0,016_y_m_n_a.png,I,m,1005,17,2,2026.1999998092651,639692.8000001907,9034,VNB,B,15
14,test,2,1.0,2-Back,1.0,m,Fri Feb 06 2026 13:29:20 GMT-0500 (Eastern Standard Time),643952.4000005722,011_m_f_n_a.png,I,m,1210,18,2,2219.9000005722046,641732.5,9034,VNB,B,16
0,test,3,1.0,2-Back,,,Fri Feb 06 2026 13:29:20 GMT-0500 (Eastern Standard Time),643952.4000005722,004_o_m_n_a.png,I,space,1610,1,2,2219.9000005722046,641732.5,9034,VNB,B,0
0,test,3,1.0,2-Back,,,Fri Feb 06 2026 13:29:20 GMT-0500 (Eastern Standard Time),643952.4000005722,005_o_f_d_a.png,I,space,1610,2,2,2219.9000005722046,641732.5,9034,VNB,B,0
1,test,3,0.0,2-Back,1.0,m,Fri Feb 06 2026 13:29:20 GMT-0500 (Eastern Standard Time),652902.5,020_y_f_h_a.png,I,m,972,3,2,1993.5,650909.0,9034,VNB,B,1
2,test,3,0.0,2-Back,1.0,z,Fri Feb 06 2026 13:29:20 GMT-0500 (Eastern Standard Time),655085.7000007629,011_m_f_d_a.png,I,z,1164,4,2,2170.7000007629395,652915.0,9034,VNB,B,2
3,test,3,1.0,2-Back,1.0,m,Fri Feb 06 2026 13:29:20 GMT-0500 (Eastern Standard Time),657035.7000007629,016_y_m_n_a.png,I,m,917,5,2,1943.6000003814697,655092.1000003815,9034,VNB,B,3
3,test,3,0.0,2-Back,0.0,m,Fri Feb 06 2026 13:29:20 GMT-0500 (Eastern Standard Time),659769.1000003815,004_o_m_h_a.png,I,z,1703,6,2,2721.8999996185303,657047.2000007629,9034,VNB,B,4
3,test,3,0.0,2-Back,0.0,z,Fri Feb 06 2026 13:29:20 GMT-0500 (Eastern Standard Time),661735.8000001907,020_y_f_n_a.png,I,m,938,7,2,1959.6999998092651,659776.1000003815,9034,VNB,B,5
4,test,3,1.0,2-Back,1.0,m,Fri Feb 06 2026 13:29:20 GMT-0500 (Eastern Standard Time),663885.6000003815,007_m_m_d_a.png,I,m,1127,8,2,2135.199999809265,661750.4000005722,9034,VNB,B,6
5,test,3,0.0,2-Back,1.0,m,Fri Feb 06 2026 13:29:20 GMT-0500 (Eastern Standard Time),666718.9000005722,016_y_m_d_a.png,I,m,1814,9,2,2824.9000005722046,663894.0,9034,VNB,B,7
6,test,3,0.0,2-Back,1.0,m,Fri Feb 06 2026 13:29:20 GMT-0500 (Eastern Standard Time),668652.4000005722,005_o_f_h_a.png,I,m,900,10,2,1919.6999998092651,666732.7000007629,9034,VNB,B,8
7,test,3,1.0,2-Back,1.0,m,Fri Feb 06 2026 13:29:20 GMT-0500 (Eastern Standard Time),670785.8000001907,011_m_f_n_a.png,I,m,1110,11,2,2125.699999809265,668660.1000003815,9034,VNB,B,9
8,test,3,1.0,2-Back,1.0,z,Fri Feb 06 2026 13:29:20 GMT-0500 (Eastern Standard Time),672602.4000005722,007_m_m_h_a.png,I,z,785,12,2,1803.9000005722046,670798.5,9034,VNB,B,10
9,test,3,0.0,2-Back,1.0,m,Fri Feb 06 2026 13:29:20 GMT-0500 (Eastern Standard Time),674869.2000007629,020_y_f_d_a.png,I,m,1240,13,2,2259.4000005722046,672609.8000001907,9034,VNB,B,11
9,test,3,0.0,2-Back,0.0,m,Fri Feb 06 2026 13:29:20 GMT-0500 (Eastern Standard Time),676885.9000005722,005_o_f_n_a.png,I,z,974,14,2,2000.5,674885.4000005722,9034,VNB,B,12
10,test,3,0.0,2-Back,1.0,z,Fri Feb 06 2026 13:29:20 GMT-0500 (Eastern Standard Time),678902.4000005722,004_o_m_d_a.png,I,z,989,15,2,2009.3000001907349,676893.1000003815,9034,VNB,B,13
11,test,3,1.0,2-Back,1.0,m,Fri Feb 06 2026 13:29:20 GMT-0500 (Eastern Standard Time),680802.5,011_m_f_h_a.png,I,m,860,16,2,1884.5999994277954,678917.9000005722,9034,VNB,B,14
12,test,3,0.0,2-Back,1.0,m,Fri Feb 06 2026 13:29:20 GMT-0500 (Eastern Standard Time),682852.3000001907,007_m_m_n_a.png,I,m,1024,17,2,2040.6999998092651,680811.6000003815,9034,VNB,B,15
13,test,3,0.0,2-Back,1.0,z,Fri Feb 06 2026 13:29:20 GMT-0500 (Eastern Standard Time),684685.6000003815,016_y_m_h_a.png,I,z,814,18,2,1821.0,682864.6000003815,9034,VNB,B,16
0,test,4,0.0,2-Back,,,Fri Feb 06 2026 13:29:20 GMT-0500 (Eastern Standard Time),684685.6000003815,011_m_f_n_a.png,I,space,1549,1,2,1821.0,682864.6000003815,9034,VNB,B,0
0,test,4,0.0,2-Back,,,Fri Feb 06 2026 13:29:20 GMT-0500 (Eastern Standard Time),684685.6000003815,004_o_m_n_a.png,I,space,1549,2,2,1821.0,682864.6000003815,9034,VNB,B,0
1,test,4,1.0,2-Back,1.0,m,Fri Feb 06 2026 13:29:20 GMT-0500 (Eastern Standard Time),693452.5,016_y_m_h_a.png,I,m,817,3,2,1847.2999992370605,691605.2000007629,9034,VNB,B,1
1,test,4,1.0,2-Back,0.0,m,Fri Feb 06 2026 13:29:20 GMT-0500 (Eastern Standard Time),695419.1000003815,005_o_f_d_a.png,I,z,934,4,2,1951.3999996185303,693467.7000007629,9034,VNB,B,2
2,test,4,0.0,2-Back,1.0,z,Fri Feb 06 2026 13:29:20 GMT-0500 (Eastern Standard Time),697985.9000005722,004_o_m_h_a.png,I,z,1545,5,2,2560.1000003814697,695425.8000001907,9034,VNB,B,3
3,test,4,0.0,2-Back,1.0,m,Fri Feb 06 2026 13:29:20 GMT-0500 (Eastern Standard Time),700335.6000003815,007_m_m_n_a.png,I,m,1329,6,2,2335.1000003814697,698000.5,9034,VNB,B,4
4,test,4,0.0,2-Back,1.0,m,Fri Feb 06 2026 13:29:20 GMT-0500 (Eastern Standard Time),702435.6000003815,011_m_f_d_a.png,I,m,1075,7,2,2093.3999996185303,700342.2000007629,9034,VNB,B,5
5,test,4,0.0,2-Back,1.0,z,Fri Feb 06 2026 13:29:20 GMT-0500 (Eastern Standard Time),704635.7000007629,020_y_f_n_a.png,I,z,1169,8,2,2187.4000005722046,702448.3000001907,9034,VNB,B,6
6,test,4,1.0,2-Back,1.0,m,Fri Feb 06 2026 13:29:20 GMT-0500 (Eastern Standard Time),706419.1000003815,005_o_f_h_a.png,I,m,759,9,2,1776.1999998092651,704642.9000005722,9034,VNB,B,7
7,test,4,0.0,2-Back,1.0,m,Fri Feb 06 2026 13:29:20 GMT-0500 (Eastern Standard Time),708668.4000005722,007_m_m_h_a.png,I,m,1231,10,2,2235.1000003814697,706433.3000001907,9034,VNB,B,8
8,test,4,0.0,2-Back,1.0,m,Fri Feb 06 2026 13:29:20 GMT-0500 (Eastern Standard Time),710802.4000005722,020_y_f_d_a.png,I,m,1110,11,2,2130.9000005722046,708671.5,9034,VNB,B,9
8,test,4,0.0,2-Back,0.0,m,Fri Feb 06 2026 13:29:20 GMT-0500 (Eastern Standard Time),712802.5,016_y_m_n_a.png,I,z,976,12,2,1985.6999998092651,710816.8000001907,9034,VNB,B,10
9,test,4,0.0,2-Back,1.0,z,Fri Feb 06 2026 13:29:20 GMT-0500 (Eastern Standard Time),715218.9000005722,004_o_m_d_a.png,I,z,1393,13,2,2408.4000005722046,712810.5,9034,VNB,B,11
10,test,4,1.0,2-Back,1.0,m,Fri Feb 06 2026 13:29:20 GMT-0500 (Eastern Standard Time),717685.8000001907,011_m_f_h_a.png,I,m,1439,14,2,2457.199999809265,715228.6000003815,9034,VNB,B,12
10,test,4,1.0,2-Back,0.0,m,Fri Feb 06 2026 13:29:20 GMT-0500 (Eastern Standard Time),720719.3000001907,020_y_f_h_a.png,I,None,2016,15,2,3024.699999809265,717694.6000003815,9034,VNB,B,13
10,test,4,0.0,2-Back,0.0,m,Fri Feb 06 2026 13:29:20 GMT-0500 (Eastern Standard Time),723102.1000003815,005_o_f_n_a.png,I,z,1350,16,2,2367.199999809265,720734.9000005722,9034,VNB,B,14
11,test,4,0.0,2-Back,1.0,m,Fri Feb 06 2026 13:29:20 GMT-0500 (Eastern Standard Time),725318.6000003815,016_y_m_d_a.png,I,m,1187,17,2,2210.6000003814697,723108.0,9034,VNB,B,15
12,test,4,1.0,2-Back,1.0,m,Fri Feb 06 2026 13:29:20 GMT-0500 (Eastern Standard Time),728269.0,007_m_m_d_a.png,I,m,1932,18,2,2935.199999809265,725333.8000001907,9034,VNB,B,16
0,test,5,1.0,2-Back,,,Fri Feb 06 2026 13:29:20 GMT-0500 (Eastern Standard Time),728269.0,020_y_f_d_a.png,I,space,1294,1,2,2935.199999809265,725333.8000001907,9034,VNB,B,0
0,test,5,1.0,2-Back,,,Fri Feb 06 2026 13:29:20 GMT-0500 (Eastern Standard Time),728269.0,005_o_f_h_a.png,I,space,1294,2,2,2935.199999809265,725333.8000001907,9034,VNB,B,0
1,test,5,1.0,2-Back,1.0,z,Fri Feb 06 2026 13:29:20 GMT-0500 (Eastern Standard Time),737002.2000007629,004_o_m_d_a.png,I,z,1053,3,2,2077.4000005722046,734924.8000001907,9034,VNB,B,1
2,test,5,1.0,2-Back,1.0,m,Fri Feb 06 2026 13:29:20 GMT-0500 (Eastern Standard Time),738869.1000003815,011_m_f_n_a.png,I,m,839,4,2,1852.3000001907349,737016.8000001907,9034,VNB,B,2
2,test,5,0.0,2-Back,0.0,m,Fri Feb 06 2026 13:29:20 GMT-0500 (Eastern Standard Time),740902.5,007_m_m_h_a.png,I,z,1006,5,2,2026.7999992370605,738875.7000007629,9034,VNB,B,3
2,test,5,0.0,2-Back,0.0,z,Fri Feb 06 2026 13:29:20 GMT-0500 (Eastern Standard Time),743085.5,020_y_f_n_a.png,I,m,1164,6,2,2168.2999992370605,740917.2000007629,9034,VNB,B,4
3,test,5,0.0,2-Back,1.0,m,Fri Feb 06 2026 13:29:20 GMT-0500 (Eastern Standard Time),746069.1000003815,005_o_f_d_a.png,I,m,1957,7,2,2976.6000003814697,743092.5,9034,VNB,B,5
4,test,5,0.0,2-Back,1.0,m,Fri Feb 06 2026 13:29:20 GMT-0500 (Eastern Standard Time),748252.5,004_o_m_h_a.png,I,m,1148,8,2,2168.5999994277954,746083.9000005722,9034,VNB,B,6
4,test,5,1.0,2-Back,0.0,z,Fri Feb 06 2026 13:29:20 GMT-0500 (Eastern Standard Time),750902.3000001907,011_m_f_d_a.png,I,m,1622,9,2,2642.699999809265,748259.6000003815,9034,VNB,B,7
4,test,5,0.0,2-Back,0.0,m,Fri Feb 06 2026 13:29:20 GMT-0500 (Eastern Standard Time),753452.5,016_y_m_n_a.png,I,z,1532,10,2,2537.8999996185303,750914.6000003815,9034,VNB,B,8
5,test,5,0.0,2-Back,1.0,m,Fri Feb 06 2026 13:29:20 GMT-0500 (Eastern Standard Time),756452.3000001907,007_m_m_n_a.png,I,m,1974,11,2,2991.8999996185303,753460.4000005722,9034,VNB,B,9
6,test,5,0.0,2-Back,1.0,m,Fri Feb 06 2026 13:29:20 GMT-0500 (Eastern Standard Time),759002.2000007629,020_y_f_h_a.png,I,m,1514,12,2,2536.5,756465.7000007629,9034,VNB,B,10
7,test,5,0.0,2-Back,1.0,m,Fri Feb 06 2026 13:29:20 GMT-0500 (Eastern Standard Time),761319.0,016_y_m_d_a.png,I,m,1288,13,2,2308.0,759011.0,9034,VNB,B,11
7,test,5,1.0,2-Back,0.0,z,Fri Feb 06 2026 13:29:20 GMT-0500 (Eastern Standard Time),764352.6000003815,011_m_f_h_a.png,I,None,2016,14,2,3022.1000003814697,761330.5,9034,VNB,B,12
8,test,5,0.0,2-Back,1.0,m,Fri Feb 06 2026 13:29:20 GMT-0500 (Eastern Standard Time),766885.7000007629,004_o_m_n_a.png,I,m,1507,15,2,2526.300000190735,764359.4000005722,9034,VNB,B,13
9,test,5,0.0,2-Back,1.0,m,Fri Feb 06 2026 13:29:20 GMT-0500 (Eastern Standard Time),769285.7000007629,007_m_m_d_a.png,I,m,1369,16,2,2387.4000005722046,766898.3000001907,9034,VNB,B,14
10,test,5,0.0,2-Back,1.0,z,Fri Feb 06 2026 13:29:20 GMT-0500 (Eastern Standard Time),771302.4000005722,005_o_f_n_a.png,I,z,989,17,2,2009.4000005722046,769293.0,9034,VNB,B,15
11,test,5,1.0,2-Back,1.0,m,Fri Feb 06 2026 13:29:20 GMT-0500 (Eastern Standard Time),773518.9000005722,016_y_m_h_a.png,I,m,1196,18,2,2204.300000190735,771314.6000003815,9034,VNB,B,16
