acc_sum,block,block_c,change,condition,correct,correct_response,datetime,endtime,face,project,response,response_time,row_sel,session_number,start_end,starttime,subject_id,task,task_vers,trial
0,prac,1,,1-Back,,,Fri May 29 2026 09:41:46 GMT-0400 (Eastern Daylight Time),,124_o_f_d_a.png,I,space,12510,1,3,,,9034,VNB,A,0
1,prac,1,0.0,1-Back,1.0,m,Fri May 29 2026 09:41:46 GMT-0400 (Eastern Daylight Time),113922.39999961853,071_y_f_n_a.png,I,m,1096,2,3,1922.0,112000.39999961853,9034,VNB,A,1
2,prac,1,0.0,1-Back,1.0,m,Fri May 29 2026 09:41:46 GMT-0400 (Eastern Daylight Time),115738.7999997139,165_m_m_h_a.png,I,m,992,3,3,1808.1999998092651,113930.59999990463,9034,VNB,A,2
3,prac,1,0.0,1-Back,1.0,m,Fri May 29 2026 09:41:46 GMT-0400 (Eastern Daylight Time),117422.2999997139,109_y_m_d_a.png,I,m,846,4,3,1673.0999999046326,115749.19999980927,9034,VNB,A,3
4,prac,1,0.0,1-Back,1.0,m,Fri May 29 2026 09:41:46 GMT-0400 (Eastern Daylight Time),119388.7999997139,124_o_f_n_a.png,I,m,1091,5,3,1957.0999999046326,117431.69999980927,9034,VNB,A,4
5,prac,1,1.0,1-Back,1.0,z,Fri May 29 2026 09:41:46 GMT-0400 (Eastern Daylight Time),121105.2999997139,109_y_m_n_a.png,I,z,874,6,3,1705.5999999046326,119399.69999980927,9034,VNB,A,5
6,prac,1,0.0,1-Back,1.0,m,Fri May 29 2026 09:41:46 GMT-0400 (Eastern Daylight Time),122738.7999997139,039_o_m_h_a.png,I,m,802,7,3,1624.0,121114.7999997139,9034,VNB,A,6
7,prac,1,0.0,1-Back,1.0,m,Fri May 29 2026 09:41:46 GMT-0400 (Eastern Daylight Time),124488.69999980927,139_m_f_d_a.png,I,m,923,8,3,1739.5,122749.19999980927,9034,VNB,A,7
8,prac,1,1.0,1-Back,1.0,z,Fri May 29 2026 09:41:46 GMT-0400 (Eastern Daylight Time),126254.89999961853,071_y_f_d_a.png,I,z,939,9,3,1757.7999997138977,124497.09999990463,9034,VNB,A,8
9,prac,1,0.0,1-Back,1.0,m,Fri May 29 2026 09:41:46 GMT-0400 (Eastern Daylight Time),127922.09999990463,165_m_m_n_a.png,I,m,836,10,3,1659.8000001907349,126262.2999997139,9034,VNB,A,9
10,prac,1,0.0,1-Back,1.0,m,Fri May 29 2026 09:41:46 GMT-0400 (Eastern Daylight Time),129605.5,124_o_f_h_a.png,I,m,819,11,3,1674.2000002861023,127931.2999997139,9034,VNB,A,10
11,prac,1,0.0,1-Back,1.0,m,Fri May 29 2026 09:41:46 GMT-0400 (Eastern Daylight Time),131372.19999980927,109_y_m_d_a.png,I,m,983,12,3,1757.4000000953674,129614.7999997139,9034,VNB,A,11
0,test,1,0.0,1-Back,,,Fri May 29 2026 09:41:46 GMT-0400 (Eastern Daylight Time),131372.19999980927,071_y_f_d_a.png,I,space,7463,1,3,1757.4000000953674,129614.7999997139,9034,VNB,A,0
1,test,1,0.0,1-Back,1.0,m,Fri May 29 2026 09:41:46 GMT-0400 (Eastern Daylight Time),147688.59999990463,139_m_f_n_a.png,I,m,747,2,3,1758.4000000953674,145930.19999980927,9034,VNB,A,1
2,test,1,0.0,1-Back,1.0,m,Fri May 29 2026 09:41:46 GMT-0400 (Eastern Daylight Time),149521.89999961853,039_o_m_h_a.png,I,m,804,3,3,1826.5999999046326,147695.2999997139,9034,VNB,A,2
3,test,1,1.0,1-Back,1.0,z,Fri May 29 2026 09:41:46 GMT-0400 (Eastern Daylight Time),151288.39999961853,165_m_m_h_a.png,I,z,747,4,3,1757.5999999046326,149530.7999997139,9034,VNB,A,3
4,test,1,0.0,1-Back,1.0,m,Fri May 29 2026 09:41:46 GMT-0400 (Eastern Daylight Time),152988.59999990463,124_o_f_n_a.png,I,m,676,5,3,1692.0999999046326,151296.5,9034,VNB,A,4
5,test,1,0.0,1-Back,1.0,m,Fri May 29 2026 09:41:46 GMT-0400 (Eastern Daylight Time),154854.89999961853,109_y_m_d_a.png,I,m,848,6,3,1859.0,152995.89999961853,9034,VNB,A,5
6,test,1,1.0,1-Back,1.0,z,Fri May 29 2026 09:41:46 GMT-0400 (Eastern Daylight Time),156738.59999990463,139_m_f_d_a.png,I,z,854,7,3,1875.2000002861023,154863.39999961853,9034,VNB,A,6
7,test,1,0.0,1-Back,1.0,m,Fri May 29 2026 09:41:46 GMT-0400 (Eastern Daylight Time),158538.5,071_y_f_h_a.png,I,m,778,8,3,1792.5,156746.0,9034,VNB,A,7
8,test,1,0.0,1-Back,1.0,m,Fri May 29 2026 09:41:46 GMT-0400 (Eastern Daylight Time),160305.2999997139,039_o_m_n_a.png,I,m,738,9,3,1759.5,158545.7999997139,9034,VNB,A,8
8,test,1,0.0,1-Back,0.0,m,Fri May 29 2026 09:41:46 GMT-0400 (Eastern Daylight Time),162021.89999961853,109_y_m_h_a.png,I,z,683,10,3,1707.7999997138977,160314.09999990463,9034,VNB,A,9
9,test,1,0.0,1-Back,1.0,m,Fri May 29 2026 09:41:46 GMT-0400 (Eastern Daylight Time),164122.0,039_o_m_d_a.png,I,m,1079,11,3,2091.5,162030.5,9034,VNB,A,10
9,test,1,1.0,1-Back,0.0,z,Fri May 29 2026 09:41:46 GMT-0400 (Eastern Daylight Time),166121.89999961853,124_o_f_d_a.png,I,m,979,12,3,1990.2999997138977,164131.59999990463,9034,VNB,A,11
10,test,1,0.0,1-Back,1.0,m,Fri May 29 2026 09:41:46 GMT-0400 (Eastern Daylight Time),168871.7999997139,165_m_m_n_a.png,I,m,1731,13,3,2743.5999999046326,166128.19999980927,9034,VNB,A,12
11,test,1,1.0,1-Back,1.0,z,Fri May 29 2026 09:41:46 GMT-0400 (Eastern Daylight Time),170821.89999961853,071_y_f_n_a.png,I,z,917,14,3,1941.3999996185303,168880.5,9034,VNB,A,13
12,test,1,0.0,1-Back,1.0,m,Fri May 29 2026 09:41:46 GMT-0400 (Eastern Daylight Time),172772.09999990463,139_m_f_h_a.png,I,m,919,15,3,1943.4000000953674,170828.69999980927,9034,VNB,A,14
13,test,1,0.0,1-Back,1.0,m,Fri May 29 2026 09:41:46 GMT-0400 (Eastern Daylight Time),174821.89999961853,165_m_m_d_a.png,I,m,1017,16,3,2041.0,172780.89999961853,9034,VNB,A,15
14,test,1,0.0,1-Back,1.0,m,Fri May 29 2026 09:41:46 GMT-0400 (Eastern Daylight Time),176921.89999961853,109_y_m_n_a.png,I,m,1079,17,3,2093.0999999046326,174828.7999997139,9034,VNB,A,16
15,test,1,0.0,1-Back,1.0,m,Fri May 29 2026 09:41:46 GMT-0400 (Eastern Daylight Time),178772.0,124_o_f_h_a.png,I,m,819,18,3,1840.8000001907349,176931.19999980927,9034,VNB,A,17
0,test,2,0.0,1-Back,,,Fri May 29 2026 09:41:46 GMT-0400 (Eastern Daylight Time),178772.0,109_y_m_n_a.png,I,space,1216,1,3,1840.8000001907349,176931.19999980927,9034,VNB,A,0
1,test,2,0.0,1-Back,1.0,m,Fri May 29 2026 09:41:46 GMT-0400 (Eastern Daylight Time),183972.0,071_y_f_h_a.png,I,m,919,2,3,1944.2000002861023,182027.7999997139,9034,VNB,A,1
2,test,2,1.0,1-Back,1.0,m,Fri May 29 2026 09:41:46 GMT-0400 (Eastern Daylight Time),185772.0,039_o_m_n_a.png,I,m,777,3,3,1792.6000003814697,183979.39999961853,9034,VNB,A,2
3,test,2,0.0,1-Back,1.0,m,Fri May 29 2026 09:41:46 GMT-0400 (Eastern Daylight Time),187572.0,139_m_f_d_a.png,I,m,769,4,3,1791.4000000953674,185780.59999990463,9034,VNB,A,3
4,test,2,0.0,1-Back,1.0,z,Fri May 29 2026 09:41:46 GMT-0400 (Eastern Daylight Time),189238.7999997139,165_m_m_d_a.png,I,z,633,5,3,1658.2999997138977,187580.5,9034,VNB,A,4
5,test,2,0.0,1-Back,1.0,m,Fri May 29 2026 09:41:46 GMT-0400 (Eastern Daylight Time),191038.5,109_y_m_h_a.png,I,m,774,6,3,1792.5,189246.0,9034,VNB,A,5
6,test,2,1.0,1-Back,1.0,z,Fri May 29 2026 09:41:46 GMT-0400 (Eastern Daylight Time),193071.89999961853,124_o_f_h_a.png,I,z,1006,7,3,2024.6999998092651,191047.19999980927,9034,VNB,A,6
7,test,2,0.0,1-Back,1.0,m,Fri May 29 2026 09:41:46 GMT-0400 (Eastern Daylight Time),194955.2999997139,139_m_f_n_a.png,I,m,861,8,3,1874.6999998092651,193080.59999990463,9034,VNB,A,7
8,test,2,0.0,1-Back,1.0,m,Fri May 29 2026 09:41:46 GMT-0400 (Eastern Daylight Time),196922.0,071_y_f_d_a.png,I,m,945,9,3,1957.8000001907349,194964.19999980927,9034,VNB,A,8
9,test,2,0.0,1-Back,1.0,m,Fri May 29 2026 09:41:46 GMT-0400 (Eastern Daylight Time),199021.89999961853,165_m_m_n_a.png,I,m,1075,10,3,2092.7999997138977,196929.09999990463,9034,VNB,A,9
10,test,2,1.0,1-Back,1.0,m,Fri May 29 2026 09:41:46 GMT-0400 (Eastern Daylight Time),201022.09999990463,139_m_f_h_a.png,I,m,975,11,3,1991.9000000953674,199030.19999980927,9034,VNB,A,10
11,test,2,0.0,1-Back,1.0,z,Fri May 29 2026 09:41:46 GMT-0400 (Eastern Daylight Time),202772.0,039_o_m_h_a.png,I,z,719,12,3,1742.9000000953674,201029.09999990463,9034,VNB,A,11
12,test,2,0.0,1-Back,1.0,m,Fri May 29 2026 09:41:46 GMT-0400 (Eastern Daylight Time),204622.0,109_y_m_d_a.png,I,m,825,13,3,1842.9000000953674,202779.09999990463,9034,VNB,A,12
13,test,2,0.0,1-Back,1.0,m,Fri May 29 2026 09:41:46 GMT-0400 (Eastern Daylight Time),206821.39999961853,124_o_f_n_a.png,I,m,1166,14,3,2192.2999997138977,204629.09999990463,9034,VNB,A,13
14,test,2,0.0,1-Back,1.0,z,Fri May 29 2026 09:41:46 GMT-0400 (Eastern Daylight Time),208672.0,071_y_f_n_a.png,I,z,823,15,3,1847.3000001907349,206824.69999980927,9034,VNB,A,14
15,test,2,1.0,1-Back,1.0,m,Fri May 29 2026 09:41:46 GMT-0400 (Eastern Daylight Time),210471.69999980927,165_m_m_h_a.png,I,m,781,16,3,1791.0999999046326,208680.59999990463,9034,VNB,A,15
16,test,2,0.0,1-Back,1.0,m,Fri May 29 2026 09:41:46 GMT-0400 (Eastern Daylight Time),212322.0,124_o_f_d_a.png,I,m,821,17,3,1842.0,210480.0,9034,VNB,A,16
16,test,2,1.0,1-Back,0.0,z,Fri May 29 2026 09:41:46 GMT-0400 (Eastern Daylight Time),214605.2999997139,039_o_m_d_a.png,I,m,1259,18,3,2276.2999997138977,212329.0,9034,VNB,A,17
0,test,3,1.0,1-Back,,,Fri May 29 2026 09:41:46 GMT-0400 (Eastern Daylight Time),214605.2999997139,124_o_f_h_a.png,I,space,1207,1,3,2276.2999997138977,212329.0,9034,VNB,A,0
1,test,3,0.0,1-Back,1.0,m,Fri May 29 2026 09:41:46 GMT-0400 (Eastern Daylight Time),219671.7999997139,139_m_f_d_a.png,I,m,747,2,3,1757.0999999046326,217914.69999980927,9034,VNB,A,1
2,test,3,1.0,1-Back,1.0,m,Fri May 29 2026 09:41:46 GMT-0400 (Eastern Daylight Time),221472.0,165_m_m_n_a.png,I,m,773,3,3,1793.2000002861023,219678.7999997139,9034,VNB,A,2
3,test,3,0.0,1-Back,1.0,z,Fri May 29 2026 09:41:46 GMT-0400 (Eastern Daylight Time),223172.09999990463,124_o_f_n_a.png,I,z,669,4,3,1692.3000001907349,221479.7999997139,9034,VNB,A,3
4,test,3,1.0,1-Back,1.0,m,Fri May 29 2026 09:41:46 GMT-0400 (Eastern Daylight Time),224938.69999980927,039_o_m_d_a.png,I,m,745,5,3,1758.0999999046326,223180.59999990463,9034,VNB,A,4
5,test,3,0.0,1-Back,1.0,m,Fri May 29 2026 09:41:46 GMT-0400 (Eastern Daylight Time),227055.39999961853,071_y_f_h_a.png,I,m,1090,6,3,2109.3999996185303,224946.0,9034,VNB,A,5
6,test,3,0.0,1-Back,1.0,z,Fri May 29 2026 09:41:46 GMT-0400 (Eastern Daylight Time),228888.39999961853,109_y_m_h_a.png,I,z,813,7,3,1823.3999996185303,227065.0,9034,VNB,A,6
7,test,3,0.0,1-Back,1.0,m,Fri May 29 2026 09:41:46 GMT-0400 (Eastern Daylight Time),230538.69999980927,139_m_f_n_a.png,I,m,628,8,3,1641.4000000953674,228897.2999997139,9034,VNB,A,7
8,test,3,0.0,1-Back,1.0,m,Fri May 29 2026 09:41:46 GMT-0400 (Eastern Daylight Time),232438.7999997139,071_y_f_d_a.png,I,m,866,9,3,1892.6999998092651,230546.09999990463,9034,VNB,A,8
9,test,3,1.0,1-Back,1.0,m,Fri May 29 2026 09:41:46 GMT-0400 (Eastern Daylight Time),234172.09999990463,039_o_m_n_a.png,I,m,710,10,3,1726.0999999046326,232446.0,9034,VNB,A,9
10,test,3,0.0,1-Back,1.0,m,Fri May 29 2026 09:41:46 GMT-0400 (Eastern Daylight Time),235955.2999997139,165_m_m_h_a.png,I,m,753,11,3,1776.6999998092651,234178.59999990463,9034,VNB,A,10
11,test,3,0.0,1-Back,1.0,z,Fri May 29 2026 09:41:46 GMT-0400 (Eastern Daylight Time),237788.69999980927,139_m_f_h_a.png,I,z,810,12,3,1825.4000000953674,235963.2999997139,9034,VNB,A,11
12,test,3,1.0,1-Back,1.0,m,Fri May 29 2026 09:41:46 GMT-0400 (Eastern Daylight Time),239572.0,124_o_f_d_a.png,I,m,752,13,3,1775.8000001907349,237796.19999980927,9034,VNB,A,12
13,test,3,0.0,1-Back,1.0,z,Fri May 29 2026 09:41:46 GMT-0400 (Eastern Daylight Time),241522.0,165_m_m_d_a.png,I,z,921,14,3,1941.4000000953674,239580.59999990463,9034,VNB,A,13
14,test,3,0.0,1-Back,1.0,m,Fri May 29 2026 09:41:46 GMT-0400 (Eastern Daylight Time),243438.59999990463,109_y_m_n_a.png,I,m,891,15,3,1908.8000001907349,241529.7999997139,9034,VNB,A,14
15,test,3,1.0,1-Back,1.0,m,Fri May 29 2026 09:41:46 GMT-0400 (Eastern Daylight Time),245372.0,039_o_m_h_a.png,I,m,910,16,3,1926.4000000953674,243445.59999990463,9034,VNB,A,15
16,test,3,0.0,1-Back,1.0,m,Fri May 29 2026 09:41:46 GMT-0400 (Eastern Daylight Time),247155.39999961853,109_y_m_d_a.png,I,m,753,17,3,1776.3999996185303,245379.0,9034,VNB,A,16
17,test,3,1.0,1-Back,1.0,m,Fri May 29 2026 09:41:46 GMT-0400 (Eastern Daylight Time),249105.39999961853,071_y_f_n_a.png,I,m,922,18,3,1942.6999998092651,247162.69999980927,9034,VNB,A,17
0,test,4,1.0,1-Back,,,Fri May 29 2026 09:41:46 GMT-0400 (Eastern Daylight Time),249105.39999961853,165_m_m_d_a.png,I,space,1091,1,3,1942.6999998092651,247162.69999980927,9034,VNB,A,0
0,test,4,0.0,1-Back,0.0,z,Fri May 29 2026 09:41:46 GMT-0400 (Eastern Daylight Time),254138.39999961853,039_o_m_d_a.png,I,m,894,2,3,1908.5,252229.89999961853,9034,VNB,A,1
1,test,4,0.0,1-Back,1.0,m,Fri May 29 2026 09:41:46 GMT-0400 (Eastern Daylight Time),255888.59999990463,109_y_m_h_a.png,I,m,722,3,3,1744.2000002861023,254144.39999961853,9034,VNB,A,2
2,test,4,0.0,1-Back,1.0,m,Fri May 29 2026 09:41:46 GMT-0400 (Eastern Daylight Time),257638.69999980927,139_m_f_n_a.png,I,m,732,4,3,1742.6999998092651,255896.0,9034,VNB,A,3
3,test,4,1.0,1-Back,1.0,m,Fri May 29 2026 09:41:46 GMT-0400 (Eastern Daylight Time),259488.59999990463,124_o_f_h_a.png,I,m,822,5,3,1843.9000000953674,257644.69999980927,9034,VNB,A,4
4,test,4,0.0,1-Back,1.0,m,Fri May 29 2026 09:41:46 GMT-0400 (Eastern Daylight Time),261239.09999990463,165_m_m_n_a.png,I,m,732,6,3,1741.5999999046326,259497.5,9034,VNB,A,5
5,test,4,0.0,1-Back,1.0,m,Fri May 29 2026 09:41:46 GMT-0400 (Eastern Daylight Time),263022.09999990463,109_y_m_d_a.png,I,m,758,7,3,1776.7000002861023,261245.39999961853,9034,VNB,A,6
6,test,4,1.0,1-Back,1.0,z,Fri May 29 2026 09:41:46 GMT-0400 (Eastern Daylight Time),265005.2999997139,071_y_f_d_a.png,I,z,959,8,3,1976.2999997138977,263029.0,9034,VNB,A,7
7,test,4,0.0,1-Back,1.0,m,Fri May 29 2026 09:41:46 GMT-0400 (Eastern Daylight Time),266688.69999980927,139_m_f_h_a.png,I,m,655,9,3,1675.1999998092651,265013.5,9034,VNB,A,8
8,test,4,0.0,1-Back,1.0,z,Fri May 29 2026 09:41:46 GMT-0400 (Eastern Daylight Time),268572.0,039_o_m_h_a.png,I,z,860,10,3,1876.5,266695.5,9034,VNB,A,9
9,test,4,1.0,1-Back,1.0,m,Fri May 29 2026 09:41:46 GMT-0400 (Eastern Daylight Time),270305.39999961853,124_o_f_n_a.png,I,m,705,11,3,1726.6999998092651,268578.69999980927,9034,VNB,A,10
10,test,4,0.0,1-Back,1.0,m,Fri May 29 2026 09:41:46 GMT-0400 (Eastern Daylight Time),272155.39999961853,139_m_f_d_a.png,I,m,827,12,3,1843.5,270311.89999961853,9034,VNB,A,11
10,test,4,0.0,1-Back,0.0,m,Fri May 29 2026 09:41:46 GMT-0400 (Eastern Daylight Time),274005.39999961853,071_y_f_n_a.png,I,z,817,13,3,1842.6999998092651,272162.69999980927,9034,VNB,A,12
11,test,4,0.0,1-Back,1.0,m,Fri May 29 2026 09:41:46 GMT-0400 (Eastern Daylight Time),276155.19999980927,124_o_f_d_a.png,I,m,1127,14,3,2140.5999999046326,274014.59999990463,9034,VNB,A,13
12,test,4,0.0,1-Back,1.0,m,Fri May 29 2026 09:41:46 GMT-0400 (Eastern Daylight Time),277972.09999990463,071_y_f_h_a.png,I,m,785,15,3,1810.7000002861023,276161.39999961853,9034,VNB,A,14
13,test,4,1.0,1-Back,1.0,z,Fri May 29 2026 09:41:46 GMT-0400 (Eastern Daylight Time),279655.09999990463,165_m_m_h_a.png,I,z,665,16,3,1675.8000001907349,277979.2999997139,9034,VNB,A,15
14,test,4,0.0,1-Back,1.0,m,Fri May 29 2026 09:41:46 GMT-0400 (Eastern Daylight Time),281338.69999980927,039_o_m_n_a.png,I,m,661,17,3,1678.4000000953674,279660.2999997139,9034,VNB,A,16
15,test,4,1.0,1-Back,1.0,z,Fri May 29 2026 09:41:46 GMT-0400 (Eastern Daylight Time),283257.39999961853,109_y_m_n_a.png,I,z,898,18,3,1911.5999999046326,281345.7999997139,9034,VNB,A,17
0,test,5,1.0,1-Back,,,Fri May 29 2026 09:41:46 GMT-0400 (Eastern Daylight Time),283257.39999961853,039_o_m_n_a.png,I,space,1115,1,3,1911.5999999046326,281345.7999997139,9034,VNB,A,0
1,test,5,1.0,1-Back,1.0,m,Fri May 29 2026 09:41:46 GMT-0400 (Eastern Daylight Time),288271.89999961853,124_o_f_h_a.png,I,m,838,2,3,1858.2999997138977,286413.59999990463,9034,VNB,A,1
2,test,5,0.0,1-Back,1.0,m,Fri May 29 2026 09:41:46 GMT-0400 (Eastern Daylight Time),290122.0,109_y_m_d_a.png,I,m,829,3,3,1843.8000001907349,288278.19999980927,9034,VNB,A,2
2,test,5,0.0,1-Back,0.0,z,Fri May 29 2026 09:41:46 GMT-0400 (Eastern Daylight Time),291955.39999961853,039_o_m_d_a.png,I,m,803,4,3,1826.8999996185303,290128.5,9034,VNB,A,3
3,test,5,0.0,1-Back,1.0,m,Fri May 29 2026 09:41:46 GMT-0400 (Eastern Daylight Time),293855.2999997139,139_m_f_h_a.png,I,m,873,5,3,1893.1999998092651,291962.09999990463,9034,VNB,A,4
4,test,5,0.0,1-Back,1.0,m,Fri May 29 2026 09:41:46 GMT-0400 (Eastern Daylight Time),295638.69999980927,071_y_f_n_a.png,I,m,749,6,3,1776.9000000953674,293861.7999997139,9034,VNB,A,5
5,test,5,1.0,1-Back,1.0,z,Fri May 29 2026 09:41:46 GMT-0400 (Eastern Daylight Time),297438.7999997139,124_o_f_n_a.png,I,z,774,7,3,1793.6999998092651,295645.09999990463,9034,VNB,A,6
6,test,5,0.0,1-Back,1.0,m,Fri May 29 2026 09:41:46 GMT-0400 (Eastern Daylight Time),299722.0,139_m_f_d_a.png,I,m,1262,8,3,2276.6000003814697,297445.39999961853,9034,VNB,A,7
7,test,5,0.0,1-Back,1.0,m,Fri May 29 2026 09:41:46 GMT-0400 (Eastern Daylight Time),301605.39999961853,109_y_m_h_a.png,I,m,851,9,3,1876.5,299728.89999961853,9034,VNB,A,8
8,test,5,0.0,1-Back,1.0,m,Fri May 29 2026 09:41:46 GMT-0400 (Eastern Daylight Time),303738.69999980927,071_y_f_d_a.png,I,m,1112,10,3,2125.9000000953674,301612.7999997139,9034,VNB,A,9
9,test,5,0.0,1-Back,1.0,m,Fri May 29 2026 09:41:46 GMT-0400 (Eastern Daylight Time),305805.7999997139,165_m_m_n_a.png,I,m,1042,11,3,2060.5,303745.2999997139,9034,VNB,A,10
10,test,5,1.0,1-Back,1.0,z,Fri May 29 2026 09:41:46 GMT-0400 (Eastern Daylight Time),307888.7999997139,139_m_f_n_a.png,I,z,1056,12,3,2079.4000000953674,305809.39999961853,9034,VNB,A,11
11,test,5,0.0,1-Back,1.0,m,Fri May 29 2026 09:41:46 GMT-0400 (Eastern Daylight Time),309572.09999990463,039_o_m_h_a.png,I,m,652,13,3,1673.4000000953674,307898.69999980927,9034,VNB,A,12
12,test,5,0.0,1-Back,1.0,z,Fri May 29 2026 09:41:46 GMT-0400 (Eastern Daylight Time),311255.0,165_m_m_h_a.png,I,z,665,14,3,1676.8000001907349,309578.19999980927,9034,VNB,A,13
13,test,5,1.0,1-Back,1.0,m,Fri May 29 2026 09:41:46 GMT-0400 (Eastern Daylight Time),312922.0,124_o_f_d_a.png,I,m,646,15,3,1659.1000003814697,311262.89999961853,9034,VNB,A,14
14,test,5,0.0,1-Back,1.0,m,Fri May 29 2026 09:41:46 GMT-0400 (Eastern Daylight Time),315055.39999961853,109_y_m_n_a.png,I,m,1107,16,3,2124.699999809265,312930.69999980927,9034,VNB,A,15
15,test,5,0.0,1-Back,1.0,m,Fri May 29 2026 09:41:46 GMT-0400 (Eastern Daylight Time),316938.7999997139,071_y_f_h_a.png,I,m,861,17,3,1876.9000000953674,315061.89999961853,9034,VNB,A,16
16,test,5,0.0,1-Back,1.0,m,Fri May 29 2026 09:41:46 GMT-0400 (Eastern Daylight Time),318788.69999980927,165_m_m_d_a.png,I,m,818,18,3,1843.4000000953674,316945.2999997139,9034,VNB,A,17
0,prac,1,0.0,2-Back,,,Fri May 29 2026 09:41:46 GMT-0400 (Eastern Daylight Time),318788.69999980927,139_m_f_n_a.png,I,space,1609,1,3,1843.4000000953674,316945.2999997139,9034,VNB,A,0
0,prac,1,0.0,2-Back,,,Fri May 29 2026 09:41:46 GMT-0400 (Eastern Daylight Time),318788.69999980927,124_o_f_h_a.png,I,space,1609,2,3,1843.4000000953674,316945.2999997139,9034,VNB,A,0
1,prac,1,0.0,2-Back,1.0,m,Fri May 29 2026 09:41:46 GMT-0400 (Eastern Daylight Time),398122.5,039_o_m_d_a.png,I,m,1164,3,3,1975.9000000953674,396146.59999990463,9034,VNB,A,1
2,prac,1,1.0,2-Back,1.0,z,Fri May 29 2026 09:41:46 GMT-0400 (Eastern Daylight Time),400205.59999990463,165_m_m_h_a.png,I,z,1253,4,3,2072.0999999046326,398133.5,9034,VNB,A,2
3,prac,1,0.0,2-Back,1.0,m,Fri May 29 2026 09:41:46 GMT-0400 (Eastern Daylight Time),401955.59999990463,071_y_f_n_a.png,I,m,913,5,3,1740.9000000953674,400214.69999980927,9034,VNB,A,3
3,prac,1,1.0,2-Back,0.0,z,Fri May 29 2026 09:41:46 GMT-0400 (Eastern Daylight Time),403738.89999961853,039_o_m_h_a.png,I,m,962,6,3,1775.1999998092651,401963.69999980927,9034,VNB,A,4
4,prac,1,1.0,2-Back,1.0,z,Fri May 29 2026 09:41:46 GMT-0400 (Eastern Daylight Time),405788.89999961853,109_y_m_n_a.png,I,z,1214,7,3,2039.0999999046326,403749.7999997139,9034,VNB,A,5
5,prac,1,0.0,2-Back,1.0,m,Fri May 29 2026 09:41:46 GMT-0400 (Eastern Daylight Time),407472.39999961853,139_m_f_d_a.png,I,m,852,8,3,1673.3999996185303,405799.0,9034,VNB,A,6
6,prac,1,0.0,2-Back,1.0,m,Fri May 29 2026 09:41:46 GMT-0400 (Eastern Daylight Time),409355.69999980927,124_o_f_d_a.png,I,m,1013,9,3,1874.6999998092651,407481.0,9034,VNB,A,7
7,prac,1,0.0,2-Back,1.0,m,Fri May 29 2026 09:41:46 GMT-0400 (Eastern Daylight Time),411055.7999997139,165_m_m_h_a.png,I,m,914,10,3,1692.5,409363.2999997139,9034,VNB,A,8
8,prac,1,1.0,2-Back,1.0,z,Fri May 29 2026 09:41:46 GMT-0400 (Eastern Daylight Time),413189.0,071_y_f_d_a.png,I,z,1300,11,3,2124.7000002861023,411064.2999997139,9034,VNB,A,9
9,prac,1,0.0,2-Back,1.0,m,Fri May 29 2026 09:41:46 GMT-0400 (Eastern Daylight Time),414839.09999990463,039_o_m_n_a.png,I,m,831,12,3,1640.5,413198.59999990463,9034,VNB,A,10
0,test,1,0.0,2-Back,,,Fri May 29 2026 09:41:46 GMT-0400 (Eastern Daylight Time),414839.09999990463,109_y_m_h_a.png,I,space,1680,1,3,1640.5,413198.59999990463,9034,VNB,A,0
0,test,1,0.0,2-Back,,,Fri May 29 2026 09:41:46 GMT-0400 (Eastern Daylight Time),414839.09999990463,124_o_f_n_a.png,I,space,1680,2,3,1640.5,413198.59999990463,9034,VNB,A,0
1,test,1,0.0,2-Back,1.0,z,Fri May 29 2026 09:41:46 GMT-0400 (Eastern Daylight Time),428455.2999997139,039_o_m_h_a.png,I,z,931,3,3,1943.7999997138977,426511.5,9034,VNB,A,1
2,test,1,0.0,2-Back,1.0,m,Fri May 29 2026 09:41:46 GMT-0400 (Eastern Daylight Time),430272.2999997139,139_m_f_d_a.png,I,m,789,4,3,1809.9000000953674,428462.39999961853,9034,VNB,A,2
3,test,1,1.0,2-Back,1.0,m,Fri May 29 2026 09:41:46 GMT-0400 (Eastern Daylight Time),432338.7999997139,109_y_m_n_a.png,I,m,1037,5,3,2058.4000000953674,430280.39999961853,9034,VNB,A,3
4,test,1,0.0,2-Back,1.0,z,Fri May 29 2026 09:41:46 GMT-0400 (Eastern Daylight Time),434122.09999990463,071_y_f_d_a.png,I,z,762,6,3,1776.9000000953674,432345.19999980927,9034,VNB,A,4
5,test,1,0.0,2-Back,1.0,m,Fri May 29 2026 09:41:46 GMT-0400 (Eastern Daylight Time),435772.09999990463,165_m_m_h_a.png,I,m,627,7,3,1641.9000000953674,434130.19999980927,9034,VNB,A,5
5,test,1,1.0,2-Back,0.0,m,Fri May 29 2026 09:41:46 GMT-0400 (Eastern Daylight Time),437738.7999997139,071_y_f_n_a.png,I,z,944,8,3,1959.1999998092651,435779.59999990463,9034,VNB,A,6
6,test,1,0.0,2-Back,1.0,z,Fri May 29 2026 09:41:46 GMT-0400 (Eastern Daylight Time),439688.59999990463,124_o_f_h_a.png,I,z,930,9,3,1942.7000002861023,437745.89999961853,9034,VNB,A,7
7,test,1,0.0,2-Back,1.0,m,Fri May 29 2026 09:41:46 GMT-0400 (Eastern Daylight Time),441488.7999997139,039_o_m_d_a.png,I,m,773,10,3,1793.0999999046326,439695.69999980927,9034,VNB,A,8
8,test,1,1.0,2-Back,1.0,m,Fri May 29 2026 09:41:46 GMT-0400 (Eastern Daylight Time),443405.2999997139,165_m_m_d_a.png,I,m,892,11,3,1907.5999999046326,441497.69999980927,9034,VNB,A,9
9,test,1,0.0,2-Back,1.0,m,Fri May 29 2026 09:41:46 GMT-0400 (Eastern Daylight Time),445205.5,139_m_f_n_a.png,I,m,767,12,3,1793.4000000953674,443412.09999990463,9034,VNB,A,10
10,test,1,0.0,2-Back,1.0,m,Fri May 29 2026 09:41:46 GMT-0400 (Eastern Daylight Time),447138.7999997139,071_y_f_h_a.png,I,m,903,13,3,1927.5,445211.2999997139,9034,VNB,A,11
11,test,1,0.0,2-Back,1.0,z,Fri May 29 2026 09:41:46 GMT-0400 (Eastern Daylight Time),449305.39999961853,165_m_m_n_a.png,I,z,1146,14,3,2159.7999997138977,447145.59999990463,9034,VNB,A,12
12,test,1,0.0,2-Back,1.0,m,Fri May 29 2026 09:41:46 GMT-0400 (Eastern Daylight Time),450972.09999990463,109_y_m_d_a.png,I,m,643,15,3,1658.3000001907349,449313.7999997139,9034,VNB,A,13
13,test,1,1.0,2-Back,1.0,m,Fri May 29 2026 09:41:46 GMT-0400 (Eastern Daylight Time),453038.7999997139,139_m_f_h_a.png,I,m,1042,16,3,2061.0999999046326,450977.69999980927,9034,VNB,A,14
13,test,1,0.0,2-Back,0.0,z,Fri May 29 2026 09:41:46 GMT-0400 (Eastern Daylight Time),455305.39999961853,124_o_f_d_a.png,I,m,1246,17,3,2260.2999997138977,453045.09999990463,9034,VNB,A,15
14,test,1,0.0,2-Back,1.0,m,Fri May 29 2026 09:41:46 GMT-0400 (Eastern Daylight Time),457322.09999990463,039_o_m_n_a.png,I,m,995,18,3,2010.0999999046326,455312.0,9034,VNB,A,16
0,test,2,0.0,2-Back,,,Fri May 29 2026 09:41:46 GMT-0400 (Eastern Daylight Time),457322.09999990463,165_m_m_h_a.png,I,space,1147,1,3,2010.0999999046326,455312.0,9034,VNB,A,0
0,test,2,0.0,2-Back,,,Fri May 29 2026 09:41:46 GMT-0400 (Eastern Daylight Time),457322.09999990463,071_y_f_n_a.png,I,space,1147,2,3,2010.0999999046326,455312.0,9034,VNB,A,0
1,test,2,1.0,2-Back,1.0,z,Fri May 29 2026 09:41:46 GMT-0400 (Eastern Daylight Time),465405.5,124_o_f_h_a.png,I,z,793,3,3,1810.6000003814697,463594.89999961853,9034,VNB,A,1
2,test,2,0.0,2-Back,1.0,m,Fri May 29 2026 09:41:46 GMT-0400 (Eastern Daylight Time),467305.19999980927,039_o_m_d_a.png,I,m,879,4,3,1893.3000001907349,465411.89999961853,9034,VNB,A,2
2,test,2,0.0,2-Back,0.0,m,Fri May 29 2026 09:41:46 GMT-0400 (Eastern Daylight Time),469638.7999997139,139_m_f_d_a.png,I,z,1300,5,3,2330.5,467308.2999997139,9034,VNB,A,3
2,test,2,0.0,2-Back,0.0,m,Fri May 29 2026 09:41:46 GMT-0400 (Eastern Daylight Time),471656.19999980927,109_y_m_h_a.png,I,z,998,6,3,2010.5,469645.69999980927,9034,VNB,A,4
3,test,2,0.0,2-Back,1.0,m,Fri May 29 2026 09:41:46 GMT-0400 (Eastern Daylight Time),473588.69999980927,124_o_f_n_a.png,I,m,901,7,3,1929.0,471659.69999980927,9034,VNB,A,5
4,test,2,1.0,2-Back,1.0,z,Fri May 29 2026 09:41:46 GMT-0400 (Eastern Daylight Time),475605.5,039_o_m_h_a.png,I,z,984,8,3,2010.1000003814697,473595.39999961853,9034,VNB,A,6
4,test,2,0.0,2-Back,0.0,m,Fri May 29 2026 09:41:46 GMT-0400 (Eastern Daylight Time),477488.7999997139,071_y_f_d_a.png,I,z,856,9,3,1877.2999997138977,475611.5,9034,VNB,A,7
5,test,2,0.0,2-Back,1.0,m,Fri May 29 2026 09:41:46 GMT-0400 (Eastern Daylight Time),479872.0,109_y_m_d_a.png,I,m,1356,10,3,2376.0,477496.0,9034,VNB,A,8
6,test,2,0.0,2-Back,1.0,m,Fri May 29 2026 09:41:46 GMT-0400 (Eastern Daylight Time),482155.5,165_m_m_n_a.png,I,m,1261,11,3,2277.0,479878.5,9034,VNB,A,9
7,test,2,0.0,2-Back,1.0,m,Fri May 29 2026 09:41:46 GMT-0400 (Eastern Daylight Time),484422.19999980927,139_m_f_h_a.png,I,m,1233,12,3,2260.5,482161.69999980927,9034,VNB,A,10
8,test,2,1.0,2-Back,1.0,z,Fri May 29 2026 09:41:46 GMT-0400 (Eastern Daylight Time),486522.09999990463,039_o_m_n_a.png,I,z,1080,13,3,2093.300000190735,484428.7999997139,9034,VNB,A,11
9,test,2,0.0,2-Back,1.0,m,Fri May 29 2026 09:41:46 GMT-0400 (Eastern Daylight Time),488522.09999990463,124_o_f_d_a.png,I,m,978,14,3,1990.7000002861023,486531.39999961853,9034,VNB,A,12
10,test,2,0.0,2-Back,1.0,m,Fri May 29 2026 09:41:46 GMT-0400 (Eastern Daylight Time),490538.7999997139,071_y_f_h_a.png,I,m,995,15,3,2010.0999999046326,488528.69999980927,9034,VNB,A,13
11,test,2,0.0,2-Back,1.0,z,Fri May 29 2026 09:41:46 GMT-0400 (Eastern Daylight Time),492588.89999961853,165_m_m_d_a.png,I,z,1026,16,3,2041.5,490547.39999961853,9034,VNB,A,14
12,test,2,0.0,2-Back,1.0,m,Fri May 29 2026 09:41:46 GMT-0400 (Eastern Daylight Time),494538.89999961853,109_y_m_n_a.png,I,m,928,17,3,1943.8999996185303,492595.0,9034,VNB,A,15
13,test,2,1.0,2-Back,1.0,m,Fri May 29 2026 09:41:46 GMT-0400 (Eastern Daylight Time),496605.5,139_m_f_n_a.png,I,m,1043,18,3,2060.9000000953674,494544.59999990463,9034,VNB,A,16
0,test,3,1.0,2-Back,,,Fri May 29 2026 09:41:46 GMT-0400 (Eastern Daylight Time),496605.5,039_o_m_n_a.png,I,space,1111,1,3,2060.9000000953674,494544.59999990463,9034,VNB,A,0
0,test,3,1.0,2-Back,,,Fri May 29 2026 09:41:46 GMT-0400 (Eastern Daylight Time),496605.5,124_o_f_d_a.png,I,space,1111,2,3,2060.9000000953674,494544.59999990463,9034,VNB,A,0
1,test,3,0.0,2-Back,1.0,m,Fri May 29 2026 09:41:46 GMT-0400 (Eastern Daylight Time),505022.0,071_y_f_h_a.png,I,m,1225,3,3,2242.9000000953674,502779.09999990463,9034,VNB,A,1
2,test,3,0.0,2-Back,1.0,z,Fri May 29 2026 09:41:46 GMT-0400 (Eastern Daylight Time),507822.19999980927,139_m_f_d_a.png,I,z,1775,4,3,2791.9000000953674,505030.2999997139,9034,VNB,A,2
3,test,3,1.0,2-Back,1.0,m,Fri May 29 2026 09:41:46 GMT-0400 (Eastern Daylight Time),509522.09999990463,109_y_m_n_a.png,I,m,670,5,3,1693.2000002861023,507828.89999961853,9034,VNB,A,3
4,test,3,0.0,2-Back,1.0,m,Fri May 29 2026 09:41:46 GMT-0400 (Eastern Daylight Time),511488.7999997139,039_o_m_h_a.png,I,m,939,6,3,1960.4000000953674,509528.39999961853,9034,VNB,A,4
4,test,3,0.0,2-Back,0.0,z,Fri May 29 2026 09:41:46 GMT-0400 (Eastern Daylight Time),513572.2999997139,071_y_f_n_a.png,I,m,1052,7,3,2076.2999997138977,511496.0,9034,VNB,A,5
5,test,3,1.0,2-Back,1.0,m,Fri May 29 2026 09:41:46 GMT-0400 (Eastern Daylight Time),515372.19999980927,165_m_m_d_a.png,I,m,776,8,3,1792.9000000953674,513579.2999997139,9034,VNB,A,6
6,test,3,0.0,2-Back,1.0,m,Fri May 29 2026 09:41:46 GMT-0400 (Eastern Daylight Time),517588.7999997139,109_y_m_d_a.png,I,m,1185,9,3,2207.9000000953674,515380.89999961853,9034,VNB,A,7
7,test,3,0.0,2-Back,1.0,m,Fri May 29 2026 09:41:46 GMT-0400 (Eastern Daylight Time),519388.7999997139,124_o_f_h_a.png,I,m,777,10,3,1793.4000000953674,517595.39999961853,9034,VNB,A,8
8,test,3,1.0,2-Back,1.0,m,Fri May 29 2026 09:41:46 GMT-0400 (Eastern Daylight Time),521272.0,139_m_f_n_a.png,I,m,864,11,3,1876.1000003814697,519395.89999961853,9034,VNB,A,9
9,test,3,1.0,2-Back,1.0,z,Fri May 29 2026 09:41:46 GMT-0400 (Eastern Daylight Time),522888.5,165_m_m_h_a.png,I,z,597,12,3,1608.9000000953674,521279.59999990463,9034,VNB,A,10
10,test,3,0.0,2-Back,1.0,m,Fri May 29 2026 09:41:46 GMT-0400 (Eastern Daylight Time),524639.0,071_y_f_d_a.png,I,m,725,13,3,1743.7000002861023,522895.2999997139,9034,VNB,A,11
11,test,3,0.0,2-Back,1.0,m,Fri May 29 2026 09:41:46 GMT-0400 (Eastern Daylight Time),526622.2999997139,124_o_f_n_a.png,I,m,958,14,3,1976.1999998092651,524646.0999999046,9034,VNB,A,12
11,test,3,0.0,2-Back,0.0,z,Fri May 29 2026 09:41:46 GMT-0400 (Eastern Daylight Time),528588.7999997139,039_o_m_d_a.png,I,m,942,15,3,1958.4000000953674,526630.3999996185,9034,VNB,A,13
12,test,3,1.0,2-Back,1.0,m,Fri May 29 2026 09:41:46 GMT-0400 (Eastern Daylight Time),530505.5,139_m_f_h_a.png,I,m,898,16,3,1910.0,528595.5,9034,VNB,A,14
13,test,3,0.0,2-Back,1.0,m,Fri May 29 2026 09:41:46 GMT-0400 (Eastern Daylight Time),532422.0999999046,165_m_m_n_a.png,I,m,883,17,3,1910.4000000953674,530511.6999998093,9034,VNB,A,15
14,test,3,0.0,2-Back,1.0,z,Fri May 29 2026 09:41:46 GMT-0400 (Eastern Daylight Time),534088.5999999046,109_y_m_h_a.png,I,z,647,18,3,1660.8000001907349,532427.7999997139,9034,VNB,A,16
0,test,4,0.0,2-Back,,,Fri May 29 2026 09:41:46 GMT-0400 (Eastern Daylight Time),534088.5999999046,139_m_f_n_a.png,I,space,1068,1,3,1660.8000001907349,532427.7999997139,9034,VNB,A,0
0,test,4,0.0,2-Back,,,Fri May 29 2026 09:41:46 GMT-0400 (Eastern Daylight Time),534088.5999999046,039_o_m_n_a.png,I,space,1068,2,3,1660.8000001907349,532427.7999997139,9034,VNB,A,0
1,test,4,1.0,2-Back,1.0,m,Fri May 29 2026 09:41:46 GMT-0400 (Eastern Daylight Time),542138.8999996185,109_y_m_h_a.png,I,m,862,3,3,1877.5999999046326,540261.2999997139,9034,VNB,A,1
2,test,4,1.0,2-Back,1.0,m,Fri May 29 2026 09:41:46 GMT-0400 (Eastern Daylight Time),544072.0,124_o_f_d_a.png,I,m,914,4,3,1926.0,542146.0,9034,VNB,A,2
3,test,4,0.0,2-Back,1.0,z,Fri May 29 2026 09:41:46 GMT-0400 (Eastern Daylight Time),546022.1999998093,039_o_m_h_a.png,I,z,916,5,3,1943.0999999046326,544079.0999999046,9034,VNB,A,3
4,test,4,0.0,2-Back,1.0,m,Fri May 29 2026 09:41:46 GMT-0400 (Eastern Daylight Time),547838.7999997139,165_m_m_n_a.png,I,m,791,6,3,1809.5,546029.2999997139,9034,VNB,A,4
5,test,4,0.0,2-Back,1.0,m,Fri May 29 2026 09:41:46 GMT-0400 (Eastern Daylight Time),549972.2999997139,139_m_f_d_a.png,I,m,1102,7,3,2125.0999999046326,547847.1999998093,9034,VNB,A,5
5,test,4,0.0,2-Back,0.0,z,Fri May 29 2026 09:41:46 GMT-0400 (Eastern Daylight Time),551972.0999999046,071_y_f_n_a.png,I,m,968,8,3,1991.7000002861023,549980.3999996185,9034,VNB,A,6
6,test,4,1.0,2-Back,1.0,m,Fri May 29 2026 09:41:46 GMT-0400 (Eastern Daylight Time),554055.5999999046,124_o_f_h_a.png,I,m,1065,9,3,2076.7000002861023,551978.8999996185,9034,VNB,A,7
7,test,4,0.0,2-Back,1.0,m,Fri May 29 2026 09:41:46 GMT-0400 (Eastern Daylight Time),556138.8999996185,165_m_m_h_a.png,I,m,1061,10,3,2077.199999809265,554061.6999998093,9034,VNB,A,8
8,test,4,0.0,2-Back,1.0,m,Fri May 29 2026 09:41:46 GMT-0400 (Eastern Daylight Time),558057.5,071_y_f_d_a.png,I,m,898,11,3,1911.5,556146.0,9034,VNB,A,9
9,test,4,0.0,2-Back,1.0,m,Fri May 29 2026 09:41:46 GMT-0400 (Eastern Daylight Time),560121.8999996185,109_y_m_n_a.png,I,m,1045,12,3,2056.7999997138977,558065.0999999046,9034,VNB,A,10
9,test,4,0.0,2-Back,0.0,z,Fri May 29 2026 09:41:46 GMT-0400 (Eastern Daylight Time),562088.5999999046,039_o_m_d_a.png,I,m,946,13,3,1963.5,560125.0999999046,9034,VNB,A,11
10,test,4,1.0,2-Back,1.0,m,Fri May 29 2026 09:41:46 GMT-0400 (Eastern Daylight Time),564155.5,139_m_f_h_a.png,I,m,1045,14,3,2061.0,562094.5,9034,VNB,A,12
11,test,4,1.0,2-Back,1.0,m,Fri May 29 2026 09:41:46 GMT-0400 (Eastern Daylight Time),566222.0999999046,071_y_f_h_a.png,I,m,1042,15,3,2059.800000190735,564162.2999997139,9034,VNB,A,13
12,test,4,0.0,2-Back,1.0,m,Fri May 29 2026 09:41:46 GMT-0400 (Eastern Daylight Time),568005.5999999046,124_o_f_n_a.png,I,m,750,16,3,1774.8000001907349,566230.7999997139,9034,VNB,A,14
13,test,4,0.0,2-Back,1.0,m,Fri May 29 2026 09:41:46 GMT-0400 (Eastern Daylight Time),569922.0999999046,109_y_m_d_a.png,I,m,888,17,3,1909.5,568012.5999999046,9034,VNB,A,15
14,test,4,1.0,2-Back,1.0,m,Fri May 29 2026 09:41:46 GMT-0400 (Eastern Daylight Time),571855.5999999046,165_m_m_d_a.png,I,m,908,18,3,1924.8000001907349,569930.7999997139,9034,VNB,A,16
0,test,5,1.0,2-Back,,,Fri May 29 2026 09:41:46 GMT-0400 (Eastern Daylight Time),571855.5999999046,071_y_f_d_a.png,I,space,1269,1,3,1924.8000001907349,569930.7999997139,9034,VNB,A,0
0,test,5,1.0,2-Back,,,Fri May 29 2026 09:41:46 GMT-0400 (Eastern Daylight Time),571855.5999999046,124_o_f_h_a.png,I,space,1269,2,3,1924.8000001907349,569930.7999997139,9034,VNB,A,0
0,test,5,1.0,2-Back,0.0,z,Fri May 29 2026 09:41:46 GMT-0400 (Eastern Daylight Time),580205.5999999046,039_o_m_d_a.png,I,m,926,3,3,1944.2000002861023,578261.3999996185,9034,VNB,A,1
1,test,5,1.0,2-Back,1.0,m,Fri May 29 2026 09:41:46 GMT-0400 (Eastern Daylight Time),582138.8999996185,139_m_f_n_a.png,I,m,911,4,3,1926.0999999046326,580212.7999997139,9034,VNB,A,2
2,test,5,0.0,2-Back,1.0,m,Fri May 29 2026 09:41:46 GMT-0400 (Eastern Daylight Time),584255.6999998093,165_m_m_h_a.png,I,m,1090,5,3,2108.800000190735,582146.8999996185,9034,VNB,A,3
3,test,5,0.0,2-Back,1.0,z,Fri May 29 2026 09:41:46 GMT-0400 (Eastern Daylight Time),586822.2999997139,071_y_f_n_a.png,I,z,1535,6,3,2560.5,584261.7999997139,9034,VNB,A,4
4,test,5,0.0,2-Back,1.0,m,Fri May 29 2026 09:41:46 GMT-0400 (Eastern Daylight Time),588755.5999999046,124_o_f_d_a.png,I,m,902,7,3,1925.8000001907349,586829.7999997139,9034,VNB,A,5
5,test,5,0.0,2-Back,1.0,m,Fri May 29 2026 09:41:46 GMT-0400 (Eastern Daylight Time),590722.2999997139,039_o_m_h_a.png,I,m,941,8,3,1959.7999997138977,588762.5,9034,VNB,A,6
5,test,5,1.0,2-Back,0.0,z,Fri May 29 2026 09:41:46 GMT-0400 (Eastern Daylight Time),592872.0,139_m_f_d_a.png,I,m,1130,9,3,2142.2000002861023,590729.7999997139,9034,VNB,A,7
6,test,5,0.0,2-Back,1.0,m,Fri May 29 2026 09:41:46 GMT-0400 (Eastern Daylight Time),594821.5999999046,109_y_m_n_a.png,I,m,931,10,3,1941.0999999046326,592880.5,9034,VNB,A,8
7,test,5,0.0,2-Back,1.0,m,Fri May 29 2026 09:41:46 GMT-0400 (Eastern Daylight Time),596888.6999998093,165_m_m_n_a.png,I,m,1047,11,3,2063.699999809265,594825.0,9034,VNB,A,9
8,test,5,0.0,2-Back,1.0,m,Fri May 29 2026 09:41:46 GMT-0400 (Eastern Daylight Time),598855.3999996185,071_y_f_h_a.png,I,m,948,12,3,1960.0,596895.3999996185,9034,VNB,A,10
9,test,5,0.0,2-Back,1.0,m,Fri May 29 2026 09:41:46 GMT-0400 (Eastern Daylight Time),600672.2999997139,109_y_m_d_a.png,I,m,789,13,3,1810.1999998092651,598862.0999999046,9034,VNB,A,11
10,test,5,1.0,2-Back,1.0,z,Fri May 29 2026 09:41:46 GMT-0400 (Eastern Daylight Time),602572.2999997139,139_m_f_h_a.png,I,z,877,14,3,1893.9000000953674,600678.3999996185,9034,VNB,A,12
11,test,5,0.0,2-Back,1.0,m,Fri May 29 2026 09:41:46 GMT-0400 (Eastern Daylight Time),604422.1999998093,039_o_m_n_a.png,I,m,816,15,3,1842.0999999046326,602580.0999999046,9034,VNB,A,13
12,test,5,0.0,2-Back,1.0,m,Fri May 29 2026 09:41:46 GMT-0400 (Eastern Daylight Time),606422.1999998093,165_m_m_d_a.png,I,m,966,16,3,1991.9000000953674,604430.2999997139,9034,VNB,A,14
12,test,5,0.0,2-Back,0.0,z,Fri May 29 2026 09:41:46 GMT-0400 (Eastern Daylight Time),608522.1999998093,124_o_f_n_a.png,I,m,1079,17,3,2093.199999809265,606429.0,9034,VNB,A,15
13,test,5,1.0,2-Back,1.0,m,Fri May 29 2026 09:41:46 GMT-0400 (Eastern Daylight Time),610422.0,109_y_m_h_a.png,I,m,882,18,3,1892.9000000953674,608529.0999999046,9034,VNB,A,16
