acc_sum,block,block_c,condition,correct,correct_response,datetime,endtime,flanker,jitter,project,response,response_test_buffer_response,response_test_target_response,response_time,response_time_test_buffer_response,response_time_test_target_response,row_sel,session_number,start_end,starttime,subject_id,target,task,task_vers,time_test_buffer,time_test_buffer_response,time_test_constants,time_test_flanker,time_test_jitter,time_test_logger,time_test_target,time_test_target_response,time_test_variables,trial
0,prac,1,con,0,m,Wed Apr 08 2026 15:00:05 GMT-0400 (Eastern Daylight Time),164370.90000000037,zinc,1000,I,None,,,1799,,,15,1,5057.9000000003725,159313.0,9062,zinc,NF,C,,,,,,,,,,1
1,prac,1,con,1,z,Wed Apr 08 2026 15:00:05 GMT-0400 (Eastern Daylight Time),167821.09999999963,orange,1000,I,z,,,1141,,,3,1,3441.4000000003725,164379.69999999925,9062,orange,NF,C,,,,,,,,,,2
2,prac,1,inc,1,z,Wed Apr 08 2026 15:00:05 GMT-0400 (Eastern Daylight Time),171054.30000000075,cobalt,1100,I,z,,,823,,,4,1,3221.2000000011176,167833.09999999963,9062,raisin,NF,C,,,,,,,,,,3
3,prac,1,con,1,m,Wed Apr 08 2026 15:00:05 GMT-0400 (Eastern Daylight Time),174254.5,silver,1000,I,m,,,899,,,11,1,3194.199999999255,171060.30000000075,9062,silver,NF,C,,,,,,,,,,4
4,prac,1,con,1,m,Wed Apr 08 2026 15:00:05 GMT-0400 (Eastern Daylight Time),176987.90000000037,bronze,800,I,m,,,618,,,9,1,2723.9000000003725,174264.0,9062,bronze,NF,C,,,,,,,,,,5
5,prac,1,con,1,z,Wed Apr 08 2026 15:00:05 GMT-0400 (Eastern Daylight Time),180071.09999999963,kiwi,1000,I,z,,,772,,,7,1,3071.5999999996275,176999.5,9062,kiwi,NF,C,,,,,,,,,,6
6,prac,1,con,1,z,Wed Apr 08 2026 15:00:05 GMT-0400 (Eastern Daylight Time),182804.40000000037,banana,800,I,z,,,625,,,1,1,2725.0,180079.40000000037,9062,banana,NF,C,,,,,,,,,,7
7,prac,1,inc,1,z,Wed Apr 08 2026 15:00:05 GMT-0400 (Eastern Daylight Time),185804.0,iron,900,I,z,,,784,,,6,1,2991.0,182813.0,9062,pear,NF,C,,,,,,,,,,8
8,prac,1,inc,1,z,Wed Apr 08 2026 15:00:05 GMT-0400 (Eastern Daylight Time),188954.5,lead,1100,I,z,,,744,,,8,1,3143.5999999996275,185810.90000000037,9062,plum,NF,C,,,,,,,,,,9
9,prac,1,inc,1,z,Wed Apr 08 2026 15:00:05 GMT-0400 (Eastern Daylight Time),191921.0,copper,900,I,z,,,755,,,2,1,2954.9000000003725,188966.09999999963,9062,cherry,NF,C,,,,,,,,,,10
10,prac,1,inc,1,m,Wed Apr 08 2026 15:00:05 GMT-0400 (Eastern Daylight Time),195104.40000000037,raisin,1100,I,m,,,778,,,12,1,3175.9000000003725,191928.5,9062,cobalt,NF,C,,,,,,,,,,11
11,prac,1,con,1,z,Wed Apr 08 2026 15:00:05 GMT-0400 (Eastern Daylight Time),198087.80000000075,lime,800,I,z,,,872,,,5,1,2975.800000000745,195112.0,9062,lime,NF,C,,,,,,,,,,12
12,prac,1,inc,1,m,Wed Apr 08 2026 15:00:05 GMT-0400 (Eastern Daylight Time),201004.5,pear,900,I,m,,,700,,,14,1,2908.4000000003725,198096.09999999963,9062,iron,NF,C,,,,,,,,,,13
13,prac,1,inc,1,m,Wed Apr 08 2026 15:00:05 GMT-0400 (Eastern Daylight Time),204021.09999999963,cherry,900,I,m,,,808,,,10,1,3008.199999999255,201012.90000000037,9062,copper,NF,C,,,,,,,,,,14
14,prac,1,inc,1,m,Wed Apr 08 2026 15:00:05 GMT-0400 (Eastern Daylight Time),207320.80000000075,plum,1100,I,m,,,887,,,16,1,3290.9000000003725,204029.90000000037,9062,lead,NF,C,,,,,,,,,,15
15,prac,1,con,1,m,Wed Apr 08 2026 15:00:05 GMT-0400 (Eastern Daylight Time),210154.40000000037,gold,800,I,m,,,718,,,13,1,2827.300000000745,207327.09999999963,9062,gold,NF,C,,,,,,,,,,16
1,test,1,inc,1,m,Wed Apr 08 2026 15:00:05 GMT-0400 (Eastern Daylight Time),232671.19999999925,kiwi,1000,I,m,m,None,733,533.0,200.0,103,1,2258.5,230412.69999999925,9062,gold,NF,C,215218,215218,213493,214502,213493,215751,215018,215018,215751,1
2,test,1,con,1,z,Wed Apr 08 2026 15:00:05 GMT-0400 (Eastern Daylight Time),234887.5,cherry,1100,I,z,z,None,564,365.0,199.0,12,1,2199.9000000003725,232687.59999999963,9062,cherry,NF,C,217602,217602,215768,216885,215769,217968,217401,217402,217968,2
3,test,1,con,1,z,Wed Apr 08 2026 15:00:05 GMT-0400 (Eastern Daylight Time),237454.5,lime,1000,I,z,z,None,1016,817.0,199.0,35,1,2558.0999999996275,234896.40000000037,9062,lime,NF,C,219702,219702,217976,218985,217977,220535,219502,219502,220535,3
4,test,1,con,1,m,Wed Apr 08 2026 15:00:05 GMT-0400 (Eastern Daylight Time),239604.5,iron,1000,I,m,m,None,601,401.0,200.0,107,1,2138.4000000003725,237466.09999999963,9062,iron,NF,C,222268,222269,220546,221552,220547,222685,222068,222068,222685,4
5,test,1,con,1,z,Wed Apr 08 2026 15:00:05 GMT-0400 (Eastern Daylight Time),242037.59999999963,pear,1100,I,z,z,None,785,585.0,200.0,44,1,2424.2999999988824,239613.30000000075,9062,pear,NF,C,224518,224518,222693,223802,222694,225118,224318,224318,225118,5
6,test,1,inc,1,m,Wed Apr 08 2026 15:00:05 GMT-0400 (Eastern Daylight Time),244287.80000000075,raisin,1100,I,m,m,None,606,407.0,199.0,72,1,2239.10000000149,242048.69999999925,9062,bronze,NF,C,226952,226952,225129,226235,225129,227368,226752,226752,227368,6
7,test,1,con,1,z,Wed Apr 08 2026 15:00:05 GMT-0400 (Eastern Daylight Time),246404.40000000037,pear,900,I,z,z,None,676,477.0,199.0,42,1,2108.4000000003725,244296.0,9062,pear,NF,C,229002,229002,227376,228285,227376,229485,228802,228802,229484,7
8,test,1,con,1,z,Wed Apr 08 2026 15:00:05 GMT-0400 (Eastern Daylight Time),248704.40000000037,plum,1100,I,z,z,None,664,464.0,200.0,60,1,2291.300000000745,246413.09999999963,9062,plum,NF,C,231318,231319,229493,230601,229493,231784,231118,231118,231784,8
9,test,1,inc,1,m,Wed Apr 08 2026 15:00:05 GMT-0400 (Eastern Daylight Time),250837.69999999925,orange,1000,I,m,m,None,584,384.0,200.0,95,1,2119.0,248718.69999999925,9062,cobalt,NF,C,233518,233518,231799,232801,231800,233918,233318,233318,233918,9
10,test,1,con,1,z,Wed Apr 08 2026 15:00:05 GMT-0400 (Eastern Daylight Time),252854.30000000075,banana,800,I,z,z,None,674,475.0,199.0,1,1,2007.9000000003725,250846.40000000037,9062,banana,NF,C,235452,235452,233926,234735,233927,235934,235252,235252,235934,10
11,test,1,con,1,m,Wed Apr 08 2026 15:00:05 GMT-0400 (Eastern Daylight Time),255171.09999999963,lead,1100,I,m,m,None,671,471.0,200.0,124,1,2306.7999999988824,252864.30000000075,9062,lead,NF,C,237768,237768,235944,237052,235945,238251,237568,237568,238251,11
12,test,1,con,1,z,Wed Apr 08 2026 15:00:05 GMT-0400 (Eastern Daylight Time),257471.0,raisin,800,I,z,z,None,956,757.0,199.0,25,1,2291.199999999255,255179.80000000075,9062,raisin,NF,C,239785,239785,238260,239068,238260,240551,239585,239585,240551,12
13,test,1,con,1,m,Wed Apr 08 2026 15:00:05 GMT-0400 (Eastern Daylight Time),259587.80000000075,cobalt,1100,I,m,m,None,477,278.0,199.0,92,1,2108.0,257479.80000000075,9062,cobalt,NF,C,242385,242385,240560,241668,240560,242668,242185,242185,242668,13
14,test,1,inc,1,z,Wed Apr 08 2026 15:00:05 GMT-0400 (Eastern Daylight Time),261587.5,gold,800,I,z,z,None,652,452.0,200.0,53,1,1991.5999999996275,259595.90000000037,9062,kiwi,NF,C,244202,244202,242676,243485,242677,244668,244001,244001,244668,14
15,test,1,inc,1,z,Wed Apr 08 2026 15:00:05 GMT-0400 (Eastern Daylight Time),263604.19999999925,iron,900,I,z,z,None,576,376.0,200.0,62,1,2002.0,261602.19999999925,9062,plum,NF,C,246302,246302,244682,245585,244683,246684,246101,246101,246684,15
16,test,1,inc,1,z,Wed Apr 08 2026 15:00:05 GMT-0400 (Eastern Daylight Time),265471.19999999925,gold,800,I,z,z,None,533,333.0,200.0,61,1,1858.7999999988824,263612.4000000004,9062,plum,NF,C,248218,248218,246692,247502,246693,248551,248018,248018,248551,16
17,test,1,con,1,m,Wed Apr 08 2026 15:00:05 GMT-0400 (Eastern Daylight Time),267554.4000000004,bronze,1100,I,m,m,None,445,246.0,199.0,68,1,2074.2000000011176,265480.19999999925,9062,bronze,NF,C,250385,250385,248560,249668,248560,250634,250185,250185,250634,17
18,test,1,con,1,m,Wed Apr 08 2026 15:00:05 GMT-0400 (Eastern Daylight Time),269754.4000000004,silver,1000,I,m,m,None,654,454.0,200.0,83,1,2191.5,267562.9000000004,9062,silver,NF,C,252368,252368,250643,251651,250643,252835,252168,252168,252834,18
19,test,1,con,1,m,Wed Apr 08 2026 15:00:05 GMT-0400 (Eastern Daylight Time),271537.69999999925,bronze,800,I,m,m,None,439,239.0,200.0,65,1,1774.199999999255,269763.5,9062,bronze,NF,C,254368,254368,252844,253651,252844,254618,254168,254168,254618,19
20,test,1,inc,1,m,Wed Apr 08 2026 15:00:05 GMT-0400 (Eastern Daylight Time),273654.19999999925,orange,1000,I,m,m,None,574,375.0,199.0,87,1,2107.89999999851,271546.30000000075,9062,silver,NF,C,256352,256352,254626,255635,254627,256734,256152,256152,256734,20
21,test,1,inc,1,z,Wed Apr 08 2026 15:00:05 GMT-0400 (Eastern Daylight Time),275554.19999999925,iron,900,I,z,z,None,462,262.0,200.0,54,1,1891.2999999988824,273662.9000000004,9062,kiwi,NF,C,258368,258368,256743,257652,256743,258634,258168,258168,258634,21
22,test,1,con,1,m,Wed Apr 08 2026 15:00:05 GMT-0400 (Eastern Daylight Time),277637.69999999925,iron,900,I,m,m,None,634,434.0,200.0,106,1,2074.0,275563.69999999925,9062,iron,NF,C,260268,260268,258644,259552,258644,260718,260068,260068,260718,22
23,test,1,inc,1,z,Wed Apr 08 2026 15:00:05 GMT-0400 (Eastern Daylight Time),279771.0,zinc,1000,I,z,z,None,595,395.0,200.0,63,1,2125.5,277645.5,9062,plum,NF,C,262452,262452,260726,261735,260726,262851,262251,262251,262851,23
24,test,1,inc,1,m,Wed Apr 08 2026 15:00:05 GMT-0400 (Eastern Daylight Time),281737.5,lime,800,I,m,m,None,628,429.0,199.0,101,1,1952.300000000745,279785.19999999925,9062,gold,NF,C,264385,264385,262865,263668,262866,264818,264185,264185,264818,24
25,test,1,inc,1,z,Wed Apr 08 2026 15:00:05 GMT-0400 (Eastern Daylight Time),283904.19999999925,zinc,1000,I,z,z,None,630,431.0,199.0,55,1,2160.39999999851,281743.80000000075,9062,kiwi,NF,C,266552,266552,264824,265834,264824,266984,266352,266352,266984,25
26,test,1,inc,1,m,Wed Apr 08 2026 15:00:05 GMT-0400 (Eastern Daylight Time),285854.0999999996,banana,800,I,m,m,None,607,407.0,200.0,69,1,1935.0999999996275,283919.0,9062,bronze,NF,C,268518,268519,266999,267801,267000,268934,268318,268318,268934,26
27,test,1,con,1,z,Wed Apr 08 2026 15:00:05 GMT-0400 (Eastern Daylight Time),288004.4000000004,cherry,900,I,z,z,None,711,511.0,200.0,10,1,2144.0999999996275,285860.30000000075,9062,cherry,NF,C,270568,270568,268940,269852,268941,271084,270368,270368,271084,27
28,test,1,inc,1,z,Wed Apr 08 2026 15:00:05 GMT-0400 (Eastern Daylight Time),290071.19999999925,silver,1000,I,z,z,None,533,333.0,200.0,7,1,2056.199999999255,288015.0,9062,banana,NF,C,272818,272818,271095,272101,271095,273151,272618,272618,273151,28
29,test,1,inc,1,z,Wed Apr 08 2026 15:00:05 GMT-0400 (Eastern Daylight Time),292187.30000000075,iron,900,I,z,z,None,676,476.0,200.0,38,1,2101.7000000011176,290085.5999999996,9062,lime,NF,C,274785,274785,273166,274068,273166,275267,274584,274584,275267,29
30,test,1,inc,1,m,Wed Apr 08 2026 15:00:05 GMT-0400 (Eastern Daylight Time),294354.4000000004,plum,1100,I,m,m,None,528,329.0,199.0,128,1,2161.4000000003725,292193.0,9062,lead,NF,C,277102,277102,275273,276385,275273,277435,276902,276902,277434,30
31,test,1,inc,1,m,Wed Apr 08 2026 15:00:05 GMT-0400 (Eastern Daylight Time),296554.30000000075,plum,1100,I,m,m,None,554,354.0,200.0,112,1,2189.800000000745,294364.5,9062,iron,NF,C,279268,279268,277445,278551,277445,279634,279068,279068,279634,31
32,test,1,inc,1,m,Wed Apr 08 2026 15:00:05 GMT-0400 (Eastern Daylight Time),298587.69999999925,pear,900,I,m,m,None,586,386.0,200.0,102,1,2022.5999999996275,296565.0999999996,9062,gold,NF,C,281268,281268,279645,280551,279646,281668,281068,281068,281668,32
33,test,1,con,1,z,Wed Apr 08 2026 15:00:05 GMT-0400 (Eastern Daylight Time),300571.19999999925,banana,900,I,z,z,None,536,336.0,200.0,2,1,1975.5999999996275,298595.5999999996,9062,banana,NF,C,283301,283302,281676,282585,281676,283651,283101,283101,283651,33
34,test,1,con,1,m,Wed Apr 08 2026 15:00:05 GMT-0400 (Eastern Daylight Time),302689.5,gold,900,I,m,m,None,681,482.0,199.0,98,1,2110.0999999996275,300579.4000000004,9062,gold,NF,C,285285,285285,283659,284568,283660,285770,285085,285085,285770,34
35,test,1,inc,1,z,Wed Apr 08 2026 15:00:05 GMT-0400 (Eastern Daylight Time),305104.30000000075,cobalt,1100,I,z,z,None,773,574.0,199.0,16,1,2404.7000000011176,302699.5999999996,9062,cherry,NF,C,287601,287601,285780,286885,285780,288184,287402,287402,288184,35
36,test,1,con,1,m,Wed Apr 08 2026 15:00:05 GMT-0400 (Eastern Daylight Time),307120.9000000004,lead,900,I,m,m,None,580,380.0,200.0,122,1,2008.5999999996275,305112.30000000075,9062,lead,NF,C,289818,289818,288192,289101,288193,290201,289618,289618,290201,36
37,test,1,con,1,z,Wed Apr 08 2026 15:00:05 GMT-0400 (Eastern Daylight Time),309254.5,pear,1000,I,z,z,None,582,383.0,199.0,43,1,2121.9000000003725,307132.5999999996,9062,pear,NF,C,291935,291935,290213,291218,290213,292335,291735,291735,292334,37
38,test,1,con,1,z,Wed Apr 08 2026 15:00:05 GMT-0400 (Eastern Daylight Time),311271.19999999925,cherry,800,I,z,z,None,682,482.0,200.0,9,1,2008.8999999985099,309262.30000000075,9062,cherry,NF,C,293868,293869,292342,293151,292343,294351,293668,293668,294351,38
39,test,1,inc,1,z,Wed Apr 08 2026 15:00:05 GMT-0400 (Eastern Daylight Time),313470.9000000004,lead,1100,I,z,z,None,557,358.0,199.0,48,1,2185.0999999996275,311285.80000000075,9062,pear,NF,C,296185,296185,294366,295468,294367,296551,295985,295985,296551,39
40,test,1,inc,1,m,Wed Apr 08 2026 15:00:05 GMT-0400 (Eastern Daylight Time),315537.80000000075,plum,1100,I,m,m,None,422,223.0,199.0,104,1,2058.5,313479.30000000075,9062,gold,NF,C,298384,298384,296559,297668,296560,298618,298185,298185,298618,40
41,test,1,inc,1,z,Wed Apr 08 2026 15:00:05 GMT-0400 (Eastern Daylight Time),317387.5,gold,800,I,z,z,None,510,310.0,200.0,37,1,1839.199999999255,315548.30000000075,9062,lime,NF,C,300151,300152,298628,299434,298629,300468,299951,299951,300468,41
42,test,1,con,1,m,Wed Apr 08 2026 15:00:05 GMT-0400 (Eastern Daylight Time),319687.5999999996,silver,1100,I,m,m,None,655,456.0,199.0,84,1,2294.5,317393.0999999996,9062,silver,NF,C,302302,302302,300473,301585,300473,302768,302101,302102,302768,42
43,test,1,con,1,z,Wed Apr 08 2026 15:00:05 GMT-0400 (Eastern Daylight Time),321621.0,plum,800,I,z,z,None,593,393.0,200.0,57,1,1925.0,319696.0,9062,plum,NF,C,304301,304302,302776,303584,302776,304701,304101,304101,304701,43
44,test,1,inc,1,z,Wed Apr 08 2026 15:00:05 GMT-0400 (Eastern Daylight Time),323770.9000000004,silver,1000,I,z,z,None,602,403.0,199.0,31,1,2141.0,321629.9000000004,9062,raisin,NF,C,306435,306435,304710,305718,304710,306851,306235,306235,306851,44
45,test,1,inc,1,z,Wed Apr 08 2026 15:00:05 GMT-0400 (Eastern Daylight Time),325904.19999999925,cobalt,1100,I,z,z,None,497,298.0,199.0,32,1,2123.199999999255,323781.0,9062,raisin,NF,C,308685,308685,306861,307968,306861,308984,308485,308485,308984,45
46,test,1,con,1,m,Wed Apr 08 2026 15:00:05 GMT-0400 (Eastern Daylight Time),327904.0,cobalt,900,I,m,m,None,564,364.0,200.0,90,1,1991.300000000745,325912.69999999925,9062,cobalt,NF,C,310618,310618,308993,309902,308993,310984,310418,310418,310984,46
47,test,1,con,1,m,Wed Apr 08 2026 15:00:05 GMT-0400 (Eastern Daylight Time),329904.5,gold,1000,I,m,m,None,457,257.0,200.0,99,1,1995.199999999255,327909.30000000075,9062,gold,NF,C,312718,312718,310989,312001,310990,312985,312518,312518,312985,47
48,test,1,inc,1,m,Wed Apr 08 2026 15:00:05 GMT-0400 (Eastern Daylight Time),332187.80000000075,plum,1100,I,m,m,None,636,436.0,200.0,120,1,2269.60000000149,329918.19999999925,9062,zinc,NF,C,314818,314818,312998,314101,312999,315268,314618,314618,315268,48
49,test,1,inc,1,m,Wed Apr 08 2026 15:00:05 GMT-0400 (Eastern Daylight Time),334270.9000000004,kiwi,1000,I,m,m,None,541,341.0,200.0,111,1,2072.2000000011176,332198.69999999925,9062,iron,NF,C,317001,317001,315279,316285,315279,317351,316801,316801,317351,49
50,test,1,inc,1,z,Wed Apr 08 2026 15:00:05 GMT-0400 (Eastern Daylight Time),336321.0999999996,copper,900,I,z,z,None,605,406.0,199.0,14,1,2040.699999999255,334280.4000000004,9062,cherry,NF,C,318985,318985,317360,318268,317361,319401,318785,318785,319401,50
51,test,1,con,1,m,Wed Apr 08 2026 15:00:05 GMT-0400 (Eastern Daylight Time),338337.80000000075,gold,800,I,m,m,None,671,472.0,199.0,97,1,2005.2000000011176,336332.5999999996,9062,gold,NF,C,320935,320935,319413,320218,319413,321418,320735,320735,321418,51
52,test,1,inc,1,z,Wed Apr 08 2026 15:00:05 GMT-0400 (Eastern Daylight Time),340371.0,copper,900,I,z,z,None,586,386.0,200.0,6,1,2024.0,338347.0,9062,banana,NF,C,323051,323052,321427,322335,321427,323451,322851,322851,323451,52
53,test,1,inc,1,m,Wed Apr 08 2026 15:00:05 GMT-0400 (Eastern Daylight Time),342554.30000000075,orange,1000,I,m,m,None,636,437.0,199.0,79,1,2175.0,340379.30000000075,9062,copper,NF,C,325185,325185,323459,324468,323460,325634,324985,324985,325634,53
54,test,1,inc,1,m,Wed Apr 08 2026 15:00:05 GMT-0400 (Eastern Daylight Time),344554.4000000004,pear,900,I,m,m,None,562,362.0,200.0,126,1,1991.4000000003725,342563.0,9062,lead,NF,C,327268,327268,325643,326551,325643,327635,327068,327068,327634,54
55,test,1,con,1,m,Wed Apr 08 2026 15:00:05 GMT-0400 (Eastern Daylight Time),346937.5,iron,1100,I,m,m,None,737,537.0,200.0,108,1,2372.4000000003725,344565.0999999996,9062,iron,NF,C,329469,329469,327645,328751,327645,330018,329268,329268,330018,55
56,test,1,inc,1,m,Wed Apr 08 2026 15:00:05 GMT-0400 (Eastern Daylight Time),348887.80000000075,pear,900,I,m,m,None,505,306.0,199.0,110,1,1943.7000000011176,346944.0999999996,9062,iron,NF,C,331652,331652,330024,330935,330024,331968,331452,331452,331968,56
57,test,1,inc,1,z,Wed Apr 08 2026 15:00:05 GMT-0400 (Eastern Daylight Time),350870.9000000004,copper,900,I,z,z,None,540,340.0,200.0,30,1,1972.0,348898.9000000004,9062,raisin,NF,C,333601,333602,331979,332885,331979,333951,333401,333401,333951,57
58,test,1,inc,1,m,Wed Apr 08 2026 15:00:05 GMT-0400 (Eastern Daylight Time),352871.30000000075,lime,800,I,m,m,None,666,467.0,199.0,125,1,1989.4000000003725,350881.9000000004,9062,lead,NF,C,335484,335484,333962,334768,333962,335951,335285,335285,335951,58
59,test,1,inc,1,z,Wed Apr 08 2026 15:00:05 GMT-0400 (Eastern Daylight Time),354904.19999999925,iron,900,I,z,z,None,596,397.0,199.0,46,1,2024.0999999996275,352880.0999999996,9062,pear,NF,C,337585,337585,335960,336868,335960,337984,337385,337385,337984,59
60,test,1,con,1,m,Wed Apr 08 2026 15:00:05 GMT-0400 (Eastern Daylight Time),357037.80000000075,cobalt,1000,I,m,m,None,593,393.0,200.0,91,1,2125.10000000149,354912.69999999925,9062,cobalt,NF,C,339718,339718,337993,339002,337993,340118,339518,339518,340118,60
61,test,1,inc,1,z,Wed Apr 08 2026 15:00:05 GMT-0400 (Eastern Daylight Time),359137.69999999925,silver,1000,I,z,z,None,555,355.0,200.0,15,1,2091.0999999996275,357046.5999999996,9062,cherry,NF,C,341851,341851,340127,341135,340127,342218,341651,341651,342218,61
62,test,1,con,1,m,Wed Apr 08 2026 15:00:05 GMT-0400 (Eastern Daylight Time),361187.5999999996,bronze,900,I,m,m,None,610,410.0,200.0,66,1,2042.0999999996275,359145.5,9062,bronze,NF,C,343851,343852,342226,343135,342226,344268,343651,343651,344268,62
63,test,1,con,1,z,Wed Apr 08 2026 15:00:05 GMT-0400 (Eastern Daylight Time),363420.9000000004,orange,1000,I,z,z,None,693,493.0,200.0,19,1,2224.2000000011176,361196.69999999925,9062,orange,NF,C,346001,346001,344277,345285,344277,346501,345801,345801,346501,63
64,test,1,con,1,z,Wed Apr 08 2026 15:00:05 GMT-0400 (Eastern Daylight Time),365237.80000000075,kiwi,800,I,z,z,None,466,267.0,199.0,49,1,1807.5,363430.30000000075,9062,kiwi,NF,C,348035,348035,346510,347318,346511,348318,347835,347835,348318,64
65,test,1,inc,1,m,Wed Apr 08 2026 15:00:05 GMT-0400 (Eastern Daylight Time),367404.4000000004,raisin,1100,I,m,m,None,527,328.0,199.0,88,1,2158.0999999996275,365246.30000000075,9062,silver,NF,C,350151,350151,348326,349435,348327,350484,349951,349952,350484,65
66,test,1,con,1,z,Wed Apr 08 2026 15:00:05 GMT-0400 (Eastern Daylight Time),369704.0999999996,banana,1100,I,z,z,None,664,464.0,200.0,4,1,2292.2999999988824,367411.80000000075,9062,banana,NF,C,352318,352318,350492,351602,350492,352784,352118,352118,352784,66
67,test,1,con,1,z,Wed Apr 08 2026 15:00:05 GMT-0400 (Eastern Daylight Time),371670.5999999996,cherry,1000,I,z,z,None,432,232.0,200.0,11,1,1960.199999999255,369710.4000000004,9062,cherry,NF,C,354518,354518,352790,353801,352791,354751,354318,354318,354751,67
68,test,1,inc,1,m,Wed Apr 08 2026 15:00:05 GMT-0400 (Eastern Daylight Time),373621.0,cherry,900,I,m,m,None,501,302.0,199.0,86,1,1945.5999999996275,371675.4000000004,9062,silver,NF,C,356384,356384,354755,355668,354756,356701,356185,356185,356701,68
69,test,1,inc,1,m,Wed Apr 08 2026 15:00:05 GMT-0400 (Eastern Daylight Time),375454.30000000075,lime,800,I,m,m,None,482,283.0,199.0,109,1,1822.5,373631.80000000075,9062,iron,NF,C,358235,358235,356712,357518,356712,358534,358035,358035,358534,69
69,test,1,con,0,z,Wed Apr 08 2026 15:00:05 GMT-0400 (Eastern Daylight Time),377671.0999999996,raisin,1100,I,m,m,None,567,367.0,200.0,28,1,2203.5999999996275,375467.5,9062,raisin,NF,C,360368,360368,358548,359651,358548,360751,360168,360168,360751,70
70,test,1,con,1,m,Wed Apr 08 2026 15:00:05 GMT-0400 (Eastern Daylight Time),379787.5999999996,silver,900,I,m,m,None,668,469.0,199.0,82,1,2107.7999999988824,377679.80000000075,9062,silver,NF,C,362385,362385,360760,361668,360760,362868,362185,362185,362868,71
71,test,1,inc,1,z,Wed Apr 08 2026 15:00:05 GMT-0400 (Eastern Daylight Time),382154.0999999996,silver,1000,I,z,z,None,820,620.0,200.0,23,1,2357.5999999996275,379796.5,9062,orange,NF,C,364602,364602,362877,363885,362877,365234,364401,364401,365234,72
72,test,1,inc,1,m,Wed Apr 08 2026 15:00:05 GMT-0400 (Eastern Daylight Time),384354.4000000004,raisin,1100,I,m,m,None,554,354.0,200.0,80,1,2192.300000000745,382162.0999999996,9062,copper,NF,C,367068,367068,365242,366352,365242,367434,366868,366868,367434,73
73,test,1,inc,1,m,Wed Apr 08 2026 15:00:05 GMT-0400 (Eastern Daylight Time),386521.0,kiwi,1000,I,m,m,None,630,430.0,200.0,119,1,2155.5,384365.5,9062,zinc,NF,C,369168,369168,367446,368452,367446,369601,368968,368968,369601,74
73,test,1,con,0,z,Wed Apr 08 2026 15:00:05 GMT-0400 (Eastern Daylight Time),388421.19999999925,pear,800,I,m,m,None,559,360.0,199.0,41,1,1892.0999999996275,386529.0999999996,9062,pear,NF,C,371135,371135,369609,370418,369609,371501,370935,370935,371501,75
74,test,1,con,1,z,Wed Apr 08 2026 15:00:05 GMT-0400 (Eastern Daylight Time),390687.5999999996,orange,900,I,z,z,None,831,631.0,200.0,18,1,2257.7999999988824,388429.80000000075,9062,orange,NF,C,373135,373135,371510,372418,371510,373768,372934,372934,373768,76
75,test,1,con,1,m,Wed Apr 08 2026 15:00:05 GMT-0400 (Eastern Daylight Time),392787.80000000075,bronze,1000,I,m,m,None,552,353.0,199.0,67,1,2091.800000000745,390696.0,9062,bronze,NF,C,375501,375501,373776,374785,373776,375868,375302,375302,375868,77
76,test,1,con,1,z,Wed Apr 08 2026 15:00:05 GMT-0400 (Eastern Daylight Time),395087.69999999925,kiwi,1100,I,z,z,None,655,456.0,199.0,52,1,2292.0999999996275,392795.5999999996,9062,kiwi,NF,C,377702,377702,375876,376985,375876,378168,377502,377502,378168,78
77,test,1,inc,1,z,Wed Apr 08 2026 15:00:05 GMT-0400 (Eastern Daylight Time),397054.0999999996,bronze,800,I,z,z,None,623,423.0,200.0,29,1,1958.199999999255,395095.9000000004,9062,raisin,NF,C,379702,379702,378176,378985,378176,380134,379501,379501,380134,79
78,test,1,inc,1,z,Wed Apr 08 2026 15:00:05 GMT-0400 (Eastern Daylight Time),399387.9000000004,lead,1100,I,z,z,None,695,495.0,200.0,64,1,2329.0,397058.9000000004,9062,plum,NF,C,381968,381968,380139,381251,380139,382468,381768,381768,382468,80
79,test,1,inc,1,m,Wed Apr 08 2026 15:00:05 GMT-0400 (Eastern Daylight Time),401454.30000000075,banana,800,I,m,m,None,724,524.0,200.0,93,1,2057.60000000149,399396.69999999925,9062,cobalt,NF,C,384001,384002,382477,383285,382477,384534,383801,383801,384534,81
80,test,1,inc,1,z,Wed Apr 08 2026 15:00:05 GMT-0400 (Eastern Daylight Time),403687.5,lead,1100,I,z,z,None,597,398.0,199.0,56,1,2223.699999999255,401463.80000000075,9062,kiwi,NF,C,386368,386368,384544,385651,384544,386768,386168,386168,386768,82
81,test,1,inc,1,m,Wed Apr 08 2026 15:00:05 GMT-0400 (Eastern Daylight Time),406004.4000000004,raisin,1100,I,m,m,None,668,468.0,200.0,96,1,2305.5,403698.9000000004,9062,cobalt,NF,C,388602,388602,386779,387884,386779,389085,388401,388401,389084,83
82,test,1,con,1,z,Wed Apr 08 2026 15:00:05 GMT-0400 (Eastern Daylight Time),407904.19999999925,orange,800,I,z,z,None,555,355.0,200.0,17,1,1885.5999999996275,406018.5999999996,9062,orange,NF,C,390618,390618,389099,389901,389099,390984,390418,390418,390984,84
83,test,1,con,1,z,Wed Apr 08 2026 15:00:05 GMT-0400 (Eastern Daylight Time),409871.0999999996,lime,900,I,z,z,None,525,325.0,200.0,34,1,1961.2999999988824,407909.80000000075,9062,lime,NF,C,392618,392618,390990,391901,390990,392951,392418,392418,392951,85
84,test,1,con,1,m,Wed Apr 08 2026 15:00:05 GMT-0400 (Eastern Daylight Time),412137.5999999996,copper,1100,I,m,m,None,628,429.0,199.0,76,1,2258.4000000003725,409879.19999999925,9062,copper,NF,C,394785,394785,392959,394068,392960,395218,394585,394585,395218,86
85,test,1,con,1,m,Wed Apr 08 2026 15:00:05 GMT-0400 (Eastern Daylight Time),414089.4000000004,zinc,800,I,m,m,None,614,415.0,199.0,113,1,1941.0999999996275,412148.30000000075,9062,zinc,NF,C,396751,396751,395228,396035,395229,397169,396551,396552,397169,87
85,test,1,con,0,z,Wed Apr 08 2026 15:00:05 GMT-0400 (Eastern Daylight Time),415971.0,lime,800,I,m,m,None,543,344.0,199.0,33,1,1871.4000000003725,414099.5999999996,9062,lime,NF,C,398702,398702,397180,397985,397180,399051,398502,398502,399051,88
86,test,1,inc,1,m,Wed Apr 08 2026 15:00:05 GMT-0400 (Eastern Daylight Time),418304.0999999996,pear,900,I,m,m,None,889,689.0,200.0,118,1,2324.5,415979.5999999996,9062,zinc,NF,C,400685,400685,399060,399968,399060,401384,400485,400485,401384,89
87,test,1,inc,1,m,Wed Apr 08 2026 15:00:05 GMT-0400 (Eastern Daylight Time),420421.0,cherry,900,I,m,m,None,668,468.0,200.0,94,1,2109.699999999255,418311.30000000075,9062,cobalt,NF,C,403018,403018,401391,402301,401392,403501,402818,402818,403501,90
88,test,1,con,1,z,Wed Apr 08 2026 15:00:05 GMT-0400 (Eastern Daylight Time),422454.9000000004,raisin,1000,I,z,z,None,498,299.0,199.0,27,1,2023.0999999996275,420431.80000000075,9062,raisin,NF,C,405235,405235,403512,404518,403512,405535,405035,405035,405535,91
89,test,1,con,1,m,Wed Apr 08 2026 15:00:05 GMT-0400 (Eastern Daylight Time),424337.69999999925,iron,800,I,m,m,None,545,346.0,199.0,105,1,1873.5,422464.19999999925,9062,iron,NF,C,407068,407068,405544,406351,405544,407418,406868,406868,407418,92
90,test,1,con,1,z,Wed Apr 08 2026 15:00:05 GMT-0400 (Eastern Daylight Time),426187.80000000075,raisin,900,I,z,z,None,401,202.0,199.0,26,1,1841.7000000011176,424346.0999999996,9062,raisin,NF,C,409051,409052,407426,408335,407427,409268,408852,408852,409268,93
91,test,1,con,1,z,Wed Apr 08 2026 15:00:05 GMT-0400 (Eastern Daylight Time),428671.0,lime,1100,I,z,z,None,840,640.0,200.0,36,1,2474.5,426196.5,9062,lime,NF,C,411101,411102,409276,410385,409277,411751,410901,410901,411751,94
92,test,1,inc,1,m,Wed Apr 08 2026 15:00:05 GMT-0400 (Eastern Daylight Time),430688.4000000004,cherry,900,I,m,m,None,580,381.0,199.0,70,1,2007.0,428681.4000000004,9062,bronze,NF,C,413385,413385,411761,412668,411762,413768,413185,413185,413768,95
93,test,1,inc,1,z,Wed Apr 08 2026 15:00:05 GMT-0400 (Eastern Daylight Time),432654.80000000075,bronze,800,I,z,z,None,632,432.0,200.0,13,1,1957.6000000014901,430697.19999999925,9062,cherry,NF,C,415301,415302,413777,414585,413778,415735,415101,415101,415735,96
94,test,1,inc,1,z,Wed Apr 08 2026 15:00:05 GMT-0400 (Eastern Daylight Time),434554.5,bronze,800,I,z,z,None,554,354.0,200.0,5,1,1892.300000000745,432662.19999999925,9062,banana,NF,C,417268,417268,415742,416551,415743,417635,417068,417068,417634,97
95,test,1,con,1,z,Wed Apr 08 2026 15:00:05 GMT-0400 (Eastern Daylight Time),436404.30000000075,kiwi,900,I,z,z,None,402,202.0,200.0,50,1,1836.1000000014901,434568.19999999925,9062,kiwi,NF,C,419268,419268,417648,418551,417648,419484,419068,419068,419484,98
96,test,1,con,1,m,Wed Apr 08 2026 15:00:05 GMT-0400 (Eastern Daylight Time),438321.0,copper,1000,I,m,m,None,372,172.0,200.0,75,1,1911.5,436409.5,9062,copper,NF,C,421218,421218,419490,420501,419490,421401,421018,421018,421401,99
97,test,1,inc,1,z,Wed Apr 08 2026 15:00:05 GMT-0400 (Eastern Daylight Time),440254.4000000004,gold,800,I,z,z,None,582,383.0,199.0,45,1,1925.800000000745,438328.5999999996,9062,pear,NF,C,422935,422935,421409,422218,421409,423335,422735,422735,423334,100
98,test,1,inc,1,m,Wed Apr 08 2026 15:00:05 GMT-0400 (Eastern Daylight Time),442487.9000000004,banana,800,I,m,m,None,891,691.0,200.0,85,1,2225.0,440262.9000000004,9062,silver,NF,C,424868,424868,423343,424151,423343,425568,424668,424668,425568,101
99,test,1,inc,1,z,Wed Apr 08 2026 15:00:05 GMT-0400 (Eastern Daylight Time),444721.0999999996,zinc,1000,I,z,z,None,695,496.0,199.0,47,1,2225.0,442496.0999999996,9062,pear,NF,C,427301,427302,425576,426585,425576,427801,427102,427102,427801,102
100,test,1,inc,1,z,Wed Apr 08 2026 15:00:05 GMT-0400 (Eastern Daylight Time),447121.0,lead,1100,I,z,z,None,762,563.0,199.0,40,1,2390.0,444731.0,9062,lime,NF,C,429635,429635,427811,428918,427811,430201,429435,429435,430201,103
101,test,1,inc,1,m,Wed Apr 08 2026 15:00:05 GMT-0400 (Eastern Daylight Time),449371.19999999925,kiwi,1000,I,m,m,None,702,503.0,199.0,127,1,2240.0,447131.19999999925,9062,lead,NF,C,431935,431935,430211,431218,430212,432451,431735,431735,432451,104
102,test,1,con,1,z,Wed Apr 08 2026 15:00:05 GMT-0400 (Eastern Daylight Time),451571.0,banana,1000,I,z,z,None,653,453.0,200.0,3,1,2191.199999999255,449379.80000000075,9062,banana,NF,C,434185,434185,432460,433468,432460,434651,433984,433984,434651,105
103,test,1,con,1,z,Wed Apr 08 2026 15:00:05 GMT-0400 (Eastern Daylight Time),453554.5,kiwi,1000,I,z,z,None,445,246.0,199.0,51,1,1975.300000000745,451579.19999999925,9062,kiwi,NF,C,436385,436385,434659,435668,434659,436635,436185,436185,436635,106
104,test,1,con,1,m,Wed Apr 08 2026 15:00:05 GMT-0400 (Eastern Daylight Time),455571.0999999996,lead,1000,I,m,m,None,470,270.0,200.0,123,1,2007.9000000003725,453563.19999999925,9062,lead,NF,C,438368,438368,436643,437651,436644,438651,438168,438168,438651,107
105,test,1,con,1,m,Wed Apr 08 2026 15:00:05 GMT-0400 (Eastern Daylight Time),457487.5,silver,800,I,m,m,None,580,381.0,199.0,81,1,1907.5999999996275,455579.9000000004,9062,silver,NF,C,440185,440185,438660,439468,438660,440568,439985,439985,440568,108
106,test,1,inc,1,z,Wed Apr 08 2026 15:00:05 GMT-0400 (Eastern Daylight Time),459604.4000000004,zinc,1000,I,z,z,None,576,376.0,200.0,39,1,2105.800000000745,457498.5999999996,9062,lime,NF,C,442302,442302,440579,441585,440579,442684,442101,442101,442684,109
107,test,1,con,1,m,Wed Apr 08 2026 15:00:05 GMT-0400 (Eastern Daylight Time),461571.0,copper,800,I,m,m,None,620,420.0,200.0,73,1,1957.0,459614.0,9062,copper,NF,C,444218,444218,442694,443501,442694,444651,444018,444018,444651,110
108,test,1,inc,1,m,Wed Apr 08 2026 15:00:05 GMT-0400 (Eastern Daylight Time),463737.69999999925,cherry,900,I,m,m,None,723,523.0,200.0,78,1,2158.5999999996275,461579.0999999996,9062,copper,NF,C,446284,446284,444659,445568,444660,446818,446084,446084,446818,111
109,test,1,con,1,m,Wed Apr 08 2026 15:00:05 GMT-0400 (Eastern Daylight Time),466021.0999999996,gold,1100,I,m,m,None,634,434.0,200.0,100,1,2272.7999999988824,463748.30000000075,9062,gold,NF,C,448652,448652,446828,447935,446829,449101,448451,448451,449101,112
110,test,1,con,1,m,Wed Apr 08 2026 15:00:05 GMT-0400 (Eastern Daylight Time),468054.4000000004,lead,800,I,m,m,None,682,483.0,199.0,121,1,2023.0,466031.4000000004,9062,lead,NF,C,450635,450635,449111,449918,449112,451134,450435,450435,451134,113
111,test,1,con,1,m,Wed Apr 08 2026 15:00:05 GMT-0400 (Eastern Daylight Time),470020.80000000075,copper,900,I,m,m,None,541,326.0,215.0,74,1,1957.800000000745,468063.0,9062,copper,NF,C,452768,452768,451143,452051,451143,453101,452553,452553,453101,114
112,test,1,inc,1,m,Wed Apr 08 2026 15:00:05 GMT-0400 (Eastern Daylight Time),472221.0999999996,banana,800,I,m,m,None,851,652.0,199.0,77,1,2192.5999999996275,470028.5,9062,copper,NF,C,454634,454634,453109,453918,453109,455301,454435,454435,455301,115
113,test,1,inc,1,m,Wed Apr 08 2026 15:00:05 GMT-0400 (Eastern Daylight Time),474387.9000000004,orange,1000,I,m,m,None,627,428.0,199.0,71,1,2158.9000000003725,472229.0,9062,bronze,NF,C,457035,457035,455309,456318,455309,457468,456835,456835,457468,116
114,test,1,inc,1,z,Wed Apr 08 2026 15:00:05 GMT-0400 (Eastern Daylight Time),476537.5999999996,cobalt,1100,I,z,z,None,512,313.0,199.0,24,1,2142.2999999988824,474395.30000000075,9062,orange,NF,C,459301,459301,457475,458585,457476,459618,459101,459102,459618,117
115,test,1,inc,1,z,Wed Apr 08 2026 15:00:05 GMT-0400 (Eastern Daylight Time),478670.9000000004,cobalt,1100,I,z,z,None,498,298.0,200.0,8,1,2124.9000000003725,476546.0,9062,banana,NF,C,461452,461452,459626,460735,459626,461751,461251,461251,461751,118
116,test,1,con,1,m,Wed Apr 08 2026 15:00:05 GMT-0400 (Eastern Daylight Time),480754.5,zinc,1000,I,m,m,None,544,345.0,199.0,115,1,2072.5999999996275,478681.9000000004,9062,zinc,NF,C,463485,463485,461762,462768,461762,463835,463285,463285,463835,119
117,test,1,con,1,z,Wed Apr 08 2026 15:00:05 GMT-0400 (Eastern Daylight Time),482804.4000000004,orange,1100,I,z,z,None,410,210.0,200.0,20,1,2041.300000000745,480763.0999999996,9062,orange,NF,C,465668,465668,463843,464951,463843,465885,465468,465468,465884,120
118,test,1,inc,1,m,Wed Apr 08 2026 15:00:05 GMT-0400 (Eastern Daylight Time),484637.80000000075,lime,800,I,m,m,None,493,293.0,200.0,117,1,1824.1000000014901,482813.69999999925,9062,zinc,NF,C,467418,467418,465894,466701,465894,467718,467218,467218,467718,121
119,test,1,con,1,z,Wed Apr 08 2026 15:00:05 GMT-0400 (Eastern Daylight Time),486771.0,plum,900,I,z,z,None,686,487.0,199.0,58,1,2124.5,484646.5,9062,plum,NF,C,469351,469351,467727,468634,467727,469851,469152,469152,469851,122
119,test,1,inc,0,z,Wed Apr 08 2026 15:00:05 GMT-0400 (Eastern Daylight Time),488721.0,copper,900,I,m,m,None,512,313.0,199.0,22,1,1941.0,486780.0,9062,orange,NF,C,471485,471485,469860,470768,469860,471801,471285,471285,471801,123
120,test,1,con,1,m,Wed Apr 08 2026 15:00:05 GMT-0400 (Eastern Daylight Time),490771.19999999925,cobalt,800,I,m,m,None,702,503.0,199.0,89,1,2036.5,488734.69999999925,9062,cobalt,NF,C,473335,473335,471815,472618,471815,473851,473135,473135,473851,124
121,test,1,con,1,z,Wed Apr 08 2026 15:00:05 GMT-0400 (Eastern Daylight Time),493004.4000000004,plum,1000,I,z,z,None,692,493.0,199.0,59,1,2219.800000000745,490784.5999999996,9062,plum,NF,C,475585,475585,473865,474868,473865,476085,475385,475385,476084,125
122,test,1,con,1,m,Wed Apr 08 2026 15:00:05 GMT-0400 (Eastern Daylight Time),495137.9000000004,zinc,900,I,m,m,None,689,489.0,200.0,114,1,2122.800000000745,493015.0999999996,9062,zinc,NF,C,477718,477718,476095,477001,476095,478218,477518,477518,478218,126
123,test,1,inc,1,z,Wed Apr 08 2026 15:00:05 GMT-0400 (Eastern Daylight Time),497071.19999999925,bronze,800,I,z,z,None,591,391.0,200.0,21,1,1922.699999999255,495148.5,9062,orange,NF,C,479751,479751,478229,479035,478229,480151,479551,479551,480151,127
124,test,1,con,1,m,Wed Apr 08 2026 15:00:05 GMT-0400 (Eastern Daylight Time),499371.0,zinc,1100,I,m,m,None,660,461.0,199.0,116,1,2286.199999999255,497084.80000000075,9062,zinc,NF,C,481985,481985,480165,481268,480166,482451,481785,481785,482451,128
