acc_sum,block_c,block_dur,condition,correct,correct_response,countdown,datetime,endtime,project,response,response_time,response_time_test1_response,response_time_test2_response,row_sel,same,session_number,start_end,starttime,stim1,stim2,subject_id,task,task_vers,time_test1,time_test2,trial
1,1,0.0,prac,1,z,30000.0,Tue Aug 06 2024 10:58:03 GMT-0500 (Central Daylight Time),46480.40000000596,O,z,3227,,,5,yes,1,4746.0,41734.40000000596,practrial5.png,practrial5.png,7014,PC,C,,,1
2,1,0.0,prac,1,z,30000.0,Tue Aug 06 2024 10:58:03 GMT-0500 (Central Daylight Time),49262.40000000596,O,z,1259,,,3,yes,1,2777.0,46485.40000000596,practrial3.png,practrial3.png,7014,PC,C,,,2
3,1,0.0,prac,1,z,30000.0,Tue Aug 06 2024 10:58:03 GMT-0500 (Central Daylight Time),51811.60000000149,O,z,1015,,,1,yes,1,2545.6999999955297,49265.90000000596,practrial1.png,practrial1.png,7014,PC,C,,,3
4,1,0.0,prac,1,m,30000.0,Tue Aug 06 2024 10:58:03 GMT-0500 (Central Daylight Time),54327.70000000298,O,m,986,,,2,no,1,2512.39999999851,51815.30000000447,practrial2.png,practrial2b.png,7014,PC,C,,,4
5,1,0.0,prac,1,m,30000.0,Tue Aug 06 2024 10:58:03 GMT-0500 (Central Daylight Time),58576.20000000298,O,m,2726,,,6,no,1,4244.70000000298,54331.5,practrial6.png,practrial6b.png,7014,PC,C,,,5
6,1,0.0,prac,1,m,30000.0,Tue Aug 06 2024 10:58:03 GMT-0500 (Central Daylight Time),62558.40000000596,O,m,2462,,,4,no,1,3978.5,58579.90000000596,practrial4.png,practrial4b.png,7014,PC,C,,,6
1,1,1.6480000019073486,test,1,z,28351.99999809265,Tue Aug 06 2024 10:58:03 GMT-0500 (Central Daylight Time),75654.30000000447,O,z,1631,1631,,1,yes,1,1644.3999999985099,74009.90000000596,test1trial1.png,test1trial1.png,7014,PC,C,71742,,1
2,1,2.6649999618530273,test,1,m,27335.000038146973,Tue Aug 06 2024 10:58:03 GMT-0500 (Central Daylight Time),76670.70000000298,O,m,999,999,,2,no,1,1013.1000000014901,75657.60000000149,test1trial2.png,test1trial2b.png,7014,PC,C,73390,,2
3,1,4.914000034332275,test,1,z,25085.999965667725,Tue Aug 06 2024 10:58:03 GMT-0500 (Central Daylight Time),78919.80000000447,O,z,2240,2240,,3,yes,1,2246.39999999851,76673.40000000596,test1trial3.png,test1trial3.png,7014,PC,C,74406,,3
4,1,6.230000019073486,test,1,m,23769.999980926514,Tue Aug 06 2024 10:58:03 GMT-0500 (Central Daylight Time),80236.0,O,m,1303,1303,,4,no,1,1313.5999999940395,78922.40000000596,test1trial4.png,test1trial4b.png,7014,PC,C,76655,,4
5,1,8.213000059127808,test,1,z,21786.999940872192,Tue Aug 06 2024 10:58:03 GMT-0500 (Central Daylight Time),82218.80000000447,O,z,1979,1979,,5,yes,1,1980.0,80238.80000000447,test1trial5.png,test1trial5.png,7014,PC,C,77971,,5
6,1,9.479000091552734,test,1,m,20520.999908447266,Tue Aug 06 2024 10:58:03 GMT-0500 (Central Daylight Time),83485.0,O,m,1260,1260,,6,no,1,1263.6999999955297,82221.30000000447,test1trial6.png,test1trial6b.png,7014,PC,C,79954,,6
7,1,10.694999933242798,test,1,z,19305.000066757202,Tue Aug 06 2024 10:58:03 GMT-0500 (Central Daylight Time),84701.30000000447,O,z,1210,1210,,7,yes,1,1213.3999999985099,83487.90000000596,test1trial7.png,test1trial7.png,7014,PC,C,81220,,7
8,1,12.34500002861023,test,1,m,17654.99997138977,Tue Aug 06 2024 10:58:03 GMT-0500 (Central Daylight Time),86350.80000000447,O,m,1633,1633,,8,no,1,1646.7000000029802,84704.10000000149,test1trial8.png,test1trial8b.png,7014,PC,C,82437,,8
9,1,13.661999940872192,test,1,z,16338.000059127808,Tue Aug 06 2024 10:58:03 GMT-0500 (Central Daylight Time),87668.10000000149,O,z,1313,1313,,9,yes,1,1314.5,86353.60000000149,test1trial9.png,test1trial9.png,7014,PC,C,84086,,9
10,1,14.811000108718872,test,1,m,15188.999891281128,Tue Aug 06 2024 10:58:03 GMT-0500 (Central Daylight Time),88816.80000000447,O,m,1138,1138,,10,no,1,1145.6000000014901,87671.20000000298,test1trial10.png,test1trial10b.png,7014,PC,C,85404,,10
11,1,16.3270001411438,test,1,z,13672.999858856201,Tue Aug 06 2024 10:58:03 GMT-0500 (Central Daylight Time),90333.10000000149,O,z,1502,1502,,11,yes,1,1513.5,88819.60000000149,test1trial11.png,test1trial11.png,7014,PC,C,86552,,11
12,1,18.292999982833862,test,1,m,11707.000017166138,Tue Aug 06 2024 10:58:03 GMT-0500 (Central Daylight Time),92299.0,O,m,1946,1946,,12,no,1,1963.0999999940395,90335.90000000596,test1trial12.png,test1trial12b.png,7014,PC,C,88068,,12
13,1,19.342999935150146,test,1,m,10657.000064849854,Tue Aug 06 2024 10:58:03 GMT-0500 (Central Daylight Time),93348.70000000298,O,m,1044,1044,,13,no,1,1047.0,92301.70000000298,test1trial13.png,test1trial13b.png,7014,PC,C,90034,,13
14,1,20.54200005531311,test,1,m,9457.99994468689,Tue Aug 06 2024 10:58:03 GMT-0500 (Central Daylight Time),94548.40000000596,O,m,1186,1186,,14,no,1,1196.9000000059605,93351.5,test1trial14.png,test1trial14b.png,7014,PC,C,91084,,14
15,1,21.64199995994568,test,1,z,8358.000040054321,Tue Aug 06 2024 10:58:03 GMT-0500 (Central Daylight Time),95647.80000000447,O,z,1090,1090,,15,yes,1,1096.5,94551.30000000447,test1trial15.png,test1trial15.png,7014,PC,C,92284,,15
16,1,22.924000024795532,test,1,m,7075.999975204468,Tue Aug 06 2024 10:58:03 GMT-0500 (Central Daylight Time),96930.40000000596,O,m,1279,1279,,16,no,1,1280.1000000014901,95650.30000000447,test1trial16.png,test1trial16b.png,7014,PC,C,93383,,16
17,1,24.058000087738037,test,1,z,5941.999912261963,Tue Aug 06 2024 10:58:03 GMT-0500 (Central Daylight Time),98063.80000000447,O,z,1116,1116,,17,yes,1,1130.8000000044703,96933.0,test1trial17.png,test1trial17.png,7014,PC,C,94666,,17
18,1,26.074000120162964,test,1,m,3925.999879837036,Tue Aug 06 2024 10:58:03 GMT-0500 (Central Daylight Time),100079.90000000596,O,m,1999,1999,,18,no,1,2013.6000000014901,98066.30000000447,test1trial18.png,test1trial18b.png,7014,PC,C,95799,,18
19,1,27.756999969482422,test,1,m,2243.000030517578,Tue Aug 06 2024 10:58:03 GMT-0500 (Central Daylight Time),101762.60000000149,O,m,1671,1671,,19,no,1,1680.1999999955297,100082.40000000596,test1trial19.png,test1trial19b.png,7014,PC,C,97815,,19
20,1,29.52300000190735,test,1,z,476.99999809265137,Tue Aug 06 2024 10:58:03 GMT-0500 (Central Daylight Time),103528.60000000149,O,z,1748,1748,,20,yes,1,1763.1000000014901,101765.5,test1trial20.png,test1trial20.png,7014,PC,C,99498,,20
20,1,30.00600004196167,test,0,z,-6.000041961669922,Tue Aug 06 2024 10:58:03 GMT-0500 (Central Daylight Time),104012.30000000447,O,None,479,479,,21,yes,1,480.30000000447035,103532.0,test1trial21.png,test1trial21.png,7014,PC,C,101265,,21
1,2,2.382000207901001,test,1,m,27617.999792099,Tue Aug 06 2024 10:58:03 GMT-0500 (Central Daylight Time),109560.40000000596,O,m,2366,,2366.0,1,no,1,6028.4000000059605,103532.0,test2trial1.png,test2trial1b.png,7014,PC,C,,104912.0,1
2,2,3.565000057220459,test,1,m,26434.99994277954,Tue Aug 06 2024 10:58:03 GMT-0500 (Central Daylight Time),110743.40000000596,O,m,1174,,1174.0,2,no,1,7211.4000000059605,103532.0,test2trial2.png,test2trial2b.png,7014,PC,C,,107296.0,2
3,2,4.448000192642212,test,1,z,25551.999807357788,Tue Aug 06 2024 10:58:03 GMT-0500 (Central Daylight Time),111626.30000000447,O,z,871,,871.0,3,yes,1,8094.30000000447,103532.0,test2trial3.png,test2trial3.png,7014,PC,C,,108479.0,3
4,2,5.31600022315979,test,1,z,24683.99977684021,Tue Aug 06 2024 10:58:03 GMT-0500 (Central Daylight Time),112494.0,O,z,860,,860.0,4,yes,1,8962.0,103532.0,test2trial4.png,test2trial4.png,7014,PC,C,,109362.0,4
5,2,6.531000137329102,test,1,z,23468.9998626709,Tue Aug 06 2024 10:58:03 GMT-0500 (Central Daylight Time),113708.70000000298,O,z,1201,,1201.0,5,yes,1,10176.70000000298,103532.0,test2trial5.png,test2trial5.png,7014,PC,C,,110229.0,5
6,2,7.464000225067139,test,1,z,22535.99977493286,Tue Aug 06 2024 10:58:03 GMT-0500 (Central Daylight Time),114641.80000000447,O,z,922,,922.0,6,yes,1,11109.80000000447,103532.0,test2trial6.png,test2trial6.png,7014,PC,C,,111444.0,6
7,2,9.111999988555908,test,1,m,20888.00001144409,Tue Aug 06 2024 10:58:03 GMT-0500 (Central Daylight Time),116291.60000000149,O,m,1637,,1637.0,7,no,1,12759.60000000149,103532.0,test2trial7.png,test2trial7b.png,7014,PC,C,,112377.0,7
8,2,10.162000179290771,test,1,m,19837.99982070923,Tue Aug 06 2024 10:58:03 GMT-0500 (Central Daylight Time),117340.90000000596,O,m,1044,,1044.0,8,no,1,13808.90000000596,103532.0,test2trial8.png,test2trial8b.png,7014,PC,C,,114027.0,8
9,2,11.861000061035156,test,1,z,18138.999938964844,Tue Aug 06 2024 10:58:03 GMT-0500 (Central Daylight Time),119040.5,O,z,1690,,1690.0,9,yes,1,15508.5,103532.0,test2trial9.png,test2trial9.png,7014,PC,C,,115076.0,9
10,2,12.778000116348267,test,1,z,17221.999883651733,Tue Aug 06 2024 10:58:03 GMT-0500 (Central Daylight Time),119957.0,O,z,902,,902.0,10,yes,1,16425.0,103532.0,test2trial10.png,test2trial10.png,7014,PC,C,,116776.0,10
11,2,13.759999990463257,test,1,m,16240.000009536743,Tue Aug 06 2024 10:58:03 GMT-0500 (Central Daylight Time),120939.60000000149,O,m,970,,970.0,11,no,1,17407.60000000149,103532.0,test2trial11.png,test2trial11b.png,7014,PC,C,,117692.0,11
12,2,15.144000053405762,test,1,m,14855.999946594238,Tue Aug 06 2024 10:58:03 GMT-0500 (Central Daylight Time),122322.90000000596,O,m,1364,,1364.0,12,no,1,18790.90000000596,103532.0,test2trial12.png,test2trial12b.png,7014,PC,C,,118675.0,12
13,2,16.210000038146973,test,1,z,13789.999961853027,Tue Aug 06 2024 10:58:03 GMT-0500 (Central Daylight Time),123389.20000000298,O,z,1052,,1052.0,13,yes,1,19857.20000000298,103532.0,test2trial13.png,test2trial13.png,7014,PC,C,,120058.0,13
14,2,18.9760000705719,test,1,m,11023.9999294281,Tue Aug 06 2024 10:58:03 GMT-0500 (Central Daylight Time),126154.80000000447,O,m,2761,,2761.0,14,no,1,22622.80000000447,103532.0,test2trial14.png,test2trial14b.png,7014,PC,C,,121125.0,14
15,2,19.909000158309937,test,1,m,10090.999841690063,Tue Aug 06 2024 10:58:03 GMT-0500 (Central Daylight Time),127088.10000000149,O,m,916,,916.0,15,no,1,23556.10000000149,103532.0,test2trial15.png,test2trial15b.png,7014,PC,C,,123890.0,15
16,2,22.008000135421753,test,1,m,7991.999864578247,Tue Aug 06 2024 10:58:03 GMT-0500 (Central Daylight Time),129187.40000000596,O,m,2087,,2087.0,16,no,1,25655.40000000596,103532.0,test2trial16.png,test2trial16b.png,7014,PC,C,,124823.0,16
17,2,23.52400016784668,test,1,z,6475.99983215332,Tue Aug 06 2024 10:58:03 GMT-0500 (Central Daylight Time),130703.40000000596,O,z,1508,,1508.0,17,yes,1,27171.40000000596,103532.0,test2trial17.png,test2trial17.png,7014,PC,C,,126922.0,17
18,2,24.457000017166138,test,1,z,5542.999982833862,Tue Aug 06 2024 10:58:03 GMT-0500 (Central Daylight Time),131636.40000000596,O,z,919,,919.0,18,yes,1,28104.40000000596,103532.0,test2trial18.png,test2trial18.png,7014,PC,C,,128439.0,18
19,2,25.324000120162964,test,1,z,4675.999879837036,Tue Aug 06 2024 10:58:03 GMT-0500 (Central Daylight Time),132502.80000000447,O,z,859,,859.0,19,yes,1,28970.80000000447,103532.0,test2trial19.png,test2trial19.png,7014,PC,C,,129371.0,19
20,2,26.257000207901,test,1,z,3742.999792098999,Tue Aug 06 2024 10:58:03 GMT-0500 (Central Daylight Time),133436.0,O,z,928,,928.0,20,yes,1,29904.0,103532.0,test2trial20.png,test2trial20.png,7014,PC,C,,130238.0,20
21,2,27.856000185012817,test,1,z,2143.9998149871826,Tue Aug 06 2024 10:58:03 GMT-0500 (Central Daylight Time),135035.30000000447,O,z,1595,,1595.0,21,yes,1,31503.30000000447,103532.0,test2trial21.png,test2trial21.png,7014,PC,C,,131171.0,21
22,2,29.639000177383423,test,1,m,360.99982261657715,Tue Aug 06 2024 10:58:03 GMT-0500 (Central Daylight Time),136818.40000000596,O,m,1763,,1763.0,22,no,1,33286.40000000596,103532.0,test2trial22.png,test2trial22b.png,7014,PC,C,,132771.0,22
22,2,30.00600004196167,test,0,m,-6.000041961669922,Tue Aug 06 2024 10:58:03 GMT-0500 (Central Daylight Time),137184.90000000596,O,None,363,,363.0,23,no,1,33652.90000000596,103532.0,test2trial23.png,test2trial23b.png,7014,PC,C,,134554.0,23
