block_c,block_dur,condition,countdown,datetime,endtime,list,multichar_response,project,response,response_time,session_number,start_end,starttime,subject_id,task,task_vers,trial
,,,,Mon Aug 05 2024 15:13:57 GMT-0500 (Central Daylight Time),,,,O,space,2212,1,,,7006,WL,B,
prac,,0,,Mon Aug 05 2024 15:13:57 GMT-0500 (Central Daylight Time),,NA,b,O,b,7307,1,,,7006,WL,B,1.0
prac,,0,,Mon Aug 05 2024 15:13:57 GMT-0500 (Central Daylight Time),,NA,bo,O,o,772,1,,,7006,WL,B,1.0
prac,,0,,Mon Aug 05 2024 15:13:57 GMT-0500 (Central Daylight Time),,NA,boo,O,o,142,1,,,7006,WL,B,1.0
prac,,0,,Mon Aug 05 2024 15:13:57 GMT-0500 (Central Daylight Time),,NA,boos,O,s,152,1,,,7006,WL,B,1.0
prac,,0,,Mon Aug 05 2024 15:13:57 GMT-0500 (Central Daylight Time),,NA,boost,O,t,201,1,,,7006,WL,B,1.0
prac,,0,,Mon Aug 05 2024 15:13:57 GMT-0500 (Central Daylight Time),,NA,boostenter,O,enter,2256,1,,,7006,WL,B,1.0
1,0.38300013542175293,learn,59616.99986457825,Mon Aug 05 2024 15:13:57 GMT-0500 (Central Daylight Time),166351.80000001192,A,s,O,s,372,1,381.39999997615814,165970.40000003576,7006,WL,B,1.0
1,0.75,learn,59250.0,Mon Aug 05 2024 15:13:57 GMT-0500 (Central Daylight Time),166718.10000002384,A,st,O,t,357,1,747.6999999880791,165970.40000003576,7006,WL,B,1.0
1,1.0,learn,59000.0,Mon Aug 05 2024 15:13:57 GMT-0500 (Central Daylight Time),166968.30000001192,A,str,O,r,240,1,997.8999999761581,165970.40000003576,7006,WL,B,1.0
1,1.249000072479248,learn,58750.99992752075,Mon Aug 05 2024 15:13:57 GMT-0500 (Central Daylight Time),167217.90000003576,A,stre,O,e,237,1,1247.5,165970.40000003576,7006,WL,B,1.0
1,1.3989999294281006,learn,58601.0000705719,Mon Aug 05 2024 15:13:57 GMT-0500 (Central Daylight Time),167368.0,A,stree,O,e,139,1,1397.5999999642372,165970.40000003576,7006,WL,B,1.0
1,1.5989999771118164,learn,58401.00002288818,Mon Aug 05 2024 15:13:57 GMT-0500 (Central Daylight Time),167567.60000002384,A,street,O,t,181,1,1597.199999988079,165970.40000003576,7006,WL,B,1.0
1,2.315999984741211,learn,57684.00001525879,Mon Aug 05 2024 15:13:57 GMT-0500 (Central Daylight Time),168284.5,A,streetenter,O,enter,701,1,2314.099999964237,165970.40000003576,7006,WL,B,1.0
1,2.8989999294281006,learn,57101.0000705719,Mon Aug 05 2024 15:13:57 GMT-0500 (Central Daylight Time),168867.20000004768,A,d,O,d,577,1,582.0,168285.20000004768,7006,WL,B,2.0
1,3.199000120162964,learn,56800.999879837036,Mon Aug 05 2024 15:13:57 GMT-0500 (Central Daylight Time),169167.40000003576,A,do,O,o,283,1,882.1999999880791,168285.20000004768,7006,WL,B,2.0
1,3.3489999771118164,learn,56651.00002288818,Mon Aug 05 2024 15:13:57 GMT-0500 (Central Daylight Time),169317.30000001192,A,doo,O,o,143,1,1032.0999999642372,168285.20000004768,7006,WL,B,2.0
1,3.515000104904175,learn,56484.999895095825,Mon Aug 05 2024 15:13:57 GMT-0500 (Central Daylight Time),169483.60000002384,A,door,O,r,160,1,1198.3999999761581,168285.20000004768,7006,WL,B,2.0
1,3.7980000972747803,learn,56201.99990272522,Mon Aug 05 2024 15:13:57 GMT-0500 (Central Daylight Time),169767.0,A,doorenter,O,enter,274,1,1481.7999999523163,168285.20000004768,7006,WL,B,2.0
1,4.0320000648498535,learn,55967.99993515015,Mon Aug 05 2024 15:13:57 GMT-0500 (Central Daylight Time),170000.40000003576,A,a,O,a,215,1,232.9000000357628,169767.5,7006,WL,B,3.0
1,4.2820000648498535,learn,55717.99993515015,Mon Aug 05 2024 15:13:57 GMT-0500 (Central Daylight Time),170250.40000003576,A,ar,O,r,237,1,482.9000000357628,169767.5,7006,WL,B,3.0
1,4.498000144958496,learn,55501.999855041504,Mon Aug 05 2024 15:13:57 GMT-0500 (Central Daylight Time),170466.80000001192,A,arm,O,m,203,1,699.3000000119209,169767.5,7006,WL,B,3.0
1,4.914999961853027,learn,55085.00003814697,Mon Aug 05 2024 15:13:57 GMT-0500 (Central Daylight Time),170883.30000001192,A,armenter,O,enter,410,1,1115.800000011921,169767.5,7006,WL,B,3.0
1,5.115000009536743,learn,54884.99999046326,Mon Aug 05 2024 15:13:57 GMT-0500 (Central Daylight Time),171083.30000001192,A,g,O,g,187,1,199.69999998807907,170883.60000002384,7006,WL,B,4.0
1,5.430999994277954,learn,54569.000005722046,Mon Aug 05 2024 15:13:57 GMT-0500 (Central Daylight Time),171400.0,A,gr,O,r,298,1,516.3999999761581,170883.60000002384,7006,WL,B,4.0
1,5.716000080108643,learn,54283.99991989136,Mon Aug 05 2024 15:13:57 GMT-0500 (Central Daylight Time),171684.20000004768,A,gra,O,a,277,1,800.6000000238419,170883.60000002384,7006,WL,B,4.0
1,6.015000104904175,learn,53984.999895095825,Mon Aug 05 2024 15:13:57 GMT-0500 (Central Daylight Time),171983.20000004768,A,gras,O,s,289,1,1099.6000000238419,170883.60000002384,7006,WL,B,4.0
1,6.164000034332275,learn,53835.999965667725,Mon Aug 05 2024 15:13:57 GMT-0500 (Central Daylight Time),172132.90000003576,A,grass,O,s,143,1,1249.300000011921,170883.60000002384,7006,WL,B,4.0
1,6.364000082015991,learn,53635.99991798401,Mon Aug 05 2024 15:13:57 GMT-0500 (Central Daylight Time),172332.80000001192,A,grassenter,O,enter,192,1,1449.199999988079,170883.60000002384,7006,WL,B,4.0
1,6.864000082015991,learn,53135.99991798401,Mon Aug 05 2024 15:13:57 GMT-0500 (Central Daylight Time),172832.90000003576,A,p,O,p,481,1,499.5,172333.40000003576,7006,WL,B,5.0
1,7.148000001907349,learn,52851.99999809265,Mon Aug 05 2024 15:13:57 GMT-0500 (Central Daylight Time),173116.0,A,pu,O,u,268,1,782.5999999642372,172333.40000003576,7006,WL,B,5.0
1,7.398000001907349,learn,52601.99999809265,Mon Aug 05 2024 15:13:57 GMT-0500 (Central Daylight Time),173366.0,A,pup,O,p,242,1,1032.5999999642372,172333.40000003576,7006,WL,B,5.0
1,7.581000089645386,learn,52418.999910354614,Mon Aug 05 2024 15:13:57 GMT-0500 (Central Daylight Time),173549.30000001192,A,pupi,O,i,175,1,1215.8999999761581,172333.40000003576,7006,WL,B,5.0
1,7.796999931335449,learn,52203.00006866455,Mon Aug 05 2024 15:13:57 GMT-0500 (Central Daylight Time),173766.0,A,pupil,O,l,208,1,1432.5999999642372,172333.40000003576,7006,WL,B,5.0
1,8.081000089645386,learn,51918.999910354614,Mon Aug 05 2024 15:13:57 GMT-0500 (Central Daylight Time),174049.10000002384,A,pupilenter,O,enter,272,1,1715.699999988079,172333.40000003576,7006,WL,B,5.0
1,8.430000066757202,learn,51569.9999332428,Mon Aug 05 2024 15:13:57 GMT-0500 (Central Daylight Time),174398.90000003576,A,w,O,w,332,1,349.30000001192093,174049.60000002384,7006,WL,B,6.0
1,8.614000082015991,learn,51385.99991798401,Mon Aug 05 2024 15:13:57 GMT-0500 (Central Daylight Time),174582.20000004768,A,wi,O,i,167,1,532.6000000238419,174049.60000002384,7006,WL,B,6.0
1,8.763999938964844,learn,51236.000061035156,Mon Aug 05 2024 15:13:57 GMT-0500 (Central Daylight Time),174732.40000003576,A,wif,O,f,136,1,682.8000000119209,174049.60000002384,7006,WL,B,6.0
1,8.880000114440918,learn,51119.99988555908,Mon Aug 05 2024 15:13:57 GMT-0500 (Central Daylight Time),174848.80000001192,A,wife,O,e,105,1,799.1999999880791,174049.60000002384,7006,WL,B,6.0
1,9.130000114440918,learn,50869.99988555908,Mon Aug 05 2024 15:13:57 GMT-0500 (Central Daylight Time),175098.80000001192,A,wifeenter,O,enter,244,1,1049.199999988079,174049.60000002384,7006,WL,B,6.0
1,9.312999963760376,learn,50687.000036239624,Mon Aug 05 2024 15:13:57 GMT-0500 (Central Daylight Time),175281.90000003576,A,s,O,s,162,1,182.9000000357628,175099.0,7006,WL,B,7.0
1,9.579999923706055,learn,50420.000076293945,Mon Aug 05 2024 15:13:57 GMT-0500 (Central Daylight Time),175548.90000003576,A,st,O,t,250,1,449.9000000357628,175099.0,7006,WL,B,7.0
1,9.847000122070312,learn,50152.99987792969,Mon Aug 05 2024 15:13:57 GMT-0500 (Central Daylight Time),175815.10000002384,A,sta,O,a,257,1,716.1000000238419,175099.0,7006,WL,B,7.0
1,9.996999979019165,learn,50003.000020980835,Mon Aug 05 2024 15:13:57 GMT-0500 (Central Daylight Time),175965.20000004768,A,star,O,r,142,1,866.2000000476837,175099.0,7006,WL,B,7.0
1,10.397000074386597,learn,49602.9999256134,Mon Aug 05 2024 15:13:57 GMT-0500 (Central Daylight Time),176365.0,A,starenter,O,enter,392,1,1266.0,175099.0,7006,WL,B,7.0
1,10.812000036239624,learn,49187.999963760376,Mon Aug 05 2024 15:13:57 GMT-0500 (Central Daylight Time),176781.70000004768,A,w,O,w,409,1,416.30000001192093,176365.40000003576,7006,WL,B,8.0
1,10.962000131607056,learn,49037.999868392944,Mon Aug 05 2024 15:13:57 GMT-0500 (Central Daylight Time),176931.5,A,wi,O,i,137,1,566.0999999642372,176365.40000003576,7006,WL,B,8.0
1,11.128000020980835,learn,48871.999979019165,Mon Aug 05 2024 15:13:57 GMT-0500 (Central Daylight Time),177098.30000001192,A,win,O,n,155,1,732.8999999761581,176365.40000003576,7006,WL,B,8.0
1,11.312000036239624,learn,48687.999963760376,Mon Aug 05 2024 15:13:57 GMT-0500 (Central Daylight Time),177281.5,A,wind,O,d,172,1,916.0999999642372,176365.40000003576,7006,WL,B,8.0
1,11.51200008392334,learn,48487.99991607666,Mon Aug 05 2024 15:13:57 GMT-0500 (Central Daylight Time),177481.5,A,windo,O,o,189,1,1116.0999999642372,176365.40000003576,7006,WL,B,8.0
1,11.67799997329712,learn,48322.00002670288,Mon Aug 05 2024 15:13:57 GMT-0500 (Central Daylight Time),177647.90000003576,A,window,O,w,149,1,1282.5,176365.40000003576,7006,WL,B,8.0
1,11.995000123977661,learn,48004.99987602234,Mon Aug 05 2024 15:13:57 GMT-0500 (Central Daylight Time),177964.5,A,windowenter,O,enter,301,1,1599.0999999642372,176365.40000003576,7006,WL,B,8.0
1,12.361000061035156,learn,47638.999938964844,Mon Aug 05 2024 15:13:57 GMT-0500 (Central Daylight Time),178331.10000002384,A,l,O,l,353,1,366.19999998807907,177964.90000003576,7006,WL,B,9.0
1,12.460999965667725,learn,47539.000034332275,Mon Aug 05 2024 15:13:57 GMT-0500 (Central Daylight Time),178431.10000002384,A,la,O,a,82,1,466.19999998807907,177964.90000003576,7006,WL,B,9.0
1,12.745000123977661,learn,47254.99987602234,Mon Aug 05 2024 15:13:57 GMT-0500 (Central Daylight Time),178714.40000003576,A,lak,O,k,262,1,749.5,177964.90000003576,7006,WL,B,9.0
1,12.894000053405762,learn,47105.99994659424,Mon Aug 05 2024 15:13:57 GMT-0500 (Central Daylight Time),178864.30000001192,A,lake,O,e,131,1,899.3999999761581,177964.90000003576,7006,WL,B,9.0
1,13.111000061035156,learn,46888.999938964844,Mon Aug 05 2024 15:13:57 GMT-0500 (Central Daylight Time),179080.70000004768,A,lakeenter,O,enter,197,1,1115.800000011921,177964.90000003576,7006,WL,B,9.0
1,13.294000148773193,learn,46705.99985122681,Mon Aug 05 2024 15:13:57 GMT-0500 (Central Daylight Time),179264.0,A,f,O,f,173,1,182.89999997615814,179081.10000002384,7006,WL,B,10.0
1,13.41100001335144,learn,46588.99998664856,Mon Aug 05 2024 15:13:57 GMT-0500 (Central Daylight Time),179380.90000003576,A,fi,O,i,109,1,299.80000001192093,179081.10000002384,7006,WL,B,10.0
1,13.577000141143799,learn,46422.9998588562,Mon Aug 05 2024 15:13:57 GMT-0500 (Central Daylight Time),179547.30000001192,A,fir,O,r,146,1,466.19999998807907,179081.10000002384,7006,WL,B,10.0
1,13.694000005722046,learn,46305.999994277954,Mon Aug 05 2024 15:13:57 GMT-0500 (Central Daylight Time),179663.70000004768,A,fire,O,e,98,1,582.6000000238419,179081.10000002384,7006,WL,B,10.0
1,14.111000061035156,learn,45888.999938964844,Mon Aug 05 2024 15:13:57 GMT-0500 (Central Daylight Time),180080.60000002384,A,fireenter,O,enter,397,1,999.5,179081.10000002384,7006,WL,B,10.0
1,27.640000104904175,learn,32359.999895095825,Mon Aug 05 2024 15:13:57 GMT-0500 (Central Daylight Time),193609.5,A,c,O,c,13508,1,13528.599999964237,180080.90000003576,7006,WL,B,11.0
1,27.805999994277954,learn,32194.000005722046,Mon Aug 05 2024 15:13:57 GMT-0500 (Central Daylight Time),193776.10000002384,A,ci,O,i,148,1,13695.199999988079,180080.90000003576,7006,WL,B,11.0
1,27.956000089645386,learn,32043.999910354614,Mon Aug 05 2024 15:13:57 GMT-0500 (Central Daylight Time),193926.10000002384,A,cit,O,t,143,1,13845.199999988079,180080.90000003576,7006,WL,B,11.0
1,28.706000089645386,learn,31293.999910354614,Mon Aug 05 2024 15:13:57 GMT-0500 (Central Daylight Time),194675.80000001192,A,city,O,y,735,1,14594.899999976158,180080.90000003576,7006,WL,B,11.0
1,29.10599994659424,learn,30894.00005340576,Mon Aug 05 2024 15:13:57 GMT-0500 (Central Daylight Time),195075.80000001192,A,cityenter,O,enter,393,1,14994.899999976158,180080.90000003576,7006,WL,B,11.0
1,52.515000104904175,learn,7484.999895095825,Mon Aug 05 2024 15:13:57 GMT-0500 (Central Daylight Time),218485.10000002384,A,enter,O,enter,23394,1,23409.0,195076.10000002384,7006,WL,B,12.0
1,53.08200001716614,learn,6917.999982833862,Mon Aug 05 2024 15:13:57 GMT-0500 (Central Daylight Time),219051.70000004768,A,enter,O,enter,553,1,566.1000000238419,218485.60000002384,7006,WL,B,13.0
1,53.66499996185303,learn,6335.000038146973,Mon Aug 05 2024 15:13:57 GMT-0500 (Central Daylight Time),219635.0,A,enter,O,enter,570,1,583.0999999642372,219051.90000003576,7006,WL,B,14.0
1,54.21500015258789,learn,5784.999847412109,Mon Aug 05 2024 15:13:57 GMT-0500 (Central Daylight Time),220184.5,A,enter,O,enter,531,1,549.0999999642372,219635.40000003576,7006,WL,B,15.0
2,0.36699986457824707,learn,59633.00013542175,Mon Aug 05 2024 15:13:57 GMT-0500 (Central Daylight Time),295960.90000003576,A,c,O,c,356,1,366.5,295594.40000003576,7006,WL,B,1.0
2,0.4829998016357422,learn,59517.00019836426,Mon Aug 05 2024 15:13:57 GMT-0500 (Central Daylight Time),296077.5,A,ca,O,a,109,1,483.0999999642372,295594.40000003576,7006,WL,B,1.0
2,0.7669999599456787,learn,59233.00004005432,Mon Aug 05 2024 15:13:57 GMT-0500 (Central Daylight Time),296360.90000003576,A,cab,O,b,273,1,766.5,295594.40000003576,7006,WL,B,1.0
2,0.931999921798706,learn,59068.000078201294,Mon Aug 05 2024 15:13:57 GMT-0500 (Central Daylight Time),296527.3000000119,A,cabi,O,i,149,1,932.8999999761581,295594.40000003576,7006,WL,B,1.0
2,1.0319998264312744,learn,58968.000173568726,Mon Aug 05 2024 15:13:57 GMT-0500 (Central Daylight Time),296627.5,A,cabin,O,n,87,1,1033.0999999642372,295594.40000003576,7006,WL,B,1.0
2,1.5479998588562012,learn,58452.0001411438,Mon Aug 05 2024 15:13:57 GMT-0500 (Central Daylight Time),297143.7000000477,A,cabinenter,O,enter,507,1,1549.300000011921,295594.40000003576,7006,WL,B,1.0
2,2.1639997959136963,learn,57836.000204086304,Mon Aug 05 2024 15:13:57 GMT-0500 (Central Daylight Time),297760.2000000477,A,p,O,p,606,1,616.1000000238419,297144.10000002384,7006,WL,B,2.0
2,2.447999954223633,learn,57552.00004577637,Mon Aug 05 2024 15:13:57 GMT-0500 (Central Daylight Time),298043.5,A,pi,O,i,278,1,899.3999999761581,297144.10000002384,7006,WL,B,2.0
2,2.697999954223633,learn,57302.00004577637,Mon Aug 05 2024 15:13:57 GMT-0500 (Central Daylight Time),298293.5,A,pip,O,p,243,1,1149.3999999761581,297144.10000002384,7006,WL,B,2.0
2,2.880999803543091,learn,57119.00019645691,Mon Aug 05 2024 15:13:57 GMT-0500 (Central Daylight Time),298476.90000003576,A,pipe,O,e,169,1,1332.800000011921,297144.10000002384,7006,WL,B,2.0
2,3.0809998512268066,learn,56919.00014877319,Mon Aug 05 2024 15:13:57 GMT-0500 (Central Daylight Time),298676.90000003576,A,pipeenter,O,enter,185,1,1532.800000011921,297144.10000002384,7006,WL,B,2.0
2,3.2809998989105225,learn,56719.00010108948,Mon Aug 05 2024 15:13:57 GMT-0500 (Central Daylight Time),298876.60000002384,A,s,O,s,194,1,199.39999997615814,298677.2000000477,7006,WL,B,3.0
2,3.5969998836517334,learn,56403.00011634827,Mon Aug 05 2024 15:13:57 GMT-0500 (Central Daylight Time),299193.2000000477,A,sk,O,k,306,1,516.0,298677.2000000477,7006,WL,B,3.0
2,4.413999795913696,learn,55586.000204086304,Mon Aug 05 2024 15:13:57 GMT-0500 (Central Daylight Time),300009.90000003576,A,ski,O,i,796,1,1332.699999988079,298677.2000000477,7006,WL,B,3.0
2,4.646999835968018,learn,55353.00016403198,Mon Aug 05 2024 15:13:57 GMT-0500 (Central Daylight Time),300242.7000000477,A,skin,O,n,228,1,1565.5,298677.2000000477,7006,WL,B,3.0
2,4.896999835968018,learn,55103.00016403198,Mon Aug 05 2024 15:13:57 GMT-0500 (Central Daylight Time),300492.90000003576,A,skinenter,O,enter,235,1,1815.699999988079,298677.2000000477,7006,WL,B,3.0
2,5.096999883651733,learn,54903.00011634827,Mon Aug 05 2024 15:13:57 GMT-0500 (Central Daylight Time),300692.90000003576,A,c,O,c,196,1,199.69999998807907,300493.2000000477,7006,WL,B,4.0
2,5.244999885559082,learn,54755.00011444092,Mon Aug 05 2024 15:13:57 GMT-0500 (Central Daylight Time),300840.5,A,cl,O,l,143,1,347.2999999523163,300493.2000000477,7006,WL,B,4.0
2,5.429999828338623,learn,54570.00017166138,Mon Aug 05 2024 15:13:57 GMT-0500 (Central Daylight Time),301026.0,A,clo,O,o,174,1,532.7999999523163,300493.2000000477,7006,WL,B,4.0
2,5.546999931335449,learn,54453.00006866455,Mon Aug 05 2024 15:13:57 GMT-0500 (Central Daylight Time),301142.7000000477,A,cloc,O,c,108,1,649.5,300493.2000000477,7006,WL,B,4.0
2,5.662999868392944,learn,54337.000131607056,Mon Aug 05 2024 15:13:57 GMT-0500 (Central Daylight Time),301259.10000002384,A,clock,O,k,104,1,765.8999999761581,300493.2000000477,7006,WL,B,4.0
2,5.913999795913696,learn,54086.000204086304,Mon Aug 05 2024 15:13:57 GMT-0500 (Central Daylight Time),301509.3000000119,A,clockenter,O,enter,244,1,1016.0999999642372,300493.2000000477,7006,WL,B,4.0
2,6.11299991607666,learn,53887.00008392334,Mon Aug 05 2024 15:13:57 GMT-0500 (Central Daylight Time),301709.10000002384,A,g,O,g,193,1,199.5,301509.60000002384,7006,WL,B,5.0
2,6.36299991607666,learn,53637.00008392334,Mon Aug 05 2024 15:13:57 GMT-0500 (Central Daylight Time),301958.90000003576,A,gr,O,r,241,1,449.30000001192093,301509.60000002384,7006,WL,B,5.0
2,6.5299999713897705,learn,53470.00002861023,Mon Aug 05 2024 15:13:57 GMT-0500 (Central Daylight Time),302125.60000002384,A,gra,O,a,160,1,616.0,301509.60000002384,7006,WL,B,5.0
2,6.9629998207092285,learn,53037.00017929077,Mon Aug 05 2024 15:13:57 GMT-0500 (Central Daylight Time),302558.8000000119,A,gras,O,s,417,1,1049.199999988079,301509.60000002384,7006,WL,B,5.0
2,7.145999908447266,learn,52854.000091552734,Mon Aug 05 2024 15:13:57 GMT-0500 (Central Daylight Time),302742.2000000477,A,grass,O,s,167,1,1232.6000000238419,301509.60000002384,7006,WL,B,5.0
2,7.412999868392944,learn,52587.000131607056,Mon Aug 05 2024 15:13:57 GMT-0500 (Central Daylight Time),303008.8000000119,A,grassenter,O,enter,255,1,1499.199999988079,301509.60000002384,7006,WL,B,5.0
2,8.263000011444092,learn,51736.99998855591,Mon Aug 05 2024 15:13:57 GMT-0500 (Central Daylight Time),303858.60000002384,A,a,O,a,837,1,849.3000000119209,303009.3000000119,7006,WL,B,6.0
2,8.513000011444092,learn,51486.99998855591,Mon Aug 05 2024 15:13:57 GMT-0500 (Central Daylight Time),304108.3000000119,A,ar,O,r,236,1,1099.0,303009.3000000119,7006,WL,B,6.0
2,8.696999788284302,learn,51303.0002117157,Mon Aug 05 2024 15:13:57 GMT-0500 (Central Daylight Time),304292.7000000477,A,arm,O,m,178,1,1283.4000000357628,303009.3000000119,7006,WL,B,6.0
2,9.046000003814697,learn,50953.9999961853,Mon Aug 05 2024 15:13:57 GMT-0500 (Central Daylight Time),304641.60000002384,A,armenter,O,enter,330,1,1632.300000011921,303009.3000000119,7006,WL,B,6.0
2,9.194999933242798,learn,50805.0000667572,Mon Aug 05 2024 15:13:57 GMT-0500 (Central Daylight Time),304791.2000000477,A,d,O,d,133,1,149.4000000357628,304641.8000000119,7006,WL,B,7.0
2,9.495999813079834,learn,50504.000186920166,Mon Aug 05 2024 15:13:57 GMT-0500 (Central Daylight Time),305091.40000003576,A,do,O,o,287,1,449.60000002384186,304641.8000000119,7006,WL,B,7.0
2,9.661999940872192,learn,50338.00005912781,Mon Aug 05 2024 15:13:57 GMT-0500 (Central Daylight Time),305258.2000000477,A,doo,O,o,155,1,616.4000000357628,304641.8000000119,7006,WL,B,7.0
2,9.794999837875366,learn,50205.000162124634,Mon Aug 05 2024 15:13:57 GMT-0500 (Central Daylight Time),305391.3000000119,A,door,O,r,116,1,749.5,304641.8000000119,7006,WL,B,7.0
2,10.09499979019165,learn,49905.00020980835,Mon Aug 05 2024 15:13:57 GMT-0500 (Central Daylight Time),305691.2000000477,A,doorenter,O,enter,279,1,1049.4000000357628,304641.8000000119,7006,WL,B,7.0
2,10.26199984550476,learn,49738.00015449524,Mon Aug 05 2024 15:13:57 GMT-0500 (Central Daylight Time),305857.90000003576,A,s,O,s,155,1,166.4000000357628,305691.5,7006,WL,B,8.0
2,10.527999877929688,learn,49472.00012207031,Mon Aug 05 2024 15:13:57 GMT-0500 (Central Daylight Time),306124.3000000119,A,st,O,t,261,1,432.80000001192093,305691.5,7006,WL,B,8.0
2,10.744999885559082,learn,49255.00011444092,Mon Aug 05 2024 15:13:57 GMT-0500 (Central Daylight Time),306340.8000000119,A,str,O,r,210,1,649.3000000119209,305691.5,7006,WL,B,8.0
2,10.961999893188477,learn,49038.00010681152,Mon Aug 05 2024 15:13:57 GMT-0500 (Central Daylight Time),306557.60000002384,A,stre,O,e,209,1,866.1000000238419,305691.5,7006,WL,B,8.0
2,11.127999782562256,learn,48872.000217437744,Mon Aug 05 2024 15:13:57 GMT-0500 (Central Daylight Time),306723.90000003576,A,stree,O,e,161,1,1032.4000000357628,305691.5,7006,WL,B,8.0
2,11.311999797821045,learn,48688.000202178955,Mon Aug 05 2024 15:13:57 GMT-0500 (Central Daylight Time),306907.7000000477,A,street,O,t,171,1,1216.2000000476837,305691.5,7006,WL,B,8.0
2,11.546000003814697,learn,48453.9999961853,Mon Aug 05 2024 15:13:57 GMT-0500 (Central Daylight Time),307141.60000002384,A,streetenter,O,enter,226,1,1450.1000000238419,305691.5,7006,WL,B,8.0
2,11.744999885559082,learn,48255.00011444092,Mon Aug 05 2024 15:13:57 GMT-0500 (Central Daylight Time),307340.60000002384,A,w,O,w,184,1,198.80000001192093,307141.8000000119,7006,WL,B,9.0
2,11.911999940872192,learn,48088.00005912781,Mon Aug 05 2024 15:13:57 GMT-0500 (Central Daylight Time),307507.3000000119,A,wi,O,i,146,1,365.5,307141.8000000119,7006,WL,B,9.0
2,12.060999870300293,learn,47939.00012969971,Mon Aug 05 2024 15:13:57 GMT-0500 (Central Daylight Time),307656.90000003576,A,wif,O,f,138,1,515.1000000238419,307141.8000000119,7006,WL,B,9.0
2,12.227999925613403,learn,47772.0000743866,Mon Aug 05 2024 15:13:57 GMT-0500 (Central Daylight Time),307823.7000000477,A,wife,O,e,149,1,681.9000000357628,307141.8000000119,7006,WL,B,9.0
2,12.394999980926514,learn,47605.000019073486,Mon Aug 05 2024 15:13:57 GMT-0500 (Central Daylight Time),307990.3000000119,A,wifeenter,O,enter,159,1,848.5,307141.8000000119,7006,WL,B,9.0
2,13.727999925613403,learn,46272.0000743866,Mon Aug 05 2024 15:13:57 GMT-0500 (Central Daylight Time),309323.3000000119,A,s,O,s,1312,1,1332.699999988079,307990.60000002384,7006,WL,B,10.0
2,13.976999998092651,learn,46023.00000190735,Mon Aug 05 2024 15:13:57 GMT-0500 (Central Daylight Time),309573.0,A,st,O,t,243,1,1582.3999999761581,307990.60000002384,7006,WL,B,10.0
2,14.17799997329712,learn,45822.00002670288,Mon Aug 05 2024 15:13:57 GMT-0500 (Central Daylight Time),309773.3000000119,A,sta,O,a,193,1,1782.699999988079,307990.60000002384,7006,WL,B,10.0
2,14.327999830245972,learn,45672.00016975403,Mon Aug 05 2024 15:13:57 GMT-0500 (Central Daylight Time),309923.5,A,star,O,r,129,1,1932.8999999761581,307990.60000002384,7006,WL,B,10.0
2,14.57699990272522,learn,45423.00009727478,Mon Aug 05 2024 15:13:57 GMT-0500 (Central Daylight Time),310173.10000002384,A,starenter,O,enter,235,1,2182.5,307990.60000002384,7006,WL,B,10.0
2,14.810999870300293,learn,45189.00012969971,Mon Aug 05 2024 15:13:57 GMT-0500 (Central Daylight Time),310406.3000000119,A,c,O,c,225,1,232.89999997615814,310173.40000003576,7006,WL,B,11.0
2,14.960999965667725,learn,45039.000034332275,Mon Aug 05 2024 15:13:57 GMT-0500 (Central Daylight Time),310556.40000003576,A,ci,O,i,136,1,383.0,310173.40000003576,7006,WL,B,11.0
2,15.126999855041504,learn,44873.000144958496,Mon Aug 05 2024 15:13:57 GMT-0500 (Central Daylight Time),310722.90000003576,A,cit,O,t,146,1,549.5,310173.40000003576,7006,WL,B,11.0
2,15.293999910354614,learn,44706.000089645386,Mon Aug 05 2024 15:13:57 GMT-0500 (Central Daylight Time),310889.3000000119,A,city,O,y,147,1,715.8999999761581,310173.40000003576,7006,WL,B,11.0
2,15.559999942779541,learn,44440.00005722046,Mon Aug 05 2024 15:13:57 GMT-0500 (Central Daylight Time),311156.10000002384,A,cityenter,O,enter,261,1,982.6999999880791,310173.40000003576,7006,WL,B,11.0
2,15.726999998092651,learn,44273.00000190735,Mon Aug 05 2024 15:13:57 GMT-0500 (Central Daylight Time),311323.0,A,w,O,w,145,1,166.69999998807907,311156.3000000119,7006,WL,B,12.0
2,15.893999814987183,learn,44106.00018501282,Mon Aug 05 2024 15:13:57 GMT-0500 (Central Daylight Time),311489.40000003576,A,wi,O,i,148,1,333.10000002384186,311156.3000000119,7006,WL,B,12.0
2,15.959999799728394,learn,44040.00020027161,Mon Aug 05 2024 15:13:57 GMT-0500 (Central Daylight Time),311555.8000000119,A,win,O,n,61,1,399.5,311156.3000000119,7006,WL,B,12.0
2,16.143999814987183,learn,43856.00018501282,Mon Aug 05 2024 15:13:57 GMT-0500 (Central Daylight Time),311739.3000000119,A,wind,O,d,162,1,583.0,311156.3000000119,7006,WL,B,12.0
2,16.32699990272522,learn,43673.00009727478,Mon Aug 05 2024 15:13:57 GMT-0500 (Central Daylight Time),311922.5,A,windo,O,o,162,1,766.1999999880791,311156.3000000119,7006,WL,B,12.0
2,16.492999792099,learn,43507.000207901,Mon Aug 05 2024 15:13:57 GMT-0500 (Central Daylight Time),312089.0,A,window,O,w,156,1,932.6999999880791,311156.3000000119,7006,WL,B,12.0
2,16.792999982833862,learn,43207.00001716614,Mon Aug 05 2024 15:13:57 GMT-0500 (Central Daylight Time),312389.2000000477,A,windowenter,O,enter,286,1,1232.9000000357628,311156.3000000119,7006,WL,B,12.0
2,17.14299988746643,learn,42857.00011253357,Mon Aug 05 2024 15:13:57 GMT-0500 (Central Daylight Time),312738.90000003576,A,f,O,f,346,1,349.5,312389.40000003576,7006,WL,B,13.0
2,17.259999990463257,learn,42740.00000953674,Mon Aug 05 2024 15:13:57 GMT-0500 (Central Daylight Time),312855.7000000477,A,fi,O,i,107,1,466.30000001192093,312389.40000003576,7006,WL,B,13.0
2,17.425999879837036,learn,42574.000120162964,Mon Aug 05 2024 15:13:57 GMT-0500 (Central Daylight Time),313022.10000002384,A,fir,O,r,151,1,632.6999999880791,312389.40000003576,7006,WL,B,13.0
2,17.525999784469604,learn,42474.000215530396,Mon Aug 05 2024 15:13:57 GMT-0500 (Central Daylight Time),313122.0,A,fire,O,e,89,1,732.5999999642372,312389.40000003576,7006,WL,B,13.0
2,18.042999982833862,learn,41957.00001716614,Mon Aug 05 2024 15:13:57 GMT-0500 (Central Daylight Time),313638.7000000477,A,fireenter,O,enter,500,1,1249.300000011921,312389.40000003576,7006,WL,B,13.0
2,18.675999879837036,learn,41324.000120162964,Mon Aug 05 2024 15:13:57 GMT-0500 (Central Daylight Time),314271.90000003576,A,l,O,l,624,1,632.9000000357628,313639.0,7006,WL,B,14.0
2,18.80899977684021,learn,41191.00022315979,Mon Aug 05 2024 15:13:57 GMT-0500 (Central Daylight Time),314405.10000002384,A,la,O,a,118,1,766.1000000238419,313639.0,7006,WL,B,14.0
2,19.025999784469604,learn,40974.000215530396,Mon Aug 05 2024 15:13:57 GMT-0500 (Central Daylight Time),314621.8000000119,A,lak,O,k,201,1,982.8000000119209,313639.0,7006,WL,B,14.0
2,19.158999919891357,learn,40841.00008010864,Mon Aug 05 2024 15:13:57 GMT-0500 (Central Daylight Time),314755.0,A,lake,O,e,113,1,1116.0,313639.0,7006,WL,B,14.0
2,19.358999967575073,learn,40641.00003242493,Mon Aug 05 2024 15:13:57 GMT-0500 (Central Daylight Time),314954.8000000119,A,lakeenter,O,enter,188,1,1315.800000011921,313639.0,7006,WL,B,14.0
2,24.340999841690063,learn,35659.00015830994,Mon Aug 05 2024 15:13:57 GMT-0500 (Central Daylight Time),319936.90000003576,A,p,O,p,4972,1,4981.800000011921,314955.10000002384,7006,WL,B,15.0
2,24.657999992370605,learn,35342.000007629395,Mon Aug 05 2024 15:13:57 GMT-0500 (Central Daylight Time),320253.40000003576,A,pu,O,u,301,1,5298.300000011921,314955.10000002384,7006,WL,B,15.0
2,24.840999841690063,learn,35159.00015830994,Mon Aug 05 2024 15:13:57 GMT-0500 (Central Daylight Time),320436.60000002384,A,pup,O,p,177,1,5481.5,314955.10000002384,7006,WL,B,15.0
2,25.073999881744385,learn,34926.000118255615,Mon Aug 05 2024 15:13:57 GMT-0500 (Central Daylight Time),320669.90000003576,A,pupi,O,i,218,1,5714.800000011921,314955.10000002384,7006,WL,B,15.0
2,25.223999977111816,learn,34776.00002288818,Mon Aug 05 2024 15:13:57 GMT-0500 (Central Daylight Time),320819.90000003576,A,pupil,O,l,137,1,5864.800000011921,314955.10000002384,7006,WL,B,15.0
2,25.473999977111816,learn,34526.00002288818,Mon Aug 05 2024 15:13:57 GMT-0500 (Central Daylight Time),321069.90000003576,A,pupilenter,O,enter,243,1,6114.800000011921,314955.10000002384,7006,WL,B,15.0
3,0.5,learn,59500.0,Mon Aug 05 2024 15:13:57 GMT-0500 (Central Daylight Time),423987.5,A,c,O,c,480,1,499.69999998807907,423487.8000000119,7006,WL,B,1.0
3,0.6500000953674316,learn,59349.99990463257,Mon Aug 05 2024 15:13:57 GMT-0500 (Central Daylight Time),424137.3000000119,A,cl,O,l,130,1,649.5,423487.8000000119,7006,WL,B,1.0
3,0.8670001029968262,learn,59132.999897003174,Mon Aug 05 2024 15:13:57 GMT-0500 (Central Daylight Time),424353.90000003576,A,clo,O,o,205,1,866.1000000238419,423487.8000000119,7006,WL,B,1.0
3,1.1000001430511475,learn,58899.99985694885,Mon Aug 05 2024 15:13:57 GMT-0500 (Central Daylight Time),424587.40000003576,A,cloc,O,c,212,1,1099.6000000238419,423487.8000000119,7006,WL,B,1.0
3,1.2170000076293945,learn,58782.999992370605,Mon Aug 05 2024 15:13:57 GMT-0500 (Central Daylight Time),424703.90000003576,A,clock,O,k,107,1,1216.1000000238419,423487.8000000119,7006,WL,B,1.0
3,1.565999984741211,learn,58434.00001525879,Mon Aug 05 2024 15:13:57 GMT-0500 (Central Daylight Time),425053.8000000119,A,clockenter,O,enter,342,1,1566.0,423487.8000000119,7006,WL,B,1.0
3,1.9000000953674316,learn,58099.99990463257,Mon Aug 05 2024 15:13:57 GMT-0500 (Central Daylight Time),425387.10000002384,A,f,O,f,313,1,332.80000001192093,425054.3000000119,7006,WL,B,2.0
3,2.0,learn,58000.0,Mon Aug 05 2024 15:13:57 GMT-0500 (Central Daylight Time),425486.90000003576,A,fi,O,i,83,1,432.60000002384186,425054.3000000119,7006,WL,B,2.0
3,2.183000087738037,learn,57816.99991226196,Mon Aug 05 2024 15:13:57 GMT-0500 (Central Daylight Time),425670.2000000477,A,fir,O,r,167,1,615.9000000357628,425054.3000000119,7006,WL,B,2.0
3,2.299999952316284,learn,57700.000047683716,Mon Aug 05 2024 15:13:57 GMT-0500 (Central Daylight Time),425786.90000003576,A,fire,O,e,96,1,732.6000000238419,425054.3000000119,7006,WL,B,2.0
3,2.5160000324249268,learn,57483.99996757507,Mon Aug 05 2024 15:13:57 GMT-0500 (Central Daylight Time),426003.5,A,fireenter,O,enter,203,1,949.1999999880791,425054.3000000119,7006,WL,B,2.0
3,2.7160000801086426,learn,57283.99991989136,Mon Aug 05 2024 15:13:57 GMT-0500 (Central Daylight Time),426203.40000003576,A,s,O,s,179,1,199.5,426003.90000003576,7006,WL,B,3.0
3,2.9160001277923584,learn,57083.99987220764,Mon Aug 05 2024 15:13:57 GMT-0500 (Central Daylight Time),426403.10000002384,A,sk,O,k,179,1,399.19999998807907,426003.90000003576,7006,WL,B,3.0
3,3.115999937057495,learn,56884.000062942505,Mon Aug 05 2024 15:13:57 GMT-0500 (Central Daylight Time),426603.2000000477,A,ski,O,i,196,1,599.3000000119209,426003.90000003576,7006,WL,B,3.0
3,3.249000072479248,learn,56750.99992752075,Mon Aug 05 2024 15:13:57 GMT-0500 (Central Daylight Time),426736.60000002384,A,skin,O,n,115,1,732.6999999880791,426003.90000003576,7006,WL,B,3.0
3,3.499000072479248,learn,56500.99992752075,Mon Aug 05 2024 15:13:57 GMT-0500 (Central Daylight Time),426986.60000002384,A,skinenter,O,enter,230,1,982.6999999880791,426003.90000003576,7006,WL,B,3.0
3,3.615999937057495,learn,56384.000062942505,Mon Aug 05 2024 15:13:57 GMT-0500 (Central Daylight Time),427103.0,A,c,O,c,99,1,116.09999996423721,426986.90000003576,7006,WL,B,4.0
3,3.7320001125335693,learn,56267.99988746643,Mon Aug 05 2024 15:13:57 GMT-0500 (Central Daylight Time),427219.5,A,ca,O,a,112,1,232.5999999642372,426986.90000003576,7006,WL,B,4.0
3,3.9660000801086426,learn,56033.99991989136,Mon Aug 05 2024 15:13:57 GMT-0500 (Central Daylight Time),427453.0,A,cab,O,b,227,1,466.0999999642372,426986.90000003576,7006,WL,B,4.0
3,4.164999961853027,learn,55835.00003814697,Mon Aug 05 2024 15:13:57 GMT-0500 (Central Daylight Time),427652.8000000119,A,cabi,O,i,185,1,665.8999999761581,426986.90000003576,7006,WL,B,4.0
3,4.216000080108643,learn,55783.99991989136,Mon Aug 05 2024 15:13:57 GMT-0500 (Central Daylight Time),427703.0,A,cabin,O,n,42,1,716.0999999642372,426986.90000003576,7006,WL,B,4.0
3,4.4649999141693115,learn,55535.00008583069,Mon Aug 05 2024 15:13:57 GMT-0500 (Central Daylight Time),427952.8000000119,A,cabinenter,O,enter,239,1,965.8999999761581,426986.90000003576,7006,WL,B,4.0
3,4.999000072479248,learn,55000.99992752075,Mon Aug 05 2024 15:13:57 GMT-0500 (Central Daylight Time),428485.90000003576,A,p,O,p,526,1,532.8000000119209,427953.10000002384,7006,WL,B,5.0
3,5.265000104904175,learn,54734.999895095825,Mon Aug 05 2024 15:13:57 GMT-0500 (Central Daylight Time),428752.5,A,pu,O,u,257,1,799.3999999761581,427953.10000002384,7006,WL,B,5.0
3,5.582000017166138,learn,54417.99998283386,Mon Aug 05 2024 15:13:57 GMT-0500 (Central Daylight Time),429069.0,A,pup,O,p,310,1,1115.8999999761581,427953.10000002384,7006,WL,B,5.0
3,5.914999961853027,learn,54085.00003814697,Mon Aug 05 2024 15:13:57 GMT-0500 (Central Daylight Time),429402.40000003576,A,pupi,O,i,321,1,1449.300000011921,427953.10000002384,7006,WL,B,5.0
3,6.115000009536743,learn,53884.99999046326,Mon Aug 05 2024 15:13:57 GMT-0500 (Central Daylight Time),429602.60000002384,A,pupil,O,l,180,1,1649.5,427953.10000002384,7006,WL,B,5.0
3,6.331000089645386,learn,53668.999910354614,Mon Aug 05 2024 15:13:57 GMT-0500 (Central Daylight Time),429818.90000003576,A,pupilenter,O,enter,204,1,1865.800000011921,427953.10000002384,7006,WL,B,5.0
3,6.914999961853027,learn,53085.00003814697,Mon Aug 05 2024 15:13:57 GMT-0500 (Central Daylight Time),430402.10000002384,A,p,O,p,571,1,582.8999999761581,429819.2000000477,7006,WL,B,6.0
3,7.430999994277954,learn,52569.000005722046,Mon Aug 05 2024 15:13:57 GMT-0500 (Central Daylight Time),430918.7000000477,A,pi,O,i,500,1,1099.5,429819.2000000477,7006,WL,B,6.0
3,7.748000144958496,learn,52251.999855041504,Mon Aug 05 2024 15:13:57 GMT-0500 (Central Daylight Time),431235.2000000477,A,pip,O,p,296,1,1416.0,429819.2000000477,7006,WL,B,6.0
3,7.947999954223633,learn,52052.00004577637,Mon Aug 05 2024 15:13:57 GMT-0500 (Central Daylight Time),431435.10000002384,A,pipe,O,e,195,1,1615.8999999761581,429819.2000000477,7006,WL,B,6.0
3,8.13100004196167,learn,51868.99995803833,Mon Aug 05 2024 15:13:57 GMT-0500 (Central Daylight Time),431618.3000000119,A,pipeenter,O,enter,164,1,1799.0999999642372,429819.2000000477,7006,WL,B,6.0
3,8.38100004196167,learn,51618.99995803833,Mon Aug 05 2024 15:13:57 GMT-0500 (Central Daylight Time),431868.5,A,w,O,w,236,1,249.79999995231628,431618.7000000477,7006,WL,B,7.0
3,8.531000137329102,learn,51468.9998626709,Mon Aug 05 2024 15:13:57 GMT-0500 (Central Daylight Time),432018.60000002384,A,wo,O,o,137,1,399.89999997615814,431618.7000000477,7006,WL,B,7.0
3,8.54800009727478,learn,51451.99990272522,Mon Aug 05 2024 15:13:57 GMT-0500 (Central Daylight Time),432035.2000000477,A,woi,O,i,1,1,416.5,431618.7000000477,7006,WL,B,7.0
3,8.680999994277954,learn,51319.000005722046,Mon Aug 05 2024 15:13:57 GMT-0500 (Central Daylight Time),432168.10000002384,A,woif,O,f,124,1,549.3999999761581,431618.7000000477,7006,WL,B,7.0
3,9.081000089645386,learn,50918.999910354614,Mon Aug 05 2024 15:13:57 GMT-0500 (Central Daylight Time),432568.10000002384,A,woi,O,backspace,390,1,949.3999999761581,431618.7000000477,7006,WL,B,7.0
3,9.248000144958496,learn,50751.999855041504,Mon Aug 05 2024 15:13:57 GMT-0500 (Central Daylight Time),432735.0,A,wo,O,backspace,150,1,1116.2999999523163,431618.7000000477,7006,WL,B,7.0
3,9.44700002670288,learn,50552.99997329712,Mon Aug 05 2024 15:13:57 GMT-0500 (Central Daylight Time),432934.8000000119,A,w,O,backspace,184,1,1316.0999999642372,431618.7000000477,7006,WL,B,7.0
3,10.114000082015991,learn,49885.99991798401,Mon Aug 05 2024 15:13:57 GMT-0500 (Central Daylight Time),433600.90000003576,A,wi,O,i,656,1,1982.199999988079,431618.7000000477,7006,WL,B,7.0
3,10.230000019073486,learn,49769.999980926514,Mon Aug 05 2024 15:13:57 GMT-0500 (Central Daylight Time),433717.7000000477,A,wif,O,f,101,1,2099.0,431618.7000000477,7006,WL,B,7.0
3,10.29699993133545,learn,49703.00006866455,Mon Aug 05 2024 15:13:57 GMT-0500 (Central Daylight Time),433784.40000003576,A,wife,O,e,57,1,2165.699999988079,431618.7000000477,7006,WL,B,7.0
3,10.46399998664856,learn,49536.00001335144,Mon Aug 05 2024 15:13:57 GMT-0500 (Central Daylight Time),433951.10000002384,A,wifeenter,O,enter,150,1,2332.399999976158,431618.7000000477,7006,WL,B,7.0
3,10.763000011444092,learn,49236.99998855591,Mon Aug 05 2024 15:13:57 GMT-0500 (Central Daylight Time),434250.90000003576,A,c,O,c,287,1,299.4000000357628,433951.5,7006,WL,B,8.0
3,10.880000114440918,learn,49119.99988555908,Mon Aug 05 2024 15:13:57 GMT-0500 (Central Daylight Time),434367.5,A,ci,O,i,100,1,416.0,433951.5,7006,WL,B,8.0
3,11.04699993133545,learn,48953.00006866455,Mon Aug 05 2024 15:13:57 GMT-0500 (Central Daylight Time),434534.10000002384,A,cit,O,t,158,1,582.6000000238419,433951.5,7006,WL,B,8.0
3,11.180000066757202,learn,48819.9999332428,Mon Aug 05 2024 15:13:57 GMT-0500 (Central Daylight Time),434667.40000003576,A,city,O,y,120,1,715.9000000357628,433951.5,7006,WL,B,8.0
3,11.562999963760376,learn,48437.000036239624,Mon Aug 05 2024 15:13:57 GMT-0500 (Central Daylight Time),435050.8000000119,A,cityenter,O,enter,370,1,1099.300000011921,433951.5,7006,WL,B,8.0
3,12.11299991607666,learn,47887.00008392334,Mon Aug 05 2024 15:13:57 GMT-0500 (Central Daylight Time),435600.5,A,w,O,w,540,1,549.3999999761581,435051.10000002384,7006,WL,B,9.0
3,12.395999908447266,learn,47604.000091552734,Mon Aug 05 2024 15:13:57 GMT-0500 (Central Daylight Time),435883.8000000119,A,wi,O,i,270,1,832.6999999880791,435051.10000002384,7006,WL,B,9.0
3,12.496000051498413,learn,47503.99994850159,Mon Aug 05 2024 15:13:57 GMT-0500 (Central Daylight Time),435983.8000000119,A,win,O,n,83,1,932.6999999880791,435051.10000002384,7006,WL,B,9.0
3,12.645999908447266,learn,47354.000091552734,Mon Aug 05 2024 15:13:57 GMT-0500 (Central Daylight Time),436133.7000000477,A,wind,O,d,135,1,1082.6000000238419,435051.10000002384,7006,WL,B,9.0
3,12.77999997138977,learn,47220.00002861023,Mon Aug 05 2024 15:13:57 GMT-0500 (Central Daylight Time),436267.2000000477,A,windo,O,o,120,1,1216.1000000238419,435051.10000002384,7006,WL,B,9.0
3,12.913000106811523,learn,47086.99989318848,Mon Aug 05 2024 15:13:57 GMT-0500 (Central Daylight Time),436400.10000002384,A,window,O,w,123,1,1349.0,435051.10000002384,7006,WL,B,9.0
3,13.128999948501587,learn,46871.00005149841,Mon Aug 05 2024 15:13:57 GMT-0500 (Central Daylight Time),436616.7000000477,A,windowenter,O,enter,198,1,1565.6000000238419,435051.10000002384,7006,WL,B,9.0
3,13.546000003814697,learn,46453.9999961853,Mon Aug 05 2024 15:13:57 GMT-0500 (Central Daylight Time),437033.2000000477,A,s,O,s,397,1,416.0,436617.2000000477,7006,WL,B,10.0
3,13.796000003814697,learn,46203.9999961853,Mon Aug 05 2024 15:13:57 GMT-0500 (Central Daylight Time),437283.2000000477,A,st,O,t,229,1,666.0,436617.2000000477,7006,WL,B,10.0
3,14.013000011444092,learn,45986.99998855591,Mon Aug 05 2024 15:13:57 GMT-0500 (Central Daylight Time),437500.0,A,str,O,r,203,1,882.7999999523163,436617.2000000477,7006,WL,B,10.0
3,14.312000036239624,learn,45687.999963760376,Mon Aug 05 2024 15:13:57 GMT-0500 (Central Daylight Time),437799.8000000119,A,stre,O,e,290,1,1182.5999999642372,436617.2000000477,7006,WL,B,10.0
3,14.51200008392334,learn,45487.99991607666,Mon Aug 05 2024 15:13:57 GMT-0500 (Central Daylight Time),437999.7000000477,A,stree,O,e,183,1,1382.5,436617.2000000477,7006,WL,B,10.0
3,14.628999948501587,learn,45371.00005149841,Mon Aug 05 2024 15:13:57 GMT-0500 (Central Daylight Time),438116.2000000477,A,street,O,t,103,1,1499.0,436617.2000000477,7006,WL,B,10.0
3,15.144999980926514,learn,44855.000019073486,Mon Aug 05 2024 15:13:57 GMT-0500 (Central Daylight Time),438632.90000003576,A,streetenter,O,enter,506,1,2015.699999988079,436617.2000000477,7006,WL,B,10.0
3,15.411999940872192,learn,44588.00005912781,Mon Aug 05 2024 15:13:57 GMT-0500 (Central Daylight Time),438899.40000003576,A,g,O,g,262,1,266.30000001192093,438633.10000002384,7006,WL,B,11.0
3,15.628999948501587,learn,44371.00005149841,Mon Aug 05 2024 15:13:57 GMT-0500 (Central Daylight Time),439116.0,A,gr,O,r,203,1,482.89999997615814,438633.10000002384,7006,WL,B,11.0
3,15.729000091552734,learn,44270.999908447266,Mon Aug 05 2024 15:13:57 GMT-0500 (Central Daylight Time),439216.0,A,gra,O,a,83,1,582.8999999761581,438633.10000002384,7006,WL,B,11.0
3,16.07800006866455,learn,43921.99993133545,Mon Aug 05 2024 15:13:57 GMT-0500 (Central Daylight Time),439565.8000000119,A,gras,O,s,335,1,932.6999999880791,438633.10000002384,7006,WL,B,11.0
3,16.24500012397766,learn,43754.99987602234,Mon Aug 05 2024 15:13:57 GMT-0500 (Central Daylight Time),439732.7000000477,A,grass,O,s,152,1,1099.6000000238419,438633.10000002384,7006,WL,B,11.0
3,16.378000020980835,learn,43621.999979019165,Mon Aug 05 2024 15:13:57 GMT-0500 (Central Daylight Time),439865.7000000477,A,grassenter,O,enter,122,1,1232.6000000238419,438633.10000002384,7006,WL,B,11.0
3,16.49500012397766,learn,43504.99987602234,Mon Aug 05 2024 15:13:57 GMT-0500 (Central Daylight Time),439982.40000003576,A,a,O,a,109,1,116.5,439865.90000003576,7006,WL,B,12.0
3,16.628000020980835,learn,43371.999979019165,Mon Aug 05 2024 15:13:57 GMT-0500 (Central Daylight Time),440115.8000000119,A,ar,O,r,120,1,249.89999997615814,439865.90000003576,7006,WL,B,12.0
3,16.778000116348267,learn,43221.99988365173,Mon Aug 05 2024 15:13:57 GMT-0500 (Central Daylight Time),440265.60000002384,A,arm,O,m,139,1,399.69999998807907,439865.90000003576,7006,WL,B,12.0
3,17.16100001335144,learn,42838.99998664856,Mon Aug 05 2024 15:13:57 GMT-0500 (Central Daylight Time),440648.7000000477,A,armenter,O,enter,365,1,782.8000000119209,439865.90000003576,7006,WL,B,12.0
3,17.295000076293945,learn,42704.999923706055,Mon Aug 05 2024 15:13:57 GMT-0500 (Central Daylight Time),440782.10000002384,A,s,O,s,126,1,133.0,440649.10000002384,7006,WL,B,13.0
3,17.710999965667725,learn,42289.000034332275,Mon Aug 05 2024 15:13:57 GMT-0500 (Central Daylight Time),441198.90000003576,A,st,O,t,400,1,549.8000000119209,440649.10000002384,7006,WL,B,13.0
3,17.944999933242798,learn,42055.0000667572,Mon Aug 05 2024 15:13:57 GMT-0500 (Central Daylight Time),441432.2000000477,A,sta,O,a,223,1,783.1000000238419,440649.10000002384,7006,WL,B,13.0
3,18.028000116348267,learn,41971.99988365173,Mon Aug 05 2024 15:13:57 GMT-0500 (Central Daylight Time),441515.2000000477,A,star,O,r,78,1,866.1000000238419,440649.10000002384,7006,WL,B,13.0
3,19.276999950408936,learn,40723.000049591064,Mon Aug 05 2024 15:13:57 GMT-0500 (Central Daylight Time),442764.90000003576,A,starenter,O,enter,1243,1,2115.800000011921,440649.10000002384,7006,WL,B,13.0
3,20.91000008583069,learn,39089.99991416931,Mon Aug 05 2024 15:13:57 GMT-0500 (Central Daylight Time),444397.8000000119,A,l,O,l,1625,1,1632.5,442765.3000000119,7006,WL,B,14.0
3,21.05999994277954,learn,38940.00005722046,Mon Aug 05 2024 15:13:57 GMT-0500 (Central Daylight Time),444547.8000000119,A,la,O,a,137,1,1782.5,442765.3000000119,7006,WL,B,14.0
3,21.193000078201294,learn,38806.999921798706,Mon Aug 05 2024 15:13:57 GMT-0500 (Central Daylight Time),444680.90000003576,A,lak,O,k,115,1,1915.6000000238419,442765.3000000119,7006,WL,B,14.0
3,21.30999994277954,learn,38690.00005722046,Mon Aug 05 2024 15:13:57 GMT-0500 (Central Daylight Time),444797.60000002384,A,lake,O,e,102,1,2032.300000011921,442765.3000000119,7006,WL,B,14.0
3,21.55999994277954,learn,38440.00005722046,Mon Aug 05 2024 15:13:57 GMT-0500 (Central Daylight Time),445047.40000003576,A,lakeenter,O,enter,233,1,2282.100000023842,442765.3000000119,7006,WL,B,14.0
3,22.427000045776367,learn,37572.99995422363,Mon Aug 05 2024 15:13:57 GMT-0500 (Central Daylight Time),445914.10000002384,A,c,O,c,855,1,866.3000000119209,445047.8000000119,7006,WL,B,15.0
3,22.542999982833862,learn,37457.00001716614,Mon Aug 05 2024 15:13:57 GMT-0500 (Central Daylight Time),446030.60000002384,A,ca,O,a,108,1,982.8000000119209,445047.8000000119,7006,WL,B,15.0
3,22.926000118255615,learn,37073.999881744385,Mon Aug 05 2024 15:13:57 GMT-0500 (Central Daylight Time),446413.90000003576,A,cab,O,b,367,1,1366.1000000238419,445047.8000000119,7006,WL,B,15.0
3,23.05999994277954,learn,36940.00005722046,Mon Aug 05 2024 15:13:57 GMT-0500 (Central Daylight Time),446547.0,A,cabi,O,i,121,1,1499.199999988079,445047.8000000119,7006,WL,B,15.0
3,23.16000008583069,learn,36839.99991416931,Mon Aug 05 2024 15:13:57 GMT-0500 (Central Daylight Time),446646.8000000119,A,cabin,O,n,92,1,1599.0,445047.8000000119,7006,WL,B,15.0
3,23.426000118255615,learn,36573.999881744385,Mon Aug 05 2024 15:13:57 GMT-0500 (Central Daylight Time),446913.5,A,cabinenter,O,enter,248,1,1865.699999988079,445047.8000000119,7006,WL,B,15.0
4,0.5,learn,59500.0,Mon Aug 05 2024 15:13:57 GMT-0500 (Central Daylight Time),522589.90000003576,A,s,O,s,485,1,499.80000001192093,522090.10000002384,7006,WL,B,1.0
4,0.8500001430511475,learn,59149.99985694885,Mon Aug 05 2024 15:13:57 GMT-0500 (Central Daylight Time),522939.8000000119,A,st,O,t,336,1,849.6999999880791,522090.10000002384,7006,WL,B,1.0
4,1.0829999446868896,learn,58917.00005531311,Mon Aug 05 2024 15:13:57 GMT-0500 (Central Daylight Time),523173.10000002384,A,str,O,r,219,1,1083.0,522090.10000002384,7006,WL,B,1.0
4,1.3659999370574951,learn,58634.000062942505,Mon Aug 05 2024 15:13:57 GMT-0500 (Central Daylight Time),523456.3000000119,A,stre,O,e,265,1,1366.199999988079,522090.10000002384,7006,WL,B,1.0
4,1.5499999523162842,learn,58450.000047683716,Mon Aug 05 2024 15:13:57 GMT-0500 (Central Daylight Time),523639.5,A,stree,O,e,174,1,1549.3999999761581,522090.10000002384,7006,WL,B,1.0
4,1.7999999523162842,learn,58200.000047683716,Mon Aug 05 2024 15:13:57 GMT-0500 (Central Daylight Time),523889.5,A,street,O,t,231,1,1799.3999999761581,522090.10000002384,7006,WL,B,1.0
4,2.2660000324249268,learn,57733.99996757507,Mon Aug 05 2024 15:13:57 GMT-0500 (Central Daylight Time),524356.0,A,streetenter,O,enter,453,1,2265.899999976158,522090.10000002384,7006,WL,B,1.0
4,2.683000087738037,learn,57316.99991226196,Mon Aug 05 2024 15:13:57 GMT-0500 (Central Daylight Time),524772.6000000238,A,g,O,g,403,1,416.30000001192093,524356.3000000119,7006,WL,B,2.0
4,2.933000087738037,learn,57066.99991226196,Mon Aug 05 2024 15:13:57 GMT-0500 (Central Daylight Time),525022.7000000477,A,gr,O,r,234,1,666.4000000357628,524356.3000000119,7006,WL,B,2.0
4,3.181999921798706,learn,56818.000078201294,Mon Aug 05 2024 15:13:57 GMT-0500 (Central Daylight Time),525272.3000000119,A,gra,O,a,232,1,916.0,524356.3000000119,7006,WL,B,2.0
4,3.4820001125335693,learn,56517.99988746643,Mon Aug 05 2024 15:13:57 GMT-0500 (Central Daylight Time),525572.4000000358,A,gras,O,s,286,1,1216.1000000238419,524356.3000000119,7006,WL,B,2.0
4,3.6649999618530273,learn,56335.00003814697,Mon Aug 05 2024 15:13:57 GMT-0500 (Central Daylight Time),525755.5,A,grass,O,s,170,1,1399.199999988079,524356.3000000119,7006,WL,B,2.0
4,3.865999937057495,learn,56134.000062942505,Mon Aug 05 2024 15:13:57 GMT-0500 (Central Daylight Time),525955.5,A,grassenter,O,enter,187,1,1599.199999988079,524356.3000000119,7006,WL,B,2.0
4,4.166000127792358,learn,55833.99987220764,Mon Aug 05 2024 15:13:57 GMT-0500 (Central Daylight Time),526255.5,A,d,O,d,291,1,299.5999999642372,525955.9000000358,7006,WL,B,3.0
4,5.082000017166138,learn,54917.99998283386,Mon Aug 05 2024 15:13:57 GMT-0500 (Central Daylight Time),527171.9000000358,A,do,O,o,903,1,1216.0,525955.9000000358,7006,WL,B,3.0
4,5.265000104904175,learn,54734.999895095825,Mon Aug 05 2024 15:13:57 GMT-0500 (Central Daylight Time),527355.1000000238,A,doo,O,o,170,1,1399.199999988079,525955.9000000358,7006,WL,B,3.0
4,5.447999954223633,learn,54552.00004577637,Mon Aug 05 2024 15:13:57 GMT-0500 (Central Daylight Time),527538.5,A,door,O,r,171,1,1582.5999999642372,525955.9000000358,7006,WL,B,3.0
4,5.732000112533569,learn,54267.99988746643,Mon Aug 05 2024 15:13:57 GMT-0500 (Central Daylight Time),527821.6000000238,A,doorenter,O,enter,268,1,1865.699999988079,525955.9000000358,7006,WL,B,3.0
4,5.914999961853027,learn,54085.00003814697,Mon Aug 05 2024 15:13:57 GMT-0500 (Central Daylight Time),528005.0,A,a,O,a,177,1,183.0999999642372,527821.9000000358,7006,WL,B,4.0
4,6.2149999141693115,learn,53785.00008583069,Mon Aug 05 2024 15:13:57 GMT-0500 (Central Daylight Time),528304.8000000119,A,ar,O,r,281,1,482.89999997615814,527821.9000000358,7006,WL,B,4.0
4,6.414999961853027,learn,53585.00003814697,Mon Aug 05 2024 15:13:57 GMT-0500 (Central Daylight Time),528504.6000000238,A,arm,O,m,182,1,682.6999999880791,527821.9000000358,7006,WL,B,4.0
4,6.7149999141693115,learn,53285.00008583069,Mon Aug 05 2024 15:13:57 GMT-0500 (Central Daylight Time),528804.5,A,armenter,O,enter,286,1,982.5999999642372,527821.9000000358,7006,WL,B,4.0
4,6.930999994277954,learn,53069.000005722046,Mon Aug 05 2024 15:13:57 GMT-0500 (Central Daylight Time),529021.1000000238,A,w,O,w,202,1,216.30000001192093,528804.8000000119,7006,WL,B,5.0
4,7.13100004196167,learn,52868.99995803833,Mon Aug 05 2024 15:13:57 GMT-0500 (Central Daylight Time),529221.1000000238,A,wi,O,i,194,1,416.30000001192093,528804.8000000119,7006,WL,B,5.0
4,7.265000104904175,learn,52734.999895095825,Mon Aug 05 2024 15:13:57 GMT-0500 (Central Daylight Time),529354.6000000238,A,win,O,n,113,1,549.8000000119209,528804.8000000119,7006,WL,B,5.0
4,7.46399998664856,learn,52536.00001335144,Mon Aug 05 2024 15:13:57 GMT-0500 (Central Daylight Time),529554.3000000119,A,wind,O,d,180,1,749.5,528804.8000000119,7006,WL,B,5.0
4,7.664000034332275,learn,52335.999965667725,Mon Aug 05 2024 15:13:57 GMT-0500 (Central Daylight Time),529754.3000000119,A,windo,O,o,180,1,949.5,528804.8000000119,7006,WL,B,5.0
4,7.88100004196167,learn,52118.99995803833,Mon Aug 05 2024 15:13:57 GMT-0500 (Central Daylight Time),529971.1000000238,A,window,O,w,196,1,1166.300000011921,528804.8000000119,7006,WL,B,5.0
4,8.13100004196167,learn,51868.99995803833,Mon Aug 05 2024 15:13:57 GMT-0500 (Central Daylight Time),530220.9000000358,A,windowenter,O,enter,235,1,1416.1000000238419,528804.8000000119,7006,WL,B,5.0
4,8.44700002670288,learn,51552.99997329712,Mon Aug 05 2024 15:13:57 GMT-0500 (Central Daylight Time),530537.4000000358,A,w,O,w,306,1,316.19999998807907,530221.2000000477,7006,WL,B,6.0
4,8.664000034332275,learn,51335.999965667725,Mon Aug 05 2024 15:13:57 GMT-0500 (Central Daylight Time),530754.0,A,wi,O,i,197,1,532.7999999523163,530221.2000000477,7006,WL,B,6.0
4,8.831000089645386,learn,51168.999910354614,Mon Aug 05 2024 15:13:57 GMT-0500 (Central Daylight Time),530920.6000000238,A,wif,O,f,156,1,699.3999999761581,530221.2000000477,7006,WL,B,6.0
4,8.996999979019165,learn,51003.000020980835,Mon Aug 05 2024 15:13:57 GMT-0500 (Central Daylight Time),531087.1000000238,A,wife,O,e,150,1,865.8999999761581,530221.2000000477,7006,WL,B,6.0
4,9.314000129699707,learn,50685.99987030029,Mon Aug 05 2024 15:13:57 GMT-0500 (Central Daylight Time),531403.8000000119,A,wifeenter,O,enter,304,1,1182.5999999642372,530221.2000000477,7006,WL,B,6.0
4,9.647000074386597,learn,50352.9999256134,Mon Aug 05 2024 15:13:57 GMT-0500 (Central Daylight Time),531736.9000000358,A,c,O,c,314,1,332.69999998807907,531404.2000000477,7006,WL,B,7.0
4,9.814000129699707,learn,50185.99987030029,Mon Aug 05 2024 15:13:57 GMT-0500 (Central Daylight Time),531903.5,A,ci,O,i,149,1,499.2999999523163,531404.2000000477,7006,WL,B,7.0
4,9.996999979019165,learn,50003.000020980835,Mon Aug 05 2024 15:13:57 GMT-0500 (Central Daylight Time),532087.0,A,cit,O,t,175,1,682.7999999523163,531404.2000000477,7006,WL,B,7.0
4,10.180000066757202,learn,49819.9999332428,Mon Aug 05 2024 15:13:57 GMT-0500 (Central Daylight Time),532270.1000000238,A,city,O,y,168,1,865.8999999761581,531404.2000000477,7006,WL,B,7.0
4,10.847000122070312,learn,49152.99987792969,Mon Aug 05 2024 15:13:57 GMT-0500 (Central Daylight Time),532936.7000000477,A,cityenter,O,enter,656,1,1532.5,531404.2000000477,7006,WL,B,7.0
4,11.913000106811523,learn,48086.99989318848,Mon Aug 05 2024 15:13:57 GMT-0500 (Central Daylight Time),534003.1000000238,A,p,O,p,1054,1,1066.1000000238419,532937.0,7006,WL,B,8.0
4,12.196000099182129,learn,47803.99990081787,Mon Aug 05 2024 15:13:57 GMT-0500 (Central Daylight Time),534286.0,A,pu,O,u,268,1,1349.0,532937.0,7006,WL,B,8.0
4,12.312999963760376,learn,47687.000036239624,Mon Aug 05 2024 15:13:57 GMT-0500 (Central Daylight Time),534403.0,A,pup,O,p,97,1,1466.0,532937.0,7006,WL,B,8.0
4,12.646000146865845,learn,47353.999853134155,Mon Aug 05 2024 15:13:57 GMT-0500 (Central Daylight Time),534736.0,A,pupi,O,i,324,1,1799.0,532937.0,7006,WL,B,8.0
4,12.86299991607666,learn,47137.00008392334,Mon Aug 05 2024 15:13:57 GMT-0500 (Central Daylight Time),534952.7000000477,A,pupil,O,l,207,1,2015.7000000476837,532937.0,7006,WL,B,8.0
4,13.163000106811523,learn,46836.99989318848,Mon Aug 05 2024 15:13:57 GMT-0500 (Central Daylight Time),535252.7000000477,A,pupilenter,O,enter,286,1,2315.7000000476837,532937.0,7006,WL,B,8.0
4,14.200999975204468,learn,45799.00002479553,Mon Aug 05 2024 15:13:57 GMT-0500 (Central Daylight Time),536291.0,A,c,O,c,887,1,1038.0,535253.0,7006,WL,B,9.0
4,14.213000059127808,learn,45786.99994087219,Mon Aug 05 2024 15:13:57 GMT-0500 (Central Daylight Time),536302.7000000477,A,ca,O,a,1,1,1049.7000000476837,535253.0,7006,WL,B,9.0
4,14.328999996185303,learn,45671.0000038147,Mon Aug 05 2024 15:13:57 GMT-0500 (Central Daylight Time),536419.1000000238,A,cab,O,b,103,1,1166.1000000238419,535253.0,7006,WL,B,9.0
4,14.528000116348267,learn,45471.99988365173,Mon Aug 05 2024 15:13:57 GMT-0500 (Central Daylight Time),536618.8000000119,A,cabi,O,i,179,1,1365.800000011921,535253.0,7006,WL,B,9.0
4,14.611999988555908,learn,45388.00001144409,Mon Aug 05 2024 15:13:57 GMT-0500 (Central Daylight Time),536702.2000000477,A,cabin,O,n,76,1,1449.2000000476837,535253.0,7006,WL,B,9.0
4,15.061000108718872,learn,44938.99989128113,Mon Aug 05 2024 15:13:57 GMT-0500 (Central Daylight Time),537152.2000000477,A,cabinenter,O,enter,432,1,1899.2000000476837,535253.0,7006,WL,B,9.0
4,15.41100001335144,learn,44588.99998664856,Mon Aug 05 2024 15:13:57 GMT-0500 (Central Daylight Time),537501.9000000358,A,l,O,l,342,1,349.30000001192093,537152.6000000238,7006,WL,B,10.0
4,15.510999917984009,learn,44489.00008201599,Mon Aug 05 2024 15:13:57 GMT-0500 (Central Daylight Time),537601.8000000119,A,la,O,a,89,1,449.19999998807907,537152.6000000238,7006,WL,B,10.0
4,15.710999965667725,learn,44289.000034332275,Mon Aug 05 2024 15:13:57 GMT-0500 (Central Daylight Time),537801.8000000119,A,lak,O,k,189,1,649.1999999880791,537152.6000000238,7006,WL,B,10.0
4,15.861000061035156,learn,44138.999938964844,Mon Aug 05 2024 15:13:57 GMT-0500 (Central Daylight Time),537951.7000000477,A,lake,O,e,141,1,799.1000000238419,537152.6000000238,7006,WL,B,10.0
4,16.460999965667725,learn,43539.000034332275,Mon Aug 05 2024 15:13:57 GMT-0500 (Central Daylight Time),538551.7000000477,A,lakep,O,p,583,1,1399.1000000238419,537152.6000000238,7006,WL,B,10.0
4,17.627000093460083,learn,42372.99990653992,Mon Aug 05 2024 15:13:57 GMT-0500 (Central Daylight Time),539717.8000000119,A,lake,O,backspace,1159,1,2565.199999988079,537152.6000000238,7006,WL,B,10.0
4,18.05999994277954,learn,41940.00005722046,Mon Aug 05 2024 15:13:57 GMT-0500 (Central Daylight Time),540151.0,A,lakeenter,O,enter,425,1,2998.399999976158,537152.6000000238,7006,WL,B,10.0
4,18.76200008392334,learn,41237.99991607666,Mon Aug 05 2024 15:13:57 GMT-0500 (Central Daylight Time),540852.7000000477,A,p,O,p,688,1,701.4000000357628,540151.3000000119,7006,WL,B,11.0
4,19.026999950408936,learn,40973.000049591064,Mon Aug 05 2024 15:13:57 GMT-0500 (Central Daylight Time),541118.2000000477,A,pi,O,i,258,1,966.9000000357628,540151.3000000119,7006,WL,B,11.0
4,19.276999950408936,learn,40723.000049591064,Mon Aug 05 2024 15:13:57 GMT-0500 (Central Daylight Time),541367.3000000119,A,pip,O,p,239,1,1216.0,540151.3000000119,7006,WL,B,11.0
4,19.427000045776367,learn,40572.99995422363,Mon Aug 05 2024 15:13:57 GMT-0500 (Central Daylight Time),541517.3000000119,A,pipe,O,e,143,1,1366.0,540151.3000000119,7006,WL,B,11.0
4,20.95900011062622,learn,39040.99988937378,Mon Aug 05 2024 15:13:57 GMT-0500 (Central Daylight Time),543050.0,A,pipeenter,O,enter,1513,1,2898.699999988079,540151.3000000119,7006,WL,B,11.0
4,21.858999967575073,learn,38141.00003242493,Mon Aug 05 2024 15:13:57 GMT-0500 (Central Daylight Time),543949.9000000358,A,f,O,f,892,1,899.5,543050.4000000358,7006,WL,B,12.0
4,22.075999975204468,learn,37924.00002479553,Mon Aug 05 2024 15:13:57 GMT-0500 (Central Daylight Time),544166.3000000119,A,fi,O,i,201,1,1115.8999999761581,543050.4000000358,7006,WL,B,12.0
4,22.242000102996826,learn,37757.999897003174,Mon Aug 05 2024 15:13:57 GMT-0500 (Central Daylight Time),544333.2000000477,A,fir,O,r,152,1,1282.800000011921,543050.4000000358,7006,WL,B,12.0
4,22.342999935150146,learn,37657.00006484985,Mon Aug 05 2024 15:13:57 GMT-0500 (Central Daylight Time),544433.2000000477,A,fire,O,e,89,1,1382.800000011921,543050.4000000358,7006,WL,B,12.0
4,22.742000102996826,learn,37257.999897003174,Mon Aug 05 2024 15:13:57 GMT-0500 (Central Daylight Time),544832.8000000119,A,fireenter,O,enter,388,1,1782.3999999761581,543050.4000000358,7006,WL,B,12.0
4,23.408999919891357,learn,36591.00008010864,Mon Aug 05 2024 15:13:57 GMT-0500 (Central Daylight Time),545499.5,A,c,O,c,646,1,666.3999999761581,544833.1000000238,7006,WL,B,13.0
4,23.575000047683716,learn,36424.999952316284,Mon Aug 05 2024 15:13:57 GMT-0500 (Central Daylight Time),545665.8000000119,A,cl,O,l,155,1,832.6999999880791,544833.1000000238,7006,WL,B,13.0
4,23.79200005531311,learn,36207.99994468689,Mon Aug 05 2024 15:13:57 GMT-0500 (Central Daylight Time),545882.5,A,clo,O,o,205,1,1049.3999999761581,544833.1000000238,7006,WL,B,13.0
4,24.10800004005432,learn,35891.99995994568,Mon Aug 05 2024 15:13:57 GMT-0500 (Central Daylight Time),546199.1000000238,A,cloc,O,c,300,1,1366.0,544833.1000000238,7006,WL,B,13.0
4,24.242000102996826,learn,35757.999897003174,Mon Aug 05 2024 15:13:57 GMT-0500 (Central Daylight Time),546332.4000000358,A,clock,O,k,119,1,1499.300000011921,544833.1000000238,7006,WL,B,13.0
4,24.70799994468689,learn,35292.00005531311,Mon Aug 05 2024 15:13:57 GMT-0500 (Central Daylight Time),546799.0,A,clockenter,O,enter,458,1,1965.8999999761581,544833.1000000238,7006,WL,B,13.0
4,25.157999992370605,learn,34842.000007629395,Mon Aug 05 2024 15:13:57 GMT-0500 (Central Daylight Time),547248.9000000358,A,s,O,s,432,1,449.5,546799.4000000358,7006,WL,B,14.0
4,25.29100012779236,learn,34708.99987220764,Mon Aug 05 2024 15:13:57 GMT-0500 (Central Daylight Time),547381.9000000358,A,sk,O,k,126,1,582.5,546799.4000000358,7006,WL,B,14.0
4,25.508000135421753,learn,34491.99986457825,Mon Aug 05 2024 15:13:57 GMT-0500 (Central Daylight Time),547598.7000000477,A,ski,O,i,201,1,799.3000000119209,546799.4000000358,7006,WL,B,14.0
4,25.60800004005432,learn,34391.99995994568,Mon Aug 05 2024 15:13:57 GMT-0500 (Central Daylight Time),547698.6000000238,A,skin,O,n,88,1,899.1999999880791,546799.4000000358,7006,WL,B,14.0
4,26.091000080108643,learn,33908.99991989136,Mon Aug 05 2024 15:13:57 GMT-0500 (Central Daylight Time),548181.9000000358,A,skinenter,O,enter,476,1,1382.5,546799.4000000358,7006,WL,B,14.0
4,28.006999969482422,learn,31993.000030517578,Mon Aug 05 2024 15:13:57 GMT-0500 (Central Daylight Time),550097.8000000119,A,d,O,d,1897,1,1915.5999999642372,548182.2000000477,7006,WL,B,15.0
4,28.223999977111816,learn,31776.000022888184,Mon Aug 05 2024 15:13:57 GMT-0500 (Central Daylight Time),550314.6000000238,A,do,O,o,205,1,2132.399999976158,548182.2000000477,7006,WL,B,15.0
4,28.374000072479248,learn,31625.999927520752,Mon Aug 05 2024 15:13:57 GMT-0500 (Central Daylight Time),550464.3000000119,A,doo,O,o,132,1,2282.099999964237,548182.2000000477,7006,WL,B,15.0
4,28.506999969482422,learn,31493.000030517578,Mon Aug 05 2024 15:13:57 GMT-0500 (Central Daylight Time),550597.9000000358,A,door,O,r,118,1,2415.699999988079,548182.2000000477,7006,WL,B,15.0
4,29.10700011253357,learn,30892.99988746643,Mon Aug 05 2024 15:13:57 GMT-0500 (Central Daylight Time),551197.7000000477,A,doorenter,O,enter,593,1,3015.5,548182.2000000477,7006,WL,B,15.0
5,0.5999999046325684,learn,60000.0,Mon Aug 05 2024 15:13:57 GMT-0500 (Central Daylight Time),627157.3000000119,A,s,O,s,594,1,599.8000000119209,626557.5,7006,WL,B,1.0
5,0.9500000476837158,learn,60000.0,Mon Aug 05 2024 15:13:57 GMT-0500 (Central Daylight Time),627507.2000000477,A,st,O,t,337,1,949.7000000476837,626557.5,7006,WL,B,1.0
5,1.2000000476837158,learn,60000.0,Mon Aug 05 2024 15:13:57 GMT-0500 (Central Daylight Time),627756.9000000358,A,str,O,r,243,1,1199.4000000357628,626557.5,7006,WL,B,1.0
5,1.4659998416900635,learn,60000.0,Mon Aug 05 2024 15:13:57 GMT-0500 (Central Daylight Time),628023.5,A,stre,O,e,258,1,1466.0,626557.5,7006,WL,B,1.0
5,1.6329998970031738,learn,60000.0,Mon Aug 05 2024 15:13:57 GMT-0500 (Central Daylight Time),628190.1000000238,A,stree,O,e,151,1,1632.6000000238419,626557.5,7006,WL,B,1.0
5,1.8499999046325684,learn,60000.0,Mon Aug 05 2024 15:13:57 GMT-0500 (Central Daylight Time),628406.8000000119,A,street,O,t,208,1,1849.300000011921,626557.5,7006,WL,B,1.0
5,2.1659998893737793,learn,60000.0,Mon Aug 05 2024 15:13:57 GMT-0500 (Central Daylight Time),628723.3000000119,A,streetenter,O,enter,311,1,2165.800000011921,626557.5,7006,WL,B,1.0
5,2.8329999446868896,learn,60000.0,Mon Aug 05 2024 15:13:57 GMT-0500 (Central Daylight Time),629389.7000000477,A,g,O,g,651,1,666.2000000476837,628723.5,7006,WL,B,2.0
5,3.0829999446868896,learn,60000.0,Mon Aug 05 2024 15:13:57 GMT-0500 (Central Daylight Time),629639.7000000477,A,gr,O,r,241,1,916.2000000476837,628723.5,7006,WL,B,2.0
5,3.2990000247955322,learn,60000.0,Mon Aug 05 2024 15:13:57 GMT-0500 (Central Daylight Time),629856.1000000238,A,gra,O,a,199,1,1132.6000000238419,628723.5,7006,WL,B,2.0
5,3.5820000171661377,learn,60000.0,Mon Aug 05 2024 15:13:57 GMT-0500 (Central Daylight Time),630139.5,A,gras,O,s,278,1,1416.0,628723.5,7006,WL,B,2.0
5,3.8940000534057617,learn,60000.0,Mon Aug 05 2024 15:13:57 GMT-0500 (Central Daylight Time),630450.9000000358,A,grass,O,s,307,1,1727.4000000357628,628723.5,7006,WL,B,2.0
5,4.049000024795532,learn,60000.0,Mon Aug 05 2024 15:13:57 GMT-0500 (Central Daylight Time),630605.6000000238,A,grassenter,O,enter,139,1,1882.1000000238419,628723.5,7006,WL,B,2.0
5,4.516000032424927,learn,60000.0,Mon Aug 05 2024 15:13:57 GMT-0500 (Central Daylight Time),631072.6000000238,A,d,O,d,457,1,466.80000001192093,630605.8000000119,7006,WL,B,3.0
5,4.799999952316284,learn,60000.0,Mon Aug 05 2024 15:13:57 GMT-0500 (Central Daylight Time),631356.9000000358,A,do,O,o,278,1,751.1000000238419,630605.8000000119,7006,WL,B,3.0
5,5.014999866485596,learn,60000.0,Mon Aug 05 2024 15:13:57 GMT-0500 (Central Daylight Time),631572.3000000119,A,doo,O,o,201,1,966.5,630605.8000000119,7006,WL,B,3.0
5,5.164999961853027,learn,60000.0,Mon Aug 05 2024 15:13:57 GMT-0500 (Central Daylight Time),631722.2000000477,A,door,O,r,138,1,1116.4000000357628,630605.8000000119,7006,WL,B,3.0
5,5.547999858856201,learn,60000.0,Mon Aug 05 2024 15:13:57 GMT-0500 (Central Daylight Time),632105.4000000358,A,doorenter,O,enter,372,1,1499.6000000238419,630605.8000000119,7006,WL,B,3.0
5,5.98199987411499,learn,60000.0,Mon Aug 05 2024 15:13:57 GMT-0500 (Central Daylight Time),632538.7000000477,A,a,O,a,421,1,433.0,632105.7000000477,7006,WL,B,4.0
5,6.148000001907349,learn,60000.0,Mon Aug 05 2024 15:13:57 GMT-0500 (Central Daylight Time),632705.5,A,ar,O,r,148,1,599.7999999523163,632105.7000000477,7006,WL,B,4.0
5,6.398000001907349,learn,60000.0,Mon Aug 05 2024 15:13:57 GMT-0500 (Central Daylight Time),632955.3000000119,A,arm,O,m,228,1,849.5999999642372,632105.7000000477,7006,WL,B,4.0
5,6.747999906539917,learn,60000.0,Mon Aug 05 2024 15:13:57 GMT-0500 (Central Daylight Time),633305.2000000477,A,armenter,O,enter,331,1,1199.5,632105.7000000477,7006,WL,B,4.0
5,7.38100004196167,learn,60000.0,Mon Aug 05 2024 15:13:57 GMT-0500 (Central Daylight Time),633938.1000000238,A,w,O,w,614,1,632.6999999880791,633305.4000000358,7006,WL,B,5.0
5,7.563999891281128,learn,60000.0,Mon Aug 05 2024 15:13:57 GMT-0500 (Central Daylight Time),634121.6000000238,A,wi,O,i,172,1,816.1999999880791,633305.4000000358,7006,WL,B,5.0
5,7.730999946594238,learn,60000.0,Mon Aug 05 2024 15:13:57 GMT-0500 (Central Daylight Time),634288.5,A,win,O,n,149,1,983.0999999642372,633305.4000000358,7006,WL,B,5.0
5,7.914000034332275,learn,60000.0,Mon Aug 05 2024 15:13:57 GMT-0500 (Central Daylight Time),634471.3000000119,A,wind,O,d,174,1,1165.8999999761581,633305.4000000358,7006,WL,B,5.0
5,8.113999843597412,learn,60000.0,Mon Aug 05 2024 15:13:57 GMT-0500 (Central Daylight Time),634671.3000000119,A,windo,O,o,183,1,1365.8999999761581,633305.4000000358,7006,WL,B,5.0
5,8.263999938964844,learn,60000.0,Mon Aug 05 2024 15:13:57 GMT-0500 (Central Daylight Time),634821.3000000119,A,window,O,w,135,1,1515.8999999761581,633305.4000000358,7006,WL,B,5.0
5,8.596999883651733,learn,60000.0,Mon Aug 05 2024 15:13:57 GMT-0500 (Central Daylight Time),635154.5,A,windowenter,O,enter,313,1,1849.0999999642372,633305.4000000358,7006,WL,B,5.0
5,8.96399998664856,learn,60000.0,Mon Aug 05 2024 15:13:57 GMT-0500 (Central Daylight Time),635521.1000000238,A,s,O,s,356,1,366.19999998807907,635154.9000000358,7006,WL,B,6.0
5,9.263999938964844,learn,60000.0,Mon Aug 05 2024 15:13:57 GMT-0500 (Central Daylight Time),635821.1000000238,A,st,O,t,285,1,666.1999999880791,635154.9000000358,7006,WL,B,6.0
5,9.496999979019165,learn,60000.0,Mon Aug 05 2024 15:13:57 GMT-0500 (Central Daylight Time),636054.3000000119,A,sta,O,a,225,1,899.3999999761581,635154.9000000358,7006,WL,B,6.0
5,9.63100004196167,learn,60000.0,Mon Aug 05 2024 15:13:57 GMT-0500 (Central Daylight Time),636187.6000000238,A,star,O,r,112,1,1032.699999988079,635154.9000000358,7006,WL,B,6.0
5,9.914000034332275,learn,60000.0,Mon Aug 05 2024 15:13:57 GMT-0500 (Central Daylight Time),636470.9000000358,A,starenter,O,enter,275,1,1316.0,635154.9000000358,7006,WL,B,6.0
5,10.19700002670288,learn,60000.0,Mon Aug 05 2024 15:13:57 GMT-0500 (Central Daylight Time),636754.2000000477,A,w,O,w,264,1,283.0,636471.2000000477,7006,WL,B,7.0
5,10.346999883651733,learn,60000.0,Mon Aug 05 2024 15:13:57 GMT-0500 (Central Daylight Time),636904.3000000119,A,wi,O,i,140,1,433.0999999642372,636471.2000000477,7006,WL,B,7.0
5,10.513999938964844,learn,60000.0,Mon Aug 05 2024 15:13:57 GMT-0500 (Central Daylight Time),637070.6000000238,A,wif,O,f,158,1,599.3999999761581,636471.2000000477,7006,WL,B,7.0
5,10.646999835968018,learn,60000.0,Mon Aug 05 2024 15:13:57 GMT-0500 (Central Daylight Time),637204.1000000238,A,wife,O,e,120,1,732.8999999761581,636471.2000000477,7006,WL,B,7.0
5,10.86299991607666,learn,60000.0,Mon Aug 05 2024 15:13:57 GMT-0500 (Central Daylight Time),637420.6000000238,A,wifeenter,O,enter,210,1,949.3999999761581,636471.2000000477,7006,WL,B,7.0
5,11.480000019073486,learn,60000.0,Mon Aug 05 2024 15:13:57 GMT-0500 (Central Daylight Time),638037.1000000238,A,p,O,p,601,1,616.3000000119209,637420.8000000119,7006,WL,B,8.0
5,11.763000011444092,learn,60000.0,Mon Aug 05 2024 15:13:57 GMT-0500 (Central Daylight Time),638320.4000000358,A,pu,O,u,265,1,899.6000000238419,637420.8000000119,7006,WL,B,8.0
5,11.912999868392944,learn,60000.0,Mon Aug 05 2024 15:13:57 GMT-0500 (Central Daylight Time),638470.3000000119,A,pup,O,p,142,1,1049.5,637420.8000000119,7006,WL,B,8.0
5,12.180000066757202,learn,60000.0,Mon Aug 05 2024 15:13:57 GMT-0500 (Central Daylight Time),638736.6000000238,A,pupi,O,i,248,1,1315.800000011921,637420.8000000119,7006,WL,B,8.0
5,12.312999963760376,learn,60000.0,Mon Aug 05 2024 15:13:57 GMT-0500 (Central Daylight Time),638870.0,A,pupil,O,l,126,1,1449.199999988079,637420.8000000119,7006,WL,B,8.0
5,12.580999851226807,learn,60000.0,Mon Aug 05 2024 15:13:57 GMT-0500 (Central Daylight Time),639137.8000000119,A,pupilenter,O,enter,248,1,1717.0,637420.8000000119,7006,WL,B,8.0
5,12.812999963760376,learn,60000.0,Mon Aug 05 2024 15:13:57 GMT-0500 (Central Daylight Time),639369.9000000358,A,c,O,c,213,1,231.80000001192093,639138.1000000238,7006,WL,B,9.0
5,12.963000059127808,learn,60000.0,Mon Aug 05 2024 15:13:57 GMT-0500 (Central Daylight Time),639519.9000000358,A,ci,O,i,133,1,381.80000001192093,639138.1000000238,7006,WL,B,9.0
5,13.145999908447266,learn,60000.0,Mon Aug 05 2024 15:13:57 GMT-0500 (Central Daylight Time),639703.2000000477,A,cit,O,t,167,1,565.1000000238419,639138.1000000238,7006,WL,B,9.0
5,13.296000003814697,learn,60000.0,Mon Aug 05 2024 15:13:57 GMT-0500 (Central Daylight Time),639853.1000000238,A,city,O,y,143,1,715.0,639138.1000000238,7006,WL,B,9.0
5,13.595999956130981,learn,60000.0,Mon Aug 05 2024 15:13:57 GMT-0500 (Central Daylight Time),640153.1000000238,A,cityenter,O,enter,289,1,1015.0,639138.1000000238,7006,WL,B,9.0
5,13.996000051498413,learn,60000.0,Mon Aug 05 2024 15:13:57 GMT-0500 (Central Daylight Time),640553.0,A,c,O,c,389,1,399.5999999642372,640153.4000000358,7006,WL,B,10.0
5,14.178999900817871,learn,60000.0,Mon Aug 05 2024 15:13:57 GMT-0500 (Central Daylight Time),640736.0,A,ca,O,a,166,1,582.5999999642372,640153.4000000358,7006,WL,B,10.0
5,14.361999988555908,learn,60000.0,Mon Aug 05 2024 15:13:57 GMT-0500 (Central Daylight Time),640919.4000000358,A,cab,O,b,167,1,766.0,640153.4000000358,7006,WL,B,10.0
5,14.496000051498413,learn,60000.0,Mon Aug 05 2024 15:13:57 GMT-0500 (Central Daylight Time),641052.7000000477,A,cabi,O,i,127,1,899.3000000119209,640153.4000000358,7006,WL,B,10.0
5,14.611999988555908,learn,60000.0,Mon Aug 05 2024 15:13:57 GMT-0500 (Central Daylight Time),641169.4000000358,A,cabin,O,n,98,1,1016.0,640153.4000000358,7006,WL,B,10.0
5,14.928999900817871,learn,60000.0,Mon Aug 05 2024 15:13:57 GMT-0500 (Central Daylight Time),641486.1000000238,A,cabinenter,O,enter,301,1,1332.699999988079,640153.4000000358,7006,WL,B,10.0
5,15.26199984550476,learn,60000.0,Mon Aug 05 2024 15:13:57 GMT-0500 (Central Daylight Time),641819.1000000238,A,l,O,l,320,1,332.69999998807907,641486.4000000358,7006,WL,B,11.0
5,15.361999988555908,learn,60000.0,Mon Aug 05 2024 15:13:57 GMT-0500 (Central Daylight Time),641919.0,A,la,O,a,92,1,432.5999999642372,641486.4000000358,7006,WL,B,11.0
5,15.578999996185303,learn,60000.0,Mon Aug 05 2024 15:13:57 GMT-0500 (Central Daylight Time),642135.7000000477,A,lak,O,k,208,1,649.3000000119209,641486.4000000358,7006,WL,B,11.0
5,15.694999933242798,learn,60000.0,Mon Aug 05 2024 15:13:57 GMT-0500 (Central Daylight Time),642252.5,A,lake,O,e,103,1,766.0999999642372,641486.4000000358,7006,WL,B,11.0
5,16.59500002861023,learn,60000.0,Mon Aug 05 2024 15:13:57 GMT-0500 (Central Daylight Time),643152.1000000238,A,lakeenter,O,enter,882,1,1665.699999988079,641486.4000000358,7006,WL,B,11.0
5,17.227999925613403,learn,60000.0,Mon Aug 05 2024 15:13:57 GMT-0500 (Central Daylight Time),643785.4000000358,A,p,O,p,615,1,633.0,643152.4000000358,7006,WL,B,12.0
5,17.494999885559082,learn,60000.0,Mon Aug 05 2024 15:13:57 GMT-0500 (Central Daylight Time),644051.8000000119,A,pi,O,i,245,1,899.3999999761581,643152.4000000358,7006,WL,B,12.0
5,17.74399995803833,learn,60000.0,Mon Aug 05 2024 15:13:57 GMT-0500 (Central Daylight Time),644301.6000000238,A,pip,O,p,235,1,1149.199999988079,643152.4000000358,7006,WL,B,12.0
5,18.111000061035156,learn,60000.0,Mon Aug 05 2024 15:13:57 GMT-0500 (Central Daylight Time),644668.2000000477,A,pipe,O,e,353,1,1515.800000011921,643152.4000000358,7006,WL,B,12.0
5,18.611000061035156,learn,60000.0,Mon Aug 05 2024 15:13:57 GMT-0500 (Central Daylight Time),645168.0,A,pipeenter,O,enter,490,1,2015.5999999642372,643152.4000000358,7006,WL,B,12.0
5,19.960999965667725,learn,60000.0,Mon Aug 05 2024 15:13:57 GMT-0500 (Central Daylight Time),646517.7000000477,A,f,O,f,1343,1,1349.300000011921,645168.4000000358,7006,WL,B,13.0
5,20.126999855041504,learn,60000.0,Mon Aug 05 2024 15:13:57 GMT-0500 (Central Daylight Time),646684.3000000119,A,fi,O,i,161,1,1515.8999999761581,645168.4000000358,7006,WL,B,13.0
5,20.310999870300293,learn,60000.0,Mon Aug 05 2024 15:13:57 GMT-0500 (Central Daylight Time),646867.7000000477,A,fir,O,r,170,1,1699.300000011921,645168.4000000358,7006,WL,B,13.0
5,20.427000045776367,learn,60000.0,Mon Aug 05 2024 15:13:57 GMT-0500 (Central Daylight Time),646984.3000000119,A,fire,O,e,106,1,1815.8999999761581,645168.4000000358,7006,WL,B,13.0
5,20.793999910354614,learn,60000.0,Mon Aug 05 2024 15:13:57 GMT-0500 (Central Daylight Time),647350.9000000358,A,fireenter,O,enter,358,1,2182.5,645168.4000000358,7006,WL,B,13.0
5,21.22699999809265,learn,60000.0,Mon Aug 05 2024 15:13:57 GMT-0500 (Central Daylight Time),647784.0,A,s,O,s,424,1,432.7999999523163,647351.2000000477,7006,WL,B,14.0
5,21.39400005340576,learn,60000.0,Mon Aug 05 2024 15:13:57 GMT-0500 (Central Daylight Time),647950.6000000238,A,sk,O,k,158,1,599.3999999761581,647351.2000000477,7006,WL,B,14.0
5,21.609999895095825,learn,60000.0,Mon Aug 05 2024 15:13:57 GMT-0500 (Central Daylight Time),648167.3000000119,A,ski,O,i,199,1,816.0999999642372,647351.2000000477,7006,WL,B,14.0
5,21.72699999809265,learn,60000.0,Mon Aug 05 2024 15:13:57 GMT-0500 (Central Daylight Time),648283.6000000238,A,skin,O,n,111,1,932.3999999761581,647351.2000000477,7006,WL,B,14.0
5,22.05999994277954,learn,60000.0,Mon Aug 05 2024 15:13:57 GMT-0500 (Central Daylight Time),648617.0,A,skinenter,O,enter,323,1,1265.7999999523163,647351.2000000477,7006,WL,B,14.0
5,22.243000030517578,learn,60000.0,Mon Aug 05 2024 15:13:57 GMT-0500 (Central Daylight Time),648800.3000000119,A,c,O,c,166,1,182.89999997615814,648617.4000000358,7006,WL,B,15.0
5,22.442999839782715,learn,60000.0,Mon Aug 05 2024 15:13:57 GMT-0500 (Central Daylight Time),649000.2000000477,A,cl,O,l,182,1,382.80000001192093,648617.4000000358,7006,WL,B,15.0
5,22.675999879837036,learn,60000.0,Mon Aug 05 2024 15:13:57 GMT-0500 (Central Daylight Time),649233.5,A,clo,O,o,222,1,616.0999999642372,648617.4000000358,7006,WL,B,15.0
5,22.89400005340576,learn,60000.0,Mon Aug 05 2024 15:13:57 GMT-0500 (Central Daylight Time),649451.5,A,cloc,O,c,197,1,834.0999999642372,648617.4000000358,7006,WL,B,15.0
5,23.075999975204468,learn,60000.0,Mon Aug 05 2024 15:13:57 GMT-0500 (Central Daylight Time),649633.3000000119,A,clock,O,k,171,1,1015.8999999761581,648617.4000000358,7006,WL,B,15.0
5,23.358999967575073,learn,60000.0,Mon Aug 05 2024 15:13:57 GMT-0500 (Central Daylight Time),649916.5,A,clockenter,O,enter,277,1,1299.0999999642372,648617.4000000358,7006,WL,B,15.0
6,0.752000093460083,distr,59247.99990653992,Mon Aug 05 2024 15:13:57 GMT-0500 (Central Daylight Time),724761.6000000238,B,b,O,b,733,1,751.3000000119209,724010.3000000119,7006,WL,B,1.0
6,0.8659999370574951,distr,59134.000062942505,Mon Aug 05 2024 15:13:57 GMT-0500 (Central Daylight Time),724876.3000000119,B,ba,O,a,109,1,866.0,724010.3000000119,7006,WL,B,1.0
6,1.0499999523162842,distr,58950.000047683716,Mon Aug 05 2024 15:13:57 GMT-0500 (Central Daylight Time),725059.7000000477,B,bab,O,b,163,1,1049.4000000357628,724010.3000000119,7006,WL,B,1.0
6,1.6500000953674316,distr,58349.99990463257,Mon Aug 05 2024 15:13:57 GMT-0500 (Central Daylight Time),725659.7000000477,B,baby,O,y,579,1,1649.4000000357628,724010.3000000119,7006,WL,B,1.0
6,1.9830000400543213,distr,58016.99995994568,Mon Aug 05 2024 15:13:57 GMT-0500 (Central Daylight Time),725992.9000000358,B,babyenter,O,enter,315,1,1982.6000000238419,724010.3000000119,7006,WL,B,1.0
6,2.3329999446868896,distr,57667.00005531311,Mon Aug 05 2024 15:13:57 GMT-0500 (Central Daylight Time),726342.7000000477,B,o,O,o,342,1,349.5,725993.2000000477,7006,WL,B,2.0
6,2.5160000324249268,distr,57483.99996757507,Mon Aug 05 2024 15:13:57 GMT-0500 (Central Daylight Time),726526.0,B,oc,O,c,176,1,532.7999999523163,725993.2000000477,7006,WL,B,2.0
6,2.7990000247955322,distr,57200.99997520447,Mon Aug 05 2024 15:13:57 GMT-0500 (Central Daylight Time),726809.0,B,oce,O,e,264,1,815.7999999523163,725993.2000000477,7006,WL,B,2.0
6,2.9160001277923584,distr,57083.99987220764,Mon Aug 05 2024 15:13:57 GMT-0500 (Central Daylight Time),726925.8000000119,B,ocea,O,a,102,1,932.5999999642372,725993.2000000477,7006,WL,B,2.0
6,3.0829999446868896,distr,56917.00005531311,Mon Aug 05 2024 15:13:57 GMT-0500 (Central Daylight Time),727093.3000000119,B,ocean,O,n,161,1,1100.0999999642372,725993.2000000477,7006,WL,B,2.0
6,3.381999969482422,distr,56618.00003051758,Mon Aug 05 2024 15:13:57 GMT-0500 (Central Daylight Time),727392.3000000119,B,oceanenter,O,enter,281,1,1399.0999999642372,725993.2000000477,7006,WL,B,2.0
6,3.683000087738037,distr,56316.99991226196,Mon Aug 05 2024 15:13:57 GMT-0500 (Central Daylight Time),727692.5,B,b,O,b,286,1,300.0,727392.5,7006,WL,B,3.0
6,3.865000009536743,distr,56134.99999046326,Mon Aug 05 2024 15:13:57 GMT-0500 (Central Daylight Time),727875.5,B,ba,O,a,170,1,483.0,727392.5,7006,WL,B,3.0
6,4.065000057220459,distr,55934.99994277954,Mon Aug 05 2024 15:13:57 GMT-0500 (Central Daylight Time),728075.3000000119,B,bar,O,r,195,1,682.8000000119209,727392.5,7006,WL,B,3.0
6,4.432000160217285,distr,55567.999839782715,Mon Aug 05 2024 15:13:57 GMT-0500 (Central Daylight Time),728442.2000000477,B,barenter,O,enter,355,1,1049.7000000476837,727392.5,7006,WL,B,3.0
6,4.865000009536743,distr,55134.99999046326,Mon Aug 05 2024 15:13:57 GMT-0500 (Central Daylight Time),728875.3000000119,B,l,O,l,421,1,432.89999997615814,728442.4000000358,7006,WL,B,4.0
6,5.065000057220459,distr,54934.99994277954,Mon Aug 05 2024 15:13:57 GMT-0500 (Central Daylight Time),729075.2000000477,B,li,O,i,187,1,632.8000000119209,728442.4000000358,7006,WL,B,4.0
6,5.248000144958496,distr,54751.999855041504,Mon Aug 05 2024 15:13:57 GMT-0500 (Central Daylight Time),729258.5,B,lip,O,p,163,1,816.0999999642372,728442.4000000358,7006,WL,B,4.0
6,5.498000144958496,distr,54501.999855041504,Mon Aug 05 2024 15:13:57 GMT-0500 (Central Daylight Time),729508.3000000119,B,lipenter,O,enter,244,1,1065.8999999761581,728442.4000000358,7006,WL,B,4.0
6,5.832000017166138,distr,54167.99998283386,Mon Aug 05 2024 15:13:57 GMT-0500 (Central Daylight Time),729841.5,B,p,O,p,315,1,332.89999997615814,729508.6000000238,7006,WL,B,5.0
6,5.982000112533569,distr,54017.99988746643,Mon Aug 05 2024 15:13:57 GMT-0500 (Central Daylight Time),729991.4000000358,B,pa,O,a,141,1,482.80000001192093,729508.6000000238,7006,WL,B,5.0
6,6.148000001907349,distr,53851.99999809265,Mon Aug 05 2024 15:13:57 GMT-0500 (Central Daylight Time),730158.3000000119,B,pal,O,l,151,1,649.6999999880791,729508.6000000238,7006,WL,B,5.0
6,6.281000137329102,distr,53718.9998626709,Mon Aug 05 2024 15:13:57 GMT-0500 (Central Daylight Time),730291.4000000358,B,pala,O,a,120,1,782.8000000119209,729508.6000000238,7006,WL,B,5.0
6,6.498000144958496,distr,53501.999855041504,Mon Aug 05 2024 15:13:57 GMT-0500 (Central Daylight Time),730508.1000000238,B,palac,O,c,203,1,999.5,729508.6000000238,7006,WL,B,5.0
6,6.730999946594238,distr,53269.00005340576,Mon Aug 05 2024 15:13:57 GMT-0500 (Central Daylight Time),730741.4000000358,B,palace,O,e,218,1,1232.800000011921,729508.6000000238,7006,WL,B,5.0
6,6.88100004196167,distr,53118.99995803833,Mon Aug 05 2024 15:13:57 GMT-0500 (Central Daylight Time),730891.3000000119,B,palaceenter,O,enter,145,1,1382.699999988079,729508.6000000238,7006,WL,B,5.0
6,7.13100004196167,distr,52868.99995803833,Mon Aug 05 2024 15:13:57 GMT-0500 (Central Daylight Time),731141.1000000238,B,d,O,d,235,1,249.5,730891.6000000238,7006,WL,B,6.0
6,7.3480000495910645,distr,52651.999950408936,Mon Aug 05 2024 15:13:57 GMT-0500 (Central Daylight Time),731357.8000000119,B,dr,O,r,210,1,466.19999998807907,730891.6000000238,7006,WL,B,6.0
6,7.465000152587891,distr,52534.99984741211,Mon Aug 05 2024 15:13:57 GMT-0500 (Central Daylight Time),731474.6000000238,B,dre,O,e,105,1,583.0,730891.6000000238,7006,WL,B,6.0
6,7.71399998664856,distr,52286.00001335144,Mon Aug 05 2024 15:13:57 GMT-0500 (Central Daylight Time),731724.2000000477,B,dres,O,s,244,1,832.6000000238419,730891.6000000238,7006,WL,B,6.0
6,7.898000001907349,distr,52101.99999809265,Mon Aug 05 2024 15:13:57 GMT-0500 (Central Daylight Time),731907.5,B,dress,O,s,163,1,1015.8999999761581,730891.6000000238,7006,WL,B,6.0
6,8.098000049591064,distr,51901.999950408936,Mon Aug 05 2024 15:13:57 GMT-0500 (Central Daylight Time),732107.5,B,dressenter,O,enter,195,1,1215.8999999761581,730891.6000000238,7006,WL,B,6.0
6,9.097000122070312,distr,50902.99987792969,Mon Aug 05 2024 15:13:57 GMT-0500 (Central Daylight Time),733107.5,B,v,O,v,995,1,999.7999999523163,732107.7000000477,7006,WL,B,7.0
6,9.281000137329102,distr,50718.9998626709,Mon Aug 05 2024 15:13:57 GMT-0500 (Central Daylight Time),733290.6000000238,B,vi,O,i,170,1,1182.8999999761581,732107.7000000477,7006,WL,B,7.0
6,9.430000066757202,distr,50569.9999332428,Mon Aug 05 2024 15:13:57 GMT-0500 (Central Daylight Time),733440.5,B,vil,O,l,140,1,1332.7999999523163,732107.7000000477,7006,WL,B,7.0
6,9.614000082015991,distr,50385.99991798401,Mon Aug 05 2024 15:13:57 GMT-0500 (Central Daylight Time),733623.8000000119,B,vill,O,l,166,1,1516.0999999642372,732107.7000000477,7006,WL,B,7.0
6,9.69700002670288,distr,50302.99997329712,Mon Aug 05 2024 15:13:57 GMT-0500 (Central Daylight Time),733707.2000000477,B,villa,O,a,79,1,1599.5,732107.7000000477,7006,WL,B,7.0
6,9.814000129699707,distr,50185.99987030029,Mon Aug 05 2024 15:13:57 GMT-0500 (Central Daylight Time),733823.8000000119,B,villag,O,g,99,1,1716.0999999642372,732107.7000000477,7006,WL,B,7.0
6,9.96399998664856,distr,50036.00001335144,Mon Aug 05 2024 15:13:57 GMT-0500 (Central Daylight Time),733973.7000000477,B,village,O,e,143,1,1866.0,732107.7000000477,7006,WL,B,7.0
6,10.347000122070312,distr,49652.99987792969,Mon Aug 05 2024 15:13:57 GMT-0500 (Central Daylight Time),734356.8000000119,B,villageenter,O,enter,377,1,2249.099999964237,732107.7000000477,7006,WL,B,7.0
6,10.513000011444092,distr,49486.99998855591,Mon Aug 05 2024 15:13:57 GMT-0500 (Central Daylight Time),734523.4000000358,B,s,O,s,162,1,166.30000001192093,734357.1000000238,7006,WL,B,8.0
6,10.713000059127808,distr,49286.99994087219,Mon Aug 05 2024 15:13:57 GMT-0500 (Central Daylight Time),734723.3000000119,B,st,O,t,179,1,366.19999998807907,734357.1000000238,7006,WL,B,8.0
6,10.86300015449524,distr,49136.99984550476,Mon Aug 05 2024 15:13:57 GMT-0500 (Central Daylight Time),734873.3000000119,B,sto,O,o,131,1,516.1999999880791,734357.1000000238,7006,WL,B,8.0
6,11.02999997138977,distr,48970.00002861023,Mon Aug 05 2024 15:13:57 GMT-0500 (Central Daylight Time),735039.9000000358,B,stor,O,r,157,1,682.8000000119209,734357.1000000238,7006,WL,B,8.0
6,11.396000146865845,distr,48603.999853134155,Mon Aug 05 2024 15:13:57 GMT-0500 (Central Daylight Time),735406.3000000119,B,storm,O,m,351,1,1049.199999988079,734357.1000000238,7006,WL,B,8.0
6,11.595999956130981,distr,48404.00004386902,Mon Aug 05 2024 15:13:57 GMT-0500 (Central Daylight Time),735606.5,B,stormenter,O,enter,192,1,1249.3999999761581,734357.1000000238,7006,WL,B,8.0
6,11.730000019073486,distr,48269.999980926514,Mon Aug 05 2024 15:13:57 GMT-0500 (Central Daylight Time),735739.9000000358,B,a,O,a,120,1,133.19999998807907,735606.7000000477,7006,WL,B,9.0
6,11.86300015449524,distr,48136.99984550476,Mon Aug 05 2024 15:13:57 GMT-0500 (Central Daylight Time),735872.9000000358,B,ar,O,r,115,1,266.19999998807907,735606.7000000477,7006,WL,B,9.0
6,12.02999997138977,distr,47970.00002861023,Mon Aug 05 2024 15:13:57 GMT-0500 (Central Daylight Time),736039.6000000238,B,arm,O,m,150,1,432.89999997615814,735606.7000000477,7006,WL,B,9.0
6,12.746000051498413,distr,47253.99994850159,Mon Aug 05 2024 15:13:57 GMT-0500 (Central Daylight Time),736756.2000000477,B,army,O,y,703,1,1149.5,735606.7000000477,7006,WL,B,9.0
6,12.996000051498413,distr,47003.99994850159,Mon Aug 05 2024 15:13:57 GMT-0500 (Central Daylight Time),737006.3000000119,B,armyenter,O,enter,243,1,1399.5999999642372,735606.7000000477,7006,WL,B,9.0
6,13.146000146865845,distr,46853.999853134155,Mon Aug 05 2024 15:13:57 GMT-0500 (Central Daylight Time),737155.8000000119,B,r,O,r,144,1,149.0999999642372,737006.7000000477,7006,WL,B,10.0
6,13.328999996185303,distr,46671.0000038147,Mon Aug 05 2024 15:13:57 GMT-0500 (Central Daylight Time),737339.3000000119,B,ro,O,o,163,1,332.5999999642372,737006.7000000477,7006,WL,B,10.0
6,13.496000051498413,distr,46503.99994850159,Mon Aug 05 2024 15:13:57 GMT-0500 (Central Daylight Time),737506.1000000238,B,roc,O,c,147,1,499.39999997615814,737006.7000000477,7006,WL,B,10.0
6,13.646000146865845,distr,46353.999853134155,Mon Aug 05 2024 15:13:57 GMT-0500 (Central Daylight Time),737655.8000000119,B,rock,O,k,132,1,649.0999999642372,737006.7000000477,7006,WL,B,10.0
6,13.962000131607056,distr,46037.999868392944,Mon Aug 05 2024 15:13:57 GMT-0500 (Central Daylight Time),737972.2000000477,B,rockenter,O,enter,311,1,965.5,737006.7000000477,7006,WL,B,10.0
6,15.894999980926514,distr,44105.000019073486,Mon Aug 05 2024 15:13:57 GMT-0500 (Central Daylight Time),739905.2000000477,B,f,O,f,1923,1,1932.7000000476837,737972.5,7006,WL,B,11.0
6,16.128000020980835,distr,43871.999979019165,Mon Aug 05 2024 15:13:57 GMT-0500 (Central Daylight Time),740138.4000000358,B,fr,O,r,213,1,2165.900000035763,737972.5,7006,WL,B,11.0
6,16.228000164031982,distr,43771.99983596802,Mon Aug 05 2024 15:13:57 GMT-0500 (Central Daylight Time),740238.4000000358,B,fri,O,i,84,1,2265.900000035763,737972.5,7006,WL,B,11.0
6,16.32800006866455,distr,43671.99993133545,Mon Aug 05 2024 15:13:57 GMT-0500 (Central Daylight Time),740338.2000000477,B,frie,O,e,80,1,2365.7000000476837,737972.5,7006,WL,B,11.0
6,16.462000131607056,distr,43537.999868392944,Mon Aug 05 2024 15:13:57 GMT-0500 (Central Daylight Time),740471.7000000477,B,frien,O,n,117,1,2499.2000000476837,737972.5,7006,WL,B,11.0
6,16.562000036239624,distr,43437.999963760376,Mon Aug 05 2024 15:13:57 GMT-0500 (Central Daylight Time),740571.6000000238,B,friend,O,d,95,1,2599.100000023842,737972.5,7006,WL,B,11.0
6,17.161999940872192,distr,42838.00005912781,Mon Aug 05 2024 15:13:57 GMT-0500 (Central Daylight Time),741171.5,B,friendenter,O,enter,579,1,3199.0,737972.5,7006,WL,B,11.0
6,28.60800004005432,distr,31391.99995994568,Mon Aug 05 2024 15:13:57 GMT-0500 (Central Daylight Time),752617.8000000119,B,enter,O,enter,11427,1,11446.0,741171.8000000119,7006,WL,B,12.0
6,28.924000024795532,distr,31075.999975204468,Mon Aug 05 2024 15:13:57 GMT-0500 (Central Daylight Time),752934.4000000358,B,enter,O,enter,308,1,316.19999998807907,752618.2000000477,7006,WL,B,13.0
6,29.258000135421753,distr,30741.999864578247,Mon Aug 05 2024 15:13:57 GMT-0500 (Central Daylight Time),753267.5,B,enter,O,enter,320,1,332.69999998807907,752934.8000000119,7006,WL,B,14.0
6,29.723999977111816,distr,30276.000022888184,Mon Aug 05 2024 15:13:57 GMT-0500 (Central Daylight Time),753734.1000000238,B,enter,O,enter,459,1,466.19999998807907,753267.9000000358,7006,WL,B,15.0
7,1.0999999046325684,immed,58900.00009536743,Mon Aug 05 2024 15:13:57 GMT-0500 (Central Daylight Time),769062.8000000119,A,s,O,s,1084,1,1099.3999999761581,767963.4000000358,7006,WL,B,1.0
7,1.3659999370574951,immed,58634.000062942505,Mon Aug 05 2024 15:13:57 GMT-0500 (Central Daylight Time),769329.2000000477,A,st,O,t,255,1,1365.800000011921,767963.4000000358,7006,WL,B,1.0
7,1.5499999523162842,immed,58450.000047683716,Mon Aug 05 2024 15:13:57 GMT-0500 (Central Daylight Time),769512.4000000358,A,str,O,r,173,1,1549.0,767963.4000000358,7006,WL,B,1.0
7,1.7990000247955322,immed,58200.99997520447,Mon Aug 05 2024 15:13:57 GMT-0500 (Central Daylight Time),769762.4000000358,A,stre,O,e,230,1,1799.0,767963.4000000358,7006,WL,B,1.0
7,1.9830000400543213,immed,58016.99995994568,Mon Aug 05 2024 15:13:57 GMT-0500 (Central Daylight Time),769945.8000000119,A,stree,O,e,164,1,1982.3999999761581,767963.4000000358,7006,WL,B,1.0
7,2.183000087738037,immed,57816.99991226196,Mon Aug 05 2024 15:13:57 GMT-0500 (Central Daylight Time),770145.5,A,street,O,t,181,1,2182.099999964237,767963.4000000358,7006,WL,B,1.0
7,2.433000087738037,immed,57566.99991226196,Mon Aug 05 2024 15:13:57 GMT-0500 (Central Daylight Time),770395.6000000238,A,streetenter,O,enter,245,1,2432.199999988079,767963.4000000358,7006,WL,B,1.0
7,3.680000066757202,immed,56319.9999332428,Mon Aug 05 2024 15:13:57 GMT-0500 (Central Daylight Time),771642.6000000238,A,d,O,d,1242,1,1246.800000011921,770395.8000000119,7006,WL,B,2.0
7,4.2820000648498535,immed,55717.99993515015,Mon Aug 05 2024 15:13:57 GMT-0500 (Central Daylight Time),772244.8000000119,A,do,O,o,588,1,1849.0,770395.8000000119,7006,WL,B,2.0
7,4.565000057220459,immed,55434.99994277954,Mon Aug 05 2024 15:13:57 GMT-0500 (Central Daylight Time),772528.2000000477,A,doo,O,o,274,1,2132.400000035763,770395.8000000119,7006,WL,B,2.0
7,4.697999954223633,immed,55302.00004577637,Mon Aug 05 2024 15:13:57 GMT-0500 (Central Daylight Time),772661.4000000358,A,door,O,r,126,1,2265.600000023842,770395.8000000119,7006,WL,B,2.0
7,4.948999881744385,immed,55051.000118255615,Mon Aug 05 2024 15:13:57 GMT-0500 (Central Daylight Time),772911.5,A,doorenter,O,enter,233,1,2515.699999988079,770395.8000000119,7006,WL,B,2.0
7,5.181999921798706,immed,54818.000078201294,Mon Aug 05 2024 15:13:57 GMT-0500 (Central Daylight Time),773144.7000000477,A,g,O,g,223,1,232.9000000357628,772911.8000000119,7006,WL,B,3.0
7,5.398000001907349,immed,54601.99999809265,Mon Aug 05 2024 15:13:57 GMT-0500 (Central Daylight Time),773361.1000000238,A,gr,O,r,205,1,449.30000001192093,772911.8000000119,7006,WL,B,3.0
7,5.5980000495910645,immed,54401.999950408936,Mon Aug 05 2024 15:13:57 GMT-0500 (Central Daylight Time),773561.3000000119,A,gra,O,a,189,1,649.5,772911.8000000119,7006,WL,B,3.0
7,5.865000009536743,immed,54134.99999046326,Mon Aug 05 2024 15:13:57 GMT-0500 (Central Daylight Time),773827.9000000358,A,gras,O,s,253,1,916.1000000238419,772911.8000000119,7006,WL,B,3.0
7,6.014999866485596,immed,53985.000133514404,Mon Aug 05 2024 15:13:57 GMT-0500 (Central Daylight Time),773977.7000000477,A,grass,O,s,130,1,1065.9000000357628,772911.8000000119,7006,WL,B,3.0
7,6.181999921798706,immed,53818.000078201294,Mon Aug 05 2024 15:13:57 GMT-0500 (Central Daylight Time),774144.6000000238,A,grassenter,O,enter,149,1,1232.800000011921,772911.8000000119,7006,WL,B,3.0
7,6.365000009536743,immed,53634.99999046326,Mon Aug 05 2024 15:13:57 GMT-0500 (Central Daylight Time),774327.6000000238,A,a,O,a,174,1,182.69999998807907,774144.9000000358,7006,WL,B,4.0
7,6.547999858856201,immed,53452.0001411438,Mon Aug 05 2024 15:13:57 GMT-0500 (Central Daylight Time),774511.0,A,ar,O,r,167,1,366.0999999642372,774144.9000000358,7006,WL,B,4.0
7,6.747999906539917,immed,53252.00009346008,Mon Aug 05 2024 15:13:57 GMT-0500 (Central Daylight Time),774710.8000000119,A,arm,O,m,183,1,565.8999999761581,774144.9000000358,7006,WL,B,4.0
7,7.197999954223633,immed,52802.00004577637,Mon Aug 05 2024 15:13:57 GMT-0500 (Central Daylight Time),775160.7000000477,A,armenter,O,enter,432,1,1015.8000000119209,774144.9000000358,7006,WL,B,4.0
7,7.480999946594238,immed,52519.00005340576,Mon Aug 05 2024 15:13:57 GMT-0500 (Central Daylight Time),775444.0,A,w,O,w,261,1,282.89999997615814,775161.1000000238,7006,WL,B,5.0
7,7.63100004196167,immed,52368.99995803833,Mon Aug 05 2024 15:13:57 GMT-0500 (Central Daylight Time),775594.0,A,wi,O,i,131,1,432.89999997615814,775161.1000000238,7006,WL,B,5.0
7,7.7809998989105225,immed,52219.00010108948,Mon Aug 05 2024 15:13:57 GMT-0500 (Central Daylight Time),775743.8000000119,A,win,O,n,141,1,582.6999999880791,775161.1000000238,7006,WL,B,5.0
7,7.930999994277954,immed,52069.000005722046,Mon Aug 05 2024 15:13:57 GMT-0500 (Central Daylight Time),775893.8000000119,A,wind,O,d,135,1,732.6999999880791,775161.1000000238,7006,WL,B,5.0
7,8.081000089645386,immed,51918.999910354614,Mon Aug 05 2024 15:13:57 GMT-0500 (Central Daylight Time),776043.9000000358,A,windo,O,o,137,1,882.8000000119209,775161.1000000238,7006,WL,B,5.0
7,8.280999898910522,immed,51719.00010108948,Mon Aug 05 2024 15:13:57 GMT-0500 (Central Daylight Time),776243.7000000477,A,window,O,w,195,1,1082.6000000238419,775161.1000000238,7006,WL,B,5.0
7,8.897000074386597,immed,51102.9999256134,Mon Aug 05 2024 15:13:57 GMT-0500 (Central Daylight Time),776860.1000000238,A,windowenter,O,enter,611,1,1699.0,775161.1000000238,7006,WL,B,5.0
7,9.27999997138977,immed,50720.00002861023,Mon Aug 05 2024 15:13:57 GMT-0500 (Central Daylight Time),777243.6000000238,A,w,O,w,362,1,383.30000001192093,776860.3000000119,7006,WL,B,6.0
7,9.412999868392944,immed,50587.000131607056,Mon Aug 05 2024 15:13:57 GMT-0500 (Central Daylight Time),777376.7000000477,A,wi,O,i,123,1,516.4000000357628,776860.3000000119,7006,WL,B,6.0
7,9.596999883651733,immed,50403.00011634827,Mon Aug 05 2024 15:13:57 GMT-0500 (Central Daylight Time),777560.1000000238,A,wif,O,f,166,1,699.8000000119209,776860.3000000119,7006,WL,B,6.0
7,9.713000059127808,immed,50286.99994087219,Mon Aug 05 2024 15:13:57 GMT-0500 (Central Daylight Time),777676.5,A,wife,O,e,110,1,816.1999999880791,776860.3000000119,7006,WL,B,6.0
7,9.980000019073486,immed,50019.999980926514,Mon Aug 05 2024 15:13:57 GMT-0500 (Central Daylight Time),777943.3000000119,A,wifeenter,O,enter,250,1,1083.0,776860.3000000119,7006,WL,B,6.0
7,10.879999876022339,immed,49120.00012397766,Mon Aug 05 2024 15:13:57 GMT-0500 (Central Daylight Time),778842.9000000358,A,s,O,s,886,1,899.1999999880791,777943.7000000477,7006,WL,B,7.0
7,11.095999956130981,immed,48904.00004386902,Mon Aug 05 2024 15:13:57 GMT-0500 (Central Daylight Time),779059.6000000238,A,st,O,t,196,1,1115.8999999761581,777943.7000000477,7006,WL,B,7.0
7,11.246000051498413,immed,48753.99994850159,Mon Aug 05 2024 15:13:57 GMT-0500 (Central Daylight Time),779209.4000000358,A,sta,O,a,139,1,1265.699999988079,777943.7000000477,7006,WL,B,7.0
7,11.395999908447266,immed,48604.000091552734,Mon Aug 05 2024 15:13:57 GMT-0500 (Central Daylight Time),779359.3000000119,A,star,O,r,133,1,1415.5999999642372,777943.7000000477,7006,WL,B,7.0
7,11.878999948501587,immed,48121.00005149841,Mon Aug 05 2024 15:13:57 GMT-0500 (Central Daylight Time),779842.5,A,starenter,O,enter,471,1,1898.7999999523163,777943.7000000477,7006,WL,B,7.0
7,14.277999877929688,immed,45722.00012207031,Mon Aug 05 2024 15:13:57 GMT-0500 (Central Daylight Time),782241.7000000477,A,p,O,p,2388,1,2398.800000011921,779842.9000000358,7006,WL,B,8.0
7,14.477999925613403,immed,45522.0000743866,Mon Aug 05 2024 15:13:57 GMT-0500 (Central Daylight Time),782441.8000000119,A,pu,O,u,180,1,2598.899999976158,779842.9000000358,7006,WL,B,8.0
7,14.611999988555908,immed,45388.00001144409,Mon Aug 05 2024 15:13:57 GMT-0500 (Central Daylight Time),782575.1000000238,A,pup,O,p,125,1,2732.199999988079,779842.9000000358,7006,WL,B,8.0
7,14.878000020980835,immed,45121.999979019165,Mon Aug 05 2024 15:13:57 GMT-0500 (Central Daylight Time),782841.6000000238,A,pupi,O,i,256,1,2998.699999988079,779842.9000000358,7006,WL,B,8.0
7,15.01200008392334,immed,44987.99991607666,Mon Aug 05 2024 15:13:57 GMT-0500 (Central Daylight Time),782975.0,A,pupil,O,l,117,1,3132.099999964237,779842.9000000358,7006,WL,B,8.0
7,15.295000076293945,immed,44704.999923706055,Mon Aug 05 2024 15:13:57 GMT-0500 (Central Daylight Time),783258.0,A,pupilenter,O,enter,264,1,3415.099999964237,779842.9000000358,7006,WL,B,8.0
7,15.477999925613403,immed,44522.0000743866,Mon Aug 05 2024 15:13:57 GMT-0500 (Central Daylight Time),783441.5,A,c,O,c,165,1,183.0999999642372,783258.4000000358,7006,WL,B,9.0
7,15.66100001335144,immed,44338.99998664856,Mon Aug 05 2024 15:13:57 GMT-0500 (Central Daylight Time),783624.8000000119,A,ci,O,i,165,1,366.39999997615814,783258.4000000358,7006,WL,B,9.0
7,15.84500002861023,immed,44154.99997138977,Mon Aug 05 2024 15:13:57 GMT-0500 (Central Daylight Time),783808.1000000238,A,cit,O,t,174,1,549.6999999880791,783258.4000000358,7006,WL,B,9.0
7,16.043999910354614,immed,43956.000089645386,Mon Aug 05 2024 15:13:57 GMT-0500 (Central Daylight Time),784007.7000000477,A,city,O,y,183,1,749.3000000119209,783258.4000000358,7006,WL,B,9.0
7,16.394999980926514,immed,43605.000019073486,Mon Aug 05 2024 15:13:57 GMT-0500 (Central Daylight Time),784357.9000000358,A,cityenter,O,enter,335,1,1099.5,783258.4000000358,7006,WL,B,9.0
7,17.194000005722046,immed,42805.999994277954,Mon Aug 05 2024 15:13:57 GMT-0500 (Central Daylight Time),785157.6000000238,A,c,O,c,784,1,799.1999999880791,784358.4000000358,7006,WL,B,10.0
7,17.361000061035156,immed,42638.999938964844,Mon Aug 05 2024 15:13:57 GMT-0500 (Central Daylight Time),785324.1000000238,A,ca,O,a,161,1,965.6999999880791,784358.4000000358,7006,WL,B,10.0
7,17.560999870300293,immed,42439.00012969971,Mon Aug 05 2024 15:13:57 GMT-0500 (Central Daylight Time),785524.0,A,cab,O,b,187,1,1165.5999999642372,784358.4000000358,7006,WL,B,10.0
7,17.727999925613403,immed,42272.0000743866,Mon Aug 05 2024 15:13:57 GMT-0500 (Central Daylight Time),785690.9000000358,A,cabi,O,i,147,1,1332.5,784358.4000000358,7006,WL,B,10.0
7,17.8439998626709,immed,42156.0001373291,Mon Aug 05 2024 15:13:57 GMT-0500 (Central Daylight Time),785807.3000000119,A,cabin,O,n,100,1,1448.8999999761581,784358.4000000358,7006,WL,B,10.0
7,18.0939998626709,immed,41906.0001373291,Mon Aug 05 2024 15:13:57 GMT-0500 (Central Daylight Time),786057.3000000119,A,cabinenter,O,enter,239,1,1698.8999999761581,784358.4000000358,7006,WL,B,10.0
7,18.776999950408936,immed,41223.000049591064,Mon Aug 05 2024 15:13:57 GMT-0500 (Central Daylight Time),786740.3000000119,A,l,O,l,678,1,682.5999999642372,786057.7000000477,7006,WL,B,11.0
7,18.960999965667725,immed,41039.000034332275,Mon Aug 05 2024 15:13:57 GMT-0500 (Central Daylight Time),786923.9000000358,A,la,O,a,170,1,866.1999999880791,786057.7000000477,7006,WL,B,11.0
7,19.526999950408936,immed,40473.000049591064,Mon Aug 05 2024 15:13:57 GMT-0500 (Central Daylight Time),787490.3000000119,A,lak,O,k,547,1,1432.5999999642372,786057.7000000477,7006,WL,B,11.0
7,19.677000045776367,immed,40322.99995422363,Mon Aug 05 2024 15:13:57 GMT-0500 (Central Daylight Time),787640.3000000119,A,lake,O,e,132,1,1582.5999999642372,786057.7000000477,7006,WL,B,11.0
7,19.960000038146973,immed,40039.99996185303,Mon Aug 05 2024 15:13:57 GMT-0500 (Central Daylight Time),787923.6000000238,A,lakeenter,O,enter,271,1,1865.8999999761581,786057.7000000477,7006,WL,B,11.0
7,20.47699999809265,immed,39523.00000190735,Mon Aug 05 2024 15:13:57 GMT-0500 (Central Daylight Time),788439.9000000358,A,p,O,p,507,1,516.0,787923.9000000358,7006,WL,B,12.0
7,20.72699999809265,immed,39273.00000190735,Mon Aug 05 2024 15:13:57 GMT-0500 (Central Daylight Time),788689.8000000119,A,pi,O,i,239,1,765.8999999761581,787923.9000000358,7006,WL,B,12.0
7,20.943000078201294,immed,39056.999921798706,Mon Aug 05 2024 15:13:57 GMT-0500 (Central Daylight Time),788906.3000000119,A,pip,O,p,197,1,982.3999999761581,787923.9000000358,7006,WL,B,12.0
7,21.092999935150146,immed,38907.00006484985,Mon Aug 05 2024 15:13:57 GMT-0500 (Central Daylight Time),789056.3000000119,A,pipe,O,e,132,1,1132.3999999761581,787923.9000000358,7006,WL,B,12.0
7,21.30999994277954,immed,38690.00005722046,Mon Aug 05 2024 15:13:57 GMT-0500 (Central Daylight Time),789273.2000000477,A,pipeenter,O,enter,207,1,1349.300000011921,787923.9000000358,7006,WL,B,12.0
7,22.009000062942505,immed,37990.999937057495,Mon Aug 05 2024 15:13:57 GMT-0500 (Central Daylight Time),789972.8000000119,A,s,O,s,686,1,699.3000000119209,789273.5,7006,WL,B,13.0
7,22.125999927520752,immed,37874.00007247925,Mon Aug 05 2024 15:13:57 GMT-0500 (Central Daylight Time),790089.4000000358,A,sk,O,k,106,1,815.9000000357628,789273.5,7006,WL,B,13.0
7,22.342999935150146,immed,37657.00006484985,Mon Aug 05 2024 15:13:57 GMT-0500 (Central Daylight Time),790306.0,A,ski,O,i,205,1,1032.5,789273.5,7006,WL,B,13.0
7,22.425999879837036,immed,37574.000120162964,Mon Aug 05 2024 15:13:57 GMT-0500 (Central Daylight Time),790389.2000000477,A,skin,O,n,77,1,1115.7000000476837,789273.5,7006,WL,B,13.0
7,22.79200005531311,immed,37207.99994468689,Mon Aug 05 2024 15:13:57 GMT-0500 (Central Daylight Time),790755.6000000238,A,skinenter,O,enter,362,1,1482.1000000238419,789273.5,7006,WL,B,13.0
7,23.29200005531311,immed,36707.99994468689,Mon Aug 05 2024 15:13:57 GMT-0500 (Central Daylight Time),791255.6000000238,A,f,O,f,483,1,499.80000001192093,790755.8000000119,7006,WL,B,14.0
7,23.408999919891357,immed,36591.00008010864,Mon Aug 05 2024 15:13:57 GMT-0500 (Central Daylight Time),791372.1000000238,A,fi,O,i,103,1,616.3000000119209,790755.8000000119,7006,WL,B,14.0
