acc_sum,block,block_c,block_cond,con_img,correct,correct_response,datetime,endtime,face,jitter,line,project,response,response_time,row_sel,session_number,start_end,starttime,subject_id,task,task_vers,trial
1,prac,1,A,haborder.png,1,m,Fri Jun 05 2026 13:40:18 GMT-0400 (Eastern Daylight Time),68270.0,CFD-WM-035-036-HC.jpg,1700,solid,I,m,948,9,1,3433.6000000089407,64836.39999999106,9087,ATS,C,1
2,prac,1,A,haborder.png,1,m,Fri Jun 05 2026 13:40:18 GMT-0400 (Eastern Daylight Time),71253.19999998808,CFD-BM-022-004-HC.jpg,1500,solid,I,m,691,3,1,6416.79999999702,64836.39999999106,9087,ATS,C,2
3,prac,1,A,haborder.png,1,m,Fri Jun 05 2026 13:40:18 GMT-0400 (Eastern Daylight Time),74253.19999998808,CFD-WF-013-009-HC.jpg,1500,solid,I,m,715,11,1,9416.79999999702,64836.39999999106,9087,ATS,C,3
4,prac,1,A,haborder.png,1,z,Fri Jun 05 2026 13:40:18 GMT-0400 (Eastern Daylight Time),77103.09999999404,CFD-BF-002-018-A.jpg,1200,solid,I,z,863,6,1,12266.70000000298,64836.39999999106,9087,ATS,C,4
5,prac,1,A,haborder.png,1,z,Fri Jun 05 2026 13:40:18 GMT-0400 (Eastern Daylight Time),79503.09999999404,CFD-WF-023-013-A.jpg,1000,solid,I,z,613,12,1,14666.70000000298,64836.39999999106,9087,ATS,C,5
6,prac,1,A,haborder.png,1,m,Fri Jun 05 2026 13:40:18 GMT-0400 (Eastern Daylight Time),83086.39999999106,CFD-BF-019-004-HC.jpg,2000,solid,I,m,798,5,1,18250.0,64836.39999999106,9087,ATS,C,6
7,prac,1,A,haborder.png,1,z,Fri Jun 05 2026 13:40:18 GMT-0400 (Eastern Daylight Time),85552.89999999106,CFD-BF-031-020-A.jpg,1000,solid,I,z,679,4,1,20716.5,64836.39999999106,9087,ATS,C,7
8,prac,1,A,haborder.png,1,z,Fri Jun 05 2026 13:40:18 GMT-0400 (Eastern Daylight Time),88653.09999999404,CFD-WF-037-016-A.jpg,1600,solid,I,z,715,10,1,23816.70000000298,64836.39999999106,9087,ATS,C,8
9,prac,1,A,haborder.png,1,m,Fri Jun 05 2026 13:40:18 GMT-0400 (Eastern Daylight Time),91503.0,CFD-WM-028-005-HC.jpg,1400,solid,I,m,663,7,1,26666.60000000894,64836.39999999106,9087,ATS,C,9
10,prac,1,A,haborder.png,1,z,Fri Jun 05 2026 13:40:18 GMT-0400 (Eastern Daylight Time),94669.69999998808,CFD-BM-043-014-A.jpg,1600,solid,I,z,781,2,1,29833.29999999702,64836.39999999106,9087,ATS,C,10
11,prac,1,A,haborder.png,1,m,Fri Jun 05 2026 13:40:18 GMT-0400 (Eastern Daylight Time),97886.5,CFD-BM-034-035-HC.jpg,1700,solid,I,m,731,1,1,33050.10000000894,64836.39999999106,9087,ATS,C,11
12,prac,1,A,haborder.png,1,z,Fri Jun 05 2026 13:40:18 GMT-0400 (Eastern Daylight Time),101653.0,CFD-WM-036-018-A.jpg,1900,solid,I,z,1074,8,1,36816.60000000894,64836.39999999106,9087,ATS,C,12
1,prac,1,B,mfborder.png,1,m,Fri Jun 05 2026 13:40:18 GMT-0400 (Eastern Daylight Time),140569.69999998808,CFD-BM-022-004-HC.jpg,1700,1,I,m,869,dash,1,3366.8999999910593,137202.79999999702,9087,ATS,C,1
2,prac,1,B,mfborder.png,1,z,Fri Jun 05 2026 13:40:18 GMT-0400 (Eastern Daylight Time),143086.29999999702,CFD-WF-013-009-HC.jpg,1000,12,I,z,731,dash,1,5883.5,137202.79999999702,9087,ATS,C,2
3,prac,1,B,mfborder.png,1,z,Fri Jun 05 2026 13:40:18 GMT-0400 (Eastern Daylight Time),146486.29999999702,CFD-WF-001-010-HC.jpg,1900,8,I,z,706,dash,1,9283.5,137202.79999999702,9087,ATS,C,3
4,prac,1,B,mfborder.png,1,z,Fri Jun 05 2026 13:40:18 GMT-0400 (Eastern Daylight Time),149635.59999999404,CFD-WF-037-016-A.jpg,1500,11,I,z,858,dash,1,12432.79999999702,137202.79999999702,9087,ATS,C,4
4,prac,1,B,mfborder.png,0,m,Fri Jun 05 2026 13:40:18 GMT-0400 (Eastern Daylight Time),153052.89999999106,CFD-WM-036-018-A.jpg,1700,9,I,z,916,dash,1,15850.09999999404,137202.79999999702,9087,ATS,C,5
5,prac,1,B,mfborder.png,1,m,Fri Jun 05 2026 13:40:18 GMT-0400 (Eastern Daylight Time),156053.0,CFD-BM-021-026-A.jpg,1600,2,I,m,607,dash,1,18850.20000000298,137202.79999999702,9087,ATS,C,6
6,prac,1,B,mfborder.png,1,m,Fri Jun 05 2026 13:40:18 GMT-0400 (Eastern Daylight Time),159403.0,CFD-BM-043-014-A.jpg,2000,5,I,m,551,dash,1,22200.20000000298,137202.79999999702,9087,ATS,C,7
7,prac,1,B,mfborder.png,1,z,Fri Jun 05 2026 13:40:18 GMT-0400 (Eastern Daylight Time),162652.89999999106,CFD-BF-019-004-HC.jpg,1400,7,I,z,1065,dash,1,25450.09999999404,137202.79999999702,9087,ATS,C,8
8,prac,1,B,mfborder.png,1,z,Fri Jun 05 2026 13:40:18 GMT-0400 (Eastern Daylight Time),165119.69999998808,CFD-BF-031-020-A.jpg,1000,4,I,z,679,dash,1,27916.89999999106,137202.79999999702,9087,ATS,C,9
9,prac,1,B,mfborder.png,1,m,Fri Jun 05 2026 13:40:18 GMT-0400 (Eastern Daylight Time),168186.19999998808,CFD-WM-035-036-HC.jpg,1600,10,I,m,669,dash,1,30983.39999999106,137202.79999999702,9087,ATS,C,10
10,prac,1,B,mfborder.png,1,z,Fri Jun 05 2026 13:40:18 GMT-0400 (Eastern Daylight Time),171702.89999999106,CFD-BF-042-031-HC.jpg,1500,3,I,z,1222,dash,1,34500.09999999404,137202.79999999702,9087,ATS,C,11
11,prac,1,B,mfborder.png,1,m,Fri Jun 05 2026 13:40:18 GMT-0400 (Eastern Daylight Time),174336.29999999702,CFD-WM-034-040-A.jpg,1200,6,I,m,645,dash,1,37133.5,137202.79999999702,9087,ATS,C,12
1,test,1,A,haborder.png,1,m,Fri Jun 05 2026 13:40:18 GMT-0400 (Eastern Daylight Time),194019.59999999404,CFD-BM-034-035-HC.jpg,1700,solid,I,m,927,1,1,2650.4000000059605,191369.19999998808,9087,ATS,C,1
1,test,1,A,haborder.png,0,z,Fri Jun 05 2026 13:40:18 GMT-0400 (Eastern Daylight Time),196752.89999999106,CFD-BF-002-018-A.jpg,1200,solid,I,None,1516,6,1,5383.70000000298,191369.19999998808,9087,ATS,C,2
2,test,1,A,haborder.png,1,m,Fri Jun 05 2026 13:40:18 GMT-0400 (Eastern Daylight Time),199219.09999999404,CFD-BM-034-035-HC.jpg,1700,solid,I,m,744,1,1,7849.9000000059605,191369.19999998808,9087,ATS,C,3
3,test,1,A,haborder.png,1,z,Fri Jun 05 2026 13:40:18 GMT-0400 (Eastern Daylight Time),201502.59999999404,CFD-BM-043-014-A.jpg,1600,solid,I,z,665,2,1,10133.40000000596,191369.19999998808,9087,ATS,C,4
4,test,1,A,haborder.png,1,z,Fri Jun 05 2026 13:40:18 GMT-0400 (Eastern Daylight Time),203202.69999998808,CFD-WF-023-013-A.jpg,1000,solid,I,z,678,12,1,11833.5,191369.19999998808,9087,ATS,C,5
5,test,1,A,haborder.png,1,m,Fri Jun 05 2026 13:40:18 GMT-0400 (Eastern Daylight Time),205636.0,CFD-WM-035-036-HC.jpg,1700,solid,I,m,710,9,1,14266.800000011921,191369.19999998808,9087,ATS,C,6
6,test,1,A,haborder.png,1,z,Fri Jun 05 2026 13:40:18 GMT-0400 (Eastern Daylight Time),207486.19999998808,CFD-WF-023-013-A.jpg,1000,solid,I,z,832,12,1,16117.0,191369.19999998808,9087,ATS,C,7
7,test,1,A,haborder.png,1,z,Fri Jun 05 2026 13:40:18 GMT-0400 (Eastern Daylight Time),209486.29999999702,CFD-BF-002-018-A.jpg,1200,solid,I,z,783,6,1,18117.10000000894,191369.19999998808,9087,ATS,C,8
8,test,1,A,haborder.png,1,m,Fri Jun 05 2026 13:40:18 GMT-0400 (Eastern Daylight Time),211636.09999999404,CFD-WM-028-005-HC.jpg,1400,solid,I,m,726,7,1,20266.90000000596,191369.19999998808,9087,ATS,C,9
9,test,1,A,haborder.png,1,m,Fri Jun 05 2026 13:40:18 GMT-0400 (Eastern Daylight Time),213819.39999999106,CFD-BM-022-004-HC.jpg,1500,solid,I,m,652,3,1,22450.20000000298,191369.19999998808,9087,ATS,C,10
10,test,1,A,haborder.png,1,z,Fri Jun 05 2026 13:40:18 GMT-0400 (Eastern Daylight Time),216086.0,CFD-WF-037-016-A.jpg,1600,solid,I,z,641,10,1,24716.80000001192,191369.19999998808,9087,ATS,C,11
11,test,1,A,haborder.png,1,m,Fri Jun 05 2026 13:40:18 GMT-0400 (Eastern Daylight Time),218369.29999999702,CFD-WM-028-005-HC.jpg,1400,solid,I,m,863,7,1,27000.10000000894,191369.19999998808,9087,ATS,C,12
12,test,1,A,haborder.png,1,m,Fri Jun 05 2026 13:40:18 GMT-0400 (Eastern Daylight Time),220919.29999999702,CFD-WF-013-009-HC.jpg,1500,solid,I,m,1023,11,1,29550.10000000894,191369.19999998808,9087,ATS,C,13
13,test,1,A,haborder.png,1,m,Fri Jun 05 2026 13:40:18 GMT-0400 (Eastern Daylight Time),223835.89999999106,CFD-BF-019-004-HC.jpg,2000,solid,I,m,885,5,1,32466.70000000298,191369.19999998808,9087,ATS,C,14
14,test,1,A,haborder.png,1,m,Fri Jun 05 2026 13:40:18 GMT-0400 (Eastern Daylight Time),226236.0,CFD-WM-035-036-HC.jpg,1700,solid,I,m,668,9,1,34866.80000001192,191369.19999998808,9087,ATS,C,15
15,test,1,A,haborder.png,1,z,Fri Jun 05 2026 13:40:18 GMT-0400 (Eastern Daylight Time),229386.0,CFD-WM-036-018-A.jpg,1900,solid,I,z,1220,8,1,38016.80000001192,191369.19999998808,9087,ATS,C,16
16,test,1,A,haborder.png,1,m,Fri Jun 05 2026 13:40:18 GMT-0400 (Eastern Daylight Time),231519.09999999404,CFD-BM-022-004-HC.jpg,1500,solid,I,m,614,3,1,40149.90000000596,191369.19999998808,9087,ATS,C,17
17,test,1,A,haborder.png,1,z,Fri Jun 05 2026 13:40:18 GMT-0400 (Eastern Daylight Time),234169.29999999702,CFD-WM-036-018-A.jpg,1900,solid,I,z,721,8,1,42800.10000000894,191369.19999998808,9087,ATS,C,18
18,test,1,A,haborder.png,1,m,Fri Jun 05 2026 13:40:18 GMT-0400 (Eastern Daylight Time),236936.09999999404,CFD-BF-019-004-HC.jpg,2000,solid,I,m,739,5,1,45566.90000000596,191369.19999998808,9087,ATS,C,19
19,test,1,A,haborder.png,1,z,Fri Jun 05 2026 13:40:18 GMT-0400 (Eastern Daylight Time),239336.0,CFD-WF-037-016-A.jpg,1600,solid,I,z,772,10,1,47966.80000001192,191369.19999998808,9087,ATS,C,20
20,test,1,A,haborder.png,1,m,Fri Jun 05 2026 13:40:18 GMT-0400 (Eastern Daylight Time),241802.69999998808,CFD-WF-013-009-HC.jpg,1500,solid,I,m,937,11,1,50433.5,191369.19999998808,9087,ATS,C,21
21,test,1,A,haborder.png,1,z,Fri Jun 05 2026 13:40:18 GMT-0400 (Eastern Daylight Time),243635.89999999106,CFD-BF-031-020-A.jpg,1000,solid,I,z,810,4,1,52266.70000000298,191369.19999998808,9087,ATS,C,22
22,test,1,A,haborder.png,1,z,Fri Jun 05 2026 13:40:18 GMT-0400 (Eastern Daylight Time),246069.29999999702,CFD-BM-043-014-A.jpg,1600,solid,I,z,809,2,1,54700.10000000894,191369.19999998808,9087,ATS,C,23
23,test,1,A,haborder.png,1,z,Fri Jun 05 2026 13:40:18 GMT-0400 (Eastern Daylight Time),248202.59999999404,CFD-BF-031-020-A.jpg,1000,solid,I,z,1102,4,1,56833.40000000596,191369.19999998808,9087,ATS,C,24
1,test,1,B,mfborder.png,1,z,Fri Jun 05 2026 13:40:18 GMT-0400 (Eastern Daylight Time),268019.299999997,CFD-WF-013-009-HC.jpg,1000,dash,I,z,927,12,1,1950.0,266069.299999997,9087,ATS,C,1
2,test,1,B,mfborder.png,1,m,Fri Jun 05 2026 13:40:18 GMT-0400 (Eastern Daylight Time),270902.6999999881,CFD-BM-043-014-A.jpg,2000,dash,I,m,857,5,1,4833.399999991059,266069.299999997,9087,ATS,C,2
3,test,1,B,mfborder.png,1,z,Fri Jun 05 2026 13:40:18 GMT-0400 (Eastern Daylight Time),273086.0,CFD-BF-019-004-HC.jpg,1400,dash,I,z,766,7,1,7016.70000000298,266069.299999997,9087,ATS,C,3
4,test,1,B,mfborder.png,1,m,Fri Jun 05 2026 13:40:18 GMT-0400 (Eastern Daylight Time),276069.299999997,CFD-BM-021-026-A.jpg,1600,dash,I,m,1357,2,1,10000.0,266069.299999997,9087,ATS,C,4
5,test,1,B,mfborder.png,1,m,Fri Jun 05 2026 13:40:18 GMT-0400 (Eastern Daylight Time),278019.299999997,CFD-WM-034-040-A.jpg,1200,dash,I,m,727,6,1,11950.0,266069.299999997,9087,ATS,C,5
6,test,1,B,mfborder.png,1,z,Fri Jun 05 2026 13:40:18 GMT-0400 (Eastern Daylight Time),280186.0,CFD-WF-037-016-A.jpg,1500,dash,I,z,637,11,1,14116.70000000298,266069.299999997,9087,ATS,C,6
7,test,1,B,mfborder.png,1,m,Fri Jun 05 2026 13:40:18 GMT-0400 (Eastern Daylight Time),282602.59999999404,CFD-BM-022-004-HC.jpg,1700,dash,I,m,685,1,1,16533.29999999702,266069.299999997,9087,ATS,C,7
8,test,1,B,mfborder.png,1,z,Fri Jun 05 2026 13:40:18 GMT-0400 (Eastern Daylight Time),284602.59999999404,CFD-BF-019-004-HC.jpg,1400,dash,I,z,569,7,1,18533.29999999702,266069.299999997,9087,ATS,C,8
9,test,1,B,mfborder.png,1,m,Fri Jun 05 2026 13:40:18 GMT-0400 (Eastern Daylight Time),286885.89999999106,CFD-WM-035-036-HC.jpg,1600,dash,I,m,657,10,1,20816.59999999404,266069.299999997,9087,ATS,C,9
10,test,1,B,mfborder.png,1,m,Fri Jun 05 2026 13:40:18 GMT-0400 (Eastern Daylight Time),289602.6999999881,CFD-BM-043-014-A.jpg,2000,dash,I,m,695,5,1,23533.39999999106,266069.299999997,9087,ATS,C,10
11,test,1,B,mfborder.png,1,z,Fri Jun 05 2026 13:40:18 GMT-0400 (Eastern Daylight Time),291335.89999999106,CFD-BF-031-020-A.jpg,1000,dash,I,z,707,4,1,25266.59999999404,266069.299999997,9087,ATS,C,11
12,test,1,B,mfborder.png,1,m,Fri Jun 05 2026 13:40:18 GMT-0400 (Eastern Daylight Time),293985.89999999106,CFD-BM-021-026-A.jpg,1600,dash,I,m,1027,2,1,27916.59999999404,266069.299999997,9087,ATS,C,12
13,test,1,B,mfborder.png,1,m,Fri Jun 05 2026 13:40:18 GMT-0400 (Eastern Daylight Time),295919.09999999404,CFD-WM-034-040-A.jpg,1200,dash,I,m,713,6,1,29849.79999999702,266069.299999997,9087,ATS,C,13
14,test,1,B,mfborder.png,1,z,Fri Jun 05 2026 13:40:18 GMT-0400 (Eastern Daylight Time),298335.6999999881,CFD-WF-001-010-HC.jpg,1900,dash,I,z,496,8,1,32266.39999999106,266069.299999997,9087,ATS,C,14
15,test,1,B,mfborder.png,1,z,Fri Jun 05 2026 13:40:18 GMT-0400 (Eastern Daylight Time),300602.59999999404,CFD-BF-042-031-HC.jpg,1500,dash,I,z,736,3,1,34533.29999999702,266069.299999997,9087,ATS,C,15
16,test,1,B,mfborder.png,1,m,Fri Jun 05 2026 13:40:18 GMT-0400 (Eastern Daylight Time),303069.09999999404,CFD-WM-035-036-HC.jpg,1600,dash,I,m,833,10,1,36999.79999999702,266069.299999997,9087,ATS,C,16
17,test,1,B,mfborder.png,1,z,Fri Jun 05 2026 13:40:18 GMT-0400 (Eastern Daylight Time),305419.299999997,CFD-BF-042-031-HC.jpg,1500,dash,I,z,818,3,1,39350.0,266069.299999997,9087,ATS,C,17
18,test,1,B,mfborder.png,1,z,Fri Jun 05 2026 13:40:18 GMT-0400 (Eastern Daylight Time),307886.09999999404,CFD-WF-001-010-HC.jpg,1900,dash,I,z,549,8,1,41816.79999999702,266069.299999997,9087,ATS,C,18
19,test,1,B,mfborder.png,1,z,Fri Jun 05 2026 13:40:18 GMT-0400 (Eastern Daylight Time),309719.299999997,CFD-BF-031-020-A.jpg,1000,dash,I,z,805,4,1,43650.0,266069.299999997,9087,ATS,C,19
20,test,1,B,mfborder.png,1,z,Fri Jun 05 2026 13:40:18 GMT-0400 (Eastern Daylight Time),311918.89999999106,CFD-WF-037-016-A.jpg,1500,dash,I,z,681,11,1,45849.59999999404,266069.299999997,9087,ATS,C,20
21,test,1,B,mfborder.png,1,m,Fri Jun 05 2026 13:40:18 GMT-0400 (Eastern Daylight Time),314435.89999999106,CFD-BM-022-004-HC.jpg,1700,dash,I,m,792,1,1,48366.59999999404,266069.299999997,9087,ATS,C,21
22,test,1,B,mfborder.png,1,m,Fri Jun 05 2026 13:40:18 GMT-0400 (Eastern Daylight Time),317052.5,CFD-WM-036-018-A.jpg,1700,dash,I,m,884,9,1,50983.20000000298,266069.299999997,9087,ATS,C,22
23,test,1,B,mfborder.png,1,m,Fri Jun 05 2026 13:40:18 GMT-0400 (Eastern Daylight Time),319585.89999999106,CFD-WM-036-018-A.jpg,1700,dash,I,m,811,9,1,53516.59999999404,266069.299999997,9087,ATS,C,23
24,test,1,B,mfborder.png,1,z,Fri Jun 05 2026 13:40:18 GMT-0400 (Eastern Daylight Time),321285.799999997,CFD-WF-013-009-HC.jpg,1000,dash,I,z,674,12,1,55216.5,266069.299999997,9087,ATS,C,24
1,prac,1,C,haborder.png,1,m,Fri Jun 05 2026 13:40:18 GMT-0400 (Eastern Daylight Time),359436.0,CFD-WM-028-005-HC.jpg,1400,solid,I,m,883,12,1,3083.6000000089407,356352.39999999106,9087,ATS,C,1
1,prac,1,C,haborder.png,0,z,Fri Jun 05 2026 13:40:18 GMT-0400 (Eastern Daylight Time),363119.1999999881,CFD-BF-002-018-A.jpg,1700,solid,I,m,1196,12,1,6766.79999999702,356352.39999999106,9087,ATS,C,2
1,prac,1,C,mfborder.png,0,m,Fri Jun 05 2026 13:40:18 GMT-0400 (Eastern Daylight Time),367119.09999999404,CFD-WM-036-018-A.jpg,1700,solid,I,None,1516,12,1,10766.70000000298,356352.39999999106,9087,ATS,C,3
2,prac,1,C,haborder.png,1,z,Fri Jun 05 2026 13:40:18 GMT-0400 (Eastern Daylight Time),370802.5,CFD-BF-031-020-A.jpg,1900,dash,I,z,993,12,1,14450.10000000894,356352.39999999106,9087,ATS,C,4
3,prac,1,C,haborder.png,1,z,Fri Jun 05 2026 13:40:18 GMT-0400 (Eastern Daylight Time),374035.89999999106,CFD-WF-037-016-A.jpg,1600,dash,I,z,841,12,1,17683.5,356352.39999999106,9087,ATS,C,5
4,prac,1,C,mfborder.png,1,z,Fri Jun 05 2026 13:40:18 GMT-0400 (Eastern Daylight Time),377002.59999999404,CFD-BF-019-004-HC.jpg,1000,dash,I,z,1169,12,1,20650.20000000298,356352.39999999106,9087,ATS,C,6
5,prac,1,C,mfborder.png,1,m,Fri Jun 05 2026 13:40:18 GMT-0400 (Eastern Daylight Time),380302.5,CFD-BM-043-014-A.jpg,1200,dash,I,m,1314,12,1,23950.10000000894,356352.39999999106,9087,ATS,C,7
5,prac,1,C,mfborder.png,0,z,Fri Jun 05 2026 13:40:18 GMT-0400 (Eastern Daylight Time),384102.39999999106,CFD-WF-023-013-A.jpg,1500,solid,I,None,1516,12,1,27750.0,356352.39999999106,9087,ATS,C,8
6,prac,1,C,haborder.png,1,m,Fri Jun 05 2026 13:40:18 GMT-0400 (Eastern Daylight Time),386702.5,CFD-WM-028-005-HC.jpg,1000,dash,I,m,813,12,1,30350.10000000894,356352.39999999106,9087,ATS,C,9
7,prac,1,C,haborder.png,1,m,Fri Jun 05 2026 13:40:18 GMT-0400 (Eastern Daylight Time),389852.39999999106,CFD-BM-022-004-HC.jpg,1500,solid,I,m,849,12,1,33500.0,356352.39999999106,9087,ATS,C,10
8,prac,1,C,mfborder.png,1,m,Fri Jun 05 2026 13:40:18 GMT-0400 (Eastern Daylight Time),393552.5,CFD-BM-034-035-HC.jpg,2000,solid,I,m,912,12,1,37200.10000000894,356352.39999999106,9087,ATS,C,11
8,prac,1,C,mfborder.png,0,z,Fri Jun 05 2026 13:40:18 GMT-0400 (Eastern Daylight Time),397452.5,CFD-WF-013-009-HC.jpg,1600,dash,I,None,1516,12,1,41100.10000000894,356352.39999999106,9087,ATS,C,12
1,test,1,C,haborder.png,1,m,Fri Jun 05 2026 13:40:18 GMT-0400 (Eastern Daylight Time),420303.5,CFD-WF-013-009-HC.jpg,1000,solid,I,m,981,12,1,2001.0,418302.5,9087,ATS,C,1
2,test,1,C,mfborder.png,1,z,Fri Jun 05 2026 13:40:18 GMT-0400 (Eastern Daylight Time),423335.59999999404,CFD-BF-042-031-HC.jpg,1700,dash,I,z,1305,1,1,5033.0999999940395,418302.5,9087,ATS,C,2
3,test,1,C,mfborder.png,1,z,Fri Jun 05 2026 13:40:18 GMT-0400 (Eastern Daylight Time),425785.59999999404,CFD-BF-031-020-A.jpg,1600,dash,I,z,820,2,1,7483.0999999940395,418302.5,9087,ATS,C,3
4,test,1,C,mfborder.png,1,z,Fri Jun 05 2026 13:40:18 GMT-0400 (Eastern Daylight Time),428285.6999999881,CFD-BF-031-020-A.jpg,1600,dash,I,z,866,2,1,9983.199999988079,418302.5,9087,ATS,C,4
4,test,1,C,haborder.png,0,z,Fri Jun 05 2026 13:40:18 GMT-0400 (Eastern Daylight Time),431418.89999999106,CFD-BM-043-014-A.jpg,1900,solid,I,m,1203,8,1,13116.39999999106,418302.5,9087,ATS,C,5
5,test,1,C,haborder.png,1,z,Fri Jun 05 2026 13:40:18 GMT-0400 (Eastern Daylight Time),434435.6999999881,CFD-BM-043-014-A.jpg,1900,solid,I,z,1093,8,1,16133.199999988079,418302.5,9087,ATS,C,6
6,test,1,C,haborder.png,1,z,Fri Jun 05 2026 13:40:18 GMT-0400 (Eastern Daylight Time),437219.0,CFD-BM-021-026-A.jpg,1700,solid,I,z,1060,9,1,18916.5,418302.5,9087,ATS,C,7
7,test,1,C,haborder.png,1,m,Fri Jun 05 2026 13:40:18 GMT-0400 (Eastern Daylight Time),439285.6999999881,CFD-WF-013-009-HC.jpg,1000,solid,I,m,1041,12,1,20983.19999998808,418302.5,9087,ATS,C,8
7,test,1,C,haborder.png,0,m,Fri Jun 05 2026 13:40:18 GMT-0400 (Eastern Daylight Time),442419.0,CFD-BF-019-004-HC.jpg,1600,solid,I,None,1516,10,1,24116.5,418302.5,9087,ATS,C,9
8,test,1,C,haborder.png,1,z,Fri Jun 05 2026 13:40:18 GMT-0400 (Eastern Daylight Time),445052.299999997,CFD-WM-036-018-A.jpg,1400,solid,I,z,1201,7,1,26749.79999999702,418302.5,9087,ATS,C,10
9,test,1,C,mfborder.png,1,m,Fri Jun 05 2026 13:40:18 GMT-0400 (Eastern Daylight Time),448102.299999997,CFD-WM-034-040-A.jpg,2000,dash,I,m,1023,5,1,29799.79999999702,418302.5,9087,ATS,C,11
10,test,1,C,mfborder.png,1,z,Fri Jun 05 2026 13:40:18 GMT-0400 (Eastern Daylight Time),450535.59999999404,CFD-WF-037-016-A.jpg,1500,dash,I,z,906,3,1,32233.09999999404,418302.5,9087,ATS,C,12
11,test,1,C,mfborder.png,1,m,Fri Jun 05 2026 13:40:18 GMT-0400 (Eastern Daylight Time),452585.6999999881,CFD-BM-022-004-HC.jpg,1200,dash,I,m,820,6,1,34283.19999998808,418302.5,9087,ATS,C,13
12,test,1,C,haborder.png,1,m,Fri Jun 05 2026 13:40:18 GMT-0400 (Eastern Daylight Time),455302.299999997,CFD-BF-019-004-HC.jpg,1600,solid,I,m,1091,10,1,36999.79999999702,418302.5,9087,ATS,C,14
13,test,1,C,mfborder.png,1,m,Fri Jun 05 2026 13:40:18 GMT-0400 (Eastern Daylight Time),458818.799999997,CFD-WM-034-040-A.jpg,2000,dash,I,m,1493,5,1,40516.29999999702,418302.5,9087,ATS,C,15
14,test,1,C,haborder.png,1,m,Fri Jun 05 2026 13:40:18 GMT-0400 (Eastern Daylight Time),461718.89999999106,CFD-WF-001-010-HC.jpg,1500,solid,I,m,1373,11,1,43416.39999999106,418302.5,9087,ATS,C,16
15,test,1,C,haborder.png,1,m,Fri Jun 05 2026 13:40:18 GMT-0400 (Eastern Daylight Time),464102.299999997,CFD-WF-001-010-HC.jpg,1500,solid,I,m,857,11,1,45799.79999999702,418302.5,9087,ATS,C,17
16,test,1,C,mfborder.png,1,m,Fri Jun 05 2026 13:40:18 GMT-0400 (Eastern Daylight Time),466301.799999997,CFD-WM-035-036-HC.jpg,1000,dash,I,m,1181,4,1,47999.29999999702,418302.5,9087,ATS,C,18
17,test,1,C,mfborder.png,1,m,Fri Jun 05 2026 13:40:18 GMT-0400 (Eastern Daylight Time),468285.5,CFD-WM-035-036-HC.jpg,1000,dash,I,m,950,4,1,49983.0,418302.5,9087,ATS,C,19
17,test,1,C,haborder.png,0,z,Fri Jun 05 2026 13:40:18 GMT-0400 (Eastern Daylight Time),471219.299999997,CFD-WM-036-018-A.jpg,1400,solid,I,None,1516,7,1,52916.79999999702,418302.5,9087,ATS,C,20
18,test,1,C,mfborder.png,1,m,Fri Jun 05 2026 13:40:18 GMT-0400 (Eastern Daylight Time),473419.0,CFD-BM-022-004-HC.jpg,1200,dash,I,m,969,6,1,55116.5,418302.5,9087,ATS,C,21
19,test,1,C,mfborder.png,1,z,Fri Jun 05 2026 13:40:18 GMT-0400 (Eastern Daylight Time),476169.0,CFD-WF-037-016-A.jpg,1500,dash,I,z,1221,3,1,57866.5,418302.5,9087,ATS,C,22
20,test,1,C,mfborder.png,1,z,Fri Jun 05 2026 13:40:18 GMT-0400 (Eastern Daylight Time),478918.89999999106,CFD-BF-042-031-HC.jpg,1700,dash,I,z,1023,1,1,60616.39999999106,418302.5,9087,ATS,C,23
20,test,1,C,haborder.png,0,z,Fri Jun 05 2026 13:40:18 GMT-0400 (Eastern Daylight Time),481819.0,CFD-BM-021-026-A.jpg,1700,solid,I,m,1169,9,1,63516.5,418302.5,9087,ATS,C,24
1,test,2,C,mfborder.png,1,m,Fri Jun 05 2026 13:40:18 GMT-0400 (Eastern Daylight Time),490235.799999997,CFD-WM-036-018-A.jpg,1200,dash,I,m,1203,6,1,2433.5,487802.299999997,9087,ATS,C,1
2,test,2,C,mfborder.png,1,z,Fri Jun 05 2026 13:40:18 GMT-0400 (Eastern Daylight Time),492685.799999997,CFD-BF-019-004-HC.jpg,1500,dash,I,z,932,3,1,4883.5,487802.299999997,9087,ATS,C,2
3,test,2,C,haborder.png,1,m,Fri Jun 05 2026 13:40:18 GMT-0400 (Eastern Daylight Time),495102.09999999404,CFD-BM-022-004-HC.jpg,1600,solid,I,m,798,10,1,7299.79999999702,487802.299999997,9087,ATS,C,3
4,test,2,C,haborder.png,1,m,Fri Jun 05 2026 13:40:18 GMT-0400 (Eastern Daylight Time),497352.09999999404,CFD-WM-028-005-HC.jpg,1500,solid,I,m,721,11,1,9549.79999999702,487802.299999997,9087,ATS,C,4
5,test,2,C,mfborder.png,1,z,Fri Jun 05 2026 13:40:18 GMT-0400 (Eastern Daylight Time),499952.1999999881,CFD-WF-013-009-HC.jpg,1700,dash,I,z,880,1,1,12149.89999999106,487802.299999997,9087,ATS,C,5
6,test,2,C,mfborder.png,1,m,Fri Jun 05 2026 13:40:18 GMT-0400 (Eastern Daylight Time),502785.59999999404,CFD-BM-043-014-A.jpg,2000,dash,I,m,812,5,1,14983.29999999702,487802.299999997,9087,ATS,C,6
7,test,2,C,mfborder.png,1,z,Fri Jun 05 2026 13:40:18 GMT-0400 (Eastern Daylight Time),505702.1999999881,CFD-WF-013-009-HC.jpg,1700,dash,I,z,1190,1,1,17899.89999999106,487802.299999997,9087,ATS,C,7
8,test,2,C,haborder.png,1,z,Fri Jun 05 2026 13:40:18 GMT-0400 (Eastern Daylight Time),508502.1999999881,CFD-BF-031-020-A.jpg,1400,solid,I,z,1374,7,1,20699.89999999106,487802.299999997,9087,ATS,C,8
9,test,2,C,haborder.png,1,m,Fri Jun 05 2026 13:40:18 GMT-0400 (Eastern Daylight Time),510502.0,CFD-WM-028-005-HC.jpg,1000,solid,I,m,973,12,1,22699.70000000298,487802.299999997,9087,ATS,C,9
10,test,2,C,haborder.png,1,z,Fri Jun 05 2026 13:40:18 GMT-0400 (Eastern Daylight Time),513502.09999999404,CFD-WF-037-016-A.jpg,1700,solid,I,z,1283,9,1,25699.79999999702,487802.299999997,9087,ATS,C,10
11,test,2,C,haborder.png,1,m,Fri Jun 05 2026 13:40:18 GMT-0400 (Eastern Daylight Time),516135.59999999404,CFD-BM-022-004-HC.jpg,1600,solid,I,m,1006,10,1,28333.29999999702,487802.299999997,9087,ATS,C,11
12,test,2,C,haborder.png,1,m,Fri Jun 05 2026 13:40:18 GMT-0400 (Eastern Daylight Time),518335.299999997,CFD-WM-028-005-HC.jpg,1500,solid,I,m,680,11,1,30533.0,487802.299999997,9087,ATS,C,12
13,test,2,C,haborder.png,1,z,Fri Jun 05 2026 13:40:18 GMT-0400 (Eastern Daylight Time),521535.1999999881,CFD-BF-002-018-A.jpg,1900,solid,I,z,1280,8,1,33732.89999999106,487802.299999997,9087,ATS,C,13
14,test,2,C,mfborder.png,1,m,Fri Jun 05 2026 13:40:18 GMT-0400 (Eastern Daylight Time),523668.89999999106,CFD-BM-034-035-HC.jpg,1000,dash,I,m,1110,4,1,35866.59999999404,487802.299999997,9087,ATS,C,14
15,test,2,C,mfborder.png,1,m,Fri Jun 05 2026 13:40:18 GMT-0400 (Eastern Daylight Time),525468.8999999911,CFD-BM-034-035-HC.jpg,1000,dash,I,m,767,4,1,37666.59999999404,487802.299999997,9087,ATS,C,15
16,test,2,C,mfborder.png,1,m,Fri Jun 05 2026 13:40:18 GMT-0400 (Eastern Daylight Time),528868.3999999911,CFD-BM-043-014-A.jpg,2000,dash,I,m,1374,5,1,41066.09999999404,487802.299999997,9087,ATS,C,16
17,test,2,C,haborder.png,1,z,Fri Jun 05 2026 13:40:18 GMT-0400 (Eastern Daylight Time),531618.799999997,CFD-BF-002-018-A.jpg,1900,solid,I,z,827,8,1,43816.5,487802.299999997,9087,ATS,C,17
18,test,2,C,haborder.png,1,z,Fri Jun 05 2026 13:40:18 GMT-0400 (Eastern Daylight Time),534152.1999999881,CFD-WF-037-016-A.jpg,1700,solid,I,z,805,9,1,46349.89999999106,487802.299999997,9087,ATS,C,18
19,test,2,C,haborder.png,1,z,Fri Jun 05 2026 13:40:18 GMT-0400 (Eastern Daylight Time),536568.799999997,CFD-BF-031-020-A.jpg,1400,solid,I,z,988,7,1,48766.5,487802.299999997,9087,ATS,C,19
19,test,2,C,mfborder.png,0,z,Fri Jun 05 2026 13:40:18 GMT-0400 (Eastern Daylight Time),538918.8999999911,CFD-BF-019-004-HC.jpg,1500,dash,I,m,823,3,1,51116.59999999404,487802.299999997,9087,ATS,C,20
20,test,2,C,mfborder.png,1,z,Fri Jun 05 2026 13:40:18 GMT-0400 (Eastern Daylight Time),541702.1999999881,CFD-WF-023-013-A.jpg,1600,dash,I,z,1157,2,1,53899.89999999106,487802.299999997,9087,ATS,C,21
21,test,2,C,haborder.png,1,m,Fri Jun 05 2026 13:40:18 GMT-0400 (Eastern Daylight Time),543685.5,CFD-WM-028-005-HC.jpg,1000,solid,I,m,958,12,1,55883.20000000298,487802.299999997,9087,ATS,C,22
21,test,2,C,mfborder.png,0,m,Fri Jun 05 2026 13:40:18 GMT-0400 (Eastern Daylight Time),546419.0,CFD-WM-036-018-A.jpg,1200,dash,I,None,1516,6,1,58616.70000000298,487802.299999997,9087,ATS,C,23
22,test,2,C,mfborder.png,1,z,Fri Jun 05 2026 13:40:18 GMT-0400 (Eastern Daylight Time),549418.8999999911,CFD-WF-023-013-A.jpg,1600,dash,I,z,1369,2,1,61616.59999999404,487802.299999997,9087,ATS,C,24
0,test,3,C,mfborder.png,0,m,Fri Jun 05 2026 13:40:18 GMT-0400 (Eastern Daylight Time),555252.3999999911,CFD-BM-022-004-HC.jpg,1200,dash,I,None,1516,6,1,2733.5,552518.8999999911,9087,ATS,C,1
1,test,3,C,haborder.png,1,m,Fri Jun 05 2026 13:40:18 GMT-0400 (Eastern Daylight Time),558368.6999999881,CFD-BF-019-004-HC.jpg,1600,solid,I,m,1496,10,1,5849.79999999702,552518.8999999911,9087,ATS,C,2
2,test,3,C,mfborder.png,1,z,Fri Jun 05 2026 13:40:18 GMT-0400 (Eastern Daylight Time),561085.599999994,CFD-BF-042-031-HC.jpg,1700,dash,I,z,999,1,1,8566.70000000298,552518.8999999911,9087,ATS,C,3
2,test,3,C,haborder.png,0,z,Fri Jun 05 2026 13:40:18 GMT-0400 (Eastern Daylight Time),563652.099999994,CFD-WM-036-018-A.jpg,1400,solid,I,m,1142,7,1,11133.20000000298,552518.8999999911,9087,ATS,C,4
3,test,3,C,mfborder.png,1,m,Fri Jun 05 2026 13:40:18 GMT-0400 (Eastern Daylight Time),566152.099999994,CFD-WM-035-036-HC.jpg,1000,dash,I,m,1472,4,1,13633.20000000298,552518.8999999911,9087,ATS,C,5
3,test,3,C,haborder.png,0,z,Fri Jun 05 2026 13:40:18 GMT-0400 (Eastern Daylight Time),569385.3999999911,CFD-BM-043-014-A.jpg,1900,solid,I,m,1304,8,1,16866.5,552518.8999999911,9087,ATS,C,6
4,test,3,C,haborder.png,1,z,Fri Jun 05 2026 13:40:18 GMT-0400 (Eastern Daylight Time),572318.5,CFD-BM-021-026-A.jpg,1700,solid,I,z,1214,9,1,19799.60000000894,552518.8999999911,9087,ATS,C,7
5,test,3,C,mfborder.png,1,z,Fri Jun 05 2026 13:40:18 GMT-0400 (Eastern Daylight Time),575202.099999994,CFD-BF-042-031-HC.jpg,1700,dash,I,z,1161,1,1,22683.20000000298,552518.8999999911,9087,ATS,C,8
6,test,3,C,haborder.png,1,z,Fri Jun 05 2026 13:40:18 GMT-0400 (Eastern Daylight Time),578585.5,CFD-BM-043-014-A.jpg,1900,solid,I,z,1454,8,1,26066.60000000894,552518.8999999911,9087,ATS,C,9
7,test,3,C,haborder.png,1,m,Fri Jun 05 2026 13:40:18 GMT-0400 (Eastern Daylight Time),580552.099999994,CFD-WF-013-009-HC.jpg,1000,solid,I,m,939,12,1,28033.20000000298,552518.8999999911,9087,ATS,C,10
7,test,3,C,haborder.png,0,z,Fri Jun 05 2026 13:40:18 GMT-0400 (Eastern Daylight Time),583785.3999999911,CFD-BM-021-026-A.jpg,1700,solid,I,None,1516,9,1,31266.5,552518.8999999911,9087,ATS,C,11
8,test,3,C,mfborder.png,1,z,Fri Jun 05 2026 13:40:18 GMT-0400 (Eastern Daylight Time),586735.1999999881,CFD-BF-031-020-A.jpg,1600,dash,I,z,1314,2,1,34216.29999999702,552518.8999999911,9087,ATS,C,12
9,test,3,C,mfborder.png,1,m,Fri Jun 05 2026 13:40:18 GMT-0400 (Eastern Daylight Time),588818.6999999881,CFD-BM-022-004-HC.jpg,1200,dash,I,m,860,6,1,36299.79999999702,552518.8999999911,9087,ATS,C,13
9,test,3,C,haborder.png,0,z,Fri Jun 05 2026 13:40:18 GMT-0400 (Eastern Daylight Time),591752.1999999881,CFD-WM-036-018-A.jpg,1400,solid,I,None,1516,7,1,39233.29999999702,552518.8999999911,9087,ATS,C,14
10,test,3,C,haborder.png,1,m,Fri Jun 05 2026 13:40:18 GMT-0400 (Eastern Daylight Time),594168.6999999881,CFD-WF-001-010-HC.jpg,1500,solid,I,m,888,11,1,41649.79999999702,552518.8999999911,9087,ATS,C,15
11,test,3,C,mfborder.png,1,z,Fri Jun 05 2026 13:40:18 GMT-0400 (Eastern Daylight Time),596468.799999997,CFD-WF-037-016-A.jpg,1500,dash,I,z,775,3,1,43949.90000000596,552518.8999999911,9087,ATS,C,16
12,test,3,C,mfborder.png,1,m,Fri Jun 05 2026 13:40:18 GMT-0400 (Eastern Daylight Time),598618.799999997,CFD-WM-035-036-HC.jpg,1000,dash,I,m,1119,4,1,46099.90000000596,552518.8999999911,9087,ATS,C,17
13,test,3,C,mfborder.png,1,m,Fri Jun 05 2026 13:40:18 GMT-0400 (Eastern Daylight Time),601435.3999999911,CFD-WM-034-040-A.jpg,2000,dash,I,m,785,5,1,48916.5,552518.8999999911,9087,ATS,C,18
14,test,3,C,mfborder.png,1,m,Fri Jun 05 2026 13:40:18 GMT-0400 (Eastern Daylight Time),604085.3999999911,CFD-WM-034-040-A.jpg,2000,dash,I,m,624,5,1,51566.5,552518.8999999911,9087,ATS,C,19
15,test,3,C,mfborder.png,1,z,Fri Jun 05 2026 13:40:18 GMT-0400 (Eastern Daylight Time),606385.3999999911,CFD-WF-037-016-A.jpg,1500,dash,I,z,778,3,1,53866.5,552518.8999999911,9087,ATS,C,20
16,test,3,C,haborder.png,1,m,Fri Jun 05 2026 13:40:18 GMT-0400 (Eastern Daylight Time),608885.3999999911,CFD-BF-019-004-HC.jpg,1600,solid,I,m,874,10,1,56366.5,552518.8999999911,9087,ATS,C,21
17,test,3,C,mfborder.png,1,z,Fri Jun 05 2026 13:40:18 GMT-0400 (Eastern Daylight Time),611435.3999999911,CFD-BF-031-020-A.jpg,1600,dash,I,z,918,2,1,58916.5,552518.8999999911,9087,ATS,C,22
18,test,3,C,haborder.png,1,m,Fri Jun 05 2026 13:40:18 GMT-0400 (Eastern Daylight Time),613335.3999999911,CFD-WF-013-009-HC.jpg,1000,solid,I,m,872,12,1,60816.5,552518.8999999911,9087,ATS,C,23
19,test,3,C,haborder.png,1,m,Fri Jun 05 2026 13:40:18 GMT-0400 (Eastern Daylight Time),615718.6999999881,CFD-WF-001-010-HC.jpg,1500,solid,I,m,857,11,1,63199.79999999702,552518.8999999911,9087,ATS,C,24
0,test,4,C,haborder.png,0,z,Fri Jun 05 2026 13:40:18 GMT-0400 (Eastern Daylight Time),622919.0,CFD-BF-031-020-A.jpg,1400,solid,I,m,1490,7,1,2916.9000000059605,620002.099999994,9087,ATS,C,1
1,test,4,C,haborder.png,1,m,Fri Jun 05 2026 13:40:18 GMT-0400 (Eastern Daylight Time),625335.3999999911,CFD-WM-028-005-HC.jpg,1500,solid,I,m,889,11,1,5333.29999999702,620002.099999994,9087,ATS,C,2
2,test,4,C,haborder.png,1,z,Fri Jun 05 2026 13:40:18 GMT-0400 (Eastern Daylight Time),628251.8999999911,CFD-BF-002-018-A.jpg,1900,solid,I,z,984,8,1,8249.79999999702,620002.099999994,9087,ATS,C,3
3,test,4,C,mfborder.png,1,z,Fri Jun 05 2026 13:40:18 GMT-0400 (Eastern Daylight Time),630835.299999997,CFD-BF-019-004-HC.jpg,1500,dash,I,z,1060,3,1,10833.20000000298,620002.099999994,9087,ATS,C,4
3,test,4,C,haborder.png,0,z,Fri Jun 05 2026 13:40:18 GMT-0400 (Eastern Daylight Time),633885.299999997,CFD-WF-037-016-A.jpg,1700,solid,I,m,1316,9,1,13883.20000000298,620002.099999994,9087,ATS,C,5
3,test,4,C,mfborder.png,0,m,Fri Jun 05 2026 13:40:18 GMT-0400 (Eastern Daylight Time),636618.8999999911,CFD-WM-036-018-A.jpg,1200,dash,I,None,1516,6,1,16616.79999999702,620002.099999994,9087,ATS,C,6
4,test,4,C,mfborder.png,1,z,Fri Jun 05 2026 13:40:18 GMT-0400 (Eastern Daylight Time),639385.3999999911,CFD-WF-013-009-HC.jpg,1700,dash,I,z,1037,1,1,19383.29999999702,620002.099999994,9087,ATS,C,7
5,test,4,C,mfborder.png,1,m,Fri Jun 05 2026 13:40:18 GMT-0400 (Eastern Daylight Time),641552.0,CFD-WM-036-018-A.jpg,1200,dash,I,m,946,6,1,21549.90000000596,620002.099999994,9087,ATS,C,8
6,test,4,C,haborder.png,1,m,Fri Jun 05 2026 13:40:18 GMT-0400 (Eastern Daylight Time),644385.1999999881,CFD-BM-022-004-HC.jpg,1600,solid,I,m,1212,10,1,24383.09999999404,620002.099999994,9087,ATS,C,9
7,test,4,C,haborder.png,1,m,Fri Jun 05 2026 13:40:18 GMT-0400 (Eastern Daylight Time),646485.299999997,CFD-WM-028-005-HC.jpg,1500,solid,I,m,574,11,1,26483.20000000298,620002.099999994,9087,ATS,C,10
8,test,4,C,haborder.png,1,m,Fri Jun 05 2026 13:40:18 GMT-0400 (Eastern Daylight Time),648285.299999997,CFD-WM-028-005-HC.jpg,1000,solid,I,m,766,12,1,28283.20000000298,620002.099999994,9087,ATS,C,11
9,test,4,C,haborder.png,1,m,Fri Jun 05 2026 13:40:18 GMT-0400 (Eastern Daylight Time),650152.0,CFD-WM-028-005-HC.jpg,1000,solid,I,m,838,12,1,30149.90000000596,620002.099999994,9087,ATS,C,12
10,test,4,C,mfborder.png,1,z,Fri Jun 05 2026 13:40:18 GMT-0400 (Eastern Daylight Time),652802.0,CFD-WF-023-013-A.jpg,1600,dash,I,z,1028,2,1,32799.90000000596,620002.099999994,9087,ATS,C,13
11,test,4,C,mfborder.png,1,m,Fri Jun 05 2026 13:40:18 GMT-0400 (Eastern Daylight Time),654568.6999999881,CFD-BM-034-035-HC.jpg,1000,dash,I,m,738,4,1,34566.59999999404,620002.099999994,9087,ATS,C,14
12,test,4,C,mfborder.png,1,z,Fri Jun 05 2026 13:40:18 GMT-0400 (Eastern Daylight Time),656968.6999999881,CFD-WF-013-009-HC.jpg,1700,dash,I,z,671,1,1,36966.59999999404,620002.099999994,9087,ATS,C,15
13,test,4,C,haborder.png,1,z,Fri Jun 05 2026 13:40:18 GMT-0400 (Eastern Daylight Time),659901.6999999881,CFD-WF-037-016-A.jpg,1700,solid,I,z,1215,9,1,39899.59999999404,620002.099999994,9087,ATS,C,16
14,test,4,C,mfborder.png,1,z,Fri Jun 05 2026 13:40:18 GMT-0400 (Eastern Daylight Time),662702.0,CFD-BF-019-004-HC.jpg,1500,dash,I,z,1283,3,1,42699.90000000596,620002.099999994,9087,ATS,C,17
15,test,4,C,mfborder.png,1,m,Fri Jun 05 2026 13:40:18 GMT-0400 (Eastern Daylight Time),665635.299999997,CFD-BM-043-014-A.jpg,2000,dash,I,m,910,5,1,45633.20000000298,620002.099999994,9087,ATS,C,18
16,test,4,C,mfborder.png,1,m,Fri Jun 05 2026 13:40:18 GMT-0400 (Eastern Daylight Time),667585.1999999881,CFD-BM-034-035-HC.jpg,1000,dash,I,m,928,4,1,47583.09999999404,620002.099999994,9087,ATS,C,19
17,test,4,C,haborder.png,1,z,Fri Jun 05 2026 13:40:18 GMT-0400 (Eastern Daylight Time),670452.0,CFD-BF-002-018-A.jpg,1900,solid,I,z,942,8,1,50449.90000000596,620002.099999994,9087,ATS,C,20
18,test,4,C,haborder.png,1,m,Fri Jun 05 2026 13:40:18 GMT-0400 (Eastern Daylight Time),673001.8999999911,CFD-BM-022-004-HC.jpg,1600,solid,I,m,920,10,1,52999.79999999702,620002.099999994,9087,ATS,C,21
19,test,4,C,mfborder.png,1,z,Fri Jun 05 2026 13:40:18 GMT-0400 (Eastern Daylight Time),675668.599999994,CFD-WF-023-013-A.jpg,1600,dash,I,z,1042,2,1,55666.5,620002.099999994,9087,ATS,C,22
19,test,4,C,haborder.png,0,z,Fri Jun 05 2026 13:40:18 GMT-0400 (Eastern Daylight Time),678135.1999999881,CFD-BF-031-020-A.jpg,1400,solid,I,m,1039,7,1,58133.09999999404,620002.099999994,9087,ATS,C,23
20,test,4,C,mfborder.png,1,m,Fri Jun 05 2026 13:40:18 GMT-0400 (Eastern Daylight Time),681052.0,CFD-BM-043-014-A.jpg,2000,dash,I,m,884,5,1,61049.90000000596,620002.099999994,9087,ATS,C,24
