acc_sum,block,block_c,change,condition,correct,correct_response,datetime,endtime,face,project,response,response_time,row_sel,session_number,start_end,starttime,subject_id,task,task_vers,trial
0,prac,1,,1-Back,,,Wed May 14 2025 13:19:30 GMT-0500 (Central Daylight Time),,093_m_f_n_a.png,I,space,5141,1,1,,,8039,NNB,C,0
1,prac,1,0.0,1-Back,1,m,Wed May 14 2025 13:19:30 GMT-0500 (Central Daylight Time),123084.80000001192,098_y_f_n_a.png,I,m,723,2,1,1627.9000000357628,121456.89999997616,8039,NNB,C,1
1,prac,1,1.0,1-Back,0,z,Wed May 14 2025 13:19:30 GMT-0500 (Central Daylight Time),124484.30000001192,098_y_f_n_a.png,I,m,613,3,1,1391.9000000357628,123092.39999997616,8039,NNB,C,2
2,prac,1,0.0,1-Back,1,m,Wed May 14 2025 13:19:30 GMT-0500 (Central Daylight Time),126100.69999998808,059_o_m_n_a.png,I,m,724,4,1,1608.800000011921,124491.89999997616,8039,NNB,C,3
3,prac,1,0.0,1-Back,1,m,Wed May 14 2025 13:19:30 GMT-0500 (Central Daylight Time),127566.80000001192,092_m_m_n_a.png,I,m,584,5,1,1459.199999988079,126107.60000002384,8039,NNB,C,4
4,prac,1,1.0,1-Back,1,z,Wed May 14 2025 13:19:30 GMT-0500 (Central Daylight Time),128733.30000001192,092_m_m_n_a.png,I,z,386,6,1,1158.199999988079,127575.10000002384,8039,NNB,C,5
5,prac,1,0.0,1-Back,1,m,Wed May 14 2025 13:19:30 GMT-0500 (Central Daylight Time),130365.80000001192,130_o_f_n_a.png,I,m,730,7,1,1625.0,128740.80000001192,8039,NNB,C,6
5,prac,1,0.0,1-Back,0,m,Wed May 14 2025 13:19:30 GMT-0500 (Central Daylight Time),131832.19999998808,082_m_m_n_a.png,I,z,574,8,1,1458.800000011921,130373.39999997616,8039,NNB,C,7
6,prac,1,0.0,1-Back,1,m,Wed May 14 2025 13:19:30 GMT-0500 (Central Daylight Time),133398.19999998808,093_m_f_n_a.png,I,m,777,9,1,1558.3999999761581,131839.80000001192,8039,NNB,C,8
6,prac,1,1.0,1-Back,0,z,Wed May 14 2025 13:19:30 GMT-0500 (Central Daylight Time),134864.5,093_m_f_n_a.png,I,m,694,10,1,1461.0,133403.5,8039,NNB,C,9
7,prac,1,0.0,1-Back,1,m,Wed May 14 2025 13:19:30 GMT-0500 (Central Daylight Time),136647.30000001192,059_o_m_n_a.png,I,m,1003,11,1,1776.5,134870.80000001192,8039,NNB,C,10
8,prac,1,0.0,1-Back,1,m,Wed May 14 2025 13:19:30 GMT-0500 (Central Daylight Time),138263.39999997616,028_y_f_n_a.png,I,m,733,12,1,1608.8999999761581,136654.5,8039,NNB,C,11
0,test,1,0.0,1-Back,,,Wed May 14 2025 13:19:30 GMT-0500 (Central Daylight Time),138263.39999997616,098_y_f_n_a.png,I,space,7950,1,1,1608.8999999761581,136654.5,8039,NNB,C,0
1,test,1,0.0,1-Back,1,m,Wed May 14 2025 13:19:30 GMT-0500 (Central Daylight Time),156924.10000002384,006_m_f_n_a.png,I,m,656,2,1,1675.9000000357628,155248.19999998808,8039,NNB,C,1
2,test,1,0.0,1-Back,1,m,Wed May 14 2025 13:19:30 GMT-0500 (Central Daylight Time),158490.39999997616,028_y_f_n_a.png,I,m,549,3,1,1562.0999999642372,156928.30000001192,8039,NNB,C,2
3,test,1,1.0,1-Back,1,z,Wed May 14 2025 13:19:30 GMT-0500 (Central Daylight Time),159856.69999998808,028_y_f_n_a.png,I,z,335,4,1,1362.0,158494.69999998808,8039,NNB,C,3
4,test,1,0.0,1-Back,1,m,Wed May 14 2025 13:19:30 GMT-0500 (Central Daylight Time),161456.10000002384,006_m_f_n_a.png,I,m,569,5,1,1595.0,159861.10000002384,8039,NNB,C,4
4,test,1,0.0,1-Back,0,m,Wed May 14 2025 13:19:30 GMT-0500 (Central Daylight Time),162972.30000001192,059_o_m_n_a.png,I,z,489,6,1,1511.4000000357628,161460.89999997616,8039,NNB,C,5
5,test,1,1.0,1-Back,1,z,Wed May 14 2025 13:19:30 GMT-0500 (Central Daylight Time),164605.30000001192,059_o_m_n_a.png,I,z,613,7,1,1628.800000011921,162976.5,8039,NNB,C,6
6,test,1,0.0,1-Back,1,m,Wed May 14 2025 13:19:30 GMT-0500 (Central Daylight Time),166239.10000002384,092_m_m_n_a.png,I,m,604,8,1,1629.7000000476837,164609.39999997616,8039,NNB,C,7
7,test,1,0.0,1-Back,1,m,Wed May 14 2025 13:19:30 GMT-0500 (Central Daylight Time),167887.39999997616,130_o_f_n_a.png,I,m,627,9,1,1644.0,166243.39999997616,8039,NNB,C,8
8,test,1,0.0,1-Back,1,m,Wed May 14 2025 13:19:30 GMT-0500 (Central Daylight Time),169470.39999997616,092_m_m_n_a.png,I,m,553,10,1,1578.5999999642372,167891.80000001192,8039,NNB,C,9
9,test,1,0.0,1-Back,1,m,Wed May 14 2025 13:19:30 GMT-0500 (Central Daylight Time),171053.0,057_y_m_n_a.png,I,m,555,11,1,1578.1000000238419,169474.89999997616,8039,NNB,C,10
10,test,1,1.0,1-Back,1,z,Wed May 14 2025 13:19:30 GMT-0500 (Central Daylight Time),172436.0,057_y_m_n_a.png,I,z,364,12,1,1379.0,171057.0,8039,NNB,C,11
11,test,1,0.0,1-Back,1,m,Wed May 14 2025 13:19:30 GMT-0500 (Central Daylight Time),173968.89999997616,030_o_f_n_a.png,I,m,509,13,1,1528.5,172440.39999997616,8039,NNB,C,12
12,test,1,1.0,1-Back,1,z,Wed May 14 2025 13:19:30 GMT-0500 (Central Daylight Time),175684.89999997616,030_o_f_n_a.png,I,z,696,14,1,1712.0999999642372,173972.80000001192,8039,NNB,C,13
13,test,1,0.0,1-Back,1,m,Wed May 14 2025 13:19:30 GMT-0500 (Central Daylight Time),177234.60000002384,031_y_m_n_a.png,I,m,524,15,1,1545.4000000357628,175689.19999998808,8039,NNB,C,14
14,test,1,0.0,1-Back,1,m,Wed May 14 2025 13:19:30 GMT-0500 (Central Daylight Time),178783.89999997616,093_m_f_n_a.png,I,m,519,16,1,1545.199999988079,177238.69999998808,8039,NNB,C,15
14,test,1,0.0,1-Back,0,m,Wed May 14 2025 13:19:30 GMT-0500 (Central Daylight Time),180366.89999997616,146_o_m_n_a.png,I,z,553,17,1,1578.5,178788.39999997616,8039,NNB,C,16
15,test,1,0.0,1-Back,1,m,Wed May 14 2025 13:19:30 GMT-0500 (Central Daylight Time),181949.80000001192,093_m_f_n_a.png,I,m,554,18,1,1578.4000000357628,180371.39999997616,8039,NNB,C,17
0,test,2,0.0,1-Back,,,Wed May 14 2025 13:19:30 GMT-0500 (Central Daylight Time),181949.80000001192,092_m_m_n_a.png,I,space,1852,1,1,1578.4000000357628,180371.39999997616,8039,NNB,C,0
1,test,2,0.0,1-Back,1,m,Wed May 14 2025 13:19:30 GMT-0500 (Central Daylight Time),187631.10000002384,006_m_f_n_a.png,I,m,769,2,1,1794.4000000357628,185836.69999998808,8039,NNB,C,1
2,test,2,1.0,1-Back,1,z,Wed May 14 2025 13:19:30 GMT-0500 (Central Daylight Time),189064.10000002384,006_m_f_n_a.png,I,z,410,3,1,1428.4000000357628,187635.69999998808,8039,NNB,C,2
3,test,2,0.0,1-Back,1,m,Wed May 14 2025 13:19:30 GMT-0500 (Central Daylight Time),190496.89999997616,092_m_m_n_a.png,I,m,409,4,1,1428.5,189068.39999997616,8039,NNB,C,3
4,test,2,0.0,1-Back,1,m,Wed May 14 2025 13:19:30 GMT-0500 (Central Daylight Time),192162.80000001192,057_y_m_n_a.png,I,m,640,5,1,1662.300000011921,190500.5,8039,NNB,C,4
5,test,2,0.0,1-Back,1,m,Wed May 14 2025 13:19:30 GMT-0500 (Central Daylight Time),193829.0,098_y_f_n_a.png,I,m,646,6,1,1659.8999999761581,192169.10000002384,8039,NNB,C,5
6,test,2,1.0,1-Back,1,z,Wed May 14 2025 13:19:30 GMT-0500 (Central Daylight Time),195228.89999997616,098_y_f_n_a.png,I,z,380,7,1,1395.5999999642372,193833.30000001192,8039,NNB,C,6
7,test,2,0.0,1-Back,1,m,Wed May 14 2025 13:19:30 GMT-0500 (Central Daylight Time),196711.80000001192,057_y_m_n_a.png,I,m,452,8,1,1478.5,195233.30000001192,8039,NNB,C,7
8,test,2,0.0,1-Back,1,m,Wed May 14 2025 13:19:30 GMT-0500 (Central Daylight Time),198210.89999997616,030_o_f_n_a.png,I,m,481,9,1,1494.7999999523163,196716.10000002384,8039,NNB,C,8
9,test,2,0.0,1-Back,1,m,Wed May 14 2025 13:19:30 GMT-0500 (Central Daylight Time),199710.89999997616,082_m_m_n_a.png,I,m,478,10,1,1495.699999988079,198215.19999998808,8039,NNB,C,9
10,test,2,1.0,1-Back,1,z,Wed May 14 2025 13:19:30 GMT-0500 (Central Daylight Time),201109.89999997616,082_m_m_n_a.png,I,z,369,11,1,1395.5999999642372,199714.30000001192,8039,NNB,C,10
11,test,2,0.0,1-Back,1,m,Wed May 14 2025 13:19:30 GMT-0500 (Central Daylight Time),202526.80000001192,030_o_f_n_a.png,I,m,395,12,1,1412.4000000357628,201114.39999997616,8039,NNB,C,11
12,test,2,0.0,1-Back,1,m,Wed May 14 2025 13:19:30 GMT-0500 (Central Daylight Time),204076.0,130_o_f_n_a.png,I,m,522,13,1,1545.5,202530.5,8039,NNB,C,12
13,test,2,0.0,1-Back,1,m,Wed May 14 2025 13:19:30 GMT-0500 (Central Daylight Time),205542.10000002384,059_o_m_n_a.png,I,m,445,14,1,1461.6000000238419,204080.5,8039,NNB,C,13
14,test,2,0.0,1-Back,1,m,Wed May 14 2025 13:19:30 GMT-0500 (Central Daylight Time),207074.89999997616,146_o_m_n_a.png,I,m,515,15,1,1528.699999988079,205546.19999998808,8039,NNB,C,14
15,test,2,1.0,1-Back,1,z,Wed May 14 2025 13:19:30 GMT-0500 (Central Daylight Time),208457.89999997616,146_o_m_n_a.png,I,z,350,16,1,1379.5999999642372,207078.30000001192,8039,NNB,C,15
16,test,2,0.0,1-Back,1,m,Wed May 14 2025 13:19:30 GMT-0500 (Central Daylight Time),209991.10000002384,031_y_m_n_a.png,I,m,511,17,1,1528.800000011921,208462.30000001192,8039,NNB,C,16
17,test,2,1.0,1-Back,1,z,Wed May 14 2025 13:19:30 GMT-0500 (Central Daylight Time),211473.89999997616,031_y_m_n_a.png,I,z,451,18,1,1478.699999988079,209995.19999998808,8039,NNB,C,17
0,test,3,1.0,1-Back,,,Wed May 14 2025 13:19:30 GMT-0500 (Central Daylight Time),211473.89999997616,028_y_f_n_a.png,I,space,2263,1,1,1478.699999988079,209995.19999998808,8039,NNB,C,0
1,test,3,0.0,1-Back,1,m,Wed May 14 2025 13:19:30 GMT-0500 (Central Daylight Time),217588.39999997616,146_o_m_n_a.png,I,m,706,1,1,1726.5999999642372,215861.80000001192,8039,NNB,C,1
2,test,3,1.0,1-Back,1,z,Wed May 14 2025 13:19:30 GMT-0500 (Central Daylight Time),219004.60000002384,146_o_m_n_a.png,I,z,388,1,1,1412.2000000476837,217592.39999997616,8039,NNB,C,2
3,test,3,0.0,1-Back,1,m,Wed May 14 2025 13:19:30 GMT-0500 (Central Daylight Time),220337.39999997616,093_m_f_n_a.png,I,m,308,1,1,1328.199999988079,219009.19999998808,8039,NNB,C,3
4,test,3,1.0,1-Back,1,z,Wed May 14 2025 13:19:30 GMT-0500 (Central Daylight Time),221753.89999997616,093_m_f_n_a.png,I,z,384,1,1,1411.5999999642372,220342.30000001192,8039,NNB,C,4
5,test,3,0.0,1-Back,1,m,Wed May 14 2025 13:19:30 GMT-0500 (Central Daylight Time),223203.39999997616,030_o_f_n_a.png,I,m,431,1,1,1445.0999999642372,221758.30000001192,8039,NNB,C,5
6,test,3,0.0,1-Back,1,m,Wed May 14 2025 13:19:30 GMT-0500 (Central Daylight Time),224886.39999997616,057_y_m_n_a.png,I,m,662,1,1,1679.199999988079,223207.19999998808,8039,NNB,C,6
7,test,3,0.0,1-Back,1,m,Wed May 14 2025 13:19:30 GMT-0500 (Central Daylight Time),226402.60000002384,030_o_f_n_a.png,I,m,491,1,1,1512.0,224890.60000002384,8039,NNB,C,7
8,test,3,0.0,1-Back,1,m,Wed May 14 2025 13:19:30 GMT-0500 (Central Daylight Time),227868.69999998808,031_y_m_n_a.png,I,m,439,1,1,1462.0,226406.69999998808,8039,NNB,C,8
9,test,3,1.0,1-Back,1,z,Wed May 14 2025 13:19:30 GMT-0500 (Central Daylight Time),229268.39999997616,031_y_m_n_a.png,I,z,380,1,1,1394.8999999761581,227873.5,8039,NNB,C,9
10,test,3,0.0,1-Back,1,m,Wed May 14 2025 13:19:30 GMT-0500 (Central Daylight Time),230751.19999998808,006_m_f_n_a.png,I,m,453,1,1,1478.699999988079,229272.5,8039,NNB,C,10
11,test,3,0.0,1-Back,1,m,Wed May 14 2025 13:19:30 GMT-0500 (Central Daylight Time),232234.10000002384,098_y_f_n_a.png,I,m,450,1,1,1478.800000011921,230755.30000001192,8039,NNB,C,11
12,test,3,1.0,1-Back,1,z,Wed May 14 2025 13:19:30 GMT-0500 (Central Daylight Time),233616.89999997616,098_y_f_n_a.png,I,z,351,1,1,1377.8999999761581,232239.0,8039,NNB,C,12
13,test,3,0.0,1-Back,1,m,Wed May 14 2025 13:19:30 GMT-0500 (Central Daylight Time),235049.80000001192,006_m_f_n_a.png,I,m,400,1,1,1429.0,233620.80000001192,8039,NNB,C,13
14,test,3,0.0,1-Back,1,m,Wed May 14 2025 13:19:30 GMT-0500 (Central Daylight Time),236532.60000002384,092_m_m_n_a.png,I,m,464,1,1,1478.800000011921,235053.80000001192,8039,NNB,C,14
15,test,3,1.0,1-Back,1,z,Wed May 14 2025 13:19:30 GMT-0500 (Central Daylight Time),237915.30000001192,092_m_m_n_a.png,I,z,356,1,1,1379.199999988079,236536.10000002384,8039,NNB,C,15
16,test,3,0.0,1-Back,1,m,Wed May 14 2025 13:19:30 GMT-0500 (Central Daylight Time),239398.0,130_o_f_n_a.png,I,m,456,1,1,1478.1000000238419,237919.89999997616,8039,NNB,C,16
17,test,3,1.0,1-Back,1,z,Wed May 14 2025 13:19:30 GMT-0500 (Central Daylight Time),241064.39999997616,130_o_f_n_a.png,I,z,635,1,1,1661.7999999523163,239402.60000002384,8039,NNB,C,17
0,test,4,1.0,1-Back,,,Wed May 14 2025 13:19:30 GMT-0500 (Central Daylight Time),241064.39999997616,093_m_f_n_a.png,I,space,1697,1,1,1661.7999999523163,239402.60000002384,8039,NNB,C,0
1,test,4,0.0,1-Back,1,m,Wed May 14 2025 13:19:30 GMT-0500 (Central Daylight Time),246412.5,146_o_m_n_a.png,I,m,513,2,1,1529.300000011921,244883.19999998808,8039,NNB,C,1
2,test,4,0.0,1-Back,1,m,Wed May 14 2025 13:19:30 GMT-0500 (Central Daylight Time),247895.69999998808,093_m_f_n_a.png,I,m,452,3,1,1479.5999999642372,246416.10000002384,8039,NNB,C,2
3,test,4,0.0,1-Back,1,m,Wed May 14 2025 13:19:30 GMT-0500 (Central Daylight Time),249378.19999998808,030_o_f_n_a.png,I,m,466,4,1,1478.0999999642372,247900.10000002384,8039,NNB,C,3
4,test,4,1.0,1-Back,1,z,Wed May 14 2025 13:19:30 GMT-0500 (Central Daylight Time),250778.10000002384,030_o_f_n_a.png,I,z,375,5,1,1395.6000000238419,249382.5,8039,NNB,C,4
5,test,4,0.0,1-Back,1,m,Wed May 14 2025 13:19:30 GMT-0500 (Central Daylight Time),252111.0,098_y_f_n_a.png,I,m,311,6,1,1328.6000000238419,250782.39999997616,8039,NNB,C,5
6,test,4,0.0,1-Back,1,m,Wed May 14 2025 13:19:30 GMT-0500 (Central Daylight Time),253677.0,057_y_m_n_a.png,I,m,546,7,1,1562.0,252115.0,8039,NNB,C,6
7,test,4,1.0,1-Back,1,z,Wed May 14 2025 13:19:30 GMT-0500 (Central Daylight Time),255076.69999998808,057_y_m_n_a.png,I,z,372,8,1,1395.5999999642372,253681.10000002384,8039,NNB,C,7
8,test,4,0.0,1-Back,1,m,Wed May 14 2025 13:19:30 GMT-0500 (Central Daylight Time),256609.60000002384,098_y_f_n_a.png,I,m,500,9,1,1528.800000011921,255080.80000001192,8039,NNB,C,8
9,test,4,0.0,1-Back,1,m,Wed May 14 2025 13:19:30 GMT-0500 (Central Daylight Time),258142.60000002384,082_m_m_n_a.png,I,m,512,10,1,1528.800000011921,256613.80000001192,8039,NNB,C,9
10,test,4,1.0,1-Back,1,z,Wed May 14 2025 13:19:30 GMT-0500 (Central Daylight Time),259525.60000002384,082_m_m_n_a.png,I,z,354,11,1,1378.800000011921,258146.80000001192,8039,NNB,C,10
11,test,4,0.0,1-Back,1,m,Wed May 14 2025 13:19:30 GMT-0500 (Central Daylight Time),260941.30000001192,130_o_f_n_a.png,I,m,396,12,1,1410.800000011921,259530.5,8039,NNB,C,11
12,test,4,0.0,1-Back,1,m,Wed May 14 2025 13:19:30 GMT-0500 (Central Daylight Time),262391.10000002384,059_o_m_n_a.png,I,m,428,13,1,1445.4000000357628,260945.69999998808,8039,NNB,C,12
13,test,4,0.0,1-Back,1,m,Wed May 14 2025 13:19:30 GMT-0500 (Central Daylight Time),264073.8000000119,130_o_f_n_a.png,I,m,650,14,1,1676.1000000238419,262397.6999999881,8039,NNB,C,13
14,test,4,0.0,1-Back,1,m,Wed May 14 2025 13:19:30 GMT-0500 (Central Daylight Time),265690.1999999881,028_y_f_n_a.png,I,m,591,15,1,1612.0999999642372,264078.10000002384,8039,NNB,C,14
15,test,4,1.0,1-Back,1,z,Wed May 14 2025 13:19:30 GMT-0500 (Central Daylight Time),267106.10000002384,028_y_f_n_a.png,I,z,391,16,1,1412.0,265694.10000002384,8039,NNB,C,15
16,test,4,0.0,1-Back,1,m,Wed May 14 2025 13:19:30 GMT-0500 (Central Daylight Time),268622.39999997616,006_m_f_n_a.png,I,m,487,17,1,1512.0,267110.39999997616,8039,NNB,C,16
17,test,4,1.0,1-Back,1,z,Wed May 14 2025 13:19:30 GMT-0500 (Central Daylight Time),270421.89999997616,006_m_f_n_a.png,I,z,769,18,1,1795.2999999523163,268626.60000002384,8039,NNB,C,17
0,test,5,1.0,1-Back,,,Wed May 14 2025 13:19:30 GMT-0500 (Central Daylight Time),270421.89999997616,059_o_m_n_a.png,I,space,2300,1,1,1795.2999999523163,268626.60000002384,8039,NNB,C,0
1,test,5,1.0,1-Back,1,z,Wed May 14 2025 13:19:30 GMT-0500 (Central Daylight Time),276353.39999997616,059_o_m_n_a.png,I,z,575,2,1,1594.7999999523163,274758.60000002384,8039,NNB,C,1
2,test,5,0.0,1-Back,1,m,Wed May 14 2025 13:19:30 GMT-0500 (Central Daylight Time),277703.10000002384,098_y_f_n_a.png,I,m,328,3,1,1345.800000011921,276357.3000000119,8039,NNB,C,2
3,test,5,0.0,1-Back,1,m,Wed May 14 2025 13:19:30 GMT-0500 (Central Daylight Time),279152.6999999881,057_y_m_n_a.png,I,m,426,4,1,1445.5,277707.1999999881,8039,NNB,C,3
4,test,5,0.0,1-Back,1,m,Wed May 14 2025 13:19:30 GMT-0500 (Central Daylight Time),280768.6999999881,098_y_f_n_a.png,I,m,585,5,1,1612.3999999761581,279156.3000000119,8039,NNB,C,4
5,test,5,0.0,1-Back,1,m,Wed May 14 2025 13:19:30 GMT-0500 (Central Daylight Time),282334.6999999881,092_m_m_n_a.png,I,m,545,6,1,1561.8999999761581,280772.8000000119,8039,NNB,C,5
6,test,5,1.0,1-Back,1,z,Wed May 14 2025 13:19:30 GMT-0500 (Central Daylight Time),283751.10000002384,092_m_m_n_a.png,I,z,394,7,1,1413.2000000476837,282337.89999997616,8039,NNB,C,6
7,test,5,0.0,1-Back,1,m,Wed May 14 2025 13:19:30 GMT-0500 (Central Daylight Time),285100.6999999881,028_y_f_n_a.png,I,m,330,8,1,1346.199999988079,283754.5,8039,NNB,C,7
8,test,5,0.0,1-Back,1,m,Wed May 14 2025 13:19:30 GMT-0500 (Central Daylight Time),286568.8000000119,031_y_m_n_a.png,I,m,444,9,1,1464.800000011921,285104.0,8039,NNB,C,8
9,test,5,0.0,1-Back,1,m,Wed May 14 2025 13:19:30 GMT-0500 (Central Daylight Time),287999.8000000119,028_y_f_n_a.png,I,m,402,10,1,1427.699999988079,286572.10000002384,8039,NNB,C,9
10,test,5,0.0,1-Back,1,m,Wed May 14 2025 13:19:30 GMT-0500 (Central Daylight Time),289466.0,130_o_f_n_a.png,I,m,441,11,1,1461.800000011921,288004.1999999881,8039,NNB,C,10
11,test,5,1.0,1-Back,1,z,Wed May 14 2025 13:19:30 GMT-0500 (Central Daylight Time),290849.0,130_o_f_n_a.png,I,z,359,12,1,1378.699999988079,289470.3000000119,8039,NNB,C,11
12,test,5,0.0,1-Back,1,m,Wed May 14 2025 13:19:30 GMT-0500 (Central Daylight Time),292298.60000002384,146_o_m_n_a.png,I,m,417,13,1,1446.5,290852.10000002384,8039,NNB,C,12
13,test,5,0.0,1-Back,1,m,Wed May 14 2025 13:19:30 GMT-0500 (Central Daylight Time),293730.89999997616,093_m_f_n_a.png,I,m,415,14,1,1428.5,292302.39999997616,8039,NNB,C,13
14,test,5,1.0,1-Back,1,z,Wed May 14 2025 13:19:30 GMT-0500 (Central Daylight Time),295230.6999999881,093_m_f_n_a.png,I,z,478,15,1,1496.0999999642372,293734.60000002384,8039,NNB,C,14
15,test,5,0.0,1-Back,1,m,Wed May 14 2025 13:19:30 GMT-0500 (Central Daylight Time),296730.39999997616,146_o_m_n_a.png,I,m,475,16,1,1495.3999999761581,295235.0,8039,NNB,C,15
16,test,5,0.0,1-Back,1,m,Wed May 14 2025 13:19:30 GMT-0500 (Central Daylight Time),298346.60000002384,006_m_f_n_a.png,I,m,591,17,1,1612.5,296734.10000002384,8039,NNB,C,16
17,test,5,0.0,1-Back,1,m,Wed May 14 2025 13:19:30 GMT-0500 (Central Daylight Time),299995.89999997616,082_m_m_n_a.png,I,m,623,18,1,1645.3999999761581,298350.5,8039,NNB,C,17
0,prac,1,0.0,2-Back,,,Wed May 14 2025 13:19:30 GMT-0500 (Central Daylight Time),299995.89999997616,031_y_m_n_a.png,I,space,6486,1,1,1645.3999999761581,298350.5,8039,NNB,C,0
0,prac,1,0.0,2-Back,,,Wed May 14 2025 13:19:30 GMT-0500 (Central Daylight Time),299995.89999997616,006_m_f_n_a.png,I,space,6486,2,1,1645.3999999761581,298350.5,8039,NNB,C,0
1,prac,1,1.0,2-Back,1,m,Wed May 14 2025 13:19:30 GMT-0500 (Central Daylight Time),401980.8000000119,146_o_m_n_a.png,I,m,875,3,1,1776.300000011921,400204.5,8039,NNB,C,1
2,prac,1,0.0,2-Back,1,m,Wed May 14 2025 13:19:30 GMT-0500 (Central Daylight Time),403447.10000002384,130_o_f_n_a.png,I,m,554,4,1,1459.6000000238419,401987.5,8039,NNB,C,2
3,prac,1,0.0,2-Back,1,z,Wed May 14 2025 13:19:30 GMT-0500 (Central Daylight Time),404813.1999999881,146_o_m_n_a.png,I,z,603,5,1,1360.199999988079,403453.0,8039,NNB,C,3
4,prac,1,1.0,2-Back,1,z,Wed May 14 2025 13:19:30 GMT-0500 (Central Daylight Time),406162.6999999881,130_o_f_n_a.png,I,z,572,6,1,1341.5999999642372,404821.10000002384,8039,NNB,C,4
5,prac,1,0.0,2-Back,1,m,Wed May 14 2025 13:19:30 GMT-0500 (Central Daylight Time),407878.60000002384,082_m_m_n_a.png,I,m,834,7,1,1708.7000000476837,406169.89999997616,8039,NNB,C,5
6,prac,1,0.0,2-Back,1,m,Wed May 14 2025 13:19:30 GMT-0500 (Central Daylight Time),409628.3000000119,059_o_m_n_a.png,I,m,861,8,1,1744.5,407883.8000000119,8039,NNB,C,6
6,prac,1,0.0,2-Back,0,m,Wed May 14 2025 13:19:30 GMT-0500 (Central Daylight Time),411161.3000000119,028_y_f_n_a.png,I,z,657,9,1,1526.9000000357628,409634.39999997616,8039,NNB,C,7
7,prac,1,1.0,2-Back,1,z,Wed May 14 2025 13:19:30 GMT-0500 (Central Daylight Time),412827.60000002384,059_o_m_n_a.png,I,z,883,10,1,1661.1000000238419,411166.5,8039,NNB,C,8
8,prac,1,0.0,2-Back,1,m,Wed May 14 2025 13:19:30 GMT-0500 (Central Daylight Time),414493.60000002384,098_y_f_n_a.png,I,m,783,11,1,1659.9000000357628,412833.6999999881,8039,NNB,C,9
9,prac,1,0.0,2-Back,1,m,Wed May 14 2025 13:19:30 GMT-0500 (Central Daylight Time),416959.3000000119,082_m_m_n_a.png,I,m,1679,12,1,2460.300000011921,414499.0,8039,NNB,C,10
0,test,1,0.0,2-Back,,,Wed May 14 2025 13:19:30 GMT-0500 (Central Daylight Time),416959.3000000119,057_y_m_n_a.png,I,space,7131,1,1,2460.300000011921,414499.0,8039,NNB,C,0
0,test,1,0.0,2-Back,,,Wed May 14 2025 13:19:30 GMT-0500 (Central Daylight Time),416959.3000000119,057_y_m_n_a.png,I,space,7131,2,1,2460.300000011921,414499.0,8039,NNB,C,0
1,test,1,0.0,2-Back,1,m,Wed May 14 2025 13:19:30 GMT-0500 (Central Daylight Time),437802.60000002384,130_o_f_n_a.png,I,m,482,3,1,1495.5,436307.10000002384,8039,NNB,C,1
2,test,1,0.0,2-Back,1,m,Wed May 14 2025 13:19:30 GMT-0500 (Central Daylight Time),439269.0,092_m_m_n_a.png,I,m,438,4,1,1462.8999999761581,437806.10000002384,8039,NNB,C,2
3,test,1,1.0,2-Back,1,z,Wed May 14 2025 13:19:30 GMT-0500 (Central Daylight Time),440718.10000002384,130_o_f_n_a.png,I,z,420,5,1,1445.300000011921,439272.8000000119,8039,NNB,C,3
4,test,1,0.0,2-Back,1,m,Wed May 14 2025 13:19:30 GMT-0500 (Central Daylight Time),442168.0,098_y_f_n_a.png,I,m,427,6,1,1446.300000011921,440721.6999999881,8039,NNB,C,4
4,test,1,0.0,2-Back,0,m,Wed May 14 2025 13:19:30 GMT-0500 (Central Daylight Time),443917.5,092_m_m_n_a.png,I,z,721,7,1,1746.300000011921,442171.1999999881,8039,NNB,C,5
5,test,1,1.0,2-Back,1,z,Wed May 14 2025 13:19:30 GMT-0500 (Central Daylight Time),445718.10000002384,098_y_f_n_a.png,I,z,780,8,1,1797.2000000476837,443920.89999997616,8039,NNB,C,6
6,test,1,0.0,2-Back,1,m,Wed May 14 2025 13:19:30 GMT-0500 (Central Daylight Time),447399.89999997616,031_y_m_n_a.png,I,m,652,9,1,1678.2999999523163,445721.60000002384,8039,NNB,C,7
7,test,1,0.0,2-Back,1,m,Wed May 14 2025 13:19:30 GMT-0500 (Central Daylight Time),449149.10000002384,030_o_f_n_a.png,I,m,722,10,1,1745.6000000238419,447403.5,8039,NNB,C,8
8,test,1,1.0,2-Back,1,z,Wed May 14 2025 13:19:30 GMT-0500 (Central Daylight Time),450682.1999999881,031_y_m_n_a.png,I,z,516,11,1,1529.300000011921,449152.89999997616,8039,NNB,C,9
9,test,1,0.0,2-Back,1,m,Wed May 14 2025 13:19:30 GMT-0500 (Central Daylight Time),452198.1999999881,006_m_f_n_a.png,I,m,487,12,1,1512.8999999761581,450685.3000000119,8039,NNB,C,10
10,test,1,0.0,2-Back,1,m,Wed May 14 2025 13:19:30 GMT-0500 (Central Daylight Time),454097.89999997616,006_m_f_n_a.png,I,m,867,13,1,1895.7999999523163,452202.10000002384,8039,NNB,C,11
11,test,1,0.0,2-Back,1,m,Wed May 14 2025 13:19:30 GMT-0500 (Central Daylight Time),455897.10000002384,146_o_m_n_a.png,I,m,776,14,1,1795.5,454101.60000002384,8039,NNB,C,12
12,test,1,0.0,2-Back,1,m,Wed May 14 2025 13:19:30 GMT-0500 (Central Daylight Time),457663.10000002384,030_o_f_n_a.png,I,m,744,15,1,1762.0,455901.10000002384,8039,NNB,C,13
13,test,1,1.0,2-Back,1,z,Wed May 14 2025 13:19:30 GMT-0500 (Central Daylight Time),459046.0,146_o_m_n_a.png,I,z,362,16,1,1378.699999988079,457667.3000000119,8039,NNB,C,14
14,test,1,0.0,2-Back,1,m,Wed May 14 2025 13:19:30 GMT-0500 (Central Daylight Time),460812.10000002384,093_m_f_n_a.png,I,m,747,17,1,1762.300000011921,459049.8000000119,8039,NNB,C,15
15,test,1,0.0,2-Back,1,m,Wed May 14 2025 13:19:30 GMT-0500 (Central Daylight Time),462661.6999999881,082_m_m_n_a.png,I,m,829,18,1,1845.300000011921,460816.39999997616,8039,NNB,C,16
0,test,2,0.0,2-Back,,,Wed May 14 2025 13:19:30 GMT-0500 (Central Daylight Time),462661.6999999881,082_m_m_n_a.png,I,space,2668,1,1,1845.300000011921,460816.39999997616,8039,NNB,C,0
0,test,2,0.0,2-Back,,,Wed May 14 2025 13:19:30 GMT-0500 (Central Daylight Time),462661.6999999881,028_y_f_n_a.png,I,space,2668,2,1,1845.300000011921,460816.39999997616,8039,NNB,C,0
1,test,2,1.0,2-Back,1,z,Wed May 14 2025 13:19:30 GMT-0500 (Central Daylight Time),472042.1999999881,082_m_m_n_a.png,I,z,524,3,1,1545.5,470496.6999999881,8039,NNB,C,1
2,test,2,0.0,2-Back,1,m,Wed May 14 2025 13:19:30 GMT-0500 (Central Daylight Time),473541.39999997616,093_m_f_n_a.png,I,m,479,4,1,1496.0999999642372,472045.3000000119,8039,NNB,C,2
2,test,2,0.0,2-Back,0,m,Wed May 14 2025 13:19:30 GMT-0500 (Central Daylight Time),475324.1999999881,028_y_f_n_a.png,I,z,756,5,1,1778.800000011921,473545.39999997616,8039,NNB,C,3
3,test,2,0.0,2-Back,1,m,Wed May 14 2025 13:19:30 GMT-0500 (Central Daylight Time),476891.5,146_o_m_n_a.png,I,m,541,6,1,1563.800000011921,475327.6999999881,8039,NNB,C,4
3,test,2,0.0,2-Back,0,m,Wed May 14 2025 13:19:30 GMT-0500 (Central Daylight Time),478373.5,098_y_f_n_a.png,I,z,463,7,1,1478.5,476895.0,8039,NNB,C,5
4,test,2,1.0,2-Back,1,z,Wed May 14 2025 13:19:30 GMT-0500 (Central Daylight Time),480122.8000000119,146_o_m_n_a.png,I,z,732,8,1,1745.5,478377.3000000119,8039,NNB,C,6
5,test,2,0.0,2-Back,1,m,Wed May 14 2025 13:19:30 GMT-0500 (Central Daylight Time),481722.39999997616,031_y_m_n_a.png,I,m,566,9,1,1595.5,480126.89999997616,8039,NNB,C,7
6,test,2,0.0,2-Back,1,m,Wed May 14 2025 13:19:30 GMT-0500 (Central Daylight Time),483688.3000000119,031_y_m_n_a.png,I,m,943,10,1,1962.1000000238419,481726.1999999881,8039,NNB,C,8
7,test,2,0.0,2-Back,1,m,Wed May 14 2025 13:19:30 GMT-0500 (Central Daylight Time),485504.39999997616,006_m_f_n_a.png,I,m,792,11,1,1811.8999999761581,483692.5,8039,NNB,C,9
8,test,2,0.0,2-Back,1,m,Wed May 14 2025 13:19:30 GMT-0500 (Central Daylight Time),487354.1999999881,028_y_f_n_a.png,I,m,833,12,1,1846.0,485508.1999999881,8039,NNB,C,10
9,test,2,1.0,2-Back,1,z,Wed May 14 2025 13:19:30 GMT-0500 (Central Daylight Time),488787.8000000119,006_m_f_n_a.png,I,z,415,13,1,1430.0,487357.8000000119,8039,NNB,C,11
10,test,2,0.0,2-Back,1,m,Wed May 14 2025 13:19:30 GMT-0500 (Central Daylight Time),490303.10000002384,059_o_m_n_a.png,I,m,494,14,1,1511.1000000238419,488792.0,8039,NNB,C,12
11,test,2,0.0,2-Back,1,m,Wed May 14 2025 13:19:30 GMT-0500 (Central Daylight Time),492302.5,059_o_m_n_a.png,I,m,978,15,1,1995.5,490307.0,8039,NNB,C,13
12,test,2,0.0,2-Back,1,m,Wed May 14 2025 13:19:30 GMT-0500 (Central Daylight Time),494301.8000000119,030_o_f_n_a.png,I,m,979,16,1,1995.6000000238419,492306.1999999881,8039,NNB,C,14
13,test,2,0.0,2-Back,1,m,Wed May 14 2025 13:19:30 GMT-0500 (Central Daylight Time),495951.10000002384,092_m_m_n_a.png,I,m,627,17,1,1645.300000011921,494305.8000000119,8039,NNB,C,15
14,test,2,1.0,2-Back,1,z,Wed May 14 2025 13:19:30 GMT-0500 (Central Daylight Time),497500.6999999881,030_o_f_n_a.png,I,z,523,18,1,1545.5999999642372,495955.10000002384,8039,NNB,C,16
0,test,3,1.0,2-Back,,,Wed May 14 2025 13:19:30 GMT-0500 (Central Daylight Time),497500.6999999881,057_y_m_n_a.png,I,space,2652,1,1,1545.5999999642372,495955.10000002384,8039,NNB,C,0
0,test,3,1.0,2-Back,,,Wed May 14 2025 13:19:30 GMT-0500 (Central Daylight Time),497500.6999999881,057_y_m_n_a.png,I,space,2652,2,1,1545.5999999642372,495955.10000002384,8039,NNB,C,0
1,test,3,0.0,2-Back,1,m,Wed May 14 2025 13:19:30 GMT-0500 (Central Daylight Time),506881.0,030_o_f_n_a.png,I,m,534,3,1,1562.699999988079,505318.3000000119,8039,NNB,C,1
2,test,3,0.0,2-Back,1,m,Wed May 14 2025 13:19:30 GMT-0500 (Central Daylight Time),508613.89999997616,082_m_m_n_a.png,I,m,712,4,1,1728.7999999523163,506885.10000002384,8039,NNB,C,2
3,test,3,1.0,2-Back,1,z,Wed May 14 2025 13:19:30 GMT-0500 (Central Daylight Time),510096.89999997616,030_o_f_n_a.png,I,z,459,5,1,1479.2999999523163,508617.60000002384,8039,NNB,C,3
4,test,3,0.0,2-Back,1,m,Wed May 14 2025 13:19:30 GMT-0500 (Central Daylight Time),511629.5,031_y_m_n_a.png,I,m,504,6,1,1529.3999999761581,510100.10000002384,8039,NNB,C,4
4,test,3,0.0,2-Back,0,m,Wed May 14 2025 13:19:30 GMT-0500 (Central Daylight Time),513545.6999999881,082_m_m_n_a.png,I,z,891,7,1,1913.0,511632.6999999881,8039,NNB,C,5
5,test,3,1.0,2-Back,1,z,Wed May 14 2025 13:19:30 GMT-0500 (Central Daylight Time),515062.0,031_y_m_n_a.png,I,z,495,8,1,1512.1000000238419,513549.89999997616,8039,NNB,C,6
6,test,3,0.0,2-Back,1,m,Wed May 14 2025 13:19:30 GMT-0500 (Central Daylight Time),516727.8000000119,028_y_f_n_a.png,I,m,643,9,1,1662.699999988079,515065.10000002384,8039,NNB,C,7
7,test,3,0.0,2-Back,1,m,Wed May 14 2025 13:19:30 GMT-0500 (Central Daylight Time),518560.8000000119,092_m_m_n_a.png,I,m,801,10,1,1829.1000000238419,516731.6999999881,8039,NNB,C,8
8,test,3,1.0,2-Back,1,z,Wed May 14 2025 13:19:30 GMT-0500 (Central Daylight Time),519961.39999997616,028_y_f_n_a.png,I,z,368,11,1,1396.8999999761581,518564.5,8039,NNB,C,9
9,test,3,1.0,2-Back,1,z,Wed May 14 2025 13:19:30 GMT-0500 (Central Daylight Time),521593.1999999881,092_m_m_n_a.png,I,z,609,12,1,1628.300000011921,519964.89999997616,8039,NNB,C,10
10,test,3,0.0,2-Back,1,m,Wed May 14 2025 13:19:30 GMT-0500 (Central Daylight Time),523492.3000000119,030_o_f_n_a.png,I,m,871,13,1,1895.800000011921,521596.5,8039,NNB,C,11
11,test,3,0.0,2-Back,1,m,Wed May 14 2025 13:19:30 GMT-0500 (Central Daylight Time),525208.8000000119,093_m_f_n_a.png,I,m,692,14,1,1712.699999988079,523496.10000002384,8039,NNB,C,12
12,test,3,0.0,2-Back,1,m,Wed May 14 2025 13:19:30 GMT-0500 (Central Daylight Time),526841.5,146_o_m_n_a.png,I,m,608,15,1,1629.0,525212.5,8039,NNB,C,13
13,test,3,1.0,2-Back,1,z,Wed May 14 2025 13:19:30 GMT-0500 (Central Daylight Time),528257.8999999762,093_m_f_n_a.png,I,z,384,16,1,1412.3999999761581,526845.5,8039,NNB,C,14
14,test,3,0.0,2-Back,1,m,Wed May 14 2025 13:19:30 GMT-0500 (Central Daylight Time),530073.8000000119,130_o_f_n_a.png,I,m,791,17,1,1811.6000000238419,528262.1999999881,8039,NNB,C,15
15,test,3,0.0,2-Back,1,m,Wed May 14 2025 13:19:30 GMT-0500 (Central Daylight Time),531873.5,130_o_f_n_a.png,I,m,768,18,1,1796.300000011921,530077.1999999881,8039,NNB,C,16
0,test,4,0.0,2-Back,,,Wed May 14 2025 13:19:30 GMT-0500 (Central Daylight Time),531873.5,059_o_m_n_a.png,I,space,2392,1,1,1796.300000011921,530077.1999999881,8039,NNB,C,0
0,test,4,0.0,2-Back,,,Wed May 14 2025 13:19:30 GMT-0500 (Central Daylight Time),531873.5,098_y_f_n_a.png,I,space,2392,2,1,1796.300000011921,530077.1999999881,8039,NNB,C,0
1,test,4,1.0,2-Back,1,z,Wed May 14 2025 13:19:30 GMT-0500 (Central Daylight Time),542103.1999999881,059_o_m_n_a.png,I,z,1552,3,1,2578.800000011921,539524.3999999762,8039,NNB,C,1
2,test,4,1.0,2-Back,1,z,Wed May 14 2025 13:19:30 GMT-0500 (Central Daylight Time),543786.1000000238,098_y_f_n_a.png,I,z,651,4,1,1678.9000000357628,542107.1999999881,8039,NNB,C,2
3,test,4,0.0,2-Back,1,m,Wed May 14 2025 13:19:30 GMT-0500 (Central Daylight Time),545530.3000000119,030_o_f_n_a.png,I,m,727,5,1,1741.0,543789.3000000119,8039,NNB,C,3
4,test,4,0.0,2-Back,1,m,Wed May 14 2025 13:19:30 GMT-0500 (Central Daylight Time),547101.8999999762,030_o_f_n_a.png,I,m,546,6,1,1567.8999999761581,545534.0,8039,NNB,C,4
5,test,4,0.0,2-Back,1,m,Wed May 14 2025 13:19:30 GMT-0500 (Central Daylight Time),548984.5,006_m_f_n_a.png,I,m,851,7,1,1879.0,547105.5,8039,NNB,C,5
6,test,4,0.0,2-Back,1,m,Wed May 14 2025 13:19:30 GMT-0500 (Central Daylight Time),550600.6999999881,031_y_m_n_a.png,I,m,593,8,1,1611.8999999761581,548988.8000000119,8039,NNB,C,6
7,test,4,1.0,2-Back,1,z,Wed May 14 2025 13:19:30 GMT-0500 (Central Daylight Time),552000.1999999881,006_m_f_n_a.png,I,z,368,9,1,1395.699999988079,550604.5,8039,NNB,C,7
8,test,4,0.0,2-Back,1,m,Wed May 14 2025 13:19:30 GMT-0500 (Central Daylight Time),553516.3999999762,092_m_m_n_a.png,I,m,497,10,1,1512.5,552003.8999999762,8039,NNB,C,8
8,test,4,0.0,2-Back,0,m,Wed May 14 2025 13:19:30 GMT-0500 (Central Daylight Time),555116.1000000238,031_y_m_n_a.png,I,z,581,11,1,1596.2000000476837,553519.8999999762,8039,NNB,C,9
9,test,4,0.0,2-Back,1,m,Wed May 14 2025 13:19:30 GMT-0500 (Central Daylight Time),556848.8000000119,130_o_f_n_a.png,I,m,701,12,1,1729.0,555119.8000000119,8039,NNB,C,10
10,test,4,0.0,2-Back,1,m,Wed May 14 2025 13:19:30 GMT-0500 (Central Daylight Time),558631.5,057_y_m_n_a.png,I,m,752,13,1,1778.6000000238419,556852.8999999762,8039,NNB,C,11
11,test,4,1.0,2-Back,1,z,Wed May 14 2025 13:19:30 GMT-0500 (Central Daylight Time),560281.1000000238,130_o_f_n_a.png,I,z,618,14,1,1645.5,558635.6000000238,8039,NNB,C,12
12,test,4,1.0,2-Back,1,z,Wed May 14 2025 13:19:30 GMT-0500 (Central Daylight Time),562530.3000000119,057_y_m_n_a.png,I,z,1216,15,1,2245.300000011921,560285.0,8039,NNB,C,13
13,test,4,0.0,2-Back,1,m,Wed May 14 2025 13:19:30 GMT-0500 (Central Daylight Time),564079.6999999881,082_m_m_n_a.png,I,m,519,16,1,1545.699999988079,562534.0,8039,NNB,C,14
14,test,4,0.0,2-Back,1,m,Wed May 14 2025 13:19:30 GMT-0500 (Central Daylight Time),565746.1999999881,093_m_f_n_a.png,I,m,649,17,1,1662.300000011921,564083.8999999762,8039,NNB,C,15
15,test,4,1.0,2-Back,1,z,Wed May 14 2025 13:19:30 GMT-0500 (Central Daylight Time),567145.6999999881,082_m_m_n_a.png,I,z,375,18,1,1396.199999988079,565749.5,8039,NNB,C,16
0,test,5,1.0,2-Back,,,Wed May 14 2025 13:19:30 GMT-0500 (Central Daylight Time),567145.6999999881,057_y_m_n_a.png,I,space,2217,1,1,1396.199999988079,565749.5,8039,NNB,C,0
0,test,5,1.0,2-Back,,,Wed May 14 2025 13:19:30 GMT-0500 (Central Daylight Time),567145.6999999881,093_m_f_n_a.png,I,space,2217,2,1,1396.199999988079,565749.5,8039,NNB,C,0
1,test,5,1.0,2-Back,1,z,Wed May 14 2025 13:19:30 GMT-0500 (Central Daylight Time),575976.3000000119,057_y_m_n_a.png,I,z,519,3,1,1545.5,574430.8000000119,8039,NNB,C,1
2,test,5,1.0,2-Back,1,z,Wed May 14 2025 13:19:30 GMT-0500 (Central Daylight Time),577458.8000000119,093_m_f_n_a.png,I,z,465,4,1,1478.800000011921,575980.0,8039,NNB,C,2
3,test,5,0.0,2-Back,1,m,Wed May 14 2025 13:19:30 GMT-0500 (Central Daylight Time),579091.8000000119,130_o_f_n_a.png,I,m,606,5,1,1629.9000000357628,577461.8999999762,8039,NNB,C,3
4,test,5,0.0,2-Back,1,m,Wed May 14 2025 13:19:30 GMT-0500 (Central Daylight Time),580658.1999999881,057_y_m_n_a.png,I,m,533,6,1,1563.0999999642372,579095.1000000238,8039,NNB,C,4
5,test,5,0.0,2-Back,1,m,Wed May 14 2025 13:19:30 GMT-0500 (Central Daylight Time),582307.5,028_y_f_n_a.png,I,m,631,7,1,1646.199999988079,580661.3000000119,8039,NNB,C,5
5,test,5,0.0,2-Back,0,m,Wed May 14 2025 13:19:30 GMT-0500 (Central Daylight Time),583707.0,130_o_f_n_a.png,I,z,381,8,1,1395.5,582311.5,8039,NNB,C,6
6,test,5,1.0,2-Back,1,z,Wed May 14 2025 13:19:30 GMT-0500 (Central Daylight Time),585273.1000000238,028_y_f_n_a.png,I,z,534,9,1,1562.300000011921,583710.8000000119,8039,NNB,C,7
7,test,5,0.0,2-Back,1,m,Wed May 14 2025 13:19:30 GMT-0500 (Central Daylight Time),587039.3000000119,146_o_m_n_a.png,I,m,736,10,1,1762.0,585277.3000000119,8039,NNB,C,8
8,test,5,0.0,2-Back,1,m,Wed May 14 2025 13:19:30 GMT-0500 (Central Daylight Time),588572.0,006_m_f_n_a.png,I,m,514,11,1,1529.3999999761581,587042.6000000238,8039,NNB,C,9
9,test,5,0.0,2-Back,1,m,Wed May 14 2025 13:19:30 GMT-0500 (Central Daylight Time),590255.0,092_m_m_n_a.png,I,m,653,12,1,1679.8999999761581,588575.1000000238,8039,NNB,C,10
10,test,5,0.0,2-Back,1,m,Wed May 14 2025 13:19:30 GMT-0500 (Central Daylight Time),591987.3999999762,146_o_m_n_a.png,I,m,715,13,1,1728.8999999761581,590258.5,8039,NNB,C,11
10,test,5,1.0,2-Back,0,z,Wed May 14 2025 13:19:30 GMT-0500 (Central Daylight Time),593770.6000000238,092_m_m_n_a.png,I,m,757,14,1,1779.2000000476837,591991.3999999762,8039,NNB,C,12
10,test,5,0.0,2-Back,0,m,Wed May 14 2025 13:19:30 GMT-0500 (Central Daylight Time),595336.6000000238,098_y_f_n_a.png,I,z,535,15,1,1561.9000000357628,593774.6999999881,8039,NNB,C,13
11,test,5,0.0,2-Back,1,m,Wed May 14 2025 13:19:30 GMT-0500 (Central Daylight Time),597302.8000000119,059_o_m_n_a.png,I,m,936,16,1,1962.4000000357628,595340.3999999762,8039,NNB,C,14
12,test,5,0.0,2-Back,1,m,Wed May 14 2025 13:19:30 GMT-0500 (Central Daylight Time),599018.6999999881,006_m_f_n_a.png,I,m,698,17,1,1712.800000011921,597305.8999999762,8039,NNB,C,15
13,test,5,1.0,2-Back,1,z,Wed May 14 2025 13:19:30 GMT-0500 (Central Daylight Time),600551.8000000119,059_o_m_n_a.png,I,z,510,18,1,1529.6000000238419,599022.1999999881,8039,NNB,C,16
