acc_sum,block,block_c,block_cond,con_img,correct,correct_response,datetime,endtime,face,jitter,line,project,response,response_time,row_sel,session_number,start_end,starttime,subject_id,task,task_vers,trial
1,prac,1,A,haborder.png,1,z,Wed Jan 28 2026 17:59:24 GMT-0600 (Central Standard Time),74738.90000000224,CFD-WF-019-015-A.jpg,1000,solid,I,z,1196,12,2,2982.400000002235,71756.5,8079,ATS,A,1
2,prac,1,A,haborder.png,1,m,Wed Jan 28 2026 17:59:24 GMT-0600 (Central Standard Time),77704.5,CFD-WF-017-016-HC.jpg,1500,solid,I,m,682,11,2,5948.0,71756.5,8079,ATS,A,2
3,prac,1,A,haborder.png,1,m,Wed Jan 28 2026 17:59:24 GMT-0600 (Central Standard Time),80820.19999999925,CFD-WM-006-013-HC.jpg,1700,solid,I,m,620,9,2,9063.699999999255,71756.5,8079,ATS,A,3
4,prac,1,A,haborder.png,1,z,Wed Jan 28 2026 17:59:24 GMT-0600 (Central Standard Time),84035.60000000149,CFD-WF-003-014-A.jpg,1600,solid,I,z,820,10,2,12279.10000000149,71756.5,8079,ATS,A,4
5,prac,1,A,haborder.png,1,z,Wed Jan 28 2026 17:59:24 GMT-0600 (Central Standard Time),87484.80000000075,CFD-WM-013-015-A.jpg,1900,solid,I,z,753,8,2,15728.300000000745,71756.5,8079,ATS,A,5
6,prac,1,A,haborder.png,1,z,Wed Jan 28 2026 17:59:24 GMT-0600 (Central Standard Time),90850.40000000224,CFD-BM-005-010-A.jpg,1600,solid,I,z,971,2,2,19093.900000002235,71756.5,8079,ATS,A,6
7,prac,1,A,haborder.png,1,z,Wed Jan 28 2026 17:59:24 GMT-0600 (Central Standard Time),93416.40000000224,CFD-BF-039-039-A.jpg,1200,solid,I,z,582,6,2,21659.900000002235,71756.5,8079,ATS,A,7
7,prac,1,A,haborder.png,0,m,Wed Jan 28 2026 17:59:24 GMT-0600 (Central Standard Time),96315.5,CFD-BM-029-026-HC.jpg,1500,solid,I,z,605,3,2,24559.0,71756.5,8079,ATS,A,8
8,prac,1,A,haborder.png,1,m,Wed Jan 28 2026 17:59:24 GMT-0600 (Central Standard Time),99164.69999999925,CFD-WM-004-005-HC.jpg,1400,solid,I,m,661,7,2,27408.199999999255,71756.5,8079,ATS,A,9
9,prac,1,A,haborder.png,1,m,Wed Jan 28 2026 17:59:24 GMT-0600 (Central Standard Time),102446.80000000075,CFD-BM-017-052-HC.jpg,1700,solid,I,m,784,1,2,30690.300000000745,71756.5,8079,ATS,A,10
10,prac,1,A,haborder.png,1,m,Wed Jan 28 2026 17:59:24 GMT-0600 (Central Standard Time),105962.40000000224,CFD-BF-028-020-HC.jpg,2000,solid,I,m,730,5,2,34205.900000002235,71756.5,8079,ATS,A,11
11,prac,1,A,haborder.png,1,z,Wed Jan 28 2026 17:59:24 GMT-0600 (Central Standard Time),108444.90000000224,CFD-BF-023-013-A.jpg,1000,solid,I,z,694,4,2,36688.400000002235,71756.5,8079,ATS,A,12
1,prac,1,B,mfborder.png,1,z,Wed Jan 28 2026 17:59:24 GMT-0600 (Central Standard Time),137735.80000000075,CFD-BF-023-013-A.jpg,1000,dash,I,z,1143,4,2,2915.800000000745,134820.0,8079,ATS,A,1
2,prac,1,B,mfborder.png,1,z,Wed Jan 28 2026 17:59:24 GMT-0600 (Central Standard Time),141201.40000000224,CFD-WF-003-014-A.jpg,1500,dash,I,z,1173,11,2,6381.400000002235,134820.0,8079,ATS,A,2
2,prac,1,B,mfborder.png,0,m,Wed Jan 28 2026 17:59:24 GMT-0600 (Central Standard Time),145199.90000000224,CFD-WM-013-015-A.jpg,1700,dash,I,None,1515,9,2,10379.900000002235,134820.0,8079,ATS,A,3
2,prac,1,B,mfborder.png,0,m,Wed Jan 28 2026 17:59:24 GMT-0600 (Central Standard Time),149099.0,CFD-WM-006-013-HC.jpg,1600,dash,I,None,1515,10,2,14279.0,134820.0,8079,ATS,A,4
3,prac,1,B,mfborder.png,1,m,Wed Jan 28 2026 17:59:24 GMT-0600 (Central Standard Time),152347.90000000224,CFD-BM-010-019-A.jpg,1600,dash,I,m,854,2,2,17527.900000002235,134820.0,8079,ATS,A,5
4,prac,1,B,mfborder.png,1,z,Wed Jan 28 2026 17:59:24 GMT-0600 (Central Standard Time),155696.90000000224,CFD-BF-010-005-HC.jpg,1500,dash,I,z,1057,3,2,20876.900000002235,134820.0,8079,ATS,A,6
5,prac,1,B,mfborder.png,1,m,Wed Jan 28 2026 17:59:24 GMT-0600 (Central Standard Time),159079.1000000015,CFD-BM-029-026-HC.jpg,1700,dash,I,m,884,1,2,24259.10000000149,134820.0,8079,ATS,A,7
6,prac,1,B,mfborder.png,1,m,Wed Jan 28 2026 17:59:24 GMT-0600 (Central Standard Time),162478.19999999925,CFD-WM-019-013-A.jpg,1200,dash,I,m,1312,6,2,27658.199999999255,134820.0,8079,ATS,A,8
7,prac,1,B,mfborder.png,1,m,Wed Jan 28 2026 17:59:24 GMT-0600 (Central Standard Time),166243.5,CFD-BM-005-010-A.jpg,2000,dash,I,m,979,5,2,31423.5,134820.0,8079,ATS,A,9
8,prac,1,B,mfborder.png,1,z,Wed Jan 28 2026 17:59:24 GMT-0600 (Central Standard Time),169842.69999999925,CFD-WF-002-008-HC.jpg,1900,dash,I,z,913,8,2,35022.699999999255,134820.0,8079,ATS,A,10
9,prac,1,B,mfborder.png,1,z,Wed Jan 28 2026 17:59:24 GMT-0600 (Central Standard Time),172791.5,CFD-BF-028-020-HC.jpg,1400,dash,I,z,750,7,2,37971.5,134820.0,8079,ATS,A,11
10,prac,1,B,mfborder.png,1,z,Wed Jan 28 2026 17:59:24 GMT-0600 (Central Standard Time),175307.40000000224,CFD-WF-017-016-HC.jpg,1000,dash,I,z,729,12,2,40487.400000002235,134820.0,8079,ATS,A,12
1,test,1,A,haborder.png,1,m,Wed Jan 28 2026 17:59:24 GMT-0600 (Central Standard Time),204914.69999999925,CFD-BF-028-020-HC.jpg,2000,solid,I,m,623,5,2,2648.199999999255,202266.5,8079,ATS,A,1
2,test,1,A,haborder.png,1,m,Wed Jan 28 2026 17:59:24 GMT-0600 (Central Standard Time),207247.30000000075,CFD-WM-006-013-HC.jpg,1700,solid,I,m,610,9,2,4980.800000000745,202266.5,8079,ATS,A,2
3,test,1,A,haborder.png,1,z,Wed Jan 28 2026 17:59:24 GMT-0600 (Central Standard Time),209546.6000000015,CFD-BM-005-010-A.jpg,1600,solid,I,z,681,2,2,7280.10000000149,202266.5,8079,ATS,A,3
4,test,1,A,haborder.png,1,z,Wed Jan 28 2026 17:59:24 GMT-0600 (Central Standard Time),211762.6000000015,CFD-WF-003-014-A.jpg,1600,solid,I,z,598,10,2,9496.10000000149,202266.5,8079,ATS,A,4
5,test,1,A,haborder.png,1,z,Wed Jan 28 2026 17:59:24 GMT-0600 (Central Standard Time),213295.5,CFD-WF-019-015-A.jpg,1000,solid,I,z,511,12,2,11029.0,202266.5,8079,ATS,A,5
6,test,1,A,haborder.png,1,m,Wed Jan 28 2026 17:59:24 GMT-0600 (Central Standard Time),215394.80000000075,CFD-WF-017-016-HC.jpg,1500,solid,I,m,581,11,2,13128.300000000745,202266.5,8079,ATS,A,6
7,test,1,A,haborder.png,1,m,Wed Jan 28 2026 17:59:24 GMT-0600 (Central Standard Time),218060.6000000015,CFD-BF-028-020-HC.jpg,2000,solid,I,m,637,5,2,15794.10000000149,202266.5,8079,ATS,A,7
8,test,1,A,haborder.png,1,m,Wed Jan 28 2026 17:59:24 GMT-0600 (Central Standard Time),220143.40000000224,CFD-WF-017-016-HC.jpg,1500,solid,I,m,560,11,2,17876.900000002235,202266.5,8079,ATS,A,8
9,test,1,A,haborder.png,1,z,Wed Jan 28 2026 17:59:24 GMT-0600 (Central Standard Time),221876.0,CFD-BF-023-013-A.jpg,1000,solid,I,z,705,4,2,19609.5,202266.5,8079,ATS,A,9
10,test,1,A,haborder.png,1,z,Wed Jan 28 2026 17:59:24 GMT-0600 (Central Standard Time),224142.0,CFD-BM-005-010-A.jpg,1600,solid,I,z,636,2,2,21875.5,202266.5,8079,ATS,A,10
11,test,1,A,haborder.png,1,z,Wed Jan 28 2026 17:59:24 GMT-0600 (Central Standard Time),225941.5,CFD-BF-039-039-A.jpg,1200,solid,I,z,578,6,2,23675.0,202266.5,8079,ATS,A,11
12,test,1,A,haborder.png,1,z,Wed Jan 28 2026 17:59:24 GMT-0600 (Central Standard Time),228707.30000000075,CFD-WM-013-015-A.jpg,1900,solid,I,z,839,8,2,26440.800000000745,202266.5,8079,ATS,A,12
13,test,1,A,haborder.png,1,z,Wed Jan 28 2026 17:59:24 GMT-0600 (Central Standard Time),231339.80000000075,CFD-WF-003-014-A.jpg,1600,solid,I,z,1013,10,2,29073.300000000745,202266.5,8079,ATS,A,13
14,test,1,A,haborder.png,1,z,Wed Jan 28 2026 17:59:24 GMT-0600 (Central Standard Time),233089.40000000224,CFD-WF-019-015-A.jpg,1000,solid,I,z,716,12,2,30822.900000002235,202266.5,8079,ATS,A,14
15,test,1,A,haborder.png,1,m,Wed Jan 28 2026 17:59:24 GMT-0600 (Central Standard Time),235038.6000000015,CFD-WM-004-005-HC.jpg,1400,solid,I,m,519,7,2,32772.10000000149,202266.5,8079,ATS,A,15
16,test,1,A,haborder.png,1,m,Wed Jan 28 2026 17:59:24 GMT-0600 (Central Standard Time),237238.30000000075,CFD-BM-029-026-HC.jpg,1500,solid,I,m,669,3,2,34971.800000000745,202266.5,8079,ATS,A,16
17,test,1,A,haborder.png,1,m,Wed Jan 28 2026 17:59:24 GMT-0600 (Central Standard Time),239137.6000000015,CFD-WM-004-005-HC.jpg,1400,solid,I,m,474,7,2,36871.10000000149,202266.5,8079,ATS,A,17
18,test,1,A,haborder.png,1,z,Wed Jan 28 2026 17:59:24 GMT-0600 (Central Standard Time),241070.19999999925,CFD-BF-039-039-A.jpg,1200,solid,I,z,711,6,2,38803.699999999255,202266.5,8079,ATS,A,18
19,test,1,A,haborder.png,1,z,Wed Jan 28 2026 17:59:24 GMT-0600 (Central Standard Time),242969.80000000075,CFD-BF-023-013-A.jpg,1000,solid,I,z,866,4,2,40703.300000000745,202266.5,8079,ATS,A,19
20,test,1,A,haborder.png,1,m,Wed Jan 28 2026 17:59:24 GMT-0600 (Central Standard Time),245469.0,CFD-BM-017-052-HC.jpg,1700,solid,I,m,771,1,2,43202.5,202266.5,8079,ATS,A,20
21,test,1,A,haborder.png,1,m,Wed Jan 28 2026 17:59:24 GMT-0600 (Central Standard Time),247718.30000000075,CFD-BM-029-026-HC.jpg,1500,solid,I,m,728,3,2,45451.800000000745,202266.5,8079,ATS,A,21
22,test,1,A,haborder.png,1,z,Wed Jan 28 2026 17:59:24 GMT-0600 (Central Standard Time),250617.19999999925,CFD-WM-013-015-A.jpg,1900,solid,I,z,966,8,2,48350.699999999255,202266.5,8079,ATS,A,22
23,test,1,A,haborder.png,1,m,Wed Jan 28 2026 17:59:24 GMT-0600 (Central Standard Time),252916.40000000224,CFD-WM-006-013-HC.jpg,1700,solid,I,m,579,9,2,50649.900000002235,202266.5,8079,ATS,A,23
24,test,1,A,haborder.png,1,m,Wed Jan 28 2026 17:59:24 GMT-0600 (Central Standard Time),255332.30000000075,CFD-BM-017-052-HC.jpg,1700,solid,I,m,609,1,2,53065.800000000745,202266.5,8079,ATS,A,24
1,test,1,B,mfborder.png,1,z,Wed Jan 28 2026 17:59:24 GMT-0600 (Central Standard Time),279308.19999999925,CFD-BF-010-005-HC.jpg,1500,dash,I,z,895,3,2,2465.699999999255,276842.5,8079,ATS,A,1
2,test,1,B,mfborder.png,1,z,Wed Jan 28 2026 17:59:24 GMT-0600 (Central Standard Time),281157.40000000224,CFD-WF-017-016-HC.jpg,1000,dash,I,z,828,12,2,4314.900000002235,276842.5,8079,ATS,A,2
3,test,1,B,mfborder.png,1,z,Wed Jan 28 2026 17:59:24 GMT-0600 (Central Standard Time),283223.6000000015,CFD-BF-028-020-HC.jpg,1400,dash,I,z,635,7,2,6381.10000000149,276842.5,8079,ATS,A,3
4,test,1,B,mfborder.png,1,m,Wed Jan 28 2026 17:59:24 GMT-0600 (Central Standard Time),286205.80000000075,CFD-BM-005-010-A.jpg,2000,dash,I,m,953,5,2,9363.300000000745,276842.5,8079,ATS,A,4
5,test,1,B,mfborder.png,1,z,Wed Jan 28 2026 17:59:24 GMT-0600 (Central Standard Time),288005.5,CFD-WF-017-016-HC.jpg,1000,dash,I,z,770,12,2,11163.0,276842.5,8079,ATS,A,5
6,test,1,B,mfborder.png,1,m,Wed Jan 28 2026 17:59:24 GMT-0600 (Central Standard Time),290338.90000000224,CFD-WM-013-015-A.jpg,1700,dash,I,m,615,9,2,13496.400000002235,276842.5,8079,ATS,A,6
7,test,1,B,mfborder.png,1,m,Wed Jan 28 2026 17:59:24 GMT-0600 (Central Standard Time),292787.19999999925,CFD-BM-010-019-A.jpg,1600,dash,I,m,822,2,2,15944.699999999255,276842.5,8079,ATS,A,7
8,test,1,B,mfborder.png,1,z,Wed Jan 28 2026 17:59:24 GMT-0600 (Central Standard Time),294420.1000000015,CFD-BF-023-013-A.jpg,1000,dash,I,z,613,4,2,17577.60000000149,276842.5,8079,ATS,A,8
9,test,1,B,mfborder.png,1,z,Wed Jan 28 2026 17:59:24 GMT-0600 (Central Standard Time),297369.19999999925,CFD-WF-002-008-HC.jpg,1900,dash,I,z,1024,8,2,20526.699999999255,276842.5,8079,ATS,A,9
10,test,1,B,mfborder.png,1,z,Wed Jan 28 2026 17:59:24 GMT-0600 (Central Standard Time),299568.6000000015,CFD-BF-010-005-HC.jpg,1500,dash,I,z,667,3,2,22726.10000000149,276842.5,8079,ATS,A,10
11,test,1,B,mfborder.png,1,z,Wed Jan 28 2026 17:59:24 GMT-0600 (Central Standard Time),301946.69999999925,CFD-BF-023-013-A.jpg,1000,dash,I,z,1214,4,2,25104.199999999255,276842.5,8079,ATS,A,11
12,test,1,B,mfborder.png,1,m,Wed Jan 28 2026 17:59:24 GMT-0600 (Central Standard Time),304167.30000000075,CFD-BM-010-019-A.jpg,1600,dash,I,m,593,2,2,27324.800000000745,276842.5,8079,ATS,A,12
13,test,1,B,mfborder.png,1,m,Wed Jan 28 2026 17:59:24 GMT-0600 (Central Standard Time),306482.90000000224,CFD-BM-029-026-HC.jpg,1700,dash,I,m,589,1,2,29640.400000002235,276842.5,8079,ATS,A,13
14,test,1,B,mfborder.png,1,m,Wed Jan 28 2026 17:59:24 GMT-0600 (Central Standard Time),308716.6000000015,CFD-WM-006-013-HC.jpg,1600,dash,I,m,614,10,2,31874.10000000149,276842.5,8079,ATS,A,14
15,test,1,B,mfborder.png,1,z,Wed Jan 28 2026 17:59:24 GMT-0600 (Central Standard Time),311181.40000000224,CFD-WF-003-014-A.jpg,1500,dash,I,z,936,11,2,34338.900000002235,276842.5,8079,ATS,A,15
16,test,1,B,mfborder.png,1,m,Wed Jan 28 2026 17:59:24 GMT-0600 (Central Standard Time),313231.40000000224,CFD-WM-019-013-A.jpg,1200,dash,I,m,819,6,2,36388.900000002235,276842.5,8079,ATS,A,16
17,test,1,B,mfborder.png,1,z,Wed Jan 28 2026 17:59:24 GMT-0600 (Central Standard Time),315796.6000000015,CFD-WF-003-014-A.jpg,1500,dash,I,z,1045,11,2,38954.10000000149,276842.5,8079,ATS,A,17
18,test,1,B,mfborder.png,1,z,Wed Jan 28 2026 17:59:24 GMT-0600 (Central Standard Time),318445.69999999925,CFD-WF-002-008-HC.jpg,1900,dash,I,z,728,8,2,41603.199999999255,276842.5,8079,ATS,A,18
19,test,1,B,mfborder.png,1,m,Wed Jan 28 2026 17:59:24 GMT-0600 (Central Standard Time),320412.1000000015,CFD-WM-019-013-A.jpg,1200,dash,I,m,738,6,2,43569.60000000149,276842.5,8079,ATS,A,19
20,test,1,B,mfborder.png,1,m,Wed Jan 28 2026 17:59:24 GMT-0600 (Central Standard Time),322927.69999999925,CFD-BM-029-026-HC.jpg,1700,dash,I,m,792,1,2,46085.199999999255,276842.5,8079,ATS,A,20
21,test,1,B,mfborder.png,1,m,Wed Jan 28 2026 17:59:24 GMT-0600 (Central Standard Time),325676.90000000224,CFD-BM-005-010-A.jpg,2000,dash,I,m,721,5,2,48834.400000002235,276842.5,8079,ATS,A,21
22,test,1,B,mfborder.png,1,m,Wed Jan 28 2026 17:59:24 GMT-0600 (Central Standard Time),328009.6000000015,CFD-WM-006-013-HC.jpg,1600,dash,I,m,707,10,2,51167.10000000149,276842.5,8079,ATS,A,22
23,test,1,B,mfborder.png,1,m,Wed Jan 28 2026 17:59:24 GMT-0600 (Central Standard Time),330592.1000000015,CFD-WM-013-015-A.jpg,1700,dash,I,m,851,9,2,53749.60000000149,276842.5,8079,ATS,A,23
24,test,1,B,mfborder.png,1,z,Wed Jan 28 2026 17:59:24 GMT-0600 (Central Standard Time),332724.90000000224,CFD-BF-028-020-HC.jpg,1400,dash,I,z,712,7,2,55882.400000002235,276842.5,8079,ATS,A,24
1,prac,1,C,mfborder.png,1,z,Wed Jan 28 2026 17:59:24 GMT-0600 (Central Standard Time),382959.1000000015,CFD-WF-017-016-HC.jpg,1600,dash,I,z,767,1,2,3165.400000002235,379793.69999999925,8079,ATS,A,1
2,prac,1,C,mfborder.png,1,m,Wed Jan 28 2026 17:59:24 GMT-0600 (Central Standard Time),386274.80000000075,CFD-BM-005-010-A.jpg,1200,dash,I,m,1330,5,2,6481.10000000149,379793.69999999925,8079,ATS,A,2
3,prac,1,C,haborder.png,1,m,Wed Jan 28 2026 17:59:24 GMT-0600 (Central Standard Time),389323.6000000015,CFD-WM-004-005-HC.jpg,1000,dash,I,m,1254,11,2,9529.900000002235,379793.69999999925,8079,ATS,A,3
4,prac,1,C,haborder.png,1,z,Wed Jan 28 2026 17:59:24 GMT-0600 (Central Standard Time),392856.0,CFD-BF-023-013-A.jpg,1900,dash,I,z,849,7,2,13062.300000000745,379793.69999999925,8079,ATS,A,4
5,prac,1,C,haborder.png,1,m,Wed Jan 28 2026 17:59:24 GMT-0600 (Central Standard Time),396233.30000000075,CFD-WM-004-005-HC.jpg,1400,solid,I,m,1096,12,2,16439.60000000149,379793.69999999925,8079,ATS,A,5
6,prac,1,C,mfborder.png,1,z,Wed Jan 28 2026 17:59:24 GMT-0600 (Central Standard Time),399320.5,CFD-WF-019-015-A.jpg,1500,solid,I,z,798,2,2,19526.800000000745,379793.69999999925,8079,ATS,A,6
7,prac,1,C,mfborder.png,1,m,Wed Jan 28 2026 17:59:24 GMT-0600 (Central Standard Time),403237.19999999925,CFD-BM-017-052-HC.jpg,2000,solid,I,m,1136,4,2,23443.5,379793.69999999925,8079,ATS,A,7
8,prac,1,C,haborder.png,1,m,Wed Jan 28 2026 17:59:24 GMT-0600 (Central Standard Time),406418.6000000015,CFD-BM-029-026-HC.jpg,1500,solid,I,m,888,10,2,26624.900000002235,379793.69999999925,8079,ATS,A,8
9,prac,1,C,mfborder.png,1,m,Wed Jan 28 2026 17:59:24 GMT-0600 (Central Standard Time),410067.30000000075,CFD-WM-013-015-A.jpg,1700,solid,I,m,1154,6,2,30273.60000000149,379793.69999999925,8079,ATS,A,9
10,prac,1,C,mfborder.png,1,z,Wed Jan 28 2026 17:59:24 GMT-0600 (Central Standard Time),412566.6000000015,CFD-BF-028-020-HC.jpg,1000,dash,I,z,701,3,2,32772.900000002235,379793.69999999925,8079,ATS,A,10
11,prac,1,C,haborder.png,1,z,Wed Jan 28 2026 17:59:24 GMT-0600 (Central Standard Time),416315.30000000075,CFD-WF-003-014-A.jpg,1600,dash,I,z,1362,9,2,36521.60000000149,379793.69999999925,8079,ATS,A,11
11,prac,1,C,haborder.png,0,z,Wed Jan 28 2026 17:59:24 GMT-0600 (Central Standard Time),420397.30000000075,CFD-BF-039-039-A.jpg,1700,solid,I,None,1613,8,2,40603.60000000149,379793.69999999925,8079,ATS,A,12
1,test,1,C,mfborder.png,1,z,Wed Jan 28 2026 17:59:24 GMT-0600 (Central Standard Time),444072.90000000224,CFD-WF-003-014-A.jpg,1500,dash,I,z,844,3,2,2482.300000000745,441590.6000000015,8079,ATS,A,1
2,test,1,C,mfborder.png,1,z,Wed Jan 28 2026 17:59:24 GMT-0600 (Central Standard Time),446422.69999999925,CFD-BF-010-005-HC.jpg,1700,dash,I,z,627,1,2,4832.099999997765,441590.6000000015,8079,ATS,A,2
3,test,1,C,mfborder.png,1,m,Wed Jan 28 2026 17:59:24 GMT-0600 (Central Standard Time),449071.80000000075,CFD-WM-019-013-A.jpg,2000,dash,I,m,626,5,2,7481.199999999255,441590.6000000015,8079,ATS,A,3
4,test,1,C,mfborder.png,1,z,Wed Jan 28 2026 17:59:24 GMT-0600 (Central Standard Time),451304.30000000075,CFD-WF-003-014-A.jpg,1500,dash,I,z,701,3,2,9713.699999999255,441590.6000000015,8079,ATS,A,4
5,test,1,C,haborder.png,1,m,Wed Jan 28 2026 17:59:24 GMT-0600 (Central Standard Time),453337.1000000015,CFD-WF-017-016-HC.jpg,1000,solid,I,m,1000,12,2,11746.5,441590.6000000015,8079,ATS,A,5
6,test,1,C,haborder.png,1,m,Wed Jan 28 2026 17:59:24 GMT-0600 (Central Standard Time),455919.69999999925,CFD-BF-028-020-HC.jpg,1600,solid,I,m,951,10,2,14329.099999997765,441590.6000000015,8079,ATS,A,6
7,test,1,C,haborder.png,1,m,Wed Jan 28 2026 17:59:24 GMT-0600 (Central Standard Time),457869.0,CFD-WF-017-016-HC.jpg,1000,solid,I,m,929,12,2,16278.39999999851,441590.6000000015,8079,ATS,A,7
8,test,1,C,mfborder.png,1,z,Wed Jan 28 2026 17:59:24 GMT-0600 (Central Standard Time),460351.40000000224,CFD-BF-023-013-A.jpg,1600,dash,I,z,851,2,2,18760.800000000745,441590.6000000015,8079,ATS,A,8
8,test,1,C,haborder.png,0,z,Wed Jan 28 2026 17:59:24 GMT-0600 (Central Standard Time),463384.1000000015,CFD-BM-005-010-A.jpg,1900,solid,I,m,1109,8,2,21793.5,441590.6000000015,8079,ATS,A,9
9,test,1,C,haborder.png,1,z,Wed Jan 28 2026 17:59:24 GMT-0600 (Central Standard Time),466099.90000000224,CFD-WM-013-015-A.jpg,1400,solid,I,z,1289,7,2,24509.300000000745,441590.6000000015,8079,ATS,A,10
10,test,1,C,mfborder.png,1,m,Wed Jan 28 2026 17:59:24 GMT-0600 (Central Standard Time),468682.0,CFD-BM-029-026-HC.jpg,1200,dash,I,m,1365,6,2,27091.39999999851,441590.6000000015,8079,ATS,A,11
11,test,1,C,haborder.png,1,m,Wed Jan 28 2026 17:59:24 GMT-0600 (Central Standard Time),471131.6000000015,CFD-WF-002-008-HC.jpg,1500,solid,I,m,930,11,2,29541.0,441590.6000000015,8079,ATS,A,12
12,test,1,C,haborder.png,1,m,Wed Jan 28 2026 17:59:24 GMT-0600 (Central Standard Time),473364.19999999925,CFD-WF-002-008-HC.jpg,1500,solid,I,m,713,11,2,31773.599999997765,441590.6000000015,8079,ATS,A,13
12,test,1,C,mfborder.png,0,m,Wed Jan 28 2026 17:59:24 GMT-0600 (Central Standard Time),475897.0,CFD-WM-006-013-HC.jpg,1000,dash,I,None,1516,4,2,34306.39999999851,441590.6000000015,8079,ATS,A,14
13,test,1,C,mfborder.png,1,m,Wed Jan 28 2026 17:59:24 GMT-0600 (Central Standard Time),478329.6000000015,CFD-BM-029-026-HC.jpg,1200,dash,I,m,1208,6,2,36739.0,441590.6000000015,8079,ATS,A,15
13,test,1,C,mfborder.png,0,m,Wed Jan 28 2026 17:59:24 GMT-0600 (Central Standard Time),481428.40000000224,CFD-WM-019-013-A.jpg,2000,dash,I,z,1080,5,2,39837.800000000745,441590.6000000015,8079,ATS,A,16
14,test,1,C,haborder.png,1,z,Wed Jan 28 2026 17:59:24 GMT-0600 (Central Standard Time),484243.80000000075,CFD-BM-005-010-A.jpg,1900,solid,I,z,896,8,2,42653.199999999255,441590.6000000015,8079,ATS,A,17
15,test,1,C,mfborder.png,1,z,Wed Jan 28 2026 17:59:24 GMT-0600 (Central Standard Time),486760.1000000015,CFD-BF-023-013-A.jpg,1600,dash,I,z,884,2,2,45169.5,441590.6000000015,8079,ATS,A,18
15,test,1,C,haborder.png,0,z,Wed Jan 28 2026 17:59:24 GMT-0600 (Central Standard Time),489276.0,CFD-BM-010-019-A.jpg,1700,solid,I,m,788,9,2,47685.39999999851,441590.6000000015,8079,ATS,A,19
15,test,1,C,mfborder.png,0,m,Wed Jan 28 2026 17:59:24 GMT-0600 (Central Standard Time),491908.6000000015,CFD-WM-006-013-HC.jpg,1000,dash,I,None,1502,4,2,50318.0,441590.6000000015,8079,ATS,A,20
15,test,1,C,haborder.png,0,z,Wed Jan 28 2026 17:59:24 GMT-0600 (Central Standard Time),494807.69999999925,CFD-WM-013-015-A.jpg,1400,solid,I,m,1476,7,2,53217.099999997765,441590.6000000015,8079,ATS,A,21
15,test,1,C,haborder.png,0,z,Wed Jan 28 2026 17:59:24 GMT-0600 (Central Standard Time),498039.80000000075,CFD-BM-010-019-A.jpg,1700,solid,I,None,1516,9,2,56449.199999999255,441590.6000000015,8079,ATS,A,22
15,test,1,C,mfborder.png,0,z,Wed Jan 28 2026 17:59:24 GMT-0600 (Central Standard Time),501272.0,CFD-BF-010-005-HC.jpg,1700,dash,I,None,1516,1,2,59681.39999999851,441590.6000000015,8079,ATS,A,23
16,test,1,C,haborder.png,1,m,Wed Jan 28 2026 17:59:24 GMT-0600 (Central Standard Time),503871.0,CFD-BF-028-020-HC.jpg,1600,solid,I,m,968,10,2,62280.39999999851,441590.6000000015,8079,ATS,A,24
0,test,2,C,haborder.png,0,z,Wed Jan 28 2026 17:59:24 GMT-0600 (Central Standard Time),508853.19999999925,CFD-BF-039-039-A.jpg,1900,solid,I,None,1516,8,2,3432.2999999970198,505420.90000000224,8079,ATS,A,1
1,test,2,C,mfborder.png,1,z,Wed Jan 28 2026 17:59:24 GMT-0600 (Central Standard Time),511369.19999999925,CFD-BF-028-020-HC.jpg,1500,dash,I,z,991,3,2,5948.29999999702,505420.90000000224,8079,ATS,A,2
2,test,2,C,haborder.png,1,m,Wed Jan 28 2026 17:59:24 GMT-0600 (Central Standard Time),513285.0,CFD-WM-004-005-HC.jpg,1000,solid,I,m,896,12,2,7864.099999997765,505420.90000000224,8079,ATS,A,3
3,test,2,C,haborder.png,1,m,Wed Jan 28 2026 17:59:24 GMT-0600 (Central Standard Time),515767.6000000015,CFD-BM-029-026-HC.jpg,1600,solid,I,m,851,10,2,10346.699999999255,505420.90000000224,8079,ATS,A,4
4,test,2,C,haborder.png,1,m,Wed Jan 28 2026 17:59:24 GMT-0600 (Central Standard Time),518049.80000000075,CFD-BM-029-026-HC.jpg,1600,solid,I,m,665,10,2,12628.89999999851,505420.90000000224,8079,ATS,A,5
5,test,2,C,mfborder.png,1,z,Wed Jan 28 2026 17:59:24 GMT-0600 (Central Standard Time),520482.5,CFD-WF-019-015-A.jpg,1600,dash,I,z,815,2,2,15061.599999997765,505420.90000000224,8079,ATS,A,6
6,test,2,C,haborder.png,1,z,Wed Jan 28 2026 17:59:24 GMT-0600 (Central Standard Time),522981.90000000224,CFD-BF-023-013-A.jpg,1400,solid,I,z,1070,7,2,17561.0,505420.90000000224,8079,ATS,A,7
7,test,2,C,haborder.png,1,z,Wed Jan 28 2026 17:59:24 GMT-0600 (Central Standard Time),525447.9000000022,CFD-WF-003-014-A.jpg,1700,solid,I,z,742,9,2,20027.0,505420.90000000224,8079,ATS,A,8
8,test,2,C,mfborder.png,1,m,Wed Jan 28 2026 17:59:24 GMT-0600 (Central Standard Time),527747.1000000015,CFD-BM-017-052-HC.jpg,1000,dash,I,m,1272,4,2,22326.199999999255,505420.90000000224,8079,ATS,A,9
9,test,2,C,mfborder.png,1,m,Wed Jan 28 2026 17:59:24 GMT-0600 (Central Standard Time),530079.6000000015,CFD-WM-013-015-A.jpg,1200,dash,I,m,1101,6,2,24658.699999999255,505420.90000000224,8079,ATS,A,10
10,test,2,C,mfborder.png,1,m,Wed Jan 28 2026 17:59:24 GMT-0600 (Central Standard Time),531646.0,CFD-BM-017-052-HC.jpg,1000,dash,I,m,537,4,2,26225.099999997765,505420.90000000224,8079,ATS,A,11
11,test,2,C,mfborder.png,1,z,Wed Jan 28 2026 17:59:24 GMT-0600 (Central Standard Time),534111.8000000007,CFD-WF-017-016-HC.jpg,1700,dash,I,z,743,1,2,28690.89999999851,505420.90000000224,8079,ATS,A,12
12,test,2,C,haborder.png,1,z,Wed Jan 28 2026 17:59:24 GMT-0600 (Central Standard Time),536561.1999999993,CFD-BF-023-013-A.jpg,1400,solid,I,z,1017,7,2,31140.29999999702,505420.90000000224,8079,ATS,A,13
13,test,2,C,mfborder.png,1,m,Wed Jan 28 2026 17:59:24 GMT-0600 (Central Standard Time),539476.8000000007,CFD-BM-005-010-A.jpg,2000,dash,I,m,896,5,2,34055.89999999851,505420.90000000224,8079,ATS,A,14
14,test,2,C,haborder.png,1,m,Wed Jan 28 2026 17:59:24 GMT-0600 (Central Standard Time),541959.1000000015,CFD-WM-004-005-HC.jpg,1500,solid,I,m,952,11,2,36538.199999999255,505420.90000000224,8079,ATS,A,15
15,test,2,C,mfborder.png,1,z,Wed Jan 28 2026 17:59:24 GMT-0600 (Central Standard Time),544608.6999999993,CFD-WF-019-015-A.jpg,1600,dash,I,z,1025,2,2,39187.79999999702,505420.90000000224,8079,ATS,A,16
16,test,2,C,mfborder.png,1,z,Wed Jan 28 2026 17:59:24 GMT-0600 (Central Standard Time),546874.6000000015,CFD-BF-028-020-HC.jpg,1500,dash,I,z,740,3,2,41453.699999999255,505420.90000000224,8079,ATS,A,17
17,test,2,C,mfborder.png,1,z,Wed Jan 28 2026 17:59:24 GMT-0600 (Central Standard Time),549273.6999999993,CFD-WF-017-016-HC.jpg,1700,dash,I,z,668,1,2,43852.79999999702,505420.90000000224,8079,ATS,A,18
18,test,2,C,haborder.png,1,m,Wed Jan 28 2026 17:59:24 GMT-0600 (Central Standard Time),552072.5,CFD-WM-004-005-HC.jpg,1500,solid,I,m,1267,11,2,46651.599999997765,505420.90000000224,8079,ATS,A,19
19,test,2,C,haborder.png,1,z,Wed Jan 28 2026 17:59:24 GMT-0600 (Central Standard Time),554571.8000000007,CFD-WF-003-014-A.jpg,1700,solid,I,z,772,9,2,49150.89999999851,505420.90000000224,8079,ATS,A,20
20,test,2,C,mfborder.png,1,m,Wed Jan 28 2026 17:59:24 GMT-0600 (Central Standard Time),557504.3000000007,CFD-BM-005-010-A.jpg,2000,dash,I,m,901,5,2,52083.39999999851,505420.90000000224,8079,ATS,A,21
21,test,2,C,haborder.png,1,z,Wed Jan 28 2026 17:59:24 GMT-0600 (Central Standard Time),560319.9000000022,CFD-BF-039-039-A.jpg,1900,solid,I,z,892,8,2,54899.0,505420.90000000224,8079,ATS,A,22
21,test,2,C,haborder.png,0,m,Wed Jan 28 2026 17:59:24 GMT-0600 (Central Standard Time),562735.9000000022,CFD-WM-004-005-HC.jpg,1000,solid,I,z,1384,12,2,57315.0,505420.90000000224,8079,ATS,A,23
22,test,2,C,mfborder.png,1,m,Wed Jan 28 2026 17:59:24 GMT-0600 (Central Standard Time),564801.9000000022,CFD-WM-013-015-A.jpg,1200,dash,I,m,840,6,2,59381.0,505420.90000000224,8079,ATS,A,24
1,test,3,C,mfborder.png,1,z,Wed Jan 28 2026 17:59:24 GMT-0600 (Central Standard Time),571620.5,CFD-BF-023-013-A.jpg,1600,dash,I,z,749,2,2,2369.699999999255,569250.8000000007,8079,ATS,A,1
2,test,3,C,mfborder.png,1,m,Wed Jan 28 2026 17:59:24 GMT-0600 (Central Standard Time),574382.3000000007,CFD-WM-019-013-A.jpg,2000,dash,I,m,744,5,2,5131.5,569250.8000000007,8079,ATS,A,2
3,test,3,C,mfborder.png,1,m,Wed Jan 28 2026 17:59:24 GMT-0600 (Central Standard Time),576498.3000000007,CFD-BM-029-026-HC.jpg,1200,dash,I,m,898,6,2,7247.5,569250.8000000007,8079,ATS,A,3
4,test,3,C,haborder.png,1,z,Wed Jan 28 2026 17:59:24 GMT-0600 (Central Standard Time),579114.1000000015,CFD-BM-010-019-A.jpg,1700,solid,I,z,890,9,2,9863.300000000745,569250.8000000007,8079,ATS,A,4
5,test,3,C,mfborder.png,1,m,Wed Jan 28 2026 17:59:24 GMT-0600 (Central Standard Time),581163.5,CFD-WM-006-013-HC.jpg,1000,dash,I,m,1022,4,2,11912.699999999255,569250.8000000007,8079,ATS,A,5
5,test,3,C,haborder.png,0,m,Wed Jan 28 2026 17:59:24 GMT-0600 (Central Standard Time),583946.0,CFD-WF-002-008-HC.jpg,1500,solid,I,z,1265,11,2,14695.199999999255,569250.8000000007,8079,ATS,A,6
6,test,3,C,mfborder.png,1,z,Wed Jan 28 2026 17:59:24 GMT-0600 (Central Standard Time),586295.1999999993,CFD-BF-010-005-HC.jpg,1700,dash,I,z,619,1,2,17044.39999999851,569250.8000000007,8079,ATS,A,7
7,test,3,C,haborder.png,1,m,Wed Jan 28 2026 17:59:24 GMT-0600 (Central Standard Time),588179.3000000007,CFD-WF-017-016-HC.jpg,1000,solid,I,m,857,12,2,18928.5,569250.8000000007,8079,ATS,A,8
8,test,3,C,haborder.png,1,m,Wed Jan 28 2026 17:59:24 GMT-0600 (Central Standard Time),590327.3000000007,CFD-WF-002-008-HC.jpg,1500,solid,I,m,627,11,2,21076.5,569250.8000000007,8079,ATS,A,9
9,test,3,C,haborder.png,1,z,Wed Jan 28 2026 17:59:24 GMT-0600 (Central Standard Time),592976.5,CFD-WM-013-015-A.jpg,1400,solid,I,z,1217,7,2,23725.699999999255,569250.8000000007,8079,ATS,A,10
10,test,3,C,mfborder.png,1,z,Wed Jan 28 2026 17:59:24 GMT-0600 (Central Standard Time),595409.0,CFD-BF-010-005-HC.jpg,1700,dash,I,z,708,1,2,26158.199999999255,569250.8000000007,8079,ATS,A,11
11,test,3,C,haborder.png,1,m,Wed Jan 28 2026 17:59:24 GMT-0600 (Central Standard Time),597391.8000000007,CFD-WF-017-016-HC.jpg,1000,solid,I,m,951,12,2,28141.0,569250.8000000007,8079,ATS,A,12
12,test,3,C,mfborder.png,1,m,Wed Jan 28 2026 17:59:24 GMT-0600 (Central Standard Time),599324.8000000007,CFD-WM-006-013-HC.jpg,1000,dash,I,m,913,4,2,30074.0,569250.8000000007,8079,ATS,A,13
13,test,3,C,mfborder.png,1,z,Wed Jan 28 2026 17:59:24 GMT-0600 (Central Standard Time),601723.8000000007,CFD-WF-003-014-A.jpg,1500,dash,I,z,881,3,2,32473.0,569250.8000000007,8079,ATS,A,14
14,test,3,C,haborder.png,1,m,Wed Jan 28 2026 17:59:24 GMT-0600 (Central Standard Time),604839.9000000022,CFD-BF-028-020-HC.jpg,1600,solid,I,m,1493,10,2,35589.10000000149,569250.8000000007,8079,ATS,A,15
15,test,3,C,mfborder.png,1,m,Wed Jan 28 2026 17:59:24 GMT-0600 (Central Standard Time),608105.4000000022,CFD-WM-019-013-A.jpg,2000,dash,I,m,1249,5,2,38854.60000000149,569250.8000000007,8079,ATS,A,16
16,test,3,C,haborder.png,1,z,Wed Jan 28 2026 17:59:24 GMT-0600 (Central Standard Time),611270.9000000022,CFD-BM-005-010-A.jpg,1900,solid,I,z,1235,8,2,42020.10000000149,569250.8000000007,8079,ATS,A,17
17,test,3,C,haborder.png,1,z,Wed Jan 28 2026 17:59:24 GMT-0600 (Central Standard Time),613853.8000000007,CFD-BM-010-019-A.jpg,1700,solid,I,z,862,9,2,44603.0,569250.8000000007,8079,ATS,A,18
18,test,3,C,mfborder.png,1,m,Wed Jan 28 2026 17:59:24 GMT-0600 (Central Standard Time),615985.9000000022,CFD-BM-029-026-HC.jpg,1200,dash,I,m,915,6,2,46735.10000000149,569250.8000000007,8079,ATS,A,19
19,test,3,C,mfborder.png,1,z,Wed Jan 28 2026 17:59:24 GMT-0600 (Central Standard Time),618268.9000000022,CFD-WF-003-014-A.jpg,1500,dash,I,z,754,3,2,49018.10000000149,569250.8000000007,8079,ATS,A,20
19,test,3,C,haborder.png,0,z,Wed Jan 28 2026 17:59:24 GMT-0600 (Central Standard Time),621701.1000000015,CFD-BM-005-010-A.jpg,1900,solid,I,None,1516,8,2,52450.300000000745,569250.8000000007,8079,ATS,A,21
20,test,3,C,mfborder.png,1,z,Wed Jan 28 2026 17:59:24 GMT-0600 (Central Standard Time),624217.1000000015,CFD-BF-023-013-A.jpg,1600,dash,I,z,884,2,2,54966.300000000745,569250.8000000007,8079,ATS,A,22
21,test,3,C,haborder.png,1,m,Wed Jan 28 2026 17:59:24 GMT-0600 (Central Standard Time),627149.6000000015,CFD-BF-028-020-HC.jpg,1600,solid,I,m,1312,10,2,57898.800000000745,569250.8000000007,8079,ATS,A,23
22,test,3,C,haborder.png,1,z,Wed Jan 28 2026 17:59:24 GMT-0600 (Central Standard Time),629265.4000000022,CFD-WM-013-015-A.jpg,1400,solid,I,z,698,7,2,60014.60000000149,569250.8000000007,8079,ATS,A,24
0,test,4,C,haborder.png,0,m,Wed Jan 28 2026 17:59:24 GMT-0600 (Central Standard Time),633547.6000000015,CFD-WM-004-005-HC.jpg,1000,solid,I,None,1506,12,2,2549.5,630998.1000000015,8079,ATS,A,1
1,test,4,C,haborder.png,1,z,Wed Jan 28 2026 17:59:24 GMT-0600 (Central Standard Time),635947.6999999993,CFD-WF-003-014-A.jpg,1700,solid,I,z,681,9,2,4949.599999997765,630998.1000000015,8079,ATS,A,2
2,test,4,C,haborder.png,1,z,Wed Jan 28 2026 17:59:24 GMT-0600 (Central Standard Time),638612.5,CFD-BF-039-039-A.jpg,1900,solid,I,z,738,8,2,7614.39999999851,630998.1000000015,8079,ATS,A,3
3,test,4,C,haborder.png,1,z,Wed Jan 28 2026 17:59:24 GMT-0600 (Central Standard Time),640628.3000000007,CFD-BF-023-013-A.jpg,1400,solid,I,z,588,7,2,9630.199999999255,630998.1000000015,8079,ATS,A,4
4,test,4,C,mfborder.png,1,m,Wed Jan 28 2026 17:59:24 GMT-0600 (Central Standard Time),642478.0,CFD-BM-017-052-HC.jpg,1000,dash,I,m,828,4,2,11479.89999999851,630998.1000000015,8079,ATS,A,5
5,test,4,C,mfborder.png,1,z,Wed Jan 28 2026 17:59:24 GMT-0600 (Central Standard Time),645177.4000000022,CFD-WF-017-016-HC.jpg,1700,dash,I,z,967,1,2,14179.300000000745,630998.1000000015,8079,ATS,A,6
6,test,4,C,mfborder.png,1,z,Wed Jan 28 2026 17:59:24 GMT-0600 (Central Standard Time),647609.8000000007,CFD-WF-019-015-A.jpg,1600,dash,I,z,807,2,2,16611.699999999255,630998.1000000015,8079,ATS,A,7
7,test,4,C,haborder.png,1,m,Wed Jan 28 2026 17:59:24 GMT-0600 (Central Standard Time),650042.3000000007,CFD-BM-029-026-HC.jpg,1600,solid,I,m,807,10,2,19044.199999999255,630998.1000000015,8079,ATS,A,8
8,test,4,C,haborder.png,1,m,Wed Jan 28 2026 17:59:24 GMT-0600 (Central Standard Time),652275.1000000015,CFD-BM-029-026-HC.jpg,1600,solid,I,m,606,10,2,21277.0,630998.1000000015,8079,ATS,A,9
9,test,4,C,haborder.png,1,z,Wed Jan 28 2026 17:59:24 GMT-0600 (Central Standard Time),655157.0,CFD-BF-039-039-A.jpg,1900,solid,I,z,962,8,2,24158.89999999851,630998.1000000015,8079,ATS,A,10
10,test,4,C,haborder.png,1,m,Wed Jan 28 2026 17:59:24 GMT-0600 (Central Standard Time),657373.5,CFD-WM-004-005-HC.jpg,1000,solid,I,m,1195,12,2,26375.39999999851,630998.1000000015,8079,ATS,A,11
11,test,4,C,mfborder.png,1,z,Wed Jan 28 2026 17:59:24 GMT-0600 (Central Standard Time),659789.4000000022,CFD-BF-028-020-HC.jpg,1500,dash,I,z,895,3,2,28791.300000000745,630998.1000000015,8079,ATS,A,12
12,test,4,C,mfborder.png,1,m,Wed Jan 28 2026 17:59:24 GMT-0600 (Central Standard Time),662572.8000000007,CFD-BM-005-010-A.jpg,2000,dash,I,m,763,5,2,31574.699999999255,630998.1000000015,8079,ATS,A,13
13,test,4,C,mfborder.png,1,z,Wed Jan 28 2026 17:59:24 GMT-0600 (Central Standard Time),665387.5,CFD-WF-017-016-HC.jpg,1700,dash,I,z,1097,1,2,34389.39999999851,630998.1000000015,8079,ATS,A,14
13,test,4,C,mfborder.png,0,m,Wed Jan 28 2026 17:59:24 GMT-0600 (Central Standard Time),667720.1999999993,CFD-WM-013-015-A.jpg,1200,dash,I,z,1110,6,2,36722.099999997765,630998.1000000015,8079,ATS,A,15
14,test,4,C,mfborder.png,1,m,Wed Jan 28 2026 17:59:24 GMT-0600 (Central Standard Time),669453.0,CFD-BM-017-052-HC.jpg,1000,dash,I,m,704,4,2,38454.89999999851,630998.1000000015,8079,ATS,A,16
14,test,4,C,haborder.png,0,m,Wed Jan 28 2026 17:59:24 GMT-0600 (Central Standard Time),671935.3000000007,CFD-WM-004-005-HC.jpg,1500,solid,I,z,952,11,2,40937.199999999255,630998.1000000015,8079,ATS,A,17
15,test,4,C,mfborder.png,1,z,Wed Jan 28 2026 17:59:24 GMT-0600 (Central Standard Time),674201.5,CFD-BF-028-020-HC.jpg,1500,dash,I,z,742,3,2,43203.39999999851,630998.1000000015,8079,ATS,A,18
16,test,4,C,mfborder.png,1,m,Wed Jan 28 2026 17:59:24 GMT-0600 (Central Standard Time),676567.3000000007,CFD-WM-013-015-A.jpg,1200,dash,I,m,1143,6,2,45569.199999999255,630998.1000000015,8079,ATS,A,19
17,test,4,C,haborder.png,1,z,Wed Jan 28 2026 17:59:24 GMT-0600 (Central Standard Time),679433.0,CFD-WF-003-014-A.jpg,1700,solid,I,z,1141,9,2,48434.89999999851,630998.1000000015,8079,ATS,A,20
18,test,4,C,haborder.png,1,z,Wed Jan 28 2026 17:59:24 GMT-0600 (Central Standard Time),681615.6000000015,CFD-BF-023-013-A.jpg,1400,solid,I,z,751,7,2,50617.5,630998.1000000015,8079,ATS,A,21
19,test,4,C,haborder.png,1,m,Wed Jan 28 2026 17:59:24 GMT-0600 (Central Standard Time),684181.3000000007,CFD-WM-004-005-HC.jpg,1500,solid,I,m,1037,11,2,53183.199999999255,630998.1000000015,8079,ATS,A,22
20,test,4,C,mfborder.png,1,z,Wed Jan 28 2026 17:59:24 GMT-0600 (Central Standard Time),686697.5,CFD-WF-019-015-A.jpg,1600,dash,I,z,884,2,2,55699.39999999851,630998.1000000015,8079,ATS,A,23
21,test,4,C,mfborder.png,1,m,Wed Jan 28 2026 17:59:24 GMT-0600 (Central Standard Time),689730.1000000015,CFD-BM-005-010-A.jpg,2000,dash,I,m,1007,5,2,58732.0,630998.1000000015,8079,ATS,A,24
