acc_sum,block,block_c,condition,correct,correct_response,datetime,endtime,flanker,jitter,project,response,response_test_buffer_response,response_test_target_response,response_time,response_time_test_buffer_response,response_time_test_target_response,row_sel,session_number,start_end,starttime,subject_id,target,task,task_vers,time_test_buffer,time_test_buffer_response,time_test_constants,time_test_flanker,time_test_jitter,time_test_logger,time_test_target,time_test_target_response,time_test_variables,trial
1,prac,1,con,1,m,Thu Sep 11 2025 12:07:15 GMT-0400 (Eastern Daylight Time),48128.79999923706,bell,1000,I,m,,,695,,,3,3,2990.5,45138.29999923706,9013,bell,AF,B,,,,,,,,,,1
2,prac,1,inc,1,m,Thu Sep 11 2025 12:07:15 GMT-0400 (Eastern Daylight Time),51161.79999923706,brutal,1100,I,m,,,617,,,8,3,3020.8999996185303,48140.89999961853,9013,window,AF,B,,,,,,,,,,2
3,prac,1,inc,1,m,Thu Sep 11 2025 12:07:15 GMT-0400 (Eastern Daylight Time),53961.89999961853,elated,900,I,m,,,586,,,6,3,2790.199999809265,51171.699999809265,9013,napkin,AF,B,,,,,,,,,,3
4,prac,1,con,1,m,Thu Sep 11 2025 12:07:15 GMT-0400 (Eastern Daylight Time),56528.39999961853,jacket,800,I,m,,,446,,,5,3,2547.0,53981.39999961853,9013,jacket,AF,B,,,,,,,,,,4
5,prac,1,inc,1,z,Thu Sep 11 2025 12:07:15 GMT-0400 (Eastern Daylight Time),59311.79999923706,rock,900,I,z,,,580,,,10,3,2774.0,56537.79999923706,9013,kind,AF,B,,,,,,,,,,5
6,prac,1,inc,1,z,Thu Sep 11 2025 12:07:15 GMT-0400 (Eastern Daylight Time),62211.599999427795,film,900,I,z,,,691,,,14,3,2890.3999996185303,59321.199999809265,9013,hate,AF,B,,,,,,,,,,6
7,prac,1,inc,1,m,Thu Sep 11 2025 12:07:15 GMT-0400 (Eastern Daylight Time),64961.39999961853,kind,900,I,m,,,545,,,2,3,2740.300000190735,62221.099999427795,9013,rock,AF,B,,,,,,,,,,7
7,prac,1,con,0,z,Thu Sep 11 2025 12:07:15 GMT-0400 (Eastern Daylight Time),67644.5999994278,elated,800,I,m,,,567,,,9,3,2677.0,64967.599999427795,9013,elated,AF,B,,,,,,,,,,8
8,prac,1,con,1,m,Thu Sep 11 2025 12:07:15 GMT-0400 (Eastern Daylight Time),70127.89999961853,step,800,I,m,,,379,,,1,3,2474.0,67653.89999961853,9013,step,AF,B,,,,,,,,,,9
9,prac,1,con,1,z,Thu Sep 11 2025 12:07:15 GMT-0400 (Eastern Daylight Time),72978.29999923706,rage,1000,I,z,,,545,,,15,3,2843.199999809265,70135.0999994278,9013,rage,AF,B,,,,,,,,,,10
10,prac,1,inc,1,m,Thu Sep 11 2025 12:07:15 GMT-0400 (Eastern Daylight Time),76028.0999994278,hate,1100,I,m,,,617,,,4,3,3034.300000190735,72993.79999923706,9013,film,AF,B,,,,,,,,,,11
11,prac,1,con,1,z,Thu Sep 11 2025 12:07:15 GMT-0400 (Eastern Daylight Time),78911.5999994278,love,1000,I,z,,,579,,,11,3,2877.3999996185303,76034.19999980927,9013,love,AF,B,,,,,,,,,,12
12,prac,1,inc,1,z,Thu Sep 11 2025 12:07:15 GMT-0400 (Eastern Daylight Time),82111.19999980927,window,1100,I,z,,,795,,,16,3,3185.0,78926.19999980927,9013,temper,AF,B,,,,,,,,,,13
13,prac,1,con,1,z,Thu Sep 11 2025 12:07:15 GMT-0400 (Eastern Daylight Time),84878.5,brutal,800,I,z,,,662,,,13,3,2761.1000003814697,82117.39999961853,9013,brutal,AF,B,,,,,,,,,,14
14,prac,1,inc,1,z,Thu Sep 11 2025 12:07:15 GMT-0400 (Eastern Daylight Time),87895.0,napkin,1100,I,z,,,605,,,12,3,3007.300000190735,84887.69999980927,9013,friend,AF,B,,,,,,,,,,15
14,prac,1,con,0,m,Thu Sep 11 2025 12:07:15 GMT-0400 (Eastern Daylight Time),90878.39999961853,remote,1000,I,z,,,681,,,7,3,2975.6000003814697,87902.79999923706,9013,remote,AF,B,,,,,,,,,,16
1,test,1,inc,1,m,Thu Sep 11 2025 12:07:15 GMT-0400 (Eastern Daylight Time),105078.69999980927,kind,900,I,m,m,None,590,391.0,199.0,78,3,2025.6999998092651,103053.0,9013,rock,AF,B,97376,97376,95750,96659,95750,97776,97176,97176,97775,1
2,test,1,inc,1,z,Thu Sep 11 2025 12:07:15 GMT-0400 (Eastern Daylight Time),107461.69999980927,window,1100,I,z,z,None,742,542.0,200.0,32,3,2371.4000005722046,105090.29999923706,9013,friend,AF,B,99609,99609,97787,98893,97788,100159,99409,99409,100159,2
3,test,1,inc,1,m,Thu Sep 11 2025 12:07:15 GMT-0400 (Eastern Daylight Time),109728.19999980927,friend,1100,I,m,m,None,630,430.0,200.0,112,3,2254.6000003814697,107473.5999994278,9013,napkin,AF,B,101993,101993,100171,101276,100171,102425,101792,101792,102425,3
4,test,1,inc,1,m,Thu Sep 11 2025 12:07:15 GMT-0400 (Eastern Daylight Time),112045.0,friend,1100,I,m,m,None,668,469.0,199.0,128,3,2306.9000005722046,109738.0999994278,9013,window,AF,B,104258,104258,102435,103542,102435,104742,104059,104059,104742,4
5,test,1,inc,1,m,Thu Sep 11 2025 12:07:15 GMT-0400 (Eastern Daylight Time),114278.29999923706,brutal,900,I,m,m,None,790,591.0,199.0,118,3,2221.5999994277954,112056.69999980927,9013,remote,AF,B,106376,106376,104754,105659,104754,106975,106176,106176,106975,5
6,test,1,con,1,m,Thu Sep 11 2025 12:07:15 GMT-0400 (Eastern Daylight Time),116161.5999994278,napkin,800,I,m,m,None,546,346.0,200.0,105,3,1873.8000001907349,114287.79999923706,9013,napkin,AF,B,108509,108509,106985,107793,106985,108859,108309,108309,108859,6
7,test,1,inc,1,m,Thu Sep 11 2025 12:07:15 GMT-0400 (Eastern Daylight Time),118228.39999961853,kind,900,I,m,m,None,625,426.0,199.0,94,3,2057.699999809265,116170.69999980927,9013,film,AF,B,110493,110493,108868,109776,108868,110925,110293,110293,110925,7
8,test,1,con,1,z,Thu Sep 11 2025 12:07:15 GMT-0400 (Eastern Daylight Time),120361.79999923706,brutal,1000,I,z,z,None,587,387.0,200.0,35,3,2125.2999992370605,118236.5,9013,brutal,AF,B,112659,112660,110934,111943,110934,113059,112459,112459,113059,8
9,test,1,con,1,z,Thu Sep 11 2025 12:07:15 GMT-0400 (Eastern Daylight Time),122578.29999923706,friend,900,I,z,z,None,777,578.0,199.0,26,3,2205.0,120373.29999923706,9013,friend,AF,B,114693,114693,113070,113976,113071,115275,114493,114493,115275,9
10,test,1,con,1,z,Thu Sep 11 2025 12:07:15 GMT-0400 (Eastern Daylight Time),125061.69999980927,temper,1000,I,z,z,None,942,742.0,200.0,59,3,2472.199999809265,122589.5,9013,temper,AF,B,117009,117009,115287,116293,115287,117759,116809,116809,117759,10
11,test,1,con,1,m,Thu Sep 11 2025 12:07:15 GMT-0400 (Eastern Daylight Time),127128.5,window,900,I,m,m,None,621,422.0,199.0,122,3,2055.9000005722046,125072.5999994278,9013,window,AF,B,119393,119393,117770,118676,117770,119826,119193,119193,119825,11
12,test,1,con,1,z,Thu Sep 11 2025 12:07:15 GMT-0400 (Eastern Daylight Time),129344.89999961853,hate,1000,I,z,z,None,680,480.0,200.0,43,3,2206.8999996185303,127138.0,9013,hate,AF,B,121559,121559,119835,120842,119835,122042,121359,121359,122042,12
13,test,1,inc,1,z,Thu Sep 11 2025 12:07:15 GMT-0400 (Eastern Daylight Time),131461.5999994278,rock,900,I,z,z,None,674,475.0,199.0,46,3,2108.300000190735,129353.29999923706,9013,hate,AF,B,123676,123676,122050,122959,122051,124159,123476,123476,124159,13
14,test,1,con,1,z,Thu Sep 11 2025 12:07:15 GMT-0400 (Eastern Daylight Time),133428.39999961853,love,900,I,z,z,None,525,326.0,199.0,18,3,1956.1999998092651,131472.19999980927,9013,love,AF,B,125793,125793,124169,125076,124170,126126,125593,125593,126125,14
15,test,1,inc,1,m,Thu Sep 11 2025 12:07:15 GMT-0400 (Eastern Daylight Time),135595.19999980927,love,1000,I,m,m,None,619,419.0,200.0,71,3,2156.699999809265,133438.5,9013,step,AF,B,127860,127860,126136,127143,126136,128292,127659,127659,128292,15
16,test,1,inc,1,m,Thu Sep 11 2025 12:07:15 GMT-0400 (Eastern Daylight Time),137745.0,love,1000,I,m,m,None,612,413.0,199.0,95,3,2139.5,135605.5,9013,film,AF,B,130026,130026,128303,129309,128303,130442,129826,129826,130442,16
17,test,1,con,1,m,Thu Sep 11 2025 12:07:15 GMT-0400 (Eastern Daylight Time),139878.39999961853,window,1000,I,m,m,None,590,391.0,199.0,123,3,2120.199999809265,137758.19999980927,9013,window,AF,B,132176,132176,130455,131459,130456,132576,131976,131976,132575,17
18,test,1,inc,1,m,Thu Sep 11 2025 12:07:15 GMT-0400 (Eastern Daylight Time),142178.29999923706,hate,1100,I,m,m,None,662,462.0,200.0,88,3,2284.8999996185303,139893.39999961853,9013,bell,AF,B,134409,134409,132590,133693,132591,134875,134209,134209,134875,18
19,test,1,con,1,z,Thu Sep 11 2025 12:07:15 GMT-0400 (Eastern Daylight Time),144361.79999923706,elated,1000,I,z,z,None,638,438.0,200.0,3,3,2174.2999992370605,142187.5,9013,elated,AF,B,136609,136609,134885,135893,134885,137059,136409,136409,137059,19
20,test,1,con,1,z,Thu Sep 11 2025 12:07:15 GMT-0400 (Eastern Daylight Time),146645.0,temper,900,I,z,z,None,842,642.0,200.0,58,3,2274.9000005722046,144370.0999994278,9013,temper,AF,B,138693,138693,137067,137976,137068,139342,138492,138492,139342,20
21,test,1,inc,1,z,Thu Sep 11 2025 12:07:15 GMT-0400 (Eastern Daylight Time),148944.89999961853,window,1100,I,z,z,None,662,463.0,199.0,8,3,2290.5,146654.39999961853,9013,elated,AF,B,141176,141176,139351,140459,139352,141642,140976,140976,141642,21
22,test,1,con,1,z,Thu Sep 11 2025 12:07:15 GMT-0400 (Eastern Daylight Time),151111.79999923706,hate,1100,I,z,z,None,522,323.0,199.0,44,3,2155.8999996185303,148955.89999961853,9013,hate,AF,B,143476,143476,141653,142759,141653,143809,143276,143276,143809,22
23,test,1,con,1,m,Thu Sep 11 2025 12:07:15 GMT-0400 (Eastern Daylight Time),152995.0999994278,bell,800,I,m,m,None,543,344.0,199.0,81,3,1873.6999998092651,151121.39999961853,9013,bell,AF,B,145343,145343,143818,144626,143819,145692,145143,145143,145692,23
24,test,1,inc,1,m,Thu Sep 11 2025 12:07:15 GMT-0400 (Eastern Daylight Time),154994.79999923706,elated,800,I,m,m,None,660,461.0,199.0,125,3,1991.2999992370605,153003.5,9013,window,AF,B,147226,147226,145701,146509,145701,147692,147026,147026,147692,24
25,test,1,con,1,m,Thu Sep 11 2025 12:07:15 GMT-0400 (Eastern Daylight Time),157361.69999980927,remote,1000,I,m,m,None,828,629.0,199.0,115,3,2357.699999809265,155004.0,9013,remote,AF,B,149426,149426,147701,148709,147701,150059,149226,149226,150059,25
26,test,1,inc,1,m,Thu Sep 11 2025 12:07:15 GMT-0400 (Eastern Daylight Time),159511.79999923706,rage,800,I,m,m,None,806,607.0,199.0,93,3,2140.5999994277954,157371.19999980927,9013,film,AF,B,151592,151592,150068,150876,150069,152209,151392,151393,152209,26
27,test,1,con,1,z,Thu Sep 11 2025 12:07:15 GMT-0400 (Eastern Daylight Time),161595.0999994278,friend,800,I,z,z,None,735,536.0,199.0,25,3,2073.5,159521.5999994278,9013,friend,AF,B,153743,153743,152219,153026,152219,154292,153543,153543,154292,27
28,test,1,inc,1,z,Thu Sep 11 2025 12:07:15 GMT-0400 (Eastern Daylight Time),163661.79999923706,napkin,900,I,z,z,None,616,417.0,199.0,30,3,2057.7999992370605,161604.0,9013,friend,AF,B,155926,155926,154301,155209,154301,156359,155726,155726,156359,28
29,test,1,con,1,z,Thu Sep 11 2025 12:07:15 GMT-0400 (Eastern Daylight Time),165545.0999994278,love,800,I,z,z,None,538,338.0,200.0,17,3,1874.1999998092651,163670.89999961853,9013,love,AF,B,157893,157893,156368,157176,156368,158242,157692,157692,158242,29
30,test,1,con,1,z,Thu Sep 11 2025 12:07:15 GMT-0400 (Eastern Daylight Time),167728.19999980927,kind,1000,I,z,z,None,647,448.0,199.0,11,3,2174.1000003814697,165554.0999994278,9013,kind,AF,B,159976,159976,158251,159259,158251,160425,159776,159776,160425,30
31,test,1,inc,1,m,Thu Sep 11 2025 12:07:15 GMT-0400 (Eastern Daylight Time),170011.69999980927,friend,1100,I,m,m,None,636,436.0,200.0,104,3,2275.5,167736.19999980927,9013,jacket,AF,B,162259,162259,160433,161542,160434,162709,162059,162059,162709,31
32,test,1,con,1,m,Thu Sep 11 2025 12:07:15 GMT-0400 (Eastern Daylight Time),172044.89999961853,step,800,I,m,m,None,684,469.0,215.0,65,3,2021.3999996185303,170023.5,9013,step,AF,B,164258,164258,162721,163526,162721,164742,164042,164043,164742,32
33,test,1,inc,1,m,Thu Sep 11 2025 12:07:15 GMT-0400 (Eastern Daylight Time),174295.0999994278,hate,1100,I,m,m,None,607,408.0,199.0,96,3,2240.8999996185303,172054.19999980927,9013,film,AF,B,166575,166575,164751,165858,164752,166992,166376,166376,166992,33
34,test,1,inc,1,z,Thu Sep 11 2025 12:07:15 GMT-0400 (Eastern Daylight Time),176311.5999994278,step,800,I,z,z,None,672,473.0,199.0,21,3,2008.3000001907349,174303.29999923706,9013,love,AF,B,168526,168526,167000,167809,167001,169009,168326,168326,169009,34
35,test,1,inc,1,m,Thu Sep 11 2025 12:07:15 GMT-0400 (Eastern Daylight Time),178461.69999980927,love,1000,I,m,m,None,599,400.0,199.0,87,3,2141.0,176320.69999980927,9013,bell,AF,B,170743,170743,169018,170026,169018,171159,170543,170543,171159,35
36,test,1,con,1,m,Thu Sep 11 2025 12:07:15 GMT-0400 (Eastern Daylight Time),180695.0999994278,film,1100,I,m,m,None,590,391.0,199.0,92,3,2224.5,178470.5999994278,9013,film,AF,B,172992,172992,171168,172276,171168,173392,172793,172793,173392,36
37,test,1,inc,1,z,Thu Sep 11 2025 12:07:15 GMT-0400 (Eastern Daylight Time),182728.39999961853,jacket,800,I,z,z,None,688,489.0,199.0,61,3,2021.6000003814697,180706.79999923706,9013,temper,AF,B,174926,174926,173404,174209,173404,175425,174726,174726,175425,37
38,test,1,inc,1,m,Thu Sep 11 2025 12:07:15 GMT-0400 (Eastern Daylight Time),184861.69999980927,temper,1000,I,m,m,None,583,384.0,199.0,111,3,2123.5,182738.19999980927,9013,napkin,AF,B,177159,177159,175435,176442,175436,177559,176959,176959,177559,38
39,test,1,inc,1,z,Thu Sep 11 2025 12:07:15 GMT-0400 (Eastern Daylight Time),187078.39999961853,remote,1000,I,z,z,None,673,474.0,199.0,31,3,2207.199999809265,184871.19999980927,9013,friend,AF,B,179293,179293,177568,178576,177569,179775,179092,179093,179775,39
40,test,1,con,1,z,Thu Sep 11 2025 12:07:15 GMT-0400 (Eastern Daylight Time),189145.19999980927,hate,900,I,z,z,None,622,422.0,200.0,42,3,2057.800000190735,187087.39999961853,9013,hate,AF,B,181409,181409,179784,180693,179785,181842,181209,181209,181842,40
41,test,1,inc,1,z,Thu Sep 11 2025 12:07:15 GMT-0400 (Eastern Daylight Time),191295.0,rock,900,I,z,z,None,714,515.0,199.0,54,3,2140.800000190735,189154.19999980927,9013,rage,AF,B,183476,183476,181851,182759,181851,183992,183276,183276,183992,41
42,test,1,inc,1,m,Thu Sep 11 2025 12:07:15 GMT-0400 (Eastern Daylight Time),193528.0999994278,hate,1100,I,m,m,None,587,388.0,199.0,80,3,2225.5999994277954,191302.5,9013,rock,AF,B,185826,185826,184000,185109,184000,186225,185626,185626,186225,42
43,test,1,con,1,z,Thu Sep 11 2025 12:07:15 GMT-0400 (Eastern Daylight Time),195794.69999980927,temper,1100,I,z,z,None,626,426.0,200.0,60,3,2259.800000190735,193534.89999961853,9013,temper,AF,B,188060,188060,186232,187343,186232,188492,187859,187859,188492,43
44,test,1,inc,1,z,Thu Sep 11 2025 12:07:15 GMT-0400 (Eastern Daylight Time),197878.29999923706,rock,900,I,z,z,None,640,441.0,199.0,14,3,2078.3999996185303,195799.89999961853,9013,kind,AF,B,190126,190126,188497,189409,188497,190575,189926,189926,190575,44
45,test,1,inc,1,m,Thu Sep 11 2025 12:07:15 GMT-0400 (Eastern Daylight Time),200128.19999980927,friend,1100,I,m,m,None,614,414.0,200.0,120,3,2241.1000003814697,197887.0999994278,9013,remote,AF,B,192409,192409,190584,191693,190584,192825,192209,192209,192825,45
46,test,1,con,1,z,Thu Sep 11 2025 12:07:15 GMT-0400 (Eastern Daylight Time),202361.79999923706,kind,900,I,z,z,None,788,588.0,200.0,10,3,2224.0999994277954,200137.69999980927,9013,kind,AF,B,194459,194459,192835,193743,192835,195059,194259,194259,195059,46
47,test,1,inc,1,m,Thu Sep 11 2025 12:07:15 GMT-0400 (Eastern Daylight Time),204345.0999994278,rage,800,I,m,m,None,637,438.0,199.0,69,3,1971.0999994277954,202374.0,9013,step,AF,B,196593,196593,195071,195876,195071,197042,196393,196393,197042,47
48,test,1,con,1,z,Thu Sep 11 2025 12:07:15 GMT-0400 (Eastern Daylight Time),206495.19999980927,love,1000,I,z,z,None,614,415.0,199.0,19,3,2142.199999809265,204353.0,9013,love,AF,B,198776,198776,197050,198059,197051,199192,198576,198576,199192,48
49,test,1,inc,1,m,Thu Sep 11 2025 12:07:15 GMT-0400 (Eastern Daylight Time),208595.0999994278,brutal,900,I,m,m,None,660,461.0,199.0,126,3,2092.5999994277954,206502.5,9013,window,AF,B,200826,200826,199200,200109,199200,201292,200626,200626,201292,49
50,test,1,inc,1,z,Thu Sep 11 2025 12:07:15 GMT-0400 (Eastern Daylight Time),210795.19999980927,bell,1000,I,z,z,None,653,454.0,199.0,47,3,2190.800000190735,208604.39999961853,9013,hate,AF,B,203026,203026,201301,202309,201302,203492,202826,202826,203492,50
51,test,1,inc,1,m,Thu Sep 11 2025 12:07:15 GMT-0400 (Eastern Daylight Time),212728.0999994278,rage,800,I,m,m,None,571,372.0,199.0,85,3,1917.3999996185303,210810.69999980927,9013,bell,AF,B,205043,205043,203508,204326,203509,205425,204843,204843,205425,51
52,test,1,con,1,z,Thu Sep 11 2025 12:07:15 GMT-0400 (Eastern Daylight Time),214828.5,friend,1000,I,z,z,None,552,352.0,200.0,27,3,2095.300000190735,212733.19999980927,9013,friend,AF,B,207159,207159,205430,206442,205431,207526,206959,206959,207525,52
53,test,1,con,1,m,Thu Sep 11 2025 12:07:15 GMT-0400 (Eastern Daylight Time),216945.0,window,1100,I,m,m,None,479,279.0,200.0,124,3,2106.0,214839.0,9013,window,AF,B,209359,209360,207536,208642,207536,209642,209159,209159,209642,53
54,test,1,con,1,m,Thu Sep 11 2025 12:07:15 GMT-0400 (Eastern Daylight Time),218945.0999994278,remote,900,I,m,m,None,562,363.0,199.0,114,3,1991.5,216953.5999994278,9013,remote,AF,B,211276,211276,209651,210559,209651,211642,211076,211076,211642,54
55,test,1,inc,1,m,Thu Sep 11 2025 12:07:15 GMT-0400 (Eastern Daylight Time),221295.19999980927,temper,1000,I,m,m,None,815,616.0,199.0,119,3,2340.4000005722046,218954.79999923706,9013,remote,AF,B,213376,213376,211652,212659,211652,213992,213176,213176,213992,55
56,test,1,con,1,m,Thu Sep 11 2025 12:07:15 GMT-0400 (Eastern Daylight Time),223478.5999994278,step,1100,I,m,m,None,540,341.0,199.0,68,3,2174.699999809265,221303.89999961853,9013,step,AF,B,215826,215826,214001,215109,214001,216176,215626,215626,216176,56
57,test,1,inc,1,z,Thu Sep 11 2025 12:07:15 GMT-0400 (Eastern Daylight Time),225428.5,step,800,I,z,z,None,610,410.0,200.0,45,3,1937.7000007629395,223490.79999923706,9013,hate,AF,B,217709,217709,216188,216993,216188,218126,217509,217509,218125,57
58,test,1,con,1,m,Thu Sep 11 2025 12:07:15 GMT-0400 (Eastern Daylight Time),227928.39999961853,film,1000,I,m,m,None,956,756.0,200.0,91,3,2491.5,225436.89999961853,9013,film,AF,B,219859,219859,218134,219143,218134,220625,219659,219659,220625,58
59,test,1,inc,1,z,Thu Sep 11 2025 12:07:15 GMT-0400 (Eastern Daylight Time),230161.69999980927,remote,1000,I,z,z,None,696,496.0,200.0,7,3,2223.699999809265,227938.0,9013,elated,AF,B,222359,222359,220635,221643,220635,222859,222159,222159,222859,59
60,test,1,inc,1,z,Thu Sep 11 2025 12:07:15 GMT-0400 (Eastern Daylight Time),232211.79999923706,jacket,800,I,z,z,None,712,512.0,200.0,37,3,2041.0,230170.79999923706,9013,brutal,AF,B,224392,224392,222868,223676,222868,224909,224192,224192,224909,60
61,test,1,con,1,z,Thu Sep 11 2025 12:07:15 GMT-0400 (Eastern Daylight Time),234395.0999994278,elated,1100,I,z,z,None,535,336.0,199.0,4,3,2173.5999994277954,232221.5,9013,elated,AF,B,226743,226743,224919,226026,224919,227092,226543,226543,227092,61
62,test,1,inc,1,z,Thu Sep 11 2025 12:07:15 GMT-0400 (Eastern Daylight Time),236628.5,window,1100,I,z,z,None,592,393.0,199.0,40,3,2223.7000007629395,234404.79999923706,9013,brutal,AF,B,228926,228926,227102,228209,227102,229326,228726,228726,229325,62
63,test,1,inc,1,z,Thu Sep 11 2025 12:07:15 GMT-0400 (Eastern Daylight Time),238645.0,jacket,800,I,z,z,None,676,476.0,200.0,5,3,2005.8000001907349,236639.19999980927,9013,elated,AF,B,230859,230859,229336,230142,229336,231342,230659,230659,231342,63
64,test,1,con,1,z,Thu Sep 11 2025 12:07:15 GMT-0400 (Eastern Daylight Time),240795.19999980927,love,1100,I,z,z,None,502,303.0,199.0,20,3,2141.5,238653.69999980927,9013,love,AF,B,233176,233176,231351,232459,231351,233492,232976,232976,233492,64
65,test,1,con,1,m,Thu Sep 11 2025 12:07:15 GMT-0400 (Eastern Daylight Time),243061.5,remote,1100,I,m,m,None,624,425.0,199.0,116,3,2255.6000003814697,240805.89999961853,9013,remote,AF,B,235326,235326,233503,234609,233503,235759,235126,235126,235759,65
66,test,1,inc,1,m,Thu Sep 11 2025 12:07:15 GMT-0400 (Eastern Daylight Time),245111.5999994278,kind,900,I,m,m,None,604,405.0,199.0,70,3,2045.3999996185303,243066.19999980927,9013,step,AF,B,237393,237393,235763,236676,235764,237809,237193,237193,237809,66
67,test,1,inc,1,m,Thu Sep 11 2025 12:07:15 GMT-0400 (Eastern Daylight Time),247311.5999994278,love,1000,I,m,m,None,663,464.0,199.0,79,3,2193.199999809265,245118.39999961853,9013,rock,AF,B,239543,239543,237815,238826,237816,240009,239343,239343,240009,67
68,test,1,con,1,m,Thu Sep 11 2025 12:07:15 GMT-0400 (Eastern Daylight Time),249345.0999994278,jacket,900,I,m,m,None,595,396.0,199.0,98,3,2024.8999996185303,247320.19999980927,9013,jacket,AF,B,241642,241643,240017,240926,240018,242042,241443,241443,242042,68
69,test,1,con,1,z,Thu Sep 11 2025 12:07:15 GMT-0400 (Eastern Daylight Time),251595.19999980927,rage,1000,I,z,z,None,702,503.0,199.0,51,3,2240.5,249354.69999980927,9013,rage,AF,B,243776,243776,242052,243059,242052,244292,243576,243576,244292,69
70,test,1,inc,1,m,Thu Sep 11 2025 12:07:15 GMT-0400 (Eastern Daylight Time),253661.79999923706,elated,800,I,m,m,None,716,517.0,199.0,101,3,2058.0,251603.79999923706,9013,jacket,AF,B,245826,245826,244301,245109,244301,246359,245626,245626,246359,70
71,test,1,con,1,z,Thu Sep 11 2025 12:07:15 GMT-0400 (Eastern Daylight Time),255661.79999923706,temper,800,I,z,z,None,650,451.0,199.0,57,3,1991.2999992370605,253670.5,9013,temper,AF,B,247892,247892,246367,247176,246368,248359,247693,247693,248359,71
72,test,1,inc,1,z,Thu Sep 11 2025 12:07:15 GMT-0400 (Eastern Daylight Time),257845.0999994278,remote,1000,I,z,z,None,641,442.0,199.0,39,3,2175.0999994277954,255670.0,9013,brutal,AF,B,250093,250093,248367,249376,248367,250542,249893,249893,250542,72
73,test,1,con,1,m,Thu Sep 11 2025 12:07:15 GMT-0400 (Eastern Daylight Time),259761.69999980927,jacket,800,I,m,m,None,578,379.0,199.0,97,3,1907.4000005722046,257854.29999923706,9013,jacket,AF,B,252076,252076,250551,251359,250552,252459,251876,251876,252459,73
74,test,1,con,1,m,Thu Sep 11 2025 12:07:15 GMT-0400 (Eastern Daylight Time),261678.5,napkin,900,I,m,m,None,465,266.0,199.0,106,3,1903.6000003814697,259774.89999961853,9013,napkin,AF,B,254093,254093,252472,253376,252472,254376,253893,253893,254375,74
75,test,1,con,1,m,Thu Sep 11 2025 12:07:15 GMT-0400 (Eastern Daylight Time),263578.5,step,900,I,m,m,None,454,254.0,200.0,66,3,1892.0,261686.5,9013,step,AF,B,256009,256009,254384,255293,254384,256276,255809,255809,256275,75
76,test,1,inc,1,z,Thu Sep 11 2025 12:07:15 GMT-0400 (Eastern Daylight Time),265628.0,napkin,900,I,z,z,None,600,400.0,200.0,62,3,2038.6000003814697,263589.39999961853,9013,temper,AF,B,257910,257910,256286,257193,256287,258325,257709,257709,258325,76
77,test,1,inc,1,m,Thu Sep 11 2025 12:07:15 GMT-0400 (Eastern Daylight Time),267661.79999923706,brutal,900,I,m,m,None,584,384.0,200.0,102,3,2028.3999996185303,265633.39999961853,9013,jacket,AF,B,259959,259959,258330,259243,258331,260359,259759,259759,260359,77
78,test,1,con,1,m,Thu Sep 11 2025 12:07:15 GMT-0400 (Eastern Daylight Time),269845.0999994278,rock,1100,I,m,m,None,542,342.0,200.0,76,3,2173.0,267672.0999994278,9013,rock,AF,B,262193,262193,260369,261476,260369,262542,261992,261992,262542,78
79,test,1,con,1,m,Thu Sep 11 2025 12:07:15 GMT-0400 (Eastern Daylight Time),271778.5,film,900,I,m,m,None,495,295.0,200.0,90,3,1923.8000001907349,269854.69999980927,9013,film,AF,B,264176,264176,262552,263459,262552,264476,263975,263975,264476,79
80,test,1,inc,1,m,Thu Sep 11 2025 12:07:15 GMT-0400 (Eastern Daylight Time),273678.5,elated,800,I,m,m,None,550,350.0,200.0,109,3,1890.5,271788.0,9013,napkin,AF,B,266009,266009,264485,265293,264485,266376,265809,265809,266376,80
80,test,1,con,0,z,Thu Sep 11 2025 12:07:15 GMT-0400 (Eastern Daylight Time),275528.29999923706,elated,800,I,m,m,None,506,306.0,200.0,1,3,1840.5999994277954,273687.69999980927,9013,elated,AF,B,267909,267909,266385,267193,266385,268225,267709,267709,268225,81
80,test,1,inc,0,z,Thu Sep 11 2025 12:07:15 GMT-0400 (Eastern Daylight Time),277744.89999961853,jacket,800,I,m,m,None,881,681.0,200.0,29,3,2206.1000003814697,275538.79999923706,9013,friend,AF,B,269759,269759,268236,269043,268236,270442,269559,269559,270442,82
81,test,1,inc,1,m,Thu Sep 11 2025 12:07:15 GMT-0400 (Eastern Daylight Time),279678.5,rage,800,I,m,m,None,582,383.0,199.0,77,3,1921.6000003814697,277756.89999961853,9013,rock,AF,B,271976,271976,270454,271259,270454,272376,271776,271776,272376,83
82,test,1,inc,1,z,Thu Sep 11 2025 12:07:15 GMT-0400 (Eastern Daylight Time),281894.79999923706,film,1100,I,z,z,None,573,372.0,201.0,56,3,2207.8999996185303,279686.89999961853,9013,rage,AF,B,274210,274210,272384,273493,272384,274592,274009,274009,274592,84
83,test,1,con,1,m,Thu Sep 11 2025 12:07:15 GMT-0400 (Eastern Daylight Time),284061.79999923706,bell,1000,I,m,m,None,616,417.0,199.0,83,3,2160.2999992370605,281901.5,9013,bell,AF,B,276326,276326,274598,275609,274599,276759,276126,276126,276759,85
84,test,1,con,1,m,Thu Sep 11 2025 12:07:15 GMT-0400 (Eastern Daylight Time),286245.0,rock,900,I,m,m,None,741,542.0,199.0,74,3,2174.300000190735,284070.69999980927,9013,rock,AF,B,278393,278393,276768,277676,276768,278942,278193,278193,278942,86
85,test,1,con,1,z,Thu Sep 11 2025 12:07:15 GMT-0400 (Eastern Daylight Time),288328.5999994278,brutal,800,I,z,z,None,738,523.0,215.0,33,3,2075.5,286253.0999994278,9013,brutal,AF,B,280493,280493,278950,279759,278950,281026,280277,280277,281026,87
86,test,1,con,1,z,Thu Sep 11 2025 12:07:15 GMT-0400 (Eastern Daylight Time),290311.79999923706,brutal,900,I,z,z,None,539,339.0,200.0,34,3,1971.6999998092651,288340.0999994278,9013,brutal,AF,B,282660,282660,281037,281943,281037,283009,282459,282459,283009,88
87,test,1,con,1,m,Thu Sep 11 2025 12:07:15 GMT-0400 (Eastern Daylight Time),292211.89999961853,remote,800,I,m,m,None,561,361.0,200.0,113,3,1890.3999996185303,290321.5,9013,remote,AF,B,284542,284542,283019,283826,283019,284909,284342,284342,284909,89
88,test,1,inc,1,m,Thu Sep 11 2025 12:07:15 GMT-0400 (Eastern Daylight Time),294528.19999980927,hate,1100,I,m,m,None,679,480.0,199.0,72,3,2307.6000003814697,292220.5999994278,9013,step,AF,B,286743,286743,284918,286026,284918,287225,286543,286543,287225,90
89,test,1,inc,1,z,Thu Sep 11 2025 12:07:15 GMT-0400 (Eastern Daylight Time),296661.39999961853,bell,1000,I,z,z,None,592,392.0,200.0,55,3,2124.300000190735,294537.0999994278,9013,rage,AF,B,288959,288959,287234,288243,287234,289359,288759,288759,289358,91
90,test,1,con,1,m,Thu Sep 11 2025 12:07:15 GMT-0400 (Eastern Daylight Time),298728.5,jacket,1000,I,m,m,None,539,340.0,199.0,99,3,2061.9000005722046,296666.5999994278,9013,jacket,AF,B,291076,291076,289364,290375,289364,291426,290876,290876,291426,92
91,test,1,inc,1,m,Thu Sep 11 2025 12:07:15 GMT-0400 (Eastern Daylight Time),300778.5,brutal,900,I,m,m,None,604,404.0,200.0,110,3,2039.2000007629395,298739.29999923706,9013,napkin,AF,B,293059,293059,291436,292342,291437,293476,292859,292859,293475,93
92,test,1,inc,1,z,Thu Sep 11 2025 12:07:15 GMT-0400 (Eastern Daylight Time),302978.5,remote,1000,I,z,z,None,662,462.0,200.0,63,3,2186.4000005722046,300792.0999994278,9013,temper,AF,B,295209,295209,293489,294493,293490,295676,295009,295009,295676,94
93,test,1,con,1,z,Thu Sep 11 2025 12:07:15 GMT-0400 (Eastern Daylight Time),304878.79999923706,kind,800,I,z,z,None,565,365.0,200.0,9,3,1890.7999992370605,302988.0,9013,kind,AF,B,297209,297210,295685,296493,295685,297576,297009,297009,297576,95
94,test,1,inc,1,z,Thu Sep 11 2025 12:07:15 GMT-0400 (Eastern Daylight Time),306978.5,bell,1000,I,z,z,None,562,362.0,200.0,15,3,2091.800000190735,304886.69999980927,9013,kind,AF,B,299309,299309,297584,298593,297584,299676,299109,299109,299676,96
95,test,1,con,1,m,Thu Sep 11 2025 12:07:15 GMT-0400 (Eastern Daylight Time),308928.19999980927,bell,900,I,m,m,None,514,314.0,200.0,82,3,1940.6000003814697,306987.5999994278,9013,bell,AF,B,301310,301310,299685,300593,299685,301625,301109,301109,301625,97
96,test,1,con,1,m,Thu Sep 11 2025 12:07:15 GMT-0400 (Eastern Daylight Time),310761.89999961853,film,800,I,m,m,None,488,288.0,200.0,89,3,1819.1999998092651,308942.69999980927,9013,film,AF,B,303159,303159,301640,302443,301641,303459,302959,302959,303459,98
97,test,1,inc,1,m,Thu Sep 11 2025 12:07:15 GMT-0400 (Eastern Daylight Time),312978.5,kind,900,I,m,m,None,777,578.0,199.0,86,3,2207.7000007629395,310770.79999923706,9013,bell,AF,B,305093,305093,303468,304376,303468,305676,304893,304893,305675,99
98,test,1,inc,1,z,Thu Sep 11 2025 12:07:15 GMT-0400 (Eastern Daylight Time),315028.5999994278,napkin,900,I,z,z,None,610,410.0,200.0,38,3,2040.6999998092651,312987.89999961853,9013,brutal,AF,B,307309,307309,305685,306593,305685,307726,307109,307109,307726,100
99,test,1,con,1,m,Thu Sep 11 2025 12:07:15 GMT-0400 (Eastern Daylight Time),317111.89999961853,jacket,1100,I,m,m,None,440,240.0,200.0,100,3,2073.699999809265,315038.19999980927,9013,jacket,AF,B,309559,309559,307735,308842,307735,309809,309359,309359,309809,101
100,test,1,inc,1,z,Thu Sep 11 2025 12:07:15 GMT-0400 (Eastern Daylight Time),319078.5999994278,step,800,I,z,z,None,624,425.0,199.0,13,3,1955.0,317123.5999994278,9013,kind,AF,B,311343,311343,309821,310626,309821,311776,311143,311143,311776,102
101,test,1,con,1,z,Thu Sep 11 2025 12:07:15 GMT-0400 (Eastern Daylight Time),321428.5999994278,rage,1100,I,z,z,None,710,510.0,200.0,52,3,2341.0999994277954,319087.5,9013,rage,AF,B,313609,313609,311785,312893,311785,314126,313409,313409,314126,103
102,test,1,con,1,z,Thu Sep 11 2025 12:07:15 GMT-0400 (Eastern Daylight Time),323678.79999923706,kind,1100,I,z,z,None,616,416.0,200.0,12,3,2241.5999994277954,321437.19999980927,9013,kind,AF,B,315959,315959,314134,315243,314135,316376,315759,315759,316376,104
103,test,1,inc,1,z,Thu Sep 11 2025 12:07:15 GMT-0400 (Eastern Daylight Time),325911.79999923706,film,1100,I,z,z,None,590,390.0,200.0,24,3,2224.7999992370605,323687.0,9013,love,AF,B,318209,318209,316384,317493,316384,318609,318009,318009,318609,105
104,test,1,con,1,z,Thu Sep 11 2025 12:07:15 GMT-0400 (Eastern Daylight Time),327945.29999923706,brutal,1100,I,z,z,None,387,188.0,199.0,36,3,2024.0,325921.29999923706,9013,brutal,AF,B,320443,320443,318618,319726,318619,320642,320243,320243,320642,106
105,test,1,con,1,z,Thu Sep 11 2025 12:07:15 GMT-0400 (Eastern Daylight Time),329695.0,rage,800,I,z,z,None,399,200.0,199.0,49,3,1741.2000007629395,327953.79999923706,9013,rage,AF,B,322176,322176,320651,321459,320651,322392,321976,321976,322392,107
106,test,1,con,1,z,Thu Sep 11 2025 12:07:15 GMT-0400 (Eastern Daylight Time),331511.89999961853,hate,800,I,z,z,None,473,273.0,200.0,41,3,1808.0,329703.89999961853,9013,hate,AF,B,323926,323926,322401,323209,322401,324209,323725,323725,324209,108
107,test,1,inc,1,m,Thu Sep 11 2025 12:07:15 GMT-0400 (Eastern Daylight Time),333478.5,elated,800,I,m,m,None,624,425.0,199.0,117,3,1956.9000005722046,331521.5999994278,9013,remote,AF,B,325742,325742,324219,325026,324219,326176,325543,325543,326175,109
108,test,1,inc,1,z,Thu Sep 11 2025 12:07:15 GMT-0400 (Eastern Daylight Time),335445.19999980927,step,800,I,z,z,None,626,426.0,200.0,53,3,1958.6999998092651,333486.5,9013,rage,AF,B,327709,327709,326184,326993,326184,328142,327509,327509,328142,110
109,test,1,con,1,m,Thu Sep 11 2025 12:07:15 GMT-0400 (Eastern Daylight Time),337711.5999994278,napkin,1100,I,m,m,None,630,431.0,199.0,108,3,2258.300000190735,335453.29999923706,9013,napkin,AF,B,329976,329976,328150,329259,328151,330409,329776,329776,330409,111
110,test,1,inc,1,z,Thu Sep 11 2025 12:07:15 GMT-0400 (Eastern Daylight Time),340011.89999961853,window,1100,I,z,z,None,652,453.0,199.0,64,3,2293.1000003814697,337718.79999923706,9013,temper,AF,B,332243,332243,330416,331526,330416,332709,332043,332043,332709,112
111,test,1,inc,1,m,Thu Sep 11 2025 12:07:15 GMT-0400 (Eastern Daylight Time),342145.79999923706,temper,1000,I,m,m,None,595,396.0,199.0,103,3,2125.5,340020.29999923706,9013,jacket,AF,B,334443,334443,332717,333726,332718,334843,334243,334243,334843,113
112,test,1,con,1,m,Thu Sep 11 2025 12:07:15 GMT-0400 (Eastern Daylight Time),344011.89999961853,window,800,I,m,m,None,518,319.0,199.0,121,3,1861.3999996185303,342150.5,9013,window,AF,B,336376,336376,334848,335659,334848,336709,336176,336176,336709,114
113,test,1,inc,1,z,Thu Sep 11 2025 12:07:15 GMT-0400 (Eastern Daylight Time),346295.19999980927,film,1100,I,z,z,None,639,440.0,199.0,48,3,2274.199999809265,344021.0,9013,hate,AF,B,338543,338543,336718,337826,336718,338992,338343,338343,338992,115
114,test,1,inc,1,z,Thu Sep 11 2025 12:07:15 GMT-0400 (Eastern Daylight Time),348411.79999923706,bell,1000,I,z,z,None,569,369.0,200.0,23,3,2107.7999992370605,346304.0,9013,love,AF,B,340726,340726,339001,340009,339001,341109,340526,340526,341109,116
115,test,1,con,1,m,Thu Sep 11 2025 12:07:15 GMT-0400 (Eastern Daylight Time),350678.5,bell,1100,I,m,m,None,625,426.0,199.0,84,3,2257.4000005722046,348421.0999994278,9013,bell,AF,B,342942,342942,341118,342226,341118,343376,342743,342743,343375,117
116,test,1,con,1,z,Thu Sep 11 2025 12:07:15 GMT-0400 (Eastern Daylight Time),352711.89999961853,elated,900,I,z,z,None,590,390.0,200.0,2,3,2024.1000003814697,350687.79999923706,9013,elated,AF,B,345009,345009,343385,344292,343385,345409,344809,344809,345409,118
117,test,1,inc,1,z,Thu Sep 11 2025 12:07:15 GMT-0400 (Eastern Daylight Time),354945.19999980927,film,1100,I,z,z,None,595,396.0,199.0,16,3,2225.199999809265,352720.0,9013,kind,AF,B,347243,347243,345417,346526,345417,347642,347043,347043,347642,119
118,test,1,con,1,z,Thu Sep 11 2025 12:07:15 GMT-0400 (Eastern Daylight Time),357095.29999923706,rage,900,I,z,z,None,706,506.0,200.0,50,3,2142.5999994277954,354952.69999980927,9013,rage,AF,B,349276,349277,347650,348559,347650,349792,349076,349076,349792,120
119,test,1,con,1,z,Thu Sep 11 2025 12:07:15 GMT-0400 (Eastern Daylight Time),359495.19999980927,friend,1100,I,z,z,None,757,557.0,200.0,28,3,2391.5,357103.69999980927,9013,friend,AF,B,351626,351626,349801,350909,349801,352192,351426,351426,352192,121
120,test,1,inc,1,m,Thu Sep 11 2025 12:07:15 GMT-0400 (Eastern Daylight Time),361611.89999961853,temper,1000,I,m,m,None,569,370.0,199.0,127,3,2102.3999996185303,359509.5,9013,window,AF,B,353926,353926,352207,353209,352207,354309,353726,353726,354309,122
121,test,1,con,1,m,Thu Sep 11 2025 12:07:15 GMT-0400 (Eastern Daylight Time),363461.89999961853,rock,800,I,m,m,None,507,308.0,199.0,73,3,1837.8999996185303,361624.0,9013,rock,AF,B,355843,355843,354321,355126,354321,356159,355643,355643,356159,123
122,test,1,con,1,m,Thu Sep 11 2025 12:07:15 GMT-0400 (Eastern Daylight Time),365478.5999994278,rock,1000,I,m,m,None,473,274.0,199.0,75,3,2002.3999996185303,363476.19999980927,9013,rock,AF,B,357893,357893,356173,357176,356174,358176,357693,357693,358175,124
123,test,1,inc,1,z,Thu Sep 11 2025 12:07:15 GMT-0400 (Eastern Daylight Time),367545.29999923706,napkin,900,I,z,z,None,621,421.0,200.0,6,3,2052.2999992370605,365493.0,9013,elated,AF,B,359809,359810,358190,359093,358191,360242,359609,359609,360242,125
124,test,1,con,1,m,Thu Sep 11 2025 12:07:15 GMT-0400 (Eastern Daylight Time),369678.69999980927,napkin,1000,I,m,m,None,598,399.0,199.0,107,3,2122.300000190735,367556.39999961853,9013,napkin,AF,B,361976,361976,360253,361259,360254,362376,361776,361776,362376,126
125,test,1,inc,1,z,Thu Sep 11 2025 12:07:15 GMT-0400 (Eastern Daylight Time),371695.39999961853,rock,900,I,z,z,None,583,383.0,200.0,22,3,2009.5,369685.89999961853,9013,love,AF,B,364009,364009,362383,363293,362383,364392,363809,363809,364392,127
126,test,1,con,1,m,Thu Sep 11 2025 12:07:15 GMT-0400 (Eastern Daylight Time),373827.89999961853,step,1000,I,m,m,None,592,392.0,200.0,67,3,2118.0,371709.89999961853,9013,step,AF,B,366126,366126,364407,365409,364407,366525,365926,365926,366525,128
