block_c,block_dur,condition,countdown,datetime,endtime,list,multichar_response,project,response,response_time,session_number,start_end,starttime,subject_id,task,task_vers,trial
,,,,Thu Feb 19 2026 16:16:05 GMT-0600 (Central Standard Time),,,,O,space,631,1,,,7751,WL,A,
prac,,0,,Thu Feb 19 2026 16:16:05 GMT-0600 (Central Standard Time),,NA,b,O,b,5553,1,,,7751,WL,A,1.0
prac,,0,,Thu Feb 19 2026 16:16:05 GMT-0600 (Central Standard Time),,NA,bo,O,o,715,1,,,7751,WL,A,1.0
prac,,0,,Thu Feb 19 2026 16:16:05 GMT-0600 (Central Standard Time),,NA,boo,O,o,158,1,,,7751,WL,A,1.0
prac,,0,,Thu Feb 19 2026 16:16:05 GMT-0600 (Central Standard Time),,NA,boos,O,s,143,1,,,7751,WL,A,1.0
prac,,0,,Thu Feb 19 2026 16:16:05 GMT-0600 (Central Standard Time),,NA,boost,O,t,168,1,,,7751,WL,A,1.0
prac,,0,,Thu Feb 19 2026 16:16:05 GMT-0600 (Central Standard Time),,NA,boostenter,O,enter,3060,1,,,7751,WL,A,1.0
1,1.7660000324249268,learn,58233.99996757507,Thu Feb 19 2026 16:16:05 GMT-0600 (Central Standard Time),141908.40000000596,A,g,O,g,1758,1,1766.1000000238419,140142.29999998212,7751,WL,A,1.0
1,1.8650000095367432,learn,58134.99999046326,Thu Feb 19 2026 16:16:05 GMT-0600 (Central Standard Time),142007.40000000596,A,go,O,o,92,1,1865.1000000238419,140142.29999998212,7751,WL,A,1.0
1,2.065000057220459,learn,57934.99994277954,Thu Feb 19 2026 16:16:05 GMT-0600 (Central Standard Time),142207.0,A,gol,O,l,195,1,2064.7000000178814,140142.29999998212,7751,WL,A,1.0
1,2.2829999923706055,learn,57717.000007629395,Thu Feb 19 2026 16:16:05 GMT-0600 (Central Standard Time),142424.90000000596,A,gold,O,d,206,1,2282.600000023842,140142.29999998212,7751,WL,A,1.0
1,3.197999954223633,learn,56802.00004577637,Thu Feb 19 2026 16:16:05 GMT-0600 (Central Standard Time),143340.19999998808,A,goldenter,O,enter,898,1,3197.9000000059605,140142.29999998212,7751,WL,A,1.0
1,4.04800009727478,learn,55951.99990272522,Thu Feb 19 2026 16:16:05 GMT-0600 (Central Standard Time),144190.0,A,f,O,f,837,1,849.4000000059605,143340.59999999404,7751,WL,A,2.0
1,4.114000082015991,learn,55885.99991798401,Thu Feb 19 2026 16:16:05 GMT-0600 (Central Standard Time),144256.19999998808,A,fl,O,l,49,1,915.5999999940395,143340.59999999404,7751,WL,A,2.0
1,4.315000057220459,learn,55684.99994277954,Thu Feb 19 2026 16:16:05 GMT-0600 (Central Standard Time),144457.29999998212,A,flo,O,o,187,1,1116.699999988079,143340.59999999404,7751,WL,A,2.0
1,4.482000112533569,learn,55517.99988746643,Thu Feb 19 2026 16:16:05 GMT-0600 (Central Standard Time),144624.29999998212,A,flow,O,w,152,1,1283.699999988079,143340.59999999404,7751,WL,A,2.0
1,4.5980000495910645,learn,55401.999950408936,Thu Feb 19 2026 16:16:05 GMT-0600 (Central Standard Time),144740.19999998808,A,flowe,O,e,96,1,1399.5999999940395,143340.59999999404,7751,WL,A,2.0
1,4.765000104904175,learn,55234.999895095825,Thu Feb 19 2026 16:16:05 GMT-0600 (Central Standard Time),144906.79999998212,A,flower,O,r,150,1,1566.199999988079,143340.59999999404,7751,WL,A,2.0
1,5.680999994277954,learn,54319.000005722046,Thu Feb 19 2026 16:16:05 GMT-0600 (Central Standard Time),145822.90000000596,A,flowerenter,O,enter,904,1,2482.300000011921,143340.59999999404,7751,WL,A,2.0
1,6.180999994277954,learn,53819.000005722046,Thu Feb 19 2026 16:16:05 GMT-0600 (Central Standard Time),146323.19999998808,A,t,O,t,484,1,500.0,145823.19999998808,7751,WL,A,3.0
1,6.430000066757202,learn,53569.9999332428,Thu Feb 19 2026 16:16:05 GMT-0600 (Central Standard Time),146572.19999998808,A,tr,O,r,234,1,749.0,145823.19999998808,7751,WL,A,3.0
1,6.54800009727478,learn,53451.99990272522,Thu Feb 19 2026 16:16:05 GMT-0600 (Central Standard Time),146690.0,A,tra,O,a,102,1,866.8000000119209,145823.19999998808,7751,WL,A,3.0
1,6.715000152587891,learn,53284.99984741211,Thu Feb 19 2026 16:16:05 GMT-0600 (Central Standard Time),146857.19999998808,A,trai,O,i,161,1,1034.0,145823.19999998808,7751,WL,A,3.0
1,6.8480000495910645,learn,53151.999950408936,Thu Feb 19 2026 16:16:05 GMT-0600 (Central Standard Time),146990.09999999404,A,train,O,n,112,1,1166.9000000059605,145823.19999998808,7751,WL,A,3.0
1,7.880000114440918,learn,52119.99988555908,Thu Feb 19 2026 16:16:05 GMT-0600 (Central Standard Time),148022.29999998212,A,trainenter,O,enter,1013,1,2199.0999999940395,145823.19999998808,7751,WL,A,3.0
1,12.911999940872192,learn,47088.00005912781,Thu Feb 19 2026 16:16:05 GMT-0600 (Central Standard Time),153054.0,A,g,O,g,5012,1,5031.4000000059605,148022.59999999404,7751,WL,A,4.0
1,13.01200008392334,learn,46987.99991607666,Thu Feb 19 2026 16:16:05 GMT-0600 (Central Standard Time),153154.29999998212,A,go,O,o,91,1,5131.699999988079,148022.59999999404,7751,WL,A,4.0
1,13.17900013923645,learn,46820.99986076355,Thu Feb 19 2026 16:16:05 GMT-0600 (Central Standard Time),153320.90000000596,A,gol,O,l,150,1,5298.300000011921,148022.59999999404,7751,WL,A,4.0
1,13.330000162124634,learn,46669.999837875366,Thu Feb 19 2026 16:16:05 GMT-0600 (Central Standard Time),153472.40000000596,A,gold,O,d,147,1,5449.800000011921,148022.59999999404,7751,WL,A,4.0
1,14.16100001335144,learn,45838.99998664856,Thu Feb 19 2026 16:16:05 GMT-0600 (Central Standard Time),154302.69999998808,A,goldenter,O,enter,818,1,6280.0999999940395,148022.59999999404,7751,WL,A,4.0
1,18.094000101089478,learn,41905.99989891052,Thu Feb 19 2026 16:16:05 GMT-0600 (Central Standard Time),158236.0,A,b,O,b,3916,1,3932.9000000059605,154303.09999999404,7751,WL,A,5.0
1,18.411999940872192,learn,41588.00005912781,Thu Feb 19 2026 16:16:05 GMT-0600 (Central Standard Time),158553.59999999404,A,br,O,r,304,1,4250.5,154303.09999999404,7751,WL,A,5.0
1,18.561000108718872,learn,41438.99989128113,Thu Feb 19 2026 16:16:05 GMT-0600 (Central Standard Time),158702.5,A,bro,O,o,136,1,4399.4000000059605,154303.09999999404,7751,WL,A,5.0
1,18.710000038146973,learn,41289.99996185303,Thu Feb 19 2026 16:16:05 GMT-0600 (Central Standard Time),158851.90000000596,A,broo,O,o,132,1,4548.800000011921,154303.09999999404,7751,WL,A,5.0
1,18.861000061035156,learn,41138.999938964844,Thu Feb 19 2026 16:16:05 GMT-0600 (Central Standard Time),159002.90000000596,A,brook,O,k,144,1,4699.800000011921,154303.09999999404,7751,WL,A,5.0
1,19.710000038146973,learn,40289.99996185303,Thu Feb 19 2026 16:16:05 GMT-0600 (Central Standard Time),159851.69999998808,A,brookenter,O,enter,839,1,5548.5999999940395,154303.09999999404,7751,WL,A,5.0
1,60.013999938964844,learn,-13.99993896484375,Thu Feb 19 2026 16:16:05 GMT-0600 (Central Standard Time),200156.40000000596,A,None,O,None,40301,1,40304.5,159851.90000000596,7751,WL,A,6.0
2,1.568000078201294,learn,58431.999921798706,Thu Feb 19 2026 16:16:05 GMT-0600 (Central Standard Time),284529.90000000596,A,b,O,b,1554,1,1567.2000000178814,282962.6999999881,7751,WL,A,1.0
2,1.8500001430511475,learn,58149.99985694885,Thu Feb 19 2026 16:16:05 GMT-0600 (Central Standard Time),284812.1999999881,A,bo,O,o,264,1,1849.5,282962.6999999881,7751,WL,A,1.0
2,2.0180001258850098,learn,57981.99987411499,Thu Feb 19 2026 16:16:05 GMT-0600 (Central Standard Time),284980.40000000596,A,boo,O,o,149,1,2017.7000000178814,282962.6999999881,7751,WL,A,1.0
2,2.199000120162964,learn,57800.999879837036,Thu Feb 19 2026 16:16:05 GMT-0600 (Central Standard Time),285161.5,A,book,O,k,164,1,2198.800000011921,282962.6999999881,7751,WL,A,1.0
2,3.3329999446868896,learn,56667.00005531311,Thu Feb 19 2026 16:16:05 GMT-0600 (Central Standard Time),286295.40000000596,A,bookenter,O,enter,1114,1,3332.7000000178814,282962.6999999881,7751,WL,A,1.0
2,3.999000072479248,learn,56000.99992752075,Thu Feb 19 2026 16:16:05 GMT-0600 (Central Standard Time),286961.2999999821,A,f,O,f,651,1,665.5,286295.7999999821,7751,WL,A,2.0
2,4.065000057220459,learn,55934.99994277954,Thu Feb 19 2026 16:16:05 GMT-0600 (Central Standard Time),287027.2999999821,A,fl,O,l,49,1,731.5,286295.7999999821,7751,WL,A,2.0
2,4.252000093460083,learn,55747.99990653992,Thu Feb 19 2026 16:16:05 GMT-0600 (Central Standard Time),287214.09999999404,A,flo,O,o,176,1,918.3000000119209,286295.7999999821,7751,WL,A,2.0
2,4.416000127792358,learn,55583.99987220764,Thu Feb 19 2026 16:16:05 GMT-0600 (Central Standard Time),287378.5,A,flow,O,w,157,1,1082.7000000178814,286295.7999999821,7751,WL,A,2.0
2,4.5329999923706055,learn,55467.000007629395,Thu Feb 19 2026 16:16:05 GMT-0600 (Central Standard Time),287494.7999999821,A,flowe,O,e,94,1,1199.0,286295.7999999821,7751,WL,A,2.0
2,4.666000127792358,learn,55333.99987220764,Thu Feb 19 2026 16:16:05 GMT-0600 (Central Standard Time),287628.2999999821,A,flower,O,r,116,1,1332.5,286295.7999999821,7751,WL,A,2.0
2,5.700000047683716,learn,54299.999952316284,Thu Feb 19 2026 16:16:05 GMT-0600 (Central Standard Time),288662.0,A,flowerenter,O,enter,1015,1,2366.2000000178814,286295.7999999821,7751,WL,A,2.0
2,6.2179999351501465,learn,53782.00006484985,Thu Feb 19 2026 16:16:05 GMT-0600 (Central Standard Time),289179.90000000596,A,t,O,t,503,1,517.7000000178814,288662.1999999881,7751,WL,A,3.0
2,6.430999994277954,learn,53569.000005722046,Thu Feb 19 2026 16:16:05 GMT-0600 (Central Standard Time),289393.5,A,tr,O,r,209,1,731.3000000119209,288662.1999999881,7751,WL,A,3.0
2,6.5320000648498535,learn,53467.99993515015,Thu Feb 19 2026 16:16:05 GMT-0600 (Central Standard Time),289494.59999999404,A,tra,O,a,81,1,832.4000000059605,288662.1999999881,7751,WL,A,3.0
2,6.633000135421753,learn,53366.99986457825,Thu Feb 19 2026 16:16:05 GMT-0600 (Central Standard Time),289594.7999999821,A,trai,O,i,89,1,932.5999999940395,288662.1999999881,7751,WL,A,3.0
2,6.746999979019165,learn,53253.000020980835,Thu Feb 19 2026 16:16:05 GMT-0600 (Central Standard Time),289709.7999999821,A,train,O,n,102,1,1047.5999999940395,288662.1999999881,7751,WL,A,3.0
2,7.79800009727478,learn,52201.99990272522,Thu Feb 19 2026 16:16:05 GMT-0600 (Central Standard Time),290759.90000000596,A,trainenter,O,enter,1031,1,2097.7000000178814,288662.1999999881,7751,WL,A,3.0
2,8.564000129699707,learn,51435.99987030029,Thu Feb 19 2026 16:16:05 GMT-0600 (Central Standard Time),291526.2999999821,A,t,O,t,746,1,766.0999999940395,290760.1999999881,7751,WL,A,4.0
2,8.680999994277954,learn,51319.000005722046,Thu Feb 19 2026 16:16:05 GMT-0600 (Central Standard Time),291643.2999999821,A,to,O,o,100,1,883.0999999940395,290760.1999999881,7751,WL,A,4.0
2,8.897000074386597,learn,51102.9999256134,Thu Feb 19 2026 16:16:05 GMT-0600 (Central Standard Time),291859.6999999881,A,tol,O,l,201,1,1099.5,290760.1999999881,7751,WL,A,4.0
2,9.930000066757202,learn,50069.9999332428,Thu Feb 19 2026 16:16:05 GMT-0600 (Central Standard Time),292892.6999999881,A,to,O,backspace,1024,1,2132.5,290760.1999999881,7751,WL,A,4.0
2,10.115000009536743,learn,49884.99999046326,Thu Feb 19 2026 16:16:05 GMT-0600 (Central Standard Time),293076.90000000596,A,t,O,backspace,168,1,2316.7000000178814,290760.1999999881,7751,WL,A,4.0
2,10.27999997138977,learn,49720.00002861023,Thu Feb 19 2026 16:16:05 GMT-0600 (Central Standard Time),293242.40000000596,A,,O,backspace,156,1,2482.2000000178814,290760.1999999881,7751,WL,A,4.0
2,10.815000057220459,learn,49184.99994277954,Thu Feb 19 2026 16:16:05 GMT-0600 (Central Standard Time),293777.1999999881,A,f,O,f,514,1,3017.0,290760.1999999881,7751,WL,A,4.0
2,10.897000074386597,learn,49102.9999256134,Thu Feb 19 2026 16:16:05 GMT-0600 (Central Standard Time),293859.09999999404,A,fo,O,o,64,1,3098.9000000059605,290760.1999999881,7751,WL,A,4.0
2,11.097000122070312,learn,48902.99987792969,Thu Feb 19 2026 16:16:05 GMT-0600 (Central Standard Time),294059.1999999881,A,fol,O,l,183,1,3299.0,290760.1999999881,7751,WL,A,4.0
2,11.96399998664856,learn,48036.00001335144,Thu Feb 19 2026 16:16:05 GMT-0600 (Central Standard Time),294926.6999999881,A,fo,O,backspace,857,1,4166.5,290760.1999999881,7751,WL,A,4.0
2,12.128999948501587,learn,47871.00005149841,Thu Feb 19 2026 16:16:05 GMT-0600 (Central Standard Time),295091.5,A,f,O,backspace,148,1,4331.300000011921,290760.1999999881,7751,WL,A,4.0
2,12.296000003814697,learn,47703.9999961853,Thu Feb 19 2026 16:16:05 GMT-0600 (Central Standard Time),295258.59999999404,A,,O,backspace,160,1,4498.4000000059605,290760.1999999881,7751,WL,A,4.0
2,13.062999963760376,learn,46937.000036239624,Thu Feb 19 2026 16:16:05 GMT-0600 (Central Standard Time),296026.0,A,g,O,g,763,1,5265.800000011921,290760.1999999881,7751,WL,A,4.0
2,13.194999933242798,learn,46805.0000667572,Thu Feb 19 2026 16:16:05 GMT-0600 (Central Standard Time),296157.90000000596,A,go,O,o,112,1,5397.700000017881,290760.1999999881,7751,WL,A,4.0
2,13.380000114440918,learn,46619.99988555908,Thu Feb 19 2026 16:16:05 GMT-0600 (Central Standard Time),296342.6999999881,A,gol,O,l,173,1,5582.5,290760.1999999881,7751,WL,A,4.0
2,13.646000146865845,learn,46353.999853134155,Thu Feb 19 2026 16:16:05 GMT-0600 (Central Standard Time),296608.7999999821,A,gold,O,d,250,1,5848.5999999940395,290760.1999999881,7751,WL,A,4.0
2,14.246000051498413,learn,45753.99994850159,Thu Feb 19 2026 16:16:05 GMT-0600 (Central Standard Time),297208.59999999404,A,goldenter,O,enter,596,1,6448.4000000059605,290760.1999999881,7751,WL,A,4.0
2,14.82800006866455,learn,45171.99993133545,Thu Feb 19 2026 16:16:05 GMT-0600 (Central Standard Time),297791.40000000596,A,f,O,f,578,1,582.6000000238419,297208.7999999821,7751,WL,A,5.0
2,14.944999933242798,learn,45055.0000667572,Thu Feb 19 2026 16:16:05 GMT-0600 (Central Standard Time),297908.1999999881,A,fl,O,l,109,1,699.4000000059605,297208.7999999821,7751,WL,A,5.0
2,15.07800006866455,learn,44921.99993133545,Thu Feb 19 2026 16:16:05 GMT-0600 (Central Standard Time),298041.2999999821,A,fli,O,i,117,1,832.5,297208.7999999821,7751,WL,A,5.0
2,15.228000164031982,learn,44771.99983596802,Thu Feb 19 2026 16:16:05 GMT-0600 (Central Standard Time),298190.90000000596,A,flin,O,n,137,1,982.1000000238419,297208.7999999821,7751,WL,A,5.0
2,17.878000020980835,learn,42121.999979019165,Thu Feb 19 2026 16:16:05 GMT-0600 (Central Standard Time),300841.09999999404,A,fli,O,backspace,2646,1,3632.300000011921,297208.7999999821,7751,WL,A,5.0
2,18.062000036239624,learn,41937.999963760376,Thu Feb 19 2026 16:16:05 GMT-0600 (Central Standard Time),301025.1999999881,A,fl,O,backspace,163,1,3816.4000000059605,297208.7999999821,7751,WL,A,5.0
2,18.278000116348267,learn,41721.99988365173,Thu Feb 19 2026 16:16:05 GMT-0600 (Central Standard Time),301240.6999999881,A,f,O,backspace,194,1,4031.9000000059605,297208.7999999821,7751,WL,A,5.0
2,18.99500012397766,learn,41004.99987602234,Thu Feb 19 2026 16:16:05 GMT-0600 (Central Standard Time),301958.0,A,fi,O,i,698,1,4749.200000017881,297208.7999999821,7751,WL,A,5.0
2,19.111999988555908,learn,40888.00001144409,Thu Feb 19 2026 16:16:05 GMT-0600 (Central Standard Time),302074.90000000596,A,fin,O,n,111,1,4866.100000023842,297208.7999999821,7751,WL,A,5.0
2,19.276999950408936,learn,40723.000049591064,Thu Feb 19 2026 16:16:05 GMT-0600 (Central Standard Time),302240.0,A,fing,O,g,151,1,5031.200000017881,297208.7999999821,7751,WL,A,5.0
2,19.51200008392334,learn,40487.99991607666,Thu Feb 19 2026 16:16:05 GMT-0600 (Central Standard Time),302475.0,A,finge,O,e,220,1,5266.200000017881,297208.7999999821,7751,WL,A,5.0
2,19.610000133514404,learn,40389.999866485596,Thu Feb 19 2026 16:16:05 GMT-0600 (Central Standard Time),302572.6999999881,A,finger,O,r,89,1,5363.9000000059605,297208.7999999821,7751,WL,A,5.0
2,20.608999967575073,learn,39391.00003242493,Thu Feb 19 2026 16:16:05 GMT-0600 (Central Standard Time),303572.09999999404,A,fingerenter,O,enter,990,1,6363.300000011921,297208.7999999821,7751,WL,A,5.0
2,21.47099995613098,learn,38529.00004386902,Thu Feb 19 2026 16:16:05 GMT-0600 (Central Standard Time),304433.7999999821,A,s,O,s,856,1,861.3999999761581,303572.40000000596,7751,WL,A,6.0
2,21.710000038146973,learn,38289.99996185303,Thu Feb 19 2026 16:16:05 GMT-0600 (Central Standard Time),304673.40000000596,A,sa,O,a,218,1,1101.0,303572.40000000596,7751,WL,A,6.0
2,21.80900001525879,learn,38190.99998474121,Thu Feb 19 2026 16:16:05 GMT-0600 (Central Standard Time),304771.6999999881,A,sal,O,l,81,1,1199.2999999821186,303572.40000000596,7751,WL,A,6.0
2,22.294000148773193,learn,37705.99985122681,Thu Feb 19 2026 16:16:05 GMT-0600 (Central Standard Time),305256.90000000596,A,salt,O,t,472,1,1684.5,303572.40000000596,7751,WL,A,6.0
2,23.07800006866455,learn,36921.99993133545,Thu Feb 19 2026 16:16:05 GMT-0600 (Central Standard Time),306041.40000000596,A,saltenter,O,enter,762,1,2469.0,303572.40000000596,7751,WL,A,6.0
2,23.508000135421753,learn,36491.99986457825,Thu Feb 19 2026 16:16:05 GMT-0600 (Central Standard Time),306471.2999999821,A,m,O,m,411,1,429.59999999403954,306041.6999999881,7751,WL,A,7.0
2,23.608999967575073,learn,36391.00003242493,Thu Feb 19 2026 16:16:05 GMT-0600 (Central Standard Time),306571.59999999404,A,me,O,e,92,1,529.9000000059605,306041.6999999881,7751,WL,A,7.0
2,23.759000062942505,learn,36240.999937057495,Thu Feb 19 2026 16:16:05 GMT-0600 (Central Standard Time),306721.7999999821,A,mea,O,a,128,1,680.0999999940395,306041.6999999881,7751,WL,A,7.0
2,23.992000102996826,learn,36007.999897003174,Thu Feb 19 2026 16:16:05 GMT-0600 (Central Standard Time),306955.09999999404,A,mead,O,d,218,1,913.4000000059605,306041.6999999881,7751,WL,A,7.0
2,24.127000093460083,learn,35872.99990653992,Thu Feb 19 2026 16:16:05 GMT-0600 (Central Standard Time),307090.2999999821,A,meado,O,o,130,1,1048.5999999940395,306041.6999999881,7751,WL,A,7.0
2,24.358999967575073,learn,35641.00003242493,Thu Feb 19 2026 16:16:05 GMT-0600 (Central Standard Time),307322.5,A,meadow,O,w,227,1,1280.800000011921,306041.6999999881,7751,WL,A,7.0
2,25.49399995803833,learn,34506.00004196167,Thu Feb 19 2026 16:16:05 GMT-0600 (Central Standard Time),308456.7999999821,A,meadowenter,O,enter,1129,1,2415.0999999940395,306041.6999999881,7751,WL,A,7.0
2,45.86899995803833,learn,14131.00004196167,Thu Feb 19 2026 16:16:05 GMT-0600 (Central Standard Time),328831.59999999404,A,j,O,j,20362,1,20374.5,308457.09999999404,7751,WL,A,8.0
2,46.05200004577637,learn,13947.999954223633,Thu Feb 19 2026 16:16:05 GMT-0600 (Central Standard Time),329015.0,A,ja,O,a,173,1,20557.90000000596,308457.09999999404,7751,WL,A,8.0
2,46.28600001335144,learn,13713.99998664856,Thu Feb 19 2026 16:16:05 GMT-0600 (Central Standard Time),329248.7999999821,A,jar,O,r,221,1,20791.69999998808,308457.09999999404,7751,WL,A,8.0
2,47.319000005722046,learn,12680.999994277954,Thu Feb 19 2026 16:16:05 GMT-0600 (Central Standard Time),330281.6999999881,A,jarenter,O,enter,1027,1,21824.59999999404,308457.09999999404,7751,WL,A,8.0
2,52.51800012588501,learn,7481.99987411499,Thu Feb 19 2026 16:16:05 GMT-0600 (Central Standard Time),335480.90000000596,A,a,O,a,5186,1,5199.0,330281.90000000596,7751,WL,A,9.0
2,52.68400001525879,learn,7315.999984741211,Thu Feb 19 2026 16:16:05 GMT-0600 (Central Standard Time),335647.1999999881,A,ap,O,p,147,1,5365.299999982119,330281.90000000596,7751,WL,A,9.0
2,52.782999992370605,learn,7217.0000076293945,Thu Feb 19 2026 16:16:05 GMT-0600 (Central Standard Time),335746.5,A,app,O,p,93,1,5464.5999999940395,330281.90000000596,7751,WL,A,9.0
2,53.43300008773804,learn,6566.999912261963,Thu Feb 19 2026 16:16:05 GMT-0600 (Central Standard Time),336396.2999999821,A,appl,O,l,631,1,6114.399999976158,330281.90000000596,7751,WL,A,9.0
2,53.682000160217285,learn,6317.999839782715,Thu Feb 19 2026 16:16:05 GMT-0600 (Central Standard Time),336644.7999999821,A,apple,O,e,230,1,6362.899999976158,330281.90000000596,7751,WL,A,9.0
2,54.40000009536743,learn,5599.999904632568,Thu Feb 19 2026 16:16:05 GMT-0600 (Central Standard Time),337362.7999999821,A,appleenter,O,enter,702,1,7080.899999976158,330281.90000000596,7751,WL,A,9.0
2,57.88300013542175,learn,2116.999864578247,Thu Feb 19 2026 16:16:05 GMT-0600 (Central Standard Time),340846.0,A,m,O,m,3472,1,3483.0,337363.0,7751,WL,A,10.0
2,58.0310001373291,learn,1968.9998626708984,Thu Feb 19 2026 16:16:05 GMT-0600 (Central Standard Time),340994.0,A,me,O,e,131,1,3631.0,337363.0,7751,WL,A,10.0
2,58.14800000190735,learn,1851.9999980926514,Thu Feb 19 2026 16:16:05 GMT-0600 (Central Standard Time),341111.09999999404,A,mea,O,a,105,1,3748.0999999940395,337363.0,7751,WL,A,10.0
2,58.36500000953674,learn,1634.9999904632568,Thu Feb 19 2026 16:16:05 GMT-0600 (Central Standard Time),341328.5,A,mead,O,d,209,1,3965.5,337363.0,7751,WL,A,10.0
2,58.5310001373291,learn,1468.9998626708984,Thu Feb 19 2026 16:16:05 GMT-0600 (Central Standard Time),341494.0,A,meado,O,o,147,1,4131.0,337363.0,7751,WL,A,10.0
2,58.81400012969971,learn,1185.999870300293,Thu Feb 19 2026 16:16:05 GMT-0600 (Central Standard Time),341777.59999999404,A,meadow,O,w,271,1,4414.5999999940395,337363.0,7751,WL,A,10.0
2,59.56599998474121,learn,434.00001525878906,Thu Feb 19 2026 16:16:05 GMT-0600 (Central Standard Time),342528.6999999881,A,meadowenter,O,enter,742,1,5165.699999988079,337363.0,7751,WL,A,10.0
2,60.015000104904175,learn,-15.000104904174805,Thu Feb 19 2026 16:16:05 GMT-0600 (Central Standard Time),342978.0,A,None,O,None,444,1,449.0,342529.0,7751,WL,A,11.0
3,2.815000057220459,learn,57184.99994277954,Thu Feb 19 2026 16:16:05 GMT-0600 (Central Standard Time),433614.40000000596,A,t,O,t,2804,1,2814.800000011921,430799.59999999404,7751,WL,A,1.0
3,3.015000104904175,learn,56984.999895095825,Thu Feb 19 2026 16:16:05 GMT-0600 (Central Standard Time),433814.7999999821,A,tr,O,r,190,1,3015.199999988079,430799.59999999404,7751,WL,A,1.0
3,3.181999921798706,learn,56818.000078201294,Thu Feb 19 2026 16:16:05 GMT-0600 (Central Standard Time),433981.09999999404,A,tra,O,a,146,1,3181.5,430799.59999999404,7751,WL,A,1.0
3,3.3310000896453857,learn,56668.999910354614,Thu Feb 19 2026 16:16:05 GMT-0600 (Central Standard Time),434130.6999999881,A,trai,O,i,141,1,3331.0999999940395,430799.59999999404,7751,WL,A,1.0
3,3.4660000801086426,learn,56533.99991989136,Thu Feb 19 2026 16:16:05 GMT-0600 (Central Standard Time),434265.09999999404,A,train,O,n,120,1,3465.5,430799.59999999404,7751,WL,A,1.0
3,4.730999946594238,learn,55269.00005340576,Thu Feb 19 2026 16:16:05 GMT-0600 (Central Standard Time),435530.59999999404,A,trainenter,O,enter,1248,1,4731.0,430799.59999999404,7751,WL,A,1.0
3,5.2829999923706055,learn,54717.000007629395,Thu Feb 19 2026 16:16:05 GMT-0600 (Central Standard Time),436082.0,A,f,O,f,537,1,551.2000000178814,435530.7999999821,7751,WL,A,2.0
3,5.380000114440918,learn,54619.99988555908,Thu Feb 19 2026 16:16:05 GMT-0600 (Central Standard Time),436179.2999999821,A,fl,O,l,89,1,648.5,435530.7999999821,7751,WL,A,2.0
3,5.564000129699707,learn,54435.99987030029,Thu Feb 19 2026 16:16:05 GMT-0600 (Central Standard Time),436363.1999999881,A,flo,O,o,176,1,832.4000000059605,435530.7999999821,7751,WL,A,2.0
3,5.66700005531311,learn,54332.99994468689,Thu Feb 19 2026 16:16:05 GMT-0600 (Central Standard Time),436465.90000000596,A,flow,O,w,95,1,935.1000000238419,435530.7999999821,7751,WL,A,2.0
3,5.7809998989105225,learn,54219.00010108948,Thu Feb 19 2026 16:16:05 GMT-0600 (Central Standard Time),436580.7999999821,A,flowe,O,e,105,1,1050.0,435530.7999999821,7751,WL,A,2.0
3,5.898999929428101,learn,54101.0000705719,Thu Feb 19 2026 16:16:05 GMT-0600 (Central Standard Time),436697.90000000596,A,flower,O,r,112,1,1167.1000000238419,435530.7999999821,7751,WL,A,2.0
3,6.9649999141693115,learn,53035.00008583069,Thu Feb 19 2026 16:16:05 GMT-0600 (Central Standard Time),437764.1999999881,A,flowerenter,O,enter,1057,1,2233.4000000059605,435530.7999999821,7751,WL,A,2.0
3,7.96399998664856,learn,52036.00001335144,Thu Feb 19 2026 16:16:05 GMT-0600 (Central Standard Time),438763.5,A,m,O,m,991,1,999.0,437764.5,7751,WL,A,3.0
3,8.097000122070312,learn,51902.99987792969,Thu Feb 19 2026 16:16:05 GMT-0600 (Central Standard Time),438896.5,A,me,O,e,128,1,1132.0,437764.5,7751,WL,A,3.0
3,8.230000019073486,learn,51769.999980926514,Thu Feb 19 2026 16:16:05 GMT-0600 (Central Standard Time),439029.2999999821,A,mea,O,a,123,1,1264.7999999821186,437764.5,7751,WL,A,3.0
3,8.395999908447266,learn,51604.000091552734,Thu Feb 19 2026 16:16:05 GMT-0600 (Central Standard Time),439195.1999999881,A,mead,O,d,157,1,1430.699999988079,437764.5,7751,WL,A,3.0
3,8.54800009727478,learn,51451.99990272522,Thu Feb 19 2026 16:16:05 GMT-0600 (Central Standard Time),439347.2999999821,A,meado,O,o,136,1,1582.7999999821186,437764.5,7751,WL,A,3.0
3,8.730000019073486,learn,51269.999980926514,Thu Feb 19 2026 16:16:05 GMT-0600 (Central Standard Time),439529.5,A,meadow,O,w,169,1,1765.0,437764.5,7751,WL,A,3.0
3,9.664000034332275,learn,50335.999965667725,Thu Feb 19 2026 16:16:05 GMT-0600 (Central Standard Time),440462.90000000596,A,meadowenter,O,enter,921,1,2698.4000000059605,437764.5,7751,WL,A,3.0
3,10.147000074386597,learn,49852.9999256134,Thu Feb 19 2026 16:16:05 GMT-0600 (Central Standard Time),440946.40000000596,A,h,O,h,461,1,483.30000001192093,440463.09999999404,7751,WL,A,4.0
3,10.21399998664856,learn,49786.00001335144,Thu Feb 19 2026 16:16:05 GMT-0600 (Central Standard Time),441013.1999999881,A,ha,O,a,56,1,550.0999999940395,440463.09999999404,7751,WL,A,4.0
3,10.36299991607666,learn,49637.00008392334,Thu Feb 19 2026 16:16:05 GMT-0600 (Central Standard Time),441162.59999999404,A,har,O,r,143,1,699.5,440463.09999999404,7751,WL,A,4.0
3,10.680000066757202,learn,49319.9999332428,Thu Feb 19 2026 16:16:05 GMT-0600 (Central Standard Time),441479.59999999404,A,harp,O,p,305,1,1016.5,440463.09999999404,7751,WL,A,4.0
3,11.614000082015991,learn,48385.99991798401,Thu Feb 19 2026 16:16:05 GMT-0600 (Central Standard Time),442413.40000000596,A,harpenter,O,enter,915,1,1950.300000011921,440463.09999999404,7751,WL,A,4.0
3,13.913000106811523,learn,46086.99989318848,Thu Feb 19 2026 16:16:05 GMT-0600 (Central Standard Time),444712.2999999821,A,r,O,r,2294,1,2298.5999999940395,442413.6999999881,7751,WL,A,5.0
3,14.045000076293945,learn,45954.999923706055,Thu Feb 19 2026 16:16:05 GMT-0600 (Central Standard Time),444844.5,A,ru,O,u,114,1,2430.800000011921,442413.6999999881,7751,WL,A,5.0
3,14.27999997138977,learn,45720.00002861023,Thu Feb 19 2026 16:16:05 GMT-0600 (Central Standard Time),445079.5,A,rug,O,g,220,1,2665.800000011921,442413.6999999881,7751,WL,A,5.0
3,15.245000123977661,learn,44754.99987602234,Thu Feb 19 2026 16:16:05 GMT-0600 (Central Standard Time),446044.5,A,rugenter,O,enter,948,1,3630.800000011921,442413.6999999881,7751,WL,A,5.0
3,16.795000076293945,learn,43204.999923706055,Thu Feb 19 2026 16:16:05 GMT-0600 (Central Standard Time),447594.0,A,s,O,s,1542,1,1549.2000000178814,446044.7999999821,7751,WL,A,6.0
3,17.01099991798401,learn,42989.00008201599,Thu Feb 19 2026 16:16:05 GMT-0600 (Central Standard Time),447810.40000000596,A,sa,O,a,200,1,1765.6000000238419,446044.7999999821,7751,WL,A,6.0
3,17.17899990081787,learn,42821.00009918213,Thu Feb 19 2026 16:16:05 GMT-0600 (Central Standard Time),447978.2999999821,A,sal,O,l,162,1,1933.5,446044.7999999821,7751,WL,A,6.0
3,17.91100001335144,learn,42088.99998664856,Thu Feb 19 2026 16:16:05 GMT-0600 (Central Standard Time),448710.40000000596,A,salt,O,t,720,1,2665.600000023842,446044.7999999821,7751,WL,A,6.0
3,18.72699999809265,learn,41273.00000190735,Thu Feb 19 2026 16:16:05 GMT-0600 (Central Standard Time),449526.1999999881,A,saltenter,O,enter,798,1,3481.4000000059605,446044.7999999821,7751,WL,A,6.0
3,19.295000076293945,learn,40704.999923706055,Thu Feb 19 2026 16:16:05 GMT-0600 (Central Standard Time),450094.5,A,f,O,f,558,1,568.0999999940395,449526.40000000596,7751,WL,A,7.0
3,19.342999935150146,learn,40657.00006484985,Thu Feb 19 2026 16:16:05 GMT-0600 (Central Standard Time),450142.09999999404,A,fi,O,i,37,1,615.6999999880791,449526.40000000596,7751,WL,A,7.0
3,19.493000030517578,learn,40506.99996948242,Thu Feb 19 2026 16:16:05 GMT-0600 (Central Standard Time),450291.7999999821,A,fin,O,n,134,1,765.3999999761581,449526.40000000596,7751,WL,A,7.0
3,19.927000045776367,learn,40072.99995422363,Thu Feb 19 2026 16:16:05 GMT-0600 (Central Standard Time),450726.7999999821,A,fing,O,g,418,1,1200.3999999761581,449526.40000000596,7751,WL,A,7.0
3,20.144999980926514,learn,39855.000019073486,Thu Feb 19 2026 16:16:05 GMT-0600 (Central Standard Time),450944.2999999821,A,finge,O,e,206,1,1417.8999999761581,449526.40000000596,7751,WL,A,7.0
3,20.26099991798401,learn,39739.00008201599,Thu Feb 19 2026 16:16:05 GMT-0600 (Central Standard Time),451059.90000000596,A,finger,O,r,100,1,1533.5,449526.40000000596,7751,WL,A,7.0
3,21.075999975204468,learn,38924.00002479553,Thu Feb 19 2026 16:16:05 GMT-0600 (Central Standard Time),451875.0,A,fingerenter,O,enter,798,1,2348.5999999940395,449526.40000000596,7751,WL,A,7.0
3,21.443000078201294,learn,38556.999921798706,Thu Feb 19 2026 16:16:05 GMT-0600 (Central Standard Time),452242.59999999404,A,a,O,a,363,1,367.40000000596046,451875.1999999881,7751,WL,A,8.0
3,21.66000008583069,learn,38339.99991416931,Thu Feb 19 2026 16:16:05 GMT-0600 (Central Standard Time),452459.1999999881,A,ap,O,p,196,1,584.0,451875.1999999881,7751,WL,A,8.0
3,21.776000022888184,learn,38223.99997711182,Thu Feb 19 2026 16:16:05 GMT-0600 (Central Standard Time),452575.59999999404,A,app,O,p,110,1,700.4000000059605,451875.1999999881,7751,WL,A,8.0
3,22.042999982833862,learn,37957.00001716614,Thu Feb 19 2026 16:16:05 GMT-0600 (Central Standard Time),452842.0,A,appl,O,l,244,1,966.8000000119209,451875.1999999881,7751,WL,A,8.0
3,22.176000118255615,learn,37823.999881744385,Thu Feb 19 2026 16:16:05 GMT-0600 (Central Standard Time),452975.6999999881,A,apple,O,e,122,1,1100.5,451875.1999999881,7751,WL,A,8.0
3,23.39300012588501,learn,36606.99987411499,Thu Feb 19 2026 16:16:05 GMT-0600 (Central Standard Time),454191.90000000596,A,appleenter,O,enter,1205,1,2316.7000000178814,451875.1999999881,7751,WL,A,8.0
3,27.19099998474121,learn,32809.00001525879,Thu Feb 19 2026 16:16:05 GMT-0600 (Central Standard Time),457990.7999999821,A,g,O,g,3788,1,3798.699999988079,454192.09999999404,7751,WL,A,9.0
3,27.240999937057495,learn,32759.000062942505,Thu Feb 19 2026 16:16:05 GMT-0600 (Central Standard Time),458040.1999999881,A,go,O,o,35,1,3848.0999999940395,454192.09999999404,7751,WL,A,9.0
3,27.45900011062622,learn,32540.99988937378,Thu Feb 19 2026 16:16:05 GMT-0600 (Central Standard Time),458258.0,A,gol,O,l,204,1,4065.9000000059605,454192.09999999404,7751,WL,A,9.0
3,27.674000024795532,learn,32325.999975204468,Thu Feb 19 2026 16:16:05 GMT-0600 (Central Standard Time),458473.5,A,gold,O,d,208,1,4281.4000000059605,454192.09999999404,7751,WL,A,9.0
3,28.556999921798706,learn,31443.000078201294,Thu Feb 19 2026 16:16:05 GMT-0600 (Central Standard Time),459356.7999999821,A,goldenter,O,enter,874,1,5164.699999988079,454192.09999999404,7751,WL,A,9.0
3,56.38199996948242,learn,3618.000030517578,Thu Feb 19 2026 16:16:05 GMT-0600 (Central Standard Time),487181.59999999404,A,r,O,r,27807,1,27824.5,459357.09999999404,7751,WL,A,10.0
3,56.56400012969971,learn,3435.999870300293,Thu Feb 19 2026 16:16:05 GMT-0600 (Central Standard Time),487363.90000000596,A,ra,O,a,174,1,28006.80000001192,459357.09999999404,7751,WL,A,10.0
3,56.86400008201599,learn,3135.999917984009,Thu Feb 19 2026 16:16:05 GMT-0600 (Central Standard Time),487664.0,A,rat,O,t,293,1,28306.90000000596,459357.09999999404,7751,WL,A,10.0
3,57.013999938964844,learn,2986.0000610351562,Thu Feb 19 2026 16:16:05 GMT-0600 (Central Standard Time),487814.59999999404,A,ratt,O,t,137,1,28457.5,459357.09999999404,7751,WL,A,10.0
3,57.164000034332275,learn,2835.9999656677246,Thu Feb 19 2026 16:16:05 GMT-0600 (Central Standard Time),487964.5,A,rattl,O,l,135,1,28607.40000000596,459357.09999999404,7751,WL,A,10.0
3,57.331000089645386,learn,2668.9999103546143,Thu Feb 19 2026 16:16:05 GMT-0600 (Central Standard Time),488130.59999999404,A,rattle,O,e,159,1,28773.5,459357.09999999404,7751,WL,A,10.0
3,58.263999938964844,learn,1736.0000610351562,Thu Feb 19 2026 16:16:05 GMT-0600 (Central Standard Time),489064.5,A,rattleenter,O,enter,911,1,29707.40000000596,459357.09999999404,7751,WL,A,10.0
3,60.015000104904175,learn,-15.000104904174805,Thu Feb 19 2026 16:16:05 GMT-0600 (Central Standard Time),490814.59999999404,A,None,O,None,1745,1,1749.9000000059605,489064.6999999881,7751,WL,A,11.0
4,1.0219998359680176,learn,58978.00016403198,Thu Feb 19 2026 16:16:05 GMT-0600 (Central Standard Time),563646.2999999821,A,b,O,b,1001,1,1020.8999999761581,562625.400000006,7751,WL,A,1.0
4,1.1989998817443848,learn,58801.000118255615,Thu Feb 19 2026 16:16:05 GMT-0600 (Central Standard Time),563823.2999999821,A,bo,O,o,158,1,1197.8999999761581,562625.400000006,7751,WL,A,1.0
4,1.3659999370574951,learn,58634.000062942505,Thu Feb 19 2026 16:16:05 GMT-0600 (Central Standard Time),563990.5,A,boo,O,o,154,1,1365.0999999940395,562625.400000006,7751,WL,A,1.0
4,1.5649998188018799,learn,58435.00018119812,Thu Feb 19 2026 16:16:05 GMT-0600 (Central Standard Time),564189.7999999821,A,book,O,k,178,1,1564.3999999761581,562625.400000006,7751,WL,A,1.0
4,2.5149998664855957,learn,57485.000133514404,Thu Feb 19 2026 16:16:05 GMT-0600 (Central Standard Time),565140.0,A,bookenter,O,enter,934,1,2514.5999999940395,562625.400000006,7751,WL,A,1.0
4,4.513999938964844,learn,55486.000061035156,Thu Feb 19 2026 16:16:05 GMT-0600 (Central Standard Time),567139.1999999881,A,t,O,t,1993,1,1998.9000000059605,565140.2999999821,7751,WL,A,2.0
4,4.7809998989105225,learn,55219.00010108948,Thu Feb 19 2026 16:16:05 GMT-0600 (Central Standard Time),567405.400000006,A,tr,O,r,256,1,2265.100000023842,565140.2999999821,7751,WL,A,2.0
4,4.947999954223633,learn,55052.00004577637,Thu Feb 19 2026 16:16:05 GMT-0600 (Central Standard Time),567572.2999999821,A,tra,O,a,148,1,2432.0,565140.2999999821,7751,WL,A,2.0
4,5.115000009536743,learn,54884.99999046326,Thu Feb 19 2026 16:16:05 GMT-0600 (Central Standard Time),567739.2999999821,A,trai,O,i,151,1,2599.0,565140.2999999821,7751,WL,A,2.0
4,5.2799999713897705,learn,54720.00002861023,Thu Feb 19 2026 16:16:05 GMT-0600 (Central Standard Time),567905.099999994,A,train,O,n,159,1,2764.800000011921,565140.2999999821,7751,WL,A,2.0
4,6.7809998989105225,learn,53219.00010108948,Thu Feb 19 2026 16:16:05 GMT-0600 (Central Standard Time),569405.6999999881,A,trainenter,O,enter,1491,1,4265.4000000059605,565140.2999999821,7751,WL,A,2.0
4,8.129999876022339,learn,51870.00012397766,Thu Feb 19 2026 16:16:05 GMT-0600 (Central Standard Time),570754.6999999881,A,r,O,r,1333,1,1348.7999999821186,569405.900000006,7751,WL,A,3.0
4,8.228999853134155,learn,51771.000146865845,Thu Feb 19 2026 16:16:05 GMT-0600 (Central Standard Time),570853.900000006,A,ru,O,u,87,1,1448.0,569405.900000006,7751,WL,A,3.0
4,8.428999900817871,learn,51571.00009918213,Thu Feb 19 2026 16:16:05 GMT-0600 (Central Standard Time),571054.400000006,A,rug,O,g,187,1,1648.5,569405.900000006,7751,WL,A,3.0
4,9.178999900817871,learn,50821.00009918213,Thu Feb 19 2026 16:16:05 GMT-0600 (Central Standard Time),571803.400000006,A,rugenter,O,enter,731,1,2397.5,569405.900000006,7751,WL,A,3.0
4,9.678999900817871,learn,50321.00009918213,Thu Feb 19 2026 16:16:05 GMT-0600 (Central Standard Time),572303.599999994,A,m,O,m,495,1,500.0,571803.599999994,7751,WL,A,4.0
4,9.812999963760376,learn,50187.000036239624,Thu Feb 19 2026 16:16:05 GMT-0600 (Central Standard Time),572437.900000006,A,me,O,e,115,1,634.3000000119209,571803.599999994,7751,WL,A,4.0
4,9.912999868392944,learn,50087.000131607056,Thu Feb 19 2026 16:16:05 GMT-0600 (Central Standard Time),572537.900000006,A,mea,O,a,91,1,734.3000000119209,571803.599999994,7751,WL,A,4.0
4,10.11299991607666,learn,49887.00008392334,Thu Feb 19 2026 16:16:05 GMT-0600 (Central Standard Time),572737.1999999881,A,mead,O,d,179,1,933.5999999940395,571803.599999994,7751,WL,A,4.0
4,10.27899980545044,learn,49721.00019454956,Thu Feb 19 2026 16:16:05 GMT-0600 (Central Standard Time),572904.1999999881,A,meado,O,o,152,1,1100.5999999940395,571803.599999994,7751,WL,A,4.0
4,10.446999788284302,learn,49553.0002117157,Thu Feb 19 2026 16:16:05 GMT-0600 (Central Standard Time),573071.2999999821,A,meadow,O,w,145,1,1267.699999988079,571803.599999994,7751,WL,A,4.0
4,11.578999996185303,learn,48421.0000038147,Thu Feb 19 2026 16:16:05 GMT-0600 (Central Standard Time),574203.6999999881,A,meadowenter,O,enter,1114,1,2400.0999999940395,571803.599999994,7751,WL,A,4.0
4,12.544999837875366,learn,47455.000162124634,Thu Feb 19 2026 16:16:05 GMT-0600 (Central Standard Time),575169.599999994,A,h,O,h,961,1,965.6999999880791,574203.900000006,7751,WL,A,5.0
4,13.077999830245972,learn,46922.00016975403,Thu Feb 19 2026 16:16:05 GMT-0600 (Central Standard Time),575703.0,A,hr,O,r,513,1,1499.0999999940395,574203.900000006,7751,WL,A,5.0
4,13.628999948501587,learn,46371.00005149841,Thu Feb 19 2026 16:16:05 GMT-0600 (Central Standard Time),576253.2999999821,A,h,O,backspace,540,1,2049.399999976158,574203.900000006,7751,WL,A,5.0
4,13.860999822616577,learn,46139.00017738342,Thu Feb 19 2026 16:16:05 GMT-0600 (Central Standard Time),576485.900000006,A,ha,O,a,214,1,2282.0,574203.900000006,7751,WL,A,5.0
4,13.961999893188477,learn,46038.00010681152,Thu Feb 19 2026 16:16:05 GMT-0600 (Central Standard Time),576586.400000006,A,har,O,r,93,1,2382.5,574203.900000006,7751,WL,A,5.0
4,14.444999933242798,learn,45555.0000667572,Thu Feb 19 2026 16:16:05 GMT-0600 (Central Standard Time),577069.5,A,harp,O,p,470,1,2865.5999999940395,574203.900000006,7751,WL,A,5.0
4,15.49399995803833,learn,44506.00004196167,Thu Feb 19 2026 16:16:05 GMT-0600 (Central Standard Time),578118.6999999881,A,harpenter,O,enter,1038,1,3914.7999999821186,574203.900000006,7751,WL,A,5.0
4,19.925999879837036,learn,40074.000120162964,Thu Feb 19 2026 16:16:05 GMT-0600 (Central Standard Time),582550.900000006,A,b,O,b,4412,1,4432.0,578118.900000006,7751,WL,A,6.0
4,20.075999975204468,learn,39924.00002479553,Thu Feb 19 2026 16:16:05 GMT-0600 (Central Standard Time),582700.900000006,A,bu,O,u,138,1,4582.0,578118.900000006,7751,WL,A,6.0
4,20.30899977684021,learn,39691.00022315979,Thu Feb 19 2026 16:16:05 GMT-0600 (Central Standard Time),582933.6999999881,A,but,O,t,220,1,4814.799999982119,578118.900000006,7751,WL,A,6.0
4,20.460999965667725,learn,39539.000034332275,Thu Feb 19 2026 16:16:05 GMT-0600 (Central Standard Time),583085.6999999881,A,butt,O,t,129,1,4966.799999982119,578118.900000006,7751,WL,A,6.0
4,20.592999935150146,learn,39407.00006484985,Thu Feb 19 2026 16:16:05 GMT-0600 (Central Standard Time),583217.900000006,A,butto,O,o,117,1,5099.0,578118.900000006,7751,WL,A,6.0
4,20.72599983215332,learn,39274.00016784668,Thu Feb 19 2026 16:16:05 GMT-0600 (Central Standard Time),583350.6999999881,A,button,O,n,113,1,5231.799999982119,578118.900000006,7751,WL,A,6.0
4,21.407999992370605,learn,38592.000007629395,Thu Feb 19 2026 16:16:05 GMT-0600 (Central Standard Time),584033.099999994,A,buttonenter,O,enter,675,1,5914.199999988079,578118.900000006,7751,WL,A,6.0
4,21.842000007629395,learn,38157.999992370605,Thu Feb 19 2026 16:16:05 GMT-0600 (Central Standard Time),584466.6999999881,A,r,O,r,418,1,433.40000000596046,584033.2999999821,7751,WL,A,7.0
4,22.008999824523926,learn,37991.000175476074,Thu Feb 19 2026 16:16:05 GMT-0600 (Central Standard Time),584634.099999994,A,ra,O,a,154,1,600.8000000119209,584033.2999999821,7751,WL,A,7.0
4,22.22599983215332,learn,37774.00016784668,Thu Feb 19 2026 16:16:05 GMT-0600 (Central Standard Time),584850.900000006,A,rat,O,t,196,1,817.6000000238419,584033.2999999821,7751,WL,A,7.0
4,22.358999967575073,learn,37641.00003242493,Thu Feb 19 2026 16:16:05 GMT-0600 (Central Standard Time),584983.2999999821,A,ratt,O,t,120,1,950.0,584033.2999999821,7751,WL,A,7.0
4,22.54199981689453,learn,37458.00018310547,Thu Feb 19 2026 16:16:05 GMT-0600 (Central Standard Time),585166.2999999821,A,rattl,O,l,169,1,1133.0,584033.2999999821,7751,WL,A,7.0
4,22.70899987220764,learn,37291.00012779236,Thu Feb 19 2026 16:16:05 GMT-0600 (Central Standard Time),585333.599999994,A,rattle,O,e,156,1,1300.300000011921,584033.2999999821,7751,WL,A,7.0
4,23.29199981689453,learn,36708.00018310547,Thu Feb 19 2026 16:16:05 GMT-0600 (Central Standard Time),585916.400000006,A,rattleenter,O,enter,565,1,1883.1000000238419,584033.2999999821,7751,WL,A,7.0
4,23.842000007629395,learn,36157.999992370605,Thu Feb 19 2026 16:16:05 GMT-0600 (Central Standard Time),586466.2999999821,A,s,O,s,535,1,549.5999999940395,585916.6999999881,7751,WL,A,8.0
4,24.240999937057495,learn,35759.000062942505,Thu Feb 19 2026 16:16:05 GMT-0600 (Central Standard Time),586865.900000006,A,se,O,e,391,1,949.2000000178814,585916.6999999881,7751,WL,A,8.0
4,24.807999849319458,learn,35192.00015068054,Thu Feb 19 2026 16:16:05 GMT-0600 (Central Standard Time),587432.599999994,A,s,O,backspace,550,1,1515.9000000059605,585916.6999999881,7751,WL,A,8.0
4,25.092000007629395,learn,34907.999992370605,Thu Feb 19 2026 16:16:05 GMT-0600 (Central Standard Time),587716.5,A,sa,O,a,274,1,1799.800000011921,585916.6999999881,7751,WL,A,8.0
4,25.240999937057495,learn,34759.000062942505,Thu Feb 19 2026 16:16:05 GMT-0600 (Central Standard Time),587866.0,A,sal,O,l,134,1,1949.300000011921,585916.6999999881,7751,WL,A,8.0
4,25.640999794006348,learn,34359.00020599365,Thu Feb 19 2026 16:16:05 GMT-0600 (Central Standard Time),588265.599999994,A,salt,O,t,376,1,2348.9000000059605,585916.6999999881,7751,WL,A,8.0
4,26.2739999294281,learn,33726.0000705719,Thu Feb 19 2026 16:16:05 GMT-0600 (Central Standard Time),588899.099999994,A,saltenter,O,enter,616,1,2982.4000000059605,585916.6999999881,7751,WL,A,8.0
4,26.625999927520752,learn,33374.00007247925,Thu Feb 19 2026 16:16:05 GMT-0600 (Central Standard Time),589250.900000006,A,f,O,f,347,1,351.5,588899.400000006,7751,WL,A,9.0
4,26.722999811172485,learn,33277.000188827515,Thu Feb 19 2026 16:16:05 GMT-0600 (Central Standard Time),589347.599999994,A,fi,O,i,89,1,448.19999998807907,588899.400000006,7751,WL,A,9.0
4,26.85599994659424,learn,33144.00005340576,Thu Feb 19 2026 16:16:05 GMT-0600 (Central Standard Time),589481.099999994,A,fin,O,n,119,1,581.6999999880791,588899.400000006,7751,WL,A,9.0
4,27.056999921798706,learn,32943.000078201294,Thu Feb 19 2026 16:16:05 GMT-0600 (Central Standard Time),589681.599999994,A,fing,O,g,185,1,782.1999999880791,588899.400000006,7751,WL,A,9.0
4,27.2739999294281,learn,32726.0000705719,Thu Feb 19 2026 16:16:05 GMT-0600 (Central Standard Time),589898.7999999821,A,finge,O,e,200,1,999.3999999761581,588899.400000006,7751,WL,A,9.0
4,27.375999927520752,learn,32624.000072479248,Thu Feb 19 2026 16:16:05 GMT-0600 (Central Standard Time),590000.1999999881,A,finger,O,r,87,1,1100.7999999821186,588899.400000006,7751,WL,A,9.0
4,28.039999961853027,learn,31960.000038146973,Thu Feb 19 2026 16:16:05 GMT-0600 (Central Standard Time),590664.6999999881,A,fingerenter,O,enter,651,1,1765.2999999821186,588899.400000006,7751,WL,A,9.0
4,28.372999906539917,learn,31627.000093460083,Thu Feb 19 2026 16:16:05 GMT-0600 (Central Standard Time),590997.900000006,A,a,O,a,314,1,333.0,590664.900000006,7751,WL,A,10.0
4,29.240000009536743,learn,30759.999990463257,Thu Feb 19 2026 16:16:05 GMT-0600 (Central Standard Time),591865.099999994,A,ap,O,p,861,1,1200.199999988079,590664.900000006,7751,WL,A,10.0
4,29.423999786376953,learn,30576.000213623047,Thu Feb 19 2026 16:16:05 GMT-0600 (Central Standard Time),592048.400000006,A,app,O,p,163,1,1383.5,590664.900000006,7751,WL,A,10.0
4,29.60599994659424,learn,30394.00005340576,Thu Feb 19 2026 16:16:05 GMT-0600 (Central Standard Time),592230.900000006,A,appl,O,l,170,1,1566.0,590664.900000006,7751,WL,A,10.0
4,29.822999954223633,learn,30177.000045776367,Thu Feb 19 2026 16:16:05 GMT-0600 (Central Standard Time),592447.400000006,A,apple,O,e,204,1,1782.5,590664.900000006,7751,WL,A,10.0
4,30.921000003814697,learn,29078.999996185303,Thu Feb 19 2026 16:16:05 GMT-0600 (Central Standard Time),593546.099999994,A,appleenter,O,enter,1082,1,2881.199999988079,590664.900000006,7751,WL,A,10.0
4,31.455999851226807,learn,28544.000148773193,Thu Feb 19 2026 16:16:05 GMT-0600 (Central Standard Time),594080.5,A,g,O,g,521,1,534.2000000178814,593546.2999999821,7751,WL,A,11.0
4,31.538999795913696,learn,28461.000204086304,Thu Feb 19 2026 16:16:05 GMT-0600 (Central Standard Time),594163.2999999821,A,go,O,o,63,1,617.0,593546.2999999821,7751,WL,A,11.0
4,31.740999937057495,learn,28259.000062942505,Thu Feb 19 2026 16:16:05 GMT-0600 (Central Standard Time),594365.6999999881,A,gol,O,l,183,1,819.4000000059605,593546.2999999821,7751,WL,A,11.0
4,31.87399983406067,learn,28126.00016593933,Thu Feb 19 2026 16:16:05 GMT-0600 (Central Standard Time),594498.599999994,A,gold,O,d,128,1,952.3000000119209,593546.2999999821,7751,WL,A,11.0
4,32.60499978065491,learn,27395.000219345093,Thu Feb 19 2026 16:16:05 GMT-0600 (Central Standard Time),595230.0,A,goldenter,O,enter,721,1,1683.7000000178814,593546.2999999821,7751,WL,A,11.0
4,34.1029999256134,learn,25897.000074386597,Thu Feb 19 2026 16:16:05 GMT-0600 (Central Standard Time),596728.5,A,k,O,k,1494,1,1498.2000000178814,595230.2999999821,7751,WL,A,12.0
4,34.287999868392944,learn,25712.000131607056,Thu Feb 19 2026 16:16:05 GMT-0600 (Central Standard Time),596913.6999999881,A,ke,O,e,172,1,1683.4000000059605,595230.2999999821,7751,WL,A,12.0
4,34.48799991607666,learn,25512.00008392334,Thu Feb 19 2026 16:16:05 GMT-0600 (Central Standard Time),597112.900000006,A,key,O,y,184,1,1882.6000000238419,595230.2999999821,7751,WL,A,12.0
4,35.853999853134155,learn,24146.000146865845,Thu Feb 19 2026 16:16:05 GMT-0600 (Central Standard Time),598479.400000006,A,keyenter,O,enter,1344,1,3249.100000023842,595230.2999999821,7751,WL,A,12.0
4,39.11899995803833,learn,20881.00004196167,Thu Feb 19 2026 16:16:05 GMT-0600 (Central Standard Time),601744.2999999821,A,f,O,f,3258,1,3264.5999999940395,598479.6999999881,7751,WL,A,13.0
4,39.2189998626709,learn,20781.0001373291,Thu Feb 19 2026 16:16:05 GMT-0600 (Central Standard Time),601844.6999999881,A,fl,O,l,83,1,3365.0,598479.6999999881,7751,WL,A,13.0
4,39.40299987792969,learn,20597.000122070312,Thu Feb 19 2026 16:16:05 GMT-0600 (Central Standard Time),602028.599999994,A,flo,O,o,173,1,3548.9000000059605,598479.6999999881,7751,WL,A,13.0
4,39.53699994087219,learn,20463.000059127808,Thu Feb 19 2026 16:16:05 GMT-0600 (Central Standard Time),602161.900000006,A,flow,O,w,113,1,3682.2000000178814,598479.6999999881,7751,WL,A,13.0
4,39.651999950408936,learn,20348.000049591064,Thu Feb 19 2026 16:16:05 GMT-0600 (Central Standard Time),602277.2999999821,A,flowe,O,e,105,1,3797.5999999940395,598479.6999999881,7751,WL,A,13.0
4,39.752999782562256,learn,20247.000217437744,Thu Feb 19 2026 16:16:05 GMT-0600 (Central Standard Time),602378.5,A,flower,O,r,92,1,3898.800000011921,598479.6999999881,7751,WL,A,13.0
4,40.76899981498718,learn,19231.000185012817,Thu Feb 19 2026 16:16:05 GMT-0600 (Central Standard Time),603394.0,A,flowerenter,O,enter,1001,1,4914.300000011921,598479.6999999881,7751,WL,A,13.0
4,46.967000007629395,learn,13032.999992370605,Thu Feb 19 2026 16:16:05 GMT-0600 (Central Standard Time),609592.1999999881,A,c,O,c,6193,1,6197.9000000059605,603394.2999999821,7751,WL,A,14.0
4,47.115999937057495,learn,12884.000062942505,Thu Feb 19 2026 16:16:05 GMT-0600 (Central Standard Time),609741.599999994,A,ch,O,h,129,1,6347.300000011921,603394.2999999821,7751,WL,A,14.0
4,47.299999952316284,learn,12700.000047683716,Thu Feb 19 2026 16:16:05 GMT-0600 (Central Standard Time),609925.1999999881,A,chi,O,i,164,1,6530.9000000059605,603394.2999999821,7751,WL,A,14.0
4,47.467000007629395,learn,12532.999992370605,Thu Feb 19 2026 16:16:05 GMT-0600 (Central Standard Time),610092.6999999881,A,chim,O,m,158,1,6698.4000000059605,603394.2999999821,7751,WL,A,14.0
4,48.097999811172485,learn,11902.000188827515,Thu Feb 19 2026 16:16:05 GMT-0600 (Central Standard Time),610723.6999999881,A,chimn,O,n,615,1,7329.4000000059605,603394.2999999821,7751,WL,A,14.0
4,48.51599979400635,learn,11484.000205993652,Thu Feb 19 2026 16:16:05 GMT-0600 (Central Standard Time),611141.5,A,chimne,O,e,400,1,7747.200000017881,603394.2999999821,7751,WL,A,14.0
4,48.66599988937378,learn,11334.00011062622,Thu Feb 19 2026 16:16:05 GMT-0600 (Central Standard Time),611291.5,A,chimney,O,y,132,1,7897.200000017881,603394.2999999821,7751,WL,A,14.0
4,49.56599998474121,learn,10434.000015258789,Thu Feb 19 2026 16:16:05 GMT-0600 (Central Standard Time),612191.6999999881,A,chimneyenter,O,enter,880,1,8797.40000000596,603394.2999999821,7751,WL,A,14.0
4,54.36299991607666,learn,5637.00008392334,Thu Feb 19 2026 16:16:05 GMT-0600 (Central Standard Time),616988.5,A,l,O,l,4786,1,4796.5999999940395,612191.900000006,7751,WL,A,15.0
4,54.56399989128113,learn,5436.000108718872,Thu Feb 19 2026 16:16:05 GMT-0600 (Central Standard Time),617189.7999999821,A,lo,O,o,191,1,4997.899999976158,612191.900000006,7751,WL,A,15.0
4,54.83199977874756,learn,5168.000221252441,Thu Feb 19 2026 16:16:05 GMT-0600 (Central Standard Time),617457.099999994,A,log,O,g,262,1,5265.199999988079,612191.900000006,7751,WL,A,15.0
4,55.64699983596802,learn,4353.000164031982,Thu Feb 19 2026 16:16:05 GMT-0600 (Central Standard Time),618272.5,A,logenter,O,enter,803,1,6080.5999999940395,612191.900000006,7751,WL,A,15.0
5,1.4499998092651367,learn,60000.0,Thu Feb 19 2026 16:16:05 GMT-0600 (Central Standard Time),692566.2999999821,A,b,O,b,1432,1,1450.199999988079,691116.099999994,7751,WL,A,1.0
5,1.682999849319458,learn,60000.0,Thu Feb 19 2026 16:16:05 GMT-0600 (Central Standard Time),692799.1999999881,A,bo,O,o,213,1,1683.0999999940395,691116.099999994,7751,WL,A,1.0
5,1.866999864578247,learn,60000.0,Thu Feb 19 2026 16:16:05 GMT-0600 (Central Standard Time),692982.7999999821,A,boo,O,o,162,1,1866.699999988079,691116.099999994,7751,WL,A,1.0
5,2.050999879837036,learn,60000.0,Thu Feb 19 2026 16:16:05 GMT-0600 (Central Standard Time),693167.0,A,book,O,k,174,1,2050.9000000059605,691116.099999994,7751,WL,A,1.0
5,3.115999937057495,learn,60000.0,Thu Feb 19 2026 16:16:05 GMT-0600 (Central Standard Time),694231.7999999821,A,bookenter,O,enter,1052,1,3115.699999988079,691116.099999994,7751,WL,A,1.0
5,4.365999937057495,learn,60000.0,Thu Feb 19 2026 16:16:05 GMT-0600 (Central Standard Time),695482.2999999821,A,f,O,f,1238,1,1250.2999999821186,694232.0,7751,WL,A,2.0
5,4.4649999141693115,learn,60000.0,Thu Feb 19 2026 16:16:05 GMT-0600 (Central Standard Time),695581.1999999881,A,fl,O,l,78,1,1349.199999988079,694232.0,7751,WL,A,2.0
5,4.631999969482422,learn,60000.0,Thu Feb 19 2026 16:16:05 GMT-0600 (Central Standard Time),695748.0,A,flo,O,o,157,1,1516.0,694232.0,7751,WL,A,2.0
5,4.765999794006348,learn,60000.0,Thu Feb 19 2026 16:16:05 GMT-0600 (Central Standard Time),695881.7999999821,A,flow,O,w,117,1,1649.7999999821186,694232.0,7751,WL,A,2.0
5,4.866999864578247,learn,60000.0,Thu Feb 19 2026 16:16:05 GMT-0600 (Central Standard Time),695982.900000006,A,flowe,O,e,80,1,1750.9000000059605,694232.0,7751,WL,A,2.0
5,4.998999834060669,learn,60000.0,Thu Feb 19 2026 16:16:05 GMT-0600 (Central Standard Time),696115.099999994,A,flower,O,r,115,1,1883.0999999940395,694232.0,7751,WL,A,2.0
5,6.180999994277954,learn,60000.0,Thu Feb 19 2026 16:16:05 GMT-0600 (Central Standard Time),697297.5,A,flowerenter,O,enter,1166,1,3065.5,694232.0,7751,WL,A,2.0
5,11.229999780654907,learn,60000.0,Thu Feb 19 2026 16:16:05 GMT-0600 (Central Standard Time),702345.5,A,r,O,r,5034,1,5047.800000011921,697297.6999999881,7751,WL,A,3.0
5,11.363999843597412,learn,60000.0,Thu Feb 19 2026 16:16:05 GMT-0600 (Central Standard Time),702479.6999999881,A,ru,O,u,128,1,5182.0,697297.6999999881,7751,WL,A,3.0
5,11.54699993133545,learn,60000.0,Thu Feb 19 2026 16:16:05 GMT-0600 (Central Standard Time),702662.6999999881,A,rug,O,g,164,1,5365.0,697297.6999999881,7751,WL,A,3.0
5,12.746999979019165,learn,60000.0,Thu Feb 19 2026 16:16:05 GMT-0600 (Central Standard Time),703862.599999994,A,rugenter,O,enter,1184,1,6564.9000000059605,697297.6999999881,7751,WL,A,3.0
5,13.75,learn,60000.0,Thu Feb 19 2026 16:16:05 GMT-0600 (Central Standard Time),704865.7999999821,A,t,O,t,996,1,1003.0,703862.7999999821,7751,WL,A,4.0
5,13.977999925613403,learn,60000.0,Thu Feb 19 2026 16:16:05 GMT-0600 (Central Standard Time),705094.099999994,A,tr,O,r,218,1,1231.300000011921,703862.7999999821,7751,WL,A,4.0
5,14.09499979019165,learn,60000.0,Thu Feb 19 2026 16:16:05 GMT-0600 (Central Standard Time),705211.2999999821,A,tra,O,a,109,1,1348.5,703862.7999999821,7751,WL,A,4.0
5,14.19599986076355,learn,60000.0,Thu Feb 19 2026 16:16:05 GMT-0600 (Central Standard Time),705312.1999999881,A,trai,O,i,77,1,1449.4000000059605,703862.7999999821,7751,WL,A,4.0
5,14.312999963760376,learn,60000.0,Thu Feb 19 2026 16:16:05 GMT-0600 (Central Standard Time),705428.6999999881,A,train,O,n,106,1,1565.9000000059605,703862.7999999821,7751,WL,A,4.0
5,14.995999813079834,learn,60000.0,Thu Feb 19 2026 16:16:05 GMT-0600 (Central Standard Time),706112.400000006,A,trainenter,O,enter,676,1,2249.600000023842,703862.7999999821,7751,WL,A,4.0
5,15.461999893188477,learn,60000.0,Thu Feb 19 2026 16:16:05 GMT-0600 (Central Standard Time),706578.099999994,A,m,O,m,451,1,465.40000000596046,706112.6999999881,7751,WL,A,5.0
5,15.578999996185303,learn,60000.0,Thu Feb 19 2026 16:16:05 GMT-0600 (Central Standard Time),706694.599999994,A,me,O,e,103,1,581.9000000059605,706112.6999999881,7751,WL,A,5.0
5,15.712999820709229,learn,60000.0,Thu Feb 19 2026 16:16:05 GMT-0600 (Central Standard Time),706829.0,A,mea,O,a,123,1,716.3000000119209,706112.6999999881,7751,WL,A,5.0
5,15.977999925613403,learn,60000.0,Thu Feb 19 2026 16:16:05 GMT-0600 (Central Standard Time),707094.1999999881,A,mead,O,d,251,1,981.5,706112.6999999881,7751,WL,A,5.0
5,16.194999933242798,learn,60000.0,Thu Feb 19 2026 16:16:05 GMT-0600 (Central Standard Time),707311.099999994,A,meado,O,o,193,1,1198.4000000059605,706112.6999999881,7751,WL,A,5.0
5,16.42799997329712,learn,60000.0,Thu Feb 19 2026 16:16:05 GMT-0600 (Central Standard Time),707544.2999999821,A,meadow,O,w,223,1,1431.5999999940395,706112.6999999881,7751,WL,A,5.0
5,17.09499979019165,learn,60000.0,Thu Feb 19 2026 16:16:05 GMT-0600 (Central Standard Time),708211.1999999881,A,meadowenter,O,enter,652,1,2098.5,706112.6999999881,7751,WL,A,5.0
5,17.561999797821045,learn,60000.0,Thu Feb 19 2026 16:16:05 GMT-0600 (Central Standard Time),708678.099999994,A,h,O,h,456,1,466.69999998807907,708211.400000006,7751,WL,A,6.0
5,17.710999965667725,learn,60000.0,Thu Feb 19 2026 16:16:05 GMT-0600 (Central Standard Time),708827.400000006,A,ha,O,a,131,1,616.0,708211.400000006,7751,WL,A,6.0
5,17.876999855041504,learn,60000.0,Thu Feb 19 2026 16:16:05 GMT-0600 (Central Standard Time),708992.6999999881,A,har,O,r,139,1,781.2999999821186,708211.400000006,7751,WL,A,6.0
5,18.194999933242798,learn,60000.0,Thu Feb 19 2026 16:16:05 GMT-0600 (Central Standard Time),709311.2999999821,A,harp,O,p,308,1,1099.8999999761581,708211.400000006,7751,WL,A,6.0
5,19.044999837875366,learn,60000.0,Thu Feb 19 2026 16:16:05 GMT-0600 (Central Standard Time),710160.7999999821,A,harpenter,O,enter,839,1,1949.3999999761581,708211.400000006,7751,WL,A,6.0
5,21.125999927520752,learn,60000.0,Thu Feb 19 2026 16:16:05 GMT-0600 (Central Standard Time),712242.5,A,s,O,s,2065,1,2081.5,710161.0,7751,WL,A,7.0
5,21.276999950408936,learn,60000.0,Thu Feb 19 2026 16:16:05 GMT-0600 (Central Standard Time),712393.0,A,sa,O,a,143,1,2232.0,710161.0,7751,WL,A,7.0
5,21.393999814987183,learn,60000.0,Thu Feb 19 2026 16:16:05 GMT-0600 (Central Standard Time),712510.5,A,sal,O,l,92,1,2349.5,710161.0,7751,WL,A,7.0
5,21.89299988746643,learn,60000.0,Thu Feb 19 2026 16:16:05 GMT-0600 (Central Standard Time),713009.400000006,A,salt,O,t,484,1,2848.4000000059605,710161.0,7751,WL,A,7.0
5,22.65999984741211,learn,60000.0,Thu Feb 19 2026 16:16:05 GMT-0600 (Central Standard Time),713775.5,A,saltenter,O,enter,745,1,3614.5,710161.0,7751,WL,A,7.0
5,23.259999990463257,learn,60000.0,Thu Feb 19 2026 16:16:05 GMT-0600 (Central Standard Time),714375.7999999821,A,f,O,f,580,1,600.0999999940395,713775.6999999881,7751,WL,A,8.0
5,23.325999975204468,learn,60000.0,Thu Feb 19 2026 16:16:05 GMT-0600 (Central Standard Time),714442.1999999881,A,fi,O,i,58,1,666.5,713775.6999999881,7751,WL,A,8.0
5,23.45899987220764,learn,60000.0,Thu Feb 19 2026 16:16:05 GMT-0600 (Central Standard Time),714575.400000006,A,fin,O,n,121,1,799.7000000178814,713775.6999999881,7751,WL,A,8.0
5,23.676999807357788,learn,60000.0,Thu Feb 19 2026 16:16:05 GMT-0600 (Central Standard Time),714792.900000006,A,fing,O,g,208,1,1017.2000000178814,713775.6999999881,7751,WL,A,8.0
5,23.908999919891357,learn,60000.0,Thu Feb 19 2026 16:16:05 GMT-0600 (Central Standard Time),715025.2999999821,A,finge,O,e,219,1,1249.5999999940395,713775.6999999881,7751,WL,A,8.0
5,24.026999950408936,learn,60000.0,Thu Feb 19 2026 16:16:05 GMT-0600 (Central Standard Time),715142.7999999821,A,finger,O,r,94,1,1367.0999999940395,713775.6999999881,7751,WL,A,8.0
5,24.72599983215332,learn,60000.0,Thu Feb 19 2026 16:16:05 GMT-0600 (Central Standard Time),715842.2999999821,A,fingerenter,O,enter,692,1,2066.5999999940395,713775.6999999881,7751,WL,A,8.0
5,25.091999769210815,learn,60000.0,Thu Feb 19 2026 16:16:05 GMT-0600 (Central Standard Time),716208.7999999821,A,a,O,a,361,1,366.2999999821186,715842.5,7751,WL,A,9.0
5,25.242999792099,learn,60000.0,Thu Feb 19 2026 16:16:05 GMT-0600 (Central Standard Time),716360.099999994,A,ap,O,p,135,1,517.5999999940395,715842.5,7751,WL,A,9.0
5,25.390999794006348,learn,60000.0,Thu Feb 19 2026 16:16:05 GMT-0600 (Central Standard Time),716508.1999999881,A,app,O,p,138,1,665.6999999880791,715842.5,7751,WL,A,9.0
5,25.608999967575073,learn,60000.0,Thu Feb 19 2026 16:16:05 GMT-0600 (Central Standard Time),716725.1999999881,A,appl,O,l,207,1,882.6999999880791,715842.5,7751,WL,A,9.0
5,25.7739999294281,learn,60000.0,Thu Feb 19 2026 16:16:05 GMT-0600 (Central Standard Time),716891.099999994,A,apple,O,e,146,1,1048.5999999940395,715842.5,7751,WL,A,9.0
5,26.774999856948853,learn,60000.0,Thu Feb 19 2026 16:16:05 GMT-0600 (Central Standard Time),717891.1999999881,A,appleenter,O,enter,984,1,2048.699999988079,715842.5,7751,WL,A,9.0
5,28.10699987411499,learn,60000.0,Thu Feb 19 2026 16:16:05 GMT-0600 (Central Standard Time),719224.1999999881,A,b,O,b,1327,1,1332.699999988079,717891.5,7751,WL,A,10.0
5,28.72499990463257,learn,60000.0,Thu Feb 19 2026 16:16:05 GMT-0600 (Central Standard Time),719842.0,A,,O,backspace,611,1,1950.5,717891.5,7751,WL,A,10.0
5,29.556999921798706,learn,60000.0,Thu Feb 19 2026 16:16:05 GMT-0600 (Central Standard Time),720673.2999999821,A,b,O,b,817,1,2781.7999999821186,717891.5,7751,WL,A,10.0
5,29.77300000190735,learn,60000.0,Thu Feb 19 2026 16:16:05 GMT-0600 (Central Standard Time),720890.099999994,A,bu,O,u,206,1,2998.5999999940395,717891.5,7751,WL,A,10.0
5,30.156999826431274,learn,60000.0,Thu Feb 19 2026 16:16:05 GMT-0600 (Central Standard Time),721273.2999999821,A,but,O,t,368,1,3381.7999999821186,717891.5,7751,WL,A,10.0
5,30.305999994277954,learn,60000.0,Thu Feb 19 2026 16:16:05 GMT-0600 (Central Standard Time),721423.1999999881,A,butt,O,t,128,1,3531.699999988079,717891.5,7751,WL,A,10.0
5,30.4229998588562,learn,60000.0,Thu Feb 19 2026 16:16:05 GMT-0600 (Central Standard Time),721539.900000006,A,butto,O,o,104,1,3648.4000000059605,717891.5,7751,WL,A,10.0
5,30.573999881744385,learn,60000.0,Thu Feb 19 2026 16:16:05 GMT-0600 (Central Standard Time),721690.7999999821,A,button,O,n,143,1,3799.2999999821186,717891.5,7751,WL,A,10.0
5,31.389999866485596,learn,60000.0,Thu Feb 19 2026 16:16:05 GMT-0600 (Central Standard Time),722506.400000006,A,buttonenter,O,enter,797,1,4614.9000000059605,717891.5,7751,WL,A,10.0
5,32.371999979019165,learn,60000.0,Thu Feb 19 2026 16:16:05 GMT-0600 (Central Standard Time),723489.099999994,A,r,O,r,962,1,982.4000000059605,722506.6999999881,7751,WL,A,11.0
5,32.739999771118164,learn,60000.0,Thu Feb 19 2026 16:16:05 GMT-0600 (Central Standard Time),723856.5,A,ra,O,a,358,1,1349.800000011921,722506.6999999881,7751,WL,A,11.0
5,33.038999795913696,learn,60000.0,Thu Feb 19 2026 16:16:05 GMT-0600 (Central Standard Time),724155.400000006,A,rat,O,t,286,1,1648.7000000178814,722506.6999999881,7751,WL,A,11.0
5,33.20599985122681,learn,60000.0,Thu Feb 19 2026 16:16:05 GMT-0600 (Central Standard Time),724323.099999994,A,ratt,O,t,150,1,1816.4000000059605,722506.6999999881,7751,WL,A,11.0
5,33.33999991416931,learn,60000.0,Thu Feb 19 2026 16:16:05 GMT-0600 (Central Standard Time),724457.1999999881,A,ratti,O,i,128,1,1950.5,722506.6999999881,7751,WL,A,11.0
5,33.45699977874756,learn,60000.0,Thu Feb 19 2026 16:16:05 GMT-0600 (Central Standard Time),724573.599999994,A,rattil,O,l,102,1,2066.9000000059605,722506.6999999881,7751,WL,A,11.0
5,34.07299995422363,learn,60000.0,Thu Feb 19 2026 16:16:05 GMT-0600 (Central Standard Time),725189.2999999821,A,ratti,O,backspace,595,1,2682.5999999940395,722506.6999999881,7751,WL,A,11.0
5,34.27300000190735,learn,60000.0,Thu Feb 19 2026 16:16:05 GMT-0600 (Central Standard Time),725389.400000006,A,ratt,O,backspace,178,1,2882.7000000178814,722506.6999999881,7751,WL,A,11.0
5,34.620999813079834,learn,60000.0,Thu Feb 19 2026 16:16:05 GMT-0600 (Central Standard Time),725738.1999999881,A,rattl,O,l,340,1,3231.5,722506.6999999881,7751,WL,A,11.0
5,34.85599994659424,learn,60000.0,Thu Feb 19 2026 16:16:05 GMT-0600 (Central Standard Time),725972.400000006,A,rattle,O,e,220,1,3465.7000000178814,722506.6999999881,7751,WL,A,11.0
5,35.77199983596802,learn,60000.0,Thu Feb 19 2026 16:16:05 GMT-0600 (Central Standard Time),726888.400000006,A,rattleenter,O,enter,895,1,4381.700000017881,722506.6999999881,7751,WL,A,11.0
5,36.08799982070923,learn,60000.0,Thu Feb 19 2026 16:16:05 GMT-0600 (Central Standard Time),727204.599999994,A,l,O,l,307,1,316.0,726888.599999994,7751,WL,A,12.0
5,36.287999868392944,learn,60000.0,Thu Feb 19 2026 16:16:05 GMT-0600 (Central Standard Time),727404.1999999881,A,lo,O,o,188,1,515.5999999940395,726888.599999994,7751,WL,A,12.0
5,36.47099995613098,learn,60000.0,Thu Feb 19 2026 16:16:05 GMT-0600 (Central Standard Time),727587.6999999881,A,log,O,g,167,1,699.0999999940395,726888.599999994,7751,WL,A,12.0
5,37.20699977874756,learn,60000.0,Thu Feb 19 2026 16:16:05 GMT-0600 (Central Standard Time),728324.099999994,A,logenter,O,enter,718,1,1435.5,726888.599999994,7751,WL,A,12.0
5,37.88799977302551,learn,60000.0,Thu Feb 19 2026 16:16:05 GMT-0600 (Central Standard Time),729004.900000006,A,c,O,c,663,1,680.6000000238419,728324.2999999821,7751,WL,A,13.0
5,38.07099986076355,learn,60000.0,Thu Feb 19 2026 16:16:05 GMT-0600 (Central Standard Time),729187.900000006,A,ch,O,h,163,1,863.6000000238419,728324.2999999821,7751,WL,A,13.0
5,38.21999979019165,learn,60000.0,Thu Feb 19 2026 16:16:05 GMT-0600 (Central Standard Time),729337.099999994,A,chi,O,i,142,1,1012.8000000119209,728324.2999999821,7751,WL,A,13.0
5,38.38699984550476,learn,60000.0,Thu Feb 19 2026 16:16:05 GMT-0600 (Central Standard Time),729504.1999999881,A,chim,O,m,143,1,1179.9000000059605,728324.2999999821,7751,WL,A,13.0
5,38.853999853134155,learn,60000.0,Thu Feb 19 2026 16:16:05 GMT-0600 (Central Standard Time),729970.6999999881,A,chimn,O,n,459,1,1646.4000000059605,728324.2999999821,7751,WL,A,13.0
5,39.11999988555908,learn,60000.0,Thu Feb 19 2026 16:16:05 GMT-0600 (Central Standard Time),730236.900000006,A,chimne,O,e,251,1,1912.6000000238419,728324.2999999821,7751,WL,A,13.0
5,39.32099986076355,learn,60000.0,Thu Feb 19 2026 16:16:05 GMT-0600 (Central Standard Time),730437.1999999881,A,chimney,O,y,190,1,2112.9000000059605,728324.2999999821,7751,WL,A,13.0
5,40.353999853134155,learn,60000.0,Thu Feb 19 2026 16:16:05 GMT-0600 (Central Standard Time),731470.7999999821,A,chimneyenter,O,enter,1022,1,3146.5,728324.2999999821,7751,WL,A,13.0
5,44.53599977493286,learn,60000.0,Thu Feb 19 2026 16:16:05 GMT-0600 (Central Standard Time),735653.0,A,g,O,g,4172,1,4181.9000000059605,731471.099999994,7751,WL,A,14.0
5,44.651999950408936,learn,60000.0,Thu Feb 19 2026 16:16:05 GMT-0600 (Central Standard Time),735769.099999994,A,go,O,o,98,1,4298.0,731471.099999994,7751,WL,A,14.0
5,44.834999799728394,learn,60000.0,Thu Feb 19 2026 16:16:05 GMT-0600 (Central Standard Time),735952.099999994,A,gol,O,l,171,1,4481.0,731471.099999994,7751,WL,A,14.0
5,45.002999782562256,learn,60000.0,Thu Feb 19 2026 16:16:05 GMT-0600 (Central Standard Time),736119.2999999821,A,gold,O,d,148,1,4648.199999988079,731471.099999994,7751,WL,A,14.0
5,46.084999799728394,learn,60000.0,Thu Feb 19 2026 16:16:05 GMT-0600 (Central Standard Time),737201.599999994,A,goldenter,O,enter,1067,1,5730.5,731471.099999994,7751,WL,A,14.0
5,53.08299994468689,learn,60000.0,Thu Feb 19 2026 16:16:05 GMT-0600 (Central Standard Time),744199.900000006,A,k,O,k,6995,1,6998.100000023842,737201.7999999821,7751,WL,A,15.0
5,53.26599979400635,learn,60000.0,Thu Feb 19 2026 16:16:05 GMT-0600 (Central Standard Time),744383.1999999881,A,ke,O,e,172,1,7181.4000000059605,737201.7999999821,7751,WL,A,15.0
5,53.41599988937378,learn,60000.0,Thu Feb 19 2026 16:16:05 GMT-0600 (Central Standard Time),744532.5,A,key,O,y,137,1,7330.700000017881,737201.7999999821,7751,WL,A,15.0
5,54.18299984931946,learn,60000.0,Thu Feb 19 2026 16:16:05 GMT-0600 (Central Standard Time),745299.400000006,A,keyenter,O,enter,751,1,8097.600000023842,737201.7999999821,7751,WL,A,15.0
6,1.0820000171661377,distr,58917.99998283386,Thu Feb 19 2026 16:16:05 GMT-0600 (Central Standard Time),832721.1999999881,B,b,O,b,1076,1,1081.9000000059605,831639.2999999821,7751,WL,A,1.0
6,1.2320001125335693,distr,58767.99988746643,Thu Feb 19 2026 16:16:05 GMT-0600 (Central Standard Time),832871.1999999881,B,bp,O,p,135,1,1231.9000000059605,831639.2999999821,7751,WL,A,1.0
6,1.5310001373291016,distr,58468.9998626709,Thu Feb 19 2026 16:16:05 GMT-0600 (Central Standard Time),833170.2999999821,B,bpw,O,w,292,1,1531.0,831639.2999999821,7751,WL,A,1.0
6,2.6489999294281006,distr,57351.0000705719,Thu Feb 19 2026 16:16:05 GMT-0600 (Central Standard Time),834287.900000006,B,bp,O,backspace,1096,1,2648.600000023842,831639.2999999821,7751,WL,A,1.0
6,2.815999984741211,distr,57184.00001525879,Thu Feb 19 2026 16:16:05 GMT-0600 (Central Standard Time),834455.1999999881,B,b,O,backspace,146,1,2815.9000000059605,831639.2999999821,7751,WL,A,1.0
6,3.680999994277954,distr,56319.000005722046,Thu Feb 19 2026 16:16:05 GMT-0600 (Central Standard Time),835320.099999994,B,bo,O,o,844,1,3680.800000011921,831639.2999999821,7751,WL,A,1.0
6,4.013999938964844,distr,55986.000061035156,Thu Feb 19 2026 16:16:05 GMT-0600 (Central Standard Time),835653.5,B,bow,O,w,321,1,4014.2000000178814,831639.2999999821,7751,WL,A,1.0
6,4.332000017166138,distr,55667.99998283386,Thu Feb 19 2026 16:16:05 GMT-0600 (Central Standard Time),835972.0,B,bowl,O,l,297,1,4332.700000017881,831639.2999999821,7751,WL,A,1.0
6,5.3470001220703125,distr,54652.99987792969,Thu Feb 19 2026 16:16:05 GMT-0600 (Central Standard Time),836986.7999999821,B,bowlenter,O,enter,995,1,5347.5,831639.2999999821,7751,WL,A,1.0
6,5.746000051498413,distr,54253.99994850159,Thu Feb 19 2026 16:16:05 GMT-0600 (Central Standard Time),837386.0,B,p,O,p,393,1,398.90000000596046,836987.099999994,7751,WL,A,2.0
6,5.963000059127808,distr,54036.99994087219,Thu Feb 19 2026 16:16:05 GMT-0600 (Central Standard Time),837602.900000006,B,pl,O,l,207,1,615.8000000119209,836987.099999994,7751,WL,A,2.0
6,6.080000162124634,distr,53919.999837875366,Thu Feb 19 2026 16:16:05 GMT-0600 (Central Standard Time),837720.2999999821,B,pla,O,a,105,1,733.1999999880791,836987.099999994,7751,WL,A,2.0
6,6.17900013923645,distr,53820.99986076355,Thu Feb 19 2026 16:16:05 GMT-0600 (Central Standard Time),837819.400000006,B,plan,O,n,90,1,832.3000000119209,836987.099999994,7751,WL,A,2.0
6,6.513000011444092,distr,53486.99998855591,Thu Feb 19 2026 16:16:05 GMT-0600 (Central Standard Time),838152.7999999821,B,plane,O,e,324,1,1165.699999988079,836987.099999994,7751,WL,A,2.0
6,7.496999979019165,distr,52503.000020980835,Thu Feb 19 2026 16:16:05 GMT-0600 (Central Standard Time),839136.7999999821,B,planeenter,O,enter,978,1,2149.699999988079,836987.099999994,7751,WL,A,2.0
6,8.111999988555908,distr,51888.00001144409,Thu Feb 19 2026 16:16:05 GMT-0600 (Central Standard Time),839752.099999994,B,p,O,p,602,1,615.0,839137.099999994,7751,WL,A,3.0
6,8.230000019073486,distr,51769.999980926514,Thu Feb 19 2026 16:16:05 GMT-0600 (Central Standard Time),839869.599999994,B,pe,O,e,97,1,732.5,839137.099999994,7751,WL,A,3.0
6,8.394999980926514,distr,51605.000019073486,Thu Feb 19 2026 16:16:05 GMT-0600 (Central Standard Time),840035.2999999821,B,pea,O,a,149,1,898.1999999880791,839137.099999994,7751,WL,A,3.0
6,8.61300015449524,distr,51386.99984550476,Thu Feb 19 2026 16:16:05 GMT-0600 (Central Standard Time),840252.6999999881,B,peac,O,c,199,1,1115.5999999940395,839137.099999994,7751,WL,A,3.0
6,8.84500002861023,distr,51154.99997138977,Thu Feb 19 2026 16:16:05 GMT-0600 (Central Standard Time),840485.5,B,peach,O,h,212,1,1348.4000000059605,839137.099999994,7751,WL,A,3.0
6,9.795000076293945,distr,50204.999923706055,Thu Feb 19 2026 16:16:05 GMT-0600 (Central Standard Time),841435.2999999821,B,peachenter,O,enter,934,1,2298.199999988079,839137.099999994,7751,WL,A,3.0
6,10.228000164031982,distr,49771.99983596802,Thu Feb 19 2026 16:16:05 GMT-0600 (Central Standard Time),841868.400000006,B,f,O,f,424,1,432.90000000596046,841435.5,7751,WL,A,4.0
6,10.378000020980835,distr,49621.999979019165,Thu Feb 19 2026 16:16:05 GMT-0600 (Central Standard Time),842017.7999999821,B,fo,O,o,131,1,582.2999999821186,841435.5,7751,WL,A,4.0
6,10.545000076293945,distr,49454.999923706055,Thu Feb 19 2026 16:16:05 GMT-0600 (Central Standard Time),842185.2999999821,B,foo,O,o,160,1,749.7999999821186,841435.5,7751,WL,A,4.0
6,10.729000091552734,distr,49270.999908447266,Thu Feb 19 2026 16:16:05 GMT-0600 (Central Standard Time),842368.900000006,B,food,O,d,179,1,933.4000000059605,841435.5,7751,WL,A,4.0
6,11.562000036239624,distr,48437.999963760376,Thu Feb 19 2026 16:16:05 GMT-0600 (Central Standard Time),843201.900000006,B,foodenter,O,enter,826,1,1766.4000000059605,841435.5,7751,WL,A,4.0
6,12.57800006866455,distr,47421.99993133545,Thu Feb 19 2026 16:16:05 GMT-0600 (Central Standard Time),844218.099999994,B,d,O,d,1009,1,1015.9000000059605,843202.1999999881,7751,WL,A,5.0
6,12.74399995803833,distr,47256.00004196167,Thu Feb 19 2026 16:16:05 GMT-0600 (Central Standard Time),844383.900000006,B,da,O,a,151,1,1181.7000000178814,843202.1999999881,7751,WL,A,5.0
6,12.99399995803833,distr,47006.00004196167,Thu Feb 19 2026 16:16:05 GMT-0600 (Central Standard Time),844634.099999994,B,daw,O,w,234,1,1431.9000000059605,843202.1999999881,7751,WL,A,5.0
6,13.21500015258789,distr,46784.99984741211,Thu Feb 19 2026 16:16:05 GMT-0600 (Central Standard Time),844854.5,B,dawn,O,n,205,1,1652.300000011921,843202.1999999881,7751,WL,A,5.0
6,14.226999998092651,distr,45773.00000190735,Thu Feb 19 2026 16:16:05 GMT-0600 (Central Standard Time),845867.2999999821,B,dawnenter,O,enter,1004,1,2665.0999999940395,843202.1999999881,7751,WL,A,5.0
6,14.894000053405762,distr,45105.99994659424,Thu Feb 19 2026 16:16:05 GMT-0600 (Central Standard Time),846534.099999994,B,c,O,c,649,1,666.6999999880791,845867.400000006,7751,WL,A,6.0
6,15.011000156402588,distr,44988.99984359741,Thu Feb 19 2026 16:16:05 GMT-0600 (Central Standard Time),846651.400000006,B,co,O,o,110,1,784.0,845867.400000006,7751,WL,A,6.0
6,15.14300012588501,distr,44856.99987411499,Thu Feb 19 2026 16:16:05 GMT-0600 (Central Standard Time),846783.1999999881,B,coa,O,a,120,1,915.7999999821186,845867.400000006,7751,WL,A,6.0
6,15.39300012588501,distr,44606.99987411499,Thu Feb 19 2026 16:16:05 GMT-0600 (Central Standard Time),847033.5,B,coat,O,t,235,1,1166.0999999940395,845867.400000006,7751,WL,A,6.0
6,16.30999994277954,distr,43690.00005722046,Thu Feb 19 2026 16:16:05 GMT-0600 (Central Standard Time),847950.0,B,coatenter,O,enter,897,1,2082.5999999940395,845867.400000006,7751,WL,A,6.0
6,60.01200008392334,distr,-12.000083923339844,Thu Feb 19 2026 16:16:05 GMT-0600 (Central Standard Time),891652.099999994,B,None,O,None,43698,1,43701.90000000596,847950.1999999881,7751,WL,A,7.0
7,2.2150001525878906,immed,57784.99984741211,Thu Feb 19 2026 16:16:05 GMT-0600 (Central Standard Time),918027.400000006,A,t,O,t,2199,1,2214.600000023842,915812.7999999821,7751,WL,A,1.0
7,2.4150002002716064,immed,57584.99979972839,Thu Feb 19 2026 16:16:05 GMT-0600 (Central Standard Time),918227.1999999881,A,tr,O,r,191,1,2414.4000000059605,915812.7999999821,7751,WL,A,1.0
7,2.565000057220459,immed,57434.99994277954,Thu Feb 19 2026 16:16:05 GMT-0600 (Central Standard Time),918377.2999999821,A,tra,O,a,135,1,2564.5,915812.7999999821,7751,WL,A,1.0
7,2.7150001525878906,immed,57284.99984741211,Thu Feb 19 2026 16:16:05 GMT-0600 (Central Standard Time),918527.6999999881,A,trai,O,i,137,1,2714.9000000059605,915812.7999999821,7751,WL,A,1.0
7,2.865000009536743,immed,57134.99999046326,Thu Feb 19 2026 16:16:05 GMT-0600 (Central Standard Time),918677.400000006,A,train,O,n,137,1,2864.600000023842,915812.7999999821,7751,WL,A,1.0
7,4.081000089645386,immed,55918.999910354614,Thu Feb 19 2026 16:16:05 GMT-0600 (Central Standard Time),919893.6999999881,A,trainenter,O,enter,1204,1,4080.9000000059605,915812.7999999821,7751,WL,A,1.0
7,9.862000226974487,immed,50137.99977302551,Thu Feb 19 2026 16:16:05 GMT-0600 (Central Standard Time),925674.400000006,A,m,O,m,5774,1,5780.4000000059605,919894.0,7751,WL,A,2.0
7,9.996000051498413,immed,50003.99994850159,Thu Feb 19 2026 16:16:05 GMT-0600 (Central Standard Time),925808.5,A,me,O,e,112,1,5914.5,919894.0,7751,WL,A,2.0
7,10.09500002861023,immed,49904.99997138977,Thu Feb 19 2026 16:16:05 GMT-0600 (Central Standard Time),925907.599999994,A,mea,O,a,86,1,6013.5999999940395,919894.0,7751,WL,A,2.0
7,10.313000202178955,immed,49686.999797821045,Thu Feb 19 2026 16:16:05 GMT-0600 (Central Standard Time),926125.099999994,A,mead,O,d,208,1,6231.0999999940395,919894.0,7751,WL,A,2.0
7,10.496000051498413,immed,49503.99994850159,Thu Feb 19 2026 16:16:05 GMT-0600 (Central Standard Time),926308.400000006,A,meado,O,o,173,1,6414.4000000059605,919894.0,7751,WL,A,2.0
7,10.695000171661377,immed,49304.99982833862,Thu Feb 19 2026 16:16:05 GMT-0600 (Central Standard Time),926507.599999994,A,meadow,O,w,190,1,6613.5999999940395,919894.0,7751,WL,A,2.0
7,11.379000186920166,immed,48620.999813079834,Thu Feb 19 2026 16:16:05 GMT-0600 (Central Standard Time),927191.2999999821,A,meadowenter,O,enter,662,1,7297.299999982119,919894.0,7751,WL,A,2.0
7,13.829000234603882,immed,46170.99976539612,Thu Feb 19 2026 16:16:05 GMT-0600 (Central Standard Time),929641.400000006,A,l,O,l,2444,1,2449.800000011921,927191.599999994,7751,WL,A,3.0
7,14.044000148773193,immed,45955.99985122681,Thu Feb 19 2026 16:16:05 GMT-0600 (Central Standard Time),929856.900000006,A,lu,O,u,202,1,2665.300000011921,927191.599999994,7751,WL,A,3.0
7,14.36300015449524,immed,45636.99984550476,Thu Feb 19 2026 16:16:05 GMT-0600 (Central Standard Time),930175.7999999821,A,lut,O,t,295,1,2984.199999988079,927191.599999994,7751,WL,A,3.0
7,14.562000036239624,immed,45437.999963760376,Thu Feb 19 2026 16:16:05 GMT-0600 (Central Standard Time),930374.599999994,A,lute,O,e,179,1,3183.0,927191.599999994,7751,WL,A,3.0
7,15.545000076293945,immed,44454.999923706055,Thu Feb 19 2026 16:16:05 GMT-0600 (Central Standard Time),931357.099999994,A,luteenter,O,enter,970,1,4165.5,927191.599999994,7751,WL,A,3.0
7,18.14400005340576,immed,41855.99994659424,Thu Feb 19 2026 16:16:05 GMT-0600 (Central Standard Time),933956.599999994,A,b,O,b,2588,1,2599.300000011921,931357.2999999821,7751,WL,A,4.0
7,18.39300012588501,immed,41606.99987411499,Thu Feb 19 2026 16:16:05 GMT-0600 (Central Standard Time),934205.6999999881,A,bo,O,o,230,1,2848.4000000059605,931357.2999999821,7751,WL,A,4.0
7,18.54300022125244,immed,41456.99977874756,Thu Feb 19 2026 16:16:05 GMT-0600 (Central Standard Time),934355.6999999881,A,boo,O,o,142,1,2998.4000000059605,931357.2999999821,7751,WL,A,4.0
7,18.76200008392334,immed,41237.99991607666,Thu Feb 19 2026 16:16:05 GMT-0600 (Central Standard Time),934574.400000006,A,book,O,k,208,1,3217.100000023842,931357.2999999821,7751,WL,A,4.0
7,19.55900001525879,immed,40440.99998474121,Thu Feb 19 2026 16:16:05 GMT-0600 (Central Standard Time),935371.5,A,bookenter,O,enter,781,1,4014.2000000178814,931357.2999999821,7751,WL,A,4.0
7,22.908000230789185,immed,37091.999769210815,Thu Feb 19 2026 16:16:05 GMT-0600 (Central Standard Time),938720.6999999881,A,f,O,f,3344,1,3348.9000000059605,935371.7999999821,7751,WL,A,5.0
7,23.008000135421753,immed,36991.99986457825,Thu Feb 19 2026 16:16:05 GMT-0600 (Central Standard Time),938820.6999999881,A,fi,O,i,91,1,3448.9000000059605,935371.7999999821,7751,WL,A,5.0
7,23.142000198364258,immed,36857.99980163574,Thu Feb 19 2026 16:16:05 GMT-0600 (Central Standard Time),938954.900000006,A,fin,O,n,118,1,3583.100000023842,935371.7999999821,7751,WL,A,5.0
7,23.474000215530396,immed,36525.999784469604,Thu Feb 19 2026 16:16:05 GMT-0600 (Central Standard Time),939286.6999999881,A,find,O,d,311,1,3914.9000000059605,935371.7999999821,7751,WL,A,5.0
7,23.926000118255615,immed,36073.999881744385,Thu Feb 19 2026 16:16:05 GMT-0600 (Central Standard Time),939738.5,A,fin,O,backspace,443,1,4366.700000017881,935371.7999999821,7751,WL,A,5.0
7,24.142000198364258,immed,35857.99980163574,Thu Feb 19 2026 16:16:05 GMT-0600 (Central Standard Time),939954.5,A,fing,O,g,208,1,4582.700000017881,935371.7999999821,7751,WL,A,5.0
7,24.326000213623047,immed,35673.99978637695,Thu Feb 19 2026 16:16:05 GMT-0600 (Central Standard Time),940138.400000006,A,finge,O,e,175,1,4766.600000023842,935371.7999999821,7751,WL,A,5.0
7,24.44000005722046,immed,35559.99994277954,Thu Feb 19 2026 16:16:05 GMT-0600 (Central Standard Time),940252.900000006,A,finger,O,r,104,1,4881.100000023842,935371.7999999821,7751,WL,A,5.0
7,25.110000133514404,immed,34889.999866485596,Thu Feb 19 2026 16:16:05 GMT-0600 (Central Standard Time),940922.2999999821,A,fingerenter,O,enter,646,1,5550.5,935371.7999999821,7751,WL,A,5.0
7,25.507000207901,immed,34492.999792099,Thu Feb 19 2026 16:16:05 GMT-0600 (Central Standard Time),941319.6999999881,A,s,O,s,385,1,397.09999999403954,940922.599999994,7751,WL,A,6.0
7,25.69100022315979,immed,34308.99977684021,Thu Feb 19 2026 16:16:05 GMT-0600 (Central Standard Time),941503.6999999881,A,sa,O,a,161,1,581.0999999940395,940922.599999994,7751,WL,A,6.0
7,25.824000120162964,immed,34175.999879837036,Thu Feb 19 2026 16:16:05 GMT-0600 (Central Standard Time),941636.900000006,A,sal,O,l,114,1,714.3000000119209,940922.599999994,7751,WL,A,6.0
7,26.324000120162964,immed,33675.999879837036,Thu Feb 19 2026 16:16:05 GMT-0600 (Central Standard Time),942136.2999999821,A,salt,O,t,493,1,1213.699999988079,940922.599999994,7751,WL,A,6.0
7,26.993000030517578,immed,33006.99996948242,Thu Feb 19 2026 16:16:05 GMT-0600 (Central Standard Time),942805.900000006,A,saltenter,O,enter,658,1,1883.300000011921,940922.599999994,7751,WL,A,6.0
7,27.324000120162964,immed,32675.999879837036,Thu Feb 19 2026 16:16:05 GMT-0600 (Central Standard Time),943136.1999999881,A,a,O,a,325,1,330.0,942806.1999999881,7751,WL,A,7.0
7,27.52300000190735,immed,32476.99999809265,Thu Feb 19 2026 16:16:05 GMT-0600 (Central Standard Time),943335.7999999821,A,ap,O,p,178,1,529.5999999940395,942806.1999999881,7751,WL,A,7.0
7,27.69100022315979,immed,32308.99977684021,Thu Feb 19 2026 16:16:05 GMT-0600 (Central Standard Time),943503.099999994,A,app,O,p,146,1,696.9000000059605,942806.1999999881,7751,WL,A,7.0
7,27.890000104904175,immed,32109.999895095825,Thu Feb 19 2026 16:16:05 GMT-0600 (Central Standard Time),943703.0,A,appl,O,l,179,1,896.8000000119209,942806.1999999881,7751,WL,A,7.0
7,28.09000015258789,immed,31909.99984741211,Thu Feb 19 2026 16:16:05 GMT-0600 (Central Standard Time),943902.1999999881,A,apple,O,e,188,1,1096.0,942806.1999999881,7751,WL,A,7.0
7,28.891000032424927,immed,31108.999967575073,Thu Feb 19 2026 16:16:05 GMT-0600 (Central Standard Time),944703.099999994,A,appleenter,O,enter,779,1,1896.9000000059605,942806.1999999881,7751,WL,A,7.0
7,29.4060001373291,immed,30593.9998626709,Thu Feb 19 2026 16:16:05 GMT-0600 (Central Standard Time),945218.5,A,b,O,b,500,1,515.2000000178814,944703.2999999821,7751,WL,A,8.0
7,29.54100012779236,immed,30458.99987220764,Thu Feb 19 2026 16:16:05 GMT-0600 (Central Standard Time),945353.1999999881,A,bu,O,u,119,1,649.9000000059605,944703.2999999821,7751,WL,A,8.0
7,29.70800018310547,immed,30291.99981689453,Thu Feb 19 2026 16:16:05 GMT-0600 (Central Standard Time),945520.099999994,A,but,O,t,157,1,816.8000000119209,944703.2999999821,7751,WL,A,8.0
7,29.9060001373291,immed,30093.9998626709,Thu Feb 19 2026 16:16:05 GMT-0600 (Central Standard Time),945718.7999999821,A,butt,O,t,180,1,1015.5,944703.2999999821,7751,WL,A,8.0
7,30.007000207901,immed,29992.999792099,Thu Feb 19 2026 16:16:05 GMT-0600 (Central Standard Time),945819.5,A,butto,O,o,81,1,1116.2000000178814,944703.2999999821,7751,WL,A,8.0
7,30.1560001373291,immed,29843.9998626709,Thu Feb 19 2026 16:16:05 GMT-0600 (Central Standard Time),945969.0,A,button,O,n,126,1,1265.7000000178814,944703.2999999821,7751,WL,A,8.0
7,31.123000144958496,immed,28876.999855041504,Thu Feb 19 2026 16:16:05 GMT-0600 (Central Standard Time),946935.5,A,buttonenter,O,enter,944,1,2232.2000000178814,944703.2999999821,7751,WL,A,8.0
7,32.873000144958496,immed,27126.999855041504,Thu Feb 19 2026 16:16:05 GMT-0600 (Central Standard Time),948685.099999994,A,r,O,r,1731,1,1749.4000000059605,946935.6999999881,7751,WL,A,9.0
7,33.0220000743866,immed,26977.999925613403,Thu Feb 19 2026 16:16:05 GMT-0600 (Central Standard Time),948834.1999999881,A,ra,O,a,141,1,1898.5,946935.6999999881,7751,WL,A,9.0
7,33.25500011444092,immed,26744.999885559082,Thu Feb 19 2026 16:16:05 GMT-0600 (Central Standard Time),949067.6999999881,A,rat,O,t,216,1,2132.0,946935.6999999881,7751,WL,A,9.0
7,33.39100003242493,immed,26608.999967575073,Thu Feb 19 2026 16:16:05 GMT-0600 (Central Standard Time),949203.6999999881,A,ratt,O,t,130,1,2268.0,946935.6999999881,7751,WL,A,9.0
7,33.5550000667572,immed,26444.999933242798,Thu Feb 19 2026 16:16:05 GMT-0600 (Central Standard Time),949367.7999999821,A,rattl,O,l,159,1,2432.0999999940395,946935.6999999881,7751,WL,A,9.0
7,33.72100019454956,immed,26278.99980545044,Thu Feb 19 2026 16:16:05 GMT-0600 (Central Standard Time),949533.599999994,A,rattle,O,e,142,1,2597.9000000059605,946935.6999999881,7751,WL,A,9.0
7,34.254000186920166,immed,25745.999813079834,Thu Feb 19 2026 16:16:05 GMT-0600 (Central Standard Time),950066.400000006,A,rattleenter,O,enter,523,1,3130.7000000178814,946935.6999999881,7751,WL,A,9.0
7,34.754000186920166,immed,25245.999813079834,Thu Feb 19 2026 16:16:05 GMT-0600 (Central Standard Time),950566.900000006,A,l,O,l,480,1,500.2000000178814,950066.6999999881,7751,WL,A,10.0
7,34.937000036239624,immed,25062.999963760376,Thu Feb 19 2026 16:16:05 GMT-0600 (Central Standard Time),950749.2999999821,A,lo,O,o,173,1,682.5999999940395,950066.6999999881,7751,WL,A,10.0
7,35.14100003242493,immed,24858.999967575073,Thu Feb 19 2026 16:16:05 GMT-0600 (Central Standard Time),950954.099999994,A,log,O,g,198,1,887.4000000059605,950066.6999999881,7751,WL,A,10.0
7,36.0220000743866,immed,23977.999925613403,Thu Feb 19 2026 16:16:05 GMT-0600 (Central Standard Time),951834.7999999821,A,logenter,O,enter,873,1,1768.0999999940395,950066.6999999881,7751,WL,A,10.0
7,40.8030002117157,immed,19196.9997882843,Thu Feb 19 2026 16:16:05 GMT-0600 (Central Standard Time),956616.099999994,A,k,O,k,4760,1,4781.0999999940395,951835.0,7751,WL,A,11.0
7,40.95100021362305,immed,19048.999786376953,Thu Feb 19 2026 16:16:05 GMT-0600 (Central Standard Time),956764.599999994,A,ke,O,e,138,1,4929.5999999940395,951835.0,7751,WL,A,11.0
7,41.11800003051758,immed,18881.999969482422,Thu Feb 19 2026 16:16:05 GMT-0600 (Central Standard Time),956931.5,A,key,O,y,148,1,5096.5,951835.0,7751,WL,A,11.0
7,42.0,immed,18000.0,Thu Feb 19 2026 16:16:05 GMT-0600 (Central Standard Time),957813.599999994,A,keyenter,O,enter,859,1,5978.5999999940395,951835.0,7751,WL,A,11.0
7,43.885000228881836,immed,16114.999771118164,Thu Feb 19 2026 16:16:05 GMT-0600 (Central Standard Time),959698.5,A,g,O,g,1870,1,1884.7000000178814,957813.7999999821,7751,WL,A,12.0
7,43.968000173568726,immed,16031.999826431274,Thu Feb 19 2026 16:16:05 GMT-0600 (Central Standard Time),959781.099999994,A,go,O,o,63,1,1967.300000011921,957813.7999999821,7751,WL,A,12.0
7,44.135000228881836,immed,15864.999771118164,Thu Feb 19 2026 16:16:05 GMT-0600 (Central Standard Time),959948.0,A,gol,O,l,150,1,2134.2000000178814,957813.7999999821,7751,WL,A,12.0
7,44.30000019073486,immed,15699.999809265137,Thu Feb 19 2026 16:16:05 GMT-0600 (Central Standard Time),960113.5,A,gold,O,d,152,1,2299.7000000178814,957813.7999999821,7751,WL,A,12.0
7,44.91600012779236,immed,15083.999872207642,Thu Feb 19 2026 16:16:05 GMT-0600 (Central Standard Time),960729.0,A,goldenter,O,enter,601,1,2915.2000000178814,957813.7999999821,7751,WL,A,12.0
7,47.218000173568726,immed,12781.999826431274,Thu Feb 19 2026 16:16:05 GMT-0600 (Central Standard Time),963030.7999999821,A,c,O,c,2283,1,2301.699999988079,960729.099999994,7751,WL,A,13.0
7,47.33200001716614,immed,12667.999982833862,Thu Feb 19 2026 16:16:05 GMT-0600 (Central Standard Time),963145.6999999881,A,ch,O,h,103,1,2416.5999999940395,960729.099999994,7751,WL,A,13.0
7,47.46600008010864,immed,12533.999919891357,Thu Feb 19 2026 16:16:05 GMT-0600 (Central Standard Time),963279.6999999881,A,chi,O,i,119,1,2550.5999999940395,960729.099999994,7751,WL,A,13.0
7,47.6010000705719,immed,12398.9999294281,Thu Feb 19 2026 16:16:05 GMT-0600 (Central Standard Time),963413.7999999821,A,chim,O,m,120,1,2684.699999988079,960729.099999994,7751,WL,A,13.0
7,48.18400001525879,immed,11815.999984741211,Thu Feb 19 2026 16:16:05 GMT-0600 (Central Standard Time),963997.6999999881,A,chimn,O,n,577,1,3268.5999999940395,960729.099999994,7751,WL,A,13.0
7,48.49900007247925,immed,11500.999927520752,Thu Feb 19 2026 16:16:05 GMT-0600 (Central Standard Time),964312.0,A,chimne,O,e,310,1,3582.9000000059605,960729.099999994,7751,WL,A,13.0
7,48.66900014877319,immed,11330.999851226807,Thu Feb 19 2026 16:16:05 GMT-0600 (Central Standard Time),964481.900000006,A,chimney,O,y,144,1,3752.800000011921,960729.099999994,7751,WL,A,13.0
7,49.616000175476074,immed,10383.999824523926,Thu Feb 19 2026 16:16:05 GMT-0600 (Central Standard Time),965428.7999999821,A,chimneyenter,O,enter,937,1,4699.699999988079,960729.099999994,7751,WL,A,13.0
7,52.51600003242493,immed,7483.999967575073,Thu Feb 19 2026 16:16:05 GMT-0600 (Central Standard Time),968329.400000006,A,f,O,f,2894,1,2900.4000000059605,965429.0,7751,WL,A,14.0
7,52.634000062942505,immed,7365.999937057495,Thu Feb 19 2026 16:16:05 GMT-0600 (Central Standard Time),968447.099999994,A,fl,O,l,106,1,3018.0999999940395,965429.0,7751,WL,A,14.0
7,52.83200001716614,immed,7167.999982833862,Thu Feb 19 2026 16:16:05 GMT-0600 (Central Standard Time),968644.900000006,A,flo,O,o,179,1,3215.9000000059605,965429.0,7751,WL,A,14.0
7,52.98100018501282,immed,7018.999814987183,Thu Feb 19 2026 16:16:05 GMT-0600 (Central Standard Time),968794.2999999821,A,flow,O,w,133,1,3365.2999999821186,965429.0,7751,WL,A,14.0
7,53.098000049591064,immed,6901.999950408936,Thu Feb 19 2026 16:16:05 GMT-0600 (Central Standard Time),968911.1999999881,A,flowe,O,e,98,1,3482.199999988079,965429.0,7751,WL,A,14.0
7,53.199000120162964,immed,6800.999879837036,Thu Feb 19 2026 16:16:05 GMT-0600 (Central Standard Time),969012.5,A,flower,O,r,90,1,3583.5,965429.0,7751,WL,A,14.0
7,54.04800009727478,immed,5951.99990272522,Thu Feb 19 2026 16:16:05 GMT-0600 (Central Standard Time),969861.2999999821,A,flowerenter,O,enter,831,1,4432.299999982119,965429.0,7751,WL,A,14.0
7,60.01200008392334,immed,-12.000083923339844,Thu Feb 19 2026 16:16:05 GMT-0600 (Central Standard Time),975825.6999999881,A,None,O,None,5959,1,5964.0999999940395,969861.599999994,7751,WL,A,15.0
