Number,acc_sum,block,block_c,block_cond,con_img,correct,correct_response,datetime,endtime,jitter,project,response,response_time,row_sel,session_number,start_end,starttime,subject_id,task,task_vers,trial
3,1,prac,1,A,circle.png,1,z,Fri Jul 18 2025 11:19:02 GMT-0500 (Central Daylight Time),92564.5,1200,O,z,964,3,1,2946.0,89618.5,7176,NTS,A,1
2,2,prac,1,A,circle.png,1,z,Fri Jul 18 2025 11:19:02 GMT-0500 (Central Daylight Time),96244.39999999851,2000,O,z,886,2,1,3672.60000000149,92571.79999999702,7176,NTS,A,2
2,3,prac,1,A,circle.png,1,z,Fri Jul 18 2025 11:19:02 GMT-0500 (Central Daylight Time),99876.60000000149,2000,O,z,845,2,1,3627.3000000044703,96249.29999999702,7176,NTS,A,3
6,4,prac,1,A,circle.png,1,m,Fri Jul 18 2025 11:19:02 GMT-0500 (Central Daylight Time),103375.5,1900,O,m,809,5,1,3493.39999999851,99882.10000000149,7176,NTS,A,4
4,5,prac,1,A,circle.png,1,z,Fri Jul 18 2025 11:19:02 GMT-0500 (Central Daylight Time),106641.29999999702,1400,O,z,1072,4,1,3260.39999999851,103380.89999999851,7176,NTS,A,5
1,6,prac,1,A,circle.png,1,z,Fri Jul 18 2025 11:19:02 GMT-0500 (Central Daylight Time),109790.29999999702,1000,O,z,1352,1,1,3144.0,106646.29999999702,7176,NTS,A,6
1,7,prac,1,A,circle.png,1,z,Fri Jul 18 2025 11:19:02 GMT-0500 (Central Daylight Time),112356.0,1000,O,z,779,1,1,2560.89999999851,109795.10000000149,7176,NTS,A,7
4,8,prac,1,A,circle.png,1,z,Fri Jul 18 2025 11:19:02 GMT-0500 (Central Daylight Time),115488.39999999851,1400,O,z,933,4,1,3127.2999999970198,112361.10000000149,7176,NTS,A,8
6,9,prac,1,A,circle.png,1,m,Fri Jul 18 2025 11:19:02 GMT-0500 (Central Daylight Time),119003.60000000149,1900,O,m,821,5,1,3509.60000000149,115494.0,7176,NTS,A,9
8,10,prac,1,A,circle.png,1,m,Fri Jul 18 2025 11:19:02 GMT-0500 (Central Daylight Time),122436.10000000149,1600,O,m,1045,7,1,3426.8000000044703,119009.29999999702,7176,NTS,A,10
7,11,prac,1,A,circle.png,1,m,Fri Jul 18 2025 11:19:02 GMT-0500 (Central Daylight Time),125685.0,1700,O,m,761,6,1,3243.2999999970198,122441.70000000298,7176,NTS,A,11
9,12,prac,1,A,circle.png,1,m,Fri Jul 18 2025 11:19:02 GMT-0500 (Central Daylight Time),128717.5,1500,O,m,744,8,1,3027.7999999970198,125689.70000000298,7176,NTS,A,12
9,0,prac,1,B,triangle.png,0,z,Fri Jul 18 2025 11:19:02 GMT-0500 (Central Daylight Time),178368.3999999985,1400,O,None,1516,8,1,3694.5,174673.8999999985,7176,NTS,A,1
3,1,prac,1,B,triangle.png,1,z,Fri Jul 18 2025 11:19:02 GMT-0500 (Central Daylight Time),181434.3999999985,1600,O,z,673,3,1,3060.0,178374.3999999985,7176,NTS,A,2
7,2,prac,1,B,triangle.png,1,z,Fri Jul 18 2025 11:19:02 GMT-0500 (Central Daylight Time),185532.8999999985,2000,O,z,1303,6,1,4093.60000000149,181439.29999999702,7176,NTS,A,3
6,3,prac,1,B,triangle.png,1,m,Fri Jul 18 2025 11:19:02 GMT-0500 (Central Daylight Time),188415.5,1000,O,m,1084,5,1,2876.7999999970198,185538.70000000298,7176,NTS,A,4
4,4,prac,1,B,triangle.png,1,m,Fri Jul 18 2025 11:19:02 GMT-0500 (Central Daylight Time),191681.1000000015,1500,O,m,974,4,1,3260.39999999851,188420.70000000298,7176,NTS,A,5
2,5,prac,1,B,triangle.png,1,m,Fri Jul 18 2025 11:19:02 GMT-0500 (Central Daylight Time),194963.20000000298,1700,O,m,796,2,1,3277.0,191686.20000000298,7176,NTS,A,6
6,6,prac,1,B,triangle.png,1,m,Fri Jul 18 2025 11:19:02 GMT-0500 (Central Daylight Time),197545.79999999702,1000,O,m,790,5,1,2577.5999999940395,194968.20000000298,7176,NTS,A,7
2,7,prac,1,B,triangle.png,1,m,Fri Jul 18 2025 11:19:02 GMT-0500 (Central Daylight Time),201261.29999999702,1700,O,m,1219,2,1,3710.5,197550.79999999702,7176,NTS,A,8
3,8,prac,1,B,triangle.png,1,z,Fri Jul 18 2025 11:19:02 GMT-0500 (Central Daylight Time),204577.0,1600,O,z,916,3,1,3310.60000000149,201266.3999999985,7176,NTS,A,9
1,9,prac,1,B,triangle.png,1,z,Fri Jul 18 2025 11:19:02 GMT-0500 (Central Daylight Time),208225.79999999702,1900,O,z,964,1,1,3644.0,204581.79999999702,7176,NTS,A,10
1,10,prac,1,B,triangle.png,1,z,Fri Jul 18 2025 11:19:02 GMT-0500 (Central Daylight Time),211841.1000000015,1900,O,z,932,1,1,3610.39999999851,208230.70000000298,7176,NTS,A,11
8,11,prac,1,B,triangle.png,1,m,Fri Jul 18 2025 11:19:02 GMT-0500 (Central Daylight Time),214890.3999999985,1200,O,m,1056,7,1,3044.39999999851,211846.0,7176,NTS,A,12
8,1,test,1,A,circle.png,1,m,Fri Jul 18 2025 11:19:02 GMT-0500 (Central Daylight Time),240348.79999999702,1600,O,m,879,7,1,2494.6999999955297,237854.1000000015,7176,NTS,A,1
4,1,test,1,A,circle.png,0,z,Fri Jul 18 2025 11:19:02 GMT-0500 (Central Daylight Time),243231.5,1400,O,m,1452,4,1,2878.5,240353.0,7176,NTS,A,2
9,2,test,1,A,circle.png,1,m,Fri Jul 18 2025 11:19:02 GMT-0500 (Central Daylight Time),245697.20000000298,1500,O,m,933,8,1,2462.3000000044703,243234.8999999985,7176,NTS,A,3
8,3,test,1,A,circle.png,1,m,Fri Jul 18 2025 11:19:02 GMT-0500 (Central Daylight Time),248279.79999999702,1600,O,m,952,7,1,2579.0,245700.79999999702,7176,NTS,A,4
3,4,test,1,A,circle.png,1,z,Fri Jul 18 2025 11:19:02 GMT-0500 (Central Daylight Time),250528.79999999702,1200,O,z,1017,3,1,2245.2999999970198,248283.5,7176,NTS,A,5
1,5,test,1,A,circle.png,1,z,Fri Jul 18 2025 11:19:02 GMT-0500 (Central Daylight Time),252262.0,1000,O,z,712,1,1,1729.3999999985099,250532.6000000015,7176,NTS,A,6
4,6,test,1,A,circle.png,1,z,Fri Jul 18 2025 11:19:02 GMT-0500 (Central Daylight Time),254527.8999999985,1400,O,z,835,4,1,2262.5,252265.3999999985,7176,NTS,A,7
7,7,test,1,A,circle.png,1,m,Fri Jul 18 2025 11:19:02 GMT-0500 (Central Daylight Time),257010.5,1700,O,m,757,6,1,2478.89999999851,254531.6000000015,7176,NTS,A,8
2,8,test,1,A,circle.png,1,z,Fri Jul 18 2025 11:19:02 GMT-0500 (Central Daylight Time),259742.8999999985,2000,O,z,710,2,1,2729.10000000149,257013.79999999702,7176,NTS,A,9
2,9,test,1,A,circle.png,1,z,Fri Jul 18 2025 11:19:02 GMT-0500 (Central Daylight Time),262892.1000000015,2000,O,z,1122,2,1,3145.60000000149,259746.5,7176,NTS,A,10
2,10,test,1,A,circle.png,1,z,Fri Jul 18 2025 11:19:02 GMT-0500 (Central Daylight Time),265824.200000003,2000,O,z,901,2,1,2928.4000000059605,262895.799999997,7176,NTS,A,11
8,11,test,1,A,circle.png,1,m,Fri Jul 18 2025 11:19:02 GMT-0500 (Central Daylight Time),268257.0,1600,O,m,800,7,1,2428.7000000029802,265828.299999997,7176,NTS,A,12
6,12,test,1,A,circle.png,1,m,Fri Jul 18 2025 11:19:02 GMT-0500 (Central Daylight Time),271156.1000000015,1900,O,m,972,5,1,2895.60000000149,268260.5,7176,NTS,A,13
6,13,test,1,A,circle.png,1,m,Fri Jul 18 2025 11:19:02 GMT-0500 (Central Daylight Time),273771.8999999985,1900,O,m,697,5,1,2612.1999999955297,271159.700000003,7176,NTS,A,14
1,14,test,1,A,circle.png,1,z,Fri Jul 18 2025 11:19:02 GMT-0500 (Central Daylight Time),275704.3999999985,1000,O,z,909,1,1,1928.6000000014901,273775.799999997,7176,NTS,A,15
7,15,test,1,A,circle.png,1,m,Fri Jul 18 2025 11:19:02 GMT-0500 (Central Daylight Time),278170.6000000015,1700,O,m,740,6,1,2462.3000000044703,275708.299999997,7176,NTS,A,16
1,16,test,1,A,circle.png,1,z,Fri Jul 18 2025 11:19:02 GMT-0500 (Central Daylight Time),280420.0,1000,O,z,1222,1,1,2246.10000000149,278173.8999999985,7176,NTS,A,17
9,17,test,1,A,circle.png,1,m,Fri Jul 18 2025 11:19:02 GMT-0500 (Central Daylight Time),282702.200000003,1500,O,m,761,8,1,2278.8000000044703,280423.3999999985,7176,NTS,A,18
4,18,test,1,A,circle.png,1,z,Fri Jul 18 2025 11:19:02 GMT-0500 (Central Daylight Time),284951.700000003,1400,O,z,818,4,1,2246.2000000029802,282705.5,7176,NTS,A,19
3,19,test,1,A,circle.png,1,z,Fri Jul 18 2025 11:19:02 GMT-0500 (Central Daylight Time),287401.0,1200,O,z,1218,3,1,2445.7000000029802,284955.299999997,7176,NTS,A,20
2,20,test,1,A,circle.png,1,z,Fri Jul 18 2025 11:19:02 GMT-0500 (Central Daylight Time),290300.0,2000,O,z,880,2,1,2895.5,287404.5,7176,NTS,A,21
9,21,test,1,A,circle.png,1,m,Fri Jul 18 2025 11:19:02 GMT-0500 (Central Daylight Time),292582.6000000015,1500,O,m,761,8,1,2279.0,290303.6000000015,7176,NTS,A,22
1,22,test,1,A,circle.png,1,z,Fri Jul 18 2025 11:19:02 GMT-0500 (Central Daylight Time),294682.1000000015,1000,O,z,1074,1,1,2096.0,292586.1000000015,7176,NTS,A,23
7,23,test,1,A,circle.png,1,m,Fri Jul 18 2025 11:19:02 GMT-0500 (Central Daylight Time),297697.6000000015,1700,O,m,1291,6,1,3012.10000000149,294685.5,7176,NTS,A,24
9,1,test,1,B,triangle.png,1,z,Fri Jul 18 2025 11:19:02 GMT-0500 (Central Daylight Time),319724.1000000015,1400,O,z,981,8,1,2396.3000000044703,317327.799999997,7176,NTS,A,1
4,2,test,1,B,triangle.png,1,m,Fri Jul 18 2025 11:19:02 GMT-0500 (Central Daylight Time),322123.299999997,1500,O,m,873,4,1,2394.5999999940395,319728.700000003,7176,NTS,A,2
6,3,test,1,B,triangle.png,1,m,Fri Jul 18 2025 11:19:02 GMT-0500 (Central Daylight Time),323806.3999999985,1000,O,m,654,5,1,1679.5,322126.8999999985,7176,NTS,A,3
3,4,test,1,B,triangle.png,1,z,Fri Jul 18 2025 11:19:02 GMT-0500 (Central Daylight Time),326738.3999999985,2000,O,z,899,11,1,2928.2999999970198,323810.1000000015,7176,NTS,A,4
4,5,test,1,B,triangle.png,1,m,Fri Jul 18 2025 11:19:02 GMT-0500 (Central Daylight Time),328671.200000003,1000,O,m,903,12,1,1929.2000000029802,326742.0,7176,NTS,A,5
2,5,test,1,B,triangle.png,0,m,Fri Jul 18 2025 11:19:02 GMT-0500 (Central Daylight Time),330504.0,1200,O,z,610,10,1,1829.3999999985099,328674.6000000015,7176,NTS,A,6
8,6,test,1,B,triangle.png,1,m,Fri Jul 18 2025 11:19:02 GMT-0500 (Central Daylight Time),332386.8999999985,1200,O,m,657,7,1,1879.3999999985099,330507.5,7176,NTS,A,7
6,7,test,1,B,triangle.png,1,m,Fri Jul 18 2025 11:19:02 GMT-0500 (Central Daylight Time),334536.1000000015,1500,O,m,619,13,1,2145.39999999851,332390.700000003,7176,NTS,A,8
6,8,test,1,B,triangle.png,1,m,Fri Jul 18 2025 11:19:02 GMT-0500 (Central Daylight Time),336635.1000000015,1500,O,m,581,13,1,2095.3000000044703,334539.799999997,7176,NTS,A,9
7,9,test,1,B,triangle.png,1,z,Fri Jul 18 2025 11:19:02 GMT-0500 (Central Daylight Time),339101.5,1600,O,z,846,14,1,2462.7000000029802,336638.799999997,7176,NTS,A,10
1,10,test,1,B,triangle.png,1,z,Fri Jul 18 2025 11:19:02 GMT-0500 (Central Daylight Time),341868.200000003,1900,O,z,848,1,1,2763.2000000029802,339105.0,7176,NTS,A,11
4,11,test,1,B,triangle.png,1,m,Fri Jul 18 2025 11:19:02 GMT-0500 (Central Daylight Time),344266.299999997,1500,O,m,866,4,1,2394.0,341872.299999997,7176,NTS,A,12
2,12,test,1,B,triangle.png,1,m,Fri Jul 18 2025 11:19:02 GMT-0500 (Central Daylight Time),346865.700000003,1700,O,m,867,2,1,2595.8000000044703,344269.8999999985,7176,NTS,A,13
8,13,test,1,B,triangle.png,1,m,Fri Jul 18 2025 11:19:02 GMT-0500 (Central Daylight Time),348898.5,1200,O,m,799,7,1,2029.5,346869.0,7176,NTS,A,14
8,14,test,1,B,triangle.png,1,m,Fri Jul 18 2025 11:19:02 GMT-0500 (Central Daylight Time),351364.0,1700,O,m,747,15,1,2462.0,348902.0,7176,NTS,A,15
3,15,test,1,B,triangle.png,1,z,Fri Jul 18 2025 11:19:02 GMT-0500 (Central Daylight Time),353746.6000000015,1600,O,z,757,3,1,2378.89999999851,351367.700000003,7176,NTS,A,16
2,16,test,1,B,triangle.png,1,m,Fri Jul 18 2025 11:19:02 GMT-0500 (Central Daylight Time),356346.1000000015,1700,O,m,882,2,1,2595.60000000149,353750.5,7176,NTS,A,17
6,17,test,1,B,triangle.png,1,m,Fri Jul 18 2025 11:19:02 GMT-0500 (Central Daylight Time),358495.299999997,1000,O,m,1119,5,1,2146.0,356349.299999997,7176,NTS,A,18
9,18,test,1,B,triangle.png,1,z,Fri Jul 18 2025 11:19:02 GMT-0500 (Central Daylight Time),361445.3999999985,1900,O,z,1022,16,1,2946.39999999851,358499.0,7176,NTS,A,19
8,19,test,1,B,triangle.png,1,m,Fri Jul 18 2025 11:19:02 GMT-0500 (Central Daylight Time),363927.0,1700,O,m,753,15,1,2477.7999999970198,361449.200000003,7176,NTS,A,20
1,20,test,1,B,triangle.png,1,z,Fri Jul 18 2025 11:19:02 GMT-0500 (Central Daylight Time),366142.799999997,1400,O,z,794,9,1,2211.6999999955297,363931.1000000015,7176,NTS,A,21
9,20,test,1,B,triangle.png,0,z,Fri Jul 18 2025 11:19:02 GMT-0500 (Central Daylight Time),369491.700000003,1900,O,m,1430,16,1,3345.3000000044703,366146.3999999985,7176,NTS,A,22
7,21,test,1,B,triangle.png,1,z,Fri Jul 18 2025 11:19:02 GMT-0500 (Central Daylight Time),372424.200000003,1600,O,z,1310,14,1,2928.9000000059605,369495.299999997,7176,NTS,A,23
7,22,test,1,B,triangle.png,1,z,Fri Jul 18 2025 11:19:02 GMT-0500 (Central Daylight Time),375606.299999997,2000,O,z,1161,6,1,3178.5999999940395,372427.700000003,7176,NTS,A,24
6,0,prac,1,C,circle.png,0,m,Fri Jul 18 2025 11:19:02 GMT-0500 (Central Daylight Time),428006.700000003,2000,O,None,1515,5,1,4293.9000000059605,423712.799999997,7176,NTS,A,1
4,0,prac,1,C,circle.png,0,z,Fri Jul 18 2025 11:19:02 GMT-0500 (Central Daylight Time),430839.1000000015,1000,O,m,1042,4,1,2826.39999999851,428012.700000003,7176,NTS,A,2
3,0,prac,1,C,triangle.png,0,z,Fri Jul 18 2025 11:19:02 GMT-0500 (Central Daylight Time),434638.200000003,1500,O,None,1515,3,1,3794.4000000059605,430843.799999997,7176,NTS,A,3
9,0,prac,1,C,circle.png,0,m,Fri Jul 18 2025 11:19:02 GMT-0500 (Central Daylight Time),438836.700000003,1900,O,None,1515,8,1,4193.9000000059605,434642.799999997,7176,NTS,A,4
9,0,prac,1,C,circle.png,0,m,Fri Jul 18 2025 11:19:02 GMT-0500 (Central Daylight Time),443035.799999997,1900,O,None,1516,8,1,4194.39999999851,438841.3999999985,7176,NTS,A,5
1,0,prac,1,C,circle.png,0,z,Fri Jul 18 2025 11:19:02 GMT-0500 (Central Daylight Time),447034.200000003,1700,O,None,1517,1,1,3993.7000000029802,443040.5,7176,NTS,A,6
8,0,prac,1,C,triangle.png,0,m,Fri Jul 18 2025 11:19:02 GMT-0500 (Central Daylight Time),450733.0,1400,O,None,1515,7,1,3693.89999999851,447039.1000000015,7176,NTS,A,7
7,0,prac,1,C,triangle.png,0,z,Fri Jul 18 2025 11:19:02 GMT-0500 (Central Daylight Time),454231.8999999985,1200,O,None,1515,6,1,3494.10000000149,450737.799999997,7176,NTS,A,8
6,1,prac,1,C,circle.png,1,m,Fri Jul 18 2025 11:19:02 GMT-0500 (Central Daylight Time),458363.799999997,2000,O,m,1346,5,1,4127.19999999553,454236.6000000015,7176,NTS,A,9
2,1,prac,1,C,triangle.png,0,m,Fri Jul 18 2025 11:19:02 GMT-0500 (Central Daylight Time),461696.3999999985,1600,O,z,941,2,1,3327.7999999970198,458368.6000000015,7176,NTS,A,10
2,1,prac,1,C,triangle.png,0,m,Fri Jul 18 2025 11:19:02 GMT-0500 (Central Daylight Time),465594.8999999985,1600,O,None,1516,2,1,3891.5,461703.3999999985,7176,NTS,A,11
7,1,prac,1,C,triangle.png,0,z,Fri Jul 18 2025 11:19:02 GMT-0500 (Central Daylight Time),468327.3999999985,1200,O,m,742,6,1,2727.2999999970198,465600.1000000015,7176,NTS,A,12
9,0,prac,2,C,circle.png,0,m,Fri Jul 18 2025 11:19:02 GMT-0500 (Central Daylight Time),496551.8999999985,1900,O,z,1384,8,1,4077.7999999970198,492474.1000000015,7176,NTS,A,1
1,1,prac,2,C,circle.png,1,z,Fri Jul 18 2025 11:19:02 GMT-0500 (Central Daylight Time),500217.5,1700,O,z,1181,1,1,3659.89999999851,496557.6000000015,7176,NTS,A,2
2,1,prac,2,C,triangle.png,0,m,Fri Jul 18 2025 11:19:02 GMT-0500 (Central Daylight Time),504116.0,1600,O,None,1516,2,1,3894.2000000029802,500221.799999997,7176,NTS,A,3
9,1,prac,2,C,circle.png,0,m,Fri Jul 18 2025 11:19:02 GMT-0500 (Central Daylight Time),508198.3999999985,1900,O,z,1385,8,1,4077.5,504120.8999999985,7176,NTS,A,4
8,2,prac,2,C,triangle.png,1,m,Fri Jul 18 2025 11:19:02 GMT-0500 (Central Daylight Time),511797.200000003,1400,O,m,1403,7,1,3594.2000000029802,508203.0,7176,NTS,A,5
8,3,prac,2,C,triangle.png,1,m,Fri Jul 18 2025 11:19:02 GMT-0500 (Central Daylight Time),515145.8999999985,1400,O,m,1156,7,1,3343.10000000149,511802.799999997,7176,NTS,A,6
4,3,prac,2,C,circle.png,0,z,Fri Jul 18 2025 11:19:02 GMT-0500 (Central Daylight Time),518444.8999999985,1000,O,None,1515,4,1,3294.39999999851,515150.5,7176,NTS,A,7
3,3,prac,2,C,triangle.png,0,z,Fri Jul 18 2025 11:19:02 GMT-0500 (Central Daylight Time),522244.799999997,1500,O,None,1514,3,1,3795.0,518449.799999997,7176,NTS,A,8
6,3,prac,2,C,circle.png,0,m,Fri Jul 18 2025 11:19:02 GMT-0500 (Central Daylight Time),526542.299999997,2000,O,None,1516,5,1,4292.5,522249.799999997,7176,NTS,A,9
1,4,prac,2,C,circle.png,1,z,Fri Jul 18 2025 11:19:02 GMT-0500 (Central Daylight Time),530058.1000000015,1700,O,z,1031,1,1,3510.89999999851,526547.200000003,7176,NTS,A,10
6,5,prac,2,C,circle.png,1,m,Fri Jul 18 2025 11:19:02 GMT-0500 (Central Daylight Time),533773.6000000015,2000,O,m,928,5,1,3710.8000000044703,530062.799999997,7176,NTS,A,11
7,5,prac,2,C,triangle.png,0,z,Fri Jul 18 2025 11:19:02 GMT-0500 (Central Daylight Time),537272.299999997,1200,O,None,1516,6,1,3494.0,533778.299999997,7176,NTS,A,12
3,1,test,1,C,circle.png,1,z,Fri Jul 18 2025 11:19:02 GMT-0500 (Central Daylight Time),575793.700000003,1600,O,z,1308,19,1,2929.5,572864.200000003,7176,NTS,A,1
8,1,test,1,C,triangle.png,0,m,Fri Jul 18 2025 11:19:02 GMT-0500 (Central Daylight Time),578926.0,1600,O,None,1516,7,1,3127.89999999851,575798.1000000015,7176,NTS,A,2
8,1,test,1,C,circle.png,0,m,Fri Jul 18 2025 11:19:02 GMT-0500 (Central Daylight Time),581658.3999999985,1200,O,None,1515,15,1,2728.89999999851,578929.5,7176,NTS,A,3
1,2,test,1,C,triangle.png,1,z,Fri Jul 18 2025 11:19:02 GMT-0500 (Central Daylight Time),584674.200000003,1900,O,z,1083,9,1,3012.3000000044703,581661.8999999985,7176,NTS,A,4
9,2,test,1,C,triangle.png,0,z,Fri Jul 18 2025 11:19:02 GMT-0500 (Central Daylight Time),587607.6000000015,1400,O,None,1517,16,1,2929.3000000044703,584678.299999997,7176,NTS,A,5
3,2,test,1,C,triangle.png,0,z,Fri Jul 18 2025 11:19:02 GMT-0500 (Central Daylight Time),590339.1000000015,1200,O,None,1516,3,1,2727.5,587611.6000000015,7176,NTS,A,6
4,3,test,1,C,triangle.png,1,m,Fri Jul 18 2025 11:19:02 GMT-0500 (Central Daylight Time),593321.5,1500,O,m,1459,12,1,2978.7999999970198,590342.700000003,7176,NTS,A,7
6,3,test,1,C,circle.png,0,m,Fri Jul 18 2025 11:19:02 GMT-0500 (Central Daylight Time),596753.700000003,1900,O,None,1516,21,1,3428.4000000059605,593325.299999997,7176,NTS,A,8
3,4,test,1,C,circle.png,1,z,Fri Jul 18 2025 11:19:02 GMT-0500 (Central Daylight Time),599436.1000000015,1600,O,z,1063,11,1,2678.7000000029802,596757.3999999985,7176,NTS,A,9
2,4,test,1,C,circle.png,0,z,Fri Jul 18 2025 11:19:02 GMT-0500 (Central Daylight Time),602668.3999999985,1700,O,None,1515,10,1,3228.6999999955297,599439.700000003,7176,NTS,A,10
4,4,test,1,C,triangle.png,0,m,Fri Jul 18 2025 11:19:02 GMT-0500 (Central Daylight Time),605700.799999997,1500,O,None,1515,20,1,3028.6999999955297,602672.1000000015,7176,NTS,A,11
2,5,test,1,C,circle.png,1,z,Fri Jul 18 2025 11:19:02 GMT-0500 (Central Daylight Time),608400.0,1700,O,z,968,18,1,2695.5,605704.5,7176,NTS,A,12
8,5,test,1,C,triangle.png,0,m,Fri Jul 18 2025 11:19:02 GMT-0500 (Central Daylight Time),611532.5,1600,O,None,1515,23,1,3128.7999999970198,608403.700000003,7176,NTS,A,13
9,5,test,1,C,circle.png,0,m,Fri Jul 18 2025 11:19:02 GMT-0500 (Central Daylight Time),614564.700000003,1500,O,None,1516,24,1,3028.7000000029802,611536.0,7176,NTS,A,14
1,6,test,1,C,triangle.png,1,z,Fri Jul 18 2025 11:19:02 GMT-0500 (Central Daylight Time),617463.8999999985,1900,O,z,977,17,1,2895.6999999955297,614568.200000003,7176,NTS,A,15
4,6,test,1,C,circle.png,0,z,Fri Jul 18 2025 11:19:02 GMT-0500 (Central Daylight Time),620396.1000000015,1400,O,None,1514,4,1,2928.60000000149,617467.5,7176,NTS,A,16
7,7,test,1,C,triangle.png,1,z,Fri Jul 18 2025 11:19:02 GMT-0500 (Central Daylight Time),623562.0,1700,O,z,1433,6,1,3162.2000000029802,620399.799999997,7176,NTS,A,17
6,8,test,1,C,circle.png,1,m,Fri Jul 18 2025 11:19:02 GMT-0500 (Central Daylight Time),626860.700000003,1900,O,m,1372,5,1,3294.60000000149,623566.1000000015,7176,NTS,A,18
7,8,test,1,C,circle.png,0,m,Fri Jul 18 2025 11:19:02 GMT-0500 (Central Daylight Time),630392.8999999985,2000,O,None,1516,14,1,3528.5,626864.3999999985,7176,NTS,A,19
9,9,test,1,C,circle.png,1,m,Fri Jul 18 2025 11:19:02 GMT-0500 (Central Daylight Time),632808.8999999985,1500,O,m,892,8,1,2412.2999999970198,630396.6000000015,7176,NTS,A,20
7,10,test,1,C,triangle.png,1,z,Fri Jul 18 2025 11:19:02 GMT-0500 (Central Daylight Time),635658.0,1700,O,z,1124,22,1,2845.2999999970198,632812.700000003,7176,NTS,A,21
2,11,test,1,C,triangle.png,1,m,Fri Jul 18 2025 11:19:02 GMT-0500 (Central Daylight Time),639073.700000003,2000,O,m,1384,2,1,3411.8000000044703,635661.8999999985,7176,NTS,A,22
1,11,test,1,C,circle.png,0,z,Fri Jul 18 2025 11:19:02 GMT-0500 (Central Daylight Time),641606.200000003,1000,O,None,1516,1,1,2528.10000000149,639078.1000000015,7176,NTS,A,23
6,11,test,1,C,triangle.png,0,m,Fri Jul 18 2025 11:19:02 GMT-0500 (Central Daylight Time),644138.799999997,1000,O,None,1516,13,1,2529.0,641609.799999997,7176,NTS,A,24
1,1,test,2,C,triangle.png,1,z,Fri Jul 18 2025 11:19:02 GMT-0500 (Central Daylight Time),654135.6000000015,1900,O,z,1119,9,1,3044.5,651091.1000000015,7176,NTS,A,1
2,1,test,2,C,circle.png,0,z,Fri Jul 18 2025 11:19:02 GMT-0500 (Central Daylight Time),656984.799999997,1700,O,m,1118,10,1,2844.7999999970198,654140.0,7176,NTS,A,2
4,1,test,2,C,triangle.png,0,m,Fri Jul 18 2025 11:19:02 GMT-0500 (Central Daylight Time),660017.299999997,1500,O,None,1516,12,1,3028.89999999851,656988.3999999985,7176,NTS,A,3
6,1,test,2,C,triangle.png,0,m,Fri Jul 18 2025 11:19:02 GMT-0500 (Central Daylight Time),662149.700000003,1000,O,z,1104,13,1,2128.5,660021.200000003,7176,NTS,A,4
7,1,test,2,C,circle.png,0,m,Fri Jul 18 2025 11:19:02 GMT-0500 (Central Daylight Time),665682.1000000015,2000,O,None,1516,22,1,3528.60000000149,662153.5,7176,NTS,A,5
3,1,test,2,C,circle.png,0,z,Fri Jul 18 2025 11:19:02 GMT-0500 (Central Daylight Time),668814.3999999985,1600,O,None,1516,19,1,3128.5,665685.8999999985,7176,NTS,A,6
7,1,test,2,C,triangle.png,0,z,Fri Jul 18 2025 11:19:02 GMT-0500 (Central Daylight Time),671979.799999997,1700,O,m,1447,6,1,3161.89999999851,668817.8999999985,7176,NTS,A,7
1,1,test,2,C,circle.png,0,z,Fri Jul 18 2025 11:19:02 GMT-0500 (Central Daylight Time),674512.3999999985,1000,O,None,1515,1,1,2529.10000000149,671983.299999997,7176,NTS,A,8
2,1,test,2,C,circle.png,0,z,Fri Jul 18 2025 11:19:02 GMT-0500 (Central Daylight Time),677744.8999999985,1700,O,None,1516,18,1,3229.0,674515.8999999985,7176,NTS,A,9
8,2,test,2,C,circle.png,1,m,Fri Jul 18 2025 11:19:02 GMT-0500 (Central Daylight Time),680260.700000003,1200,O,m,1297,23,1,2511.4000000059605,677749.299999997,7176,NTS,A,10
6,3,test,2,C,circle.png,1,m,Fri Jul 18 2025 11:19:02 GMT-0500 (Central Daylight Time),682959.799999997,1900,O,m,776,5,1,2695.0,680264.799999997,7176,NTS,A,11
4,3,test,2,C,triangle.png,0,m,Fri Jul 18 2025 11:19:02 GMT-0500 (Central Daylight Time),685609.200000003,1500,O,z,1116,20,1,2645.7000000029802,682963.5,7176,NTS,A,12
9,3,test,2,C,triangle.png,0,z,Fri Jul 18 2025 11:19:02 GMT-0500 (Central Daylight Time),688541.3999999985,1400,O,None,1515,16,1,2928.60000000149,685612.799999997,7176,NTS,A,13
8,3,test,2,C,triangle.png,0,m,Fri Jul 18 2025 11:19:02 GMT-0500 (Central Daylight Time),691673.8999999985,1600,O,None,1516,7,1,3128.89999999851,688545.0,7176,NTS,A,14
7,3,test,2,C,circle.png,0,m,Fri Jul 18 2025 11:19:02 GMT-0500 (Central Daylight Time),695206.0,2000,O,None,1516,14,1,3528.60000000149,691677.3999999985,7176,NTS,A,15
1,4,test,2,C,triangle.png,1,z,Fri Jul 18 2025 11:19:02 GMT-0500 (Central Daylight Time),697888.5,1900,O,z,759,17,1,2678.89999999851,695209.6000000015,7176,NTS,A,16
9,4,test,2,C,triangle.png,0,z,Fri Jul 18 2025 11:19:02 GMT-0500 (Central Daylight Time),700821.1000000015,1400,O,None,1516,24,1,2928.8000000044703,697892.299999997,7176,NTS,A,17
4,5,test,2,C,circle.png,1,z,Fri Jul 18 2025 11:19:02 GMT-0500 (Central Daylight Time),703669.8999999985,1400,O,z,1428,4,1,2844.5,700825.3999999985,7176,NTS,A,18
6,6,test,2,C,triangle.png,1,m,Fri Jul 18 2025 11:19:02 GMT-0500 (Central Daylight Time),706119.200000003,1000,O,m,1427,21,1,2445.8000000044703,703673.3999999985,7176,NTS,A,19
3,7,test,2,C,triangle.png,1,z,Fri Jul 18 2025 11:19:02 GMT-0500 (Central Daylight Time),708668.299999997,1200,O,z,1322,3,1,2545.39999999851,706122.8999999985,7176,NTS,A,20
8,8,test,2,C,circle.png,1,m,Fri Jul 18 2025 11:19:02 GMT-0500 (Central Daylight Time),711268.799999997,1200,O,m,1372,15,1,2596.89999999851,708671.8999999985,7176,NTS,A,21
2,8,test,2,C,triangle.png,0,m,Fri Jul 18 2025 11:19:02 GMT-0500 (Central Daylight Time),714800.1000000015,2000,O,None,1516,2,1,3527.39999999851,711272.700000003,7176,NTS,A,22
3,8,test,2,C,circle.png,0,z,Fri Jul 18 2025 11:19:02 GMT-0500 (Central Daylight Time),717932.299999997,1600,O,None,1516,11,1,3128.39999999851,714803.8999999985,7176,NTS,A,23
9,9,test,2,C,circle.png,1,m,Fri Jul 18 2025 11:19:02 GMT-0500 (Central Daylight Time),720731.1000000015,1500,O,m,1281,8,1,2795.0,717936.1000000015,7176,NTS,A,24
3,0,test,3,C,triangle.png,0,z,Fri Jul 18 2025 11:19:02 GMT-0500 (Central Daylight Time),730444.6000000015,1200,O,m,1137,19,1,2362.60000000149,728082.0,7176,NTS,A,1
4,0,test,3,C,circle.png,0,z,Fri Jul 18 2025 11:19:02 GMT-0500 (Central Daylight Time),733377.5,1400,O,None,1515,20,1,2928.7000000029802,730448.799999997,7176,NTS,A,2
8,0,test,3,C,triangle.png,0,m,Fri Jul 18 2025 11:19:02 GMT-0500 (Central Daylight Time),736509.700000003,1600,O,None,1516,7,1,3128.4000000059605,733381.299999997,7176,NTS,A,3
2,0,test,3,C,circle.png,0,z,Fri Jul 18 2025 11:19:02 GMT-0500 (Central Daylight Time),739742.1000000015,1700,O,None,1516,10,1,3228.89999999851,736513.200000003,7176,NTS,A,4
6,0,test,3,C,circle.png,0,m,Fri Jul 18 2025 11:19:02 GMT-0500 (Central Daylight Time),743174.5,1900,O,None,1515,21,1,3428.60000000149,739745.8999999985,7176,NTS,A,5
8,0,test,3,C,triangle.png,0,m,Fri Jul 18 2025 11:19:02 GMT-0500 (Central Daylight Time),746306.799999997,1600,O,None,1516,23,1,3128.6999999955297,743178.1000000015,7176,NTS,A,6
8,1,test,3,C,circle.png,1,m,Fri Jul 18 2025 11:19:02 GMT-0500 (Central Daylight Time),748772.6000000015,1200,O,m,1247,15,1,2462.39999999851,746310.200000003,7176,NTS,A,7
2,1,test,3,C,triangle.png,0,m,Fri Jul 18 2025 11:19:02 GMT-0500 (Central Daylight Time),752136.6000000015,2000,O,z,1347,18,1,3360.39999999851,748776.200000003,7176,NTS,A,8
2,1,test,3,C,triangle.png,0,m,Fri Jul 18 2025 11:19:02 GMT-0500 (Central Daylight Time),755420.3999999985,2000,O,z,1263,2,1,3279.7999999970198,752140.6000000015,7176,NTS,A,9
7,1,test,3,C,triangle.png,0,z,Fri Jul 18 2025 11:19:02 GMT-0500 (Central Daylight Time),758386.200000003,1700,O,m,1233,6,1,2962.0,755424.200000003,7176,NTS,A,10
4,1,test,3,C,triangle.png,0,m,Fri Jul 18 2025 11:19:02 GMT-0500 (Central Daylight Time),761418.3999999985,1500,O,None,1515,12,1,3028.60000000149,758389.799999997,7176,NTS,A,11
9,1,test,3,C,circle.png,0,m,Fri Jul 18 2025 11:19:02 GMT-0500 (Central Daylight Time),764450.799999997,1500,O,None,1516,24,1,3027.89999999851,761422.8999999985,7176,NTS,A,12
7,1,test,3,C,triangle.png,0,z,Fri Jul 18 2025 11:19:02 GMT-0500 (Central Daylight Time),767683.0,1700,O,None,1515,22,1,3228.7000000029802,764454.299999997,7176,NTS,A,13
1,2,test,3,C,circle.png,1,z,Fri Jul 18 2025 11:19:02 GMT-0500 (Central Daylight Time),769649.200000003,1000,O,z,932,1,1,1961.8000000044703,767687.3999999985,7176,NTS,A,14
3,2,test,3,C,circle.png,0,z,Fri Jul 18 2025 11:19:02 GMT-0500 (Central Daylight Time),772448.3999999985,1600,O,m,1168,11,1,2795.39999999851,769653.0,7176,NTS,A,15
3,2,test,3,C,triangle.png,0,z,Fri Jul 18 2025 11:19:02 GMT-0500 (Central Daylight Time),775181.0,1200,O,None,1516,3,1,2728.89999999851,772452.1000000015,7176,NTS,A,16
6,3,test,3,C,circle.png,1,m,Fri Jul 18 2025 11:19:02 GMT-0500 (Central Daylight Time),778479.799999997,1900,O,m,1377,5,1,3295.0999999940395,775184.700000003,7176,NTS,A,17
6,3,test,3,C,triangle.png,0,m,Fri Jul 18 2025 11:19:02 GMT-0500 (Central Daylight Time),781012.3999999985,1000,O,None,1515,13,1,2528.7999999970198,778483.6000000015,7176,NTS,A,18
4,3,test,3,C,circle.png,0,z,Fri Jul 18 2025 11:19:02 GMT-0500 (Central Daylight Time),783944.8999999985,1400,O,None,1516,4,1,2928.7999999970198,781016.1000000015,7176,NTS,A,19
9,4,test,3,C,circle.png,1,m,Fri Jul 18 2025 11:19:02 GMT-0500 (Central Daylight Time),786710.3999999985,1500,O,m,1245,8,1,2761.89999999851,783948.5,7176,NTS,A,20
9,4,test,3,C,triangle.png,0,z,Fri Jul 18 2025 11:19:02 GMT-0500 (Central Daylight Time),789643.0,1400,O,None,1515,16,1,2927.7999999970198,786715.200000003,7176,NTS,A,21
7,5,test,3,C,circle.png,1,m,Fri Jul 18 2025 11:19:02 GMT-0500 (Central Daylight Time),793075.299999997,2000,O,m,1407,14,1,3428.89999999851,789646.3999999985,7176,NTS,A,22
1,6,test,3,C,circle.png,1,z,Fri Jul 18 2025 11:19:02 GMT-0500 (Central Daylight Time),795174.5,1000,O,z,1078,17,1,2095.7000000029802,793078.799999997,7176,NTS,A,23
1,6,test,3,C,triangle.png,0,z,Fri Jul 18 2025 11:19:02 GMT-0500 (Central Daylight Time),798606.8999999985,1900,O,None,1516,9,1,3428.7999999970198,795178.1000000015,7176,NTS,A,24
8,1,test,4,C,circle.png,1,m,Fri Jul 18 2025 11:19:02 GMT-0500 (Central Daylight Time),819917.0,1200,O,m,1005,15,1,2228.2999999970198,817688.700000003,7176,NTS,A,1
8,1,test,4,C,triangle.png,0,m,Fri Jul 18 2025 11:19:02 GMT-0500 (Central Daylight Time),823049.5,1600,O,None,1515,23,1,3128.39999999851,819921.1000000015,7176,NTS,A,2
6,1,test,4,C,circle.png,0,m,Fri Jul 18 2025 11:19:02 GMT-0500 (Central Daylight Time),826481.5,1900,O,None,1515,21,1,3427.7000000029802,823053.799999997,7176,NTS,A,3
6,2,test,4,C,circle.png,1,m,Fri Jul 18 2025 11:19:02 GMT-0500 (Central Daylight Time),829780.299999997,1900,O,m,1380,5,1,3295.0999999940395,826485.200000003,7176,NTS,A,4
6,2,test,4,C,triangle.png,0,m,Fri Jul 18 2025 11:19:02 GMT-0500 (Central Daylight Time),832313.0,1000,O,None,1516,13,1,2529.2000000029802,829783.799999997,7176,NTS,A,5
4,3,test,4,C,circle.png,1,z,Fri Jul 18 2025 11:19:02 GMT-0500 (Central Daylight Time),834928.8999999985,1400,O,z,1184,20,1,2612.1999999955297,832316.700000003,7176,NTS,A,6
8,3,test,4,C,triangle.png,0,m,Fri Jul 18 2025 11:19:02 GMT-0500 (Central Daylight Time),838061.3999999985,1600,O,None,1516,7,1,3127.39999999851,834934.0,7176,NTS,A,7
2,3,test,4,C,triangle.png,0,m,Fri Jul 18 2025 11:19:02 GMT-0500 (Central Daylight Time),841593.299999997,2000,O,None,1515,2,1,3528.39999999851,838064.8999999985,7176,NTS,A,8
3,4,test,4,C,triangle.png,1,z,Fri Jul 18 2025 11:19:02 GMT-0500 (Central Daylight Time),844059.1000000015,1200,O,z,1248,19,1,2462.39999999851,841596.700000003,7176,NTS,A,9
7,5,test,4,C,triangle.png,1,z,Fri Jul 18 2025 11:19:02 GMT-0500 (Central Daylight Time),846924.799999997,1700,O,z,1138,22,1,2862.0999999940395,844062.700000003,7176,NTS,A,10
4,5,test,4,C,circle.png,0,z,Fri Jul 18 2025 11:19:02 GMT-0500 (Central Daylight Time),849557.5,1400,O,m,1212,4,1,2629.10000000149,846928.3999999985,7176,NTS,A,11
4,5,test,4,C,triangle.png,0,m,Fri Jul 18 2025 11:19:02 GMT-0500 (Central Daylight Time),852589.799999997,1500,O,None,1516,12,1,3028.5999999940395,849561.200000003,7176,NTS,A,12
1,6,test,4,C,circle.png,1,z,Fri Jul 18 2025 11:19:02 GMT-0500 (Central Daylight Time),854456.1000000015,1000,O,z,843,1,1,1862.7000000029802,852593.3999999985,7176,NTS,A,13
7,6,test,4,C,circle.png,0,m,Fri Jul 18 2025 11:19:02 GMT-0500 (Central Daylight Time),857988.1000000015,2000,O,None,1515,14,1,3528.39999999851,854459.700000003,7176,NTS,A,14
9,7,test,4,C,circle.png,1,m,Fri Jul 18 2025 11:19:02 GMT-0500 (Central Daylight Time),860803.8999999985,1500,O,m,1289,8,1,2812.39999999851,857991.5,7176,NTS,A,15
3,8,test,4,C,triangle.png,1,z,Fri Jul 18 2025 11:19:02 GMT-0500 (Central Daylight Time),863469.8999999985,1200,O,z,1445,3,1,2662.5,860807.3999999985,7176,NTS,A,16
7,8,test,4,C,triangle.png,0,z,Fri Jul 18 2025 11:19:02 GMT-0500 (Central Daylight Time),866703.299999997,1700,O,None,1517,6,1,3229.7999999970198,863473.5,7176,NTS,A,17
3,8,test,4,C,circle.png,0,z,Fri Jul 18 2025 11:19:02 GMT-0500 (Central Daylight Time),869890.5,1600,O,None,1572,11,1,3183.5,866707.0,7176,NTS,A,18
2,8,test,4,C,circle.png,0,z,Fri Jul 18 2025 11:19:02 GMT-0500 (Central Daylight Time),872650.1000000015,1700,O,m,1041,10,1,2756.10000000149,869894.0,7176,NTS,A,19
9,8,test,4,C,circle.png,0,m,Fri Jul 18 2025 11:19:02 GMT-0500 (Central Daylight Time),875682.3999999985,1500,O,None,1515,24,1,3028.5,872653.8999999985,7176,NTS,A,20
1,9,test,4,C,triangle.png,1,z,Fri Jul 18 2025 11:19:02 GMT-0500 (Central Daylight Time),879014.799999997,1900,O,z,1403,9,1,3329.0999999940395,875685.700000003,7176,NTS,A,21
2,10,test,4,C,triangle.png,1,m,Fri Jul 18 2025 11:19:02 GMT-0500 (Central Daylight Time),882413.8999999985,2000,O,m,1379,18,1,3395.5,879018.3999999985,7176,NTS,A,22
1,11,test,4,C,circle.png,1,z,Fri Jul 18 2025 11:19:02 GMT-0500 (Central Daylight Time),884379.8999999985,1000,O,z,947,17,1,1962.1999999955297,882417.700000003,7176,NTS,A,23
9,11,test,4,C,triangle.png,0,z,Fri Jul 18 2025 11:19:02 GMT-0500 (Central Daylight Time),887312.3999999985,1400,O,None,1515,16,1,2928.0,884384.3999999985,7176,NTS,A,24
