acc_sum,block,block_c,change,condition,correct,correct_response,datetime,endtime,face,project,response,response_time,row_sel,session_number,start_end,starttime,subject_id,task,task_vers,trial
0,prac,1,,1-Back,,,Thu Dec 11 2025 16:22:58 GMT-0600 (Central Standard Time),,005_o_f_d_a.png,O,space,7649,1,,,,7717,VNB,B,0
1,prac,1,0.0,1-Back,1.0,m,Thu Dec 11 2025 16:22:58 GMT-0600 (Central Standard Time),122956.39999997616,020_y_f_n_a.png,O,m,665,2,,1516.5,121439.89999997616,7717,VNB,B,1
1,prac,1,0.0,1-Back,0.0,m,Thu Dec 11 2025 16:22:58 GMT-0600 (Central Standard Time),125823.89999997616,007_m_m_h_a.png,O,None,2004,3,,2861.099999964237,122962.80000001192,7717,VNB,B,2
2,prac,1,0.0,1-Back,1.0,m,Thu Dec 11 2025 16:22:58 GMT-0600 (Central Standard Time),128023.0,016_y_m_d_a.png,O,m,1322,4,,2188.100000023842,125834.89999997616,7717,VNB,B,3
2,prac,1,0.0,1-Back,0.0,m,Thu Dec 11 2025 16:22:58 GMT-0600 (Central Standard Time),130005.59999996424,005_o_f_n_a.png,O,z,1117,5,,1972.5,128033.09999996424,7717,VNB,B,4
2,prac,1,1.0,1-Back,0.0,z,Thu Dec 11 2025 16:22:58 GMT-0600 (Central Standard Time),132438.0,016_y_m_n_a.png,O,m,1548,6,,2420.400000035763,130017.59999996424,7717,VNB,B,5
2,prac,1,0.0,1-Back,0.0,m,Thu Dec 11 2025 16:22:58 GMT-0600 (Central Standard Time),134887.0,004_o_m_h_a.png,O,z,1600,7,,2438.100000023842,132448.89999997616,7717,VNB,B,6
3,prac,1,0.0,1-Back,1.0,m,Thu Dec 11 2025 16:22:58 GMT-0600 (Central Standard Time),137054.39999997616,011_m_f_d_a.png,O,m,1311,8,,2161.399999976158,134893.0,7717,VNB,B,7
3,prac,1,1.0,1-Back,0.0,z,Thu Dec 11 2025 16:22:58 GMT-0600 (Central Standard Time),139053.69999998808,020_y_f_d_a.png,O,m,1162,9,,1988.0,137065.69999998808,7717,VNB,B,8
4,prac,1,0.0,1-Back,1.0,m,Thu Dec 11 2025 16:22:58 GMT-0600 (Central Standard Time),141619.19999998808,007_m_m_n_a.png,O,m,1694,10,,2553.399999976158,139065.80000001192,7717,VNB,B,9
5,prac,1,0.0,1-Back,1.0,m,Thu Dec 11 2025 16:22:58 GMT-0600 (Central Standard Time),143468.39999997616,005_o_f_h_a.png,O,m,985,11,,1839.8999999761581,141628.5,7717,VNB,B,10
6,prac,1,0.0,1-Back,1.0,m,Thu Dec 11 2025 16:22:58 GMT-0600 (Central Standard Time),145468.39999997616,016_y_m_d_a.png,O,m,1119,12,,1986.8999999761581,143481.5,7717,VNB,B,11
0,prac,2,0.0,1-Back,,,Thu Dec 11 2025 16:22:58 GMT-0600 (Central Standard Time),145468.39999997616,005_o_f_d_a.png,O,a,4367,1,,1986.8999999761581,143481.5,7717,VNB,B,0
1,prac,2,0.0,1-Back,1.0,m,Thu Dec 11 2025 16:22:58 GMT-0600 (Central Standard Time),155097.59999996424,020_y_f_n_a.png,O,m,1357,2,,2202.899999976158,152894.69999998808,7717,VNB,B,1
2,prac,2,0.0,1-Back,1.0,m,Thu Dec 11 2025 16:22:58 GMT-0600 (Central Standard Time),157029.80000001192,007_m_m_h_a.png,O,m,1068,3,,1922.0,155107.80000001192,7717,VNB,B,2
3,prac,2,0.0,1-Back,1.0,m,Thu Dec 11 2025 16:22:58 GMT-0600 (Central Standard Time),158563.09999996424,016_y_m_d_a.png,O,m,753,4,,1522.5999999642372,157040.5,7717,VNB,B,3
4,prac,2,0.0,1-Back,1.0,m,Thu Dec 11 2025 16:22:58 GMT-0600 (Central Standard Time),160380.19999998808,005_o_f_n_a.png,O,m,944,5,,1807.1000000238419,158573.09999996424,7717,VNB,B,4
5,prac,2,1.0,1-Back,1.0,z,Thu Dec 11 2025 16:22:58 GMT-0600 (Central Standard Time),162613.09999996424,016_y_m_n_a.png,O,z,1374,6,,2220.099999964237,160393.0,7717,VNB,B,5
6,prac,2,0.0,1-Back,1.0,m,Thu Dec 11 2025 16:22:58 GMT-0600 (Central Standard Time),164278.09999996424,004_o_m_h_a.png,O,m,812,7,,1653.3999999761581,162624.69999998808,7717,VNB,B,6
7,prac,2,0.0,1-Back,1.0,m,Thu Dec 11 2025 16:22:58 GMT-0600 (Central Standard Time),166310.39999997616,011_m_f_d_a.png,O,m,1173,8,,2020.199999988079,164290.19999998808,7717,VNB,B,7
7,prac,2,1.0,1-Back,0.0,z,Thu Dec 11 2025 16:22:58 GMT-0600 (Central Standard Time),168943.19999998808,020_y_f_d_a.png,O,m,1773,9,,2623.0,166320.19999998808,7717,VNB,B,8
8,prac,2,0.0,1-Back,1.0,m,Thu Dec 11 2025 16:22:58 GMT-0600 (Central Standard Time),170876.39999997616,007_m_m_n_a.png,O,m,1068,10,,1925.300000011921,168951.09999996424,7717,VNB,B,9
9,prac,2,0.0,1-Back,1.0,m,Thu Dec 11 2025 16:22:58 GMT-0600 (Central Standard Time),172875.59999996424,005_o_f_h_a.png,O,m,1130,11,,1988.5999999642372,170887.0,7717,VNB,B,10
10,prac,2,0.0,1-Back,1.0,m,Thu Dec 11 2025 16:22:58 GMT-0600 (Central Standard Time),174910.5,016_y_m_d_a.png,O,m,1174,12,,2023.300000011921,172887.19999998808,7717,VNB,B,11
0,test,1,0.0,1-Back,,,Thu Dec 11 2025 16:22:58 GMT-0600 (Central Standard Time),174910.5,020_y_f_d_a.png,O,space,6804,1,,2023.300000011921,172887.19999998808,7717,VNB,B,0
1,test,1,0.0,1-Back,1.0,m,Thu Dec 11 2025 16:22:58 GMT-0600 (Central Standard Time),191456.0,011_m_f_n_a.png,O,m,1189,2,,2218.699999988079,189237.30000001192,7717,VNB,B,1
2,test,1,0.0,1-Back,1.0,m,Thu Dec 11 2025 16:22:58 GMT-0600 (Central Standard Time),194136.0,004_o_m_h_a.png,O,m,1662,3,,2676.100000023842,191459.89999997616,7717,VNB,B,2
3,test,1,1.0,1-Back,1.0,z,Thu Dec 11 2025 16:22:58 GMT-0600 (Central Standard Time),196583.89999997616,007_m_m_h_a.png,O,z,1426,4,,2442.0,194141.89999997616,7717,VNB,B,3
4,test,1,0.0,1-Back,1.0,m,Thu Dec 11 2025 16:22:58 GMT-0600 (Central Standard Time),199101.09999996424,005_o_f_n_a.png,O,m,1489,5,,2507.599999964237,196593.5,7717,VNB,B,4
5,test,1,0.0,1-Back,1.0,m,Thu Dec 11 2025 16:22:58 GMT-0600 (Central Standard Time),201532.19999998808,016_y_m_d_a.png,O,m,1413,6,,2421.5,199110.69999998808,7717,VNB,B,5
5,test,1,1.0,1-Back,0.0,z,Thu Dec 11 2025 16:22:58 GMT-0600 (Central Standard Time),203949.0,011_m_f_d_a.png,O,m,1400,7,,2410.0,201539.0,7717,VNB,B,6
6,test,1,0.0,1-Back,1.0,m,Thu Dec 11 2025 16:22:58 GMT-0600 (Central Standard Time),205981.5,020_y_f_h_a.png,O,m,1002,8,,2025.5,203956.0,7717,VNB,B,7
7,test,1,0.0,1-Back,1.0,m,Thu Dec 11 2025 16:22:58 GMT-0600 (Central Standard Time),207731.39999997616,004_o_m_n_a.png,O,m,721,9,,1739.699999988079,205991.69999998808,7717,VNB,B,8
8,test,1,0.0,1-Back,1.0,m,Thu Dec 11 2025 16:22:58 GMT-0600 (Central Standard Time),209497.39999997616,016_y_m_h_a.png,O,m,742,10,,1759.199999988079,207738.19999998808,7717,VNB,B,9
9,test,1,0.0,1-Back,1.0,m,Thu Dec 11 2025 16:22:58 GMT-0600 (Central Standard Time),211230.0,004_o_m_d_a.png,O,m,708,11,,1727.5,209502.5,7717,VNB,B,10
10,test,1,1.0,1-Back,1.0,z,Thu Dec 11 2025 16:22:58 GMT-0600 (Central Standard Time),214061.59999996424,005_o_f_d_a.png,O,z,1802,12,,2827.699999988079,211233.89999997616,7717,VNB,B,11
11,test,1,0.0,1-Back,1.0,m,Thu Dec 11 2025 16:22:58 GMT-0600 (Central Standard Time),216163.0,007_m_m_n_a.png,O,m,1075,13,,2093.5,214069.5,7717,VNB,B,12
12,test,1,1.0,1-Back,1.0,z,Thu Dec 11 2025 16:22:58 GMT-0600 (Central Standard Time),218794.59999996424,020_y_f_n_a.png,O,z,1614,14,,2624.099999964237,216170.5,7717,VNB,B,13
12,test,1,0.0,1-Back,0.0,m,Thu Dec 11 2025 16:22:58 GMT-0600 (Central Standard Time),221827.69999998808,011_m_f_h_a.png,O,None,2017,15,,3024.800000011921,218802.89999997616,7717,VNB,B,14
13,test,1,0.0,1-Back,1.0,m,Thu Dec 11 2025 16:22:58 GMT-0600 (Central Standard Time),224175.0,007_m_m_d_a.png,O,m,1326,16,,2343.800000011921,221831.19999998808,7717,VNB,B,15
14,test,1,0.0,1-Back,1.0,m,Thu Dec 11 2025 16:22:58 GMT-0600 (Central Standard Time),225991.5,016_y_m_n_a.png,O,m,786,17,,1808.800000011921,224182.69999998808,7717,VNB,B,16
15,test,1,0.0,1-Back,1.0,m,Thu Dec 11 2025 16:22:58 GMT-0600 (Central Standard Time),227807.59999996424,005_o_f_h_a.png,O,m,794,18,,1807.5999999642372,226000.0,7717,VNB,B,17
0,test,2,0.0,1-Back,,,Thu Dec 11 2025 16:22:58 GMT-0600 (Central Standard Time),227807.59999996424,016_y_m_n_a.png,O,space,1097,1,,1807.5999999642372,226000.0,7717,VNB,B,0
1,test,2,0.0,1-Back,1.0,m,Thu Dec 11 2025 16:22:58 GMT-0600 (Central Standard Time),233172.59999996424,020_y_f_h_a.png,O,m,1221,2,,2236.399999976158,230936.19999998808,7717,VNB,B,1
2,test,2,1.0,1-Back,1.0,m,Thu Dec 11 2025 16:22:58 GMT-0600 (Central Standard Time),235088.39999997616,004_o_m_n_a.png,O,m,892,3,,1903.0,233185.39999997616,7717,VNB,B,2
3,test,2,0.0,1-Back,1.0,m,Thu Dec 11 2025 16:22:58 GMT-0600 (Central Standard Time),238037.59999996424,011_m_f_d_a.png,O,m,1928,4,,2940.099999964237,235097.5,7717,VNB,B,3
3,test,2,0.0,1-Back,0.0,z,Thu Dec 11 2025 16:22:58 GMT-0600 (Central Standard Time),239953.80000001192,007_m_m_d_a.png,O,m,891,5,,1907.2000000476837,238046.59999996424,7717,VNB,B,4
4,test,2,0.0,1-Back,1.0,m,Thu Dec 11 2025 16:22:58 GMT-0600 (Central Standard Time),241553.19999998808,016_y_m_h_a.png,O,m,568,6,,1588.800000011921,239964.39999997616,7717,VNB,B,5
5,test,2,1.0,1-Back,1.0,z,Thu Dec 11 2025 16:22:58 GMT-0600 (Central Standard Time),243519.59999996424,005_o_f_h_a.png,O,z,936,7,,1957.699999988079,241561.89999997616,7717,VNB,B,6
6,test,2,0.0,1-Back,1.0,m,Thu Dec 11 2025 16:22:58 GMT-0600 (Central Standard Time),246186.0,011_m_f_n_a.png,O,m,1634,8,,2656.199999988079,243529.80000001192,7717,VNB,B,7
7,test,2,0.0,1-Back,1.0,m,Thu Dec 11 2025 16:22:58 GMT-0600 (Central Standard Time),248367.5,020_y_f_d_a.png,O,m,1160,9,,2171.699999988079,246195.80000001192,7717,VNB,B,8
8,test,2,0.0,1-Back,1.0,m,Thu Dec 11 2025 16:22:58 GMT-0600 (Central Standard Time),250167.30000001192,007_m_m_n_a.png,O,m,769,10,,1791.2000000476837,248376.09999996424,7717,VNB,B,9
9,test,2,1.0,1-Back,1.0,m,Thu Dec 11 2025 16:22:58 GMT-0600 (Central Standard Time),252500.09999996424,011_m_f_h_a.png,O,m,1314,11,,2322.5,250177.59999996424,7717,VNB,B,10
9,test,2,0.0,1-Back,0.0,z,Thu Dec 11 2025 16:22:58 GMT-0600 (Central Standard Time),254215.80000001192,004_o_m_h_a.png,O,m,692,12,,1710.6000000238419,252505.19999998808,7717,VNB,B,11
10,test,2,0.0,1-Back,1.0,m,Thu Dec 11 2025 16:22:58 GMT-0600 (Central Standard Time),256181.59999996424,016_y_m_d_a.png,O,m,945,13,,1956.7999999523163,254224.80000001192,7717,VNB,B,12
11,test,2,0.0,1-Back,1.0,m,Thu Dec 11 2025 16:22:58 GMT-0600 (Central Standard Time),257914.80000001192,005_o_f_n_a.png,O,m,707,14,,1720.1000000238419,256194.69999998808,7717,VNB,B,13
12,test,2,0.0,1-Back,1.0,z,Thu Dec 11 2025 16:22:58 GMT-0600 (Central Standard Time),260765.0,020_y_f_n_a.png,O,z,1823,15,,2840.300000011921,257924.69999998808,7717,VNB,B,14
13,test,2,1.0,1-Back,1.0,m,Thu Dec 11 2025 16:22:58 GMT-0600 (Central Standard Time),262680.8000000119,007_m_m_h_a.png,O,m,886,16,,1907.800000011921,260773.0,7717,VNB,B,15
14,test,2,0.0,1-Back,1.0,m,Thu Dec 11 2025 16:22:58 GMT-0600 (Central Standard Time),264896.6999999881,005_o_f_d_a.png,O,m,1193,17,,2206.600000023842,262690.09999996424,7717,VNB,B,16
14,test,2,1.0,1-Back,0.0,z,Thu Dec 11 2025 16:22:58 GMT-0600 (Central Standard Time),267912.0,004_o_m_d_a.png,O,None,2001,18,,3003.0,264909.0,7717,VNB,B,17
0,test,3,1.0,1-Back,,,Thu Dec 11 2025 16:22:58 GMT-0600 (Central Standard Time),267912.0,005_o_f_h_a.png,O,space,1083,1,,3003.0,264909.0,7717,VNB,B,0
1,test,3,0.0,1-Back,1.0,m,Thu Dec 11 2025 16:22:58 GMT-0600 (Central Standard Time),273360.0,011_m_f_d_a.png,O,m,1236,2,,2256.300000011921,271103.6999999881,7717,VNB,B,1
1,test,3,1.0,1-Back,0.0,m,Thu Dec 11 2025 16:22:58 GMT-0600 (Central Standard Time),276026.59999996424,007_m_m_n_a.png,O,z,1649,3,,2658.2999999523163,273368.3000000119,7717,VNB,B,2
2,test,3,0.0,1-Back,1.0,z,Thu Dec 11 2025 16:22:58 GMT-0600 (Central Standard Time),279024.8000000119,005_o_f_n_a.png,O,z,1966,4,,2991.2000000476837,276033.59999996424,7717,VNB,B,3
3,test,3,1.0,1-Back,1.0,m,Thu Dec 11 2025 16:22:58 GMT-0600 (Central Standard Time),281007.5,004_o_m_d_a.png,O,m,952,5,,1970.4000000357628,279037.09999996424,7717,VNB,B,4
4,test,3,0.0,1-Back,1.0,m,Thu Dec 11 2025 16:22:58 GMT-0600 (Central Standard Time),283291.8000000119,020_y_f_h_a.png,O,m,1251,6,,2273.5,281018.3000000119,7717,VNB,B,5
5,test,3,0.0,1-Back,1.0,z,Thu Dec 11 2025 16:22:58 GMT-0600 (Central Standard Time),285222.39999997616,016_y_m_h_a.png,O,z,902,7,,1921.199999988079,283301.1999999881,7717,VNB,B,6
6,test,3,0.0,1-Back,1.0,m,Thu Dec 11 2025 16:22:58 GMT-0600 (Central Standard Time),287172.5,011_m_f_n_a.png,O,m,933,8,,1940.4000000357628,285232.09999996424,7717,VNB,B,7
7,test,3,0.0,1-Back,1.0,m,Thu Dec 11 2025 16:22:58 GMT-0600 (Central Standard Time),289688.3000000119,020_y_f_d_a.png,O,m,1493,9,,2507.400000035763,287180.89999997616,7717,VNB,B,8
8,test,3,1.0,1-Back,1.0,m,Thu Dec 11 2025 16:22:58 GMT-0600 (Central Standard Time),292355.0,004_o_m_n_a.png,O,m,1650,10,,2660.100000023842,289694.89999997616,7717,VNB,B,9
9,test,3,0.0,1-Back,1.0,m,Thu Dec 11 2025 16:22:58 GMT-0600 (Central Standard Time),294702.39999997616,007_m_m_h_a.png,O,m,1328,11,,2340.899999976158,292361.5,7717,VNB,B,10
10,test,3,0.0,1-Back,1.0,z,Thu Dec 11 2025 16:22:58 GMT-0600 (Central Standard Time),296767.89999997616,011_m_f_h_a.png,O,z,1040,12,,2054.0,294713.89999997616,7717,VNB,B,11
11,test,3,1.0,1-Back,1.0,m,Thu Dec 11 2025 16:22:58 GMT-0600 (Central Standard Time),299484.59999996424,005_o_f_d_a.png,O,m,1696,13,,2710.199999988079,296774.39999997616,7717,VNB,B,12
12,test,3,0.0,1-Back,1.0,z,Thu Dec 11 2025 16:22:58 GMT-0600 (Central Standard Time),301934.39999997616,007_m_m_d_a.png,O,z,1421,14,,2440.0,299494.39999997616,7717,VNB,B,13
13,test,3,0.0,1-Back,1.0,m,Thu Dec 11 2025 16:22:58 GMT-0600 (Central Standard Time),303918.5,016_y_m_n_a.png,O,m,966,15,,1974.5,301944.0,7717,VNB,B,14
14,test,3,1.0,1-Back,1.0,m,Thu Dec 11 2025 16:22:58 GMT-0600 (Central Standard Time),306183.39999997616,004_o_m_h_a.png,O,m,1244,16,,2254.199999988079,303929.1999999881,7717,VNB,B,15
15,test,3,0.0,1-Back,1.0,m,Thu Dec 11 2025 16:22:58 GMT-0600 (Central Standard Time),308634.3000000119,016_y_m_d_a.png,O,m,1418,17,,2442.0,306192.3000000119,7717,VNB,B,16
16,test,3,1.0,1-Back,1.0,m,Thu Dec 11 2025 16:22:58 GMT-0600 (Central Standard Time),310649.09999996424,020_y_f_n_a.png,O,m,992,18,,2004.8999999761581,308644.1999999881,7717,VNB,B,17
0,test,4,1.0,1-Back,,,Thu Dec 11 2025 16:22:58 GMT-0600 (Central Standard Time),310649.09999996424,007_m_m_d_a.png,O,space,1073,1,,2004.8999999761581,308644.1999999881,7717,VNB,B,0
1,test,4,0.0,1-Back,1.0,z,Thu Dec 11 2025 16:22:58 GMT-0600 (Central Standard Time),316129.6999999881,004_o_m_d_a.png,O,z,1359,2,,2374.5,313755.1999999881,7717,VNB,B,1
2,test,4,0.0,1-Back,1.0,m,Thu Dec 11 2025 16:22:58 GMT-0600 (Central Standard Time),318478.6999999881,016_y_m_h_a.png,O,m,1327,3,,2341.199999988079,316137.5,7717,VNB,B,2
3,test,4,0.0,1-Back,1.0,m,Thu Dec 11 2025 16:22:58 GMT-0600 (Central Standard Time),320195.8000000119,011_m_f_n_a.png,O,m,691,4,,1711.9000000357628,318483.89999997616,7717,VNB,B,3
4,test,4,1.0,1-Back,1.0,m,Thu Dec 11 2025 16:22:58 GMT-0600 (Central Standard Time),321993.8000000119,005_o_f_h_a.png,O,m,774,5,,1790.0,320203.8000000119,7717,VNB,B,4
5,test,4,0.0,1-Back,1.0,m,Thu Dec 11 2025 16:22:58 GMT-0600 (Central Standard Time),323793.6999999881,007_m_m_n_a.png,O,m,775,6,,1794.300000011921,321999.39999997616,7717,VNB,B,5
6,test,4,0.0,1-Back,1.0,m,Thu Dec 11 2025 16:22:58 GMT-0600 (Central Standard Time),325660.3000000119,016_y_m_d_a.png,O,m,847,7,,1856.9000000357628,323803.39999997616,7717,VNB,B,6
7,test,4,1.0,1-Back,1.0,z,Thu Dec 11 2025 16:22:58 GMT-0600 (Central Standard Time),327743.39999997616,020_y_f_d_a.png,O,z,1053,8,,2075.099999964237,325668.3000000119,7717,VNB,B,7
8,test,4,0.0,1-Back,1.0,m,Thu Dec 11 2025 16:22:58 GMT-0600 (Central Standard Time),329644.09999996424,011_m_f_h_a.png,O,m,882,9,,1894.2999999523163,327749.8000000119,7717,VNB,B,8
9,test,4,0.0,1-Back,1.0,z,Thu Dec 11 2025 16:22:58 GMT-0600 (Central Standard Time),331990.89999997616,004_o_m_h_a.png,O,z,1326,10,,2342.199999988079,329648.6999999881,7717,VNB,B,9
10,test,4,1.0,1-Back,1.0,m,Thu Dec 11 2025 16:22:58 GMT-0600 (Central Standard Time),334190.3000000119,005_o_f_n_a.png,O,m,1177,11,,2193.100000023842,331997.1999999881,7717,VNB,B,10
10,test,4,0.0,1-Back,0.0,m,Thu Dec 11 2025 16:22:58 GMT-0600 (Central Standard Time),337224.1999999881,011_m_f_d_a.png,O,None,2017,12,,3031.0,334193.1999999881,7717,VNB,B,11
11,test,4,0.0,1-Back,1.0,m,Thu Dec 11 2025 16:22:58 GMT-0600 (Central Standard Time),339705.6999999881,020_y_f_n_a.png,O,m,1450,13,,2470.300000011921,337235.39999997616,7717,VNB,B,12
12,test,4,0.0,1-Back,1.0,m,Thu Dec 11 2025 16:22:58 GMT-0600 (Central Standard Time),341588.59999996424,005_o_f_d_a.png,O,m,857,14,,1873.7999999523163,339714.8000000119,7717,VNB,B,13
13,test,4,0.0,1-Back,1.0,m,Thu Dec 11 2025 16:22:58 GMT-0600 (Central Standard Time),343637.89999997616,020_y_f_h_a.png,O,m,1020,15,,2042.3999999761581,341595.5,7717,VNB,B,14
14,test,4,1.0,1-Back,1.0,z,Thu Dec 11 2025 16:22:58 GMT-0600 (Central Standard Time),345587.5,007_m_m_h_a.png,O,z,933,16,,1942.800000011921,343644.6999999881,7717,VNB,B,15
15,test,4,0.0,1-Back,1.0,m,Thu Dec 11 2025 16:22:58 GMT-0600 (Central Standard Time),347818.09999996424,004_o_m_n_a.png,O,m,1213,17,,2221.699999988079,345596.39999997616,7717,VNB,B,16
16,test,4,1.0,1-Back,1.0,z,Thu Dec 11 2025 16:22:58 GMT-0600 (Central Standard Time),350253.09999996424,016_y_m_n_a.png,O,z,1406,18,,2431.2999999523163,347821.8000000119,7717,VNB,B,17
0,test,5,1.0,1-Back,,,Thu Dec 11 2025 16:22:58 GMT-0600 (Central Standard Time),350253.09999996424,004_o_m_n_a.png,O,space,1148,1,,2431.2999999523163,347821.8000000119,7717,VNB,B,0
1,test,5,1.0,1-Back,1.0,m,Thu Dec 11 2025 16:22:58 GMT-0600 (Central Standard Time),355566.8000000119,005_o_f_h_a.png,O,m,1102,2,,2121.300000011921,353445.5,7717,VNB,B,1
2,test,5,0.0,1-Back,1.0,m,Thu Dec 11 2025 16:22:58 GMT-0600 (Central Standard Time),357816.5,016_y_m_d_a.png,O,m,1226,3,,2242.400000035763,355574.09999996424,7717,VNB,B,2
3,test,5,0.0,1-Back,1.0,z,Thu Dec 11 2025 16:22:58 GMT-0600 (Central Standard Time),359833.89999997616,004_o_m_d_a.png,O,z,991,4,,2007.5,357826.39999997616,7717,VNB,B,3
4,test,5,0.0,1-Back,1.0,m,Thu Dec 11 2025 16:22:58 GMT-0600 (Central Standard Time),362448.3000000119,011_m_f_h_a.png,O,m,1585,5,,2602.600000023842,359845.6999999881,7717,VNB,B,4
5,test,5,0.0,1-Back,1.0,m,Thu Dec 11 2025 16:22:58 GMT-0600 (Central Standard Time),364863.8000000119,020_y_f_n_a.png,O,m,1394,6,,2404.7000000476837,362459.09999996424,7717,VNB,B,5
6,test,5,1.0,1-Back,1.0,z,Thu Dec 11 2025 16:22:58 GMT-0600 (Central Standard Time),367181.5,005_o_f_n_a.png,O,z,1297,7,,2308.5,364873.0,7717,VNB,B,6
7,test,5,0.0,1-Back,1.0,m,Thu Dec 11 2025 16:22:58 GMT-0600 (Central Standard Time),369978.89999997616,011_m_f_d_a.png,O,m,1773,8,,2788.0,367190.89999997616,7717,VNB,B,7
8,test,5,0.0,1-Back,1.0,m,Thu Dec 11 2025 16:22:58 GMT-0600 (Central Standard Time),372562.39999997616,016_y_m_h_a.png,O,m,1558,9,,2570.399999976158,369992.0,7717,VNB,B,8
9,test,5,0.0,1-Back,1.0,m,Thu Dec 11 2025 16:22:58 GMT-0600 (Central Standard Time),374511.0,020_y_f_d_a.png,O,m,918,10,,1934.6000000238419,372576.39999997616,7717,VNB,B,9
10,test,5,0.0,1-Back,1.0,m,Thu Dec 11 2025 16:22:58 GMT-0600 (Central Standard Time),376443.89999997616,007_m_m_n_a.png,O,m,898,11,,1925.300000011921,374518.59999996424,7717,VNB,B,10
11,test,5,1.0,1-Back,1.0,z,Thu Dec 11 2025 16:22:58 GMT-0600 (Central Standard Time),378660.39999997616,011_m_f_n_a.png,O,z,1198,12,,2208.699999988079,376451.6999999881,7717,VNB,B,11
12,test,5,0.0,1-Back,1.0,m,Thu Dec 11 2025 16:22:58 GMT-0600 (Central Standard Time),380892.1999999881,004_o_m_h_a.png,O,m,1213,13,,2223.199999988079,378669.0,7717,VNB,B,12
13,test,5,0.0,1-Back,1.0,z,Thu Dec 11 2025 16:22:58 GMT-0600 (Central Standard Time),383641.0,007_m_m_h_a.png,O,z,1725,14,,2738.900000035763,380902.09999996424,7717,VNB,B,13
14,test,5,1.0,1-Back,1.0,m,Thu Dec 11 2025 16:22:58 GMT-0600 (Central Standard Time),385524.3000000119,005_o_f_d_a.png,O,m,851,15,,1873.2000000476837,383651.09999996424,7717,VNB,B,14
15,test,5,0.0,1-Back,1.0,m,Thu Dec 11 2025 16:22:58 GMT-0600 (Central Standard Time),387358.6999999881,016_y_m_n_a.png,O,m,814,16,,1825.800000011921,385532.89999997616,7717,VNB,B,15
16,test,5,0.0,1-Back,1.0,m,Thu Dec 11 2025 16:22:58 GMT-0600 (Central Standard Time),389075.3000000119,020_y_f_h_a.png,O,m,701,17,,1711.800000011921,387363.5,7717,VNB,B,16
17,test,5,0.0,1-Back,1.0,m,Thu Dec 11 2025 16:22:58 GMT-0600 (Central Standard Time),390706.5,007_m_m_d_a.png,O,m,615,18,,1621.6000000238419,389084.89999997616,7717,VNB,B,17
0,prac,1,0.0,2-Back,,,Thu Dec 11 2025 16:22:58 GMT-0600 (Central Standard Time),390706.5,011_m_f_n_a.png,O,space,3373,1,,1621.6000000238419,389084.89999997616,7717,VNB,B,0
0,prac,1,0.0,2-Back,,,Thu Dec 11 2025 16:22:58 GMT-0600 (Central Standard Time),390706.5,005_o_f_h_a.png,O,space,3373,2,,1621.6000000238419,389084.89999997616,7717,VNB,B,0
1,prac,1,0.0,2-Back,1.0,m,Thu Dec 11 2025 16:22:58 GMT-0600 (Central Standard Time),504203.5,004_o_m_d_a.png,O,m,1856,3,,2707.100000023842,501496.39999997616,7717,VNB,B,1
2,prac,1,1.0,2-Back,1.0,z,Thu Dec 11 2025 16:22:58 GMT-0600 (Central Standard Time),506472.89999997616,007_m_m_h_a.png,O,z,1414,4,,2256.099999964237,504216.8000000119,7717,VNB,B,2
2,prac,1,0.0,2-Back,0.0,m,Thu Dec 11 2025 16:22:58 GMT-0600 (Central Standard Time),509317.6999999881,020_y_f_n_a.png,O,None,2014,5,,2833.100000023842,506484.59999996424,7717,VNB,B,3
3,prac,1,1.0,2-Back,1.0,z,Thu Dec 11 2025 16:22:58 GMT-0600 (Central Standard Time),511634.59999996424,004_o_m_h_a.png,O,z,1469,6,,2309.7999999523163,509324.8000000119,7717,VNB,B,4
4,prac,1,1.0,2-Back,1.0,z,Thu Dec 11 2025 16:22:58 GMT-0600 (Central Standard Time),514117.09999996424,016_y_m_n_a.png,O,z,1598,7,,2472.199999988079,511644.89999997616,7717,VNB,B,5
5,prac,1,0.0,2-Back,1.0,m,Thu Dec 11 2025 16:22:58 GMT-0600 (Central Standard Time),516283.1999999881,011_m_f_d_a.png,O,m,1289,8,,2154.0,514129.1999999881,7717,VNB,B,6
6,prac,1,0.0,2-Back,1.0,m,Thu Dec 11 2025 16:22:58 GMT-0600 (Central Standard Time),519081.09999996424,005_o_f_d_a.png,O,m,1943,9,,2788.5,516292.59999996424,7717,VNB,B,7
7,prac,1,0.0,2-Back,1.0,m,Thu Dec 11 2025 16:22:58 GMT-0600 (Central Standard Time),521113.89999997616,007_m_m_h_a.png,O,m,1245,10,,2022.0,519091.89999997616,7717,VNB,B,8
8,prac,1,1.0,2-Back,1.0,z,Thu Dec 11 2025 16:22:58 GMT-0600 (Central Standard Time),523382.5,020_y_f_d_a.png,O,z,1397,11,,2263.0,521119.5,7717,VNB,B,9
9,prac,1,0.0,2-Back,1.0,m,Thu Dec 11 2025 16:22:58 GMT-0600 (Central Standard Time),525829.0999999642,004_o_m_n_a.png,O,m,1597,12,,2433.699999988079,523395.39999997616,7717,VNB,B,10
0,prac,2,0.0,2-Back,,,Thu Dec 11 2025 16:22:58 GMT-0600 (Central Standard Time),525829.0999999642,011_m_f_n_a.png,O,a,10528,1,,2433.699999988079,523395.39999997616,7717,VNB,B,0
0,prac,2,0.0,2-Back,,,Thu Dec 11 2025 16:22:58 GMT-0600 (Central Standard Time),525829.0999999642,005_o_f_h_a.png,O,a,10528,2,,2433.699999988079,523395.39999997616,7717,VNB,B,0
1,prac,2,0.0,2-Back,1.0,m,Thu Dec 11 2025 16:22:58 GMT-0600 (Central Standard Time),544239.6999999881,004_o_m_d_a.png,O,m,1818,3,,2653.300000011921,541586.3999999762,7717,VNB,B,1
2,prac,2,1.0,2-Back,1.0,z,Thu Dec 11 2025 16:22:58 GMT-0600 (Central Standard Time),546957.8999999762,007_m_m_h_a.png,O,z,1945,4,,2710.399999976158,544247.5,7717,VNB,B,2
3,prac,2,0.0,2-Back,1.0,m,Thu Dec 11 2025 16:22:58 GMT-0600 (Central Standard Time),549391.0999999642,020_y_f_n_a.png,O,m,1599,5,,2423.599999964237,546967.5,7717,VNB,B,3
3,prac,2,1.0,2-Back,0.0,z,Thu Dec 11 2025 16:22:58 GMT-0600 (Central Standard Time),552056.3000000119,004_o_m_h_a.png,O,m,1832,6,,2653.400000035763,549402.8999999762,7717,VNB,B,4
4,prac,2,1.0,2-Back,1.0,z,Thu Dec 11 2025 16:22:58 GMT-0600 (Central Standard Time),554886.8999999762,016_y_m_n_a.png,O,z,1955,7,,2818.5,552068.3999999762,7717,VNB,B,5
5,prac,2,0.0,2-Back,1.0,m,Thu Dec 11 2025 16:22:58 GMT-0600 (Central Standard Time),557271.3000000119,011_m_f_d_a.png,O,m,1509,8,,2377.5,554893.8000000119,7717,VNB,B,6
6,prac,2,0.0,2-Back,1.0,m,Thu Dec 11 2025 16:22:58 GMT-0600 (Central Standard Time),559484.0999999642,005_o_f_d_a.png,O,m,1348,9,,2202.0,557282.0999999642,7717,VNB,B,7
7,prac,2,0.0,2-Back,1.0,m,Thu Dec 11 2025 16:22:58 GMT-0600 (Central Standard Time),561667.5,007_m_m_h_a.png,O,m,1396,10,,2175.400000035763,559492.0999999642,7717,VNB,B,8
7,prac,2,1.0,2-Back,0.0,z,Thu Dec 11 2025 16:22:58 GMT-0600 (Central Standard Time),563951.5,020_y_f_d_a.png,O,m,1432,11,,2273.699999988079,561677.8000000119,7717,VNB,B,9
7,prac,2,0.0,2-Back,0.0,m,Thu Dec 11 2025 16:22:58 GMT-0600 (Central Standard Time),566785.8000000119,004_o_m_n_a.png,O,None,2004,12,,2823.7000000476837,563962.0999999642,7717,VNB,B,10
0,test,1,0.0,2-Back,,,Thu Dec 11 2025 16:22:58 GMT-0600 (Central Standard Time),566785.8000000119,016_y_m_h_a.png,O,space,4302,1,,2823.7000000476837,563962.0999999642,7717,VNB,B,0
0,test,1,0.0,2-Back,,,Thu Dec 11 2025 16:22:58 GMT-0600 (Central Standard Time),566785.8000000119,005_o_f_n_a.png,O,space,4302,2,,2823.7000000476837,563962.0999999642,7717,VNB,B,0
1,test,1,0.0,2-Back,1.0,z,Thu Dec 11 2025 16:22:58 GMT-0600 (Central Standard Time),586445.8000000119,004_o_m_h_a.png,O,z,1349,3,,2353.800000011921,584092.0,7717,VNB,B,1
1,test,1,0.0,2-Back,0.0,m,Thu Dec 11 2025 16:22:58 GMT-0600 (Central Standard Time),589476.3000000119,011_m_f_d_a.png,O,None,2015,4,,3019.600000023842,586456.6999999881,7717,VNB,B,2
2,test,1,1.0,2-Back,1.0,m,Thu Dec 11 2025 16:22:58 GMT-0600 (Central Standard Time),591743.6999999881,016_y_m_n_a.png,O,m,1246,5,,2255.0,589488.6999999881,7717,VNB,B,3
2,test,1,0.0,2-Back,0.0,z,Thu Dec 11 2025 16:22:58 GMT-0600 (Central Standard Time),594224.6999999881,020_y_f_d_a.png,O,m,1459,6,,2470.899999976158,591753.8000000119,7717,VNB,B,4
2,test,1,0.0,2-Back,0.0,m,Thu Dec 11 2025 16:22:58 GMT-0600 (Central Standard Time),596491.0,007_m_m_h_a.png,O,z,1242,7,,2261.0,594230.0,7717,VNB,B,5
3,test,1,1.0,2-Back,1.0,m,Thu Dec 11 2025 16:22:58 GMT-0600 (Central Standard Time),598639.6999999881,020_y_f_n_a.png,O,m,1119,8,,2137.199999988079,596502.5,7717,VNB,B,6
4,test,1,0.0,2-Back,1.0,z,Thu Dec 11 2025 16:22:58 GMT-0600 (Central Standard Time),600872.1999999881,005_o_f_h_a.png,O,z,1210,9,,2222.100000023842,598650.0999999642,7717,VNB,B,7
5,test,1,0.0,2-Back,1.0,m,Thu Dec 11 2025 16:22:58 GMT-0600 (Central Standard Time),603404.8000000119,004_o_m_d_a.png,O,m,1502,10,,2521.400000035763,600883.3999999762,7717,VNB,B,8
5,test,1,1.0,2-Back,0.0,m,Thu Dec 11 2025 16:22:58 GMT-0600 (Central Standard Time),606437.3000000119,007_m_m_d_a.png,O,None,2015,11,,3024.300000011921,603413.0,7717,VNB,B,9
5,test,1,0.0,2-Back,0.0,m,Thu Dec 11 2025 16:22:58 GMT-0600 (Central Standard Time),608919.8999999762,011_m_f_n_a.png,O,z,1460,12,,2471.300000011921,606448.5999999642,7717,VNB,B,10
6,test,1,0.0,2-Back,1.0,m,Thu Dec 11 2025 16:22:58 GMT-0600 (Central Standard Time),611352.3000000119,020_y_f_h_a.png,O,m,1402,13,,2420.100000023842,608932.1999999881,7717,VNB,B,11
7,test,1,0.0,2-Back,1.0,z,Thu Dec 11 2025 16:22:58 GMT-0600 (Central Standard Time),613451.8000000119,007_m_m_n_a.png,O,z,1079,14,,2091.100000023842,611360.6999999881,7717,VNB,B,12
8,test,1,0.0,2-Back,1.0,m,Thu Dec 11 2025 16:22:58 GMT-0600 (Central Standard Time),615750.3000000119,016_y_m_d_a.png,O,m,1278,15,,2295.2000000476837,613455.0999999642,7717,VNB,B,13
8,test,1,1.0,2-Back,0.0,m,Thu Dec 11 2025 16:22:58 GMT-0600 (Central Standard Time),618065.3000000119,011_m_f_h_a.png,O,z,1290,16,,2312.2000000476837,615753.0999999642,7717,VNB,B,14
8,test,1,0.0,2-Back,0.0,z,Thu Dec 11 2025 16:22:58 GMT-0600 (Central Standard Time),620566.0,005_o_f_d_a.png,O,m,1471,17,,2497.900000035763,618068.0999999642,7717,VNB,B,15
9,test,1,0.0,2-Back,1.0,m,Thu Dec 11 2025 16:22:58 GMT-0600 (Central Standard Time),623365.3999999762,004_o_m_n_a.png,O,m,1779,18,,2791.300000011921,620574.0999999642,7717,VNB,B,16
0,test,2,0.0,2-Back,,,Thu Dec 11 2025 16:22:58 GMT-0600 (Central Standard Time),623365.3999999762,007_m_m_h_a.png,O,space,965,1,,2791.300000011921,620574.0999999642,7717,VNB,B,0
0,test,2,0.0,2-Back,,,Thu Dec 11 2025 16:22:58 GMT-0600 (Central Standard Time),623365.3999999762,020_y_f_n_a.png,O,space,965,2,,2791.300000011921,620574.0999999642,7717,VNB,B,0
1,test,2,1.0,2-Back,1.0,z,Thu Dec 11 2025 16:22:58 GMT-0600 (Central Standard Time),632113.3999999762,005_o_f_h_a.png,O,z,1550,3,,2571.599999964237,629541.8000000119,7717,VNB,B,1
2,test,2,0.0,2-Back,1.0,m,Thu Dec 11 2025 16:22:58 GMT-0600 (Central Standard Time),635128.0999999642,004_o_m_d_a.png,O,m,1984,4,,3007.0,632121.0999999642,7717,VNB,B,2
3,test,2,0.0,2-Back,1.0,m,Thu Dec 11 2025 16:22:58 GMT-0600 (Central Standard Time),638076.8999999762,011_m_f_d_a.png,O,m,1921,5,,2939.899999976158,635137.0,7717,VNB,B,3
4,test,2,0.0,2-Back,1.0,m,Thu Dec 11 2025 16:22:58 GMT-0600 (Central Standard Time),641025.8999999762,016_y_m_h_a.png,O,m,1924,6,,2941.899999976158,638084.0,7717,VNB,B,4
5,test,2,0.0,2-Back,1.0,m,Thu Dec 11 2025 16:22:58 GMT-0600 (Central Standard Time),643608.0,005_o_f_n_a.png,O,m,1558,7,,2572.400000035763,641035.5999999642,7717,VNB,B,5
6,test,2,1.0,2-Back,1.0,z,Thu Dec 11 2025 16:22:58 GMT-0600 (Central Standard Time),646027.3000000119,004_o_m_h_a.png,O,z,1402,8,,2411.2000000476837,643616.0999999642,7717,VNB,B,6
7,test,2,0.0,2-Back,1.0,m,Thu Dec 11 2025 16:22:58 GMT-0600 (Central Standard Time),648358.8000000119,020_y_f_d_a.png,O,m,1304,9,,2326.5,646032.3000000119,7717,VNB,B,7
8,test,2,0.0,2-Back,1.0,m,Thu Dec 11 2025 16:22:58 GMT-0600 (Central Standard Time),651122.5,016_y_m_d_a.png,O,m,1740,10,,2756.900000035763,648365.5999999642,7717,VNB,B,8
9,test,2,0.0,2-Back,1.0,m,Thu Dec 11 2025 16:22:58 GMT-0600 (Central Standard Time),653789.0999999642,007_m_m_n_a.png,O,m,1634,11,,2658.099999964237,651131.0,7717,VNB,B,9
10,test,2,0.0,2-Back,1.0,m,Thu Dec 11 2025 16:22:58 GMT-0600 (Central Standard Time),656322.6999999881,011_m_f_h_a.png,O,m,1516,12,,2526.199999988079,653796.5,7717,VNB,B,10
10,test,2,1.0,2-Back,0.0,z,Thu Dec 11 2025 16:22:58 GMT-0600 (Central Standard Time),658420.5999999642,004_o_m_n_a.png,O,m,1079,13,,2092.199999988079,656328.3999999762,7717,VNB,B,11
11,test,2,0.0,2-Back,1.0,m,Thu Dec 11 2025 16:22:58 GMT-0600 (Central Standard Time),661103.5999999642,005_o_f_d_a.png,O,m,1660,14,,2677.7999999523163,658425.8000000119,7717,VNB,B,12
11,test,2,0.0,2-Back,0.0,m,Thu Dec 11 2025 16:22:58 GMT-0600 (Central Standard Time),664137.0999999642,020_y_f_h_a.png,O,None,2016,15,,3021.0,661116.0999999642,7717,VNB,B,13
12,test,2,0.0,2-Back,1.0,z,Thu Dec 11 2025 16:22:58 GMT-0600 (Central Standard Time),666653.1999999881,007_m_m_d_a.png,O,z,1489,16,,2504.800000011921,664148.3999999762,7717,VNB,B,14
13,test,2,0.0,2-Back,1.0,m,Thu Dec 11 2025 16:22:58 GMT-0600 (Central Standard Time),669301.0999999642,016_y_m_n_a.png,O,m,1633,17,,2636.699999988079,666664.3999999762,7717,VNB,B,15
14,test,2,1.0,2-Back,1.0,m,Thu Dec 11 2025 16:22:58 GMT-0600 (Central Standard Time),671666.3000000119,011_m_f_n_a.png,O,m,1347,18,,2359.0,669307.3000000119,7717,VNB,B,16
0,test,3,1.0,2-Back,,,Thu Dec 11 2025 16:22:58 GMT-0600 (Central Standard Time),671666.3000000119,004_o_m_n_a.png,O,space,3718,1,,2359.0,669307.3000000119,7717,VNB,B,0
0,test,3,1.0,2-Back,,,Thu Dec 11 2025 16:22:58 GMT-0600 (Central Standard Time),671666.3000000119,005_o_f_d_a.png,O,space,3718,2,,2359.0,669307.3000000119,7717,VNB,B,0
1,test,3,0.0,2-Back,1.0,m,Thu Dec 11 2025 16:22:58 GMT-0600 (Central Standard Time),683213.5,020_y_f_h_a.png,O,m,1748,3,,2771.300000011921,680442.1999999881,7717,VNB,B,1
1,test,3,0.0,2-Back,0.0,z,Thu Dec 11 2025 16:22:58 GMT-0600 (Central Standard Time),686012.1999999881,011_m_f_d_a.png,O,m,1772,4,,2792.300000011921,683219.8999999762,7717,VNB,B,2
1,test,3,1.0,2-Back,0.0,m,Thu Dec 11 2025 16:22:58 GMT-0600 (Central Standard Time),688994.3000000119,016_y_m_n_a.png,O,z,1959,5,,2971.300000011921,686023.0,7717,VNB,B,3
2,test,3,0.0,2-Back,1.0,m,Thu Dec 11 2025 16:22:58 GMT-0600 (Central Standard Time),691478.5,004_o_m_h_a.png,O,m,1448,6,,2474.5,689004.0,7717,VNB,B,4
2,test,3,0.0,2-Back,0.0,z,Thu Dec 11 2025 16:22:58 GMT-0600 (Central Standard Time),694509.8999999762,020_y_f_n_a.png,O,None,2016,7,,3023.099999964237,691486.8000000119,7717,VNB,B,5
3,test,3,1.0,2-Back,1.0,m,Thu Dec 11 2025 16:22:58 GMT-0600 (Central Standard Time),696826.8000000119,007_m_m_d_a.png,O,m,1284,8,,2309.0,694517.8000000119,7717,VNB,B,6
4,test,3,0.0,2-Back,1.0,m,Thu Dec 11 2025 16:22:58 GMT-0600 (Central Standard Time),698874.0999999642,016_y_m_d_a.png,O,m,1024,9,,2036.8999999761581,696837.1999999881,7717,VNB,B,7
4,test,3,0.0,2-Back,0.0,m,Thu Dec 11 2025 16:22:58 GMT-0600 (Central Standard Time),701157.5999999642,005_o_f_h_a.png,O,z,1263,10,,2276.399999976158,698881.1999999881,7717,VNB,B,8
5,test,3,1.0,2-Back,1.0,m,Thu Dec 11 2025 16:22:58 GMT-0600 (Central Standard Time),703290.8999999762,011_m_f_n_a.png,O,m,1107,11,,2125.099999964237,701165.8000000119,7717,VNB,B,9
5,test,3,1.0,2-Back,0.0,z,Thu Dec 11 2025 16:22:58 GMT-0600 (Central Standard Time),705873.5,007_m_m_h_a.png,O,m,1559,12,,2574.100000023842,703299.3999999762,7717,VNB,B,10
6,test,3,0.0,2-Back,1.0,m,Thu Dec 11 2025 16:22:58 GMT-0600 (Central Standard Time),707738.6999999881,020_y_f_d_a.png,O,m,834,13,,1857.3999999761581,705881.3000000119,7717,VNB,B,11
6,test,3,0.0,2-Back,0.0,m,Thu Dec 11 2025 16:22:58 GMT-0600 (Central Standard Time),710788.0,005_o_f_n_a.png,O,None,2016,14,,3033.100000023842,707754.8999999762,7717,VNB,B,12
6,test,3,0.0,2-Back,0.0,z,Thu Dec 11 2025 16:22:58 GMT-0600 (Central Standard Time),712653.8000000119,004_o_m_d_a.png,O,m,835,15,,1857.2000000476837,710796.5999999642,7717,VNB,B,13
6,test,3,1.0,2-Back,0.0,m,Thu Dec 11 2025 16:22:58 GMT-0600 (Central Standard Time),715586.1999999881,011_m_f_h_a.png,O,z,1908,16,,2921.600000023842,712664.5999999642,7717,VNB,B,14
6,test,3,0.0,2-Back,0.0,m,Thu Dec 11 2025 16:22:58 GMT-0600 (Central Standard Time),718618.5,007_m_m_n_a.png,O,None,2015,17,,3024.100000023842,715594.3999999762,7717,VNB,B,15
6,test,3,0.0,2-Back,0.0,z,Thu Dec 11 2025 16:22:58 GMT-0600 (Central Standard Time),720735.5,016_y_m_h_a.png,O,m,1087,18,,2109.0,718626.5,7717,VNB,B,16
0,test,4,0.0,2-Back,,,Thu Dec 11 2025 16:22:58 GMT-0600 (Central Standard Time),720735.5,011_m_f_n_a.png,O,space,931,1,,2109.0,718626.5,7717,VNB,B,0
0,test,4,0.0,2-Back,,,Thu Dec 11 2025 16:22:58 GMT-0600 (Central Standard Time),720735.5,004_o_m_n_a.png,O,space,931,2,,2109.0,718626.5,7717,VNB,B,0
1,test,4,1.0,2-Back,1.0,m,Thu Dec 11 2025 16:22:58 GMT-0600 (Central Standard Time),729180.3999999762,016_y_m_h_a.png,O,m,1311,3,,2321.199999988079,726859.1999999881,7717,VNB,B,1
1,test,4,1.0,2-Back,0.0,m,Thu Dec 11 2025 16:22:58 GMT-0600 (Central Standard Time),732213.8000000119,005_o_f_d_a.png,O,None,2015,4,,3029.800000011921,729184.0,7717,VNB,B,2
1,test,4,0.0,2-Back,0.0,z,Thu Dec 11 2025 16:22:58 GMT-0600 (Central Standard Time),734847.3000000119,004_o_m_h_a.png,O,m,1603,5,,2623.100000023842,732224.1999999881,7717,VNB,B,3
1,test,4,0.0,2-Back,0.0,m,Thu Dec 11 2025 16:22:58 GMT-0600 (Central Standard Time),736762.6999999881,007_m_m_n_a.png,O,z,898,6,,1907.199999988079,734855.5,7717,VNB,B,4
2,test,4,0.0,2-Back,1.0,m,Thu Dec 11 2025 16:22:58 GMT-0600 (Central Standard Time),739145.6999999881,011_m_f_d_a.png,O,m,1366,7,,2372.5,736773.1999999881,7717,VNB,B,5
2,test,4,0.0,2-Back,0.0,z,Thu Dec 11 2025 16:22:58 GMT-0600 (Central Standard Time),741478.8000000119,020_y_f_n_a.png,O,m,1313,8,,2329.100000023842,739149.6999999881,7717,VNB,B,6
2,test,4,1.0,2-Back,0.0,m,Thu Dec 11 2025 16:22:58 GMT-0600 (Central Standard Time),743093.3000000119,005_o_f_h_a.png,O,z,595,9,,1606.800000011921,741486.5,7717,VNB,B,7
3,test,4,0.0,2-Back,1.0,m,Thu Dec 11 2025 16:22:58 GMT-0600 (Central Standard Time),745426.6999999881,007_m_m_h_a.png,O,m,1316,10,,2322.899999976158,743103.8000000119,7717,VNB,B,8
4,test,4,0.0,2-Back,1.0,m,Thu Dec 11 2025 16:22:58 GMT-0600 (Central Standard Time),747776.6999999881,020_y_f_d_a.png,O,m,1319,11,,2342.699999988079,745434.0,7717,VNB,B,9
5,test,4,0.0,2-Back,1.0,m,Thu Dec 11 2025 16:22:58 GMT-0600 (Central Standard Time),749808.3999999762,016_y_m_n_a.png,O,m,996,12,,2020.800000011921,747787.5999999642,7717,VNB,B,10
5,test,4,0.0,2-Back,0.0,z,Thu Dec 11 2025 16:22:58 GMT-0600 (Central Standard Time),752507.0999999642,004_o_m_d_a.png,O,m,1674,13,,2690.7999999523163,749816.3000000119,7717,VNB,B,11
6,test,4,1.0,2-Back,1.0,m,Thu Dec 11 2025 16:22:58 GMT-0600 (Central Standard Time),755456.0999999642,011_m_f_h_a.png,O,m,1918,14,,2937.7999999523163,752518.3000000119,7717,VNB,B,12
6,test,4,1.0,2-Back,0.0,m,Thu Dec 11 2025 16:22:58 GMT-0600 (Central Standard Time),757689.5,020_y_f_h_a.png,O,z,1208,15,,2223.199999988079,755466.3000000119,7717,VNB,B,13
6,test,4,0.0,2-Back,0.0,m,Thu Dec 11 2025 16:22:58 GMT-0600 (Central Standard Time),760388.1999999881,005_o_f_n_a.png,O,z,1682,16,,2688.5,757699.6999999881,7717,VNB,B,14
7,test,4,0.0,2-Back,1.0,m,Thu Dec 11 2025 16:22:58 GMT-0600 (Central Standard Time),763103.6999999881,016_y_m_d_a.png,O,m,1685,17,,2708.5,760395.1999999881,7717,VNB,B,15
8,test,4,1.0,2-Back,1.0,m,Thu Dec 11 2025 16:22:58 GMT-0600 (Central Standard Time),765337.0999999642,007_m_m_d_a.png,O,m,1200,18,,2222.0,763115.0999999642,7717,VNB,B,16
0,test,5,1.0,2-Back,,,Thu Dec 11 2025 16:22:58 GMT-0600 (Central Standard Time),765337.0999999642,020_y_f_d_a.png,O,space,952,1,,2222.0,763115.0999999642,7717,VNB,B,0
0,test,5,1.0,2-Back,,,Thu Dec 11 2025 16:22:58 GMT-0600 (Central Standard Time),765337.0999999642,005_o_f_h_a.png,O,space,952,2,,2222.0,763115.0999999642,7717,VNB,B,0
1,test,5,1.0,2-Back,1.0,z,Thu Dec 11 2025 16:22:58 GMT-0600 (Central Standard Time),774017.3000000119,004_o_m_d_a.png,O,z,1483,3,,2502.5,771514.8000000119,7717,VNB,B,1
1,test,5,1.0,2-Back,0.0,m,Thu Dec 11 2025 16:22:58 GMT-0600 (Central Standard Time),777051.5999999642,011_m_f_n_a.png,O,None,2017,4,,3024.399999976158,774027.1999999881,7717,VNB,B,2
1,test,5,0.0,2-Back,0.0,m,Thu Dec 11 2025 16:22:58 GMT-0600 (Central Standard Time),780084.0,007_m_m_h_a.png,O,None,2018,5,,3022.5,777061.5,7717,VNB,B,3
2,test,5,0.0,2-Back,1.0,z,Thu Dec 11 2025 16:22:58 GMT-0600 (Central Standard Time),782164.6999999881,020_y_f_n_a.png,O,z,1060,6,,2070.5,780094.1999999881,7717,VNB,B,4
2,test,5,0.0,2-Back,0.0,m,Thu Dec 11 2025 16:22:58 GMT-0600 (Central Standard Time),784448.1999999881,005_o_f_d_a.png,O,z,1253,7,,2276.699999988079,782171.5,7717,VNB,B,5
3,test,5,0.0,2-Back,1.0,m,Thu Dec 11 2025 16:22:58 GMT-0600 (Central Standard Time),786247.0,004_o_m_h_a.png,O,m,779,8,,1792.699999988079,784454.3000000119,7717,VNB,B,6
3,test,5,1.0,2-Back,0.0,z,Thu Dec 11 2025 16:22:58 GMT-0600 (Central Standard Time),788962.8000000119,011_m_f_d_a.png,O,m,1690,9,,2708.5,786254.3000000119,7717,VNB,B,7
4,test,5,0.0,2-Back,1.0,m,Thu Dec 11 2025 16:22:58 GMT-0600 (Central Standard Time),791679.1999999881,016_y_m_n_a.png,O,m,1693,10,,2706.5,788972.6999999881,7717,VNB,B,8
4,test,5,0.0,2-Back,0.0,m,Thu Dec 11 2025 16:22:58 GMT-0600 (Central Standard Time),794227.0999999642,007_m_m_n_a.png,O,z,1532,11,,2539.699999988079,791687.3999999762,7717,VNB,B,9
4,test,5,0.0,2-Back,0.0,m,Thu Dec 11 2025 16:22:58 GMT-0600 (Central Standard Time),796811.5,020_y_f_h_a.png,O,z,1567,12,,2578.5,794233.0,7717,VNB,B,10
5,test,5,0.0,2-Back,1.0,m,Thu Dec 11 2025 16:22:58 GMT-0600 (Central Standard Time),798742.8000000119,016_y_m_d_a.png,O,m,910,13,,1918.800000011921,796824.0,7717,VNB,B,11
5,test,5,1.0,2-Back,0.0,z,Thu Dec 11 2025 16:22:58 GMT-0600 (Central Standard Time),801008.8000000119,011_m_f_h_a.png,O,m,1243,14,,2260.0,798748.8000000119,7717,VNB,B,12
5,test,5,0.0,2-Back,0.0,m,Thu Dec 11 2025 16:22:58 GMT-0600 (Central Standard Time),803324.0999999642,004_o_m_n_a.png,O,z,1289,15,,2310.399999976158,801013.6999999881,7717,VNB,B,13
5,test,5,0.0,2-Back,0.0,m,Thu Dec 11 2025 16:22:58 GMT-0600 (Central Standard Time),806357.3000000119,007_m_m_d_a.png,O,None,2015,16,,3026.300000011921,803331.0,7717,VNB,B,14
5,test,5,0.0,2-Back,0.0,z,Thu Dec 11 2025 16:22:58 GMT-0600 (Central Standard Time),808622.3999999762,005_o_f_n_a.png,O,m,1244,17,,2258.099999964237,806364.3000000119,7717,VNB,B,15
6,test,5,1.0,2-Back,1.0,m,Thu Dec 11 2025 16:22:58 GMT-0600 (Central Standard Time),810639.5,016_y_m_h_a.png,O,m,994,18,,2007.0,808632.5,7717,VNB,B,16
