Number,acc_sum,block,block_c,block_cond,con_img,correct,correct_response,datetime,endtime,jitter,project,response,response_time,row_sel,session_number,start_end,starttime,subject_id,task,task_vers,trial
2,0,prac,1,A,circle.png,0,z,Tue Apr 07 2026 09:43:01 GMT-0500 (Central Daylight Time),88360.09999990463,2000,I,None,1516,2,1,4292.199999928474,84067.89999997616,8102,NTS,A,1
3,1,prac,1,A,circle.png,1,z,Tue Apr 07 2026 09:43:01 GMT-0500 (Central Daylight Time),91442.59999990463,1200,I,z,1095,3,1,3075.1999999284744,88367.39999997616,8102,NTS,A,2
9,1,prac,1,A,circle.png,0,m,Tue Apr 07 2026 09:43:01 GMT-0500 (Central Daylight Time),95241.29999995232,1500,I,None,1516,8,1,3793.100000023842,91448.19999992847,8102,NTS,A,3
3,2,prac,1,A,circle.png,1,z,Tue Apr 07 2026 09:43:01 GMT-0500 (Central Daylight Time),98607.0,1200,I,z,1261,3,1,3359.5,95247.5,8102,NTS,A,4
8,2,prac,1,A,circle.png,0,m,Tue Apr 07 2026 09:43:01 GMT-0500 (Central Daylight Time),102123.29999995232,1600,I,z,1121,7,1,3509.399999976158,98613.89999997616,8102,NTS,A,5
7,2,prac,1,A,circle.png,0,m,Tue Apr 07 2026 09:43:01 GMT-0500 (Central Daylight Time),106121.29999995232,1700,I,None,1516,6,1,3992.0,102129.29999995232,8102,NTS,A,6
4,2,prac,1,A,circle.png,0,z,Tue Apr 07 2026 09:43:01 GMT-0500 (Central Daylight Time),109820.09999990463,1400,I,None,1516,4,1,3693.2999999523163,106126.79999995232,8102,NTS,A,7
9,2,prac,1,A,circle.png,0,m,Tue Apr 07 2026 09:43:01 GMT-0500 (Central Daylight Time),113619.0,1500,I,None,1515,8,1,3793.4000000953674,109825.59999990463,8102,NTS,A,8
7,2,prac,1,A,circle.png,0,m,Tue Apr 07 2026 09:43:01 GMT-0500 (Central Daylight Time),117617.5,1700,I,None,1515,6,1,3993.4000000953674,113624.09999990463,8102,NTS,A,9
6,2,prac,1,A,circle.png,0,m,Tue Apr 07 2026 09:43:01 GMT-0500 (Central Daylight Time),121816.09999990463,1900,I,None,1516,5,1,4193.199999928474,117622.89999997616,8102,NTS,A,10
1,2,prac,1,A,circle.png,0,z,Tue Apr 07 2026 09:43:01 GMT-0500 (Central Daylight Time),125115.29999995232,1000,I,None,1516,1,1,3293.399999976158,121821.89999997616,8102,NTS,A,11
1,3,prac,1,A,circle.png,1,z,Tue Apr 07 2026 09:43:01 GMT-0500 (Central Daylight Time),127331.19999992847,1000,I,z,422,1,1,2210.600000023842,125120.59999990463,8102,NTS,A,12
4,1,prac,2,A,circle.png,1,z,Tue Apr 07 2026 09:43:01 GMT-0500 (Central Daylight Time),137028.19999992847,1400,I,z,911,4,1,3093.6999999284744,133934.5,8102,NTS,A,1
9,2,prac,2,A,circle.png,1,m,Tue Apr 07 2026 09:43:01 GMT-0500 (Central Daylight Time),139760.79999995232,1500,I,m,449,8,1,2726.2999999523163,137034.5,8102,NTS,A,2
8,3,prac,2,A,circle.png,1,m,Tue Apr 07 2026 09:43:01 GMT-0500 (Central Daylight Time),142709.69999992847,1600,I,m,560,7,1,2942.6999999284744,139767.0,8102,NTS,A,3
6,4,prac,2,A,circle.png,1,m,Tue Apr 07 2026 09:43:01 GMT-0500 (Central Daylight Time),146025.79999995232,1900,I,m,632,5,1,3310.7999999523163,142715.0,8102,NTS,A,4
9,5,prac,2,A,circle.png,1,m,Tue Apr 07 2026 09:43:01 GMT-0500 (Central Daylight Time),148857.79999995232,1500,I,m,539,8,1,2827.100000023842,146030.69999992847,8102,NTS,A,5
1,6,prac,2,A,circle.png,1,z,Tue Apr 07 2026 09:43:01 GMT-0500 (Central Daylight Time),151123.79999995232,1000,I,z,479,1,1,2259.7999999523163,148864.0,8102,NTS,A,6
2,7,prac,2,A,circle.png,1,z,Tue Apr 07 2026 09:43:01 GMT-0500 (Central Daylight Time),154489.69999992847,2000,I,z,573,2,1,3361.0,151128.69999992847,8102,NTS,A,7
1,8,prac,2,A,circle.png,1,z,Tue Apr 07 2026 09:43:01 GMT-0500 (Central Daylight Time),156822.0,1000,I,z,535,1,1,2327.100000023842,154494.89999997616,8102,NTS,A,8
7,9,prac,2,A,circle.png,1,m,Tue Apr 07 2026 09:43:01 GMT-0500 (Central Daylight Time),159854.29999995232,1700,I,m,533,6,1,3027.399999976158,156826.89999997616,8102,NTS,A,9
7,10,prac,2,A,circle.png,1,m,Tue Apr 07 2026 09:43:01 GMT-0500 (Central Daylight Time),162936.69999992847,1700,I,m,591,6,1,3077.1999999284744,159859.5,8102,NTS,A,10
3,11,prac,2,A,circle.png,1,z,Tue Apr 07 2026 09:43:01 GMT-0500 (Central Daylight Time),165502.69999992847,1200,I,z,568,3,1,2560.1999999284744,162942.5,8102,NTS,A,11
4,12,prac,2,A,circle.png,1,z,Tue Apr 07 2026 09:43:01 GMT-0500 (Central Daylight Time),168301.69999992847,1400,I,z,609,4,1,2793.600000023842,165508.09999990463,8102,NTS,A,12
4,1,prac,1,B,triangle.png,1,m,Tue Apr 07 2026 09:43:01 GMT-0500 (Central Daylight Time),202740.79999995232,1500,I,m,553,4,1,2841.899999976158,199898.89999997616,8102,NTS,A,1
4,2,prac,1,B,triangle.png,1,m,Tue Apr 07 2026 09:43:01 GMT-0500 (Central Daylight Time),205540.0,1500,I,m,513,4,1,2792.9000000953674,202747.09999990463,8102,NTS,A,2
2,2,prac,1,B,triangle.png,0,m,Tue Apr 07 2026 09:43:01 GMT-0500 (Central Daylight Time),208489.29999995232,1700,I,z,457,2,1,2944.399999976158,205544.89999997616,8102,NTS,A,3
6,3,prac,1,B,triangle.png,1,m,Tue Apr 07 2026 09:43:01 GMT-0500 (Central Daylight Time),211088.29999995232,1000,I,m,816,5,1,2593.5,208494.79999995232,8102,NTS,A,4
7,4,prac,1,B,triangle.png,1,z,Tue Apr 07 2026 09:43:01 GMT-0500 (Central Daylight Time),214639.79999995232,2000,I,z,673,6,1,3545.5,211094.29999995232,8102,NTS,A,5
2,5,prac,1,B,triangle.png,1,m,Tue Apr 07 2026 09:43:01 GMT-0500 (Central Daylight Time),218069.5,1700,I,m,935,2,1,3423.9000000953674,214645.59999990463,8102,NTS,A,6
1,6,prac,1,B,triangle.png,1,z,Tue Apr 07 2026 09:43:01 GMT-0500 (Central Daylight Time),221218.39999997616,1900,I,z,464,1,1,3144.2000000476837,218074.19999992847,8102,NTS,A,7
8,7,prac,1,B,triangle.png,1,m,Tue Apr 07 2026 09:43:01 GMT-0500 (Central Daylight Time),223884.09999990463,1200,I,m,671,7,1,2660.6999999284744,221223.39999997616,8102,NTS,A,8
9,7,prac,1,B,triangle.png,0,z,Tue Apr 07 2026 09:43:01 GMT-0500 (Central Daylight Time),226616.59999990463,1400,I,m,549,8,1,2727.7999999523163,223888.79999995232,8102,NTS,A,9
3,8,prac,1,B,triangle.png,1,z,Tue Apr 07 2026 09:43:01 GMT-0500 (Central Daylight Time),230248.89999997616,1600,I,z,1240,3,1,3627.2000000476837,226621.69999992847,8102,NTS,A,10
8,9,prac,1,B,triangle.png,1,m,Tue Apr 07 2026 09:43:01 GMT-0500 (Central Daylight Time),232864.79999995232,1200,I,m,625,7,1,2610.899999976158,230253.89999997616,8102,NTS,A,11
7,10,prac,1,B,triangle.png,1,z,Tue Apr 07 2026 09:43:01 GMT-0500 (Central Daylight Time),236230.5,2000,I,z,568,6,1,3361.100000023842,232869.39999997616,8102,NTS,A,12
6,1,test,1,A,circle.png,1,m,Tue Apr 07 2026 09:43:01 GMT-0500 (Central Daylight Time),266420.89999997616,1900,I,m,746,5,1,2662.899999976158,263758.0,8102,NTS,A,1
6,2,test,1,A,circle.png,1,m,Tue Apr 07 2026 09:43:01 GMT-0500 (Central Daylight Time),268870.09999990463,1900,I,m,519,5,1,2444.5999999046326,266425.5,8102,NTS,A,2
8,3,test,1,A,circle.png,1,m,Tue Apr 07 2026 09:43:01 GMT-0500 (Central Daylight Time),271052.59999990463,1600,I,m,555,7,1,2178.2999999523163,268874.2999999523,8102,NTS,A,3
4,4,test,1,A,circle.png,1,z,Tue Apr 07 2026 09:43:01 GMT-0500 (Central Daylight Time),273002.09999990463,1400,I,z,524,4,1,1945.5,271056.59999990463,8102,NTS,A,4
7,5,test,1,A,circle.png,1,m,Tue Apr 07 2026 09:43:01 GMT-0500 (Central Daylight Time),275201.7999999523,1700,I,m,483,6,1,2195.2999999523163,273006.5,8102,NTS,A,5
9,6,test,1,A,circle.png,1,m,Tue Apr 07 2026 09:43:01 GMT-0500 (Central Daylight Time),277267.39999997616,1500,I,m,547,8,1,2062.100000023842,275205.2999999523,8102,NTS,A,6
7,7,test,1,A,circle.png,1,m,Tue Apr 07 2026 09:43:01 GMT-0500 (Central Daylight Time),279616.7999999523,1700,I,m,617,6,1,2345.2000000476837,277271.59999990463,8102,NTS,A,7
2,8,test,1,A,circle.png,1,z,Tue Apr 07 2026 09:43:01 GMT-0500 (Central Daylight Time),281983.7999999523,2000,I,z,344,2,1,2363.2000000476837,279620.59999990463,8102,NTS,A,8
9,9,test,1,A,circle.png,1,m,Tue Apr 07 2026 09:43:01 GMT-0500 (Central Daylight Time),283982.09999990463,1500,I,m,470,8,1,1994.5,281987.59999990463,8102,NTS,A,9
9,10,test,1,A,circle.png,1,m,Tue Apr 07 2026 09:43:01 GMT-0500 (Central Daylight Time),286014.7999999523,1500,I,m,502,8,1,2029.0,283985.7999999523,8102,NTS,A,10
7,11,test,1,A,circle.png,1,m,Tue Apr 07 2026 09:43:01 GMT-0500 (Central Daylight Time),288680.39999997616,1700,I,m,942,6,1,2662.100000023842,286018.2999999523,8102,NTS,A,11
4,12,test,1,A,circle.png,1,z,Tue Apr 07 2026 09:43:01 GMT-0500 (Central Daylight Time),290696.59999990463,1400,I,z,593,4,1,2012.2999999523163,288684.2999999523,8102,NTS,A,12
8,13,test,1,A,circle.png,1,m,Tue Apr 07 2026 09:43:01 GMT-0500 (Central Daylight Time),292795.89999997616,1600,I,m,471,7,1,2095.7000000476837,290700.1999999285,8102,NTS,A,13
7,14,test,1,A,circle.png,1,m,Tue Apr 07 2026 09:43:01 GMT-0500 (Central Daylight Time),294978.5,1700,I,m,456,6,1,2179.0,292799.5,8102,NTS,A,14
1,15,test,1,A,circle.png,1,z,Tue Apr 07 2026 09:43:01 GMT-0500 (Central Daylight Time),296578.09999990463,1000,I,z,575,1,1,1596.0,294982.09999990463,8102,NTS,A,15
3,16,test,1,A,circle.png,1,z,Tue Apr 07 2026 09:43:01 GMT-0500 (Central Daylight Time),298344.1999999285,1200,I,z,542,3,1,1762.6000000238419,296581.59999990463,8102,NTS,A,16
3,17,test,1,A,circle.png,1,z,Tue Apr 07 2026 09:43:01 GMT-0500 (Central Daylight Time),300126.89999997616,1200,I,z,553,3,1,1778.5,298348.39999997616,8102,NTS,A,17
2,18,test,1,A,circle.png,1,z,Tue Apr 07 2026 09:43:01 GMT-0500 (Central Daylight Time),302676.1999999285,2000,I,z,522,2,1,2545.100000023842,300131.09999990463,8102,NTS,A,18
8,19,test,1,A,circle.png,1,m,Tue Apr 07 2026 09:43:01 GMT-0500 (Central Daylight Time),304808.89999997616,1600,I,m,500,7,1,2128.7000000476837,302680.1999999285,8102,NTS,A,19
1,20,test,1,A,circle.png,1,z,Tue Apr 07 2026 09:43:01 GMT-0500 (Central Daylight Time),306358.2999999523,1000,I,z,520,1,1,1545.5,304812.7999999523,8102,NTS,A,20
4,21,test,1,A,circle.png,1,z,Tue Apr 07 2026 09:43:01 GMT-0500 (Central Daylight Time),308626.59999990463,1400,I,z,834,4,1,2264.1999999284744,306362.39999997616,8102,NTS,A,21
8,22,test,1,A,circle.png,1,m,Tue Apr 07 2026 09:43:01 GMT-0500 (Central Daylight Time),310757.0,1600,I,m,504,7,1,2126.4000000953674,308630.59999990463,8102,NTS,A,22
2,23,test,1,A,circle.png,1,z,Tue Apr 07 2026 09:43:01 GMT-0500 (Central Daylight Time),313422.89999997616,2000,I,z,635,2,1,2662.0,310760.89999997616,8102,NTS,A,23
3,24,test,1,A,circle.png,1,z,Tue Apr 07 2026 09:43:01 GMT-0500 (Central Daylight Time),315188.89999997616,1200,I,z,537,3,1,1762.5,313426.39999997616,8102,NTS,A,24
9,0,test,1,B,triangle.png,0,z,Tue Apr 07 2026 09:43:01 GMT-0500 (Central Daylight Time),330700.6999999285,1900,I,m,630,16,1,2545.6999999284744,328155.0,8102,NTS,A,1
1,1,test,1,B,triangle.png,1,z,Tue Apr 07 2026 09:43:01 GMT-0500 (Central Daylight Time),333183.39999997616,1900,I,z,552,1,1,2478.3000000715256,330705.09999990463,8102,NTS,A,2
7,2,test,1,B,triangle.png,1,z,Tue Apr 07 2026 09:43:01 GMT-0500 (Central Daylight Time),335949.09999990463,2000,I,z,738,6,1,2761.6999999284744,333187.39999997616,8102,NTS,A,3
1,3,test,1,B,triangle.png,1,z,Tue Apr 07 2026 09:43:01 GMT-0500 (Central Daylight Time),338031.59999990463,1400,I,z,651,9,1,2078.899999976158,335952.6999999285,8102,NTS,A,4
8,4,test,1,B,triangle.png,1,m,Tue Apr 07 2026 09:43:01 GMT-0500 (Central Daylight Time),339665.6999999285,1200,I,m,417,7,1,1630.6000000238419,338035.09999990463,8102,NTS,A,5
2,5,test,1,B,triangle.png,1,m,Tue Apr 07 2026 09:43:01 GMT-0500 (Central Daylight Time),342080.5,1700,I,m,692,2,1,2410.7000000476837,339669.7999999523,8102,NTS,A,6
8,6,test,1,B,triangle.png,1,m,Tue Apr 07 2026 09:43:01 GMT-0500 (Central Daylight Time),344413.09999990463,1700,I,m,605,15,1,2328.7999999523163,342084.2999999523,8102,NTS,A,7
3,7,test,1,B,triangle.png,1,z,Tue Apr 07 2026 09:43:01 GMT-0500 (Central Daylight Time),347062.1999999285,2000,I,z,619,11,1,2645.100000023842,344417.09999990463,8102,NTS,A,8
6,8,test,1,B,triangle.png,1,m,Tue Apr 07 2026 09:43:01 GMT-0500 (Central Daylight Time),349094.89999997616,1500,I,m,502,13,1,2029.0,347065.89999997616,8102,NTS,A,9
7,9,test,1,B,triangle.png,1,z,Tue Apr 07 2026 09:43:01 GMT-0500 (Central Daylight Time),351327.6999999285,1600,I,z,611,14,1,2228.0,349099.6999999285,8102,NTS,A,10
4,10,test,1,B,triangle.png,1,m,Tue Apr 07 2026 09:43:01 GMT-0500 (Central Daylight Time),353426.89999997616,1500,I,m,581,4,1,2095.600000023842,351331.2999999523,8102,NTS,A,11
4,11,test,1,B,triangle.png,1,m,Tue Apr 07 2026 09:43:01 GMT-0500 (Central Daylight Time),355559.5,1000,I,m,1102,12,1,2129.0,353430.5,8102,NTS,A,12
6,12,test,1,B,triangle.png,1,m,Tue Apr 07 2026 09:43:01 GMT-0500 (Central Daylight Time),357692.1999999285,1000,I,m,1106,5,1,2129.100000023842,355563.09999990463,8102,NTS,A,13
1,13,test,1,B,triangle.png,1,z,Tue Apr 07 2026 09:43:01 GMT-0500 (Central Daylight Time),360058.2999999523,1900,I,z,449,1,1,2362.100000023842,357696.1999999285,8102,NTS,A,14
3,14,test,1,B,triangle.png,1,z,Tue Apr 07 2026 09:43:01 GMT-0500 (Central Daylight Time),362157.5,1600,I,z,471,3,1,2095.3000000715256,360062.1999999285,8102,NTS,A,15
4,15,test,1,B,triangle.png,1,m,Tue Apr 07 2026 09:43:01 GMT-0500 (Central Daylight Time),363773.59999990463,1000,I,m,596,12,1,1612.5999999046326,362161.0,8102,NTS,A,16
9,16,test,1,B,triangle.png,1,z,Tue Apr 07 2026 09:43:01 GMT-0500 (Central Daylight Time),366356.2999999523,1900,I,z,664,16,1,2578.7999999523163,363777.5,8102,NTS,A,17
4,17,test,1,B,triangle.png,1,m,Tue Apr 07 2026 09:43:01 GMT-0500 (Central Daylight Time),368605.39999997616,1500,I,m,729,4,1,2245.5,366359.89999997616,8102,NTS,A,18
1,18,test,1,B,triangle.png,1,z,Tue Apr 07 2026 09:43:01 GMT-0500 (Central Daylight Time),370488.2999999523,1400,I,z,459,9,1,1879.2000000476837,368609.09999990463,8102,NTS,A,19
7,19,test,1,B,triangle.png,1,z,Tue Apr 07 2026 09:43:01 GMT-0500 (Central Daylight Time),372737.59999990463,1600,I,z,617,14,1,2245.1999999284744,370492.39999997616,8102,NTS,A,20
9,20,test,1,B,triangle.png,1,z,Tue Apr 07 2026 09:43:01 GMT-0500 (Central Daylight Time),374887.0,1400,I,z,720,8,1,2145.5,372741.5,8102,NTS,A,21
2,21,test,1,B,triangle.png,1,m,Tue Apr 07 2026 09:43:01 GMT-0500 (Central Daylight Time),377302.59999990463,1700,I,m,687,2,1,2411.399999976158,374891.1999999285,8102,NTS,A,22
2,22,test,1,B,triangle.png,1,m,Tue Apr 07 2026 09:43:01 GMT-0500 (Central Daylight Time),379168.7999999523,1200,I,m,643,10,1,1862.6000000238419,377306.1999999285,8102,NTS,A,23
8,23,test,1,B,triangle.png,1,m,Tue Apr 07 2026 09:43:01 GMT-0500 (Central Daylight Time),381068.2999999523,1200,I,m,672,7,1,1895.7000000476837,379172.59999990463,8102,NTS,A,24
1,1,prac,1,C,circle.png,1,z,Tue Apr 07 2026 09:43:01 GMT-0500 (Central Daylight Time),424304.89999997616,1700,I,z,691,1,1,3177.899999976158,421127.0,8102,NTS,A,1
6,2,prac,1,C,circle.png,1,m,Tue Apr 07 2026 09:43:01 GMT-0500 (Central Daylight Time),427704.0,2000,I,m,600,5,1,3392.8000000715256,424311.1999999285,8102,NTS,A,2
1,3,prac,1,C,circle.png,1,z,Tue Apr 07 2026 09:43:01 GMT-0500 (Central Daylight Time),430919.2999999523,1700,I,z,718,1,1,3210.7000000476837,427708.59999990463,8102,NTS,A,3
3,4,prac,1,C,triangle.png,1,z,Tue Apr 07 2026 09:43:01 GMT-0500 (Central Daylight Time),434085.0,1500,I,z,878,3,1,3160.9000000953674,430924.09999990463,8102,NTS,A,4
3,5,prac,1,C,triangle.png,1,z,Tue Apr 07 2026 09:43:01 GMT-0500 (Central Daylight Time),436967.39999997616,1500,I,z,592,3,1,2877.5,434089.89999997616,8102,NTS,A,5
7,6,prac,1,C,triangle.png,1,z,Tue Apr 07 2026 09:43:01 GMT-0500 (Central Daylight Time),439816.59999990463,1200,I,z,850,6,1,2844.0,436972.59999990463,8102,NTS,A,6
8,7,prac,1,C,triangle.png,1,m,Tue Apr 07 2026 09:43:01 GMT-0500 (Central Daylight Time),442599.0,1400,I,m,585,7,1,2777.5,439821.5,8102,NTS,A,7
2,8,prac,1,C,triangle.png,1,m,Tue Apr 07 2026 09:43:01 GMT-0500 (Central Daylight Time),446031.39999997616,1600,I,m,1035,2,1,3427.100000023842,442604.2999999523,8102,NTS,A,8
4,8,prac,1,C,circle.png,0,z,Tue Apr 07 2026 09:43:01 GMT-0500 (Central Daylight Time),448763.7999999523,1000,I,m,938,4,1,2727.2000000476837,446036.59999990463,8102,NTS,A,9
6,9,prac,1,C,circle.png,1,m,Tue Apr 07 2026 09:43:01 GMT-0500 (Central Daylight Time),452345.7999999523,2000,I,m,798,5,1,3576.600000023842,448769.1999999285,8102,NTS,A,10
9,10,prac,1,C,circle.png,1,m,Tue Apr 07 2026 09:43:01 GMT-0500 (Central Daylight Time),456211.39999997616,1900,I,m,1172,8,1,3860.600000023842,452350.7999999523,8102,NTS,A,11
7,10,prac,1,C,triangle.png,0,z,Tue Apr 07 2026 09:43:01 GMT-0500 (Central Daylight Time),459177.09999990463,1200,I,m,982,6,1,2960.399999976158,456216.6999999285,8102,NTS,A,12
7,1,test,1,C,triangle.png,1,z,Tue Apr 07 2026 09:43:01 GMT-0500 (Central Daylight Time),506713.39999997616,1700,I,z,802,22,1,2530.5,504182.89999997616,8102,NTS,A,1
9,2,test,1,C,circle.png,1,m,Tue Apr 07 2026 09:43:01 GMT-0500 (Central Daylight Time),509078.1999999285,1500,I,m,837,24,1,2360.1999999284744,506718.0,8102,NTS,A,2
1,3,test,1,C,triangle.png,1,z,Tue Apr 07 2026 09:43:01 GMT-0500 (Central Daylight Time),511943.6999999285,1900,I,z,935,9,1,2861.2999999523163,509082.39999997616,8102,NTS,A,3
4,3,test,1,C,circle.png,0,z,Tue Apr 07 2026 09:43:01 GMT-0500 (Central Daylight Time),514876.39999997616,1400,I,None,1515,4,1,2928.600000023842,511947.7999999523,8102,NTS,A,4
9,4,test,1,C,triangle.png,1,z,Tue Apr 07 2026 09:43:01 GMT-0500 (Central Daylight Time),517492.09999990463,1400,I,z,1189,16,1,2611.6999999284744,514880.39999997616,8102,NTS,A,5
3,5,test,1,C,circle.png,1,z,Tue Apr 07 2026 09:43:01 GMT-0500 (Central Daylight Time),519791.5,1600,I,z,677,11,1,2294.7000000476837,517496.7999999523,8102,NTS,A,6
6,6,test,1,C,circle.png,1,m,Tue Apr 07 2026 09:43:01 GMT-0500 (Central Daylight Time),522874.0,1900,I,m,1150,21,1,3078.7000000476837,519795.2999999523,8102,NTS,A,7
8,7,test,1,C,triangle.png,1,m,Tue Apr 07 2026 09:43:01 GMT-0500 (Central Daylight Time),525206.3999999762,1600,I,m,704,7,1,2328.5,522877.89999997616,8102,NTS,A,8
1,8,test,1,C,circle.png,1,z,Tue Apr 07 2026 09:43:01 GMT-0500 (Central Daylight Time),527089.0999999046,1000,I,z,859,1,1,1878.7999999523163,525210.2999999523,8102,NTS,A,9
8,9,test,1,C,triangle.png,1,m,Tue Apr 07 2026 09:43:01 GMT-0500 (Central Daylight Time),529804.8999999762,1600,I,m,1096,23,1,2712.100000023842,527092.7999999523,8102,NTS,A,10
2,10,test,1,C,circle.png,1,z,Tue Apr 07 2026 09:43:01 GMT-0500 (Central Daylight Time),532504.0999999046,1700,I,z,969,18,1,2695.1999999284744,529808.8999999762,8102,NTS,A,11
3,11,test,1,C,triangle.png,1,z,Tue Apr 07 2026 09:43:01 GMT-0500 (Central Daylight Time),534786.7999999523,1200,I,z,1057,3,1,2278.899999976158,532507.8999999762,8102,NTS,A,12
2,12,test,1,C,circle.png,1,z,Tue Apr 07 2026 09:43:01 GMT-0500 (Central Daylight Time),537336.0,1700,I,z,819,10,1,2545.3000000715256,534790.6999999285,8102,NTS,A,13
8,12,test,1,C,circle.png,0,m,Tue Apr 07 2026 09:43:01 GMT-0500 (Central Daylight Time),539718.3999999762,1200,I,z,1154,15,1,2378.600000023842,537339.7999999523,8102,NTS,A,14
4,13,test,1,C,triangle.png,1,m,Tue Apr 07 2026 09:43:01 GMT-0500 (Central Daylight Time),542451.0,1500,I,m,1215,12,1,2728.7000000476837,539722.2999999523,8102,NTS,A,15
2,14,test,1,C,triangle.png,1,m,Tue Apr 07 2026 09:43:01 GMT-0500 (Central Daylight Time),545250.1999999285,2000,I,m,782,2,1,2795.100000023842,542455.0999999046,8102,NTS,A,16
6,15,test,1,C,circle.png,1,m,Tue Apr 07 2026 09:43:01 GMT-0500 (Central Daylight Time),547882.5,1900,I,m,715,5,1,2628.5,545254.0,8102,NTS,A,17
7,15,test,1,C,circle.png,0,m,Tue Apr 07 2026 09:43:01 GMT-0500 (Central Daylight Time),551164.8999999762,2000,I,z,1263,14,1,3278.2000000476837,547886.6999999285,8102,NTS,A,18
9,16,test,1,C,circle.png,1,m,Tue Apr 07 2026 09:43:01 GMT-0500 (Central Daylight Time),553830.6999999285,1500,I,m,1137,8,1,2661.899999976158,551168.7999999523,8102,NTS,A,19
1,17,test,1,C,triangle.png,1,z,Tue Apr 07 2026 09:43:01 GMT-0500 (Central Daylight Time),556546.8999999762,1900,I,z,799,17,1,2712.100000023842,553834.7999999523,8102,NTS,A,20
7,17,test,1,C,triangle.png,0,z,Tue Apr 07 2026 09:43:01 GMT-0500 (Central Daylight Time),559413.3999999762,1700,I,m,1139,6,1,2862.399999976158,556551.0,8102,NTS,A,21
4,18,test,1,C,triangle.png,1,m,Tue Apr 07 2026 09:43:01 GMT-0500 (Central Daylight Time),562161.5,1500,I,m,1217,20,1,2744.3000000715256,559417.1999999285,8102,NTS,A,22
6,19,test,1,C,triangle.png,1,m,Tue Apr 07 2026 09:43:01 GMT-0500 (Central Daylight Time),563827.5999999046,1000,I,m,648,13,1,1662.0,562165.5999999046,8102,NTS,A,23
3,20,test,1,C,circle.png,1,z,Tue Apr 07 2026 09:43:01 GMT-0500 (Central Daylight Time),566476.7999999523,1600,I,z,1029,19,1,2645.2000000476837,563831.5999999046,8102,NTS,A,24
3,1,test,2,C,circle.png,1,z,Tue Apr 07 2026 09:43:01 GMT-0500 (Central Daylight Time),583671.5999999046,1600,I,z,836,19,1,2462.6999999284744,581208.8999999762,8102,NTS,A,1
4,2,test,2,C,triangle.png,1,m,Tue Apr 07 2026 09:43:01 GMT-0500 (Central Daylight Time),585987.3999999762,1500,I,m,798,12,1,2310.600000023842,583676.7999999523,8102,NTS,A,2
7,3,test,2,C,circle.png,1,m,Tue Apr 07 2026 09:43:01 GMT-0500 (Central Daylight Time),588619.7999999523,2000,I,m,614,14,1,2628.600000023842,585991.1999999285,8102,NTS,A,3
6,4,test,2,C,circle.png,1,m,Tue Apr 07 2026 09:43:01 GMT-0500 (Central Daylight Time),591302.1999999285,1900,I,m,762,5,1,2678.1999999284744,588624.0,8102,NTS,A,4
4,5,test,2,C,triangle.png,1,m,Tue Apr 07 2026 09:43:01 GMT-0500 (Central Daylight Time),593602.0,1500,I,m,775,20,1,2296.0,591306.0,8102,NTS,A,5
9,6,test,2,C,circle.png,1,m,Tue Apr 07 2026 09:43:01 GMT-0500 (Central Daylight Time),595867.5999999046,1500,I,m,740,8,1,2261.5,593606.0999999046,8102,NTS,A,6
8,7,test,2,C,circle.png,1,m,Tue Apr 07 2026 09:43:01 GMT-0500 (Central Daylight Time),597817.0,1200,I,m,718,15,1,1945.5,595871.5,8102,NTS,A,7
2,7,test,2,C,triangle.png,0,m,Tue Apr 07 2026 09:43:01 GMT-0500 (Central Daylight Time),600449.5,2000,I,z,609,2,1,2628.7000000476837,597820.7999999523,8102,NTS,A,8
7,8,test,2,C,circle.png,1,m,Tue Apr 07 2026 09:43:01 GMT-0500 (Central Daylight Time),603481.7999999523,2000,I,m,1008,22,1,3028.399999976158,600453.3999999762,8102,NTS,A,9
9,8,test,2,C,triangle.png,0,z,Tue Apr 07 2026 09:43:01 GMT-0500 (Central Daylight Time),605497.8999999762,1400,I,m,584,24,1,2011.3999999761581,603486.5,8102,NTS,A,10
1,9,test,2,C,triangle.png,1,z,Tue Apr 07 2026 09:43:01 GMT-0500 (Central Daylight Time),608113.6999999285,1900,I,z,692,9,1,2611.899999976158,605501.7999999523,8102,NTS,A,11
3,10,test,2,C,circle.png,1,z,Tue Apr 07 2026 09:43:01 GMT-0500 (Central Daylight Time),610679.6999999285,1600,I,z,943,11,1,2561.899999976158,608117.7999999523,8102,NTS,A,12
7,11,test,2,C,triangle.png,1,z,Tue Apr 07 2026 09:43:01 GMT-0500 (Central Daylight Time),613612.0999999046,1700,I,z,1214,6,1,2928.5,610683.5999999046,8102,NTS,A,13
2,12,test,2,C,circle.png,1,z,Tue Apr 07 2026 09:43:01 GMT-0500 (Central Daylight Time),616761.1999999285,1700,I,z,1302,10,1,3145.2999999523163,613615.8999999762,8102,NTS,A,14
3,12,test,2,C,triangle.png,0,z,Tue Apr 07 2026 09:43:01 GMT-0500 (Central Daylight Time),618993.5999999046,1200,I,m,1000,3,1,2227.7999999523163,616765.7999999523,8102,NTS,A,15
6,13,test,2,C,triangle.png,1,m,Tue Apr 07 2026 09:43:01 GMT-0500 (Central Daylight Time),620826.3999999762,1000,I,m,816,21,1,1828.3999999761581,618998.0,8102,NTS,A,16
6,14,test,2,C,triangle.png,1,m,Tue Apr 07 2026 09:43:01 GMT-0500 (Central Daylight Time),622925.7999999523,1000,I,m,1079,13,1,2095.600000023842,620830.1999999285,8102,NTS,A,17
8,15,test,2,C,triangle.png,1,m,Tue Apr 07 2026 09:43:01 GMT-0500 (Central Daylight Time),625708.1999999285,1600,I,m,1156,7,1,2778.100000023842,622930.0999999046,8102,NTS,A,18
4,16,test,2,C,circle.png,1,z,Tue Apr 07 2026 09:43:01 GMT-0500 (Central Daylight Time),628174.0999999046,1400,I,z,1045,4,1,2462.0999999046326,625712.0,8102,NTS,A,19
2,17,test,2,C,circle.png,1,z,Tue Apr 07 2026 09:43:01 GMT-0500 (Central Daylight Time),630573.2999999523,1700,I,z,671,18,1,2395.2000000476837,628178.0999999046,8102,NTS,A,20
1,18,test,2,C,triangle.png,1,z,Tue Apr 07 2026 09:43:01 GMT-0500 (Central Daylight Time),633622.3999999762,1900,I,z,1128,17,1,3044.899999976158,630577.5,8102,NTS,A,21
1,19,test,2,C,circle.png,1,z,Tue Apr 07 2026 09:43:01 GMT-0500 (Central Daylight Time),635788.2999999523,1000,I,z,1139,1,1,2162.2999999523163,633626.0,8102,NTS,A,22
8,20,test,2,C,circle.png,1,m,Tue Apr 07 2026 09:43:01 GMT-0500 (Central Daylight Time),637938.0,1200,I,m,933,23,1,2145.9000000953674,635792.0999999046,8102,NTS,A,23
9,21,test,2,C,triangle.png,1,z,Tue Apr 07 2026 09:43:01 GMT-0500 (Central Daylight Time),640120.3999999762,1400,I,z,760,16,1,2178.7000000476837,637941.6999999285,8102,NTS,A,24
4,1,test,3,C,triangle.png,1,m,Tue Apr 07 2026 09:43:01 GMT-0500 (Central Daylight Time),652699.7999999523,1500,I,m,1223,12,1,2746.2000000476837,649953.5999999046,8102,NTS,A,1
8,2,test,3,C,triangle.png,1,m,Tue Apr 07 2026 09:43:01 GMT-0500 (Central Daylight Time),655282.1999999285,1600,I,m,950,7,1,2577.899999976158,652704.2999999523,8102,NTS,A,2
3,3,test,3,C,triangle.png,1,z,Tue Apr 07 2026 09:43:01 GMT-0500 (Central Daylight Time),657198.5,1200,I,z,695,19,1,1912.6000000238419,655285.8999999762,8102,NTS,A,3
2,4,test,3,C,triangle.png,1,m,Tue Apr 07 2026 09:43:01 GMT-0500 (Central Daylight Time),660297.3999999762,2000,I,m,1067,2,1,3095.100000023842,657202.2999999523,8102,NTS,A,4
2,5,test,3,C,circle.png,1,z,Tue Apr 07 2026 09:43:01 GMT-0500 (Central Daylight Time),662800.0,1700,I,z,645,10,1,2498.9000000953674,660301.0999999046,8102,NTS,A,5
4,6,test,3,C,circle.png,1,z,Tue Apr 07 2026 09:43:01 GMT-0500 (Central Daylight Time),665079.5999999046,1400,I,z,853,20,1,2274.899999976158,662804.6999999285,8102,NTS,A,6
3,7,test,3,C,circle.png,1,z,Tue Apr 07 2026 09:43:01 GMT-0500 (Central Daylight Time),667412.0999999046,1600,I,z,714,11,1,2328.6999999284744,665083.3999999762,8102,NTS,A,7
1,8,test,3,C,triangle.png,1,z,Tue Apr 07 2026 09:43:01 GMT-0500 (Central Daylight Time),670211.0999999046,1900,I,z,875,9,1,2795.5,667415.5999999046,8102,NTS,A,8
2,9,test,3,C,triangle.png,1,m,Tue Apr 07 2026 09:43:01 GMT-0500 (Central Daylight Time),672894.0,2000,I,m,663,18,1,2679.3000000715256,670214.6999999285,8102,NTS,A,9
6,10,test,3,C,circle.png,1,m,Tue Apr 07 2026 09:43:01 GMT-0500 (Central Daylight Time),675659.5999999046,1900,I,m,840,21,1,2761.7999999523163,672897.7999999523,8102,NTS,A,10
7,11,test,3,C,circle.png,1,m,Tue Apr 07 2026 09:43:01 GMT-0500 (Central Daylight Time),678408.2999999523,2000,I,m,726,14,1,2744.7000000476837,675663.5999999046,8102,NTS,A,11
7,12,test,3,C,triangle.png,1,z,Tue Apr 07 2026 09:43:01 GMT-0500 (Central Daylight Time),680924.5,1700,I,z,798,6,1,2512.600000023842,678411.8999999762,8102,NTS,A,12
6,13,test,3,C,triangle.png,1,m,Tue Apr 07 2026 09:43:01 GMT-0500 (Central Daylight Time),682674.1999999285,1000,I,m,733,13,1,1746.0,680928.1999999285,8102,NTS,A,13
8,13,test,3,C,triangle.png,0,m,Tue Apr 07 2026 09:43:01 GMT-0500 (Central Daylight Time),685506.3999999762,1600,I,z,1216,23,1,2828.100000023842,682678.2999999523,8102,NTS,A,14
1,14,test,3,C,circle.png,1,z,Tue Apr 07 2026 09:43:01 GMT-0500 (Central Daylight Time),687272.5,1000,I,z,743,1,1,1762.1000000238419,685510.3999999762,8102,NTS,A,15
9,14,test,3,C,circle.png,0,m,Tue Apr 07 2026 09:43:01 GMT-0500 (Central Daylight Time),689705.0,1500,I,z,901,24,1,2428.3000000715256,687276.6999999285,8102,NTS,A,16
9,15,test,3,C,triangle.png,1,z,Tue Apr 07 2026 09:43:01 GMT-0500 (Central Daylight Time),692371.0,1400,I,z,1240,16,1,2662.100000023842,689708.8999999762,8102,NTS,A,17
4,16,test,3,C,circle.png,1,z,Tue Apr 07 2026 09:43:01 GMT-0500 (Central Daylight Time),695053.5999999046,1400,I,z,1255,4,1,2678.899999976158,692374.6999999285,8102,NTS,A,18
8,17,test,3,C,circle.png,1,m,Tue Apr 07 2026 09:43:01 GMT-0500 (Central Daylight Time),696902.8999999762,1200,I,m,629,15,1,1845.2000000476837,695057.6999999285,8102,NTS,A,19
1,18,test,3,C,circle.png,1,z,Tue Apr 07 2026 09:43:01 GMT-0500 (Central Daylight Time),699019.0999999046,1000,I,z,1092,17,1,2112.0999999046326,696907.0,8102,NTS,A,20
6,19,test,3,C,circle.png,1,m,Tue Apr 07 2026 09:43:01 GMT-0500 (Central Daylight Time),702251.1999999285,1900,I,m,1307,5,1,3227.899999976158,699023.2999999523,8102,NTS,A,21
9,20,test,3,C,circle.png,1,m,Tue Apr 07 2026 09:43:01 GMT-0500 (Central Daylight Time),704817.2999999523,1500,I,m,1034,8,1,2561.7999999523163,702255.5,8102,NTS,A,22
3,21,test,3,C,triangle.png,1,z,Tue Apr 07 2026 09:43:01 GMT-0500 (Central Daylight Time),706949.6999999285,1200,I,z,905,3,1,2128.600000023842,704821.0999999046,8102,NTS,A,23
7,22,test,3,C,triangle.png,1,z,Tue Apr 07 2026 09:43:01 GMT-0500 (Central Daylight Time),709565.3999999762,1700,I,z,888,22,1,2611.8000000715256,706953.5999999046,8102,NTS,A,24
4,1,test,4,C,circle.png,1,z,Tue Apr 07 2026 09:43:01 GMT-0500 (Central Daylight Time),714380.7999999523,1400,I,z,1030,4,1,2446.2999999523163,711934.5,8102,NTS,A,1
4,2,test,4,C,triangle.png,1,m,Tue Apr 07 2026 09:43:01 GMT-0500 (Central Daylight Time),716879.8999999762,1500,I,m,969,12,1,2494.399999976158,714385.5,8102,NTS,A,2
8,3,test,4,C,circle.png,1,m,Tue Apr 07 2026 09:43:01 GMT-0500 (Central Daylight Time),719046.1999999285,1200,I,m,937,15,1,2162.1999999284744,716884.0,8102,NTS,A,3
6,4,test,4,C,triangle.png,1,m,Tue Apr 07 2026 09:43:01 GMT-0500 (Central Daylight Time),721062.0999999046,1000,I,m,988,13,1,2012.1999999284744,719049.8999999762,8102,NTS,A,4
3,5,test,4,C,circle.png,1,z,Tue Apr 07 2026 09:43:01 GMT-0500 (Central Daylight Time),723628.0,1600,I,z,940,11,1,2562.3000000715256,721065.6999999285,8102,NTS,A,5
8,6,test,4,C,triangle.png,1,m,Tue Apr 07 2026 09:43:01 GMT-0500 (Central Daylight Time),725910.5,1600,I,m,654,7,1,2278.7000000476837,723631.7999999523,8102,NTS,A,6
1,7,test,4,C,triangle.png,1,z,Tue Apr 07 2026 09:43:01 GMT-0500 (Central Daylight Time),728593.0,1900,I,z,751,9,1,2678.8000000715256,725914.1999999285,8102,NTS,A,7
3,8,test,4,C,triangle.png,1,z,Tue Apr 07 2026 09:43:01 GMT-0500 (Central Daylight Time),730542.3999999762,1200,I,z,728,3,1,1945.7000000476837,728596.6999999285,8102,NTS,A,8
1,9,test,4,C,circle.png,1,z,Tue Apr 07 2026 09:43:01 GMT-0500 (Central Daylight Time),732375.0,1000,I,z,803,17,1,1828.8000000715256,730546.1999999285,8102,NTS,A,9
1,10,test,4,C,circle.png,1,z,Tue Apr 07 2026 09:43:01 GMT-0500 (Central Daylight Time),734091.1999999285,1000,I,z,685,1,1,1712.1999999284744,732379.0,8102,NTS,A,10
9,11,test,4,C,circle.png,1,m,Tue Apr 07 2026 09:43:01 GMT-0500 (Central Daylight Time),736390.5,1500,I,m,770,24,1,2295.3000000715256,734095.1999999285,8102,NTS,A,11
7,12,test,4,C,triangle.png,1,z,Tue Apr 07 2026 09:43:01 GMT-0500 (Central Daylight Time),739056.2999999523,1700,I,z,935,6,1,2662.0,736394.2999999523,8102,NTS,A,12
2,13,test,4,C,triangle.png,1,m,Tue Apr 07 2026 09:43:01 GMT-0500 (Central Daylight Time),741938.6999999285,2000,I,m,849,18,1,2878.5,739060.1999999285,8102,NTS,A,13
6,14,test,4,C,circle.png,1,m,Tue Apr 07 2026 09:43:01 GMT-0500 (Central Daylight Time),744671.3999999762,1900,I,m,803,5,1,2729.0,741942.3999999762,8102,NTS,A,14
3,15,test,4,C,triangle.png,1,z,Tue Apr 07 2026 09:43:01 GMT-0500 (Central Daylight Time),746837.0999999046,1200,I,z,947,19,1,2162.0,744675.0999999046,8102,NTS,A,15
2,16,test,4,C,triangle.png,1,m,Tue Apr 07 2026 09:43:01 GMT-0500 (Central Daylight Time),749836.1999999285,2000,I,m,980,2,1,2995.100000023842,746841.0999999046,8102,NTS,A,16
7,17,test,4,C,circle.png,1,m,Tue Apr 07 2026 09:43:01 GMT-0500 (Central Daylight Time),752802.0999999046,2000,I,m,933,14,1,2962.0999999046326,749840.0,8102,NTS,A,17
2,18,test,4,C,circle.png,1,z,Tue Apr 07 2026 09:43:01 GMT-0500 (Central Daylight Time),755351.0999999046,1700,I,z,820,10,1,2545.0,752806.0999999046,8102,NTS,A,18
4,19,test,4,C,circle.png,1,z,Tue Apr 07 2026 09:43:01 GMT-0500 (Central Daylight Time),757866.6999999285,1400,I,z,1096,20,1,2511.6999999284744,755355.0,8102,NTS,A,19
6,19,test,4,C,circle.png,0,m,Tue Apr 07 2026 09:43:01 GMT-0500 (Central Daylight Time),760783.0999999046,1900,I,z,986,21,1,2912.5999999046326,757870.5,8102,NTS,A,20
7,20,test,4,C,triangle.png,1,z,Tue Apr 07 2026 09:43:01 GMT-0500 (Central Daylight Time),763648.6999999285,1700,I,z,1136,22,1,2862.0,760786.6999999285,8102,NTS,A,21
9,21,test,4,C,triangle.png,1,z,Tue Apr 07 2026 09:43:01 GMT-0500 (Central Daylight Time),766031.0999999046,1400,I,z,961,16,1,2378.399999976158,763652.6999999285,8102,NTS,A,22
8,22,test,4,C,triangle.png,1,m,Tue Apr 07 2026 09:43:01 GMT-0500 (Central Daylight Time),768513.8999999762,1600,I,m,850,23,1,2478.8000000715256,766035.0999999046,8102,NTS,A,23
9,23,test,4,C,circle.png,1,m,Tue Apr 07 2026 09:43:01 GMT-0500 (Central Daylight Time),770812.8999999762,1500,I,m,772,8,1,2295.3000000715256,768517.5999999046,8102,NTS,A,24
