Number,acc_sum,block,block_c,block_cond,con_img,correct,correct_response,datetime,endtime,jitter,project,response,response_time,row_sel,session_number,start_end,starttime,subject_id,task,task_vers,trial
2,0,prac,1,A,circle.png,0,z,Wed May 07 2025 10:10:32 GMT-0400 (Eastern Daylight Time),69268.19999980927,2000,I,None,1513,2,1,4289.60000038147,64978.599999427795,9017,NTS,A,1
2,1,prac,1,A,circle.png,1,z,Wed May 07 2025 10:10:32 GMT-0400 (Eastern Daylight Time),72568.39999961853,2000,I,z,500,2,1,3288.699999809265,69279.69999980927,9017,NTS,A,2
3,2,prac,1,A,circle.png,1,z,Wed May 07 2025 10:10:32 GMT-0400 (Eastern Daylight Time),75618.0,1200,I,z,1058,3,1,3039.4000005722046,72578.5999994278,9017,NTS,A,3
4,2,prac,1,A,circle.png,0,z,Wed May 07 2025 10:10:32 GMT-0400 (Eastern Daylight Time),79317.89999961853,1400,I,None,1516,4,1,3688.5,75629.39999961853,9017,NTS,A,4
7,3,prac,1,A,circle.png,1,m,Wed May 07 2025 10:10:32 GMT-0400 (Eastern Daylight Time),82818.0,1700,I,m,1006,6,1,3485.6000003814697,79332.39999961853,9017,NTS,A,5
9,3,prac,1,A,circle.png,0,m,Wed May 07 2025 10:10:32 GMT-0400 (Eastern Daylight Time),86617.79999923706,1500,I,None,1514,8,1,3788.5999994277954,82829.19999980927,9017,NTS,A,6
3,4,prac,1,A,circle.png,1,z,Wed May 07 2025 10:10:32 GMT-0400 (Eastern Daylight Time),89784.5999994278,1200,I,z,1169,3,1,3156.300000190735,86628.29999923706,9017,NTS,A,7
1,4,prac,1,A,circle.png,0,z,Wed May 07 2025 10:10:32 GMT-0400 (Eastern Daylight Time),93084.39999961853,1000,I,None,1515,1,1,3287.6000003814697,89796.79999923706,9017,NTS,A,8
6,5,prac,1,A,circle.png,1,m,Wed May 07 2025 10:10:32 GMT-0400 (Eastern Daylight Time),96667.89999961853,1900,I,m,882,5,1,3569.699999809265,93098.19999980927,9017,NTS,A,9
7,5,prac,1,A,circle.png,0,m,Wed May 07 2025 10:10:32 GMT-0400 (Eastern Daylight Time),100667.79999923706,1700,I,None,1515,6,1,3987.5999994277954,96680.19999980927,9017,NTS,A,10
1,6,prac,1,A,circle.png,1,z,Wed May 07 2025 10:10:32 GMT-0400 (Eastern Daylight Time),103184.69999980927,1000,I,z,726,1,1,2504.0,100680.69999980927,9017,NTS,A,11
8,7,prac,1,A,circle.png,1,m,Wed May 07 2025 10:10:32 GMT-0400 (Eastern Daylight Time),106234.69999980927,1600,I,m,650,7,1,3039.199999809265,103195.5,9017,NTS,A,12
3,0,prac,2,A,circle.png,0,z,Wed May 07 2025 10:10:32 GMT-0400 (Eastern Daylight Time),118734.39999961853,1200,I,None,1514,3,1,3489.5,115244.89999961853,9017,NTS,A,1
9,0,prac,2,A,circle.png,0,m,Wed May 07 2025 10:10:32 GMT-0400 (Eastern Daylight Time),122534.5999994278,1500,I,None,1514,8,1,3789.699999809265,118744.89999961853,9017,NTS,A,2
3,1,prac,2,A,circle.png,1,z,Wed May 07 2025 10:10:32 GMT-0400 (Eastern Daylight Time),125467.89999961853,1200,I,z,947,3,1,2923.0,122544.89999961853,9017,NTS,A,3
7,2,prac,2,A,circle.png,1,m,Wed May 07 2025 10:10:32 GMT-0400 (Eastern Daylight Time),129384.5999994278,1700,I,m,1418,6,1,3905.3999996185303,125479.19999980927,9017,NTS,A,4
1,3,prac,2,A,circle.png,1,z,Wed May 07 2025 10:10:32 GMT-0400 (Eastern Daylight Time),131951.29999923706,1000,I,z,778,1,1,2554.8999996185303,129396.39999961853,9017,NTS,A,5
2,4,prac,2,A,circle.png,1,z,Wed May 07 2025 10:10:32 GMT-0400 (Eastern Daylight Time),135601.29999923706,2000,I,z,859,2,1,3638.8999996185303,131962.39999961853,9017,NTS,A,6
9,5,prac,2,A,circle.png,1,m,Wed May 07 2025 10:10:32 GMT-0400 (Eastern Daylight Time),138667.79999923706,1500,I,m,765,8,1,3055.3999996185303,135612.39999961853,9017,NTS,A,7
4,5,prac,2,A,circle.png,0,z,Wed May 07 2025 10:10:32 GMT-0400 (Eastern Daylight Time),142368.0,1400,I,None,1514,4,1,3690.5,138677.5,9017,NTS,A,8
4,6,prac,2,A,circle.png,1,z,Wed May 07 2025 10:10:32 GMT-0400 (Eastern Daylight Time),145667.89999961853,1400,I,z,1107,4,1,3289.8999996185303,142378.0,9017,NTS,A,9
7,7,prac,2,A,circle.png,1,m,Wed May 07 2025 10:10:32 GMT-0400 (Eastern Daylight Time),149034.39999961853,1700,I,m,866,6,1,3356.5,145677.89999961853,9017,NTS,A,10
8,8,prac,2,A,circle.png,1,m,Wed May 07 2025 10:10:32 GMT-0400 (Eastern Daylight Time),152301.29999923706,1600,I,m,880,7,1,3255.8999996185303,149045.39999961853,9017,NTS,A,11
6,9,prac,2,A,circle.png,1,m,Wed May 07 2025 10:10:32 GMT-0400 (Eastern Daylight Time),155801.29999923706,1900,I,m,801,5,1,3490.199999809265,152311.0999994278,9017,NTS,A,12
1,0,prac,1,B,triangle.png,0,z,Wed May 07 2025 10:10:32 GMT-0400 (Eastern Daylight Time),244417.5999994278,1900,I,None,1515,1,1,4187.0,240230.5999994278,9017,NTS,A,1
1,1,prac,1,B,triangle.png,1,z,Wed May 07 2025 10:10:32 GMT-0400 (Eastern Daylight Time),248051.0,1900,I,z,941,1,1,3620.300000190735,244430.69999980927,9017,NTS,A,2
3,2,prac,1,B,triangle.png,1,z,Wed May 07 2025 10:10:32 GMT-0400 (Eastern Daylight Time),251351.0,1600,I,z,887,3,1,3279.9000005722046,248071.0999994278,9017,NTS,A,3
7,3,prac,1,B,triangle.png,1,z,Wed May 07 2025 10:10:32 GMT-0400 (Eastern Daylight Time),255084.5,2000,I,z,948,6,1,3722.5,251362.0,9017,NTS,A,4
7,4,prac,1,B,triangle.png,1,z,Wed May 07 2025 10:10:32 GMT-0400 (Eastern Daylight Time),258867.79999923706,2000,I,z,991,6,1,3772.199999809265,255095.5999994278,9017,NTS,A,5
4,5,prac,1,B,triangle.png,1,m,Wed May 07 2025 10:10:32 GMT-0400 (Eastern Daylight Time),262051.0999994278,1500,I,m,891,4,1,3172.0,258879.0999994278,9017,NTS,A,6
6,6,prac,1,B,triangle.png,1,m,Wed May 07 2025 10:10:32 GMT-0400 (Eastern Daylight Time),264834.5,1000,I,m,992,5,1,2773.7000007629395,262060.79999923706,9017,NTS,A,7
2,7,prac,1,B,triangle.png,1,m,Wed May 07 2025 10:10:32 GMT-0400 (Eastern Daylight Time),268051.0,1700,I,m,724,2,1,3206.4000005722046,264844.5999994278,9017,NTS,A,8
9,8,prac,1,B,triangle.png,1,z,Wed May 07 2025 10:10:32 GMT-0400 (Eastern Daylight Time),271067.69999980927,1400,I,z,816,8,1,3005.5,268062.19999980927,9017,NTS,A,9
8,9,prac,1,B,triangle.png,1,m,Wed May 07 2025 10:10:32 GMT-0400 (Eastern Daylight Time),273934.39999961853,1200,I,m,879,7,1,2855.300000190735,271079.0999994278,9017,NTS,A,10
9,10,prac,1,B,triangle.png,1,z,Wed May 07 2025 10:10:32 GMT-0400 (Eastern Daylight Time),277317.69999980927,1400,I,z,1189,8,1,3370.0,273947.69999980927,9017,NTS,A,11
3,10,prac,1,B,triangle.png,0,z,Wed May 07 2025 10:10:32 GMT-0400 (Eastern Daylight Time),281217.5,1600,I,None,1515,3,1,3889.4000005722046,277328.0999994278,9017,NTS,A,12
8,1,test,1,A,circle.png,1,m,Wed May 07 2025 10:10:32 GMT-0400 (Eastern Daylight Time),327934.0999994278,1600,I,m,830,7,1,2442.3999996185303,325491.69999980927,9017,NTS,A,1
7,2,test,1,A,circle.png,1,m,Wed May 07 2025 10:10:32 GMT-0400 (Eastern Daylight Time),330684.29999923706,1700,I,m,1015,6,1,2741.7999992370605,327942.5,9017,NTS,A,2
1,3,test,1,A,circle.png,1,z,Wed May 07 2025 10:10:32 GMT-0400 (Eastern Daylight Time),332600.89999961853,1000,I,z,885,1,1,1907.8999996185303,330693.0,9017,NTS,A,3
2,3,test,1,A,circle.png,0,z,Wed May 07 2025 10:10:32 GMT-0400 (Eastern Daylight Time),336134.19999980927,2000,I,None,1515,2,1,3525.1000003814697,332609.0999994278,9017,NTS,A,4
2,4,test,1,A,circle.png,1,z,Wed May 07 2025 10:10:32 GMT-0400 (Eastern Daylight Time),339084.19999980927,2000,I,z,917,2,1,2941.800000190735,336142.39999961853,9017,NTS,A,5
7,5,test,1,A,circle.png,1,m,Wed May 07 2025 10:10:32 GMT-0400 (Eastern Daylight Time),342000.79999923706,1700,I,m,1194,6,1,2908.199999809265,339092.5999994278,9017,NTS,A,6
3,5,test,1,A,circle.png,0,z,Wed May 07 2025 10:10:32 GMT-0400 (Eastern Daylight Time),344734.29999923706,1200,I,None,1513,3,1,2724.3999996185303,342009.89999961853,9017,NTS,A,7
2,5,test,1,A,circle.png,0,z,Wed May 07 2025 10:10:32 GMT-0400 (Eastern Daylight Time),348267.5,2000,I,None,1514,2,1,3524.7000007629395,344742.79999923706,9017,NTS,A,8
4,6,test,1,A,circle.png,1,z,Wed May 07 2025 10:10:32 GMT-0400 (Eastern Daylight Time),350784.0999994278,1400,I,z,1095,4,1,2506.199999809265,348277.89999961853,9017,NTS,A,9
1,6,test,1,A,circle.png,0,z,Wed May 07 2025 10:10:32 GMT-0400 (Eastern Daylight Time),353317.5999994278,1000,I,None,1514,1,1,2524.0999994277954,350793.5,9017,NTS,A,10
6,7,test,1,A,circle.png,1,m,Wed May 07 2025 10:10:32 GMT-0400 (Eastern Daylight Time),356100.79999923706,1900,I,m,857,5,1,2774.699999809265,353326.0999994278,9017,NTS,A,11
7,8,test,1,A,circle.png,1,m,Wed May 07 2025 10:10:32 GMT-0400 (Eastern Daylight Time),358483.39999961853,1700,I,m,656,6,1,2369.8999996185303,356113.5,9017,NTS,A,12
8,9,test,1,A,circle.png,1,m,Wed May 07 2025 10:10:32 GMT-0400 (Eastern Daylight Time),360817.39999961853,1600,I,m,710,7,1,2326.800000190735,358490.5999994278,9017,NTS,A,13
7,10,test,1,A,circle.png,1,m,Wed May 07 2025 10:10:32 GMT-0400 (Eastern Daylight Time),363417.5999994278,1700,I,m,868,6,1,2591.800000190735,360825.79999923706,9017,NTS,A,14
9,11,test,1,A,circle.png,1,m,Wed May 07 2025 10:10:32 GMT-0400 (Eastern Daylight Time),365650.79999923706,1500,I,m,709,8,1,2224.7999992370605,363426.0,9017,NTS,A,15
1,12,test,1,A,circle.png,1,z,Wed May 07 2025 10:10:32 GMT-0400 (Eastern Daylight Time),367417.5,1000,I,z,733,1,1,1755.8000001907349,365661.69999980927,9017,NTS,A,16
6,12,test,1,A,circle.png,0,m,Wed May 07 2025 10:10:32 GMT-0400 (Eastern Daylight Time),370850.89999961853,1900,I,None,1515,5,1,3422.6000003814697,367428.29999923706,9017,NTS,A,17
4,13,test,1,A,circle.png,1,z,Wed May 07 2025 10:10:32 GMT-0400 (Eastern Daylight Time),373533.79999923706,1400,I,z,1264,4,1,2675.0999994277954,370858.69999980927,9017,NTS,A,18
2,14,test,1,A,circle.png,1,z,Wed May 07 2025 10:10:32 GMT-0400 (Eastern Daylight Time),376701.29999923706,2000,I,z,1149,2,1,3159.3999996185303,373541.89999961853,9017,NTS,A,19
3,14,test,1,A,circle.png,0,z,Wed May 07 2025 10:10:32 GMT-0400 (Eastern Daylight Time),379434.19999980927,1200,I,None,1515,3,1,2725.4000005722046,376708.79999923706,9017,NTS,A,20
8,15,test,1,A,circle.png,1,m,Wed May 07 2025 10:10:32 GMT-0400 (Eastern Daylight Time),381617.39999961853,1600,I,m,559,7,1,2174.3999996185303,379443.0,9017,NTS,A,21
9,15,test,1,A,circle.png,0,m,Wed May 07 2025 10:10:32 GMT-0400 (Eastern Daylight Time),384650.69999980927,1500,I,None,1515,8,1,3024.1000003814697,381626.5999994278,9017,NTS,A,22
3,16,test,1,A,circle.png,1,z,Wed May 07 2025 10:10:32 GMT-0400 (Eastern Daylight Time),386567.5,1200,I,z,687,3,1,1906.8000001907349,384660.69999980927,9017,NTS,A,23
4,16,test,1,A,circle.png,0,z,Wed May 07 2025 10:10:32 GMT-0400 (Eastern Daylight Time),389500.89999961853,1400,I,None,1515,4,1,2925.6000003814697,386575.29999923706,9017,NTS,A,24
3,1,test,1,B,triangle.png,1,z,Wed May 07 2025 10:10:32 GMT-0400 (Eastern Daylight Time),413267.39999961853,2000,I,z,1026,11,1,3041.8999996185303,410225.5,9017,NTS,A,1
4,2,test,1,B,triangle.png,1,m,Wed May 07 2025 10:10:32 GMT-0400 (Eastern Daylight Time),415350.79999923706,1500,I,m,539,4,1,2068.2999992370605,413282.5,9017,NTS,A,2
3,2,test,1,B,triangle.png,0,z,Wed May 07 2025 10:10:32 GMT-0400 (Eastern Daylight Time),418484.0999994278,1600,I,None,1515,3,1,3124.5999994277954,415359.5,9017,NTS,A,3
9,3,test,1,B,triangle.png,1,z,Wed May 07 2025 10:10:32 GMT-0400 (Eastern Daylight Time),420950.69999980927,1400,I,z,1039,8,1,2457.5,418493.19999980927,9017,NTS,A,4
9,3,test,1,B,triangle.png,0,z,Wed May 07 2025 10:10:32 GMT-0400 (Eastern Daylight Time),424384.19999980927,1900,I,None,1515,16,1,3425.0,420959.19999980927,9017,NTS,A,5
1,4,test,1,B,triangle.png,1,z,Wed May 07 2025 10:10:32 GMT-0400 (Eastern Daylight Time),426650.69999980927,1400,I,z,835,9,1,2256.4000005722046,424394.29999923706,9017,NTS,A,6
2,5,test,1,B,triangle.png,1,m,Wed May 07 2025 10:10:32 GMT-0400 (Eastern Daylight Time),428733.79999923706,1200,I,m,864,10,1,2073.8999996185303,426659.89999961853,9017,NTS,A,7
8,6,test,1,B,triangle.png,1,m,Wed May 07 2025 10:10:32 GMT-0400 (Eastern Daylight Time),431133.39999961853,1700,I,m,680,15,1,2390.800000190735,428742.5999994278,9017,NTS,A,8
1,7,test,1,B,triangle.png,1,z,Wed May 07 2025 10:10:32 GMT-0400 (Eastern Daylight Time),433167.29999923706,1400,I,z,613,9,1,2029.0999994277954,431138.19999980927,9017,NTS,A,9
4,8,test,1,B,triangle.png,1,m,Wed May 07 2025 10:10:32 GMT-0400 (Eastern Daylight Time),435684.0,1000,I,m,1492,12,1,2503.2000007629395,433180.79999923706,9017,NTS,A,10
7,9,test,1,B,triangle.png,1,z,Wed May 07 2025 10:10:32 GMT-0400 (Eastern Daylight Time),437950.5,1600,I,z,647,14,1,2256.5,435694.0,9017,NTS,A,11
8,10,test,1,B,triangle.png,1,m,Wed May 07 2025 10:10:32 GMT-0400 (Eastern Daylight Time),440083.79999923706,1200,I,m,908,7,1,2124.7999992370605,437959.0,9017,NTS,A,12
1,11,test,1,B,triangle.png,1,z,Wed May 07 2025 10:10:32 GMT-0400 (Eastern Daylight Time),442817.39999961853,1900,I,z,811,1,1,2727.300000190735,440090.0999994278,9017,NTS,A,13
9,11,test,1,B,triangle.png,0,z,Wed May 07 2025 10:10:32 GMT-0400 (Eastern Daylight Time),446250.69999980927,1900,I,None,1516,16,1,3424.1000003814697,442826.5999994278,9017,NTS,A,14
3,11,test,1,B,triangle.png,0,z,Wed May 07 2025 10:10:32 GMT-0400 (Eastern Daylight Time),449384.0,1600,I,None,1515,3,1,3122.9000005722046,446261.0999994278,9017,NTS,A,15
2,12,test,1,B,triangle.png,1,m,Wed May 07 2025 10:10:32 GMT-0400 (Eastern Daylight Time),452000.79999923706,1700,I,m,895,2,1,2608.5999994277954,449392.19999980927,9017,NTS,A,16
4,13,test,1,B,triangle.png,1,m,Wed May 07 2025 10:10:32 GMT-0400 (Eastern Daylight Time),454433.89999961853,1000,I,m,1411,12,1,2425.1000003814697,452008.79999923706,9017,NTS,A,17
2,13,test,1,B,triangle.png,0,m,Wed May 07 2025 10:10:32 GMT-0400 (Eastern Daylight Time),457167.39999961853,1200,I,None,1515,10,1,2724.3999996185303,454443.0,9017,NTS,A,18
8,14,test,1,B,triangle.png,1,m,Wed May 07 2025 10:10:32 GMT-0400 (Eastern Daylight Time),459867.29999923706,1700,I,m,967,15,1,2692.3999996185303,457174.89999961853,9017,NTS,A,19
7,15,test,1,B,triangle.png,1,z,Wed May 07 2025 10:10:32 GMT-0400 (Eastern Daylight Time),462800.5999994278,2000,I,z,912,6,1,2924.0,459876.5999994278,9017,NTS,A,20
9,16,test,1,B,triangle.png,1,z,Wed May 07 2025 10:10:32 GMT-0400 (Eastern Daylight Time),465017.39999961853,1400,I,z,787,8,1,2207.800000190735,462809.5999994278,9017,NTS,A,21
6,17,test,1,B,triangle.png,1,m,Wed May 07 2025 10:10:32 GMT-0400 (Eastern Daylight Time),467250.5,1500,I,m,710,13,1,2224.4000005722046,465026.0999994278,9017,NTS,A,22
6,18,test,1,B,triangle.png,1,m,Wed May 07 2025 10:10:32 GMT-0400 (Eastern Daylight Time),469267.29999923706,1000,I,m,992,5,1,2006.0999994277954,467261.19999980927,9017,NTS,A,23
6,19,test,1,B,triangle.png,1,m,Wed May 07 2025 10:10:32 GMT-0400 (Eastern Daylight Time),470867.39999961853,1000,I,m,576,5,1,1591.3000001907349,469276.0999994278,9017,NTS,A,24
4,0,prac,1,C,circle.png,0,z,Wed May 07 2025 10:10:32 GMT-0400 (Eastern Daylight Time),520434.0,1000,I,m,1360,4,1,3140.6000003814697,517293.39999961853,9017,NTS,A,1
1,0,prac,1,C,circle.png,0,z,Wed May 07 2025 10:10:32 GMT-0400 (Eastern Daylight Time),524433.8999996185,1700,I,None,1515,1,1,3988.0,520445.89999961853,9017,NTS,A,2
3,0,prac,1,C,triangle.png,0,z,Wed May 07 2025 10:10:32 GMT-0400 (Eastern Daylight Time),528233.8999996185,1500,I,None,1515,3,1,3789.199999809265,524444.6999998093,9017,NTS,A,3
9,1,prac,1,C,circle.png,1,m,Wed May 07 2025 10:10:32 GMT-0400 (Eastern Daylight Time),532250.5,1900,I,m,1317,8,1,4004.4000005722046,528246.0999994278,9017,NTS,A,4
1,1,prac,1,C,circle.png,0,z,Wed May 07 2025 10:10:32 GMT-0400 (Eastern Daylight Time),536267.1999998093,1700,I,None,1515,1,1,4001.1000003814697,532266.0999994278,9017,NTS,A,5
6,2,prac,1,C,circle.png,1,m,Wed May 07 2025 10:10:32 GMT-0400 (Eastern Daylight Time),540134.0999994278,2000,I,m,1071,5,1,3855.800000190735,536278.2999992371,9017,NTS,A,6
2,2,prac,1,C,triangle.png,0,m,Wed May 07 2025 10:10:32 GMT-0400 (Eastern Daylight Time),544033.5,1600,I,None,1515,2,1,3889.6000003814697,540143.8999996185,9017,NTS,A,7
6,2,prac,1,C,circle.png,0,m,Wed May 07 2025 10:10:32 GMT-0400 (Eastern Daylight Time),548334.0,2000,I,None,1515,5,1,4292.60000038147,544041.3999996185,9017,NTS,A,8
8,2,prac,1,C,triangle.png,0,m,Wed May 07 2025 10:10:32 GMT-0400 (Eastern Daylight Time),551667.2999992371,1400,I,z,1141,7,1,3318.3999996185303,548348.8999996185,9017,NTS,A,9
4,2,prac,1,C,circle.png,0,z,Wed May 07 2025 10:10:32 GMT-0400 (Eastern Daylight Time),554967.3999996185,1000,I,None,1515,4,1,3289.8999996185303,551677.5,9017,NTS,A,10
7,2,prac,1,C,triangle.png,0,z,Wed May 07 2025 10:10:32 GMT-0400 (Eastern Daylight Time),558467.0999994278,1200,I,None,1515,6,1,3488.800000190735,554978.2999992371,9017,NTS,A,11
2,2,prac,1,C,triangle.png,0,m,Wed May 07 2025 10:10:32 GMT-0400 (Eastern Daylight Time),562383.6999998093,1600,I,None,1516,2,1,3899.1000003814697,558484.5999994278,9017,NTS,A,12
2,0,prac,2,C,triangle.png,0,m,Wed May 07 2025 10:10:32 GMT-0400 (Eastern Daylight Time),573850.3999996185,1600,I,None,1516,2,1,3890.5,569959.8999996185,9017,NTS,A,1
9,0,prac,2,C,circle.png,0,m,Wed May 07 2025 10:10:32 GMT-0400 (Eastern Daylight Time),578049.7999992371,1900,I,None,1516,8,1,4188.199999809265,573861.5999994278,9017,NTS,A,2
1,0,prac,2,C,circle.png,0,z,Wed May 07 2025 10:10:32 GMT-0400 (Eastern Daylight Time),582050.5,1700,I,None,1516,1,1,3992.6000003814697,578057.8999996185,9017,NTS,A,3
7,0,prac,2,C,triangle.png,0,z,Wed May 07 2025 10:10:32 GMT-0400 (Eastern Daylight Time),585233.7999992371,1200,I,m,1192,6,1,3173.7999992370605,582060.0,9017,NTS,A,4
2,1,prac,2,C,triangle.png,1,m,Wed May 07 2025 10:10:32 GMT-0400 (Eastern Daylight Time),588750.5,1600,I,m,1128,2,1,3504.300000190735,585246.1999998093,9017,NTS,A,5
4,1,prac,2,C,circle.png,0,z,Wed May 07 2025 10:10:32 GMT-0400 (Eastern Daylight Time),591717.0999994278,1000,I,m,1172,4,1,2955.8999996185303,588761.1999998093,9017,NTS,A,6
8,1,prac,2,C,triangle.png,0,m,Wed May 07 2025 10:10:32 GMT-0400 (Eastern Daylight Time),595417.0999994278,1400,I,None,1515,7,1,3689.0,591728.0999994278,9017,NTS,A,7
1,1,prac,2,C,circle.png,0,z,Wed May 07 2025 10:10:32 GMT-0400 (Eastern Daylight Time),598883.7999992371,1700,I,m,974,1,1,3452.5,595431.2999992371,9017,NTS,A,8
6,2,prac,2,C,circle.png,1,m,Wed May 07 2025 10:10:32 GMT-0400 (Eastern Daylight Time),602450.5,2000,I,m,775,5,1,3554.1000003814697,598896.3999996185,9017,NTS,A,9
7,2,prac,2,C,triangle.png,0,z,Wed May 07 2025 10:10:32 GMT-0400 (Eastern Daylight Time),605950.3999996185,1200,I,None,1516,6,1,3489.1000003814697,602461.2999992371,9017,NTS,A,10
6,3,prac,2,C,circle.png,1,m,Wed May 07 2025 10:10:32 GMT-0400 (Eastern Daylight Time),609483.7999992371,2000,I,m,749,5,1,3522.199999809265,605961.5999994278,9017,NTS,A,11
3,3,prac,2,C,triangle.png,0,z,Wed May 07 2025 10:10:32 GMT-0400 (Eastern Daylight Time),613283.5999994278,1500,I,None,1515,3,1,3788.8999996185303,609494.6999998093,9017,NTS,A,12
7,1,test,1,C,triangle.png,1,z,Wed May 07 2025 10:10:32 GMT-0400 (Eastern Daylight Time),981509.1999998093,1700,I,z,1040,22,1,2767.800000190735,978741.3999996185,9017,NTS,A,1
4,2,test,1,C,triangle.png,1,m,Wed May 07 2025 10:10:32 GMT-0400 (Eastern Daylight Time),983892.2999992371,1500,I,m,857,20,1,2373.2999992370605,981519.0,9017,NTS,A,2
8,3,test,1,C,triangle.png,1,m,Wed May 07 2025 10:10:32 GMT-0400 (Eastern Daylight Time),986492.3999996185,1600,I,m,974,7,1,2590.800000190735,983901.5999994278,9017,NTS,A,3
8,4,test,1,C,circle.png,1,m,Wed May 07 2025 10:10:32 GMT-0400 (Eastern Daylight Time),988892.3999996185,1200,I,m,1174,15,1,2390.5,986501.8999996185,9017,NTS,A,4
2,5,test,1,C,triangle.png,1,m,Wed May 07 2025 10:10:32 GMT-0400 (Eastern Daylight Time),992109.0999994278,2000,I,m,1190,2,1,3207.199999809265,988901.8999996185,9017,NTS,A,5
8,6,test,1,C,triangle.png,1,m,Wed May 07 2025 10:10:32 GMT-0400 (Eastern Daylight Time),994592.5,1600,I,m,861,23,1,2474.300000190735,992118.1999998093,9017,NTS,A,6
6,7,test,1,C,triangle.png,1,m,Wed May 07 2025 10:10:32 GMT-0400 (Eastern Daylight Time),996459.0999994278,1000,I,m,835,13,1,1857.5999994277954,994601.5,9017,NTS,A,7
1,8,test,1,C,triangle.png,1,z,Wed May 07 2025 10:10:32 GMT-0400 (Eastern Daylight Time),999425.6999998093,1900,I,z,1035,17,1,2958.5,996467.1999998093,9017,NTS,A,8
6,9,test,1,C,circle.png,1,m,Wed May 07 2025 10:10:32 GMT-0400 (Eastern Daylight Time),1002359.1999998093,1900,I,m,1005,21,1,2923.9000005722046,999435.2999992371,9017,NTS,A,9
3,10,test,1,C,triangle.png,1,z,Wed May 07 2025 10:10:32 GMT-0400 (Eastern Daylight Time),1004760.5,1200,I,z,1171,3,1,2388.0,1002372.5,9017,NTS,A,10
9,11,test,1,C,circle.png,1,m,Wed May 07 2025 10:10:32 GMT-0400 (Eastern Daylight Time),1007392.5,1500,I,m,1103,24,1,2626.5,1004766.0,9017,NTS,A,11
3,12,test,1,C,circle.png,1,z,Wed May 07 2025 10:10:32 GMT-0400 (Eastern Daylight Time),1010509.0,1600,I,z,1490,19,1,3107.5,1007401.5,9017,NTS,A,12
4,13,test,1,C,circle.png,1,z,Wed May 07 2025 10:10:32 GMT-0400 (Eastern Daylight Time),1012992.5,1400,I,z,1053,4,1,2475.0,1010517.5,9017,NTS,A,13
2,14,test,1,C,circle.png,1,z,Wed May 07 2025 10:10:32 GMT-0400 (Eastern Daylight Time),1015742.2999992371,1700,I,z,1030,18,1,2736.5999994277954,1013005.6999998093,9017,NTS,A,14
6,15,test,1,C,circle.png,1,m,Wed May 07 2025 10:10:32 GMT-0400 (Eastern Daylight Time),1018792.3999996185,1900,I,m,1120,5,1,3041.3999996185303,1015751.0,9017,NTS,A,15
4,16,test,1,C,triangle.png,1,m,Wed May 07 2025 10:10:32 GMT-0400 (Eastern Daylight Time),1021425.6999998093,1500,I,m,1111,12,1,2624.0,1018801.6999998093,9017,NTS,A,16
1,17,test,1,C,triangle.png,1,z,Wed May 07 2025 10:10:32 GMT-0400 (Eastern Daylight Time),1024225.6999998093,1900,I,z,868,9,1,2785.699999809265,1021440.0,9017,NTS,A,17
3,18,test,1,C,circle.png,1,z,Wed May 07 2025 10:10:32 GMT-0400 (Eastern Daylight Time),1026792.3999996185,1600,I,z,944,11,1,2557.300000190735,1024235.0999994278,9017,NTS,A,18
2,18,test,1,C,circle.png,0,z,Wed May 07 2025 10:10:32 GMT-0400 (Eastern Daylight Time),1029442.3999996185,1700,I,m,926,10,1,2638.6000003814697,1026803.7999992371,9017,NTS,A,19
9,19,test,1,C,circle.png,1,m,Wed May 07 2025 10:10:32 GMT-0400 (Eastern Daylight Time),1032092.6999998093,1500,I,m,1132,8,1,2641.6000003814697,1029451.0999994278,9017,NTS,A,20
7,20,test,1,C,circle.png,1,m,Wed May 07 2025 10:10:32 GMT-0400 (Eastern Daylight Time),1035159.0999994278,2000,I,m,1038,14,1,3056.5999994277954,1032102.5,9017,NTS,A,21
9,21,test,1,C,triangle.png,1,z,Wed May 07 2025 10:10:32 GMT-0400 (Eastern Daylight Time),1037708.8999996185,1400,I,z,1131,16,1,2540.800000190735,1035168.0999994278,9017,NTS,A,22
7,22,test,1,C,triangle.png,1,z,Wed May 07 2025 10:10:32 GMT-0400 (Eastern Daylight Time),1040725.3999996185,1700,I,z,1297,6,1,3007.800000190735,1037717.5999994278,9017,NTS,A,23
1,22,test,1,C,circle.png,0,z,Wed May 07 2025 10:10:32 GMT-0400 (Eastern Daylight Time),1042575.6999998093,1000,I,m,829,1,1,1842.6000003814697,1040733.0999994278,9017,NTS,A,24
7,0,test,2,C,triangle.png,0,z,Wed May 07 2025 10:10:32 GMT-0400 (Eastern Daylight Time),1066042.3999996185,1700,I,None,1515,6,1,3225.8999996185303,1062816.5,9017,NTS,A,1
6,0,test,2,C,triangle.png,0,m,Wed May 07 2025 10:10:32 GMT-0400 (Eastern Daylight Time),1068225.6999998093,1000,I,z,1152,21,1,2170.699999809265,1066055.0,9017,NTS,A,2
7,1,test,2,C,circle.png,1,m,Wed May 07 2025 10:10:32 GMT-0400 (Eastern Daylight Time),1071592.299999237,2000,I,m,1336,14,1,3357.199999809265,1068235.0999994278,9017,NTS,A,3
6,2,test,2,C,triangle.png,1,m,Wed May 07 2025 10:10:32 GMT-0400 (Eastern Daylight Time),1073942.299999237,1000,I,m,1322,13,1,2341.0999994277954,1071601.1999998093,9017,NTS,A,4
4,3,test,2,C,circle.png,1,z,Wed May 07 2025 10:10:32 GMT-0400 (Eastern Daylight Time),1076492.3999996185,1400,I,z,1116,4,1,2541.0,1073951.3999996185,9017,NTS,A,5
6,4,test,2,C,circle.png,1,m,Wed May 07 2025 10:10:32 GMT-0400 (Eastern Daylight Time),1079392.299999237,1900,I,m,979,5,1,2886.0999994277954,1076506.1999998093,9017,NTS,A,6
1,5,test,2,C,triangle.png,1,z,Wed May 07 2025 10:10:32 GMT-0400 (Eastern Daylight Time),1082259.0999994278,1900,I,z,942,9,1,2857.3999996185303,1079401.6999998093,9017,NTS,A,7
8,5,test,2,C,triangle.png,0,m,Wed May 07 2025 10:10:32 GMT-0400 (Eastern Daylight Time),1085142.3999996185,1600,I,z,1255,7,1,2874.300000190735,1082268.0999994278,9017,NTS,A,8
2,6,test,2,C,circle.png,1,z,Wed May 07 2025 10:10:32 GMT-0400 (Eastern Daylight Time),1087875.6999998093,1700,I,z,1008,10,1,2723.699999809265,1085152.0,9017,NTS,A,9
3,7,test,2,C,circle.png,1,z,Wed May 07 2025 10:10:32 GMT-0400 (Eastern Daylight Time),1090875.6999998093,1600,I,z,1366,19,1,2990.699999809265,1087885.0,9017,NTS,A,10
3,8,test,2,C,circle.png,1,z,Wed May 07 2025 10:10:32 GMT-0400 (Eastern Daylight Time),1093292.299999237,1600,I,z,790,11,1,2407.5999994277954,1090884.6999998093,9017,NTS,A,11
8,9,test,2,C,circle.png,1,m,Wed May 07 2025 10:10:32 GMT-0400 (Eastern Daylight Time),1095275.5,1200,I,m,749,15,1,1974.0,1093301.5,9017,NTS,A,12
7,10,test,2,C,circle.png,1,m,Wed May 07 2025 10:10:32 GMT-0400 (Eastern Daylight Time),1098158.8999996185,2000,I,m,863,22,1,2874.1000003814697,1095284.799999237,9017,NTS,A,13
3,10,test,2,C,triangle.png,0,z,Wed May 07 2025 10:10:32 GMT-0400 (Eastern Daylight Time),1100892.3999996185,1200,I,None,1515,3,1,2724.300000190735,1098168.0999994278,9017,NTS,A,14
9,11,test,2,C,triangle.png,1,z,Wed May 07 2025 10:10:32 GMT-0400 (Eastern Daylight Time),1103409.0999994278,1400,I,z,1094,24,1,2502.800000190735,1100906.299999237,9017,NTS,A,15
2,12,test,2,C,circle.png,1,z,Wed May 07 2025 10:10:32 GMT-0400 (Eastern Daylight Time),1105925.5,1700,I,z,789,18,1,2507.9000005722046,1103417.5999994278,9017,NTS,A,16
1,13,test,2,C,triangle.png,1,z,Wed May 07 2025 10:10:32 GMT-0400 (Eastern Daylight Time),1108758.799999237,1900,I,z,913,17,1,2821.8999996185303,1105936.8999996185,9017,NTS,A,17
1,14,test,2,C,circle.png,1,z,Wed May 07 2025 10:10:32 GMT-0400 (Eastern Daylight Time),1110925.5,1000,I,z,1147,1,1,2156.800000190735,1108768.6999998093,9017,NTS,A,18
9,15,test,2,C,circle.png,1,m,Wed May 07 2025 10:10:32 GMT-0400 (Eastern Daylight Time),1113508.8999996185,1500,I,m,1056,8,1,2574.3999996185303,1110934.5,9017,NTS,A,19
4,15,test,2,C,triangle.png,0,m,Wed May 07 2025 10:10:32 GMT-0400 (Eastern Daylight Time),1116258.799999237,1500,I,z,1217,20,1,2740.5,1113518.299999237,9017,NTS,A,20
9,16,test,2,C,triangle.png,1,z,Wed May 07 2025 10:10:32 GMT-0400 (Eastern Daylight Time),1118858.799999237,1400,I,z,1167,16,1,2589.7999992370605,1116269.0,9017,NTS,A,21
2,17,test,2,C,triangle.png,1,m,Wed May 07 2025 10:10:32 GMT-0400 (Eastern Daylight Time),1122208.799999237,2000,I,m,1319,2,1,3340.8999996185303,1118867.8999996185,9017,NTS,A,22
8,18,test,2,C,circle.png,1,m,Wed May 07 2025 10:10:32 GMT-0400 (Eastern Daylight Time),1124408.799999237,1200,I,m,977,23,1,2190.8999996185303,1122217.8999996185,9017,NTS,A,23
4,18,test,2,C,triangle.png,0,m,Wed May 07 2025 10:10:32 GMT-0400 (Eastern Daylight Time),1127441.8999996185,1500,I,None,1516,12,1,3024.5,1124417.3999996185,9017,NTS,A,24
8,0,test,3,C,triangle.png,0,m,Wed May 07 2025 10:10:32 GMT-0400 (Eastern Daylight Time),1137292.8999996185,1600,I,z,1082,23,1,2692.3999996185303,1134600.5,9017,NTS,A,1
2,0,test,3,C,triangle.png,0,m,Wed May 07 2025 10:10:32 GMT-0400 (Eastern Daylight Time),1140508.299999237,2000,I,z,1189,2,1,3206.2999992370605,1137302.0,9017,NTS,A,2
7,1,test,3,C,triangle.png,1,z,Wed May 07 2025 10:10:32 GMT-0400 (Eastern Daylight Time),1143609.0,1700,I,z,1369,22,1,3091.7000007629395,1140517.299999237,9017,NTS,A,3
3,1,test,3,C,circle.png,0,z,Wed May 07 2025 10:10:32 GMT-0400 (Eastern Daylight Time),1146742.1999998093,1600,I,None,1515,11,1,3123.300000190735,1143618.8999996185,9017,NTS,A,4
3,2,test,3,C,triangle.png,1,z,Wed May 07 2025 10:10:32 GMT-0400 (Eastern Daylight Time),1149108.6999998093,1200,I,z,1140,3,1,2357.6000003814697,1146751.0999994278,9017,NTS,A,5
9,3,test,3,C,triangle.png,1,z,Wed May 07 2025 10:10:32 GMT-0400 (Eastern Daylight Time),1151692.299999237,1400,I,z,1157,16,1,2575.5999994277954,1149116.6999998093,9017,NTS,A,6
9,4,test,3,C,circle.png,1,m,Wed May 07 2025 10:10:32 GMT-0400 (Eastern Daylight Time),1153908.5999994278,1500,I,m,698,24,1,2206.8999996185303,1151701.6999998093,9017,NTS,A,7
7,5,test,3,C,circle.png,1,m,Wed May 07 2025 10:10:32 GMT-0400 (Eastern Daylight Time),1156725.1999998093,2000,I,m,797,14,1,2809.0,1153916.1999998093,9017,NTS,A,8
4,6,test,3,C,circle.png,1,z,Wed May 07 2025 10:10:32 GMT-0400 (Eastern Daylight Time),1159125.5999994278,1400,I,z,973,4,1,2389.0999994277954,1156736.5,9017,NTS,A,9
4,6,test,3,C,triangle.png,0,m,Wed May 07 2025 10:10:32 GMT-0400 (Eastern Daylight Time),1161508.5,1500,I,z,865,12,1,2373.300000190735,1159135.1999998093,9017,NTS,A,10
4,7,test,3,C,circle.png,1,z,Wed May 07 2025 10:10:32 GMT-0400 (Eastern Daylight Time),1164092.299999237,1400,I,z,1149,20,1,2575.199999809265,1161517.0999994278,9017,NTS,A,11
9,8,test,3,C,circle.png,1,m,Wed May 07 2025 10:10:32 GMT-0400 (Eastern Daylight Time),1166325.299999237,1500,I,m,714,8,1,2223.2999992370605,1164102.0,9017,NTS,A,12
7,9,test,3,C,triangle.png,1,z,Wed May 07 2025 10:10:32 GMT-0400 (Eastern Daylight Time),1168975.3999996185,1700,I,z,929,6,1,2642.0,1166333.3999996185,9017,NTS,A,13
8,10,test,3,C,circle.png,1,m,Wed May 07 2025 10:10:32 GMT-0400 (Eastern Daylight Time),1170992.1999998093,1200,I,m,787,15,1,2008.6000003814697,1168983.5999994278,9017,NTS,A,14
2,11,test,3,C,circle.png,1,z,Wed May 07 2025 10:10:32 GMT-0400 (Eastern Daylight Time),1173625.5,1700,I,z,910,10,1,2624.5,1171001.0,9017,NTS,A,15
8,12,test,3,C,triangle.png,1,m,Wed May 07 2025 10:10:32 GMT-0400 (Eastern Daylight Time),1176058.799999237,1600,I,m,799,7,1,2424.699999809265,1173634.0999994278,9017,NTS,A,16
1,13,test,3,C,circle.png,1,z,Wed May 07 2025 10:10:32 GMT-0400 (Eastern Daylight Time),1178292.0,1000,I,z,1206,17,1,2223.6000003814697,1176068.3999996185,9017,NTS,A,17
1,14,test,3,C,triangle.png,1,z,Wed May 07 2025 10:10:32 GMT-0400 (Eastern Daylight Time),1181395.5,1900,I,z,1179,9,1,3098.5,1178297.0,9017,NTS,A,18
6,15,test,3,C,circle.png,1,m,Wed May 07 2025 10:10:32 GMT-0400 (Eastern Daylight Time),1184125.1999998093,1900,I,m,814,21,1,2724.1000003814697,1181401.0999994278,9017,NTS,A,19
6,16,test,3,C,triangle.png,1,m,Wed May 07 2025 10:10:32 GMT-0400 (Eastern Daylight Time),1186225.3999996185,1000,I,m,1077,13,1,2091.1000003814697,1184134.299999237,9017,NTS,A,20
2,16,test,3,C,triangle.png,0,m,Wed May 07 2025 10:10:32 GMT-0400 (Eastern Daylight Time),1189342.1999998093,2000,I,z,1089,18,1,3104.800000190735,1186237.3999996185,9017,NTS,A,21
6,17,test,3,C,circle.png,1,m,Wed May 07 2025 10:10:32 GMT-0400 (Eastern Daylight Time),1192108.5,1900,I,m,848,5,1,2756.800000190735,1189351.6999998093,9017,NTS,A,22
3,18,test,3,C,triangle.png,1,z,Wed May 07 2025 10:10:32 GMT-0400 (Eastern Daylight Time),1194275.5,1200,I,z,933,19,1,2158.9000005722046,1192116.5999994278,9017,NTS,A,23
1,19,test,3,C,circle.png,1,z,Wed May 07 2025 10:10:32 GMT-0400 (Eastern Daylight Time),1196392.1999998093,1000,I,z,1095,1,1,2107.9000005722046,1194284.299999237,9017,NTS,A,24
7,1,test,4,C,triangle.png,1,z,Wed May 07 2025 10:10:32 GMT-0400 (Eastern Daylight Time),1202425.5,1700,I,z,1152,6,1,2875.6000003814697,1199549.8999996185,9017,NTS,A,1
2,2,test,4,C,circle.png,1,z,Wed May 07 2025 10:10:32 GMT-0400 (Eastern Daylight Time),1205142.1999998093,1700,I,z,989,10,1,2706.800000190735,1202435.3999996185,9017,NTS,A,2
2,3,test,4,C,triangle.png,1,m,Wed May 07 2025 10:10:32 GMT-0400 (Eastern Daylight Time),1208525.1999998093,2000,I,m,1364,18,1,3374.800000190735,1205150.3999996185,9017,NTS,A,3
4,4,test,4,C,circle.png,1,z,Wed May 07 2025 10:10:32 GMT-0400 (Eastern Daylight Time),1210958.799999237,1400,I,z,1013,4,1,2422.0999994277954,1208536.6999998093,9017,NTS,A,4
8,5,test,4,C,circle.png,1,m,Wed May 07 2025 10:10:32 GMT-0400 (Eastern Daylight Time),1212992.0,1200,I,m,803,15,1,2023.8000001907349,1210968.1999998093,9017,NTS,A,5
7,6,test,4,C,circle.png,1,m,Wed May 07 2025 10:10:32 GMT-0400 (Eastern Daylight Time),1215725.3999996185,2000,I,m,706,14,1,2724.699999809265,1213000.6999998093,9017,NTS,A,6
6,7,test,4,C,circle.png,1,m,Wed May 07 2025 10:10:32 GMT-0400 (Eastern Daylight Time),1218325.299999237,1900,I,m,681,5,1,2590.7999992370605,1215734.5,9017,NTS,A,7
9,8,test,4,C,circle.png,1,m,Wed May 07 2025 10:10:32 GMT-0400 (Eastern Daylight Time),1220574.6999998093,1500,I,m,719,24,1,2240.6000003814697,1218334.0999994278,9017,NTS,A,8
9,9,test,4,C,circle.png,1,m,Wed May 07 2025 10:10:32 GMT-0400 (Eastern Daylight Time),1222808.6999998093,1500,I,m,711,8,1,2229.1000003814697,1220579.5999994278,9017,NTS,A,9
1,10,test,4,C,circle.png,1,z,Wed May 07 2025 10:10:32 GMT-0400 (Eastern Daylight Time),1224908.799999237,1000,I,z,1073,17,1,2091.7999992370605,1222817.0,9017,NTS,A,10
6,11,test,4,C,triangle.png,1,m,Wed May 07 2025 10:10:32 GMT-0400 (Eastern Daylight Time),1226891.8999996185,1000,I,m,950,13,1,1973.6999998092651,1224918.1999998093,9017,NTS,A,11
7,12,test,4,C,triangle.png,1,z,Wed May 07 2025 10:10:32 GMT-0400 (Eastern Daylight Time),1229758.6999998093,1700,I,z,1138,22,1,2855.6000003814697,1226903.0999994278,9017,NTS,A,12
1,13,test,4,C,triangle.png,1,z,Wed May 07 2025 10:10:32 GMT-0400 (Eastern Daylight Time),1232458.799999237,1900,I,z,766,9,1,2691.2999992370605,1229767.5,9017,NTS,A,13
4,14,test,4,C,circle.png,1,z,Wed May 07 2025 10:10:32 GMT-0400 (Eastern Daylight Time),1234892.0,1400,I,z,1007,20,1,2424.800000190735,1232467.1999998093,9017,NTS,A,14
6,15,test,4,C,circle.png,1,m,Wed May 07 2025 10:10:32 GMT-0400 (Eastern Daylight Time),1237592.0999994278,1900,I,m,778,21,1,2690.5999994277954,1234901.5,9017,NTS,A,15
2,15,test,4,C,triangle.png,0,m,Wed May 07 2025 10:10:32 GMT-0400 (Eastern Daylight Time),1240942.0999994278,2000,I,z,1322,2,1,3340.300000190735,1237601.799999237,9017,NTS,A,16
8,16,test,4,C,triangle.png,1,m,Wed May 07 2025 10:10:32 GMT-0400 (Eastern Daylight Time),1243975.3999996185,1600,I,m,1404,23,1,3024.5,1240950.8999996185,9017,NTS,A,17
3,17,test,4,C,triangle.png,1,z,Wed May 07 2025 10:10:32 GMT-0400 (Eastern Daylight Time),1246108.299999237,1200,I,z,915,3,1,2124.0999994277954,1243984.1999998093,9017,NTS,A,18
1,18,test,4,C,circle.png,1,z,Wed May 07 2025 10:10:32 GMT-0400 (Eastern Daylight Time),1248092.0,1000,I,z,957,1,1,1976.0,1246116.0,9017,NTS,A,19
3,18,test,4,C,triangle.png,0,z,Wed May 07 2025 10:10:32 GMT-0400 (Eastern Daylight Time),1250825.299999237,1200,I,None,1515,19,1,2724.0,1248101.299999237,9017,NTS,A,20
3,19,test,4,C,circle.png,1,z,Wed May 07 2025 10:10:32 GMT-0400 (Eastern Daylight Time),1253658.6999998093,1600,I,z,1200,11,1,2825.0,1250833.6999998093,9017,NTS,A,21
4,20,test,4,C,triangle.png,1,m,Wed May 07 2025 10:10:32 GMT-0400 (Eastern Daylight Time),1256292.0,1500,I,m,1107,12,1,2624.4000005722046,1253667.5999994278,9017,NTS,A,22
9,21,test,4,C,triangle.png,1,z,Wed May 07 2025 10:10:32 GMT-0400 (Eastern Daylight Time),1258741.8999996185,1400,I,z,1030,16,1,2441.1000003814697,1256300.799999237,9017,NTS,A,23
8,22,test,4,C,triangle.png,1,m,Wed May 07 2025 10:10:32 GMT-0400 (Eastern Daylight Time),1261542.0,1600,I,m,1180,7,1,2791.300000190735,1258750.6999998093,9017,NTS,A,24
