Number,acc_sum,block,block_c,block_cond,con_img,correct,correct_response,datetime,endtime,jitter,project,response,response_time,row_sel,session_number,start_end,starttime,subject_id,task,task_vers,trial
4,1,prac,1,A,circle.png,1,z,Wed Jul 09 2025 15:49:30 GMT-0400 (Eastern Daylight Time),97348.79999999702,1400,I,z,940,4,1,3128.7000000029802,94220.09999999404,9023,NTS,C,1
8,2,prac,1,A,circle.png,1,m,Wed Jul 09 2025 15:49:30 GMT-0400 (Eastern Daylight Time),101015.09999999404,1600,I,m,1272,7,1,3655.0,97360.09999999404,9023,NTS,C,2
3,3,prac,1,A,circle.png,1,z,Wed Jul 09 2025 15:49:30 GMT-0400 (Eastern Daylight Time),103965.09999999404,1200,I,z,964,3,1,2939.5,101025.59999999404,9023,NTS,C,3
7,4,prac,1,A,circle.png,1,m,Wed Jul 09 2025 15:49:30 GMT-0400 (Eastern Daylight Time),107498.5,1700,I,m,1034,6,1,3521.4000000059605,103977.09999999404,9023,NTS,C,4
1,5,prac,1,A,circle.png,1,z,Wed Jul 09 2025 15:49:30 GMT-0400 (Eastern Daylight Time),110481.70000000298,1000,I,z,1192,1,1,2972.0,107509.70000000298,9023,NTS,C,5
6,6,prac,1,A,circle.png,1,m,Wed Jul 09 2025 15:49:30 GMT-0400 (Eastern Daylight Time),113965.09999999404,1900,I,m,782,5,1,3473.2999999970198,110491.79999999702,9023,NTS,C,6
8,7,prac,1,A,circle.png,1,m,Wed Jul 09 2025 15:49:30 GMT-0400 (Eastern Daylight Time),117148.5,1600,I,m,783,7,1,3171.4000000059605,113977.09999999404,9023,NTS,C,7
4,8,prac,1,A,circle.png,1,z,Wed Jul 09 2025 15:49:30 GMT-0400 (Eastern Daylight Time),120231.29999999702,1400,I,z,888,4,1,3072.2999999970198,117159.0,9023,NTS,C,8
1,9,prac,1,A,circle.png,1,z,Wed Jul 09 2025 15:49:30 GMT-0400 (Eastern Daylight Time),122865.09999999404,1000,I,z,844,1,1,2626.3999999910593,120238.70000000298,9023,NTS,C,9
6,10,prac,1,A,circle.png,1,m,Wed Jul 09 2025 15:49:30 GMT-0400 (Eastern Daylight Time),126365.0,1900,I,m,799,5,1,3488.2000000029802,122876.79999999702,9023,NTS,C,10
2,11,prac,1,A,circle.png,1,z,Wed Jul 09 2025 15:49:30 GMT-0400 (Eastern Daylight Time),129898.59999999404,2000,I,z,734,2,1,3522.5,126376.09999999404,9023,NTS,C,11
9,12,prac,1,A,circle.png,1,m,Wed Jul 09 2025 15:49:30 GMT-0400 (Eastern Daylight Time),133181.79999999702,1500,I,m,998,8,1,3271.2000000029802,129910.59999999404,9023,NTS,C,12
9,1,prac,1,B,triangle.png,1,z,Wed Jul 09 2025 15:49:30 GMT-0400 (Eastern Daylight Time),185365.0,1400,I,z,1007,8,1,3185.2000000029802,182179.79999999702,9023,NTS,C,1
7,2,prac,1,B,triangle.png,1,z,Wed Jul 09 2025 15:49:30 GMT-0400 (Eastern Daylight Time),188998.40000000596,2000,I,z,839,6,1,3622.2000000029802,185376.20000000298,9023,NTS,C,2
7,3,prac,1,B,triangle.png,1,z,Wed Jul 09 2025 15:49:30 GMT-0400 (Eastern Daylight Time),192581.70000000298,2000,I,z,790,6,1,3572.2000000029802,189009.5,9023,NTS,C,3
6,4,prac,1,B,triangle.png,1,m,Wed Jul 09 2025 15:49:30 GMT-0400 (Eastern Daylight Time),195248.20000000298,1000,I,m,879,5,1,2653.7999999970198,192594.40000000596,9023,NTS,C,4
3,5,prac,1,B,triangle.png,1,z,Wed Jul 09 2025 15:49:30 GMT-0400 (Eastern Daylight Time),198765.20000000298,1600,I,z,1132,3,1,3505.4000000059605,195259.79999999702,9023,NTS,C,5
4,6,prac,1,B,triangle.png,1,m,Wed Jul 09 2025 15:49:30 GMT-0400 (Eastern Daylight Time),202315.09999999404,1500,I,m,1251,4,1,3539.699999988079,198775.40000000596,9023,NTS,C,6
4,6,prac,1,B,triangle.png,0,m,Wed Jul 09 2025 15:49:30 GMT-0400 (Eastern Daylight Time),206131.70000000298,1500,I,None,1516,4,1,3796.1000000089407,202335.59999999404,9023,NTS,C,7
2,6,prac,1,B,triangle.png,0,m,Wed Jul 09 2025 15:49:30 GMT-0400 (Eastern Daylight Time),209281.29999999702,1700,I,z,661,2,1,3138.8999999910593,206142.40000000596,9023,NTS,C,8
1,6,prac,1,B,triangle.png,0,z,Wed Jul 09 2025 15:49:30 GMT-0400 (Eastern Daylight Time),213481.70000000298,1900,I,None,1516,1,1,4193.20000000298,209288.5,9023,NTS,C,9
8,6,prac,1,B,triangle.png,0,m,Wed Jul 09 2025 15:49:30 GMT-0400 (Eastern Daylight Time),216248.5,1200,I,z,770,7,1,2755.4000000059605,213493.09999999404,9023,NTS,C,10
9,7,prac,1,B,triangle.png,1,z,Wed Jul 09 2025 15:49:30 GMT-0400 (Eastern Daylight Time),219448.29999999702,1400,I,z,1004,8,1,3190.0,216258.29999999702,9023,NTS,C,11
1,8,prac,1,B,triangle.png,1,z,Wed Jul 09 2025 15:49:30 GMT-0400 (Eastern Daylight Time),223131.79999999702,1900,I,z,984,1,1,3672.2999999970198,219459.5,9023,NTS,C,12
4,1,test,1,A,circle.png,1,z,Wed Jul 09 2025 15:49:30 GMT-0400 (Eastern Daylight Time),286431.799999997,1400,I,z,880,4,1,2293.0,284138.799999997,9023,NTS,C,1
9,2,test,1,A,circle.png,1,m,Wed Jul 09 2025 15:49:30 GMT-0400 (Eastern Daylight Time),288515.200000003,1500,I,m,560,8,1,2074.7999999970198,286440.40000000596,9023,NTS,C,2
3,3,test,1,A,circle.png,1,z,Wed Jul 09 2025 15:49:30 GMT-0400 (Eastern Daylight Time),290248.5,1200,I,z,505,3,1,1725.0999999940395,288523.40000000596,9023,NTS,C,3
4,4,test,1,A,circle.png,1,z,Wed Jul 09 2025 15:49:30 GMT-0400 (Eastern Daylight Time),292398.5,1400,I,z,715,4,1,2140.9000000059605,290257.59999999404,9023,NTS,C,4
9,5,test,1,A,circle.png,1,m,Wed Jul 09 2025 15:49:30 GMT-0400 (Eastern Daylight Time),294748.40000000596,1500,I,m,817,8,1,2341.5,292406.90000000596,9023,NTS,C,5
3,6,test,1,A,circle.png,1,z,Wed Jul 09 2025 15:49:30 GMT-0400 (Eastern Daylight Time),296631.700000003,1200,I,z,655,3,1,1874.4000000059605,294757.299999997,9023,NTS,C,6
7,7,test,1,A,circle.png,1,m,Wed Jul 09 2025 15:49:30 GMT-0400 (Eastern Daylight Time),299065.0,1700,I,m,703,6,1,2425.2000000029802,296639.799999997,9023,NTS,C,7
3,8,test,1,A,circle.png,1,z,Wed Jul 09 2025 15:49:30 GMT-0400 (Eastern Daylight Time),300931.799999997,1200,I,z,643,3,1,1856.5,299075.299999997,9023,NTS,C,8
1,9,test,1,A,circle.png,1,z,Wed Jul 09 2025 15:49:30 GMT-0400 (Eastern Daylight Time),302498.5,1000,I,z,543,1,1,1558.0,300940.5,9023,NTS,C,9
6,10,test,1,A,circle.png,1,m,Wed Jul 09 2025 15:49:30 GMT-0400 (Eastern Daylight Time),305165.09999999404,1900,I,m,733,5,1,2659.0,302506.09999999404,9023,NTS,C,10
1,11,test,1,A,circle.png,1,z,Wed Jul 09 2025 15:49:30 GMT-0400 (Eastern Daylight Time),306781.799999997,1000,I,z,583,1,1,1607.5999999940395,305174.200000003,9023,NTS,C,11
9,12,test,1,A,circle.png,1,m,Wed Jul 09 2025 15:49:30 GMT-0400 (Eastern Daylight Time),308948.5,1500,I,m,642,8,1,2158.5,306790.0,9023,NTS,C,12
4,13,test,1,A,circle.png,1,z,Wed Jul 09 2025 15:49:30 GMT-0400 (Eastern Daylight Time),311015.09999999404,1400,I,z,639,4,1,2057.5,308957.59999999404,9023,NTS,C,13
2,14,test,1,A,circle.png,1,z,Wed Jul 09 2025 15:49:30 GMT-0400 (Eastern Daylight Time),313531.700000003,2000,I,z,485,2,1,2508.5,311023.200000003,9023,NTS,C,14
3,15,test,1,A,circle.png,1,z,Wed Jul 09 2025 15:49:30 GMT-0400 (Eastern Daylight Time),315414.90000000596,1200,I,z,656,3,1,1874.4000000059605,313540.5,9023,NTS,C,15
9,16,test,1,A,circle.png,1,m,Wed Jul 09 2025 15:49:30 GMT-0400 (Eastern Daylight Time),317648.09999999404,1500,I,m,713,8,1,2224.2999999970198,315423.799999997,9023,NTS,C,16
2,17,test,1,A,circle.png,1,z,Wed Jul 09 2025 15:49:30 GMT-0400 (Eastern Daylight Time),320348.40000000596,2000,I,z,666,2,1,2685.9000000059605,317662.5,9023,NTS,C,17
6,18,test,1,A,circle.png,1,m,Wed Jul 09 2025 15:49:30 GMT-0400 (Eastern Daylight Time),322881.799999997,1900,I,m,611,5,1,2523.7000000029802,320358.09999999404,9023,NTS,C,18
2,19,test,1,A,circle.png,1,z,Wed Jul 09 2025 15:49:30 GMT-0400 (Eastern Daylight Time),325515.09999999404,2000,I,z,602,2,1,2625.699999988079,322889.40000000596,9023,NTS,C,19
7,20,test,1,A,circle.png,1,m,Wed Jul 09 2025 15:49:30 GMT-0400 (Eastern Daylight Time),327981.799999997,1700,I,m,733,6,1,2456.5,325525.299999997,9023,NTS,C,20
6,20,test,1,A,circle.png,0,m,Wed Jul 09 2025 15:49:30 GMT-0400 (Eastern Daylight Time),330498.5,1900,I,z,594,5,1,2507.7000000029802,327990.799999997,9023,NTS,C,21
8,21,test,1,A,circle.png,1,m,Wed Jul 09 2025 15:49:30 GMT-0400 (Eastern Daylight Time),332665.0,1600,I,m,537,7,1,2156.0,330509.0,9023,NTS,C,22
8,22,test,1,A,circle.png,1,m,Wed Jul 09 2025 15:49:30 GMT-0400 (Eastern Daylight Time),334848.09999999404,1600,I,m,563,7,1,2178.199999988079,332669.90000000596,9023,NTS,C,23
1,23,test,1,A,circle.png,1,z,Wed Jul 09 2025 15:49:30 GMT-0400 (Eastern Daylight Time),336448.200000003,1000,I,z,579,1,1,1585.5,334862.700000003,9023,NTS,C,24
9,1,test,1,B,triangle.png,1,z,Wed Jul 09 2025 15:49:30 GMT-0400 (Eastern Daylight Time),352281.90000000596,1400,I,z,704,8,1,2126.1000000089407,350155.799999997,9023,NTS,C,1
3,2,test,1,B,triangle.png,1,z,Wed Jul 09 2025 15:49:30 GMT-0400 (Eastern Daylight Time),355115.09999999404,2000,I,z,803,11,1,2824.699999988079,352290.40000000596,9023,NTS,C,2
2,3,test,1,B,triangle.png,1,m,Wed Jul 09 2025 15:49:30 GMT-0400 (Eastern Daylight Time),356933.59999999404,1200,I,m,593,10,1,1808.8999999910593,355124.700000003,9023,NTS,C,3
6,4,test,1,B,triangle.png,1,m,Wed Jul 09 2025 15:49:30 GMT-0400 (Eastern Daylight Time),358665.200000003,1000,I,m,705,5,1,1726.4000000059605,356938.799999997,9023,NTS,C,4
7,5,test,1,B,triangle.png,1,z,Wed Jul 09 2025 15:49:30 GMT-0400 (Eastern Daylight Time),361315.09999999404,2000,I,z,627,6,1,2641.5,358673.59999999404,9023,NTS,C,5
7,6,test,1,B,triangle.png,1,z,Wed Jul 09 2025 15:49:30 GMT-0400 (Eastern Daylight Time),363465.0,1600,I,z,521,14,1,2141.9000000059605,361323.09999999404,9023,NTS,C,6
9,6,test,1,B,triangle.png,0,z,Wed Jul 09 2025 15:49:30 GMT-0400 (Eastern Daylight Time),365948.5,1900,I,m,551,16,1,2473.0999999940395,363475.40000000596,9023,NTS,C,7
4,7,test,1,B,triangle.png,1,m,Wed Jul 09 2025 15:49:30 GMT-0400 (Eastern Daylight Time),367798.5,1000,I,m,824,12,1,1841.2000000029802,365957.299999997,9023,NTS,C,8
6,8,test,1,B,triangle.png,1,m,Wed Jul 09 2025 15:49:30 GMT-0400 (Eastern Daylight Time),369998.799999997,1500,I,m,682,13,1,2192.5,367806.299999997,9023,NTS,C,9
1,9,test,1,B,triangle.png,1,z,Wed Jul 09 2025 15:49:30 GMT-0400 (Eastern Daylight Time),372015.09999999404,1400,I,z,598,9,1,2008.699999988079,370006.40000000596,9023,NTS,C,10
2,9,test,1,B,triangle.png,0,m,Wed Jul 09 2025 15:49:30 GMT-0400 (Eastern Daylight Time),374648.5,1700,I,z,905,2,1,2625.5999999940395,372022.90000000596,9023,NTS,C,11
1,10,test,1,B,triangle.png,1,z,Wed Jul 09 2025 15:49:30 GMT-0400 (Eastern Daylight Time),377365.09999999404,1900,I,z,792,1,1,2708.5,374656.59999999404,9023,NTS,C,12
4,11,test,1,B,triangle.png,1,m,Wed Jul 09 2025 15:49:30 GMT-0400 (Eastern Daylight Time),379448.5,1500,I,m,555,4,1,2075.0,377373.5,9023,NTS,C,13
2,12,test,1,B,triangle.png,1,m,Wed Jul 09 2025 15:49:30 GMT-0400 (Eastern Daylight Time),381881.90000000596,1700,I,m,704,2,1,2425.5,379456.40000000596,9023,NTS,C,14
6,13,test,1,B,triangle.png,1,m,Wed Jul 09 2025 15:49:30 GMT-0400 (Eastern Daylight Time),383931.90000000596,1500,I,m,520,13,1,2041.4000000059605,381890.5,9023,NTS,C,15
8,14,test,1,B,triangle.png,1,m,Wed Jul 09 2025 15:49:30 GMT-0400 (Eastern Daylight Time),385815.200000003,1200,I,m,657,7,1,1872.6000000089407,383942.59999999404,9023,NTS,C,16
3,15,test,1,B,triangle.png,1,z,Wed Jul 09 2025 15:49:30 GMT-0400 (Eastern Daylight Time),388165.200000003,1600,I,z,725,3,1,2341.7000000029802,385823.5,9023,NTS,C,17
8,16,test,1,B,triangle.png,1,m,Wed Jul 09 2025 15:49:30 GMT-0400 (Eastern Daylight Time),390698.5,1700,I,m,803,15,1,2522.7000000029802,388175.799999997,9023,NTS,C,18
3,17,test,1,B,triangle.png,1,z,Wed Jul 09 2025 15:49:30 GMT-0400 (Eastern Daylight Time),393298.40000000596,2000,I,z,578,11,1,2589.7000000029802,390708.700000003,9023,NTS,C,19
9,18,test,1,B,triangle.png,1,z,Wed Jul 09 2025 15:49:30 GMT-0400 (Eastern Daylight Time),396448.299999997,1900,I,z,1231,16,1,3141.5,393306.799999997,9023,NTS,C,20
3,19,test,1,B,triangle.png,1,z,Wed Jul 09 2025 15:49:30 GMT-0400 (Eastern Daylight Time),398748.40000000596,1600,I,z,668,3,1,2291.4000000059605,396457.0,9023,NTS,C,21
1,20,test,1,B,triangle.png,1,z,Wed Jul 09 2025 15:49:30 GMT-0400 (Eastern Daylight Time),401198.90000000596,1900,I,z,532,1,1,2439.800000011921,398759.09999999404,9023,NTS,C,22
2,21,test,1,B,triangle.png,1,m,Wed Jul 09 2025 15:49:30 GMT-0400 (Eastern Daylight Time),403281.5,1200,I,m,862,10,1,2075.7000000029802,401205.799999997,9023,NTS,C,23
1,21,test,1,B,triangle.png,0,z,Wed Jul 09 2025 15:49:30 GMT-0400 (Eastern Daylight Time),405331.90000000596,1400,I,m,627,9,1,2042.6000000089407,403289.299999997,9023,NTS,C,24
8,0,prac,1,C,triangle.png,0,m,Wed Jul 09 2025 15:49:30 GMT-0400 (Eastern Daylight Time),469833.5,1400,I,None,1516,7,1,3678.5999999940395,466154.90000000596,9023,NTS,C,1
2,0,prac,1,C,triangle.png,0,m,Wed Jul 09 2025 15:49:30 GMT-0400 (Eastern Daylight Time),473731.90000000596,1600,I,None,1516,2,1,3892.0,469839.90000000596,9023,NTS,C,2
6,1,prac,1,C,circle.png,1,m,Wed Jul 09 2025 15:49:30 GMT-0400 (Eastern Daylight Time),477382.09999999404,2000,I,m,858,5,1,3639.3999999910593,473742.700000003,9023,NTS,C,3
1,2,prac,1,C,circle.png,1,z,Wed Jul 09 2025 15:49:30 GMT-0400 (Eastern Daylight Time),480582.09999999404,1700,I,z,690,1,1,3180.8999999910593,477401.200000003,9023,NTS,C,4
4,2,prac,1,C,circle.png,0,z,Wed Jul 09 2025 15:49:30 GMT-0400 (Eastern Daylight Time),483482.0,1000,I,m,1103,4,1,2889.4000000059605,480592.59999999404,9023,NTS,C,5
3,2,prac,1,C,triangle.png,0,z,Wed Jul 09 2025 15:49:30 GMT-0400 (Eastern Daylight Time),487281.700000003,1500,I,None,1516,3,1,3788.5,483493.200000003,9023,NTS,C,6
6,2,prac,1,C,circle.png,0,m,Wed Jul 09 2025 15:49:30 GMT-0400 (Eastern Daylight Time),490798.59999999404,2000,I,z,732,5,1,3506.8999999910593,487291.700000003,9023,NTS,C,7
7,2,prac,1,C,triangle.png,0,z,Wed Jul 09 2025 15:49:30 GMT-0400 (Eastern Daylight Time),494298.59999999404,1200,I,None,1516,6,1,3489.199999988079,490809.40000000596,9023,NTS,C,8
7,3,prac,1,C,triangle.png,1,z,Wed Jul 09 2025 15:49:30 GMT-0400 (Eastern Daylight Time),496881.90000000596,1200,I,z,594,6,1,2572.5,494309.40000000596,9023,NTS,C,9
9,4,prac,1,C,circle.png,1,m,Wed Jul 09 2025 15:49:30 GMT-0400 (Eastern Daylight Time),500415.40000000596,1900,I,m,846,8,1,3519.6000000089407,496895.799999997,9023,NTS,C,10
8,4,prac,1,C,triangle.png,0,m,Wed Jul 09 2025 15:49:30 GMT-0400 (Eastern Daylight Time),503632.0,1400,I,z,1014,7,1,3197.2000000029802,500434.799999997,9023,NTS,C,11
1,5,prac,1,C,circle.png,1,z,Wed Jul 09 2025 15:49:30 GMT-0400 (Eastern Daylight Time),507432.0,1700,I,z,1288,1,1,3780.4000000059605,503651.59999999404,9023,NTS,C,12
9,1,prac,2,C,circle.png,1,m,Wed Jul 09 2025 15:49:30 GMT-0400 (Eastern Daylight Time),525381.400000006,1900,I,m,1107,8,1,3789.5,521591.90000000596,9023,NTS,C,1
1,2,prac,2,C,circle.png,1,z,Wed Jul 09 2025 15:49:30 GMT-0400 (Eastern Daylight Time),528748.799999997,1700,I,z,867,1,1,3358.5999999940395,525390.200000003,9023,NTS,C,2
8,2,prac,2,C,triangle.png,0,m,Wed Jul 09 2025 15:49:30 GMT-0400 (Eastern Daylight Time),532348.599999994,1400,I,z,1400,7,1,3587.699999988079,528760.900000006,9023,NTS,C,3
6,3,prac,2,C,circle.png,1,m,Wed Jul 09 2025 15:49:30 GMT-0400 (Eastern Daylight Time),536098.599999994,2000,I,m,961,5,1,3739.5999999940395,532359.0,9023,NTS,C,4
7,4,prac,2,C,triangle.png,1,z,Wed Jul 09 2025 15:49:30 GMT-0400 (Eastern Daylight Time),539048.599999994,1200,I,z,937,6,1,2929.8999999910593,536118.700000003,9023,NTS,C,5
7,5,prac,2,C,triangle.png,1,z,Wed Jul 09 2025 15:49:30 GMT-0400 (Eastern Daylight Time),541882.099999994,1200,I,z,836,6,1,2823.5999999940395,539058.5,9023,NTS,C,6
4,5,prac,2,C,circle.png,0,z,Wed Jul 09 2025 15:49:30 GMT-0400 (Eastern Daylight Time),544665.400000006,1000,I,m,987,4,1,2773.6000000089407,541891.799999997,9023,NTS,C,7
9,6,prac,2,C,circle.png,1,m,Wed Jul 09 2025 15:49:30 GMT-0400 (Eastern Daylight Time),548315.400000006,1900,I,m,952,8,1,3636.2000000029802,544679.200000003,9023,NTS,C,8
3,7,prac,2,C,triangle.png,1,z,Wed Jul 09 2025 15:49:30 GMT-0400 (Eastern Daylight Time),551382.099999994,1500,I,z,773,3,1,3056.7999999970198,548325.299999997,9023,NTS,C,9
2,7,prac,2,C,triangle.png,0,m,Wed Jul 09 2025 15:49:30 GMT-0400 (Eastern Daylight Time),554782.099999994,1600,I,z,1016,2,1,3387.3999999910593,551394.700000003,9023,NTS,C,10
6,8,prac,2,C,circle.png,1,m,Wed Jul 09 2025 15:49:30 GMT-0400 (Eastern Daylight Time),558415.400000006,2000,I,m,848,5,1,3624.2000000029802,554791.200000003,9023,NTS,C,11
2,8,prac,2,C,triangle.png,0,m,Wed Jul 09 2025 15:49:30 GMT-0400 (Eastern Daylight Time),561648.599999994,1600,I,z,845,2,1,3221.2999999970198,558427.299999997,9023,NTS,C,12
7,1,test,1,C,circle.png,1,m,Wed Jul 09 2025 15:49:30 GMT-0400 (Eastern Daylight Time),599548.400000006,2000,I,m,606,14,1,2625.300000011921,596923.099999994,9023,NTS,C,1
6,2,test,1,C,circle.png,1,m,Wed Jul 09 2025 15:49:30 GMT-0400 (Eastern Daylight Time),602298.599999994,1900,I,m,820,21,1,2745.199999988079,599553.400000006,9023,NTS,C,2
2,3,test,1,C,circle.png,1,z,Wed Jul 09 2025 15:49:30 GMT-0400 (Eastern Daylight Time),604748.700000003,1700,I,z,718,10,1,2439.7999999970198,602308.900000006,9023,NTS,C,3
4,4,test,1,C,circle.png,1,z,Wed Jul 09 2025 15:49:30 GMT-0400 (Eastern Daylight Time),607032.0,1400,I,z,857,4,1,2273.0,604759.0,9023,NTS,C,4
3,5,test,1,C,circle.png,1,z,Wed Jul 09 2025 15:49:30 GMT-0400 (Eastern Daylight Time),609448.700000003,1600,I,z,789,19,1,2407.4000000059605,607041.299999997,9023,NTS,C,5
4,5,test,1,C,triangle.png,0,m,Wed Jul 09 2025 15:49:30 GMT-0400 (Eastern Daylight Time),612481.900000006,1500,I,None,1516,20,1,3023.6000000089407,609458.299999997,9023,NTS,C,6
9,6,test,1,C,circle.png,1,m,Wed Jul 09 2025 15:49:30 GMT-0400 (Eastern Daylight Time),615265.200000003,1500,I,m,1263,24,1,2774.2000000029802,612491.0,9023,NTS,C,7
3,7,test,1,C,triangle.png,1,z,Wed Jul 09 2025 15:49:30 GMT-0400 (Eastern Daylight Time),617448.700000003,1200,I,z,956,3,1,2174.2999999970198,615274.400000006,9023,NTS,C,8
6,7,test,1,C,triangle.png,0,m,Wed Jul 09 2025 15:49:30 GMT-0400 (Eastern Daylight Time),619498.400000006,1000,I,z,1020,13,1,2038.9000000059605,617459.5,9023,NTS,C,9
2,8,test,1,C,circle.png,1,z,Wed Jul 09 2025 15:49:30 GMT-0400 (Eastern Daylight Time),622431.700000003,1700,I,z,1214,18,1,2928.0,619503.700000003,9023,NTS,C,10
8,8,test,1,C,circle.png,0,m,Wed Jul 09 2025 15:49:30 GMT-0400 (Eastern Daylight Time),624798.599999994,1200,I,z,1133,15,1,2357.7999999970198,622440.799999997,9023,NTS,C,11
9,9,test,1,C,circle.png,1,m,Wed Jul 09 2025 15:49:30 GMT-0400 (Eastern Daylight Time),627282.0,1500,I,m,962,8,1,2475.0,624807.0,9023,NTS,C,12
4,10,test,1,C,triangle.png,1,m,Wed Jul 09 2025 15:49:30 GMT-0400 (Eastern Daylight Time),629765.299999997,1500,I,m,960,12,1,2473.7999999970198,627291.5,9023,NTS,C,13
7,11,test,1,C,triangle.png,1,z,Wed Jul 09 2025 15:49:30 GMT-0400 (Eastern Daylight Time),632632.0,1700,I,z,1139,22,1,2856.0999999940395,629775.900000006,9023,NTS,C,14
8,12,test,1,C,triangle.png,1,m,Wed Jul 09 2025 15:49:30 GMT-0400 (Eastern Daylight Time),635532.099999994,1600,I,m,1269,7,1,2890.0,632642.099999994,9023,NTS,C,15
8,13,test,1,C,triangle.png,1,m,Wed Jul 09 2025 15:49:30 GMT-0400 (Eastern Daylight Time),638098.700000003,1600,I,m,945,23,1,2557.2999999970198,635541.400000006,9023,NTS,C,16
1,13,test,1,C,triangle.png,0,z,Wed Jul 09 2025 15:49:30 GMT-0400 (Eastern Daylight Time),641532.0,1900,I,None,1516,9,1,3425.2000000029802,638106.799999997,9023,NTS,C,17
1,14,test,1,C,circle.png,1,z,Wed Jul 09 2025 15:49:30 GMT-0400 (Eastern Daylight Time),643365.400000006,1000,I,z,809,1,1,1823.1000000089407,641542.299999997,9023,NTS,C,18
7,14,test,1,C,triangle.png,0,z,Wed Jul 09 2025 15:49:30 GMT-0400 (Eastern Daylight Time),646215.5,1700,I,m,1123,6,1,2841.0,643374.5,9023,NTS,C,19
6,14,test,1,C,circle.png,0,m,Wed Jul 09 2025 15:49:30 GMT-0400 (Eastern Daylight Time),649315.299999997,1900,I,z,1179,5,1,3091.7999999970198,646223.5,9023,NTS,C,20
1,15,test,1,C,triangle.png,1,z,Wed Jul 09 2025 15:49:30 GMT-0400 (Eastern Daylight Time),652398.700000003,1900,I,z,1150,17,1,3074.4000000059605,649324.299999997,9023,NTS,C,21
2,16,test,1,C,triangle.png,1,m,Wed Jul 09 2025 15:49:30 GMT-0400 (Eastern Daylight Time),655348.700000003,2000,I,m,926,2,1,2941.6000000089407,652407.099999994,9023,NTS,C,22
3,17,test,1,C,circle.png,1,z,Wed Jul 09 2025 15:49:30 GMT-0400 (Eastern Daylight Time),658115.400000006,1600,I,z,1144,11,1,2756.1000000089407,655359.299999997,9023,NTS,C,23
9,18,test,1,C,triangle.png,1,z,Wed Jul 09 2025 15:49:30 GMT-0400 (Eastern Daylight Time),660832.900000006,1400,I,z,1297,16,1,2708.4000000059605,658124.5,9023,NTS,C,24
3,1,test,2,C,circle.png,1,z,Wed Jul 09 2025 15:49:30 GMT-0400 (Eastern Daylight Time),676782.200000003,1600,I,z,800,19,1,2425.4000000059605,674356.799999997,9023,NTS,C,1
7,2,test,2,C,circle.png,1,m,Wed Jul 09 2025 15:49:30 GMT-0400 (Eastern Daylight Time),679582.099999994,2000,I,m,767,14,1,2788.699999988079,676793.400000006,9023,NTS,C,2
6,3,test,2,C,triangle.png,1,m,Wed Jul 09 2025 15:49:30 GMT-0400 (Eastern Daylight Time),681782.099999994,1000,I,m,1174,13,1,2190.3999999910593,679591.700000003,9023,NTS,C,3
4,3,test,2,C,circle.png,0,z,Wed Jul 09 2025 15:49:30 GMT-0400 (Eastern Daylight Time),683932.099999994,1400,I,m,719,4,1,2140.5,681791.599999994,9023,NTS,C,4
2,4,test,2,C,circle.png,1,z,Wed Jul 09 2025 15:49:30 GMT-0400 (Eastern Daylight Time),686632.0,1700,I,z,973,10,1,2691.5999999940395,683940.400000006,9023,NTS,C,5
3,5,test,2,C,triangle.png,1,z,Wed Jul 09 2025 15:49:30 GMT-0400 (Eastern Daylight Time),689065.400000006,1200,I,z,1205,3,1,2425.2000000029802,686640.200000003,9023,NTS,C,6
1,6,test,2,C,triangle.png,1,z,Wed Jul 09 2025 15:49:30 GMT-0400 (Eastern Daylight Time),692115.299999997,1900,I,z,1127,9,1,3041.2000000029802,689074.099999994,9023,NTS,C,7
6,7,test,2,C,circle.png,1,m,Wed Jul 09 2025 15:49:30 GMT-0400 (Eastern Daylight Time),695048.700000003,1900,I,m,1006,5,1,2924.7000000029802,692124.0,9023,NTS,C,8
1,8,test,2,C,circle.png,1,z,Wed Jul 09 2025 15:49:30 GMT-0400 (Eastern Daylight Time),697032.200000003,1000,I,z,957,1,1,1974.0,695058.200000003,9023,NTS,C,9
6,8,test,2,C,triangle.png,0,m,Wed Jul 09 2025 15:49:30 GMT-0400 (Eastern Daylight Time),699282.099999994,1000,I,z,1229,21,1,2241.0,697041.099999994,9023,NTS,C,10
8,9,test,2,C,circle.png,1,m,Wed Jul 09 2025 15:49:30 GMT-0400 (Eastern Daylight Time),701999.299999997,1200,I,m,1500,23,1,2709.0,699290.299999997,9023,NTS,C,11
9,10,test,2,C,circle.png,1,m,Wed Jul 09 2025 15:49:30 GMT-0400 (Eastern Daylight Time),704482.099999994,1500,I,m,962,8,1,2473.7999999970198,702008.299999997,9023,NTS,C,12
2,11,test,2,C,circle.png,1,z,Wed Jul 09 2025 15:49:30 GMT-0400 (Eastern Daylight Time),707065.400000006,1700,I,z,856,18,1,2572.9000000059605,704492.5,9023,NTS,C,13
4,11,test,2,C,triangle.png,0,m,Wed Jul 09 2025 15:49:30 GMT-0400 (Eastern Daylight Time),709798.700000003,1500,I,z,1207,20,1,2724.1000000089407,707074.599999994,9023,NTS,C,14
9,12,test,2,C,triangle.png,1,z,Wed Jul 09 2025 15:49:30 GMT-0400 (Eastern Daylight Time),712698.599999994,1400,I,z,1471,16,1,2890.199999988079,709808.400000006,9023,NTS,C,15
8,13,test,2,C,circle.png,1,m,Wed Jul 09 2025 15:49:30 GMT-0400 (Eastern Daylight Time),715165.400000006,1200,I,m,1234,15,1,2458.300000011921,712707.099999994,9023,NTS,C,16
3,14,test,2,C,circle.png,1,z,Wed Jul 09 2025 15:49:30 GMT-0400 (Eastern Daylight Time),718082.0,1600,I,z,1296,11,1,2906.4000000059605,715175.599999994,9023,NTS,C,17
4,15,test,2,C,triangle.png,1,m,Wed Jul 09 2025 15:49:30 GMT-0400 (Eastern Daylight Time),720998.799999997,1500,I,m,1391,12,1,2906.0999999940395,718092.700000003,9023,NTS,C,18
7,16,test,2,C,triangle.png,1,z,Wed Jul 09 2025 15:49:30 GMT-0400 (Eastern Daylight Time),723815.400000006,1700,I,z,1090,6,1,2807.9000000059605,721007.5,9023,NTS,C,19
9,17,test,2,C,triangle.png,1,z,Wed Jul 09 2025 15:49:30 GMT-0400 (Eastern Daylight Time),726132.099999994,1400,I,z,894,24,1,2306.3999999910593,723825.700000003,9023,NTS,C,20
2,18,test,2,C,triangle.png,1,m,Wed Jul 09 2025 15:49:30 GMT-0400 (Eastern Daylight Time),729365.5,2000,I,m,1210,2,1,3223.2999999970198,726142.200000003,9023,NTS,C,21
7,18,test,2,C,circle.png,0,m,Wed Jul 09 2025 15:49:30 GMT-0400 (Eastern Daylight Time),732898.799999997,2000,I,None,1516,22,1,3523.5999999940395,729375.200000003,9023,NTS,C,22
1,19,test,2,C,triangle.png,1,z,Wed Jul 09 2025 15:49:30 GMT-0400 (Eastern Daylight Time),736148.5,1900,I,z,1326,17,1,3240.5999999940395,732907.900000006,9023,NTS,C,23
8,20,test,2,C,triangle.png,1,m,Wed Jul 09 2025 15:49:30 GMT-0400 (Eastern Daylight Time),739265.200000003,1600,I,m,1497,7,1,3108.4000000059605,736156.799999997,9023,NTS,C,24
1,1,test,3,C,circle.png,1,z,Wed Jul 09 2025 15:49:30 GMT-0400 (Eastern Daylight Time),750665.599999994,1000,I,z,956,17,1,1971.0,748694.599999994,9023,NTS,C,1
2,1,test,3,C,triangle.png,0,m,Wed Jul 09 2025 15:49:30 GMT-0400 (Eastern Daylight Time),754015.599999994,2000,I,z,1332,2,1,3341.5,750674.099999994,9023,NTS,C,2
8,2,test,3,C,triangle.png,1,m,Wed Jul 09 2025 15:49:30 GMT-0400 (Eastern Daylight Time),756748.700000003,1600,I,m,1101,23,1,2725.4000000059605,754023.299999997,9023,NTS,C,3
9,3,test,3,C,triangle.png,1,z,Wed Jul 09 2025 15:49:30 GMT-0400 (Eastern Daylight Time),759265.200000003,1400,I,z,1097,16,1,2506.1000000089407,756759.099999994,9023,NTS,C,4
8,4,test,3,C,triangle.png,1,m,Wed Jul 09 2025 15:49:30 GMT-0400 (Eastern Daylight Time),761998.799999997,1600,I,m,1100,7,1,2723.0,759275.799999997,9023,NTS,C,5
7,5,test,3,C,triangle.png,1,z,Wed Jul 09 2025 15:49:30 GMT-0400 (Eastern Daylight Time),764748.599999994,1700,I,z,1019,6,1,2740.7999999970198,762007.799999997,9023,NTS,C,6
9,6,test,3,C,circle.png,1,m,Wed Jul 09 2025 15:49:30 GMT-0400 (Eastern Daylight Time),767332.099999994,1500,I,m,1061,8,1,2571.699999988079,764760.400000006,9023,NTS,C,7
1,7,test,3,C,triangle.png,1,z,Wed Jul 09 2025 15:49:30 GMT-0400 (Eastern Daylight Time),770365.400000006,1900,I,z,1102,9,1,3022.800000011921,767342.599999994,9023,NTS,C,8
6,8,test,3,C,triangle.png,1,m,Wed Jul 09 2025 15:49:30 GMT-0400 (Eastern Daylight Time),772548.700000003,1000,I,m,1159,13,1,2173.1000000089407,770375.599999994,9023,NTS,C,9
4,9,test,3,C,triangle.png,1,m,Wed Jul 09 2025 15:49:30 GMT-0400 (Eastern Daylight Time),775298.799999997,1500,I,m,1229,12,1,2741.0,772557.799999997,9023,NTS,C,10
6,9,test,3,C,circle.png,0,m,Wed Jul 09 2025 15:49:30 GMT-0400 (Eastern Daylight Time),778182.200000003,1900,I,z,959,21,1,2872.0,775310.200000003,9023,NTS,C,11
7,10,test,3,C,triangle.png,1,z,Wed Jul 09 2025 15:49:30 GMT-0400 (Eastern Daylight Time),781065.5,1700,I,z,1156,22,1,2873.0,778192.5,9023,NTS,C,12
3,10,test,3,C,triangle.png,0,z,Wed Jul 09 2025 15:49:30 GMT-0400 (Eastern Daylight Time),783799.0,1200,I,None,1516,3,1,2724.0,781075.0,9023,NTS,C,13
2,11,test,3,C,triangle.png,1,m,Wed Jul 09 2025 15:49:30 GMT-0400 (Eastern Daylight Time),787248.5,2000,I,m,1414,18,1,3434.2000000029802,783814.299999997,9023,NTS,C,14
4,12,test,3,C,circle.png,1,z,Wed Jul 09 2025 15:49:30 GMT-0400 (Eastern Daylight Time),789782.099999994,1400,I,z,1109,4,1,2525.3999999910593,787256.700000003,9023,NTS,C,15
7,13,test,3,C,circle.png,1,m,Wed Jul 09 2025 15:49:30 GMT-0400 (Eastern Daylight Time),792882.099999994,2000,I,m,1080,14,1,3090.7999999970198,789791.299999997,9023,NTS,C,16
6,14,test,3,C,circle.png,1,m,Wed Jul 09 2025 15:49:30 GMT-0400 (Eastern Daylight Time),795932.200000003,1900,I,m,1119,5,1,3037.1000000089407,792895.099999994,9023,NTS,C,17
8,15,test,3,C,circle.png,1,m,Wed Jul 09 2025 15:49:30 GMT-0400 (Eastern Daylight Time),798031.799999997,1200,I,m,880,15,1,2085.7999999970198,795946.0,9023,NTS,C,18
2,16,test,3,C,circle.png,1,z,Wed Jul 09 2025 15:49:30 GMT-0400 (Eastern Daylight Time),800482.0,1700,I,z,730,10,1,2441.2999999970198,798040.700000003,9023,NTS,C,19
3,17,test,3,C,circle.png,1,z,Wed Jul 09 2025 15:49:30 GMT-0400 (Eastern Daylight Time),803065.400000006,1600,I,z,956,11,1,2574.1000000089407,800491.299999997,9023,NTS,C,20
9,18,test,3,C,circle.png,1,m,Wed Jul 09 2025 15:49:30 GMT-0400 (Eastern Daylight Time),805348.900000006,1500,I,m,760,24,1,2275.6000000089407,803073.299999997,9023,NTS,C,21
3,19,test,3,C,triangle.png,1,z,Wed Jul 09 2025 15:49:30 GMT-0400 (Eastern Daylight Time),807532.200000003,1200,I,z,952,19,1,2172.2999999970198,805359.900000006,9023,NTS,C,22
4,19,test,3,C,circle.png,0,z,Wed Jul 09 2025 15:49:30 GMT-0400 (Eastern Daylight Time),809999.200000003,1400,I,m,1050,20,1,2458.9000000059605,807540.299999997,9023,NTS,C,23
1,20,test,3,C,circle.png,1,z,Wed Jul 09 2025 15:49:30 GMT-0400 (Eastern Daylight Time),812315.400000006,1000,I,z,1287,1,1,2308.0,810007.400000006,9023,NTS,C,24
1,1,test,4,C,circle.png,1,z,Wed Jul 09 2025 15:49:30 GMT-0400 (Eastern Daylight Time),819915.799999997,1000,I,z,904,1,1,1924.7000000029802,817991.099999994,9023,NTS,C,1
4,2,test,4,C,triangle.png,1,m,Wed Jul 09 2025 15:49:30 GMT-0400 (Eastern Daylight Time),822748.700000003,1500,I,m,1302,12,1,2824.9000000059605,819923.799999997,9023,NTS,C,2
9,3,test,4,C,triangle.png,1,z,Wed Jul 09 2025 15:49:30 GMT-0400 (Eastern Daylight Time),825515.5,1400,I,z,1337,16,1,2757.5999999940395,822757.900000006,9023,NTS,C,3
4,3,test,4,C,circle.png,0,z,Wed Jul 09 2025 15:49:30 GMT-0400 (Eastern Daylight Time),828165.5,1400,I,m,1225,20,1,2639.0,825526.5,9023,NTS,C,4
2,3,test,4,C,triangle.png,0,m,Wed Jul 09 2025 15:49:30 GMT-0400 (Eastern Daylight Time),831698.799999997,2000,I,None,1516,18,1,3524.7000000029802,828174.099999994,9023,NTS,C,5
7,4,test,4,C,triangle.png,1,z,Wed Jul 09 2025 15:49:30 GMT-0400 (Eastern Daylight Time),834615.5,1700,I,z,1191,22,1,2908.9000000059605,831706.599999994,9023,NTS,C,6
8,4,test,4,C,triangle.png,0,m,Wed Jul 09 2025 15:49:30 GMT-0400 (Eastern Daylight Time),837748.900000006,1600,I,None,1516,23,1,3124.1000000089407,834624.799999997,9023,NTS,C,7
2,5,test,4,C,circle.png,1,z,Wed Jul 09 2025 15:49:30 GMT-0400 (Eastern Daylight Time),840615.5,1700,I,z,1141,10,1,2857.2000000029802,837758.299999997,9023,NTS,C,8
8,5,test,4,C,triangle.png,0,m,Wed Jul 09 2025 15:49:30 GMT-0400 (Eastern Daylight Time),843598.900000006,1600,I,z,1350,7,1,2975.0,840623.900000006,9023,NTS,C,9
6,6,test,4,C,circle.png,1,m,Wed Jul 09 2025 15:49:30 GMT-0400 (Eastern Daylight Time),846732.200000003,1900,I,m,1203,21,1,3124.2000000029802,843608.0,9023,NTS,C,10
3,7,test,4,C,triangle.png,1,z,Wed Jul 09 2025 15:49:30 GMT-0400 (Eastern Daylight Time),849248.599999994,1200,I,z,1297,19,1,2505.5999999940395,846743.0,9023,NTS,C,11
1,8,test,4,C,circle.png,1,z,Wed Jul 09 2025 15:49:30 GMT-0400 (Eastern Daylight Time),851498.900000006,1000,I,z,1221,17,1,2235.6000000089407,849263.299999997,9023,NTS,C,12
6,9,test,4,C,triangle.png,1,m,Wed Jul 09 2025 15:49:30 GMT-0400 (Eastern Daylight Time),853865.5,1000,I,m,1339,13,1,2358.4000000059605,851507.099999994,9023,NTS,C,13
8,10,test,4,C,circle.png,1,m,Wed Jul 09 2025 15:49:30 GMT-0400 (Eastern Daylight Time),856332.200000003,1200,I,m,1236,15,1,2455.2000000029802,853877.0,9023,NTS,C,14
1,11,test,4,C,triangle.png,1,z,Wed Jul 09 2025 15:49:30 GMT-0400 (Eastern Daylight Time),859599.400000006,1900,I,z,1350,9,1,3258.2000000029802,856341.200000003,9023,NTS,C,15
9,11,test,4,C,circle.png,0,m,Wed Jul 09 2025 15:49:30 GMT-0400 (Eastern Daylight Time),862632.299999997,1500,I,None,1516,8,1,3025.2999999970198,859607.0,9023,NTS,C,16
7,12,test,4,C,triangle.png,1,z,Wed Jul 09 2025 15:49:30 GMT-0400 (Eastern Daylight Time),865498.700000003,1700,I,z,1138,6,1,2851.7000000029802,862647.0,9023,NTS,C,17
4,13,test,4,C,circle.png,1,z,Wed Jul 09 2025 15:49:30 GMT-0400 (Eastern Daylight Time),868015.599999994,1400,I,z,1099,4,1,2508.699999988079,865506.900000006,9023,NTS,C,18
3,14,test,4,C,triangle.png,1,z,Wed Jul 09 2025 15:49:30 GMT-0400 (Eastern Daylight Time),870615.5,1200,I,z,1373,3,1,2592.7999999970198,868022.700000003,9023,NTS,C,19
7,15,test,4,C,circle.png,1,m,Wed Jul 09 2025 15:49:30 GMT-0400 (Eastern Daylight Time),873432.200000003,2000,I,m,790,14,1,2806.7999999970198,870625.400000006,9023,NTS,C,20
3,16,test,4,C,circle.png,1,z,Wed Jul 09 2025 15:49:30 GMT-0400 (Eastern Daylight Time),875782.099999994,1600,I,z,725,11,1,2342.3999999910593,873439.700000003,9023,NTS,C,21
2,16,test,4,C,triangle.png,0,m,Wed Jul 09 2025 15:49:30 GMT-0400 (Eastern Daylight Time),879098.700000003,2000,I,z,1288,2,1,3303.5,875795.200000003,9023,NTS,C,22
6,17,test,4,C,circle.png,1,m,Wed Jul 09 2025 15:49:30 GMT-0400 (Eastern Daylight Time),882215.5,1900,I,m,1191,5,1,3107.5,879108.0,9023,NTS,C,23
9,18,test,4,C,circle.png,1,m,Wed Jul 09 2025 15:49:30 GMT-0400 (Eastern Daylight Time),884748.599999994,1500,I,m,1002,24,1,2523.699999988079,882224.900000006,9023,NTS,C,24
