acc_sum,block,block_c,block_cond,con_img,correct,correct_response,datetime,endtime,face,jitter,line,project,response,response_time,row_sel,session_number,start_end,starttime,subject_id,task,task_vers,trial
1,prac,1,A,haborder.png,1,z,Mon Aug 12 2024 09:44:16 GMT-0500 (Central Daylight Time),54652.0,CFD-WM-009-009-A.jpg,1900,solid,O,z,846,8,1,3532.0999999940395,51119.90000000596,7000,ATS,B,1
2,prac,1,A,haborder.png,1,m,Mon Aug 12 2024 09:44:16 GMT-0500 (Central Daylight Time),57517.80000001192,CFD-WF-011-006-HC.jpg,1500,solid,O,m,577,11,1,6397.9000000059605,51119.90000000596,7000,ATS,B,2
3,prac,1,A,haborder.png,1,z,Mon Aug 12 2024 09:44:16 GMT-0500 (Central Daylight Time),59917.0,CFD-BF-051-043-A.jpg,1000,solid,O,z,612,4,1,8797.09999999404,51119.90000000596,7000,ATS,B,3
4,prac,1,A,haborder.png,1,m,Mon Aug 12 2024 09:44:16 GMT-0500 (Central Daylight Time),63032.90000000596,CFD-BM-020-024-HC.jpg,1500,solid,O,m,832,3,1,11913.0,51119.90000000596,7000,ATS,B,4
5,prac,1,A,haborder.png,1,m,Mon Aug 12 2024 09:44:16 GMT-0500 (Central Daylight Time),66231.90000000596,CFD-BM-015-017-HC.jpg,1700,solid,O,m,700,1,1,15112.0,51119.90000000596,7000,ATS,B,5
6,prac,1,A,haborder.png,1,z,Mon Aug 12 2024 09:44:16 GMT-0500 (Central Daylight Time),68714.20000001788,CFD-WF-013-015-A.jpg,1000,solid,O,z,698,12,1,17594.30000001192,51119.90000000596,7000,ATS,B,6
7,prac,1,A,haborder.png,1,z,Mon Aug 12 2024 09:44:16 GMT-0500 (Central Daylight Time),72013.20000001788,CFD-BM-037-041-A.jpg,1600,solid,O,z,903,2,1,20893.30000001192,51119.90000000596,7000,ATS,B,7
8,prac,1,A,haborder.png,1,m,Mon Aug 12 2024 09:44:16 GMT-0500 (Central Daylight Time),75595.30000001192,CFD-BF-035-007-HC.jpg,2000,solid,O,m,796,5,1,24475.40000000596,51119.90000000596,7000,ATS,B,8
9,prac,1,A,haborder.png,1,m,Mon Aug 12 2024 09:44:16 GMT-0500 (Central Daylight Time),78911.09999999404,CFD-WM-012-007-HC.jpg,1700,solid,O,m,826,9,1,27791.19999998808,51119.90000000596,7000,ATS,B,9
10,prac,1,A,haborder.png,1,z,Mon Aug 12 2024 09:44:16 GMT-0500 (Central Daylight Time),82059.90000000596,CFD-WF-026-008-A.jpg,1600,solid,O,z,762,10,1,30940.0,51119.90000000596,7000,ATS,B,10
11,prac,1,A,haborder.png,1,z,Mon Aug 12 2024 09:44:16 GMT-0500 (Central Daylight Time),84826.09999999404,CFD-BF-050-012-A.jpg,1200,solid,O,z,773,6,1,33706.19999998808,51119.90000000596,7000,ATS,B,11
12,prac,1,A,haborder.png,1,m,Mon Aug 12 2024 09:44:16 GMT-0500 (Central Daylight Time),87758.20000001788,CFD-WM-011-006-HC.jpg,1400,solid,O,m,735,7,1,36638.30000001192,51119.90000000596,7000,ATS,B,12
1,prac,1,B,mfborder.png,1,m,Mon Aug 12 2024 09:44:16 GMT-0500 (Central Daylight Time),122951.90000000596,CFD-BM-041-048-A.jpg,1600,dash,O,m,572,2,1,2970.300000011921,119981.59999999404,7000,ATS,B,1
2,prac,1,B,mfborder.png,1,m,Mon Aug 12 2024 09:44:16 GMT-0500 (Central Daylight Time),125979.59999999404,CFD-WM-012-007-HC.jpg,1600,dash,O,m,637,10,1,5998.0,119981.59999999404,7000,ATS,B,2
3,prac,1,B,mfborder.png,1,z,Mon Aug 12 2024 09:44:16 GMT-0500 (Central Daylight Time),128912.09999999404,CFD-WF-026-008-A.jpg,1500,dash,O,z,642,11,1,8930.5,119981.59999999404,7000,ATS,B,3
4,prac,1,B,mfborder.png,1,m,Mon Aug 12 2024 09:44:16 GMT-0500 (Central Daylight Time),132660.80000001192,CFD-WM-009-009-A.jpg,1700,dash,O,m,1261,9,1,12679.200000017881,119981.59999999404,7000,ATS,B,4
5,prac,1,B,mfborder.png,1,m,Mon Aug 12 2024 09:44:16 GMT-0500 (Central Daylight Time),136343.0,CFD-BM-037-041-A.jpg,2000,dash,O,m,893,5,1,16361.40000000596,119981.59999999404,7000,ATS,B,5
6,prac,1,B,mfborder.png,1,z,Mon Aug 12 2024 09:44:16 GMT-0500 (Central Daylight Time),139342.0,CFD-BF-035-007-HC.jpg,1400,dash,O,z,810,7,1,19360.40000000596,119981.59999999404,7000,ATS,B,6
7,prac,1,B,mfborder.png,1,m,Mon Aug 12 2024 09:44:16 GMT-0500 (Central Daylight Time),142274.70000001788,CFD-WM-037-060-A.jpg,1200,dash,O,m,939,6,1,22293.100000023842,119981.59999999404,7000,ATS,B,7
8,prac,1,B,mfborder.png,1,m,Mon Aug 12 2024 09:44:16 GMT-0500 (Central Daylight Time),145423.70000001788,CFD-BM-020-024-HC.jpg,1700,dash,O,m,659,1,1,25442.100000023842,119981.59999999404,7000,ATS,B,8
9,prac,1,B,mfborder.png,1,z,Mon Aug 12 2024 09:44:16 GMT-0500 (Central Daylight Time),149039.20000001788,CFD-WF-027-007-HC.jpg,1900,dash,O,z,918,8,1,29057.600000023842,119981.59999999404,7000,ATS,B,9
10,prac,1,B,mfborder.png,1,z,Mon Aug 12 2024 09:44:16 GMT-0500 (Central Daylight Time),151621.90000000596,CFD-BF-051-043-A.jpg,1000,dash,O,z,786,4,1,31640.30000001192,119981.59999999404,7000,ATS,B,10
11,prac,1,B,mfborder.png,1,z,Mon Aug 12 2024 09:44:16 GMT-0500 (Central Daylight Time),154120.90000000596,CFD-WF-011-006-HC.jpg,1000,dash,O,z,700,12,1,34139.30000001192,119981.59999999404,7000,ATS,B,11
12,prac,1,B,mfborder.png,1,z,Mon Aug 12 2024 09:44:16 GMT-0500 (Central Daylight Time),157452.90000000596,CFD-BF-027-013-HC.jpg,1500,dash,O,z,1035,3,1,37471.30000001192,119981.59999999404,7000,ATS,B,12
1,test,1,A,haborder.png,1,m,Mon Aug 12 2024 09:44:16 GMT-0500 (Central Daylight Time),187710.20000001788,CFD-WF-011-006-HC.jpg,1500,solid,O,m,1287,11,1,2815.7000000178814,184894.5,7000,ATS,B,1
2,test,1,A,haborder.png,1,z,Mon Aug 12 2024 09:44:16 GMT-0500 (Central Daylight Time),190426.09999999404,CFD-BM-037-041-A.jpg,1600,solid,O,z,1083,2,1,5531.5999999940395,184894.5,7000,ATS,B,2
3,test,1,A,haborder.png,1,z,Mon Aug 12 2024 09:44:16 GMT-0500 (Central Daylight Time),192425.5,CFD-WF-013-015-A.jpg,1000,solid,O,z,975,12,1,7531.0,184894.5,7000,ATS,B,3
4,test,1,A,haborder.png,1,z,Mon Aug 12 2024 09:44:16 GMT-0500 (Central Daylight Time),194891.20000001788,CFD-BF-050-012-A.jpg,1200,solid,O,z,1240,6,1,9996.700000017881,184894.5,7000,ATS,B,4
5,test,1,A,haborder.png,1,m,Mon Aug 12 2024 09:44:16 GMT-0500 (Central Daylight Time),197440.30000001192,CFD-WM-012-007-HC.jpg,1700,solid,O,m,818,9,1,12545.800000011921,184894.5,7000,ATS,B,5
6,test,1,A,haborder.png,1,m,Mon Aug 12 2024 09:44:16 GMT-0500 (Central Daylight Time),200023.0,CFD-WM-012-007-HC.jpg,1700,solid,O,m,861,9,1,15128.5,184894.5,7000,ATS,B,6
7,test,1,A,haborder.png,1,m,Mon Aug 12 2024 09:44:16 GMT-0500 (Central Daylight Time),202188.90000000596,CFD-BM-020-024-HC.jpg,1500,solid,O,m,647,3,1,17294.40000000596,184894.5,7000,ATS,B,7
8,test,1,A,haborder.png,1,z,Mon Aug 12 2024 09:44:16 GMT-0500 (Central Daylight Time),204071.90000000596,CFD-BF-051-043-A.jpg,1000,solid,O,z,860,4,1,19177.40000000596,184894.5,7000,ATS,B,8
9,test,1,A,haborder.png,1,m,Mon Aug 12 2024 09:44:16 GMT-0500 (Central Daylight Time),206537.59999999404,CFD-BM-015-017-HC.jpg,1700,solid,O,m,742,1,1,21643.09999999404,184894.5,7000,ATS,B,9
10,test,1,A,haborder.png,1,z,Mon Aug 12 2024 09:44:16 GMT-0500 (Central Daylight Time),209003.30000001192,CFD-WF-026-008-A.jpg,1600,solid,O,z,848,10,1,24108.80000001192,184894.5,7000,ATS,B,10
11,test,1,A,haborder.png,1,m,Mon Aug 12 2024 09:44:16 GMT-0500 (Central Daylight Time),211719.5,CFD-BF-035-007-HC.jpg,2000,solid,O,m,694,5,1,26825.0,184894.5,7000,ATS,B,11
12,test,1,A,haborder.png,1,z,Mon Aug 12 2024 09:44:16 GMT-0500 (Central Daylight Time),213752.0,CFD-BF-051-043-A.jpg,1000,solid,O,z,1002,4,1,28857.5,184894.5,7000,ATS,B,12
13,test,1,A,haborder.png,1,m,Mon Aug 12 2024 09:44:16 GMT-0500 (Central Daylight Time),216001.30000001192,CFD-BM-020-024-HC.jpg,1500,solid,O,m,725,3,1,31106.80000001192,184894.5,7000,ATS,B,13
14,test,1,A,haborder.png,1,m,Mon Aug 12 2024 09:44:16 GMT-0500 (Central Daylight Time),219000.40000000596,CFD-BF-035-007-HC.jpg,2000,solid,O,m,968,5,1,34105.90000000596,184894.5,7000,ATS,B,14
15,test,1,A,haborder.png,1,z,Mon Aug 12 2024 09:44:16 GMT-0500 (Central Daylight Time),221732.90000000596,CFD-WM-009-009-A.jpg,1900,solid,O,z,805,8,1,36838.40000000596,184894.5,7000,ATS,B,15
16,test,1,A,haborder.png,1,m,Mon Aug 12 2024 09:44:16 GMT-0500 (Central Daylight Time),223882.09999999404,CFD-WM-011-006-HC.jpg,1400,solid,O,m,732,7,1,38987.59999999404,184894.5,7000,ATS,B,16
17,test,1,A,haborder.png,1,m,Mon Aug 12 2024 09:44:16 GMT-0500 (Central Daylight Time),225898.20000001788,CFD-WM-011-006-HC.jpg,1400,solid,O,m,599,7,1,41003.70000001788,184894.5,7000,ATS,B,17
18,test,1,A,haborder.png,1,m,Mon Aug 12 2024 09:44:16 GMT-0500 (Central Daylight Time),227997.5,CFD-WF-011-006-HC.jpg,1500,solid,O,m,571,11,1,43103.0,184894.5,7000,ATS,B,18
18,test,1,A,haborder.png,0,z,Mon Aug 12 2024 09:44:16 GMT-0500 (Central Daylight Time),230546.70000001788,CFD-BM-037-041-A.jpg,1600,solid,O,m,924,2,1,45652.20000001788,184894.5,7000,ATS,B,19
19,test,1,A,haborder.png,1,z,Mon Aug 12 2024 09:44:16 GMT-0500 (Central Daylight Time),232946.40000000596,CFD-WF-026-008-A.jpg,1600,solid,O,z,767,10,1,48051.90000000596,184894.5,7000,ATS,B,20
20,test,1,A,haborder.png,1,z,Mon Aug 12 2024 09:44:16 GMT-0500 (Central Daylight Time),235578.5,CFD-WM-009-009-A.jpg,1900,solid,O,z,715,8,1,50684.0,184894.5,7000,ATS,B,21
21,test,1,A,haborder.png,1,z,Mon Aug 12 2024 09:44:16 GMT-0500 (Central Daylight Time),237427.90000000596,CFD-BF-050-012-A.jpg,1200,solid,O,z,622,6,1,52533.40000000596,184894.5,7000,ATS,B,22
22,test,1,A,haborder.png,1,z,Mon Aug 12 2024 09:44:16 GMT-0500 (Central Daylight Time),239127.30000001192,CFD-WF-013-015-A.jpg,1000,solid,O,z,677,12,1,54232.80000001192,184894.5,7000,ATS,B,23
23,test,1,A,haborder.png,1,m,Mon Aug 12 2024 09:44:16 GMT-0500 (Central Daylight Time),241859.70000001788,CFD-BM-015-017-HC.jpg,1700,solid,O,m,1006,1,1,56965.20000001788,184894.5,7000,ATS,B,24
1,test,1,B,mfborder.png,1,z,Mon Aug 12 2024 09:44:16 GMT-0500 (Central Daylight Time),268151.7000000179,CFD-BF-035-007-HC.jpg,1400,dash,O,z,660,7,1,2082.9000000059605,266068.8000000119,7000,ATS,B,1
2,test,1,B,mfborder.png,1,z,Mon Aug 12 2024 09:44:16 GMT-0500 (Central Daylight Time),269784.59999999404,CFD-BF-051-043-A.jpg,1000,dash,O,z,610,4,1,3715.7999999821186,266068.8000000119,7000,ATS,B,2
3,test,1,B,mfborder.png,1,m,Mon Aug 12 2024 09:44:16 GMT-0500 (Central Daylight Time),272216.90000000596,CFD-WM-009-009-A.jpg,1700,dash,O,m,701,9,1,6148.0999999940395,266068.8000000119,7000,ATS,B,3
4,test,1,B,mfborder.png,1,m,Mon Aug 12 2024 09:44:16 GMT-0500 (Central Daylight Time),274832.90000000596,CFD-BM-037-041-A.jpg,2000,dash,O,m,592,5,1,8764.09999999404,266068.8000000119,7000,ATS,B,4
5,test,1,B,mfborder.png,1,z,Mon Aug 12 2024 09:44:16 GMT-0500 (Central Daylight Time),277015.5,CFD-BF-027-013-HC.jpg,1500,dash,O,z,661,3,1,10946.699999988079,266068.8000000119,7000,ATS,B,5
6,test,1,B,mfborder.png,1,m,Mon Aug 12 2024 09:44:16 GMT-0500 (Central Daylight Time),279698.09999999404,CFD-BM-037-041-A.jpg,2000,dash,O,m,666,5,1,13629.299999982119,266068.8000000119,7000,ATS,B,6
7,test,1,B,mfborder.png,1,z,Mon Aug 12 2024 09:44:16 GMT-0500 (Central Daylight Time),282580.3000000119,CFD-WF-027-007-HC.jpg,1900,dash,O,z,963,8,1,16511.5,266068.8000000119,7000,ATS,B,7
8,test,1,B,mfborder.png,1,z,Mon Aug 12 2024 09:44:16 GMT-0500 (Central Daylight Time),284729.90000000596,CFD-BF-027-013-HC.jpg,1500,dash,O,z,617,3,1,18661.09999999404,266068.8000000119,7000,ATS,B,8
9,test,1,B,mfborder.png,1,z,Mon Aug 12 2024 09:44:16 GMT-0500 (Central Daylight Time),286312.7000000179,CFD-WF-011-006-HC.jpg,1000,dash,O,z,552,12,1,20243.90000000596,266068.8000000119,7000,ATS,B,9
10,test,1,B,mfborder.png,1,m,Mon Aug 12 2024 09:44:16 GMT-0500 (Central Daylight Time),288495.3000000119,CFD-WM-012-007-HC.jpg,1600,dash,O,m,561,10,1,22426.5,266068.8000000119,7000,ATS,B,10
11,test,1,B,mfborder.png,1,z,Mon Aug 12 2024 09:44:16 GMT-0500 (Central Daylight Time),290927.7000000179,CFD-WF-027-007-HC.jpg,1900,dash,O,z,511,8,1,24858.90000000596,266068.8000000119,7000,ATS,B,11
12,test,1,B,mfborder.png,1,z,Mon Aug 12 2024 09:44:16 GMT-0500 (Central Daylight Time),293510.3000000119,CFD-WF-026-008-A.jpg,1500,dash,O,z,1054,11,1,27441.5,266068.8000000119,7000,ATS,B,12
13,test,1,B,mfborder.png,1,m,Mon Aug 12 2024 09:44:16 GMT-0500 (Central Daylight Time),295892.90000000596,CFD-BM-020-024-HC.jpg,1700,dash,O,m,663,1,1,29824.09999999404,266068.8000000119,7000,ATS,B,13
14,test,1,B,mfborder.png,1,m,Mon Aug 12 2024 09:44:16 GMT-0500 (Central Daylight Time),298208.90000000596,CFD-BM-041-048-A.jpg,1600,dash,O,m,692,2,1,32140.09999999404,266068.8000000119,7000,ATS,B,14
15,test,1,B,mfborder.png,1,z,Mon Aug 12 2024 09:44:16 GMT-0500 (Central Daylight Time),299874.8000000119,CFD-WF-011-006-HC.jpg,1000,dash,O,z,648,12,1,33806.0,266068.8000000119,7000,ATS,B,15
16,test,1,B,mfborder.png,1,m,Mon Aug 12 2024 09:44:16 GMT-0500 (Central Daylight Time),302124.09999999404,CFD-WM-009-009-A.jpg,1700,dash,O,m,530,9,1,36055.29999998212,266068.8000000119,7000,ATS,B,16
17,test,1,B,mfborder.png,1,z,Mon Aug 12 2024 09:44:16 GMT-0500 (Central Daylight Time),304308.0,CFD-WF-026-008-A.jpg,1500,dash,O,z,665,11,1,38239.19999998808,266068.8000000119,7000,ATS,B,17
18,test,1,B,mfborder.png,1,z,Mon Aug 12 2024 09:44:16 GMT-0500 (Central Daylight Time),306056.3000000119,CFD-BF-051-043-A.jpg,1000,dash,O,z,726,4,1,39987.5,266068.8000000119,7000,ATS,B,18
19,test,1,B,mfborder.png,1,m,Mon Aug 12 2024 09:44:16 GMT-0500 (Central Daylight Time),308522.40000000596,CFD-BM-020-024-HC.jpg,1700,dash,O,m,741,1,1,42453.59999999404,266068.8000000119,7000,ATS,B,19
20,test,1,B,mfborder.png,1,m,Mon Aug 12 2024 09:44:16 GMT-0500 (Central Daylight Time),310471.59999999404,CFD-WM-037-060-A.jpg,1200,dash,O,m,719,6,1,44402.79999998212,266068.8000000119,7000,ATS,B,20
21,test,1,B,mfborder.png,1,z,Mon Aug 12 2024 09:44:16 GMT-0500 (Central Daylight Time),312537.8000000119,CFD-BF-035-007-HC.jpg,1400,dash,O,z,634,7,1,46469.0,266068.8000000119,7000,ATS,B,21
22,test,1,B,mfborder.png,1,m,Mon Aug 12 2024 09:44:16 GMT-0500 (Central Daylight Time),314786.90000000596,CFD-WM-012-007-HC.jpg,1600,dash,O,m,624,10,1,48718.09999999404,266068.8000000119,7000,ATS,B,22
23,test,1,B,mfborder.png,1,m,Mon Aug 12 2024 09:44:16 GMT-0500 (Central Daylight Time),316986.3000000119,CFD-BM-041-048-A.jpg,1600,dash,O,m,583,2,1,50917.5,266068.8000000119,7000,ATS,B,23
24,test,1,B,mfborder.png,1,m,Mon Aug 12 2024 09:44:16 GMT-0500 (Central Daylight Time),318785.90000000596,CFD-WM-037-060-A.jpg,1200,dash,O,m,567,6,1,52717.09999999404,266068.8000000119,7000,ATS,B,24
0,7,1,C,haborder.png,0,z,Mon Aug 12 2024 09:44:16 GMT-0500 (Central Daylight Time),369003.3000000119,CFD-BF-051-043-A.jpg,1900,dash,O,None,1516,prac,1,4198.700000017881,364804.59999999404,7000,ATS,B,1
1,10,1,C,haborder.png,1,m,Mon Aug 12 2024 09:44:16 GMT-0500 (Central Daylight Time),372319.2000000179,CFD-BM-020-024-HC.jpg,1500,solid,O,m,1026,prac,1,7514.600000023842,364804.59999999404,7000,ATS,B,2
2,8,1,C,haborder.png,1,z,Mon Aug 12 2024 09:44:16 GMT-0500 (Central Daylight Time),376001.09999999404,CFD-BF-050-012-A.jpg,1700,solid,O,z,1191,prac,1,11196.5,364804.59999999404,7000,ATS,B,3
3,9,1,C,haborder.png,1,z,Mon Aug 12 2024 09:44:16 GMT-0500 (Central Daylight Time),379433.40000000596,CFD-WF-026-008-A.jpg,1600,dash,O,z,1041,prac,1,14628.800000011921,364804.59999999404,7000,ATS,B,4
3,4,1,C,mfborder.png,0,m,Mon Aug 12 2024 09:44:16 GMT-0500 (Central Daylight Time),383731.8000000119,CFD-BM-015-017-HC.jpg,2000,solid,O,None,1516,prac,1,18927.20000001788,364804.59999999404,7000,ATS,B,5
3,6,1,C,mfborder.png,0,m,Mon Aug 12 2024 09:44:16 GMT-0500 (Central Daylight Time),387630.8000000119,CFD-WM-009-009-A.jpg,1700,solid,O,z,1401,prac,1,22826.20000001788,364804.59999999404,7000,ATS,B,6
3,11,1,C,haborder.png,0,m,Mon Aug 12 2024 09:44:16 GMT-0500 (Central Daylight Time),390929.5,CFD-WM-011-006-HC.jpg,1000,dash,O,None,1516,prac,1,26124.90000000596,364804.59999999404,7000,ATS,B,7
4,12,1,C,haborder.png,1,m,Mon Aug 12 2024 09:44:16 GMT-0500 (Central Daylight Time),393795.5,CFD-WM-011-006-HC.jpg,1400,solid,O,m,680,prac,1,28990.90000000596,364804.59999999404,7000,ATS,B,8
5,1,1,C,mfborder.png,1,z,Mon Aug 12 2024 09:44:16 GMT-0500 (Central Daylight Time),397511.3000000119,CFD-WF-011-006-HC.jpg,1600,dash,O,z,1318,prac,1,32706.70000001788,364804.59999999404,7000,ATS,B,9
6,5,1,C,mfborder.png,1,m,Mon Aug 12 2024 09:44:16 GMT-0500 (Central Daylight Time),400343.40000000596,CFD-BM-037-041-A.jpg,1200,dash,O,m,842,prac,1,35538.80000001192,364804.59999999404,7000,ATS,B,10
7,2,1,C,mfborder.png,1,z,Mon Aug 12 2024 09:44:16 GMT-0500 (Central Daylight Time),403609.2000000179,CFD-WF-013-015-A.jpg,1500,solid,O,z,982,prac,1,38804.60000002384,364804.59999999404,7000,ATS,B,11
8,3,1,C,mfborder.png,1,z,Mon Aug 12 2024 09:44:16 GMT-0500 (Central Daylight Time),406291.90000000596,CFD-BF-035-007-HC.jpg,1000,dash,O,z,888,prac,1,41487.30000001192,364804.59999999404,7000,ATS,B,12
1,test,1,C,mfborder.png,1,z,Mon Aug 12 2024 09:44:16 GMT-0500 (Central Daylight Time),425620.0,CFD-BF-027-013-HC.jpg,1700,dash,O,z,865,1,1,2583.699999988079,423036.3000000119,7000,ATS,B,1
1,test,1,C,haborder.png,0,z,Mon Aug 12 2024 09:44:16 GMT-0500 (Central Daylight Time),428552.09999999404,CFD-WM-009-009-A.jpg,1400,solid,O,None,1517,7,1,5515.799999982119,423036.3000000119,7000,ATS,B,2
1,test,1,C,mfborder.png,0,m,Mon Aug 12 2024 09:44:16 GMT-0500 (Central Daylight Time),431283.90000000596,CFD-BM-020-024-HC.jpg,1200,dash,O,None,1516,6,1,8247.59999999404,423036.3000000119,7000,ATS,B,3
2,test,1,C,mfborder.png,1,z,Mon Aug 12 2024 09:44:16 GMT-0500 (Central Daylight Time),433716.40000000596,CFD-WF-026-008-A.jpg,1500,dash,O,z,906,3,1,10680.09999999404,423036.3000000119,7000,ATS,B,4
3,test,1,C,mfborder.png,1,m,Mon Aug 12 2024 09:44:16 GMT-0500 (Central Daylight Time),435699.09999999404,CFD-WM-012-007-HC.jpg,1000,dash,O,m,957,4,1,12662.799999982119,423036.3000000119,7000,ATS,B,5
4,test,1,C,haborder.png,1,m,Mon Aug 12 2024 09:44:16 GMT-0500 (Central Daylight Time),438331.40000000596,CFD-BF-035-007-HC.jpg,1600,solid,O,m,1015,10,1,15295.09999999404,423036.3000000119,7000,ATS,B,6
4,test,1,C,mfborder.png,0,z,Mon Aug 12 2024 09:44:16 GMT-0500 (Central Daylight Time),441463.90000000596,CFD-BF-051-043-A.jpg,1600,dash,O,None,1516,2,1,18427.59999999404,423036.3000000119,7000,ATS,B,7
4,test,1,C,haborder.png,0,m,Mon Aug 12 2024 09:44:16 GMT-0500 (Central Daylight Time),443996.40000000596,CFD-WF-011-006-HC.jpg,1000,solid,O,None,1516,12,1,20960.09999999404,423036.3000000119,7000,ATS,B,8
4,test,1,C,mfborder.png,0,m,Mon Aug 12 2024 09:44:16 GMT-0500 (Central Daylight Time),447528.8000000119,CFD-WM-037-060-A.jpg,2000,dash,O,None,1516,5,1,24492.5,423036.3000000119,7000,ATS,B,9
4,test,1,C,haborder.png,0,z,Mon Aug 12 2024 09:44:16 GMT-0500 (Central Daylight Time),450294.40000000596,CFD-BM-037-041-A.jpg,1900,solid,O,m,837,8,1,27258.09999999404,423036.3000000119,7000,ATS,B,10
5,test,1,C,mfborder.png,1,m,Mon Aug 12 2024 09:44:16 GMT-0500 (Central Daylight Time),452400.40000000596,CFD-BM-020-024-HC.jpg,1200,dash,O,m,873,6,1,29364.09999999404,423036.3000000119,7000,ATS,B,11
6,test,1,C,haborder.png,1,m,Mon Aug 12 2024 09:44:16 GMT-0500 (Central Daylight Time),455193.09999999404,CFD-WF-027-007-HC.jpg,1500,solid,O,m,1276,11,1,32156.79999998212,423036.3000000119,7000,ATS,B,12
7,test,1,C,mfborder.png,1,z,Mon Aug 12 2024 09:44:16 GMT-0500 (Central Daylight Time),457742.0,CFD-BF-027-013-HC.jpg,1700,dash,O,z,820,1,1,34705.69999998808,423036.3000000119,7000,ATS,B,13
8,test,1,C,haborder.png,1,m,Mon Aug 12 2024 09:44:16 GMT-0500 (Central Daylight Time),460607.90000000596,CFD-WF-027-007-HC.jpg,1500,solid,O,m,1335,11,1,37571.59999999404,423036.3000000119,7000,ATS,B,14
9,test,1,C,haborder.png,1,z,Mon Aug 12 2024 09:44:16 GMT-0500 (Central Daylight Time),463523.7000000179,CFD-BM-041-048-A.jpg,1700,solid,O,z,1190,9,1,40487.40000000596,423036.3000000119,7000,ATS,B,15
9,test,1,C,haborder.png,0,m,Mon Aug 12 2024 09:44:16 GMT-0500 (Central Daylight Time),466656.3000000119,CFD-BF-035-007-HC.jpg,1600,solid,O,None,1516,10,1,43620.0,423036.3000000119,7000,ATS,B,16
10,test,1,C,haborder.png,1,m,Mon Aug 12 2024 09:44:16 GMT-0500 (Central Daylight Time),469038.59999999404,CFD-WF-011-006-HC.jpg,1000,solid,O,m,1361,12,1,46002.29999998212,423036.3000000119,7000,ATS,B,17
11,test,1,C,mfborder.png,1,z,Mon Aug 12 2024 09:44:16 GMT-0500 (Central Daylight Time),471604.3000000119,CFD-WF-026-008-A.jpg,1500,dash,O,z,1039,3,1,48568.0,423036.3000000119,7000,ATS,B,18
12,test,1,C,mfborder.png,1,z,Mon Aug 12 2024 09:44:16 GMT-0500 (Central Daylight Time),474203.2000000179,CFD-BF-051-043-A.jpg,1600,dash,O,z,973,2,1,51166.90000000596,423036.3000000119,7000,ATS,B,19
13,test,1,C,mfborder.png,1,m,Mon Aug 12 2024 09:44:16 GMT-0500 (Central Daylight Time),477585.90000000596,CFD-WM-037-060-A.jpg,2000,dash,O,m,1349,5,1,54549.59999999404,423036.3000000119,7000,ATS,B,20
13,test,1,C,haborder.png,0,z,Mon Aug 12 2024 09:44:16 GMT-0500 (Central Daylight Time),480818.8000000119,CFD-BM-041-048-A.jpg,1700,solid,O,None,1516,9,1,57782.5,423036.3000000119,7000,ATS,B,21
14,test,1,C,haborder.png,1,z,Mon Aug 12 2024 09:44:16 GMT-0500 (Central Daylight Time),483367.40000000596,CFD-WM-009-009-A.jpg,1400,solid,O,z,1119,7,1,60331.09999999404,423036.3000000119,7000,ATS,B,22
14,test,1,C,haborder.png,0,z,Mon Aug 12 2024 09:44:16 GMT-0500 (Central Daylight Time),486800.90000000596,CFD-BM-037-041-A.jpg,1900,solid,O,None,1517,8,1,63764.59999999404,423036.3000000119,7000,ATS,B,23
14,test,1,C,mfborder.png,0,m,Mon Aug 12 2024 09:44:16 GMT-0500 (Central Daylight Time),489332.5,CFD-WM-012-007-HC.jpg,1000,dash,O,None,1516,4,1,66296.19999998808,423036.3000000119,7000,ATS,B,24
1,test,2,C,mfborder.png,1,z,Mon Aug 12 2024 09:44:16 GMT-0500 (Central Daylight Time),496013.5,CFD-WF-011-006-HC.jpg,1700,dash,O,z,904,1,1,2632.5999999940395,493380.90000000596,7000,ATS,B,1
2,test,2,C,mfborder.png,1,m,Mon Aug 12 2024 09:44:16 GMT-0500 (Central Daylight Time),499341.0,CFD-BM-037-041-A.jpg,2000,dash,O,m,1309,5,1,5960.0999999940395,493380.90000000596,7000,ATS,B,2
3,test,2,C,mfborder.png,1,z,Mon Aug 12 2024 09:44:16 GMT-0500 (Central Daylight Time),501578.5,CFD-BF-035-007-HC.jpg,1500,dash,O,z,708,3,1,8197.59999999404,493380.90000000596,7000,ATS,B,3
4,test,2,C,mfborder.png,1,m,Mon Aug 12 2024 09:44:16 GMT-0500 (Central Daylight Time),504227.3000000119,CFD-BM-037-041-A.jpg,2000,dash,O,m,623,5,1,10846.40000000596,493380.90000000596,7000,ATS,B,4
5,test,2,C,haborder.png,1,m,Mon Aug 12 2024 09:44:16 GMT-0500 (Central Daylight Time),506676.7000000179,CFD-WM-011-006-HC.jpg,1500,solid,O,m,929,11,1,13295.800000011921,493380.90000000596,7000,ATS,B,5
6,test,2,C,haborder.png,1,m,Mon Aug 12 2024 09:44:16 GMT-0500 (Central Daylight Time),509192.59999999404,CFD-BM-020-024-HC.jpg,1600,solid,O,m,893,10,1,15811.699999988079,493380.90000000596,7000,ATS,B,6
7,test,2,C,mfborder.png,1,m,Mon Aug 12 2024 09:44:16 GMT-0500 (Central Daylight Time),511326.40000000596,CFD-BM-015-017-HC.jpg,1000,dash,O,m,1113,4,1,17945.5,493380.90000000596,7000,ATS,B,7
8,test,2,C,mfborder.png,1,z,Mon Aug 12 2024 09:44:16 GMT-0500 (Central Daylight Time),514257.7000000179,CFD-WF-013-015-A.jpg,1600,dash,O,z,1308,2,1,20876.80000001192,493380.90000000596,7000,ATS,B,8
9,test,2,C,haborder.png,1,z,Mon Aug 12 2024 09:44:16 GMT-0500 (Central Daylight Time),517206.7000000179,CFD-WF-026-008-A.jpg,1700,solid,O,z,1228,9,1,23825.80000001192,493380.90000000596,7000,ATS,B,9
10,test,2,C,haborder.png,1,m,Mon Aug 12 2024 09:44:16 GMT-0500 (Central Daylight Time),519972.5,CFD-BM-020-024-HC.jpg,1600,solid,O,m,1139,10,1,26591.59999999404,493380.90000000596,7000,ATS,B,10
11,test,2,C,haborder.png,1,m,Mon Aug 12 2024 09:44:16 GMT-0500 (Central Daylight Time),522538.3000000119,CFD-WM-011-006-HC.jpg,1500,solid,O,m,1049,11,1,29157.40000000596,493380.90000000596,7000,ATS,B,11
12,test,2,C,mfborder.png,1,m,Mon Aug 12 2024 09:44:16 GMT-0500 (Central Daylight Time),525237.5,CFD-WM-009-009-A.jpg,1200,dash,O,m,1471,6,1,31856.59999999404,493380.90000000596,7000,ATS,B,12
12,test,2,C,haborder.png,0,z,Mon Aug 12 2024 09:44:16 GMT-0500 (Central Daylight Time),528670.2000000179,CFD-BF-050-012-A.jpg,1900,solid,O,None,1516,8,1,35289.30000001192,493380.90000000596,7000,ATS,B,13
13,test,2,C,haborder.png,1,m,Mon Aug 12 2024 09:44:16 GMT-0500 (Central Daylight Time),530586.0,CFD-WM-011-006-HC.jpg,1000,solid,O,m,883,12,1,37205.09999999404,493380.90000000596,7000,ATS,B,14
13,test,2,C,mfborder.png,0,m,Mon Aug 12 2024 09:44:16 GMT-0500 (Central Daylight Time),533118.599999994,CFD-BM-015-017-HC.jpg,1000,dash,O,None,1516,4,1,39737.69999998808,493380.90000000596,7000,ATS,B,15
14,test,2,C,haborder.png,1,z,Mon Aug 12 2024 09:44:16 GMT-0500 (Central Daylight Time),535751.0,CFD-BF-051-043-A.jpg,1400,solid,O,z,1211,7,1,42370.09999999404,493380.90000000596,7000,ATS,B,16
15,test,2,C,mfborder.png,1,m,Mon Aug 12 2024 09:44:16 GMT-0500 (Central Daylight Time),538183.400000006,CFD-WM-009-009-A.jpg,1200,dash,O,m,1202,6,1,44802.5,493380.90000000596,7000,ATS,B,17
16,test,2,C,mfborder.png,1,z,Mon Aug 12 2024 09:44:16 GMT-0500 (Central Daylight Time),540932.5,CFD-WF-013-015-A.jpg,1600,dash,O,z,1122,2,1,47551.59999999404,493380.90000000596,7000,ATS,B,18
17,test,2,C,mfborder.png,1,z,Mon Aug 12 2024 09:44:16 GMT-0500 (Central Daylight Time),543698.3000000119,CFD-BF-035-007-HC.jpg,1500,dash,O,z,1233,3,1,50317.40000000596,493380.90000000596,7000,ATS,B,19
18,test,2,C,haborder.png,1,z,Mon Aug 12 2024 09:44:16 GMT-0500 (Central Daylight Time),546664.099999994,CFD-WF-026-008-A.jpg,1700,solid,O,z,1235,9,1,53283.19999998808,493380.90000000596,7000,ATS,B,20
19,test,2,C,haborder.png,1,z,Mon Aug 12 2024 09:44:16 GMT-0500 (Central Daylight Time),549530.099999994,CFD-BF-050-012-A.jpg,1900,solid,O,z,941,8,1,56149.19999998808,493380.90000000596,7000,ATS,B,21
20,test,2,C,haborder.png,1,z,Mon Aug 12 2024 09:44:16 GMT-0500 (Central Daylight Time),551829.2000000179,CFD-BF-051-043-A.jpg,1400,solid,O,z,879,7,1,58448.30000001192,493380.90000000596,7000,ATS,B,22
21,test,2,C,haborder.png,1,m,Mon Aug 12 2024 09:44:16 GMT-0500 (Central Daylight Time),553562.0,CFD-WM-011-006-HC.jpg,1000,solid,O,m,716,12,1,60181.09999999404,493380.90000000596,7000,ATS,B,23
22,test,2,C,mfborder.png,1,z,Mon Aug 12 2024 09:44:16 GMT-0500 (Central Daylight Time),556527.599999994,CFD-WF-011-006-HC.jpg,1700,dash,O,z,1244,1,1,63146.69999998808,493380.90000000596,7000,ATS,B,24
1,test,3,C,haborder.png,1,m,Mon Aug 12 2024 09:44:16 GMT-0500 (Central Daylight Time),561309.599999994,CFD-WF-027-007-HC.jpg,1500,solid,O,m,1437,11,1,2965.699999988079,558343.900000006,7000,ATS,B,1
2,test,3,C,haborder.png,1,m,Mon Aug 12 2024 09:44:16 GMT-0500 (Central Daylight Time),563292.400000006,CFD-WF-011-006-HC.jpg,1000,solid,O,m,963,12,1,4948.5,558343.900000006,7000,ATS,B,2
3,test,3,C,haborder.png,1,m,Mon Aug 12 2024 09:44:16 GMT-0500 (Central Daylight Time),565691.400000006,CFD-BF-035-007-HC.jpg,1600,solid,O,m,773,10,1,7347.5,558343.900000006,7000,ATS,B,3
4,test,3,C,haborder.png,1,z,Mon Aug 12 2024 09:44:16 GMT-0500 (Central Daylight Time),568824.099999994,CFD-BM-041-048-A.jpg,1700,solid,O,z,1410,9,1,10480.199999988079,558343.900000006,7000,ATS,B,4
5,test,3,C,mfborder.png,1,z,Mon Aug 12 2024 09:44:16 GMT-0500 (Central Daylight Time),571506.5,CFD-WF-026-008-A.jpg,1500,dash,O,z,1149,3,1,13162.59999999404,558343.900000006,7000,ATS,B,5
6,test,3,C,mfborder.png,1,m,Mon Aug 12 2024 09:44:16 GMT-0500 (Central Daylight Time),573455.900000006,CFD-WM-012-007-HC.jpg,1000,dash,O,m,927,4,1,15112.0,558343.900000006,7000,ATS,B,6
7,test,3,C,haborder.png,1,m,Mon Aug 12 2024 09:44:16 GMT-0500 (Central Daylight Time),575855.0,CFD-WF-027-007-HC.jpg,1500,solid,O,m,870,11,1,17511.09999999404,558343.900000006,7000,ATS,B,7
7,test,3,C,mfborder.png,0,z,Mon Aug 12 2024 09:44:16 GMT-0500 (Central Daylight Time),579087.8000000119,CFD-BF-027-013-HC.jpg,1700,dash,O,None,1516,1,1,20743.90000000596,558343.900000006,7000,ATS,B,8
7,test,3,C,haborder.png,0,z,Mon Aug 12 2024 09:44:16 GMT-0500 (Central Daylight Time),581736.400000006,CFD-BM-037-041-A.jpg,1900,solid,O,m,726,8,1,23392.5,558343.900000006,7000,ATS,B,9
7,test,3,C,haborder.png,0,m,Mon Aug 12 2024 09:44:16 GMT-0500 (Central Daylight Time),584269.599999994,CFD-WF-011-006-HC.jpg,1000,solid,O,None,1516,12,1,25925.69999998808,558343.900000006,7000,ATS,B,10
8,test,3,C,haborder.png,1,m,Mon Aug 12 2024 09:44:16 GMT-0500 (Central Daylight Time),586918.0,CFD-BF-035-007-HC.jpg,1600,solid,O,m,1020,10,1,28574.09999999404,558343.900000006,7000,ATS,B,11
9,test,3,C,mfborder.png,1,m,Mon Aug 12 2024 09:44:16 GMT-0500 (Central Daylight Time),590283.7000000179,CFD-WM-037-060-A.jpg,2000,dash,O,m,1347,5,1,31939.80000001192,558343.900000006,7000,ATS,B,12
10,test,3,C,mfborder.png,1,z,Mon Aug 12 2024 09:44:16 GMT-0500 (Central Daylight Time),593199.5,CFD-BF-027-013-HC.jpg,1700,dash,O,z,1194,1,1,34855.59999999404,558343.900000006,7000,ATS,B,13
11,test,3,C,mfborder.png,1,m,Mon Aug 12 2024 09:44:16 GMT-0500 (Central Daylight Time),595615.5,CFD-BM-020-024-HC.jpg,1200,dash,O,m,1194,6,1,37271.59999999404,558343.900000006,7000,ATS,B,14
11,test,3,C,mfborder.png,0,z,Mon Aug 12 2024 09:44:16 GMT-0500 (Central Daylight Time),598748.3000000119,CFD-BF-051-043-A.jpg,1600,dash,O,None,1516,2,1,40404.40000000596,558343.900000006,7000,ATS,B,15
11,test,3,C,haborder.png,0,z,Mon Aug 12 2024 09:44:16 GMT-0500 (Central Daylight Time),601680.3000000119,CFD-WM-009-009-A.jpg,1400,solid,O,None,1515,7,1,43336.40000000596,558343.900000006,7000,ATS,B,16
11,test,3,C,mfborder.png,0,m,Mon Aug 12 2024 09:44:16 GMT-0500 (Central Daylight Time),604212.8000000119,CFD-WM-012-007-HC.jpg,1000,dash,O,None,1516,4,1,45868.90000000596,558343.900000006,7000,ATS,B,17
12,test,3,C,mfborder.png,1,z,Mon Aug 12 2024 09:44:16 GMT-0500 (Central Daylight Time),606828.8000000119,CFD-BF-051-043-A.jpg,1600,dash,O,z,989,2,1,48484.90000000596,558343.900000006,7000,ATS,B,18
13,test,3,C,mfborder.png,1,z,Mon Aug 12 2024 09:44:16 GMT-0500 (Central Daylight Time),609261.400000006,CFD-WF-026-008-A.jpg,1500,dash,O,z,905,3,1,50917.5,558343.900000006,7000,ATS,B,19
14,test,3,C,mfborder.png,1,m,Mon Aug 12 2024 09:44:16 GMT-0500 (Central Daylight Time),612010.5,CFD-WM-037-060-A.jpg,2000,dash,O,m,733,5,1,53666.59999999404,558343.900000006,7000,ATS,B,20
15,test,3,C,mfborder.png,1,m,Mon Aug 12 2024 09:44:16 GMT-0500 (Central Daylight Time),614342.8000000119,CFD-BM-020-024-HC.jpg,1200,dash,O,m,1111,6,1,55998.90000000596,558343.900000006,7000,ATS,B,21
16,test,3,C,haborder.png,1,z,Mon Aug 12 2024 09:44:16 GMT-0500 (Central Daylight Time),617242.099999994,CFD-BM-041-048-A.jpg,1700,solid,O,z,1182,9,1,58898.19999998808,558343.900000006,7000,ATS,B,22
17,test,3,C,haborder.png,1,z,Mon Aug 12 2024 09:44:16 GMT-0500 (Central Daylight Time),619524.7000000179,CFD-WM-009-009-A.jpg,1400,solid,O,z,864,7,1,61180.80000001192,558343.900000006,7000,ATS,B,23
17,test,3,C,haborder.png,0,z,Mon Aug 12 2024 09:44:16 GMT-0500 (Central Daylight Time),622857.0,CFD-BM-037-041-A.jpg,1900,solid,O,m,1409,8,1,64513.09999999404,558343.900000006,7000,ATS,B,24
1,test,4,C,haborder.png,1,m,Mon Aug 12 2024 09:44:16 GMT-0500 (Central Daylight Time),627322.3000000119,CFD-WM-011-006-HC.jpg,1500,solid,O,m,950,11,1,2482.5999999940395,624839.7000000179,7000,ATS,B,1
2,test,4,C,mfborder.png,1,z,Mon Aug 12 2024 09:44:16 GMT-0500 (Central Daylight Time),630171.2000000179,CFD-BF-035-007-HC.jpg,1500,dash,O,z,1331,3,1,5331.5,624839.7000000179,7000,ATS,B,2
3,test,4,C,mfborder.png,1,m,Mon Aug 12 2024 09:44:16 GMT-0500 (Central Daylight Time),633303.599999994,CFD-BM-037-041-A.jpg,2000,dash,O,m,1102,5,1,8463.899999976158,624839.7000000179,7000,ATS,B,3
4,test,4,C,haborder.png,1,m,Mon Aug 12 2024 09:44:16 GMT-0500 (Central Daylight Time),635519.7000000179,CFD-WM-011-006-HC.jpg,1000,solid,O,m,1186,12,1,10680.0,624839.7000000179,7000,ATS,B,4
5,test,4,C,mfborder.png,1,z,Mon Aug 12 2024 09:44:16 GMT-0500 (Central Daylight Time),637985.400000006,CFD-WF-013-015-A.jpg,1600,dash,O,z,842,2,1,13145.699999988079,624839.7000000179,7000,ATS,B,5
5,test,4,C,mfborder.png,0,z,Mon Aug 12 2024 09:44:16 GMT-0500 (Central Daylight Time),640694.7000000179,CFD-WF-011-006-HC.jpg,1700,dash,O,m,976,1,1,15855.0,624839.7000000179,7000,ATS,B,6
6,test,4,C,mfborder.png,1,m,Mon Aug 12 2024 09:44:16 GMT-0500 (Central Daylight Time),643000.5,CFD-WM-009-009-A.jpg,1200,dash,O,m,1085,6,1,18160.79999998212,624839.7000000179,7000,ATS,B,7
7,test,4,C,mfborder.png,1,z,Mon Aug 12 2024 09:44:16 GMT-0500 (Central Daylight Time),645333.2000000179,CFD-WF-013-015-A.jpg,1600,dash,O,z,713,2,1,20493.5,624839.7000000179,7000,ATS,B,8
7,test,4,C,mfborder.png,0,z,Mon Aug 12 2024 09:44:16 GMT-0500 (Central Daylight Time),647882.400000006,CFD-BF-035-007-HC.jpg,1500,dash,O,m,1032,3,1,23042.69999998808,624839.7000000179,7000,ATS,B,9
7,test,4,C,mfborder.png,0,z,Mon Aug 12 2024 09:44:16 GMT-0500 (Central Daylight Time),651115.099999994,CFD-WF-011-006-HC.jpg,1700,dash,O,None,1516,1,1,26275.399999976158,624839.7000000179,7000,ATS,B,10
7,test,4,C,haborder.png,0,z,Mon Aug 12 2024 09:44:16 GMT-0500 (Central Daylight Time),654013.900000006,CFD-WF-026-008-A.jpg,1700,solid,O,m,1179,9,1,29174.19999998808,624839.7000000179,7000,ATS,B,11
8,test,4,C,mfborder.png,1,m,Mon Aug 12 2024 09:44:16 GMT-0500 (Central Daylight Time),656113.3000000119,CFD-BM-015-017-HC.jpg,1000,dash,O,m,1075,4,1,31273.59999999404,624839.7000000179,7000,ATS,B,12
9,test,4,C,haborder.png,1,z,Mon Aug 12 2024 09:44:16 GMT-0500 (Central Daylight Time),659395.5,CFD-BF-050-012-A.jpg,1900,solid,O,z,1364,8,1,34555.79999998212,624839.7000000179,7000,ATS,B,13
10,test,4,C,haborder.png,1,z,Mon Aug 12 2024 09:44:16 GMT-0500 (Central Daylight Time),662194.5,CFD-BF-050-012-A.jpg,1900,solid,O,z,882,8,1,37354.79999998212,624839.7000000179,7000,ATS,B,14
11,test,4,C,haborder.png,1,z,Mon Aug 12 2024 09:44:16 GMT-0500 (Central Daylight Time),664526.900000006,CFD-BF-051-043-A.jpg,1400,solid,O,z,911,7,1,39687.19999998808,624839.7000000179,7000,ATS,B,15
12,test,4,C,mfborder.png,1,m,Mon Aug 12 2024 09:44:16 GMT-0500 (Central Daylight Time),666659.900000006,CFD-WM-009-009-A.jpg,1200,dash,O,m,914,6,1,41820.19999998808,624839.7000000179,7000,ATS,B,16
13,test,4,C,mfborder.png,1,m,Mon Aug 12 2024 09:44:16 GMT-0500 (Central Daylight Time),670158.900000006,CFD-BM-037-041-A.jpg,2000,dash,O,m,1470,5,1,45319.19999998808,624839.7000000179,7000,ATS,B,17
14,test,4,C,haborder.png,1,m,Mon Aug 12 2024 09:44:16 GMT-0500 (Central Daylight Time),672141.5,CFD-WM-011-006-HC.jpg,1000,solid,O,m,955,12,1,47301.79999998212,624839.7000000179,7000,ATS,B,18
15,test,4,C,mfborder.png,1,m,Mon Aug 12 2024 09:44:16 GMT-0500 (Central Daylight Time),674157.5,CFD-BM-015-017-HC.jpg,1000,dash,O,m,996,4,1,49317.79999998212,624839.7000000179,7000,ATS,B,19
16,test,4,C,haborder.png,1,z,Mon Aug 12 2024 09:44:16 GMT-0500 (Central Daylight Time),676240.2000000179,CFD-BF-051-043-A.jpg,1400,solid,O,z,660,7,1,51400.5,624839.7000000179,7000,ATS,B,20
17,test,4,C,haborder.png,1,m,Mon Aug 12 2024 09:44:16 GMT-0500 (Central Daylight Time),678672.900000006,CFD-WM-011-006-HC.jpg,1500,solid,O,m,909,11,1,53833.19999998808,624839.7000000179,7000,ATS,B,21
18,test,4,C,haborder.png,1,m,Mon Aug 12 2024 09:44:16 GMT-0500 (Central Daylight Time),681322.0,CFD-BM-020-024-HC.jpg,1600,solid,O,m,1024,10,1,56482.29999998212,624839.7000000179,7000,ATS,B,22
19,test,4,C,haborder.png,1,z,Mon Aug 12 2024 09:44:16 GMT-0500 (Central Daylight Time),684154.3000000119,CFD-WF-026-008-A.jpg,1700,solid,O,z,1101,9,1,59314.59999999404,624839.7000000179,7000,ATS,B,23
20,test,4,C,haborder.png,1,m,Mon Aug 12 2024 09:44:16 GMT-0500 (Central Daylight Time),686670.099999994,CFD-BM-020-024-HC.jpg,1600,solid,O,m,887,10,1,61830.39999997616,624839.7000000179,7000,ATS,B,24
