acc_sum,block,block_c,change,condition,correct,correct_response,datetime,endtime,face,project,response,response_time,row_sel,session_number,start_end,starttime,subject_id,task,task_vers,trial
0,prac,1,,1-Back,,,Tue Aug 19 2025 10:10:44 GMT-0400 (Eastern Daylight Time),,097_m_f_n_a.png,I,space,13804,1,2,,,9010,NNB,B,0
1,prac,1,0.0,1-Back,1.0,m,Tue Aug 19 2025 10:10:44 GMT-0400 (Eastern Daylight Time),167701.40000009537,152_y_f_n_a.png,I,m,922,2,2,1833.3000001907349,165868.09999990463,9010,NNB,B,1
2,prac,1,1.0,1-Back,1.0,z,Tue Aug 19 2025 10:10:44 GMT-0400 (Eastern Daylight Time),169468.0,152_y_f_n_a.png,I,z,1000,3,2,1751.2999997138977,167716.7000002861,9010,NNB,B,2
3,prac,1,0.0,1-Back,1.0,m,Tue Aug 19 2025 10:10:44 GMT-0400 (Eastern Daylight Time),171217.90000009537,176_o_m_n_a.png,I,m,812,4,2,1734.8000001907349,169483.09999990463,9010,NNB,B,3
3,prac,1,0.0,1-Back,0.0,m,Tue Aug 19 2025 10:10:44 GMT-0400 (Eastern Daylight Time),174017.7000002861,126_m_m_n_a.png,I,None,2017,5,2,2784.1000003814697,171233.59999990463,9010,NNB,B,4
4,prac,1,1.0,1-Back,1.0,z,Tue Aug 19 2025 10:10:44 GMT-0400 (Eastern Daylight Time),175867.90000009537,126_m_m_n_a.png,I,z,1086,6,2,1837.1999998092651,174030.7000002861,9010,NNB,B,5
5,prac,1,0.0,1-Back,1.0,m,Tue Aug 19 2025 10:10:44 GMT-0400 (Eastern Daylight Time),177601.30000019073,086_o_f_n_a.png,I,m,948,7,2,1720.3000001907349,175881.0,9010,NNB,B,6
5,prac,1,0.0,1-Back,0.0,m,Tue Aug 19 2025 10:10:44 GMT-0400 (Eastern Daylight Time),179551.0,178_m_m_n_a.png,I,z,1028,8,2,1936.5999999046326,177614.40000009537,9010,NNB,B,7
6,prac,1,0.0,1-Back,1.0,m,Tue Aug 19 2025 10:10:44 GMT-0400 (Eastern Daylight Time),181484.59999990463,097_m_f_n_a.png,I,m,1150,9,2,1918.0999999046326,179566.5,9010,NNB,B,8
7,prac,1,1.0,1-Back,1.0,z,Tue Aug 19 2025 10:10:44 GMT-0400 (Eastern Daylight Time),183251.2000002861,097_m_f_n_a.png,I,z,962,10,2,1736.3000001907349,181514.90000009537,9010,NNB,B,9
8,prac,1,0.0,1-Back,1.0,m,Tue Aug 19 2025 10:10:44 GMT-0400 (Eastern Daylight Time),184917.90000009537,176_o_m_n_a.png,I,m,873,11,2,1649.9000000953674,183268.0,9010,NNB,B,10
9,prac,1,0.0,1-Back,1.0,m,Tue Aug 19 2025 10:10:44 GMT-0400 (Eastern Daylight Time),187134.59999990463,173_y_f_n_a.png,I,m,1281,12,2,2200.2999997138977,184934.30000019073,9010,NNB,B,11
0,test,1,0.0,1-Back,,,Tue Aug 19 2025 10:10:44 GMT-0400 (Eastern Daylight Time),187134.59999990463,152_y_f_n_a.png,I,space,13036,1,2,2200.2999997138977,184934.30000019073,9010,NNB,B,0
1,test,1,0.0,1-Back,1.0,m,Tue Aug 19 2025 10:10:44 GMT-0400 (Eastern Daylight Time),217734.5,029_m_f_n_a.png,I,m,708,2,2,1722.2999997138977,216012.2000002861,9010,NNB,B,1
2,test,1,0.0,1-Back,1.0,m,Tue Aug 19 2025 10:10:44 GMT-0400 (Eastern Daylight Time),219483.80000019073,173_y_f_n_a.png,I,m,717,3,2,1737.0999999046326,217746.7000002861,9010,NNB,B,2
3,test,1,1.0,1-Back,1.0,z,Tue Aug 19 2025 10:10:44 GMT-0400 (Eastern Daylight Time),221134.40000009537,173_y_f_n_a.png,I,z,616,4,2,1645.5999999046326,219488.80000019073,9010,NNB,B,3
4,test,1,0.0,1-Back,1.0,m,Tue Aug 19 2025 10:10:44 GMT-0400 (Eastern Daylight Time),223017.7000002861,029_m_f_n_a.png,I,m,855,5,2,1873.6000003814697,221144.09999990463,9010,NNB,B,4
5,test,1,0.0,1-Back,1.0,m,Tue Aug 19 2025 10:10:44 GMT-0400 (Eastern Daylight Time),224784.30000019073,176_o_m_n_a.png,I,m,748,6,2,1752.7000002861023,223031.59999990463,9010,NNB,B,5
6,test,1,1.0,1-Back,1.0,z,Tue Aug 19 2025 10:10:44 GMT-0400 (Eastern Daylight Time),226434.40000009537,176_o_m_n_a.png,I,z,628,7,2,1638.5999999046326,224795.80000019073,9010,NNB,B,6
7,test,1,0.0,1-Back,1.0,m,Tue Aug 19 2025 10:10:44 GMT-0400 (Eastern Daylight Time),228401.09999990463,126_m_m_n_a.png,I,m,946,8,2,1956.2999997138977,226444.80000019073,9010,NNB,B,7
8,test,1,0.0,1-Back,1.0,m,Tue Aug 19 2025 10:10:44 GMT-0400 (Eastern Daylight Time),230517.7000002861,086_o_f_n_a.png,I,m,1091,9,2,2106.0,228411.7000002861,9010,NNB,B,8
9,test,1,0.0,1-Back,1.0,m,Tue Aug 19 2025 10:10:44 GMT-0400 (Eastern Daylight Time),232301.0,126_m_m_n_a.png,I,m,751,10,2,1774.4000000953674,230526.59999990463,9010,NNB,B,9
10,test,1,0.0,1-Back,1.0,m,Tue Aug 19 2025 10:10:44 GMT-0400 (Eastern Daylight Time),234151.09999990463,153_y_m_n_a.png,I,m,823,11,2,1841.0,232310.09999990463,9010,NNB,B,10
11,test,1,1.0,1-Back,1.0,z,Tue Aug 19 2025 10:10:44 GMT-0400 (Eastern Daylight Time),235851.0,153_y_m_n_a.png,I,z,670,12,2,1689.5999999046326,234161.40000009537,9010,NNB,B,11
12,test,1,0.0,1-Back,1.0,m,Tue Aug 19 2025 10:10:44 GMT-0400 (Eastern Daylight Time),237651.09999990463,110_o_f_n_a.png,I,m,778,13,2,1790.3999996185303,235860.7000002861,9010,NNB,B,12
13,test,1,1.0,1-Back,1.0,z,Tue Aug 19 2025 10:10:44 GMT-0400 (Eastern Daylight Time),239550.80000019073,110_o_f_n_a.png,I,z,882,14,2,1889.0999999046326,237661.7000002861,9010,NNB,B,13
14,test,1,0.0,1-Back,1.0,m,Tue Aug 19 2025 10:10:44 GMT-0400 (Eastern Daylight Time),241367.7000002861,013_y_m_n_a.png,I,m,790,15,2,1807.7000002861023,239560.0,9010,NNB,B,14
15,test,1,0.0,1-Back,1.0,m,Tue Aug 19 2025 10:10:44 GMT-0400 (Eastern Daylight Time),243301.09999990463,097_m_f_n_a.png,I,m,909,16,2,1923.8999996185303,241377.2000002861,9010,NNB,B,15
16,test,1,0.0,1-Back,1.0,m,Tue Aug 19 2025 10:10:44 GMT-0400 (Eastern Daylight Time),245001.0,065_o_m_n_a.png,I,m,671,17,2,1690.5,243310.5,9010,NNB,B,16
17,test,1,0.0,1-Back,1.0,m,Tue Aug 19 2025 10:10:44 GMT-0400 (Eastern Daylight Time),247217.59999990463,097_m_f_n_a.png,I,m,1179,18,2,2197.5999999046326,245020.0,9010,NNB,B,17
0,test,2,0.0,1-Back,,,Tue Aug 19 2025 10:10:44 GMT-0400 (Eastern Daylight Time),247217.59999990463,126_m_m_n_a.png,I,space,7179,1,2,2197.5999999046326,245020.0,9010,NNB,B,0
1,test,2,0.0,1-Back,1.0,m,Tue Aug 19 2025 10:10:44 GMT-0400 (Eastern Daylight Time),258917.7000002861,029_m_f_n_a.png,I,m,1475,2,2,2489.5,256428.2000002861,9010,NNB,B,1
2,test,2,1.0,1-Back,1.0,z,Tue Aug 19 2025 10:10:44 GMT-0400 (Eastern Daylight Time),260651.09999990463,029_m_f_n_a.png,I,z,703,3,2,1721.8999996185303,258929.2000002861,9010,NNB,B,2
3,test,2,0.0,1-Back,1.0,m,Tue Aug 19 2025 10:10:44 GMT-0400 (Eastern Daylight Time),262350.90000009537,126_m_m_n_a.png,I,m,682,4,2,1688.0,260662.90000009537,9010,NNB,B,3
4,test,2,0.0,1-Back,1.0,m,Tue Aug 19 2025 10:10:44 GMT-0400 (Eastern Daylight Time),264284.40000009537,153_y_m_n_a.png,I,m,901,5,2,1923.5,262360.90000009537,9010,NNB,B,4
5,test,2,0.0,1-Back,1.0,m,Tue Aug 19 2025 10:10:44 GMT-0400 (Eastern Daylight Time),266151.09999990463,152_y_f_n_a.png,I,m,841,6,2,1856.7999997138977,264294.30000019073,9010,NNB,B,5
6,test,2,1.0,1-Back,1.0,z,Tue Aug 19 2025 10:10:44 GMT-0400 (Eastern Daylight Time),267917.59999990463,152_y_f_n_a.png,I,z,734,7,2,1754.5,266163.09999990463,9010,NNB,B,6
7,test,2,0.0,1-Back,1.0,m,Tue Aug 19 2025 10:10:44 GMT-0400 (Eastern Daylight Time),270184.59999990463,153_y_m_n_a.png,I,m,1239,8,2,2256.699999809265,267927.90000009537,9010,NNB,B,7
8,test,2,0.0,1-Back,1.0,m,Tue Aug 19 2025 10:10:44 GMT-0400 (Eastern Daylight Time),271984.30000019073,110_o_f_n_a.png,I,m,780,9,2,1788.3000001907349,270196.0,9010,NNB,B,8
9,test,2,0.0,1-Back,1.0,m,Tue Aug 19 2025 10:10:44 GMT-0400 (Eastern Daylight Time),273550.80000019073,178_m_m_n_a.png,I,m,548,10,2,1552.0999999046326,271998.7000002861,9010,NNB,B,9
10,test,2,1.0,1-Back,1.0,z,Tue Aug 19 2025 10:10:44 GMT-0400 (Eastern Daylight Time),275217.7000002861,178_m_m_n_a.png,I,z,645,11,2,1660.4000000953674,273557.30000019073,9010,NNB,B,10
11,test,2,0.0,1-Back,1.0,m,Tue Aug 19 2025 10:10:44 GMT-0400 (Eastern Daylight Time),276934.40000009537,110_o_f_n_a.png,I,m,692,12,2,1706.5999999046326,275227.80000019073,9010,NNB,B,11
12,test,2,0.0,1-Back,1.0,m,Tue Aug 19 2025 10:10:44 GMT-0400 (Eastern Daylight Time),278867.80000019073,086_o_f_n_a.png,I,m,910,13,2,1923.5,276944.30000019073,9010,NNB,B,12
13,test,2,0.0,1-Back,1.0,m,Tue Aug 19 2025 10:10:44 GMT-0400 (Eastern Daylight Time),280567.80000019073,176_o_m_n_a.png,I,m,672,14,2,1688.3000001907349,278879.5,9010,NNB,B,13
14,test,2,0.0,1-Back,1.0,m,Tue Aug 19 2025 10:10:44 GMT-0400 (Eastern Daylight Time),282367.40000009537,065_o_m_n_a.png,I,m,778,15,2,1791.9000000953674,280575.5,9010,NNB,B,14
15,test,2,1.0,1-Back,1.0,z,Tue Aug 19 2025 10:10:44 GMT-0400 (Eastern Daylight Time),284050.90000009537,065_o_m_n_a.png,I,z,661,16,2,1674.4000000953674,282376.5,9010,NNB,B,15
16,test,2,0.0,1-Back,1.0,m,Tue Aug 19 2025 10:10:44 GMT-0400 (Eastern Daylight Time),285734.40000009537,013_y_m_n_a.png,I,m,658,17,2,1674.5,284059.90000009537,9010,NNB,B,16
17,test,2,1.0,1-Back,1.0,z,Tue Aug 19 2025 10:10:44 GMT-0400 (Eastern Daylight Time),287667.7000002861,013_y_m_n_a.png,I,z,910,18,2,1922.4000000953674,285745.30000019073,9010,NNB,B,17
0,test,3,1.0,1-Back,,,Tue Aug 19 2025 10:10:44 GMT-0400 (Eastern Daylight Time),287667.7000002861,173_y_f_n_a.png,I,space,1416,1,2,1922.4000000953674,285745.30000019073,9010,NNB,B,0
1,test,3,0.0,1-Back,1.0,m,Tue Aug 19 2025 10:10:44 GMT-0400 (Eastern Daylight Time),293051.0,065_o_m_n_a.png,I,m,769,1,2,1786.5999999046326,291264.40000009537,9010,NNB,B,1
2,test,3,1.0,1-Back,1.0,z,Tue Aug 19 2025 10:10:44 GMT-0400 (Eastern Daylight Time),294701.09999990463,065_o_m_n_a.png,I,z,617,1,2,1641.0,293060.09999990463,9010,NNB,B,2
3,test,3,0.0,1-Back,1.0,m,Tue Aug 19 2025 10:10:44 GMT-0400 (Eastern Daylight Time),296301.09999990463,097_m_f_n_a.png,I,m,567,1,2,1588.0999999046326,294713.0,9010,NNB,B,3
4,test,3,1.0,1-Back,1.0,z,Tue Aug 19 2025 10:10:44 GMT-0400 (Eastern Daylight Time),298001.0,097_m_f_n_a.png,I,z,679,1,2,1690.5999999046326,296310.40000009537,9010,NNB,B,4
5,test,3,0.0,1-Back,1.0,m,Tue Aug 19 2025 10:10:44 GMT-0400 (Eastern Daylight Time),299667.7000002861,110_o_f_n_a.png,I,m,643,1,2,1652.7000002861023,298015.0,9010,NNB,B,5
6,test,3,0.0,1-Back,1.0,m,Tue Aug 19 2025 10:10:44 GMT-0400 (Eastern Daylight Time),301467.90000009537,153_y_m_n_a.png,I,m,768,1,2,1789.4000000953674,299678.5,9010,NNB,B,6
7,test,3,0.0,1-Back,1.0,m,Tue Aug 19 2025 10:10:44 GMT-0400 (Eastern Daylight Time),303167.5,110_o_f_n_a.png,I,m,682,1,2,1689.7999997138977,301477.7000002861,9010,NNB,B,7
8,test,3,0.0,1-Back,1.0,m,Tue Aug 19 2025 10:10:44 GMT-0400 (Eastern Daylight Time),304784.40000009537,013_y_m_n_a.png,I,m,597,1,2,1606.8000001907349,303177.59999990463,9010,NNB,B,8
9,test,3,1.0,1-Back,1.0,z,Tue Aug 19 2025 10:10:44 GMT-0400 (Eastern Daylight Time),306469.30000019073,013_y_m_n_a.png,I,z,660,1,2,1673.8000001907349,304795.5,9010,NNB,B,9
10,test,3,0.0,1-Back,1.0,m,Tue Aug 19 2025 10:10:44 GMT-0400 (Eastern Daylight Time),308201.09999990463,029_m_f_n_a.png,I,m,705,1,2,1727.2999997138977,306473.80000019073,9010,NNB,B,10
11,test,3,0.0,1-Back,1.0,m,Tue Aug 19 2025 10:10:44 GMT-0400 (Eastern Daylight Time),309934.30000019073,152_y_f_n_a.png,I,m,716,1,2,1721.8000001907349,308212.5,9010,NNB,B,11
12,test,3,1.0,1-Back,1.0,z,Tue Aug 19 2025 10:10:44 GMT-0400 (Eastern Daylight Time),311634.40000009537,152_y_f_n_a.png,I,z,679,1,2,1691.8000001907349,309942.59999990463,9010,NNB,B,12
13,test,3,0.0,1-Back,1.0,m,Tue Aug 19 2025 10:10:44 GMT-0400 (Eastern Daylight Time),313284.40000009537,029_m_f_n_a.png,I,m,626,1,2,1635.0999999046326,311649.30000019073,9010,NNB,B,13
14,test,3,0.0,1-Back,1.0,m,Tue Aug 19 2025 10:10:44 GMT-0400 (Eastern Daylight Time),314967.80000019073,126_m_m_n_a.png,I,m,656,1,2,1673.5999999046326,313294.2000002861,9010,NNB,B,14
15,test,3,1.0,1-Back,1.0,z,Tue Aug 19 2025 10:10:44 GMT-0400 (Eastern Daylight Time),316667.80000019073,126_m_m_n_a.png,I,z,669,1,2,1688.0,314979.80000019073,9010,NNB,B,15
16,test,3,0.0,1-Back,1.0,m,Tue Aug 19 2025 10:10:44 GMT-0400 (Eastern Daylight Time),318318.2000002861,086_o_f_n_a.png,I,m,633,1,2,1639.2000002861023,316679.0,9010,NNB,B,16
17,test,3,1.0,1-Back,1.0,z,Tue Aug 19 2025 10:10:44 GMT-0400 (Eastern Daylight Time),320084.5,086_o_f_n_a.png,I,z,744,1,2,1757.1999998092651,318327.30000019073,9010,NNB,B,17
0,test,4,1.0,1-Back,,,Tue Aug 19 2025 10:10:44 GMT-0400 (Eastern Daylight Time),320084.5,097_m_f_n_a.png,I,space,2328,1,2,1757.1999998092651,318327.30000019073,9010,NNB,B,0
1,test,4,0.0,1-Back,1.0,m,Tue Aug 19 2025 10:10:44 GMT-0400 (Eastern Daylight Time),326267.80000019073,065_o_m_n_a.png,I,m,669,2,2,1688.3000001907349,324579.5,9010,NNB,B,1
2,test,4,0.0,1-Back,1.0,m,Tue Aug 19 2025 10:10:44 GMT-0400 (Eastern Daylight Time),328001.09999990463,097_m_f_n_a.png,I,m,713,3,2,1722.0,326279.09999990463,9010,NNB,B,2
3,test,4,0.0,1-Back,1.0,m,Tue Aug 19 2025 10:10:44 GMT-0400 (Eastern Daylight Time),330167.80000019073,110_o_f_n_a.png,I,m,1140,4,2,2156.9000000953674,328010.90000009537,9010,NNB,B,3
4,test,4,1.0,1-Back,1.0,z,Tue Aug 19 2025 10:10:44 GMT-0400 (Eastern Daylight Time),331901.09999990463,110_o_f_n_a.png,I,z,700,5,2,1723.5999999046326,330177.5,9010,NNB,B,4
5,test,4,0.0,1-Back,1.0,m,Tue Aug 19 2025 10:10:44 GMT-0400 (Eastern Daylight Time),333834.40000009537,152_y_f_n_a.png,I,m,903,6,2,1922.8000001907349,331911.59999990463,9010,NNB,B,5
6,test,4,0.0,1-Back,1.0,m,Tue Aug 19 2025 10:10:44 GMT-0400 (Eastern Daylight Time),335484.40000009537,153_y_m_n_a.png,I,m,618,7,2,1639.1999998092651,333845.2000002861,9010,NNB,B,6
7,test,4,1.0,1-Back,1.0,z,Tue Aug 19 2025 10:10:44 GMT-0400 (Eastern Daylight Time),337117.80000019073,153_y_m_n_a.png,I,z,600,8,2,1622.9000000953674,335494.90000009537,9010,NNB,B,7
8,test,4,0.0,1-Back,1.0,m,Tue Aug 19 2025 10:10:44 GMT-0400 (Eastern Daylight Time),338750.7000002861,152_y_f_n_a.png,I,m,616,9,2,1623.2000002861023,337127.5,9010,NNB,B,8
9,test,4,0.0,1-Back,1.0,m,Tue Aug 19 2025 10:10:44 GMT-0400 (Eastern Daylight Time),340350.90000009537,178_m_m_n_a.png,I,m,582,10,2,1592.0999999046326,338758.80000019073,9010,NNB,B,9
10,test,4,1.0,1-Back,1.0,z,Tue Aug 19 2025 10:10:44 GMT-0400 (Eastern Daylight Time),341950.90000009537,178_m_m_n_a.png,I,z,581,11,2,1590.0999999046326,340360.80000019073,9010,NNB,B,10
11,test,4,0.0,1-Back,1.0,m,Tue Aug 19 2025 10:10:44 GMT-0400 (Eastern Daylight Time),343750.80000019073,086_o_f_n_a.png,I,m,772,12,2,1790.7000002861023,341960.09999990463,9010,NNB,B,11
12,test,4,0.0,1-Back,1.0,m,Tue Aug 19 2025 10:10:44 GMT-0400 (Eastern Daylight Time),345417.7000002861,176_o_m_n_a.png,I,m,637,13,2,1659.2000002861023,343758.5,9010,NNB,B,12
13,test,4,0.0,1-Back,1.0,m,Tue Aug 19 2025 10:10:44 GMT-0400 (Eastern Daylight Time),346967.80000019073,086_o_f_n_a.png,I,m,524,14,2,1538.0,345429.80000019073,9010,NNB,B,13
14,test,4,0.0,1-Back,1.0,m,Tue Aug 19 2025 10:10:44 GMT-0400 (Eastern Daylight Time),348634.40000009537,173_y_f_n_a.png,I,m,637,15,2,1656.5999999046326,346977.80000019073,9010,NNB,B,14
15,test,4,1.0,1-Back,1.0,z,Tue Aug 19 2025 10:10:44 GMT-0400 (Eastern Daylight Time),350317.90000009537,173_y_f_n_a.png,I,z,650,16,2,1674.9000000953674,348643.0,9010,NNB,B,15
16,test,4,0.0,1-Back,1.0,m,Tue Aug 19 2025 10:10:44 GMT-0400 (Eastern Daylight Time),351984.30000019073,029_m_f_n_a.png,I,m,646,17,2,1657.0,350327.30000019073,9010,NNB,B,16
17,test,4,1.0,1-Back,1.0,z,Tue Aug 19 2025 10:10:44 GMT-0400 (Eastern Daylight Time),353684.40000009537,029_m_f_n_a.png,I,z,676,18,2,1692.5,351991.90000009537,9010,NNB,B,17
0,test,5,1.0,1-Back,,,Tue Aug 19 2025 10:10:44 GMT-0400 (Eastern Daylight Time),353684.40000009537,176_o_m_n_a.png,I,space,1624,1,2,1692.5,351991.90000009537,9010,NNB,B,0
1,test,5,1.0,1-Back,1.0,z,Tue Aug 19 2025 10:10:44 GMT-0400 (Eastern Daylight Time),359201.09999990463,176_o_m_n_a.png,I,z,846,2,2,1854.7999997138977,357346.30000019073,9010,NNB,B,1
2,test,5,0.0,1-Back,1.0,m,Tue Aug 19 2025 10:10:44 GMT-0400 (Eastern Daylight Time),360784.30000019073,152_y_f_n_a.png,I,m,564,3,2,1574.3000001907349,359210.0,9010,NNB,B,2
3,test,5,0.0,1-Back,1.0,m,Tue Aug 19 2025 10:10:44 GMT-0400 (Eastern Daylight Time),362367.5,153_y_m_n_a.png,I,m,564,4,2,1573.5,360794.0,9010,NNB,B,3
4,test,5,0.0,1-Back,1.0,m,Tue Aug 19 2025 10:10:44 GMT-0400 (Eastern Daylight Time),364068.40000009537,152_y_f_n_a.png,I,m,677,5,2,1689.0999999046326,362379.30000019073,9010,NNB,B,4
5,test,5,0.0,1-Back,1.0,m,Tue Aug 19 2025 10:10:44 GMT-0400 (Eastern Daylight Time),365851.09999990463,126_m_m_n_a.png,I,m,753,6,2,1778.1999998092651,364072.90000009537,9010,NNB,B,5
6,test,5,1.0,1-Back,1.0,z,Tue Aug 19 2025 10:10:44 GMT-0400 (Eastern Daylight Time),367417.7000002861,126_m_m_n_a.png,I,z,538,7,2,1555.0,365862.7000002861,9010,NNB,B,6
7,test,5,0.0,1-Back,1.0,m,Tue Aug 19 2025 10:10:44 GMT-0400 (Eastern Daylight Time),369034.5,173_y_f_n_a.png,I,m,588,8,2,1605.6999998092651,367428.80000019073,9010,NNB,B,7
8,test,5,0.0,1-Back,1.0,m,Tue Aug 19 2025 10:10:44 GMT-0400 (Eastern Daylight Time),370651.0,013_y_m_n_a.png,I,m,586,9,2,1607.1999998092651,369043.80000019073,9010,NNB,B,8
9,test,5,0.0,1-Back,1.0,m,Tue Aug 19 2025 10:10:44 GMT-0400 (Eastern Daylight Time),372350.80000019073,173_y_f_n_a.png,I,m,682,10,2,1690.5999999046326,370660.2000002861,9010,NNB,B,9
10,test,5,0.0,1-Back,1.0,m,Tue Aug 19 2025 10:10:44 GMT-0400 (Eastern Daylight Time),374318.5,086_o_f_n_a.png,I,m,948,11,2,1959.5999999046326,372358.90000009537,9010,NNB,B,10
11,test,5,1.0,1-Back,1.0,z,Tue Aug 19 2025 10:10:44 GMT-0400 (Eastern Daylight Time),375867.80000019073,086_o_f_n_a.png,I,z,518,12,2,1541.3000001907349,374326.5,9010,NNB,B,11
12,test,5,0.0,1-Back,1.0,m,Tue Aug 19 2025 10:10:44 GMT-0400 (Eastern Daylight Time),377417.09999990463,065_o_m_n_a.png,I,m,520,13,2,1540.6999998092651,375876.40000009537,9010,NNB,B,12
13,test,5,0.0,1-Back,1.0,m,Tue Aug 19 2025 10:10:44 GMT-0400 (Eastern Daylight Time),379101.2000002861,097_m_f_n_a.png,I,m,650,14,2,1679.4000000953674,377421.80000019073,9010,NNB,B,13
13,test,5,1.0,1-Back,0.0,z,Tue Aug 19 2025 10:10:44 GMT-0400 (Eastern Daylight Time),381250.7000002861,097_m_f_n_a.png,I,m,1128,15,2,2140.300000190735,379110.40000009537,9010,NNB,B,14
14,test,5,0.0,1-Back,1.0,m,Tue Aug 19 2025 10:10:44 GMT-0400 (Eastern Daylight Time),382984.40000009537,065_o_m_n_a.png,I,m,706,16,2,1728.4000000953674,381256.0,9010,NNB,B,15
15,test,5,0.0,1-Back,1.0,m,Tue Aug 19 2025 10:10:44 GMT-0400 (Eastern Daylight Time),384901.09999990463,029_m_f_n_a.png,I,m,892,17,2,1907.0999999046326,382994.0,9010,NNB,B,16
16,test,5,0.0,1-Back,1.0,m,Tue Aug 19 2025 10:10:44 GMT-0400 (Eastern Daylight Time),386451.09999990463,178_m_m_n_a.png,I,m,528,18,2,1538.8999996185303,384912.2000002861,9010,NNB,B,17
0,prac,1,0.0,2-Back,,,Tue Aug 19 2025 10:10:44 GMT-0400 (Eastern Daylight Time),386451.09999990463,013_y_m_n_a.png,I,space,16798,1,2,1538.8999996185303,384912.2000002861,9010,NNB,B,0
0,prac,1,0.0,2-Back,,,Tue Aug 19 2025 10:10:44 GMT-0400 (Eastern Daylight Time),386451.09999990463,029_m_f_n_a.png,I,space,16798,2,2,1538.8999996185303,384912.2000002861,9010,NNB,B,0
0,prac,1,1.0,2-Back,0.0,m,Tue Aug 19 2025 10:10:44 GMT-0400 (Eastern Daylight Time),508018.2000002861,065_o_m_n_a.png,I,None,2012,3,2,2921.2000002861023,505097.0,9010,NNB,B,1
1,prac,1,0.0,2-Back,1.0,m,Tue Aug 19 2025 10:10:44 GMT-0400 (Eastern Daylight Time),510234.7000002861,086_o_f_n_a.png,I,m,1262,4,2,2205.0,508029.7000002861,9010,NNB,B,2
1,prac,1,0.0,2-Back,0.0,z,Tue Aug 19 2025 10:10:44 GMT-0400 (Eastern Daylight Time),512467.7000002861,065_o_m_n_a.png,I,m,1444,5,2,2219.0,510248.7000002861,9010,NNB,B,3
2,prac,1,1.0,2-Back,1.0,z,Tue Aug 19 2025 10:10:44 GMT-0400 (Eastern Daylight Time),514518.09999990463,086_o_f_n_a.png,I,z,1261,6,2,2037.1999998092651,512480.90000009537,9010,NNB,B,4
2,prac,1,0.0,2-Back,0.0,m,Tue Aug 19 2025 10:10:44 GMT-0400 (Eastern Daylight Time),516984.7000002861,178_m_m_n_a.png,I,z,1518,7,2,2450.0,514534.7000002861,9010,NNB,B,5
3,prac,1,0.0,2-Back,1.0,m,Tue Aug 19 2025 10:10:44 GMT-0400 (Eastern Daylight Time),518968.09999990463,176_o_m_n_a.png,I,m,1049,8,2,1970.7999997138977,516997.30000019073,9010,NNB,B,6
4,prac,1,0.0,2-Back,1.0,m,Tue Aug 19 2025 10:10:44 GMT-0400 (Eastern Daylight Time),521101.40000009537,173_y_f_n_a.png,I,m,1219,9,2,2122.0,518979.40000009537,9010,NNB,B,7
5,prac,1,1.0,2-Back,1.0,z,Tue Aug 19 2025 10:10:44 GMT-0400 (Eastern Daylight Time),522984.80000019073,176_o_m_n_a.png,I,z,1090,10,2,1869.3000001907349,521115.5,9010,NNB,B,8
6,prac,1,0.0,2-Back,1.0,m,Tue Aug 19 2025 10:10:44 GMT-0400 (Eastern Daylight Time),524951.5,152_y_f_n_a.png,I,m,1039,11,2,1953.4000000953674,522998.09999990463,9010,NNB,B,9
7,prac,1,0.0,2-Back,1.0,m,Tue Aug 19 2025 10:10:44 GMT-0400 (Eastern Daylight Time),527034.8000001907,178_m_m_n_a.png,I,m,1291,12,2,2071.800000190735,524963.0,9010,NNB,B,10
0,test,1,0.0,2-Back,,,Tue Aug 19 2025 10:10:44 GMT-0400 (Eastern Daylight Time),527034.8000001907,153_y_m_n_a.png,I,space,17857,1,2,2071.800000190735,524963.0,9010,NNB,B,0
0,test,1,0.0,2-Back,,,Tue Aug 19 2025 10:10:44 GMT-0400 (Eastern Daylight Time),527034.8000001907,153_y_m_n_a.png,I,space,17857,2,2,2071.800000190735,524963.0,9010,NNB,B,0
1,test,1,0.0,2-Back,1.0,m,Tue Aug 19 2025 10:10:44 GMT-0400 (Eastern Daylight Time),573501.5,086_o_f_n_a.png,I,m,934,3,2,1955.6999998092651,571545.8000001907,9010,NNB,B,1
2,test,1,0.0,2-Back,1.0,m,Tue Aug 19 2025 10:10:44 GMT-0400 (Eastern Daylight Time),575417.9000000954,126_m_m_n_a.png,I,m,888,4,2,1906.8000001907349,573511.0999999046,9010,NNB,B,2
3,test,1,1.0,2-Back,1.0,z,Tue Aug 19 2025 10:10:44 GMT-0400 (Eastern Daylight Time),577417.9000000954,086_o_f_n_a.png,I,z,971,5,2,1991.0,575426.9000000954,9010,NNB,B,3
4,test,1,0.0,2-Back,1.0,m,Tue Aug 19 2025 10:10:44 GMT-0400 (Eastern Daylight Time),579417.5999999046,152_y_f_n_a.png,I,m,970,6,2,1989.8999996185303,577427.7000002861,9010,NNB,B,4
4,test,1,0.0,2-Back,0.0,m,Tue Aug 19 2025 10:10:44 GMT-0400 (Eastern Daylight Time),581718.0999999046,126_m_m_n_a.png,I,z,1275,7,2,2293.2999997138977,579424.8000001907,9010,NNB,B,5
5,test,1,1.0,2-Back,1.0,z,Tue Aug 19 2025 10:10:44 GMT-0400 (Eastern Daylight Time),584068.0,152_y_f_n_a.png,I,z,1327,8,2,2339.5999999046326,581728.4000000954,9010,NNB,B,6
6,test,1,0.0,2-Back,1.0,m,Tue Aug 19 2025 10:10:44 GMT-0400 (Eastern Daylight Time),586034.5999999046,013_y_m_n_a.png,I,m,945,9,2,1957.5,584077.0999999046,9010,NNB,B,7
7,test,1,0.0,2-Back,1.0,m,Tue Aug 19 2025 10:10:44 GMT-0400 (Eastern Daylight Time),587834.5999999046,110_o_f_n_a.png,I,m,770,10,2,1788.5,586046.0999999046,9010,NNB,B,8
8,test,1,1.0,2-Back,1.0,z,Tue Aug 19 2025 10:10:44 GMT-0400 (Eastern Daylight Time),590034.7000002861,013_y_m_n_a.png,I,z,1179,11,2,2189.4000000953674,587845.3000001907,9010,NNB,B,9
8,test,1,0.0,2-Back,0.0,m,Tue Aug 19 2025 10:10:44 GMT-0400 (Eastern Daylight Time),592434.7000002861,029_m_f_n_a.png,I,z,1376,12,2,2390.300000190735,590044.4000000954,9010,NNB,B,10
9,test,1,0.0,2-Back,1.0,m,Tue Aug 19 2025 10:10:44 GMT-0400 (Eastern Daylight Time),594534.7000002861,029_m_f_n_a.png,I,m,1074,13,2,2090.2000002861023,592444.5,9010,NNB,B,11
9,test,1,0.0,2-Back,0.0,m,Tue Aug 19 2025 10:10:44 GMT-0400 (Eastern Daylight Time),597568.3000001907,065_o_m_n_a.png,I,None,2017,14,2,3023.0999999046326,594545.2000002861,9010,NNB,B,12
10,test,1,0.0,2-Back,1.0,m,Tue Aug 19 2025 10:10:44 GMT-0400 (Eastern Daylight Time),599851.3000001907,110_o_f_n_a.png,I,m,1253,15,2,2273.9000000953674,597577.4000000954,9010,NNB,B,13
11,test,1,1.0,2-Back,1.0,z,Tue Aug 19 2025 10:10:44 GMT-0400 (Eastern Daylight Time),601634.7000002861,065_o_m_n_a.png,I,z,761,16,2,1772.5,599862.2000002861,9010,NNB,B,14
11,test,1,0.0,2-Back,0.0,m,Tue Aug 19 2025 10:10:44 GMT-0400 (Eastern Daylight Time),604668.0999999046,097_m_f_n_a.png,I,None,2014,17,2,3024.2999997138977,601643.8000001907,9010,NNB,B,15
12,test,1,0.0,2-Back,1.0,m,Tue Aug 19 2025 10:10:44 GMT-0400 (Eastern Daylight Time),606917.9000000954,178_m_m_n_a.png,I,m,1225,18,2,2240.199999809265,604677.7000002861,9010,NNB,B,16
0,test,2,0.0,2-Back,,,Tue Aug 19 2025 10:10:44 GMT-0400 (Eastern Daylight Time),606917.9000000954,178_m_m_n_a.png,I,space,2631,1,2,2240.199999809265,604677.7000002861,9010,NNB,B,0
0,test,2,0.0,2-Back,,,Tue Aug 19 2025 10:10:44 GMT-0400 (Eastern Daylight Time),606917.9000000954,173_y_f_n_a.png,I,space,2631,2,2,2240.199999809265,604677.7000002861,9010,NNB,B,0
1,test,2,1.0,2-Back,1.0,z,Tue Aug 19 2025 10:10:44 GMT-0400 (Eastern Daylight Time),616817.9000000954,178_m_m_n_a.png,I,z,1062,3,2,2071.5,614746.4000000954,9010,NNB,B,1
2,test,2,0.0,2-Back,1.0,m,Tue Aug 19 2025 10:10:44 GMT-0400 (Eastern Daylight Time),619218.0,097_m_f_n_a.png,I,m,1379,4,2,2389.199999809265,616828.8000001907,9010,NNB,B,2
2,test,2,0.0,2-Back,0.0,m,Tue Aug 19 2025 10:10:44 GMT-0400 (Eastern Daylight Time),621484.5,173_y_f_n_a.png,I,z,1235,5,2,2257.4000000953674,619227.0999999046,9010,NNB,B,3
3,test,2,0.0,2-Back,1.0,m,Tue Aug 19 2025 10:10:44 GMT-0400 (Eastern Daylight Time),623701.3000001907,065_o_m_n_a.png,I,m,1170,6,2,2207.2000002861023,621494.0999999046,9010,NNB,B,4
4,test,2,0.0,2-Back,1.0,m,Tue Aug 19 2025 10:10:44 GMT-0400 (Eastern Daylight Time),625851.4000000954,152_y_f_n_a.png,I,m,1119,7,2,2135.800000190735,623715.5999999046,9010,NNB,B,5
5,test,2,1.0,2-Back,1.0,z,Tue Aug 19 2025 10:10:44 GMT-0400 (Eastern Daylight Time),627751.5,065_o_m_n_a.png,I,z,873,8,2,1890.6999998092651,625860.8000001907,9010,NNB,B,6
6,test,2,0.0,2-Back,1.0,m,Tue Aug 19 2025 10:10:44 GMT-0400 (Eastern Daylight Time),629884.7000002861,013_y_m_n_a.png,I,m,1099,9,2,2123.5,627761.2000002861,9010,NNB,B,7
7,test,2,0.0,2-Back,1.0,m,Tue Aug 19 2025 10:10:44 GMT-0400 (Eastern Daylight Time),631834.7000002861,013_y_m_n_a.png,I,m,920,10,2,1939.3000001907349,629895.4000000954,9010,NNB,B,8
8,test,2,0.0,2-Back,1.0,m,Tue Aug 19 2025 10:10:44 GMT-0400 (Eastern Daylight Time),634084.7000002861,029_m_f_n_a.png,I,m,1226,11,2,2239.1000003814697,631845.5999999046,9010,NNB,B,9
8,test,2,0.0,2-Back,0.0,m,Tue Aug 19 2025 10:10:44 GMT-0400 (Eastern Daylight Time),636001.0999999046,173_y_f_n_a.png,I,z,897,12,2,1905.5,634095.5999999046,9010,NNB,B,10
9,test,2,1.0,2-Back,1.0,z,Tue Aug 19 2025 10:10:44 GMT-0400 (Eastern Daylight Time),638501.3000001907,029_m_f_n_a.png,I,z,1475,13,2,2488.4000000953674,636012.9000000954,9010,NNB,B,11
10,test,2,0.0,2-Back,1.0,m,Tue Aug 19 2025 10:10:44 GMT-0400 (Eastern Daylight Time),640167.9000000954,176_o_m_n_a.png,I,m,640,14,2,1656.0,638511.9000000954,9010,NNB,B,12
11,test,2,0.0,2-Back,1.0,m,Tue Aug 19 2025 10:10:44 GMT-0400 (Eastern Daylight Time),642168.0,176_o_m_n_a.png,I,m,972,15,2,1990.4000000953674,640177.5999999046,9010,NNB,B,13
12,test,2,0.0,2-Back,1.0,m,Tue Aug 19 2025 10:10:44 GMT-0400 (Eastern Daylight Time),644117.9000000954,110_o_f_n_a.png,I,m,923,16,2,1940.6999998092651,642177.2000002861,9010,NNB,B,14
12,test,2,0.0,2-Back,0.0,m,Tue Aug 19 2025 10:10:44 GMT-0400 (Eastern Daylight Time),647150.8000001907,126_m_m_n_a.png,I,None,2016,17,2,3023.9000000953674,644126.9000000954,9010,NNB,B,15
13,test,2,1.0,2-Back,1.0,z,Tue Aug 19 2025 10:10:44 GMT-0400 (Eastern Daylight Time),648951.3000001907,110_o_f_n_a.png,I,z,774,18,2,1795.4000000953674,647155.9000000954,9010,NNB,B,16
0,test,3,1.0,2-Back,,,Tue Aug 19 2025 10:10:44 GMT-0400 (Eastern Daylight Time),648951.3000001907,153_y_m_n_a.png,I,space,4661,1,2,1795.4000000953674,647155.9000000954,9010,NNB,B,0
0,test,3,1.0,2-Back,,,Tue Aug 19 2025 10:10:44 GMT-0400 (Eastern Daylight Time),648951.3000001907,153_y_m_n_a.png,I,space,4661,2,2,1795.4000000953674,647155.9000000954,9010,NNB,B,0
1,test,3,0.0,2-Back,1.0,m,Tue Aug 19 2025 10:10:44 GMT-0400 (Eastern Daylight Time),661234.7000002861,110_o_f_n_a.png,I,m,1412,3,2,2423.2000002861023,658811.5,9010,NNB,B,1
2,test,3,0.0,2-Back,1.0,m,Tue Aug 19 2025 10:10:44 GMT-0400 (Eastern Daylight Time),663334.3000001907,178_m_m_n_a.png,I,m,1073,4,2,2089.2000002861023,661245.0999999046,9010,NNB,B,2
3,test,3,1.0,2-Back,1.0,z,Tue Aug 19 2025 10:10:44 GMT-0400 (Eastern Daylight Time),665701.3000001907,110_o_f_n_a.png,I,z,1343,5,2,2362.4000000953674,663338.9000000954,9010,NNB,B,3
4,test,3,0.0,2-Back,1.0,m,Tue Aug 19 2025 10:10:44 GMT-0400 (Eastern Daylight Time),667751.0999999046,013_y_m_n_a.png,I,m,1023,6,2,2040.5999999046326,665710.5,9010,NNB,B,4
4,test,3,0.0,2-Back,0.0,m,Tue Aug 19 2025 10:10:44 GMT-0400 (Eastern Daylight Time),669718.0,178_m_m_n_a.png,I,z,940,7,2,1959.6999998092651,667758.3000001907,9010,NNB,B,5
4,test,3,1.0,2-Back,0.0,z,Tue Aug 19 2025 10:10:44 GMT-0400 (Eastern Daylight Time),671934.5999999046,013_y_m_n_a.png,I,m,1183,8,2,2206.0,669728.5999999046,9010,NNB,B,6
5,test,3,0.0,2-Back,1.0,m,Tue Aug 19 2025 10:10:44 GMT-0400 (Eastern Daylight Time),674384.4000000954,173_y_f_n_a.png,I,m,1430,9,2,2441.9000000953674,671942.5,9010,NNB,B,7
5,test,3,0.0,2-Back,0.0,m,Tue Aug 19 2025 10:10:44 GMT-0400 (Eastern Daylight Time),676218.0,126_m_m_n_a.png,I,z,804,10,2,1824.0999999046326,674393.9000000954,9010,NNB,B,8
6,test,3,1.0,2-Back,1.0,z,Tue Aug 19 2025 10:10:44 GMT-0400 (Eastern Daylight Time),678734.5999999046,173_y_f_n_a.png,I,z,1499,11,2,2506.0999999046326,676228.5,9010,NNB,B,9
7,test,3,1.0,2-Back,1.0,z,Tue Aug 19 2025 10:10:44 GMT-0400 (Eastern Daylight Time),681351.2000002861,126_m_m_n_a.png,I,z,1591,12,2,2608.5,678742.7000002861,9010,NNB,B,10
8,test,3,0.0,2-Back,1.0,m,Tue Aug 19 2025 10:10:44 GMT-0400 (Eastern Daylight Time),683017.9000000954,110_o_f_n_a.png,I,m,634,13,2,1657.4000000953674,681360.5,9010,NNB,B,11
9,test,3,0.0,2-Back,1.0,m,Tue Aug 19 2025 10:10:44 GMT-0400 (Eastern Daylight Time),685201.3000001907,097_m_f_n_a.png,I,m,1163,14,2,2171.5,683029.8000001907,9010,NNB,B,12
10,test,3,0.0,2-Back,1.0,m,Tue Aug 19 2025 10:10:44 GMT-0400 (Eastern Daylight Time),686934.7000002861,065_o_m_n_a.png,I,m,707,15,2,1723.8000001907349,685210.9000000954,9010,NNB,B,13
11,test,3,1.0,2-Back,1.0,z,Tue Aug 19 2025 10:10:44 GMT-0400 (Eastern Daylight Time),688884.7000002861,097_m_f_n_a.png,I,z,927,16,2,1938.4000000953674,686946.3000001907,9010,NNB,B,14
12,test,3,0.0,2-Back,1.0,m,Tue Aug 19 2025 10:10:44 GMT-0400 (Eastern Daylight Time),691334.7000002861,086_o_f_n_a.png,I,m,1423,17,2,2441.2000002861023,688893.5,9010,NNB,B,15
13,test,3,0.0,2-Back,1.0,m,Tue Aug 19 2025 10:10:44 GMT-0400 (Eastern Daylight Time),693234.7000002861,086_o_f_n_a.png,I,m,878,18,2,1890.2000002861023,691344.5,9010,NNB,B,16
0,test,4,0.0,2-Back,,,Tue Aug 19 2025 10:10:44 GMT-0400 (Eastern Daylight Time),693234.7000002861,176_o_m_n_a.png,I,space,1513,1,2,1890.2000002861023,691344.5,9010,NNB,B,0
0,test,4,0.0,2-Back,,,Tue Aug 19 2025 10:10:44 GMT-0400 (Eastern Daylight Time),693234.7000002861,152_y_f_n_a.png,I,space,1513,2,2,1890.2000002861023,691344.5,9010,NNB,B,0
1,test,4,1.0,2-Back,1.0,z,Tue Aug 19 2025 10:10:44 GMT-0400 (Eastern Daylight Time),702301.4000000954,176_o_m_n_a.png,I,z,1200,3,2,2224.300000190735,700077.0999999046,9010,NNB,B,1
1,test,4,1.0,2-Back,0.0,z,Tue Aug 19 2025 10:10:44 GMT-0400 (Eastern Daylight Time),705334.9000000954,152_y_f_n_a.png,I,None,2017,4,2,3023.9000000953674,702311.0,9010,NNB,B,2
2,test,4,0.0,2-Back,1.0,m,Tue Aug 19 2025 10:10:44 GMT-0400 (Eastern Daylight Time),707534.7000002861,110_o_f_n_a.png,I,m,1166,5,2,2188.300000190735,705346.4000000954,9010,NNB,B,3
3,test,4,0.0,2-Back,1.0,m,Tue Aug 19 2025 10:10:44 GMT-0400 (Eastern Daylight Time),709417.9000000954,110_o_f_n_a.png,I,m,855,6,2,1873.9000000953674,707544.0,9010,NNB,B,4
4,test,4,0.0,2-Back,1.0,m,Tue Aug 19 2025 10:10:44 GMT-0400 (Eastern Daylight Time),711468.0999999046,029_m_f_n_a.png,I,m,1019,7,2,2038.0999999046326,709430.0,9010,NNB,B,5
5,test,4,0.0,2-Back,1.0,m,Tue Aug 19 2025 10:10:44 GMT-0400 (Eastern Daylight Time),713218.0,013_y_m_n_a.png,I,m,729,8,2,1739.5,711478.5,9010,NNB,B,6
5,test,4,1.0,2-Back,0.0,z,Tue Aug 19 2025 10:10:44 GMT-0400 (Eastern Daylight Time),715418.0999999046,029_m_f_n_a.png,I,m,1171,9,2,2189.3999996185303,713228.7000002861,9010,NNB,B,7
5,test,4,0.0,2-Back,0.0,m,Tue Aug 19 2025 10:10:44 GMT-0400 (Eastern Daylight Time),717584.5,126_m_m_n_a.png,I,z,1147,10,2,2156.5,715428.0,9010,NNB,B,8
5,test,4,0.0,2-Back,0.0,m,Tue Aug 19 2025 10:10:44 GMT-0400 (Eastern Daylight Time),719768.3000001907,013_y_m_n_a.png,I,z,1156,11,2,2174.5999999046326,717593.7000002861,9010,NNB,B,9
6,test,4,0.0,2-Back,1.0,m,Tue Aug 19 2025 10:10:44 GMT-0400 (Eastern Daylight Time),721667.9000000954,086_o_f_n_a.png,I,m,876,12,2,1890.0,719777.9000000954,9010,NNB,B,10
7,test,4,0.0,2-Back,1.0,m,Tue Aug 19 2025 10:10:44 GMT-0400 (Eastern Daylight Time),723451.5,153_y_m_n_a.png,I,m,753,13,2,1773.5,721678.0,9010,NNB,B,11
8,test,4,1.0,2-Back,1.0,z,Tue Aug 19 2025 10:10:44 GMT-0400 (Eastern Daylight Time),725451.5,086_o_f_n_a.png,I,z,970,14,2,1991.1999998092651,723460.3000001907,9010,NNB,B,12
9,test,4,1.0,2-Back,1.0,z,Tue Aug 19 2025 10:10:44 GMT-0400 (Eastern Daylight Time),727668.0999999046,153_y_m_n_a.png,I,z,1195,15,2,2205.5,725462.5999999046,9010,NNB,B,13
10,test,4,0.0,2-Back,1.0,m,Tue Aug 19 2025 10:10:44 GMT-0400 (Eastern Daylight Time),729501.3000001907,178_m_m_n_a.png,I,m,801,16,2,1823.9000000953674,727677.4000000954,9010,NNB,B,14
11,test,4,0.0,2-Back,1.0,m,Tue Aug 19 2025 10:10:44 GMT-0400 (Eastern Daylight Time),731284.7000002861,097_m_f_n_a.png,I,m,760,17,2,1773.2000002861023,729511.5,9010,NNB,B,15
11,test,4,1.0,2-Back,0.0,z,Tue Aug 19 2025 10:10:44 GMT-0400 (Eastern Daylight Time),733567.8000001907,178_m_m_n_a.png,I,m,1264,18,2,2273.4000000953674,731294.4000000954,9010,NNB,B,16
0,test,5,1.0,2-Back,,,Tue Aug 19 2025 10:10:44 GMT-0400 (Eastern Daylight Time),733567.8000001907,153_y_m_n_a.png,I,space,1389,1,2,2273.4000000953674,731294.4000000954,9010,NNB,B,0
0,test,5,1.0,2-Back,,,Tue Aug 19 2025 10:10:44 GMT-0400 (Eastern Daylight Time),733567.8000001907,097_m_f_n_a.png,I,space,1389,2,2,2273.4000000953674,731294.4000000954,9010,NNB,B,0
1,test,5,1.0,2-Back,1.0,z,Tue Aug 19 2025 10:10:44 GMT-0400 (Eastern Daylight Time),742151.5,153_y_m_n_a.png,I,z,973,3,2,1989.0,740162.5,9010,NNB,B,1
2,test,5,1.0,2-Back,1.0,z,Tue Aug 19 2025 10:10:44 GMT-0400 (Eastern Daylight Time),744234.8000001907,097_m_f_n_a.png,I,z,1054,4,2,2072.300000190735,742162.5,9010,NNB,B,2
3,test,5,0.0,2-Back,1.0,m,Tue Aug 19 2025 10:10:44 GMT-0400 (Eastern Daylight Time),746134.8000001907,086_o_f_n_a.png,I,m,875,5,2,1891.3000001907349,744243.5,9010,NNB,B,3
3,test,5,0.0,2-Back,0.0,m,Tue Aug 19 2025 10:10:44 GMT-0400 (Eastern Daylight Time),748167.9000000954,153_y_m_n_a.png,I,z,993,6,2,2023.8000001907349,746144.0999999046,9010,NNB,B,4
4,test,5,0.0,2-Back,1.0,m,Tue Aug 19 2025 10:10:44 GMT-0400 (Eastern Daylight Time),750334.7000002861,173_y_f_n_a.png,I,m,1147,7,2,2156.9000000953674,748177.8000001907,9010,NNB,B,5
4,test,5,0.0,2-Back,0.0,m,Tue Aug 19 2025 10:10:44 GMT-0400 (Eastern Daylight Time),752351.3000001907,086_o_f_n_a.png,I,z,998,8,2,2008.4000000953674,750342.9000000954,9010,NNB,B,6
4,test,5,1.0,2-Back,0.0,z,Tue Aug 19 2025 10:10:44 GMT-0400 (Eastern Daylight Time),754201.3000001907,173_y_f_n_a.png,I,m,822,9,2,1839.5999999046326,752361.7000002861,9010,NNB,B,7
5,test,5,0.0,2-Back,1.0,m,Tue Aug 19 2025 10:10:44 GMT-0400 (Eastern Daylight Time),756417.8000001907,065_o_m_n_a.png,I,m,1195,10,2,2205.7000002861023,754212.0999999046,9010,NNB,B,8
6,test,5,0.0,2-Back,1.0,m,Tue Aug 19 2025 10:10:44 GMT-0400 (Eastern Daylight Time),758367.8000001907,029_m_f_n_a.png,I,m,915,11,2,1944.8000001907349,756423.0,9010,NNB,B,9
7,test,5,0.0,2-Back,1.0,m,Tue Aug 19 2025 10:10:44 GMT-0400 (Eastern Daylight Time),760184.8000001907,126_m_m_n_a.png,I,m,788,12,2,1806.8000001907349,758378.0,9010,NNB,B,10
8,test,5,0.0,2-Back,1.0,m,Tue Aug 19 2025 10:10:44 GMT-0400 (Eastern Daylight Time),761901.5,065_o_m_n_a.png,I,m,684,13,2,1707.7999997138977,760193.7000002861,9010,NNB,B,11
9,test,5,1.0,2-Back,1.0,z,Tue Aug 19 2025 10:10:44 GMT-0400 (Eastern Daylight Time),763784.8000001907,126_m_m_n_a.png,I,z,856,14,2,1872.3000001907349,761912.5,9010,NNB,B,12
10,test,5,0.0,2-Back,1.0,m,Tue Aug 19 2025 10:10:44 GMT-0400 (Eastern Daylight Time),765718.0,152_y_f_n_a.png,I,m,907,15,2,1919.4000000953674,763798.5999999046,9010,NNB,B,13
11,test,5,0.0,2-Back,1.0,m,Tue Aug 19 2025 10:10:44 GMT-0400 (Eastern Daylight Time),767834.8000001907,176_o_m_n_a.png,I,m,1087,16,2,2107.800000190735,765727.0,9010,NNB,B,14
12,test,5,0.0,2-Back,1.0,m,Tue Aug 19 2025 10:10:44 GMT-0400 (Eastern Daylight Time),769784.8000001907,029_m_f_n_a.png,I,m,921,17,2,1940.8000001907349,767844.0,9010,NNB,B,15
13,test,5,1.0,2-Back,1.0,z,Tue Aug 19 2025 10:10:44 GMT-0400 (Eastern Daylight Time),771684.8000001907,176_o_m_n_a.png,I,z,876,18,2,1887.0,769797.8000001907,9010,NNB,B,16
