acc_sum,block,block_c,condition,correct,correct_response,datetime,endtime,flanker,jitter,project,response,response_test_buffer_response,response_test_target_response,response_time,response_time_test_buffer_response,response_time_test_target_response,row_sel,session_number,start_end,starttime,subject_id,target,task,task_vers,time_test_buffer,time_test_buffer_response,time_test_constants,time_test_flanker,time_test_jitter,time_test_logger,time_test_target,time_test_target_response,time_test_variables,trial
1,prac,1,con,1,m,Thu Mar 05 2026 12:30:21 GMT-0600 (Central Standard Time),101111.59999999404,bell,1000,O,m,,,615,,,3,1,2910.0999999940395,98201.5,7753,bell,AF,A,,,,,,,,,,1
2,prac,1,con,1,m,Thu Mar 05 2026 12:30:21 GMT-0600 (Central Standard Time),103776.59999999404,step,800,O,m,,,563,,,1,1,2655.7999999821186,101120.80000001192,7753,step,AF,A,,,,,,,,,,2
3,prac,1,con,1,m,Thu Mar 05 2026 12:30:21 GMT-0600 (Central Standard Time),106724.5,remote,1000,O,m,,,633,,,7,1,2939.199999988079,103785.30000001192,7753,remote,AF,A,,,,,,,,,,3
4,prac,1,con,1,z,Thu Mar 05 2026 12:30:21 GMT-0600 (Central Standard Time),109427.0,brutal,800,O,z,,,597,,,13,1,2698.5999999940395,106728.40000000596,7753,brutal,AF,A,,,,,,,,,,4
5,prac,1,inc,1,z,Thu Mar 05 2026 12:30:21 GMT-0600 (Central Standard Time),112107.09999999404,rock,900,O,z,,,478,,,10,1,2673.5999999940395,109433.5,7753,kind,AF,A,,,,,,,,,,5
6,prac,1,inc,1,z,Thu Mar 05 2026 12:30:21 GMT-0600 (Central Standard Time),115122.80000001192,window,1100,O,z,,,610,,,16,1,3007.5999999940395,112115.20000001788,7753,temper,AF,A,,,,,,,,,,6
7,prac,1,inc,1,z,Thu Mar 05 2026 12:30:21 GMT-0600 (Central Standard Time),117903.40000000596,film,900,O,z,,,581,,,14,1,2772.199999988079,115131.20000001788,7753,hate,AF,A,,,,,,,,,,7
8,prac,1,con,1,z,Thu Mar 05 2026 12:30:21 GMT-0600 (Central Standard Time),120622.5,elated,800,O,z,,,609,,,9,1,2708.2999999821186,117914.20000001788,7753,elated,AF,A,,,,,,,,,,8
8,prac,1,con,0,z,Thu Mar 05 2026 12:30:21 GMT-0600 (Central Standard Time),123521.90000000596,rage,1000,O,m,,,596,,,15,1,2893.0999999940395,120628.80000001192,7753,rage,AF,A,,,,,,,,,,9
9,prac,1,inc,1,m,Thu Mar 05 2026 12:30:21 GMT-0600 (Central Standard Time),126338.09999999404,kind,900,O,m,,,622,,,2,1,2811.2999999821186,123526.80000001192,7753,rock,AF,A,,,,,,,,,,10
10,prac,1,inc,1,z,Thu Mar 05 2026 12:30:21 GMT-0600 (Central Standard Time),129352.80000001192,napkin,1100,O,z,,,630,,,12,1,3009.4000000059605,126343.40000000596,7753,friend,AF,A,,,,,,,,,,11
11,prac,1,inc,1,m,Thu Mar 05 2026 12:30:21 GMT-0600 (Central Standard Time),132401.40000000596,hate,1100,O,m,,,638,,,4,1,3043.5,129357.90000000596,7753,film,AF,A,,,,,,,,,,12
12,prac,1,inc,1,m,Thu Mar 05 2026 12:30:21 GMT-0600 (Central Standard Time),135467.40000000596,brutal,1100,O,m,,,664,,,8,1,3057.5,132409.90000000596,7753,window,AF,A,,,,,,,,,,13
13,prac,1,con,1,m,Thu Mar 05 2026 12:30:21 GMT-0600 (Central Standard Time),138216.09999999404,jacket,800,O,m,,,637,,,5,1,2743.899999976158,135472.20000001788,7753,jacket,AF,A,,,,,,,,,,14
14,prac,1,con,1,z,Thu Mar 05 2026 12:30:21 GMT-0600 (Central Standard Time),140949.40000000596,love,1000,O,z,,,434,,,11,1,2727.300000011921,138222.09999999404,7753,love,AF,A,,,,,,,,,,15
15,prac,1,inc,1,m,Thu Mar 05 2026 12:30:21 GMT-0600 (Central Standard Time),143664.80000001192,elated,900,O,m,,,514,,,6,1,2710.2000000178814,140954.59999999404,7753,napkin,AF,A,,,,,,,,,,16
1,test,1,con,1,m,Thu Mar 05 2026 12:30:21 GMT-0600 (Central Standard Time),152810.90000000596,window,900,O,m,m,None,563,348.0,215.0,122,1,1994.0999999940395,150816.80000001192,7753,window,AF,A,149826,149826,148183,149095,148183,150177,149611,149611,150177,1
2,test,1,con,1,m,Thu Mar 05 2026 12:30:21 GMT-0600 (Central Standard Time),154743.90000000596,jacket,900,O,m,m,None,491,291.0,200.0,98,1,1927.199999988079,152816.70000001788,7753,jacket,AF,A,151811,151811,150183,151094,150183,152110,151611,151611,152110,2
3,test,1,con,1,z,Thu Mar 05 2026 12:30:21 GMT-0600 (Central Standard Time),156531.40000000596,kind,800,O,z,z,None,440,241.0,199.0,9,1,1783.0999999940395,154748.30000001192,7753,kind,AF,A,153644,153644,152114,152928,152115,153898,153444,153444,153897,3
3,test,1,con,0,z,Thu Mar 05 2026 12:30:21 GMT-0600 (Central Standard Time),158525.09999999404,friend,900,O,m,m,None,550,351.0,199.0,26,1,1990.5,156534.59999999404,7753,friend,AF,A,155526,155526,153901,154810,153901,155891,155327,155327,155891,4
3,test,1,con,0,z,Thu Mar 05 2026 12:30:21 GMT-0600 (Central Standard Time),160558.09999999404,rage,800,O,m,m,None,683,484.0,199.0,49,1,2028.0999999940395,158530.0,7753,rage,AF,A,157425,157425,155896,156709,155896,157924,157225,157225,157924,5
4,test,1,con,1,z,Thu Mar 05 2026 12:30:21 GMT-0600 (Central Standard Time),162607.70000001788,temper,1100,O,z,z,None,408,209.0,199.0,60,1,2044.2000000178814,160563.5,7753,temper,AF,A,159758,159758,157930,159042,157930,159974,159559,159559,159974,6
5,test,1,con,1,m,Thu Mar 05 2026 12:30:21 GMT-0600 (Central Standard Time),164890.0,remote,1100,O,m,m,None,663,463.0,200.0,116,1,2277.2999999821186,162612.70000001788,7753,remote,AF,A,161791,161791,159979,161090,159979,162256,161591,161591,162256,7
6,test,1,con,1,m,Thu Mar 05 2026 12:30:21 GMT-0600 (Central Standard Time),166739.90000000596,film,800,O,m,m,None,510,311.0,199.0,89,1,1845.300000011921,164894.59999999404,7753,film,AF,A,163791,163791,162261,163074,162261,164106,163591,163591,164106,8
7,test,1,inc,1,m,Thu Mar 05 2026 12:30:21 GMT-0600 (Central Standard Time),168790.90000000596,kind,900,O,m,m,None,602,403.0,199.0,94,1,2045.800000011921,166745.09999999404,7753,film,AF,A,165739,165739,164111,165023,164111,166157,165540,165540,166157,9
8,test,1,inc,1,z,Thu Mar 05 2026 12:30:21 GMT-0600 (Central Standard Time),170872.30000001192,napkin,900,O,z,z,None,656,441.0,215.0,38,1,2076.800000011921,168795.5,7753,brutal,AF,A,167789,167789,166162,167071,166162,168238,167573,167573,168238,10
9,test,1,con,1,z,Thu Mar 05 2026 12:30:21 GMT-0600 (Central Standard Time),172954.90000000596,kind,1000,O,z,z,None,547,348.0,199.0,11,1,2078.9000000059605,170876.0,7753,kind,AF,A,169971,169971,168242,169255,168242,170321,169772,169772,170321,11
10,test,1,con,1,m,Thu Mar 05 2026 12:30:21 GMT-0600 (Central Standard Time),175086.90000000596,bell,900,O,m,m,None,693,492.0,201.0,82,1,2125.4000000059605,172961.5,7753,bell,AF,A,171954,171954,170328,171238,170328,172453,171752,171752,172453,12
11,test,1,inc,1,z,Thu Mar 05 2026 12:30:21 GMT-0600 (Central Standard Time),177103.20000001788,rock,900,O,z,z,None,590,391.0,199.0,22,1,2012.2000000178814,175091.0,7753,love,AF,A,174071,174071,172457,173370,172457,174469,173872,173872,174469,13
12,test,1,inc,1,z,Thu Mar 05 2026 12:30:21 GMT-0600 (Central Standard Time),179337.20000001788,film,1100,O,z,z,None,599,399.0,200.0,16,1,2229.7000000178814,177107.5,7753,kind,AF,A,176304,176304,174474,175586,174474,176703,176103,176103,176703,14
13,test,1,con,1,z,Thu Mar 05 2026 12:30:21 GMT-0600 (Central Standard Time),181318.59999999404,elated,800,O,z,z,None,633,434.0,199.0,1,1,1974.7999999821186,179343.80000001192,7753,elated,AF,A,178236,178236,176710,177522,176710,178685,178037,178037,178685,15
14,test,1,con,1,m,Thu Mar 05 2026 12:30:21 GMT-0600 (Central Standard Time),183168.09999999404,napkin,800,O,m,m,None,507,308.0,199.0,105,1,1842.699999988079,181325.40000000596,7753,napkin,AF,A,180218,180219,178691,179503,178693,180534,180019,180019,180534,16
15,test,1,inc,1,m,Thu Mar 05 2026 12:30:21 GMT-0600 (Central Standard Time),185484.90000000596,friend,1100,O,m,m,None,697,482.0,215.0,120,1,2311.199999988079,183173.70000001788,7753,remote,AF,A,182368,182368,180540,181651,180540,182851,182152,182152,182851,17
16,test,1,inc,1,m,Thu Mar 05 2026 12:30:21 GMT-0600 (Central Standard Time),187650.0,kind,900,O,m,m,None,722,523.0,199.0,78,1,2160.0999999940395,185489.90000000596,7753,rock,AF,A,184483,184483,182856,183768,182856,185016,184283,184283,185016,18
17,test,1,inc,1,z,Thu Mar 05 2026 12:30:21 GMT-0600 (Central Standard Time),189850.0,film,1100,O,z,z,None,558,358.0,200.0,24,1,2193.5,187656.5,7753,love,AF,A,186849,186849,185023,186134,185023,187216,186649,186649,187216,19
18,test,1,inc,1,m,Thu Mar 05 2026 12:30:21 GMT-0600 (Central Standard Time),191916.5,elated,800,O,m,m,None,720,521.0,199.0,109,1,2062.2999999821186,189854.20000001788,7753,napkin,AF,A,188749,188749,187220,188032,187221,189283,188549,188549,189283,20
19,test,1,con,1,z,Thu Mar 05 2026 12:30:21 GMT-0600 (Central Standard Time),193930.80000001192,temper,900,O,z,z,None,579,362.0,217.0,58,1,2010.5,191920.30000001192,7753,temper,AF,A,190932,190932,189286,190199,189286,191297,190715,190715,191297,21
20,test,1,con,1,z,Thu Mar 05 2026 12:30:21 GMT-0600 (Central Standard Time),195863.59999999404,rage,900,O,z,z,None,490,291.0,199.0,50,1,1927.7999999821186,193935.80000001192,7753,rage,AF,A,192931,192931,191302,192214,191302,193230,192731,192731,193230,22
21,test,1,inc,1,m,Thu Mar 05 2026 12:30:21 GMT-0600 (Central Standard Time),197929.70000001788,temper,1000,O,m,m,None,522,323.0,199.0,103,1,2061.800000011921,195867.90000000596,7753,jacket,AF,A,194963,194963,193234,194247,193234,195296,194763,194763,195296,23
22,test,1,con,1,m,Thu Mar 05 2026 12:30:21 GMT-0600 (Central Standard Time),200129.30000001192,bell,800,O,m,m,None,854,640.0,214.0,81,1,2194.0999999940395,197935.20000001788,7753,bell,AF,A,196846,196846,195301,196114,195302,197495,196631,196631,197495,24
23,test,1,con,1,z,Thu Mar 05 2026 12:30:21 GMT-0600 (Central Standard Time),202011.40000000596,elated,900,O,z,z,None,433,233.0,200.0,2,1,1878.4000000059605,200133.0,7753,elated,AF,A,199129,199129,197499,198414,197499,199378,198928,198928,199377,25
24,test,1,con,1,z,Thu Mar 05 2026 12:30:21 GMT-0600 (Central Standard Time),203945.30000001192,love,900,O,z,z,None,479,276.0,203.0,18,1,1927.5999999940395,202017.70000001788,7753,love,AF,A,201017,201017,199384,200298,199384,201311,200813,200813,201311,26
25,test,1,con,1,m,Thu Mar 05 2026 12:30:21 GMT-0600 (Central Standard Time),206145.40000000596,rock,1100,O,m,m,None,553,354.0,199.0,76,1,2190.0,203955.40000000596,7753,rock,AF,A,203144,203144,201321,202428,201322,203511,202944,202944,203511,27
26,test,1,con,1,m,Thu Mar 05 2026 12:30:21 GMT-0600 (Central Standard Time),208194.09999999404,window,1000,O,m,m,None,515,314.0,201.0,123,1,2041.8999999761581,206152.20000001788,7753,window,AF,A,205246,205246,203518,204527,203519,205560,205045,205045,205560,28
27,test,1,inc,1,z,Thu Mar 05 2026 12:30:21 GMT-0600 (Central Standard Time),210209.30000001192,jacket,800,O,z,z,None,688,474.0,214.0,29,1,2011.5,208197.80000001192,7753,friend,AF,A,207092,207092,205564,206376,205564,207575,206878,206878,207575,29
28,test,1,inc,1,z,Thu Mar 05 2026 12:30:21 GMT-0600 (Central Standard Time),212142.20000001788,jacket,800,O,z,z,None,582,368.0,214.0,5,1,1928.800000011921,210213.40000000596,7753,elated,AF,A,209125,209125,207579,208393,207580,209508,208910,208910,209508,30
29,test,1,con,1,z,Thu Mar 05 2026 12:30:21 GMT-0600 (Central Standard Time),214091.70000001788,hate,900,O,z,z,None,503,288.0,215.0,42,1,1945.2000000178814,212146.5,7753,hate,AF,A,211158,211158,209513,210424,209513,211458,210942,210942,211458,31
30,test,1,inc,1,z,Thu Mar 05 2026 12:30:21 GMT-0600 (Central Standard Time),216207.80000001192,remote,1000,O,z,z,None,575,375.0,200.0,7,1,2110.9000000059605,214096.90000000596,7753,elated,AF,A,213191,213191,211463,212477,211463,213574,212990,212990,213574,32
31,test,1,inc,1,z,Thu Mar 05 2026 12:30:21 GMT-0600 (Central Standard Time),218690.80000001192,window,1100,O,z,z,None,839,639.0,200.0,64,1,2478.4000000059605,216212.40000000596,7753,temper,AF,A,215407,215407,213578,214691,213579,216057,215207,215207,216057,33
32,test,1,inc,1,m,Thu Mar 05 2026 12:30:21 GMT-0600 (Central Standard Time),220840.0,love,1000,O,m,m,None,600,400.0,200.0,95,1,2145.199999988079,218694.80000001192,7753,film,AF,A,217790,217790,216061,217073,216061,218206,217590,217590,218206,34
33,test,1,inc,1,z,Thu Mar 05 2026 12:30:21 GMT-0600 (Central Standard Time),222907.0,napkin,900,O,z,z,None,622,408.0,214.0,30,1,2061.0,220846.0,7753,friend,AF,A,219855,219855,218212,219123,218212,220273,219641,219641,220273,35
34,test,1,inc,1,z,Thu Mar 05 2026 12:30:21 GMT-0600 (Central Standard Time),224853.90000000596,step,800,O,z,z,None,608,408.0,200.0,13,1,1943.0999999940395,222910.80000001192,7753,kind,AF,A,221806,221806,220277,221088,220277,222220,221605,221605,222220,36
35,test,1,inc,1,m,Thu Mar 05 2026 12:30:21 GMT-0600 (Central Standard Time),226802.59999999404,elated,800,O,m,m,None,610,410.0,200.0,125,1,1944.0999999940395,224858.5,7753,window,AF,A,223755,223755,222225,223039,222225,224169,223554,223554,224169,37
36,test,1,inc,1,z,Thu Mar 05 2026 12:30:21 GMT-0600 (Central Standard Time),229069.80000001192,window,1100,O,z,z,None,625,422.0,203.0,8,1,2263.5,226806.30000001192,7753,elated,AF,A,226008,226008,224172,225288,224173,226436,225804,225804,226436,38
37,test,1,con,1,m,Thu Mar 05 2026 12:30:21 GMT-0600 (Central Standard Time),231402.30000001192,window,1100,O,m,m,None,698,497.0,201.0,124,1,2328.5,229073.80000001192,7753,window,AF,A,228269,228269,226440,227554,226440,228768,228068,228068,228768,39
38,test,1,inc,1,z,Thu Mar 05 2026 12:30:21 GMT-0600 (Central Standard Time),233467.90000000596,rock,900,O,z,z,None,621,421.0,200.0,46,1,2062.0,231405.90000000596,7753,hate,AF,A,230402,230402,228772,229687,228772,230834,230201,230201,230834,40
39,test,1,con,1,m,Thu Mar 05 2026 12:30:21 GMT-0600 (Central Standard Time),235518.59999999404,bell,1000,O,m,m,None,508,309.0,199.0,83,1,2045.699999988079,233472.90000000596,7753,bell,AF,A,232568,232568,230839,231851,230839,232885,232369,232369,232885,41
40,test,1,inc,1,z,Thu Mar 05 2026 12:30:21 GMT-0600 (Central Standard Time),237501.30000001192,rock,900,O,z,z,None,543,327.0,216.0,14,1,1978.7000000178814,235522.59999999404,7753,kind,AF,A,234536,234536,232889,233802,232889,234867,234320,234320,234867,42
41,test,1,con,1,z,Thu Mar 05 2026 12:30:21 GMT-0600 (Central Standard Time),239568.20000001788,brutal,800,O,z,z,None,732,514.0,218.0,33,1,2062.9000000059605,237505.30000001192,7753,brutal,AF,A,236403,236403,234871,235684,234871,236934,236185,236185,236934,43
41,test,1,con,0,z,Thu Mar 05 2026 12:30:21 GMT-0600 (Central Standard Time),241565.5,friend,1000,O,m,m,None,460,261.0,199.0,27,1,1994.5,239571.0,7753,friend,AF,A,238665,238665,236937,237949,236937,238932,238466,238466,238931,44
42,test,1,inc,1,z,Thu Mar 05 2026 12:30:21 GMT-0600 (Central Standard Time),243833.40000000596,bell,1000,O,z,z,None,734,518.0,216.0,55,1,2264.300000011921,241569.09999999404,7753,rage,AF,A,240681,240681,238935,239949,238935,241199,240465,240465,241199,45
43,test,1,inc,1,z,Thu Mar 05 2026 12:30:21 GMT-0600 (Central Standard Time),245730.0,rock,900,O,z,z,None,454,254.0,200.0,54,1,1891.0999999940395,243838.90000000596,7753,rage,AF,A,242831,242831,241205,242116,241205,243096,242630,242630,243096,46
44,test,1,con,1,m,Thu Mar 05 2026 12:30:21 GMT-0600 (Central Standard Time),247882.0,film,1100,O,m,m,None,500,300.0,200.0,92,1,2148.2999999821186,245733.70000001788,7753,film,AF,A,244931,244931,243100,244214,243100,245248,244731,244731,245248,47
45,test,1,inc,1,z,Thu Mar 05 2026 12:30:21 GMT-0600 (Central Standard Time),250062.70000001788,window,1100,O,z,z,None,541,341.0,200.0,40,1,2176.4000000059605,247886.30000001192,7753,brutal,AF,A,247081,247081,245252,246363,245253,247429,246881,246881,247429,48
46,test,1,con,1,z,Thu Mar 05 2026 12:30:21 GMT-0600 (Central Standard Time),252281.59999999404,rage,1000,O,z,z,None,700,484.0,216.0,51,1,2214.7999999821186,250066.80000001192,7753,rage,AF,A,249163,249163,247433,248444,247433,249648,248947,248947,249648,49
47,test,1,inc,1,m,Thu Mar 05 2026 12:30:21 GMT-0600 (Central Standard Time),254312.30000001192,elated,800,O,m,m,None,691,490.0,201.0,117,1,2025.0,252287.30000001192,7753,remote,AF,A,251180,251181,249653,250462,249654,251678,250979,250979,251678,50
48,test,1,inc,1,z,Thu Mar 05 2026 12:30:21 GMT-0600 (Central Standard Time),256278.09999999404,step,800,O,z,z,None,626,426.0,200.0,45,1,1961.0999999940395,254317.0,7753,hate,AF,A,253212,253212,251683,252497,251683,253644,253012,253012,253644,51
49,test,1,inc,1,m,Thu Mar 05 2026 12:30:21 GMT-0600 (Central Standard Time),258194.30000001192,elated,800,O,m,m,None,581,382.0,199.0,101,1,1912.5999999940395,256281.70000001788,7753,jacket,AF,A,255177,255177,253648,254461,253648,255560,254977,254977,255560,52
50,test,1,inc,1,m,Thu Mar 05 2026 12:30:21 GMT-0600 (Central Standard Time),260244.80000001192,rage,800,O,m,m,None,704,486.0,218.0,85,1,2045.9000000059605,258198.90000000596,7753,bell,AF,A,257112,257112,255565,256377,255565,257611,256894,256894,257611,53
51,test,1,inc,1,z,Thu Mar 05 2026 12:30:21 GMT-0600 (Central Standard Time),262259.40000000596,remote,1000,O,z,z,None,479,278.0,201.0,39,1,2008.5999999940395,260250.80000001192,7753,brutal,AF,A,259344,259344,257617,258627,257617,259625,259143,259143,259625,54
52,test,1,inc,1,m,Thu Mar 05 2026 12:30:21 GMT-0600 (Central Standard Time),264307.40000000596,brutal,900,O,m,m,None,601,402.0,199.0,102,1,2043.199999988079,262264.2000000179,7753,jacket,AF,A,261259,261259,259630,260544,259631,261673,261060,261060,261673,55
53,test,1,inc,1,m,Thu Mar 05 2026 12:30:21 GMT-0600 (Central Standard Time),266475.2000000179,love,1000,O,m,m,None,631,432.0,199.0,87,1,2165.0,264310.2000000179,7753,bell,AF,A,263392,263392,261676,262692,261676,263841,263193,263193,263841,56
54,test,1,inc,1,m,Thu Mar 05 2026 12:30:21 GMT-0600 (Central Standard Time),268575.2000000179,brutal,900,O,m,m,None,659,459.0,200.0,110,1,2095.300000011921,266479.90000000596,7753,napkin,AF,A,265475,265475,263846,264757,263846,265941,265274,265274,265941,57
55,test,1,inc,1,m,Thu Mar 05 2026 12:30:21 GMT-0600 (Central Standard Time),270623.59999999404,love,1000,O,m,m,None,509,308.0,201.0,79,1,2045.0,268578.59999999404,7753,rock,AF,A,267674,267674,265945,266959,265945,267990,267473,267473,267990,58
56,test,1,inc,1,z,Thu Mar 05 2026 12:30:21 GMT-0600 (Central Standard Time),272839.59999999404,napkin,900,O,z,z,None,767,566.0,201.0,62,1,2212.5999999940395,270627.0,7753,temper,AF,A,269624,269624,267993,268907,267993,270206,269423,269423,270206,59
57,test,1,inc,1,m,Thu Mar 05 2026 12:30:21 GMT-0600 (Central Standard Time),274990.2000000179,temper,1000,O,m,m,None,605,396.0,209.0,119,1,2146.100000023842,272844.09999999404,7753,remote,AF,A,271946,271946,270210,271224,270210,272356,271737,271737,272356,60
58,test,1,con,1,m,Thu Mar 05 2026 12:30:21 GMT-0600 (Central Standard Time),276838.7000000179,rock,800,O,m,m,None,508,309.0,199.0,73,1,1845.1000000238419,274993.59999999404,7753,rock,AF,A,273889,273889,272360,273173,272360,274205,273689,273689,274205,61
59,test,1,con,1,z,Thu Mar 05 2026 12:30:21 GMT-0600 (Central Standard Time),278970.8000000119,love,1100,O,z,z,None,489,289.0,200.0,20,1,2127.5,276843.3000000119,7753,love,AF,A,276037,276037,274209,275321,274210,276337,275837,275837,276337,62
60,test,1,inc,1,z,Thu Mar 05 2026 12:30:21 GMT-0600 (Central Standard Time),281170.2000000179,remote,1000,O,z,z,None,680,464.0,216.0,31,1,2195.9000000059605,278974.3000000119,7753,friend,AF,A,278072,278072,276340,277354,276341,278536,277856,277856,278536,63
61,test,1,inc,1,m,Thu Mar 05 2026 12:30:21 GMT-0600 (Central Standard Time),283187.09999999404,rage,800,O,m,m,None,679,479.0,200.0,93,1,2012.0999999940395,281175.0,7753,film,AF,A,280071,280071,278541,279353,278541,280553,279870,279870,280553,64
62,test,1,con,1,z,Thu Mar 05 2026 12:30:21 GMT-0600 (Central Standard Time),285269.0,temper,800,O,z,z,None,736,536.0,200.0,57,1,2077.5999999940395,283191.40000000596,7753,temper,AF,A,282086,282086,280557,281369,280558,282635,281886,281886,282635,65
62,test,1,con,0,z,Thu Mar 05 2026 12:30:21 GMT-0600 (Central Standard Time),287451.3000000119,friend,1100,O,m,m,None,537,337.0,200.0,28,1,2177.4000000059605,285273.90000000596,7753,friend,AF,A,284469,284469,282640,283753,282640,284817,284268,284268,284817,66
62,test,1,con,0,z,Thu Mar 05 2026 12:30:21 GMT-0600 (Central Standard Time),289451.3000000119,brutal,1000,O,m,m,None,455,255.0,200.0,35,1,1994.9000000059605,287456.40000000596,7753,brutal,AF,A,286552,286552,284822,285835,284823,286817,286352,286352,286817,67
63,test,1,inc,1,z,Thu Mar 05 2026 12:30:21 GMT-0600 (Central Standard Time),291784.40000000596,film,1100,O,z,z,None,709,510.0,199.0,56,1,2330.199999988079,289454.2000000179,7753,rage,AF,A,288633,288633,286820,287933,286821,289150,288434,288434,289150,68
64,test,1,con,1,z,Thu Mar 05 2026 12:30:21 GMT-0600 (Central Standard Time),293699.59999999404,brutal,900,O,z,z,None,488,287.0,201.0,34,1,1911.5,291788.09999999404,7753,brutal,AF,A,290767,290767,289154,290065,289154,291066,290566,290566,291066,69
65,test,1,con,1,z,Thu Mar 05 2026 12:30:21 GMT-0600 (Central Standard Time),295465.8000000119,love,800,O,z,z,None,420,205.0,215.0,17,1,1761.800000011921,293704.0,7753,love,AF,A,292617,292617,291070,291884,291070,292832,292401,292401,292832,70
66,test,1,con,1,z,Thu Mar 05 2026 12:30:21 GMT-0600 (Central Standard Time),297447.8000000119,hate,1000,O,z,z,None,440,241.0,199.0,43,1,1977.800000011921,295470.0,7753,hate,AF,A,294565,294565,292836,293849,292836,294814,294366,294366,294814,71
67,test,1,inc,1,z,Thu Mar 05 2026 12:30:21 GMT-0600 (Central Standard Time),299346.90000000596,step,800,O,z,z,None,578,362.0,216.0,21,1,1895.199999988079,297451.7000000179,7753,love,AF,A,296348,296348,294818,295620,294818,296713,296132,296132,296713,72
68,test,1,inc,1,m,Thu Mar 05 2026 12:30:21 GMT-0600 (Central Standard Time),301546.40000000596,hate,1100,O,m,m,None,553,354.0,199.0,88,1,2193.300000011921,299353.09999999404,7753,bell,AF,A,298548,298548,296719,297831,296719,298913,298348,298348,298912,73
69,test,1,inc,1,z,Thu Mar 05 2026 12:30:21 GMT-0600 (Central Standard Time),303563.59999999404,napkin,900,O,z,z,None,579,379.0,200.0,6,1,2012.5,301551.09999999404,7753,elated,AF,A,300548,300548,298917,299831,298917,300930,300347,300347,300930,74
70,test,1,con,1,m,Thu Mar 05 2026 12:30:21 GMT-0600 (Central Standard Time),305713.3000000119,rock,900,O,m,m,None,716,516.0,200.0,74,1,2144.0,303569.3000000119,7753,rock,AF,A,302563,302563,300935,301848,300936,303079,302363,302363,303079,75
71,test,1,con,1,z,Thu Mar 05 2026 12:30:21 GMT-0600 (Central Standard Time),307761.5,hate,1100,O,z,z,None,414,199.0,215.0,44,1,2043.9000000059605,305717.59999999404,7753,hate,AF,A,304928,304928,303084,304196,303084,305128,304713,304713,305128,76
72,test,1,inc,1,m,Thu Mar 05 2026 12:30:21 GMT-0600 (Central Standard Time),309779.2000000179,kind,900,O,m,m,None,583,383.0,200.0,86,1,2014.0,307765.2000000179,7753,bell,AF,A,306761,306762,305131,306046,305132,307145,306561,306561,307145,77
73,test,1,inc,1,z,Thu Mar 05 2026 12:30:21 GMT-0600 (Central Standard Time),311927.90000000596,bell,1000,O,z,z,None,616,417.0,199.0,15,1,2144.300000011921,309783.59999999404,7753,kind,AF,A,308860,308861,307150,308160,307150,309294,308661,308661,309294,78
74,test,1,con,1,m,Thu Mar 05 2026 12:30:21 GMT-0600 (Central Standard Time),314026.90000000596,rock,1000,O,m,m,None,556,357.0,199.0,75,1,2093.5,311933.40000000596,7753,rock,AF,A,311026,311026,309299,310311,309300,311393,310827,310827,311393,79
75,test,1,con,1,m,Thu Mar 05 2026 12:30:21 GMT-0600 (Central Standard Time),316607.8000000119,step,1000,O,m,m,None,1040,841.0,199.0,67,1,2578.0999999940395,314029.7000000179,7753,step,AF,A,313125,313125,311396,312409,311396,313974,312926,312926,313974,80
76,test,1,con,1,m,Thu Mar 05 2026 12:30:21 GMT-0600 (Central Standard Time),318643.2000000179,step,800,O,m,m,None,689,490.0,199.0,65,1,2030.0,316613.2000000179,7753,step,AF,A,315508,315508,313979,314791,313980,316009,315308,315308,316009,81
77,test,1,inc,1,m,Thu Mar 05 2026 12:30:21 GMT-0600 (Central Standard Time),320940.2000000179,friend,1100,O,m,m,None,660,461.0,199.0,104,1,2289.100000023842,318651.09999999404,7753,jacket,AF,A,317841,317841,316017,317124,316018,318306,317642,317642,318306,82
78,test,1,inc,1,m,Thu Mar 05 2026 12:30:21 GMT-0600 (Central Standard Time),323189.7000000179,hate,1100,O,m,m,None,601,402.0,199.0,96,1,2243.2000000178814,320946.5,7753,film,AF,A,320140,320140,318313,319424,318313,320556,319940,319940,320556,83
79,test,1,inc,1,m,Thu Mar 05 2026 12:30:21 GMT-0600 (Central Standard Time),325323.0,brutal,900,O,m,m,None,697,497.0,200.0,118,1,2129.199999988079,323193.8000000119,7753,remote,AF,A,322189,322189,320560,321473,320560,322689,321989,321989,322689,84
80,test,1,con,1,z,Thu Mar 05 2026 12:30:21 GMT-0600 (Central Standard Time),327471.8000000119,kind,1100,O,z,z,None,501,302.0,199.0,12,1,2139.2000000178814,325332.59999999404,7753,kind,AF,A,324522,324522,322699,323806,322699,324838,324322,324322,324838,85
81,test,1,inc,1,m,Thu Mar 05 2026 12:30:21 GMT-0600 (Central Standard Time),329507.40000000596,brutal,900,O,m,m,None,599,399.0,200.0,126,1,2028.5999999940395,327478.8000000119,7753,window,AF,A,326472,326472,324845,325754,324845,326873,326271,326271,326873,86
82,test,1,con,1,m,Thu Mar 05 2026 12:30:21 GMT-0600 (Central Standard Time),331604.7000000179,napkin,900,O,m,m,None,660,461.0,199.0,106,1,2091.7000000178814,329513.0,7753,napkin,AF,A,328505,328505,326879,327787,326879,328971,328305,328305,328971,87
83,test,1,con,1,z,Thu Mar 05 2026 12:30:21 GMT-0600 (Central Standard Time),333718.7000000179,friend,800,O,z,z,None,773,573.0,200.0,25,1,2108.600000023842,331610.09999999404,7753,friend,AF,A,330504,330504,328976,329787,328976,331085,330303,330303,331085,88
84,test,1,inc,1,z,Thu Mar 05 2026 12:30:21 GMT-0600 (Central Standard Time),335852.59999999404,remote,1000,O,z,z,None,603,404.0,199.0,63,1,2131.2999999821186,333721.3000000119,7753,temper,AF,A,332802,332802,331087,332102,331088,333219,332603,332603,333219,89
85,test,1,con,1,m,Thu Mar 05 2026 12:30:21 GMT-0600 (Central Standard Time),337951.90000000596,film,1000,O,m,m,None,573,358.0,215.0,91,1,2093.5999999940395,335858.3000000119,7753,film,AF,A,334952,334952,333224,334236,333225,335318,334737,334737,335318,90
86,test,1,inc,1,m,Thu Mar 05 2026 12:30:21 GMT-0600 (Central Standard Time),339933.8000000119,rage,800,O,m,m,None,660,460.0,200.0,69,1,1974.2000000178814,337959.59999999404,7753,step,AF,A,336834,336834,335326,336133,335326,337300,336634,336634,337300,91
87,test,1,inc,1,m,Thu Mar 05 2026 12:30:21 GMT-0600 (Central Standard Time),342234.40000000596,friend,1100,O,m,m,None,658,458.0,200.0,112,1,2295.5,339938.90000000596,7753,napkin,AF,A,339133,339133,337305,338418,337305,339600,338933,338933,339600,92
88,test,1,inc,1,z,Thu Mar 05 2026 12:30:21 GMT-0600 (Central Standard Time),344433.2000000179,film,1100,O,z,z,None,556,341.0,215.0,48,1,2193.800000011921,342239.40000000596,7753,hate,AF,A,341450,341450,339605,340717,339606,341799,341234,341234,341799,93
89,test,1,con,1,z,Thu Mar 05 2026 12:30:21 GMT-0600 (Central Standard Time),346483.0,rage,1100,O,z,z,None,427,228.0,199.0,52,1,2044.5,344438.5,7753,rage,AF,A,343617,343617,341805,342915,341805,343849,343417,343417,343849,94
90,test,1,inc,1,m,Thu Mar 05 2026 12:30:21 GMT-0600 (Central Standard Time),348432.2000000179,rage,800,O,m,m,None,606,391.0,215.0,77,1,1946.800000011921,346485.40000000596,7753,rock,AF,A,345399,345399,343851,344666,343852,345798,345184,345184,345798,95
91,test,1,con,1,m,Thu Mar 05 2026 12:30:21 GMT-0600 (Central Standard Time),350448.0,remote,1000,O,m,m,None,468,267.0,201.0,115,1,2010.4000000059605,348437.59999999404,7753,remote,AF,A,347532,347532,345804,346815,345804,347814,347331,347331,347814,96
92,test,1,con,1,m,Thu Mar 05 2026 12:30:21 GMT-0600 (Central Standard Time),352697.40000000596,napkin,1000,O,m,m,None,709,509.0,200.0,107,1,2244.9000000059605,350452.5,7753,napkin,AF,A,349546,349546,347819,348829,347819,350064,349346,349346,350063,97
93,test,1,inc,1,z,Thu Mar 05 2026 12:30:21 GMT-0600 (Central Standard Time),354946.3000000119,bell,1000,O,z,z,None,713,514.0,199.0,47,1,2245.2000000178814,352701.09999999404,7753,hate,AF,A,351797,351797,350067,351082,350067,352312,351597,351597,352312,98
94,test,1,con,1,m,Thu Mar 05 2026 12:30:21 GMT-0600 (Central Standard Time),357114.3000000119,jacket,1000,O,m,m,None,632,417.0,215.0,99,1,2163.2000000178814,354951.09999999404,7753,jacket,AF,A,354063,354063,352317,353329,352317,354480,353847,353847,354480,99
95,test,1,inc,1,m,Thu Mar 05 2026 12:30:21 GMT-0600 (Central Standard Time),359194.8000000119,temper,1000,O,m,m,None,533,332.0,201.0,111,1,2074.0,357120.8000000119,7753,napkin,AF,A,356213,356213,354487,355496,354487,356561,356012,356012,356561,100
96,test,1,con,1,m,Thu Mar 05 2026 12:30:21 GMT-0600 (Central Standard Time),361277.8000000119,remote,800,O,m,m,None,735,536.0,199.0,113,1,2077.5999999940395,359200.2000000179,7753,remote,AF,A,358094,358094,356566,357379,356566,358644,357895,357895,358644,101
97,test,1,con,1,z,Thu Mar 05 2026 12:30:21 GMT-0600 (Central Standard Time),363144.7000000179,hate,800,O,z,z,None,524,325.0,199.0,41,1,1861.2000000178814,361283.5,7753,hate,AF,A,360177,360177,358650,359461,358650,360511,359977,359977,360511,102
98,test,1,inc,1,m,Thu Mar 05 2026 12:30:21 GMT-0600 (Central Standard Time),365377.2000000179,friend,1100,O,m,m,None,598,383.0,215.0,128,1,2228.0,363149.2000000179,7753,window,AF,A,362359,362359,360515,361628,360516,362743,362144,362144,362743,103
99,test,1,inc,1,z,Thu Mar 05 2026 12:30:21 GMT-0600 (Central Standard Time),367360.09999999404,jacket,800,O,z,z,None,642,443.0,199.0,61,1,1978.199999988079,365381.90000000596,7753,temper,AF,A,364276,364276,362748,363561,362748,364726,364077,364077,364726,104
100,test,1,inc,1,m,Thu Mar 05 2026 12:30:21 GMT-0600 (Central Standard Time),369442.09999999404,temper,1000,O,m,m,None,541,334.0,207.0,127,1,2077.5999999940395,367364.5,7753,window,AF,A,366464,366464,364731,365741,364731,366808,366257,366257,366808,105
101,test,1,con,1,z,Thu Mar 05 2026 12:30:21 GMT-0600 (Central Standard Time),371523.90000000596,elated,1000,O,z,z,None,536,336.0,200.0,3,1,2077.5999999940395,369446.3000000119,7753,elated,AF,A,368541,368541,366812,367825,366813,368890,368341,368341,368890,106
102,test,1,con,1,m,Thu Mar 05 2026 12:30:21 GMT-0600 (Central Standard Time),373656.5,bell,1100,O,m,m,None,490,290.0,200.0,84,1,2128.0,371528.5,7753,bell,AF,A,370723,370723,368895,370006,368895,371023,370522,370522,371023,107
103,test,1,inc,1,z,Thu Mar 05 2026 12:30:21 GMT-0600 (Central Standard Time),375706.8000000119,step,800,O,z,z,None,715,515.0,200.0,53,1,2047.5,373659.3000000119,7753,rage,AF,A,372558,372558,371025,371840,371026,373073,372357,372357,373073,108
104,test,1,inc,1,m,Thu Mar 05 2026 12:30:21 GMT-0600 (Central Standard Time),377656.40000000596,kind,900,O,m,m,None,509,308.0,201.0,70,1,1946.199999988079,375710.2000000179,7753,step,AF,A,374707,374707,373076,373990,373077,375022,374506,374506,375022,109
105,test,1,con,1,m,Thu Mar 05 2026 12:30:21 GMT-0600 (Central Standard Time),379973.3000000119,napkin,1100,O,m,m,None,678,479.0,199.0,108,1,2312.5,377660.8000000119,7753,napkin,AF,A,376856,376856,375027,376140,375027,377339,376656,376656,377339,110
106,test,1,inc,1,m,Thu Mar 05 2026 12:30:21 GMT-0600 (Central Standard Time),382205.2000000179,hate,1100,O,m,m,None,586,386.0,200.0,80,1,2227.2000000178814,379978.0,7753,rock,AF,A,379172,379172,377344,378455,377344,379571,378972,378972,379571,111
107,test,1,con,1,m,Thu Mar 05 2026 12:30:21 GMT-0600 (Central Standard Time),384353.0,remote,900,O,m,m,None,713,513.0,200.0,114,1,2142.0999999940395,382210.90000000596,7753,remote,AF,A,381205,381205,379577,380489,379577,381719,381004,381004,381719,112
108,test,1,inc,1,z,Thu Mar 05 2026 12:30:21 GMT-0600 (Central Standard Time),386303.90000000596,jacket,800,O,z,z,None,609,409.0,200.0,37,1,1948.5999999940395,384355.3000000119,7753,brutal,AF,A,383254,383254,381721,382538,381722,383670,383054,383054,383670,113
109,test,1,con,1,m,Thu Mar 05 2026 12:30:21 GMT-0600 (Central Standard Time),388186.0,jacket,800,O,m,m,None,548,349.0,199.0,97,1,1879.199999988079,386306.8000000119,7753,jacket,AF,A,385203,385203,383673,384487,383673,385552,385004,385004,385552,114
110,test,1,con,1,m,Thu Mar 05 2026 12:30:21 GMT-0600 (Central Standard Time),390034.7000000179,window,800,O,m,m,None,526,312.0,214.0,121,1,1844.7000000178814,388190.0,7753,window,AF,A,387086,387086,385556,386368,385556,387401,386870,386871,387401,115
111,test,1,inc,1,m,Thu Mar 05 2026 12:30:21 GMT-0600 (Central Standard Time),392086.90000000596,love,1000,O,m,m,None,503,302.0,201.0,71,1,2047.4000000059605,390039.5,7753,step,AF,A,389136,389136,387406,388418,387406,389453,388935,388935,389453,116
112,test,1,inc,1,z,Thu Mar 05 2026 12:30:21 GMT-0600 (Central Standard Time),394350.90000000596,window,1100,O,z,z,None,618,418.0,200.0,32,1,2258.5,392092.40000000596,7753,friend,AF,A,391284,391284,389458,390569,389459,391717,391084,391084,391717,117
112,test,1,con,0,z,Thu Mar 05 2026 12:30:21 GMT-0600 (Central Standard Time),396533.5,brutal,1100,O,m,m,None,544,345.0,199.0,36,1,2177.2999999821186,394356.2000000179,7753,brutal,AF,A,393550,393550,391722,392835,391723,393900,393351,393351,393900,118
113,test,1,con,1,m,Thu Mar 05 2026 12:30:21 GMT-0600 (Central Standard Time),398565.90000000596,step,900,O,m,m,None,594,393.0,201.0,66,1,2027.5,396538.40000000596,7753,step,AF,A,395533,395533,393904,394817,393905,395932,395332,395332,395932,119
114,test,1,con,1,z,Thu Mar 05 2026 12:30:21 GMT-0600 (Central Standard Time),400481.3000000119,kind,900,O,z,z,None,472,273.0,199.0,10,1,1911.9000000059605,398569.40000000596,7753,kind,AF,A,397565,397565,395935,396849,395936,397847,397366,397366,397847,120
115,test,1,con,1,m,Thu Mar 05 2026 12:30:21 GMT-0600 (Central Standard Time),402947.90000000596,step,1100,O,m,m,None,819,619.0,200.0,68,1,2462.800000011921,400485.09999999404,7753,step,AF,A,399682,399682,397851,398966,397851,400314,399482,399482,400314,121
116,test,1,inc,1,z,Thu Mar 05 2026 12:30:21 GMT-0600 (Central Standard Time),405129.0,bell,1000,O,z,z,None,638,437.0,201.0,23,1,2175.2999999821186,402953.7000000179,7753,love,AF,A,402048,402048,400320,401331,400320,402495,401846,401846,402495,122
117,test,1,con,1,z,Thu Mar 05 2026 12:30:21 GMT-0600 (Central Standard Time),407064.2000000179,love,1000,O,z,z,None,393,192.0,201.0,19,1,1932.7000000178814,405131.5,7753,love,AF,A,404231,404231,402498,403514,402498,404430,404029,404029,404430,123
118,test,1,con,1,z,Thu Mar 05 2026 12:30:21 GMT-0600 (Central Standard Time),408995.09999999404,temper,1000,O,z,z,None,395,195.0,200.0,59,1,1925.5,407069.59999999404,7753,temper,AF,A,406163,406163,404436,405446,404436,406361,405963,405963,406361,124
119,test,1,con,1,m,Thu Mar 05 2026 12:30:21 GMT-0600 (Central Standard Time),411163.09999999404,jacket,1100,O,m,m,None,532,333.0,199.0,100,1,2165.399999976158,408997.7000000179,7753,jacket,AF,A,408196,408196,406364,407480,406364,408529,407996,407996,408529,125
120,test,1,inc,1,m,Thu Mar 05 2026 12:30:21 GMT-0600 (Central Standard Time),413378.2000000179,hate,1100,O,m,m,None,583,382.0,201.0,72,1,2209.2000000178814,411169.0,7753,step,AF,A,410361,410361,408535,409645,408535,410744,410160,410160,410744,126
121,test,1,con,1,m,Thu Mar 05 2026 12:30:21 GMT-0600 (Central Standard Time),415494.09999999404,film,900,O,m,m,None,670,468.0,202.0,90,1,2112.899999976158,413381.2000000179,7753,film,AF,A,412378,412378,410747,411662,410747,412860,412176,412176,412860,127
122,test,1,con,1,z,Thu Mar 05 2026 12:30:21 GMT-0600 (Central Standard Time),417677.2000000179,elated,1100,O,z,z,None,545,346.0,199.0,4,1,2177.0,415500.2000000179,7753,elated,AF,A,414693,414693,412866,413978,412866,415043,414494,414494,415043,128
