Number,acc_sum,block,block_c,block_cond,con_img,correct,correct_response,datetime,endtime,jitter,project,response,response_time,row_sel,session_number,start_end,starttime,subject_id,task,task_vers,trial
4,0,prac,1,A,circle.png,0,z,Mon Jun 22 2026 08:49:51 GMT-0500 (Central Daylight Time),40885.699999999255,1400,I,None,1517,4,3,3692.800000000745,37192.89999999851,8075,NTS,A,1
6,0,prac,1,A,circle.png,0,m,Mon Jun 22 2026 08:49:51 GMT-0500 (Central Daylight Time),45084.300000000745,1900,I,None,1516,5,3,4189.900000002235,40894.39999999851,8075,NTS,A,2
7,1,prac,1,A,circle.png,1,m,Mon Jun 22 2026 08:49:51 GMT-0500 (Central Daylight Time),48350.0,1700,I,m,766,6,3,3258.400000002235,45091.599999997765,8075,NTS,A,3
7,2,prac,1,A,circle.png,1,m,Mon Jun 22 2026 08:49:51 GMT-0500 (Central Daylight Time),51565.599999997765,1700,I,m,733,6,3,3207.199999999255,48358.39999999851,8075,NTS,A,4
2,3,prac,1,A,circle.png,1,z,Mon Jun 22 2026 08:49:51 GMT-0500 (Central Daylight Time),54931.39999999851,2000,I,z,577,2,3,3357.699999999255,51573.699999999255,8075,NTS,A,5
6,4,prac,1,A,circle.png,1,m,Mon Jun 22 2026 08:49:51 GMT-0500 (Central Daylight Time),58330.5,1900,I,m,712,5,3,3392.0,54938.5,8075,NTS,A,6
8,5,prac,1,A,circle.png,1,m,Mon Jun 22 2026 08:49:51 GMT-0500 (Central Daylight Time),61162.800000000745,1600,I,m,445,7,3,2826.7000000029802,58336.099999997765,8075,NTS,A,7
3,6,prac,1,A,circle.png,1,z,Mon Jun 22 2026 08:49:51 GMT-0500 (Central Daylight Time),63645.599999997765,1200,I,z,484,3,3,2475.39999999851,61170.199999999255,8075,NTS,A,8
1,7,prac,1,A,circle.png,1,z,Mon Jun 22 2026 08:49:51 GMT-0500 (Central Daylight Time),65927.80000000075,1000,I,z,483,1,3,2276.7000000029802,63651.099999997765,8075,NTS,A,9
9,8,prac,1,A,circle.png,1,m,Mon Jun 22 2026 08:49:51 GMT-0500 (Central Daylight Time),68827.09999999776,1500,I,m,612,8,3,2890.2999999970198,65936.80000000075,8075,NTS,A,10
1,9,prac,1,A,circle.png,1,z,Mon Jun 22 2026 08:49:51 GMT-0500 (Central Daylight Time),71060.80000000075,1000,I,z,452,1,3,2228.10000000149,68832.69999999925,8075,NTS,A,11
4,10,prac,1,A,circle.png,1,z,Mon Jun 22 2026 08:49:51 GMT-0500 (Central Daylight Time),73858.69999999925,1400,I,z,603,4,3,2792.39999999851,71066.30000000075,8075,NTS,A,12
7,1,prac,1,B,triangle.png,1,z,Mon Jun 22 2026 08:49:51 GMT-0500 (Central Daylight Time),103666.30000000075,2000,I,z,679,6,3,3461.10000000149,100205.19999999925,8075,NTS,A,1
9,2,prac,1,B,triangle.png,1,z,Mon Jun 22 2026 08:49:51 GMT-0500 (Central Daylight Time),106881.5,1400,I,z,1030,8,3,3209.10000000149,103672.39999999851,8075,NTS,A,2
6,3,prac,1,B,triangle.png,1,m,Mon Jun 22 2026 08:49:51 GMT-0500 (Central Daylight Time),109331.09999999776,1000,I,m,662,5,3,2443.5,106887.59999999776,8075,NTS,A,3
8,4,prac,1,B,triangle.png,1,m,Mon Jun 22 2026 08:49:51 GMT-0500 (Central Daylight Time),111880.19999999925,1200,I,m,557,7,3,2543.199999999255,109337.0,8075,NTS,A,4
3,5,prac,1,B,triangle.png,1,z,Mon Jun 22 2026 08:49:51 GMT-0500 (Central Daylight Time),115046.80000000075,1600,I,z,796,3,3,3160.60000000149,111886.19999999925,8075,NTS,A,5
9,6,prac,1,B,triangle.png,1,z,Mon Jun 22 2026 08:49:51 GMT-0500 (Central Daylight Time),118144.59999999776,1400,I,z,905,8,3,3090.7999999970198,115053.80000000075,8075,NTS,A,6
2,7,prac,1,B,triangle.png,1,m,Mon Jun 22 2026 08:49:51 GMT-0500 (Central Daylight Time),121560.39999999851,1700,I,m,931,2,3,3410.099999997765,118150.30000000075,8075,NTS,A,7
1,8,prac,1,B,triangle.png,1,z,Mon Jun 22 2026 08:49:51 GMT-0500 (Central Daylight Time),124959.09999999776,1900,I,z,714,1,3,3392.89999999851,121566.19999999925,8075,NTS,A,8
4,9,prac,1,B,triangle.png,1,m,Mon Jun 22 2026 08:49:51 GMT-0500 (Central Daylight Time),128108.39999999851,1500,I,m,853,4,3,3143.199999999255,124965.19999999925,8075,NTS,A,9
3,10,prac,1,B,triangle.png,1,z,Mon Jun 22 2026 08:49:51 GMT-0500 (Central Daylight Time),131473.8999999985,1600,I,z,972,3,3,3359.699999999255,128114.19999999925,8075,NTS,A,10
8,11,prac,1,B,triangle.png,1,m,Mon Jun 22 2026 08:49:51 GMT-0500 (Central Daylight Time),134790.0,1200,I,m,1317,7,3,3309.400000002235,131480.59999999776,8075,NTS,A,11
2,12,prac,1,B,triangle.png,1,m,Mon Jun 22 2026 08:49:51 GMT-0500 (Central Daylight Time),138057.0,1700,I,m,774,2,3,3262.0,134795.0,8075,NTS,A,12
9,1,test,1,A,circle.png,1,m,Mon Jun 22 2026 08:49:51 GMT-0500 (Central Daylight Time),154733.30000000075,1500,I,m,577,8,3,2094.300000000745,152639.0,8075,NTS,A,1
2,2,test,1,A,circle.png,1,z,Mon Jun 22 2026 08:49:51 GMT-0500 (Central Daylight Time),157265.80000000075,2000,I,z,506,2,3,2524.800000000745,154741.0,8075,NTS,A,2
3,3,test,1,A,circle.png,1,z,Mon Jun 22 2026 08:49:51 GMT-0500 (Central Daylight Time),158981.8999999985,1200,I,z,493,3,3,1712.0999999977648,157269.80000000075,8075,NTS,A,3
1,4,test,1,A,circle.png,1,z,Mon Jun 22 2026 08:49:51 GMT-0500 (Central Daylight Time),160648.0,1000,I,z,633,1,3,1661.6000000014901,158986.3999999985,8075,NTS,A,4
1,5,test,1,A,circle.png,1,z,Mon Jun 22 2026 08:49:51 GMT-0500 (Central Daylight Time),162114.09999999776,1000,I,z,444,1,3,1461.199999999255,160652.8999999985,8075,NTS,A,5
9,6,test,1,A,circle.png,1,m,Mon Jun 22 2026 08:49:51 GMT-0500 (Central Daylight Time),164130.09999999776,1500,I,m,497,8,3,2009.8999999985099,162120.19999999925,8075,NTS,A,6
2,7,test,1,A,circle.png,1,z,Mon Jun 22 2026 08:49:51 GMT-0500 (Central Daylight Time),166629.80000000075,2000,I,z,478,2,3,2495.10000000149,164134.69999999925,8075,NTS,A,7
4,8,test,1,A,circle.png,1,z,Mon Jun 22 2026 08:49:51 GMT-0500 (Central Daylight Time),168579.09999999776,1400,I,z,523,4,3,1945.0999999977648,166634.0,8075,NTS,A,8
3,9,test,1,A,circle.png,1,z,Mon Jun 22 2026 08:49:51 GMT-0500 (Central Daylight Time),170328.80000000075,1200,I,z,533,3,3,1745.6000000014901,168583.19999999925,8075,NTS,A,9
7,10,test,1,A,circle.png,1,m,Mon Jun 22 2026 08:49:51 GMT-0500 (Central Daylight Time),172494.3999999985,1700,I,m,435,6,3,2161.800000000745,170332.59999999776,8075,NTS,A,10
7,11,test,1,A,circle.png,1,m,Mon Jun 22 2026 08:49:51 GMT-0500 (Central Daylight Time),174643.69999999925,1700,I,m,421,6,3,2145.39999999851,172498.30000000075,8075,NTS,A,11
6,12,test,1,A,circle.png,1,m,Mon Jun 22 2026 08:49:51 GMT-0500 (Central Daylight Time),177326.59999999776,1900,I,m,753,5,3,2678.699999999255,174647.8999999985,8075,NTS,A,12
9,13,test,1,A,circle.png,1,m,Mon Jun 22 2026 08:49:51 GMT-0500 (Central Daylight Time),179342.59999999776,1500,I,m,494,8,3,2011.8999999985099,177330.69999999925,8075,NTS,A,13
3,14,test,1,A,circle.png,1,z,Mon Jun 22 2026 08:49:51 GMT-0500 (Central Daylight Time),181076.59999999776,1200,I,z,514,3,3,1730.0,179346.59999999776,8075,NTS,A,14
4,15,test,1,A,circle.png,1,z,Mon Jun 22 2026 08:49:51 GMT-0500 (Central Daylight Time),183024.69999999925,1400,I,z,517,4,3,1944.0,181080.69999999925,8075,NTS,A,15
6,16,test,1,A,circle.png,1,m,Mon Jun 22 2026 08:49:51 GMT-0500 (Central Daylight Time),185640.30000000075,1900,I,m,634,5,3,2611.2000000029802,183029.09999999776,8075,NTS,A,16
1,17,test,1,A,circle.png,1,z,Mon Jun 22 2026 08:49:51 GMT-0500 (Central Daylight Time),187339.59999999776,1000,I,z,670,1,3,1695.0,185644.59999999776,8075,NTS,A,17
2,18,test,1,A,circle.png,1,z,Mon Jun 22 2026 08:49:51 GMT-0500 (Central Daylight Time),189855.5,2000,I,z,484,2,3,2511.10000000149,187344.3999999985,8075,NTS,A,18
7,19,test,1,A,circle.png,1,m,Mon Jun 22 2026 08:49:51 GMT-0500 (Central Daylight Time),192221.80000000075,1700,I,m,645,6,3,2361.900000002235,189859.8999999985,8075,NTS,A,19
8,20,test,1,A,circle.png,1,m,Mon Jun 22 2026 08:49:51 GMT-0500 (Central Daylight Time),194304.19999999925,1600,I,m,457,7,3,2078.5,192225.69999999925,8075,NTS,A,20
6,21,test,1,A,circle.png,1,m,Mon Jun 22 2026 08:49:51 GMT-0500 (Central Daylight Time),196753.3999999985,1900,I,m,531,5,3,2444.39999999851,194309.0,8075,NTS,A,21
2,22,test,1,A,circle.png,1,z,Mon Jun 22 2026 08:49:51 GMT-0500 (Central Daylight Time),199252.8999999985,2000,I,z,479,2,3,2495.39999999851,196757.5,8075,NTS,A,22
3,23,test,1,A,circle.png,1,z,Mon Jun 22 2026 08:49:51 GMT-0500 (Central Daylight Time),201035.80000000075,1200,I,z,556,3,3,1778.800000000745,199257.0,8075,NTS,A,23
8,24,test,1,A,circle.png,1,m,Mon Jun 22 2026 08:49:51 GMT-0500 (Central Daylight Time),203151.3999999985,1600,I,m,484,7,3,2111.5,201039.8999999985,8075,NTS,A,24
2,1,test,1,B,triangle.png,1,m,Mon Jun 22 2026 08:49:51 GMT-0500 (Central Daylight Time),213715.09999999776,1200,I,m,790,10,3,2013.0999999977648,211702.0,8075,NTS,A,1
4,2,test,1,B,triangle.png,1,m,Mon Jun 22 2026 08:49:51 GMT-0500 (Central Daylight Time),215765.30000000075,1500,I,m,521,4,3,2045.9000000022352,213719.3999999985,8075,NTS,A,2
1,3,test,1,B,triangle.png,1,z,Mon Jun 22 2026 08:49:51 GMT-0500 (Central Daylight Time),218163.3999999985,1900,I,z,471,1,3,2393.599999997765,215769.80000000075,8075,NTS,A,3
4,4,test,1,B,triangle.png,1,m,Mon Jun 22 2026 08:49:51 GMT-0500 (Central Daylight Time),219696.09999999776,1000,I,m,508,12,3,1528.199999999255,218167.8999999985,8075,NTS,A,4
4,5,test,1,B,triangle.png,1,m,Mon Jun 22 2026 08:49:51 GMT-0500 (Central Daylight Time),221195.59999999776,1000,I,m,471,12,3,1494.3999999985099,219701.19999999925,8075,NTS,A,5
1,6,test,1,B,triangle.png,1,z,Mon Jun 22 2026 08:49:51 GMT-0500 (Central Daylight Time),223128.30000000075,1400,I,z,499,9,3,1928.5,221199.80000000075,8075,NTS,A,6
7,7,test,1,B,triangle.png,1,z,Mon Jun 22 2026 08:49:51 GMT-0500 (Central Daylight Time),225727.59999999776,2000,I,z,568,6,3,2594.099999997765,223133.5,8075,NTS,A,7
6,8,test,1,B,triangle.png,1,m,Mon Jun 22 2026 08:49:51 GMT-0500 (Central Daylight Time),227793.5,1500,I,m,540,13,3,2060.60000000149,225732.8999999985,8075,NTS,A,8
8,9,test,1,B,triangle.png,1,m,Mon Jun 22 2026 08:49:51 GMT-0500 (Central Daylight Time),229793.59999999776,1200,I,m,784,7,3,1995.8999999985099,227797.69999999925,8075,NTS,A,9
3,10,test,1,B,triangle.png,1,z,Mon Jun 22 2026 08:49:51 GMT-0500 (Central Daylight Time),232304.30000000075,1600,I,z,894,3,3,2506.60000000149,229797.69999999925,8075,NTS,A,10
9,11,test,1,B,triangle.png,1,z,Mon Jun 22 2026 08:49:51 GMT-0500 (Central Daylight Time),234691.3999999985,1400,I,z,962,8,3,2381.099999997765,232310.30000000075,8075,NTS,A,11
4,12,test,1,B,triangle.png,1,m,Mon Jun 22 2026 08:49:51 GMT-0500 (Central Daylight Time),237223.8999999985,1500,I,m,1000,4,3,2528.199999999255,234695.69999999925,8075,NTS,A,12
9,13,test,1,B,triangle.png,1,z,Mon Jun 22 2026 08:49:51 GMT-0500 (Central Daylight Time),239856.59999999776,1900,I,z,716,16,3,2628.5,237228.09999999776,8075,NTS,A,13
1,14,test,1,B,triangle.png,1,z,Mon Jun 22 2026 08:49:51 GMT-0500 (Central Daylight Time),242872.5,1900,I,z,1092,1,3,3010.400000002235,239862.09999999776,8075,NTS,A,14
8,15,test,1,B,triangle.png,1,m,Mon Jun 22 2026 08:49:51 GMT-0500 (Central Daylight Time),245288.09999999776,1200,I,m,1183,7,3,2411.5,242876.59999999776,8075,NTS,A,15
6,16,test,1,B,triangle.png,1,m,Mon Jun 22 2026 08:49:51 GMT-0500 (Central Daylight Time),247004.30000000075,1000,I,m,687,5,3,1711.5,245292.80000000075,8075,NTS,A,16
2,17,test,1,B,triangle.png,1,m,Mon Jun 22 2026 08:49:51 GMT-0500 (Central Daylight Time),249286.8999999985,1700,I,m,559,2,3,2278.599999997765,247008.30000000075,8075,NTS,A,17
1,18,test,1,B,triangle.png,1,z,Mon Jun 22 2026 08:49:51 GMT-0500 (Central Daylight Time),251352.8999999985,1400,I,z,649,9,3,2062.0,249290.8999999985,8075,NTS,A,18
7,19,test,1,B,triangle.png,1,z,Mon Jun 22 2026 08:49:51 GMT-0500 (Central Daylight Time),253785.69999999925,1600,I,z,816,14,3,2428.199999999255,251357.5,8075,NTS,A,19
7,20,test,1,B,triangle.png,1,z,Mon Jun 22 2026 08:49:51 GMT-0500 (Central Daylight Time),256651.19999999925,2000,I,z,801,6,3,2861.60000000149,253789.59999999776,8075,NTS,A,20
7,21,test,1,B,triangle.png,1,z,Mon Jun 22 2026 08:49:51 GMT-0500 (Central Daylight Time),258784.09999999776,1600,I,z,500,14,3,2128.699999999255,256655.3999999985,8075,NTS,A,21
3,22,test,1,B,triangle.png,1,z,Mon Jun 22 2026 08:49:51 GMT-0500 (Central Daylight Time),261333.09999999776,2000,I,z,519,11,3,2544.199999999255,258788.8999999985,8075,NTS,A,22
8,23,test,1,B,triangle.png,1,m,Mon Jun 22 2026 08:49:51 GMT-0500 (Central Daylight Time),263699.0,1700,I,m,646,15,3,2361.400000002235,261337.59999999776,8075,NTS,A,23
6,24,test,1,B,triangle.png,1,m,Mon Jun 22 2026 08:49:51 GMT-0500 (Central Daylight Time),265848.69999999925,1500,I,m,617,13,3,2145.300000000745,263703.3999999985,8075,NTS,A,24
2,0,prac,1,C,triangle.png,0,m,Mon Jun 22 2026 08:49:51 GMT-0500 (Central Daylight Time),292473.19999999925,1600,I,None,1516,2,3,3893.10000000149,288580.09999999776,8075,NTS,A,1
1,1,prac,1,C,circle.png,1,z,Mon Jun 22 2026 08:49:51 GMT-0500 (Central Daylight Time),296038.8999999985,1700,I,z,1067,1,3,3559.39999999851,292479.5,8075,NTS,A,2
9,1,prac,1,C,circle.png,0,m,Mon Jun 22 2026 08:49:51 GMT-0500 (Central Daylight Time),300238.0,1900,I,None,1516,8,3,4193.699999999255,296044.30000000075,8075,NTS,A,3
8,2,prac,1,C,triangle.png,1,m,Mon Jun 22 2026 08:49:51 GMT-0500 (Central Daylight Time),303453.30000000075,1400,I,m,1026,7,3,3207.7000000029802,300245.59999999776,8075,NTS,A,4
3,3,prac,1,C,triangle.png,1,z,Mon Jun 22 2026 08:49:51 GMT-0500 (Central Daylight Time),306635.59999999776,1500,I,z,886,3,3,3177.0,303458.59999999776,8075,NTS,A,5
4,4,prac,1,C,circle.png,1,z,Mon Jun 22 2026 08:49:51 GMT-0500 (Central Daylight Time),309434.69999999925,1000,I,z,1004,4,3,2792.89999999851,306641.80000000075,8075,NTS,A,6
8,5,prac,1,C,triangle.png,1,m,Mon Jun 22 2026 08:49:51 GMT-0500 (Central Daylight Time),312267.19999999925,1400,I,m,645,7,3,2826.10000000149,309441.09999999776,8075,NTS,A,7
9,6,prac,1,C,circle.png,1,m,Mon Jun 22 2026 08:49:51 GMT-0500 (Central Daylight Time),315649.3999999985,1900,I,m,697,8,3,3376.300000000745,312273.09999999776,8075,NTS,A,8
2,7,prac,1,C,triangle.png,1,m,Mon Jun 22 2026 08:49:51 GMT-0500 (Central Daylight Time),318732.69999999925,1600,I,m,695,2,3,3076.800000000745,315655.8999999985,8075,NTS,A,9
7,8,prac,1,C,triangle.png,1,z,Mon Jun 22 2026 08:49:51 GMT-0500 (Central Daylight Time),322064.5,1200,I,z,1346,6,3,3325.900000002235,318738.59999999776,8075,NTS,A,10
7,9,prac,1,C,triangle.png,1,z,Mon Jun 22 2026 08:49:51 GMT-0500 (Central Daylight Time),324680.0,1200,I,z,624,6,3,2610.60000000149,322069.3999999985,8075,NTS,A,11
6,10,prac,1,C,circle.png,1,m,Mon Jun 22 2026 08:49:51 GMT-0500 (Central Daylight Time),328162.09999999776,2000,I,m,689,5,3,3476.699999999255,324685.3999999985,8075,NTS,A,12
7,1,test,1,C,triangle.png,1,z,Mon Jun 22 2026 08:49:51 GMT-0500 (Central Daylight Time),340774.8999999985,1700,I,z,1009,22,3,2729.199999999255,338045.69999999925,8075,NTS,A,1
4,2,test,1,C,triangle.png,1,m,Mon Jun 22 2026 08:49:51 GMT-0500 (Central Daylight Time),343624.0,1500,I,m,1317,12,3,2844.300000000745,340779.69999999925,8075,NTS,A,2
6,3,test,1,C,circle.png,1,m,Mon Jun 22 2026 08:49:51 GMT-0500 (Central Daylight Time),346206.3999999985,1900,I,m,660,5,3,2577.300000000745,343629.09999999776,8075,NTS,A,3
6,4,test,1,C,triangle.png,1,m,Mon Jun 22 2026 08:49:51 GMT-0500 (Central Daylight Time),348089.19999999925,1000,I,m,865,13,3,1877.6000000014901,346211.59999999776,8075,NTS,A,4
4,5,test,1,C,circle.png,1,z,Mon Jun 22 2026 08:49:51 GMT-0500 (Central Daylight Time),350290.69999999925,1400,I,z,782,4,3,2197.39999999851,348093.30000000075,8075,NTS,A,5
9,6,test,1,C,circle.png,1,m,Mon Jun 22 2026 08:49:51 GMT-0500 (Central Daylight Time),352904.59999999776,1500,I,m,1099,8,3,2607.5,350297.09999999776,8075,NTS,A,6
3,7,test,1,C,triangle.png,1,z,Mon Jun 22 2026 08:49:51 GMT-0500 (Central Daylight Time),355203.80000000075,1200,I,z,1071,3,3,2292.800000000745,352911.0,8075,NTS,A,7
1,8,test,1,C,triangle.png,1,z,Mon Jun 22 2026 08:49:51 GMT-0500 (Central Daylight Time),357786.19999999925,1900,I,z,657,17,3,2576.5,355209.69999999925,8075,NTS,A,8
2,9,test,1,C,triangle.png,1,m,Mon Jun 22 2026 08:49:51 GMT-0500 (Central Daylight Time),360668.5,2000,I,m,862,2,3,2878.199999999255,357790.30000000075,8075,NTS,A,9
9,10,test,1,C,triangle.png,1,z,Mon Jun 22 2026 08:49:51 GMT-0500 (Central Daylight Time),362884.5,1400,I,z,796,16,3,2211.699999999255,360672.80000000075,8075,NTS,A,10
8,11,test,1,C,triangle.png,1,m,Mon Jun 22 2026 08:49:51 GMT-0500 (Central Daylight Time),365466.8999999985,1600,I,m,963,7,3,2578.099999997765,362888.80000000075,8075,NTS,A,11
4,12,test,1,C,triangle.png,1,m,Mon Jun 22 2026 08:49:51 GMT-0500 (Central Daylight Time),367716.3999999985,1500,I,m,720,20,3,2245.39999999851,365471.0,8075,NTS,A,12
8,13,test,1,C,triangle.png,1,m,Mon Jun 22 2026 08:49:51 GMT-0500 (Central Daylight Time),369916.09999999776,1600,I,m,572,23,3,2194.89999999851,367721.19999999925,8075,NTS,A,13
2,14,test,1,C,circle.png,1,z,Mon Jun 22 2026 08:49:51 GMT-0500 (Central Daylight Time),372481.5,1700,I,z,839,10,3,2561.5,369920.0,8075,NTS,A,14
9,15,test,1,C,circle.png,1,m,Mon Jun 22 2026 08:49:51 GMT-0500 (Central Daylight Time),374780.8999999985,1500,I,m,770,24,3,2293.5,372487.3999999985,8075,NTS,A,15
8,16,test,1,C,circle.png,1,m,Mon Jun 22 2026 08:49:51 GMT-0500 (Central Daylight Time),376713.5,1200,I,m,715,15,3,1928.1000000014901,374785.3999999985,8075,NTS,A,16
2,17,test,1,C,circle.png,1,z,Mon Jun 22 2026 08:49:51 GMT-0500 (Central Daylight Time),379147.5,1700,I,z,707,18,3,2429.300000000745,376718.19999999925,8075,NTS,A,17
7,17,test,1,C,triangle.png,0,z,Mon Jun 22 2026 08:49:51 GMT-0500 (Central Daylight Time),382378.8999999985,1700,I,None,1516,6,3,3227.300000000745,379151.59999999776,8075,NTS,A,18
3,18,test,1,C,circle.png,1,z,Mon Jun 22 2026 08:49:51 GMT-0500 (Central Daylight Time),384844.30000000075,1600,I,z,837,11,3,2461.300000000745,382383.0,8075,NTS,A,19
6,19,test,1,C,circle.png,1,m,Mon Jun 22 2026 08:49:51 GMT-0500 (Central Daylight Time),387493.3999999985,1900,I,m,719,21,3,2644.699999999255,384848.69999999925,8075,NTS,A,20
7,20,test,1,C,circle.png,1,m,Mon Jun 22 2026 08:49:51 GMT-0500 (Central Daylight Time),390042.80000000075,2000,I,m,530,14,3,2544.60000000149,387498.19999999925,8075,NTS,A,21
1,21,test,1,C,triangle.png,1,z,Mon Jun 22 2026 08:49:51 GMT-0500 (Central Daylight Time),392641.80000000075,1900,I,z,680,9,3,2594.900000002235,390046.8999999985,8075,NTS,A,22
1,21,test,1,C,circle.png,0,z,Mon Jun 22 2026 08:49:51 GMT-0500 (Central Daylight Time),395174.80000000075,1000,I,None,1516,1,3,2528.7000000029802,392646.09999999776,8075,NTS,A,23
3,22,test,1,C,circle.png,1,z,Mon Jun 22 2026 08:49:51 GMT-0500 (Central Daylight Time),397457.09999999776,1600,I,z,657,19,3,2278.099999997765,395179.0,8075,NTS,A,24
4,0,test,2,C,triangle.png,0,m,Mon Jun 22 2026 08:49:51 GMT-0500 (Central Daylight Time),403038.80000000075,1500,I,None,1516,20,3,3028.800000000745,400010.0,8075,NTS,A,1
1,1,test,2,C,circle.png,1,z,Mon Jun 22 2026 08:49:51 GMT-0500 (Central Daylight Time),405004.59999999776,1000,I,z,937,1,3,1959.699999999255,403044.8999999985,8075,NTS,A,2
7,2,test,2,C,circle.png,1,m,Mon Jun 22 2026 08:49:51 GMT-0500 (Central Daylight Time),407970.59999999776,2000,I,m,948,14,3,2960.7999999970198,405009.80000000075,8075,NTS,A,3
1,3,test,2,C,triangle.png,1,z,Mon Jun 22 2026 08:49:51 GMT-0500 (Central Daylight Time),410619.5,1900,I,z,729,9,3,2644.400000002235,407975.09999999776,8075,NTS,A,4
8,4,test,2,C,triangle.png,1,m,Mon Jun 22 2026 08:49:51 GMT-0500 (Central Daylight Time),412902.09999999776,1600,I,m,652,7,3,2278.0,410624.09999999776,8075,NTS,A,5
7,5,test,2,C,circle.png,1,m,Mon Jun 22 2026 08:49:51 GMT-0500 (Central Daylight Time),415584.59999999776,2000,I,m,656,22,3,2678.699999999255,412905.8999999985,8075,NTS,A,6
7,6,test,2,C,triangle.png,1,z,Mon Jun 22 2026 08:49:51 GMT-0500 (Central Daylight Time),418351.0,1700,I,z,1036,6,3,2761.699999999255,415589.30000000075,8075,NTS,A,7
6,7,test,2,C,triangle.png,1,m,Mon Jun 22 2026 08:49:51 GMT-0500 (Central Daylight Time),420049.80000000075,1000,I,m,681,21,3,1694.6000000014901,418355.19999999925,8075,NTS,A,8
9,8,test,2,C,triangle.png,1,z,Mon Jun 22 2026 08:49:51 GMT-0500 (Central Daylight Time),422199.69999999925,1400,I,z,726,24,3,2146.0,420053.69999999925,8075,NTS,A,9
1,9,test,2,C,triangle.png,1,z,Mon Jun 22 2026 08:49:51 GMT-0500 (Central Daylight Time),424631.69999999925,1900,I,z,500,17,3,2428.199999999255,422203.5,8075,NTS,A,10
8,10,test,2,C,circle.png,1,m,Mon Jun 22 2026 08:49:51 GMT-0500 (Central Daylight Time),426448.0,1200,I,m,584,15,3,1810.5,424637.5,8075,NTS,A,11
3,11,test,2,C,triangle.png,1,z,Mon Jun 22 2026 08:49:51 GMT-0500 (Central Daylight Time),428364.09999999776,1200,I,z,688,3,3,1911.3999999985099,426452.69999999925,8075,NTS,A,12
6,12,test,2,C,triangle.png,1,m,Mon Jun 22 2026 08:49:51 GMT-0500 (Central Daylight Time),430013.3999999985,1000,I,m,627,13,3,1643.199999999255,428370.19999999925,8075,NTS,A,13
6,13,test,2,C,circle.png,1,m,Mon Jun 22 2026 08:49:51 GMT-0500 (Central Daylight Time),432629.30000000075,1900,I,m,686,5,3,2611.2000000029802,430018.09999999776,8075,NTS,A,14
3,14,test,2,C,circle.png,1,z,Mon Jun 22 2026 08:49:51 GMT-0500 (Central Daylight Time),434945.59999999776,1600,I,z,699,19,3,2311.5,432634.09999999776,8075,NTS,A,15
2,15,test,2,C,circle.png,1,z,Mon Jun 22 2026 08:49:51 GMT-0500 (Central Daylight Time),437644.5,1700,I,z,978,10,3,2695.199999999255,434949.30000000075,8075,NTS,A,16
4,16,test,2,C,triangle.png,1,m,Mon Jun 22 2026 08:49:51 GMT-0500 (Central Daylight Time),440177.30000000075,1500,I,m,999,12,3,2528.300000000745,437649.0,8075,NTS,A,17
9,17,test,2,C,triangle.png,1,z,Mon Jun 22 2026 08:49:51 GMT-0500 (Central Daylight Time),442293.0,1400,I,z,688,16,3,2111.5,440181.5,8075,NTS,A,18
3,18,test,2,C,circle.png,1,z,Mon Jun 22 2026 08:49:51 GMT-0500 (Central Daylight Time),444808.69999999925,1600,I,z,898,11,3,2511.60000000149,442297.09999999776,8075,NTS,A,19
2,19,test,2,C,triangle.png,1,m,Mon Jun 22 2026 08:49:51 GMT-0500 (Central Daylight Time),447774.69999999925,2000,I,m,935,2,3,2961.0,444813.69999999925,8075,NTS,A,20
8,20,test,2,C,circle.png,1,m,Mon Jun 22 2026 08:49:51 GMT-0500 (Central Daylight Time),449707.19999999925,1200,I,m,712,23,3,1928.1000000014901,447779.09999999776,8075,NTS,A,21
2,21,test,2,C,circle.png,1,z,Mon Jun 22 2026 08:49:51 GMT-0500 (Central Daylight Time),452690.09999999776,1700,I,z,1257,18,3,2978.699999999255,449711.3999999985,8075,NTS,A,22
9,22,test,2,C,circle.png,1,m,Mon Jun 22 2026 08:49:51 GMT-0500 (Central Daylight Time),454756.09999999776,1500,I,m,539,8,3,2061.7999999970198,452694.30000000075,8075,NTS,A,23
4,23,test,2,C,circle.png,1,z,Mon Jun 22 2026 08:49:51 GMT-0500 (Central Daylight Time),457138.19999999925,1400,I,z,964,4,3,2378.10000000149,454760.09999999776,8075,NTS,A,24
7,1,test,3,C,circle.png,1,m,Mon Jun 22 2026 08:49:51 GMT-0500 (Central Daylight Time),462136.69999999925,2000,I,m,1082,14,3,3095.39999999851,459041.30000000075,8075,NTS,A,1
3,2,test,3,C,circle.png,1,z,Mon Jun 22 2026 08:49:51 GMT-0500 (Central Daylight Time),464385.8999999985,1600,I,z,630,11,3,2244.5,462141.3999999985,8075,NTS,A,2
3,3,test,3,C,triangle.png,1,z,Mon Jun 22 2026 08:49:51 GMT-0500 (Central Daylight Time),466901.80000000075,1200,I,z,1293,3,3,2510.900000002235,464390.8999999985,8075,NTS,A,3
2,4,test,3,C,triangle.png,1,m,Mon Jun 22 2026 08:49:51 GMT-0500 (Central Daylight Time),469501.09999999776,2000,I,m,577,2,3,2595.5,466905.59999999776,8075,NTS,A,4
1,5,test,3,C,circle.png,1,z,Mon Jun 22 2026 08:49:51 GMT-0500 (Central Daylight Time),471201.0,1000,I,z,683,17,3,1692.1000000014901,469508.8999999985,8075,NTS,A,5
4,5,test,3,C,circle.png,0,z,Mon Jun 22 2026 08:49:51 GMT-0500 (Central Daylight Time),474133.09999999776,1400,I,None,1516,4,3,2926.39999999851,471206.69999999925,8075,NTS,A,6
6,6,test,3,C,circle.png,1,m,Mon Jun 22 2026 08:49:51 GMT-0500 (Central Daylight Time),476865.30000000075,1900,I,m,815,21,3,2727.2000000029802,474138.09999999776,8075,NTS,A,7
9,7,test,3,C,triangle.png,1,z,Mon Jun 22 2026 08:49:51 GMT-0500 (Central Daylight Time),479298.0,1400,I,z,1006,16,3,2427.400000002235,476870.59999999776,8075,NTS,A,8
4,8,test,3,C,triangle.png,1,m,Mon Jun 22 2026 08:49:51 GMT-0500 (Central Daylight Time),481414.19999999925,1500,I,m,587,12,3,2111.800000000745,479302.3999999985,8075,NTS,A,9
1,9,test,3,C,triangle.png,1,z,Mon Jun 22 2026 08:49:51 GMT-0500 (Central Daylight Time),483829.8999999985,1900,I,z,485,9,3,2411.699999999255,481418.19999999925,8075,NTS,A,10
9,10,test,3,C,circle.png,1,m,Mon Jun 22 2026 08:49:51 GMT-0500 (Central Daylight Time),486045.8999999985,1500,I,m,685,8,3,2210.099999997765,483835.80000000075,8075,NTS,A,11
8,11,test,3,C,circle.png,1,m,Mon Jun 22 2026 08:49:51 GMT-0500 (Central Daylight Time),487978.59999999776,1200,I,m,705,15,3,1928.0,486050.59999999776,8075,NTS,A,12
7,12,test,3,C,triangle.png,1,z,Mon Jun 22 2026 08:49:51 GMT-0500 (Central Daylight Time),490827.80000000075,1700,I,z,1129,22,3,2844.5,487983.30000000075,8075,NTS,A,13
1,13,test,3,C,circle.png,1,z,Mon Jun 22 2026 08:49:51 GMT-0500 (Central Daylight Time),492927.0,1000,I,z,1068,1,3,2093.800000000745,490833.19999999925,8075,NTS,A,14
6,13,test,3,C,triangle.png,0,m,Mon Jun 22 2026 08:49:51 GMT-0500 (Central Daylight Time),495459.5,1000,I,None,1516,13,3,2528.199999999255,492931.30000000075,8075,NTS,A,15
2,14,test,3,C,triangle.png,1,m,Mon Jun 22 2026 08:49:51 GMT-0500 (Central Daylight Time),498058.80000000075,2000,I,m,572,18,3,2594.7000000029802,495464.09999999776,8075,NTS,A,16
8,15,test,3,C,triangle.png,1,m,Mon Jun 22 2026 08:49:51 GMT-0500 (Central Daylight Time),500208.0,1600,I,m,524,7,3,2144.5,498063.5,8075,NTS,A,17
3,16,test,3,C,triangle.png,1,z,Mon Jun 22 2026 08:49:51 GMT-0500 (Central Daylight Time),502207.5,1200,I,z,767,19,3,1995.199999999255,500212.30000000075,8075,NTS,A,18
8,17,test,3,C,triangle.png,1,m,Mon Jun 22 2026 08:49:51 GMT-0500 (Central Daylight Time),504389.8999999985,1600,I,m,560,23,3,2177.5,502212.3999999985,8075,NTS,A,19
4,18,test,3,C,circle.png,1,z,Mon Jun 22 2026 08:49:51 GMT-0500 (Central Daylight Time),506523.09999999776,1400,I,z,706,20,3,2128.7999999970198,504394.30000000075,8075,NTS,A,20
7,19,test,3,C,triangle.png,1,z,Mon Jun 22 2026 08:49:51 GMT-0500 (Central Daylight Time),509388.5,1700,I,z,1137,6,3,2861.5,506527.0,8075,NTS,A,21
2,20,test,3,C,circle.png,1,z,Mon Jun 22 2026 08:49:51 GMT-0500 (Central Daylight Time),512054.69999999925,1700,I,z,944,10,3,2660.199999999255,509394.5,8075,NTS,A,22
6,21,test,3,C,circle.png,1,m,Mon Jun 22 2026 08:49:51 GMT-0500 (Central Daylight Time),514520.30000000075,1900,I,m,533,5,3,2461.300000000745,512059.0,8075,NTS,A,23
9,22,test,3,C,circle.png,1,m,Mon Jun 22 2026 08:49:51 GMT-0500 (Central Daylight Time),516919.59999999776,1500,I,m,868,24,3,2393.89999999851,514525.69999999925,8075,NTS,A,24
3,1,test,4,C,triangle.png,1,z,Mon Jun 22 2026 08:49:51 GMT-0500 (Central Daylight Time),521151.69999999925,1200,I,z,917,19,3,2146.10000000149,519005.59999999776,8075,NTS,A,1
7,2,test,4,C,triangle.png,1,z,Mon Jun 22 2026 08:49:51 GMT-0500 (Central Daylight Time),523500.80000000075,1700,I,z,628,6,3,2344.5,521156.30000000075,8075,NTS,A,2
8,3,test,4,C,circle.png,1,m,Mon Jun 22 2026 08:49:51 GMT-0500 (Central Daylight Time),525433.3999999985,1200,I,m,714,15,3,1927.800000000745,523505.59999999776,8075,NTS,A,3
3,4,test,4,C,triangle.png,1,z,Mon Jun 22 2026 08:49:51 GMT-0500 (Central Daylight Time),527232.8000000007,1200,I,z,582,3,3,1794.0,525438.8000000007,8075,NTS,A,4
2,5,test,4,C,circle.png,1,z,Mon Jun 22 2026 08:49:51 GMT-0500 (Central Daylight Time),529698.8000000007,1700,I,z,747,10,3,2461.60000000149,527237.1999999993,8075,NTS,A,5
8,6,test,4,C,triangle.png,1,m,Mon Jun 22 2026 08:49:51 GMT-0500 (Central Daylight Time),532048.1999999993,1600,I,m,726,7,3,2345.10000000149,529703.0999999978,8075,NTS,A,6
1,7,test,4,C,circle.png,1,z,Mon Jun 22 2026 08:49:51 GMT-0500 (Central Daylight Time),533614.5,1000,I,z,536,1,3,1561.6000000014901,532052.8999999985,8075,NTS,A,7
9,8,test,4,C,triangle.png,1,z,Mon Jun 22 2026 08:49:51 GMT-0500 (Central Daylight Time),536180.1999999993,1400,I,z,1145,16,3,2561.800000000745,533618.3999999985,8075,NTS,A,8
6,9,test,4,C,circle.png,1,m,Mon Jun 22 2026 08:49:51 GMT-0500 (Central Daylight Time),538774.8000000007,1900,I,m,576,5,3,2590.300000000745,536184.5,8075,NTS,A,9
2,9,test,4,C,triangle.png,0,m,Mon Jun 22 2026 08:49:51 GMT-0500 (Central Daylight Time),541795.0999999978,2000,I,z,996,18,3,3015.0,538780.0999999978,8075,NTS,A,10
3,10,test,4,C,circle.png,1,z,Mon Jun 22 2026 08:49:51 GMT-0500 (Central Daylight Time),544177.3999999985,1600,I,z,756,11,3,2377.699999999255,541799.6999999993,8075,NTS,A,11
8,11,test,4,C,triangle.png,1,m,Mon Jun 22 2026 08:49:51 GMT-0500 (Central Daylight Time),546428.1999999993,1600,I,m,623,23,3,2246.89999999851,544181.3000000007,8075,NTS,A,12
4,12,test,4,C,circle.png,1,z,Mon Jun 22 2026 08:49:51 GMT-0500 (Central Daylight Time),548992.6999999993,1400,I,z,1133,4,3,2559.800000000745,546432.8999999985,8075,NTS,A,13
4,13,test,4,C,triangle.png,1,m,Mon Jun 22 2026 08:49:51 GMT-0500 (Central Daylight Time),551208.6999999993,1500,I,m,699,12,3,2211.300000000745,548997.3999999985,8075,NTS,A,14
1,14,test,4,C,triangle.png,1,z,Mon Jun 22 2026 08:49:51 GMT-0500 (Central Daylight Time),554108.0,1900,I,z,971,9,3,2894.10000000149,551213.8999999985,8075,NTS,A,15
6,15,test,4,C,triangle.png,1,m,Mon Jun 22 2026 08:49:51 GMT-0500 (Central Daylight Time),555874.0,1000,I,m,739,13,3,1761.1000000014901,554112.8999999985,8075,NTS,A,16
7,16,test,4,C,circle.png,1,m,Mon Jun 22 2026 08:49:51 GMT-0500 (Central Daylight Time),558590.0,2000,I,m,687,14,3,2711.400000002235,555878.5999999978,8075,NTS,A,17
6,17,test,4,C,circle.png,1,m,Mon Jun 22 2026 08:49:51 GMT-0500 (Central Daylight Time),561072.3999999985,1900,I,m,557,21,3,2478.199999999255,558594.1999999993,8075,NTS,A,18
7,18,test,4,C,triangle.png,1,z,Mon Jun 22 2026 08:49:51 GMT-0500 (Central Daylight Time),563704.8999999985,1700,I,z,907,22,3,2627.800000000745,561077.0999999978,8075,NTS,A,19
1,19,test,4,C,circle.png,1,z,Mon Jun 22 2026 08:49:51 GMT-0500 (Central Daylight Time),565454.3000000007,1000,I,z,718,17,3,1744.4000000022352,563709.8999999985,8075,NTS,A,20
9,20,test,4,C,circle.png,1,m,Mon Jun 22 2026 08:49:51 GMT-0500 (Central Daylight Time),567904.5999999978,1500,I,m,917,24,3,2445.099999997765,565459.5,8075,NTS,A,21
9,21,test,4,C,circle.png,1,m,Mon Jun 22 2026 08:49:51 GMT-0500 (Central Daylight Time),570002.6999999993,1500,I,m,572,8,3,2093.39999999851,567909.3000000007,8075,NTS,A,22
2,22,test,4,C,triangle.png,1,m,Mon Jun 22 2026 08:49:51 GMT-0500 (Central Daylight Time),573235.1999999993,2000,I,m,1205,2,3,3226.0,570009.1999999993,8075,NTS,A,23
4,23,test,4,C,circle.png,1,z,Mon Jun 22 2026 08:49:51 GMT-0500 (Central Daylight Time),575784.3999999985,1400,I,z,1124,20,3,2544.300000000745,573240.0999999978,8075,NTS,A,24
