Q,Q1,Q2,Q3,Q4,acc_sum,block,block_c,correct,correct_response,datetime,endtime,project,response,response_time,row_sel,session_number,squiggle1,squiggle1x,squiggle1y,squiggle2,squiggle2x,squiggle2y,squiggle3,squiggle3x,squiggle3y,squiggle4,squiggle4x,squiggle4y,start_end,starttime,subject_id,target_congruent,task,task_vers,testsquiggle,testsquigglex,testsquiggley,time_practice_delay,time_practice_fixation,time_practice_stimuli,time_practice_study,time_test_delay,time_test_fixation,time_test_stimuli,time_test_study,trial
1,1,0,0,0,1,prac,1,1,z,Thu Feb 05 2026 12:57:45 GMT-0500 (Eastern Standard Time),145679.20000000298,I,z,1332,1,2,66.bmp,-120,-120,67.bmp,120,-120,68.bmp,-120,120,69.bmp,120,120,10162.20000000298,135517.0,9033,yes,SM,C,66.bmp,-120,-120,140019,133991,142037,136003,,,,,1
3,0,0,1,0,1,prac,1,0,m,Thu Feb 05 2026 12:57:45 GMT-0500 (Eastern Standard Time),155894.29999999702,I,z,1405,2,2,70.bmp,-120,-120,71.bmp,120,-120,72.bmp,-120,120,73.bmp,120,120,10208.5,145685.79999999702,9033,no,SM,C,73.bmp,-120,120,150170,144160,152186,146168,,,,,2
4,0,0,0,1,1,prac,1,0,m,Thu Feb 05 2026 12:57:45 GMT-0500 (Eastern Standard Time),166728.39999999106,I,None,2016,3,2,74.bmp,-120,-120,75.bmp,120,-120,76.bmp,-120,120,77.bmp,120,120,10829.79999999702,155898.59999999404,9033,no,SM,C,74.bmp,120,120,160402,154373,162419,156386,,,,,3
2,0,1,0,0,1,prac,1,0,z,Thu Feb 05 2026 12:57:45 GMT-0500 (Eastern Standard Time),176495.39999999106,I,m,948,4,2,78.bmp,-120,-120,79.bmp,120,-120,80.bmp,-120,120,81.bmp,120,120,9759.29999999702,166736.09999999404,9033,yes,SM,C,79.bmp,120,-120,171236,165210,173253,167220,,,,,4
3,0,0,1,0,2,prac,1,1,z,Thu Feb 05 2026 12:57:45 GMT-0500 (Eastern Standard Time),186045.0,I,z,725,5,2,82.bmp,-120,-120,83.bmp,120,-120,84.bmp,-120,120,85.bmp,120,120,9544.20000000298,176500.79999999702,9033,yes,SM,C,84.bmp,-120,120,181002,174975,183018,176986,,,,,5
1,1,0,0,0,2,prac,1,0,m,Thu Feb 05 2026 12:57:45 GMT-0500 (Eastern Standard Time),195761.70000000298,I,z,886,6,2,86.bmp,-120,-120,87.bmp,120,-120,88.bmp,-120,120,89.bmp,120,120,9712.20000000298,186049.5,9033,no,SM,C,89.bmp,-120,-120,190553,184524,192570,186536,,,,,6
2,0,1,0,0,3,prac,1,1,m,Thu Feb 05 2026 12:57:45 GMT-0500 (Eastern Standard Time),206461.59999999404,I,m,1873,7,2,90.bmp,-120,-120,91.bmp,120,-120,92.bmp,-120,120,93.bmp,120,120,10692.79999999702,195768.79999999702,9033,no,SM,C,90.bmp,120,-120,200270,194243,202287,196253,,,,,7
4,0,0,0,1,4,prac,1,1,z,Thu Feb 05 2026 12:57:45 GMT-0500 (Eastern Standard Time),216894.70000000298,I,z,1605,8,2,94.bmp,-120,-120,95.bmp,120,-120,96.bmp,-120,120,97.bmp,120,120,10427.40000000596,206467.29999999702,9033,yes,SM,C,97.bmp,120,120,210970,204942,212986,206953,,,,,8
1,1,0,0,0,1,prac,2,1,z,Thu Feb 05 2026 12:57:45 GMT-0500 (Eastern Standard Time),231928.70000000298,I,z,871,1,2,66.bmp,-120,-120,67.bmp,120,-120,68.bmp,-120,120,69.bmp,120,120,9695.0,222233.70000000298,9033,yes,SM,C,66.bmp,-120,-120,226736,220708,228752,222719,,,,,1
3,0,0,1,0,1,prac,2,0,m,Thu Feb 05 2026 12:57:45 GMT-0500 (Eastern Standard Time),241761.79999999702,I,z,1012,2,2,70.bmp,-120,-120,71.bmp,120,-120,72.bmp,-120,120,73.bmp,120,120,9826.29999999702,231935.5,9033,no,SM,C,73.bmp,-120,120,236436,230410,238453,232419,,,,,2
4,0,0,0,1,2,prac,2,1,m,Thu Feb 05 2026 12:57:45 GMT-0500 (Eastern Standard Time),251895.70000000298,I,m,1306,3,2,74.bmp,-120,-120,75.bmp,120,-120,76.bmp,-120,120,77.bmp,120,120,10127.40000000596,241768.29999999702,9033,no,SM,C,74.bmp,120,120,246269,240243,248285,242253,,,,,3
2,0,1,0,0,2,prac,2,0,z,Thu Feb 05 2026 12:57:45 GMT-0500 (Eastern Standard Time),262662.299999997,I,m,1940,4,2,78.bmp,-120,-120,79.bmp,120,-120,80.bmp,-120,120,81.bmp,120,120,10759.5,251902.79999999702,9033,yes,SM,C,79.bmp,120,-120,256402,250377,258420,252386,,,,,4
3,0,0,1,0,3,prac,2,1,z,Thu Feb 05 2026 12:57:45 GMT-0500 (Eastern Standard Time),272361.59999999404,I,z,868,5,2,82.bmp,-120,-120,83.bmp,120,-120,84.bmp,-120,120,85.bmp,120,120,9694.39999999106,262667.200000003,9033,yes,SM,C,84.bmp,-120,120,267170,261141,269187,263153,,,,,5
1,1,0,0,0,3,prac,2,0,m,Thu Feb 05 2026 12:57:45 GMT-0500 (Eastern Standard Time),282461.799999997,I,z,1281,6,2,86.bmp,-120,-120,87.bmp,120,-120,88.bmp,-120,120,89.bmp,120,120,10095.59999999404,272366.200000003,9033,no,SM,C,89.bmp,-120,-120,276870,270840,278887,272852,,,,,6
2,0,1,0,0,3,prac,2,0,m,Thu Feb 05 2026 12:57:45 GMT-0500 (Eastern Standard Time),291862.39999999106,I,z,573,7,2,90.bmp,-120,-120,91.bmp,120,-120,92.bmp,-120,120,93.bmp,120,120,9394.5,282467.89999999106,9033,no,SM,C,90.bmp,120,-120,286972,280942,288986,282953,,,,,7
4,0,0,0,1,3,prac,2,0,z,Thu Feb 05 2026 12:57:45 GMT-0500 (Eastern Standard Time),301462.09999999404,I,m,773,8,2,94.bmp,-120,-120,95.bmp,120,-120,96.bmp,-120,120,97.bmp,120,120,9594.0,291868.09999999404,9033,yes,SM,C,97.bmp,120,120,296370,290342,298387,292352,,,,,8
1,1,0,0,0,1,prac,3,1,z,Thu Feb 05 2026 12:57:45 GMT-0500 (Eastern Standard Time),316194.89999999106,I,z,719,1,2,66.bmp,-120,-120,67.bmp,120,-120,68.bmp,-120,120,69.bmp,120,120,9526.699999988079,306668.200000003,9033,yes,SM,C,66.bmp,-120,-120,311154,305143,313169,307153,,,,,1
3,0,0,1,0,2,prac,3,1,m,Thu Feb 05 2026 12:57:45 GMT-0500 (Eastern Standard Time),326845.39999999106,I,m,1832,2,2,70.bmp,-120,-120,71.bmp,120,-120,72.bmp,-120,120,73.bmp,120,120,10645.89999999106,316199.5,9033,no,SM,C,73.bmp,-120,120,320703,314674,322720,316687,,,,,2
4,0,0,0,1,3,prac,3,1,m,Thu Feb 05 2026 12:57:45 GMT-0500 (Eastern Standard Time),336862.799999997,I,m,1207,3,2,74.bmp,-120,-120,75.bmp,120,-120,76.bmp,-120,120,77.bmp,120,120,10010.5,326852.299999997,9033,no,SM,C,74.bmp,120,120,331337,325327,333353,327336,,,,,3
2,0,1,0,0,3,prac,3,0,z,Thu Feb 05 2026 12:57:45 GMT-0500 (Eastern Standard Time),347328.799999997,I,m,1645,4,2,78.bmp,-120,-120,79.bmp,120,-120,80.bmp,-120,120,81.bmp,120,120,10459.90000000596,336868.89999999106,9033,yes,SM,C,79.bmp,120,-120,341369,335343,343387,337353,,,,,4
3,0,0,1,0,3,prac,3,0,z,Thu Feb 05 2026 12:57:45 GMT-0500 (Eastern Standard Time),357645.5,I,m,1490,5,2,82.bmp,-120,-120,83.bmp,120,-120,84.bmp,-120,120,85.bmp,120,120,10310.70000000298,347334.799999997,9033,yes,SM,C,84.bmp,-120,120,351837,345809,353853,347819,,,,,5
1,1,0,0,0,4,prac,3,1,m,Thu Feb 05 2026 12:57:45 GMT-0500 (Eastern Standard Time),367945.5,I,m,1485,6,2,86.bmp,-120,-120,87.bmp,120,-120,88.bmp,-120,120,89.bmp,120,120,10294.40000000596,357651.09999999404,9033,no,SM,C,89.bmp,-120,-120,362136,356125,364154,358135,,,,,6
2,0,1,0,0,5,prac,3,1,m,Thu Feb 05 2026 12:57:45 GMT-0500 (Eastern Standard Time),377630.0,I,m,858,7,2,90.bmp,-120,-120,91.bmp,120,-120,92.bmp,-120,120,93.bmp,120,120,9680.20000000298,367949.799999997,9033,no,SM,C,90.bmp,120,-120,372453,366424,374470,368437,,,,,7
4,0,0,0,1,5,prac,3,0,z,Thu Feb 05 2026 12:57:45 GMT-0500 (Eastern Standard Time),387211.89999999106,I,m,750,8,2,94.bmp,-120,-120,95.bmp,120,-120,96.bmp,-120,120,97.bmp,120,120,9575.89999999106,377636.0,9033,yes,SM,C,97.bmp,120,120,382136,376110,384154,378120,,,,,8
4,0,0,0,1,1,test,1,1,m,Thu Feb 05 2026 12:57:45 GMT-0500 (Eastern Standard Time),407694.59999999404,I,m,1313,1,2,98.bmp,-120,-120,99.bmp,120,-120,100.bmp,-120,120,93.bmp,120,120,9362.0,398332.59999999404,9033,yes,SM,C,100.bmp,120,120,382136,376110,384154,378120,402836.0,396807.0,404854.0,398820.0,1
2,0,1,0,0,2,test,1,1,m,Thu Feb 05 2026 12:57:45 GMT-0500 (Eastern Standard Time),416995.700000003,I,m,1236,2,2,51.bmp,-120,-120,52.bmp,120,-120,53.bmp,-120,120,54.bmp,120,120,9296.70000000298,407699.0,9033,yes,SM,C,53.bmp,120,-120,382136,376110,384154,378120,412203.0,406173.0,414220.0,408187.0,2
1,1,0,0,0,2,test,1,0,z,Thu Feb 05 2026 12:57:45 GMT-0500 (Eastern Standard Time),426627.799999997,I,m,1593,3,2,55.bmp,-120,-120,56.bmp,120,-120,57.bmp,-120,120,58.bmp,120,120,9625.90000000596,417001.89999999106,9033,yes,SM,C,55.bmp,-120,-120,382136,376110,384154,378120,421502.0,415476.0,423503.0,417487.0,3
3,0,0,1,0,3,test,1,1,m,Thu Feb 05 2026 12:57:45 GMT-0500 (Eastern Standard Time),435812.200000003,I,m,1119,4,2,59.bmp,-120,-120,60.bmp,120,-120,61.bmp,-120,120,62.bmp,120,120,9179.40000000596,426632.799999997,9033,yes,SM,C,59.bmp,-120,120,382136,376110,384154,378120,431136.0,425107.0,433153.0,427119.0,4
2,0,1,0,0,4,test,1,1,z,Thu Feb 05 2026 12:57:45 GMT-0500 (Eastern Standard Time),445044.59999999404,I,z,1174,5,2,63.bmp,-120,-120,64.bmp,120,-120,65.bmp,-120,120,66.bmp,120,120,9225.89999999106,435818.700000003,9033,yes,SM,C,64.bmp,120,-120,382136,376110,384154,378120,440320.0,434293.0,442337.0,436303.0,5
3,0,0,1,0,4,test,1,0,z,Thu Feb 05 2026 12:57:45 GMT-0500 (Eastern Standard Time),454844.799999997,I,m,1741,6,2,67.bmp,-120,-120,68.bmp,120,-120,69.bmp,-120,120,70.bmp,120,120,9795.70000000298,445049.09999999404,9033,yes,SM,C,69.bmp,-120,120,382136,376110,384154,378120,449554.0,443524.0,451570.0,445536.0,6
4,0,0,0,1,5,test,1,1,z,Thu Feb 05 2026 12:57:45 GMT-0500 (Eastern Standard Time),464144.700000003,I,z,1246,7,2,71.bmp,-120,-120,72.bmp,120,-120,73.bmp,-120,120,74.bmp,120,120,9295.0,454849.700000003,9033,yes,SM,C,74.bmp,120,120,382136,376110,384154,378120,459353.0,453324.0,461369.0,455337.0,7
2,0,1,0,0,6,test,1,1,m,Thu Feb 05 2026 12:57:45 GMT-0500 (Eastern Standard Time),473313.5,I,m,1114,8,2,75.bmp,-120,-120,76.bmp,120,-120,77.bmp,-120,120,78.bmp,120,120,9164.60000000894,464148.89999999106,9033,yes,SM,C,75.bmp,120,-120,382136,376110,384154,378120,468653.0,462623.0,470670.0,464637.0,8
3,0,0,1,0,7,test,1,1,m,Thu Feb 05 2026 12:57:45 GMT-0500 (Eastern Standard Time),482894.89999999106,I,m,1530,9,2,79.bmp,-120,-120,80.bmp,120,-120,81.bmp,-120,120,82.bmp,120,120,9573.09999999404,473321.799999997,9033,yes,SM,C,80.bmp,-120,120,382136,376110,384154,378120,477819.0,471796.0,479837.0,473803.0,9
4,0,0,0,1,7,test,1,0,z,Thu Feb 05 2026 12:57:45 GMT-0500 (Eastern Standard Time),492244.700000003,I,m,1292,10,2,87.bmp,-120,-120,88.bmp,120,-120,89.bmp,-120,120,90.bmp,120,120,9344.40000000596,482900.299999997,9033,yes,SM,C,90.bmp,120,120,382136,376110,384154,378120,487404.0,481375.0,489420.0,483386.0,10
3,0,0,1,0,7,test,1,0,z,Thu Feb 05 2026 12:57:45 GMT-0500 (Eastern Standard Time),502094.799999997,I,m,1789,11,2,83.bmp,-120,-120,84.bmp,120,-120,85.bmp,-120,120,86.bmp,120,120,9845.70000000298,492249.09999999404,9033,yes,SM,C,85.bmp,-120,120,382136,376110,384154,378120,496753.0,490723.0,498770.0,492736.0,11
2,0,1,0,0,8,test,1,1,m,Thu Feb 05 2026 12:57:45 GMT-0500 (Eastern Standard Time),511678.89999999106,I,m,1550,12,2,91.bmp,-120,-120,92.bmp,120,-120,93.bmp,-120,120,94.bmp,120,120,9580.199999988079,502098.700000003,9033,yes,SM,C,91.bmp,120,-120,382136,376110,384154,378120,506602.0,500573.0,508603.0,502586.0,12
3,0,0,1,0,9,test,1,1,m,Thu Feb 05 2026 12:57:45 GMT-0500 (Eastern Standard Time),521045.299999997,I,m,1299,13,2,95.bmp,-120,-120,96.bmp,120,-120,97.bmp,-120,120,98.bmp,120,120,9360.40000000596,511684.89999999106,9033,yes,SM,C,96.bmp,-120,120,382136,376110,384154,378120,516186.0,510159.0,518203.0,512170.0,13
1,1,0,0,0,10,test,1,1,z,Thu Feb 05 2026 12:57:45 GMT-0500 (Eastern Standard Time),530396.099999994,I,z,1310,14,2,99.bmp,-120,-120,100.bmp,120,-120,54.bmp,-120,120,51.bmp,120,120,9345.59999999404,521050.5,9033,yes,SM,C,99.bmp,-120,-120,382136,376110,384154,378120,525553.0,519525.0,527554.0,521537.0,14
4,0,0,0,1,11,test,1,1,m,Thu Feb 05 2026 12:57:45 GMT-0500 (Eastern Standard Time),539612.3999999911,I,m,1160,15,2,60.bmp,-120,-120,61.bmp,120,-120,62.bmp,-120,120,63.bmp,120,120,9210.29999999702,530402.099999994,9033,yes,SM,C,61.bmp,120,120,382136,376110,384154,378120,534903.0,528876.0,536920.0,530887.0,15
1,1,0,0,0,11,test,1,0,m,Thu Feb 05 2026 12:57:45 GMT-0500 (Eastern Standard Time),548861.8999999911,I,z,1184,16,2,52.bmp,-120,-120,53.bmp,120,-120,54.bmp,-120,120,55.bmp,120,120,9242.199999988079,539619.700000003,9033,yes,SM,C,55.bmp,-120,-120,382136,376110,384154,378120,544120.0,538094.0,546137.0,540103.0,16
3,0,0,1,0,11,test,1,0,m,Thu Feb 05 2026 12:57:45 GMT-0500 (Eastern Standard Time),557995.799999997,I,z,1068,17,2,72.bmp,-120,-120,73.bmp,120,-120,74.bmp,-120,120,75.bmp,120,120,9127.90000000596,548867.8999999911,9033,yes,SM,C,72.bmp,-120,120,382136,376110,384154,378120,553370.0,547342.0,555387.0,549354.0,17
1,1,0,0,0,12,test,1,1,z,Thu Feb 05 2026 12:57:45 GMT-0500 (Eastern Standard Time),566978.200000003,I,z,944,18,2,56.bmp,-120,-120,57.bmp,120,-120,58.bmp,-120,120,59.bmp,120,120,8977.10000000894,558001.099999994,9033,yes,SM,C,56.bmp,-120,-120,382136,376110,384154,378120,562503.0,556475.0,564504.0,558486.0,18
2,0,1,0,0,13,test,1,1,z,Thu Feb 05 2026 12:57:45 GMT-0500 (Eastern Standard Time),576495.200000003,I,z,1480,19,2,76.bmp,-120,-120,77.bmp,120,-120,78.bmp,-120,120,79.bmp,120,120,9511.70000000298,566983.5,9033,yes,SM,C,77.bmp,120,-120,382136,376110,384154,378120,571485.0,565458.0,573487.0,567471.0,19
3,0,0,1,0,14,test,1,1,z,Thu Feb 05 2026 12:57:45 GMT-0500 (Eastern Standard Time),585711.3999999911,I,z,1153,20,2,80.bmp,-120,-120,81.bmp,120,-120,82.bmp,-120,120,83.bmp,120,120,9211.0,576500.3999999911,9033,yes,SM,C,82.bmp,-120,120,382136,376110,384154,378120,581003.0,574975.0,583021.0,576986.0,20
1,1,0,0,0,14,test,1,0,m,Thu Feb 05 2026 12:57:45 GMT-0500 (Eastern Standard Time),595762.8999999911,I,None,2001,21,2,64.bmp,-120,-120,65.bmp,120,-120,66.bmp,-120,120,67.bmp,120,120,10047.29999999702,585715.599999994,9033,yes,SM,C,66.bmp,-120,-120,382136,376110,384154,378120,590220.0,584190.0,592236.0,586203.0,21
4,0,0,0,1,14,test,1,0,z,Thu Feb 05 2026 12:57:45 GMT-0500 (Eastern Standard Time),605295.0,I,m,1472,22,2,68.bmp,-120,-120,69.bmp,120,-120,70.bmp,-120,120,71.bmp,120,120,9525.70000000298,595769.299999997,9033,yes,SM,C,71.bmp,120,120,382136,376110,384154,378120,600270.0,594243.0,602287.0,596253.0,22
1,1,0,0,0,14,test,1,0,m,Thu Feb 05 2026 12:57:45 GMT-0500 (Eastern Standard Time),615062.5,I,z,1706,23,2,84.bmp,-120,-120,85.bmp,120,-120,86.bmp,-120,120,87.bmp,120,120,9761.90000000596,605300.599999994,9033,yes,SM,C,87.bmp,-120,-120,382136,376110,384154,378120,609804.0,603775.0,611821.0,605787.0,23
2,0,1,0,0,14,test,1,0,z,Thu Feb 05 2026 12:57:45 GMT-0500 (Eastern Standard Time),624779.5,I,m,1653,24,2,92.bmp,-120,-120,93.bmp,120,-120,94.bmp,-120,120,95.bmp,120,120,9712.10000000894,615067.3999999911,9033,yes,SM,C,93.bmp,120,-120,382136,376110,384154,378120,619570.0,613542.0,621587.0,615555.0,24
4,0,0,0,1,15,test,1,1,m,Thu Feb 05 2026 12:57:45 GMT-0500 (Eastern Standard Time),634595.0,I,m,1761,25,2,96.bmp,-120,-120,97.bmp,120,-120,98.bmp,-120,120,99.bmp,120,120,9811.10000000894,624783.8999999911,9033,yes,SM,C,98.bmp,120,120,382136,376110,384154,378120,629287.0,623258.0,631303.0,625270.0,25
1,1,0,0,0,15,test,1,0,z,Thu Feb 05 2026 12:57:45 GMT-0500 (Eastern Standard Time),644461.3999999911,I,m,1806,26,2,88.bmp,-120,-120,89.bmp,120,-120,90.bmp,-120,120,91.bmp,120,120,9861.199999988079,634600.200000003,9033,yes,SM,C,88.bmp,-120,-120,382136,376110,384154,378120,639103.0,633075.0,641121.0,635088.0,26
4,0,0,0,1,15,test,1,0,z,Thu Feb 05 2026 12:57:45 GMT-0500 (Eastern Standard Time),654530.099999994,I,None,2017,27,2,100.bmp,-120,-120,61.bmp,120,-120,51.bmp,-120,120,52.bmp,120,120,10063.09999999404,644467.0,9033,yes,SM,C,52.bmp,120,120,382136,376110,384154,378120,648971.0,642941.0,650987.0,644955.0,27
3,0,0,1,0,15,test,1,0,m,Thu Feb 05 2026 12:57:45 GMT-0500 (Eastern Standard Time),663329.299999997,I,z,739,28,2,53.bmp,-120,-120,54.bmp,120,-120,55.bmp,-120,120,56.bmp,120,120,8793.90000000596,654535.3999999911,9033,yes,SM,C,53.bmp,-120,120,382136,376110,384154,378120,659036.0,653010.0,661053.0,655020.0,28
2,0,1,0,0,16,test,1,1,z,Thu Feb 05 2026 12:57:45 GMT-0500 (Eastern Standard Time),672563.0,I,z,1170,29,2,57.bmp,-120,-120,58.bmp,120,-120,59.bmp,-120,120,60.bmp,120,120,9230.0,663333.0,9033,yes,SM,C,58.bmp,120,-120,382136,376110,384154,378120,667837.0,661807.0,669853.0,663820.0,29
3,0,0,1,0,17,test,1,1,z,Thu Feb 05 2026 12:57:45 GMT-0500 (Eastern Standard Time),681812.5,I,z,1185,30,2,61.bmp,-120,-120,62.bmp,120,-120,63.bmp,-120,120,64.bmp,120,120,9243.79999999702,672568.700000003,9033,yes,SM,C,63.bmp,-120,120,382136,376110,384154,378120,677070.0,671043.0,679087.0,673053.0,30
1,1,0,0,0,18,test,1,1,z,Thu Feb 05 2026 12:57:45 GMT-0500 (Eastern Standard Time),690978.5,I,z,1102,31,2,65.bmp,-120,-120,66.bmp,120,-120,67.bmp,-120,120,68.bmp,120,120,9160.20000000298,681818.299999997,9033,yes,SM,C,65.bmp,-120,-120,382136,376110,384154,378120,686320.0,680293.0,688337.0,682303.0,31
2,0,1,0,0,18,test,1,0,m,Thu Feb 05 2026 12:57:45 GMT-0500 (Eastern Standard Time),700228.3999999911,I,z,1184,32,2,69.bmp,-120,-120,70.bmp,120,-120,71.bmp,-120,120,72.bmp,120,120,9244.5,690983.8999999911,9033,yes,SM,C,69.bmp,120,-120,382136,376110,384154,378120,695487.0,689458.0,697503.0,691469.0,32
4,0,0,0,1,18,test,1,0,z,Thu Feb 05 2026 12:57:45 GMT-0500 (Eastern Standard Time),709712.3999999911,I,m,1422,33,2,81.bmp,-120,-120,82.bmp,120,-120,83.bmp,-120,120,84.bmp,120,120,9479.79999999702,700232.599999994,9033,yes,SM,C,84.bmp,120,120,382136,376110,384154,378120,704738.0,698707.0,706753.0,700721.0,33
2,0,1,0,0,18,test,1,0,z,Thu Feb 05 2026 12:57:45 GMT-0500 (Eastern Standard Time),719679.8999999911,I,m,1906,34,2,73.bmp,-120,-120,74.bmp,120,-120,75.bmp,-120,120,76.bmp,120,120,9962.0,709717.8999999911,9033,yes,SM,C,74.bmp,120,-120,382136,376110,384154,378120,714220.0,708192.0,716237.0,710204.0,34
4,0,0,0,1,19,test,1,1,m,Thu Feb 05 2026 12:57:45 GMT-0500 (Eastern Standard Time),729345.599999994,I,m,1614,35,2,77.bmp,-120,-120,78.bmp,120,-120,79.bmp,-120,120,80.bmp,120,120,9660.59999999404,719685.0,9033,yes,SM,C,79.bmp,120,120,382136,376110,384154,378120,724186.0,718159.0,726203.0,720169.0,35
3,0,0,1,0,20,test,1,1,m,Thu Feb 05 2026 12:57:45 GMT-0500 (Eastern Standard Time),738795.700000003,I,m,1386,36,2,85.bmp,-120,-120,86.bmp,120,-120,87.bmp,-120,120,88.bmp,120,120,9445.40000000596,729350.299999997,9033,yes,SM,C,85.bmp,-120,120,382136,376110,384154,378120,733853.0,727825.0,735870.0,729837.0,36
1,1,0,0,0,21,test,1,1,m,Thu Feb 05 2026 12:57:45 GMT-0500 (Eastern Standard Time),748679.200000003,I,m,1822,37,2,89.bmp,-120,-120,90.bmp,120,-120,91.bmp,-120,120,92.bmp,120,120,9878.0,738801.200000003,9033,yes,SM,C,90.bmp,-120,-120,382136,376110,384154,378120,743303.0,737275.0,745321.0,739287.0,37
2,0,1,0,0,21,test,1,0,m,Thu Feb 05 2026 12:57:45 GMT-0500 (Eastern Standard Time),758746.0,I,None,2016,38,2,93.bmp,-120,-120,94.bmp,120,-120,95.bmp,-120,120,96.bmp,120,120,10060.10000000894,748685.8999999911,9033,yes,SM,C,95.bmp,120,-120,382136,376110,384154,378120,753187.0,747160.0,755204.0,749170.0,38
4,0,0,0,1,21,test,1,0,z,Thu Feb 05 2026 12:57:45 GMT-0500 (Eastern Standard Time),767295.5,I,m,497,39,2,97.bmp,-120,-120,98.bmp,120,-120,99.bmp,-120,120,100.bmp,120,120,8542.40000000596,758753.099999994,9033,yes,SM,C,100.bmp,120,120,382136,376110,384154,378120,763253.0,757228.0,765270.0,759238.0,39
3,0,0,1,0,22,test,1,1,m,Thu Feb 05 2026 12:57:45 GMT-0500 (Eastern Standard Time),776996.0,I,m,1633,40,2,54.bmp,-120,-120,55.bmp,120,-120,56.bmp,-120,120,57.bmp,120,120,9696.90000000596,767299.099999994,9033,yes,SM,C,55.bmp,-120,120,382136,376110,384154,378120,771804.0,765773.0,773822.0,767787.0,40
1,1,0,0,0,22,test,1,0,z,Thu Feb 05 2026 12:57:45 GMT-0500 (Eastern Standard Time),786361.700000003,I,m,1304,41,2,58.bmp,-120,-120,59.bmp,120,-120,60.bmp,-120,120,61.bmp,120,120,9359.40000000596,777002.299999997,9033,yes,SM,C,58.bmp,-120,-120,382136,376110,384154,378120,781503.0,775477.0,783520.0,777487.0,41
4,0,0,0,1,22,test,1,0,z,Thu Feb 05 2026 12:57:45 GMT-0500 (Eastern Standard Time),795495.099999994,I,m,1074,42,2,62.bmp,-120,-120,63.bmp,120,-120,64.bmp,-120,120,65.bmp,120,120,9128.5,786366.599999994,9033,yes,SM,C,65.bmp,120,120,382136,376110,384154,378120,790870.0,784841.0,792886.0,786854.0,42
1,1,0,0,0,22,test,1,0,z,Thu Feb 05 2026 12:57:45 GMT-0500 (Eastern Standard Time),805561.599999994,I,None,2016,43,2,66.bmp,-120,-120,67.bmp,120,-120,68.bmp,-120,120,69.bmp,120,120,10062.0,795499.599999994,9033,yes,SM,C,66.bmp,-120,-120,382136,376110,384154,378120,800003.0,793974.0,802020.0,795988.0,43
4,0,0,0,1,23,test,1,1,m,Thu Feb 05 2026 12:57:45 GMT-0500 (Eastern Standard Time),815179.700000003,I,m,1569,44,2,54.bmp,-120,-120,51.bmp,120,-120,52.bmp,-120,120,53.bmp,120,120,9615.5,805564.200000003,9033,yes,SM,C,54.bmp,120,120,382136,376110,384154,378120,810069.0,804038.0,812071.0,806054.0,44
1,1,0,0,0,23,test,1,0,m,Thu Feb 05 2026 12:57:45 GMT-0500 (Eastern Standard Time),825245.799999997,I,None,2016,45,2,78.bmp,-120,-120,79.bmp,120,-120,80.bmp,-120,120,81.bmp,120,120,10062.20000000298,815183.599999994,9033,yes,SM,C,81.bmp,-120,-120,382136,376110,384154,378120,819687.0,813658.0,821704.0,815671.0,45
1,1,0,0,0,24,test,1,1,m,Thu Feb 05 2026 12:57:45 GMT-0500 (Eastern Standard Time),834828.5,I,m,1525,46,2,70.bmp,-120,-120,71.bmp,120,-120,72.bmp,-120,120,73.bmp,120,120,9576.70000000298,825251.799999997,9033,yes,SM,C,71.bmp,-120,-120,382136,376110,384154,378120,829757.0,823726.0,831770.0,825737.0,46
3,0,0,1,0,25,test,1,1,z,Thu Feb 05 2026 12:57:45 GMT-0500 (Eastern Standard Time),844562.599999994,I,z,1679,47,2,74.bmp,-120,-120,75.bmp,120,-120,76.bmp,-120,120,77.bmp,120,120,9730.5,834832.099999994,9033,yes,SM,C,76.bmp,-120,120,382136,376110,384154,378120,839336.0,833306.0,841353.0,835320.0,47
3,0,0,1,0,26,test,1,1,z,Thu Feb 05 2026 12:57:45 GMT-0500 (Eastern Standard Time),854029.700000003,I,z,1418,48,2,90.bmp,-120,-120,91.bmp,120,-120,92.bmp,-120,120,93.bmp,120,120,9461.20000000298,844568.5,9033,yes,SM,C,92.bmp,-120,120,382136,376110,384154,378120,849069.0,843043.0,851071.0,845055.0,48
2,0,1,0,0,27,test,1,1,z,Thu Feb 05 2026 12:57:45 GMT-0500 (Eastern Standard Time),863345.299999997,I,z,1255,49,2,86.bmp,-120,-120,87.bmp,120,-120,88.bmp,-120,120,89.bmp,120,120,9310.59999999404,854034.700000003,9033,yes,SM,C,87.bmp,120,-120,382136,376110,384154,378120,858536.0,852509.0,860553.0,854520.0,49
3,0,0,1,0,28,test,1,1,m,Thu Feb 05 2026 12:57:45 GMT-0500 (Eastern Standard Time),872428.700000003,I,m,1042,50,2,82.bmp,-120,-120,83.bmp,120,-120,84.bmp,-120,120,85.bmp,120,120,9080.20000000298,863348.5,9033,yes,SM,C,82.bmp,-120,120,382136,376110,384154,378120,867840.0,861823.0,869853.0,863837.0,50
2,0,1,0,0,28,test,1,0,z,Thu Feb 05 2026 12:57:45 GMT-0500 (Eastern Standard Time),881429.0,I,m,942,51,2,94.bmp,-120,-120,95.bmp,120,-120,96.bmp,-120,120,97.bmp,120,120,8994.5,872434.5,9033,yes,SM,C,95.bmp,120,-120,382136,376110,384154,378120,876937.0,870909.0,878953.0,872921.0,51
4,0,0,0,1,29,test,1,1,m,Thu Feb 05 2026 12:57:45 GMT-0500 (Eastern Standard Time),890311.700000003,I,m,846,52,2,98.bmp,-120,-120,99.bmp,120,-120,100.bmp,-120,120,81.bmp,120,120,8877.5,881434.200000003,9033,yes,SM,C,98.bmp,120,120,382136,376110,384154,378120,885936.0,879908.0,887937.0,881920.0,52
3,0,0,1,0,29,test,1,0,z,Thu Feb 05 2026 12:57:45 GMT-0500 (Eastern Standard Time),899845.0,I,m,1481,53,2,51.bmp,-120,-120,52.bmp,120,-120,53.bmp,-120,120,54.bmp,120,120,9528.10000000894,890316.8999999911,9033,yes,SM,C,53.bmp,-120,120,382136,376110,384154,378120,894820.0,888791.0,896838.0,890804.0,53
1,1,0,0,0,29,test,1,0,m,Thu Feb 05 2026 12:57:45 GMT-0500 (Eastern Standard Time),909529.299999997,I,z,1629,54,2,55.bmp,-120,-120,56.bmp,120,-120,57.bmp,-120,120,58.bmp,120,120,9680.20000000298,899849.099999994,9033,yes,SM,C,57.bmp,-120,-120,382136,376110,384154,378120,904354.0,898323.0,906370.0,900337.0,54
4,0,0,0,1,29,test,1,0,z,Thu Feb 05 2026 12:57:45 GMT-0500 (Eastern Standard Time),919212.0,I,m,1625,55,2,59.bmp,-120,-120,60.bmp,120,-120,61.bmp,-120,120,62.bmp,120,120,9677.5,909534.5,9033,yes,SM,C,62.bmp,120,120,382136,376110,384154,378120,914037.0,908009.0,916054.0,910020.0,55
2,0,1,0,0,29,test,1,0,m,Thu Feb 05 2026 12:57:45 GMT-0500 (Eastern Standard Time),929264.099999994,I,None,2001,56,2,63.bmp,-120,-120,64.bmp,120,-120,65.bmp,-120,120,66.bmp,120,120,10045.09999999404,919219.0,9033,yes,SM,C,63.bmp,120,-120,382136,376110,384154,378120,923720.0,917694.0,925737.0,919703.0,56
4,0,0,0,1,30,test,1,1,m,Thu Feb 05 2026 12:57:45 GMT-0500 (Eastern Standard Time),938112.599999994,I,m,813,57,2,67.bmp,-120,-120,68.bmp,120,-120,69.bmp,-120,120,70.bmp,120,120,8842.89999999106,929269.700000003,9033,yes,SM,C,68.bmp,120,120,382136,376110,384154,378120,933770.0,927744.0,935771.0,929754.0,57
3,0,0,1,0,31,test,1,1,z,Thu Feb 05 2026 12:57:45 GMT-0500 (Eastern Standard Time),946928.8999999911,I,z,754,58,2,71.bmp,-120,-120,72.bmp,120,-120,73.bmp,-120,120,74.bmp,120,120,8811.39999999106,938117.5,9033,yes,SM,C,73.bmp,-120,120,382136,376110,384154,378120,942620.0,936592.0,944637.0,938603.0,58
2,0,1,0,0,32,test,1,1,m,Thu Feb 05 2026 12:57:45 GMT-0500 (Eastern Standard Time),956529.200000003,I,m,1563,59,2,75.bmp,-120,-120,76.bmp,120,-120,77.bmp,-120,120,78.bmp,120,120,9596.20000000298,946933.0,9033,yes,SM,C,78.bmp,120,-120,382136,376110,384154,378120,951436.0,945407.0,953437.0,947421.0,59
1,1,0,0,0,33,test,1,1,z,Thu Feb 05 2026 12:57:45 GMT-0500 (Eastern Standard Time),965511.8999999911,I,z,946,60,2,79.bmp,-120,-120,80.bmp,120,-120,81.bmp,-120,120,82.bmp,120,120,8977.39999999106,956534.5,9033,yes,SM,C,79.bmp,-120,-120,382136,376110,384154,378120,961021.0,955009.0,963037.0,957020.0,60
2,0,1,0,0,33,test,1,0,z,Thu Feb 05 2026 12:57:45 GMT-0500 (Eastern Standard Time),975412.700000003,I,m,1834,61,2,83.bmp,-120,-120,84.bmp,120,-120,85.bmp,-120,120,86.bmp,120,120,9896.5,965516.200000003,9033,yes,SM,C,84.bmp,120,-120,382136,376110,384154,378120,970021.0,963990.0,972038.0,966005.0,61
4,0,0,0,1,34,test,1,1,z,Thu Feb 05 2026 12:57:45 GMT-0500 (Eastern Standard Time),984679.5,I,z,1206,62,2,91.bmp,-120,-120,92.bmp,120,-120,93.bmp,-120,120,94.bmp,120,120,9260.60000000894,975418.8999999911,9033,yes,SM,C,94.bmp,120,120,382136,376110,384154,378120,979920.0,973893.0,981938.0,975904.0,62
1,1,0,0,0,34,test,1,0,m,Thu Feb 05 2026 12:57:45 GMT-0500 (Eastern Standard Time),994679.700000003,I,z,1941,63,2,95.bmp,-120,-120,96.bmp,120,-120,97.bmp,-120,120,98.bmp,120,120,9994.60000000894,984685.099999994,9033,yes,SM,C,95.bmp,-120,120,382136,376110,384154,378120,989187.0,983159.0,991204.0,985171.0,63
2,0,1,0,0,34,test,1,0,z,Thu Feb 05 2026 12:57:45 GMT-0500 (Eastern Standard Time),1003746.5,I,m,1004,64,2,99.bmp,-120,-120,100.bmp,120,-120,62.bmp,-120,120,51.bmp,120,120,9061.29999999702,994685.200000003,9033,yes,SM,C,100.bmp,120,-120,382136,376110,384154,378120,999187.0,993159.0,1001204.0,995170.0,64
4,0,0,0,1,35,test,1,1,m,Thu Feb 05 2026 12:57:45 GMT-0500 (Eastern Standard Time),1013213.5,I,m,1426,65,2,52.bmp,-120,-120,53.bmp,120,-120,54.bmp,-120,120,55.bmp,120,120,9461.79999999702,1003751.700000003,9033,yes,SM,C,54.bmp,120,120,382136,376110,384154,378120,1008238.0,1002226.0,1010254.0,1004237.0,65
3,0,0,1,0,36,test,1,1,m,Thu Feb 05 2026 12:57:45 GMT-0500 (Eastern Standard Time),1022645.700000003,I,m,1366,66,2,56.bmp,-120,-120,57.bmp,120,-120,58.bmp,-120,120,59.bmp,120,120,9426.70000000298,1013219.0,9033,yes,SM,C,59.bmp,-120,120,382136,376110,384154,378120,1017720.0,1011693.0,1019738.0,1013704.0,66
2,0,1,0,0,37,test,1,1,m,Thu Feb 05 2026 12:57:45 GMT-0500 (Eastern Standard Time),1031629.799999997,I,m,925,67,2,87.bmp,-120,-120,88.bmp,120,-120,89.bmp,-120,120,90.bmp,120,120,8979.90000000596,1022649.8999999911,9033,yes,SM,C,89.bmp,120,-120,382136,376110,384154,378120,1027153.0,1021124.0,1029171.0,1023138.0,67
3,0,0,1,0,37,test,1,0,z,Thu Feb 05 2026 12:57:45 GMT-0500 (Eastern Standard Time),1041696.8999999911,I,None,2016,68,2,60.bmp,-120,-120,61.bmp,120,-120,62.bmp,-120,120,63.bmp,120,120,10061.79999999702,1031635.099999994,9033,yes,SM,C,62.bmp,-120,120,382136,376110,384154,378120,1036137.0,1030110.0,1038155.0,1032122.0,68
1,1,0,0,0,38,test,1,1,m,Thu Feb 05 2026 12:57:45 GMT-0500 (Eastern Standard Time),1050363.599999994,I,m,612,69,2,64.bmp,-120,-120,65.bmp,120,-120,66.bmp,-120,120,67.bmp,120,120,8661.5,1041702.099999994,9033,yes,SM,C,65.bmp,-120,-120,382136,376110,384154,378120,1046204.0,1040176.0,1048220.0,1042187.0,69
2,0,1,0,0,39,test,1,1,m,Thu Feb 05 2026 12:57:45 GMT-0500 (Eastern Standard Time),1059779.599999994,I,m,1361,70,2,68.bmp,-120,-120,69.bmp,120,-120,70.bmp,-120,120,71.bmp,120,120,9409.5,1050370.099999994,9033,yes,SM,C,70.bmp,120,-120,382136,376110,384154,378120,1054872.0,1048844.0,1056887.0,1050854.0,70
4,0,0,0,1,40,test,1,1,z,Thu Feb 05 2026 12:57:45 GMT-0500 (Eastern Standard Time),1068812.799999997,I,z,976,71,2,72.bmp,-120,-120,73.bmp,120,-120,74.bmp,-120,120,75.bmp,120,120,9028.20000000298,1059784.599999994,9033,yes,SM,C,75.bmp,120,120,382136,376110,384154,378120,1064287.0,1058259.0,1066304.0,1060271.0,71
1,1,0,0,0,41,test,1,1,z,Thu Feb 05 2026 12:57:45 GMT-0500 (Eastern Standard Time),1077829.399999991,I,z,960,72,2,76.bmp,-120,-120,77.bmp,120,-120,78.bmp,-120,120,79.bmp,120,120,9012.39999999106,1068817.0,9033,yes,SM,C,76.bmp,-120,-120,382136,376110,384154,378120,1073322.0,1067291.0,1075337.0,1069304.0,72
2,0,1,0,0,42,test,1,1,z,Thu Feb 05 2026 12:57:45 GMT-0500 (Eastern Standard Time),1087229.899999991,I,z,1335,73,2,80.bmp,-120,-120,81.bmp,120,-120,82.bmp,-120,120,83.bmp,120,120,9395.39999999106,1077834.5,9033,yes,SM,C,81.bmp,120,-120,382136,376110,384154,378120,1082337.0,1076309.0,1084354.0,1078320.0,73
4,0,0,0,1,43,test,1,1,m,Thu Feb 05 2026 12:57:45 GMT-0500 (Eastern Standard Time),1096596.299999997,I,m,1311,74,2,84.bmp,-120,-120,85.bmp,120,-120,86.bmp,-120,120,87.bmp,120,120,9360.29999999702,1087236.0,9033,yes,SM,C,86.bmp,120,120,382136,376110,384154,378120,1091738.0,1085710.0,1093753.0,1087721.0,74
2,0,1,0,0,44,test,1,1,m,Thu Feb 05 2026 12:57:45 GMT-0500 (Eastern Standard Time),1106162.5,I,m,1503,75,2,88.bmp,-120,-120,89.bmp,120,-120,90.bmp,-120,120,91.bmp,120,120,9560.79999999702,1096601.700000003,9033,yes,SM,C,91.bmp,120,-120,382136,376110,384154,378120,1101104.0,1095076.0,1103121.0,1097087.0,75
1,1,0,0,0,44,test,1,0,z,Thu Feb 05 2026 12:57:45 GMT-0500 (Eastern Standard Time),1116212.099999994,I,None,2016,76,2,92.bmp,-120,-120,93.bmp,120,-120,94.bmp,-120,120,95.bmp,120,120,10044.5,1106167.599999994,9033,yes,SM,C,92.bmp,-120,-120,382136,376110,384154,378120,1110669.0,1104642.0,1112670.0,1106654.0,76
3,0,0,1,0,45,test,1,1,z,Thu Feb 05 2026 12:57:45 GMT-0500 (Eastern Standard Time),1125712.299999997,I,z,1464,77,2,100.bmp,-120,-120,61.bmp,120,-120,51.bmp,-120,120,52.bmp,120,120,9496.59999999404,1116215.700000003,9033,yes,SM,C,51.bmp,-120,120,382136,376110,384154,378120,1120720.0,1114690.0,1122721.0,1116703.0,77
1,1,0,0,0,46,test,1,1,m,Thu Feb 05 2026 12:57:45 GMT-0500 (Eastern Standard Time),1135313.399999991,I,m,1539,78,2,96.bmp,-120,-120,97.bmp,120,-120,98.bmp,-120,120,99.bmp,120,120,9595.699999988079,1125717.700000003,9033,yes,SM,C,97.bmp,-120,-120,382136,376110,384154,378120,1130223.0,1124192.0,1132237.0,1126204.0,78
4,0,0,0,1,46,test,1,0,m,Thu Feb 05 2026 12:57:45 GMT-0500 (Eastern Standard Time),1144663.799999997,I,z,1300,79,2,57.bmp,-120,-120,58.bmp,120,-120,59.bmp,-120,120,60.bmp,120,120,9345.20000000298,1135318.599999994,9033,yes,SM,C,57.bmp,120,120,382136,376110,384154,378120,1139821.0,1133793.0,1141836.0,1135804.0,79
3,0,0,1,0,46,test,1,0,m,Thu Feb 05 2026 12:57:45 GMT-0500 (Eastern Standard Time),1153796.399999991,I,z,1069,80,2,53.bmp,-120,-120,54.bmp,120,-120,55.bmp,-120,120,56.bmp,120,120,9126.89999999106,1144669.5,9033,yes,SM,C,56.bmp,-120,120,382136,376110,384154,378120,1149170.0,1143144.0,1151187.0,1145154.0,80
