acc_sum,block,block_c,condition,correct,correct_response,datetime,endtime,flanker,jitter,project,response,response_test_buffer_response,response_test_target_response,response_time,response_time_test_buffer_response,response_time_test_target_response,row_sel,session_number,start_end,starttime,subject_id,target,task,task_vers,time_test_buffer,time_test_buffer_response,time_test_constants,time_test_flanker,time_test_jitter,time_test_logger,time_test_target,time_test_target_response,time_test_variables,trial
0,prac,1,inc,0,m,Tue Mar 03 2026 15:20:40 GMT-0600 (Central Standard Time),117208.20000004768,cherry,900,I,None,,,1815,,,10,2,4977.5,112230.70000004768,8088,copper,NF,C,,,,,,,,,,1
1,prac,1,inc,1,z,Tue Mar 03 2026 15:20:40 GMT-0600 (Central Standard Time),121007.39999997616,lead,1100,I,z,,,1383,,,8,2,3793.0999999046326,117214.30000007153,8088,plum,NF,C,,,,,,,,,,2
2,prac,1,inc,1,m,Tue Mar 03 2026 15:20:40 GMT-0600 (Central Standard Time),124089.39999997616,raisin,1100,I,m,,,673,,,12,2,3077.399999976158,121012.0,8088,cobalt,NF,C,,,,,,,,,,3
3,prac,1,inc,1,z,Tue Mar 03 2026 15:20:40 GMT-0600 (Central Standard Time),126955.5,copper,900,I,z,,,652,,,2,2,2861.7999999523163,124093.70000004768,8088,cherry,NF,C,,,,,,,,,,4
4,prac,1,con,1,m,Tue Mar 03 2026 15:20:40 GMT-0600 (Central Standard Time),130154.20000004768,silver,1000,I,m,,,887,,,11,2,3194.399999976158,126959.80000007153,8088,silver,NF,C,,,,,,,,,,5
5,prac,1,con,1,z,Tue Mar 03 2026 15:20:40 GMT-0600 (Central Standard Time),132921.39999997616,banana,800,I,z,,,657,,,1,2,2762.5,130158.89999997616,8088,banana,NF,C,,,,,,,,,,6
6,prac,1,con,1,z,Tue Mar 03 2026 15:20:40 GMT-0600 (Central Standard Time),135835.80000007153,kiwi,1000,I,z,,,612,,,7,2,2909.7000000476837,132926.10000002384,8088,kiwi,NF,C,,,,,,,,,,7
7,prac,1,inc,1,z,Tue Mar 03 2026 15:20:40 GMT-0600 (Central Standard Time),138735.20000004768,iron,900,I,z,,,692,,,6,2,2894.899999976158,135840.30000007153,8088,pear,NF,C,,,,,,,,,,8
8,prac,1,inc,1,z,Tue Mar 03 2026 15:20:40 GMT-0600 (Central Standard Time),141734.20000004768,cobalt,1100,I,z,,,593,,,4,2,2994.7000000476837,138739.5,8088,raisin,NF,C,,,,,,,,,,9
9,prac,1,con,1,m,Tue Mar 03 2026 15:20:40 GMT-0600 (Central Standard Time),144582.80000007153,zinc,1000,I,m,,,534,,,15,2,2843.9000000953674,141738.89999997616,8088,zinc,NF,C,,,,,,,,,,10
10,prac,1,inc,1,m,Tue Mar 03 2026 15:20:40 GMT-0600 (Central Standard Time),147715.60000002384,plum,1100,I,m,,,728,,,16,2,3127.2999999523163,144588.30000007153,8088,lead,NF,C,,,,,,,,,,11
11,prac,1,con,1,z,Tue Mar 03 2026 15:20:40 GMT-0600 (Central Standard Time),150564.80000007153,orange,1000,I,z,,,559,,,3,2,2844.9000000953674,147719.89999997616,8088,orange,NF,C,,,,,,,,,,12
12,prac,1,con,1,z,Tue Mar 03 2026 15:20:40 GMT-0600 (Central Standard Time),153430.5,lime,800,I,z,,,757,,,5,2,2861.600000023842,150568.89999997616,8088,lime,NF,C,,,,,,,,,,13
13,prac,1,inc,1,m,Tue Mar 03 2026 15:20:40 GMT-0600 (Central Standard Time),156213.0,pear,900,I,m,,,568,,,14,2,2778.399999976158,153434.60000002384,8088,iron,NF,C,,,,,,,,,,14
14,prac,1,con,1,m,Tue Mar 03 2026 15:20:40 GMT-0600 (Central Standard Time),159128.60000002384,bronze,800,I,m,,,815,,,9,2,2911.5,156217.10000002384,8088,bronze,NF,C,,,,,,,,,,15
15,prac,1,con,1,m,Tue Mar 03 2026 15:20:40 GMT-0600 (Central Standard Time),161777.80000007153,gold,800,I,m,,,545,,,13,2,2645.2000000476837,159132.60000002384,8088,gold,NF,C,,,,,,,,,,16
1,test,1,inc,1,z,Tue Mar 03 2026 15:20:40 GMT-0600 (Central Standard Time),208330.0,zinc,1000,I,z,z,None,647,433.0,214.0,63,2,2178.100000023842,206151.89999997616,8088,plum,NF,C,204742,204742,202997,204009,202997,205175,204526,204527,205175,1
2,test,1,con,1,m,Tue Mar 03 2026 15:20:40 GMT-0600 (Central Standard Time),210429.10000002384,bronze,1000,I,m,m,None,554,354.0,200.0,67,2,2093.7999999523163,208335.30000007153,8088,bronze,NF,C,206908,206908,205180,206192,205181,207274,206708,206708,207274,2
2,test,1,inc,0,z,Tue Mar 03 2026 15:20:40 GMT-0600 (Central Standard Time),212611.80000007153,copper,900,I,m,m,None,739,539.0,200.0,6,2,2178.3000000715256,210433.5,8088,banana,NF,C,208907,208907,207279,208191,207279,209457,208707,208707,209457,3
3,test,1,inc,1,z,Tue Mar 03 2026 15:20:40 GMT-0600 (Central Standard Time),215028.0,cobalt,1100,I,z,z,None,780,580.0,200.0,8,2,2412.100000023842,212615.89999997616,8088,banana,NF,C,211290,211290,209461,210573,209461,211873,211090,211090,211873,4
4,test,1,con,1,z,Tue Mar 03 2026 15:20:40 GMT-0600 (Central Standard Time),217510.20000004768,raisin,900,I,z,z,None,1036,836.0,200.0,26,2,2478.3000000715256,215031.89999997616,8088,raisin,NF,C,213506,213506,211877,212789,211877,214355,213306,213306,214355,5
5,test,1,con,1,m,Tue Mar 03 2026 15:20:40 GMT-0600 (Central Standard Time),219576.20000004768,zinc,800,I,m,m,None,715,516.0,199.0,113,2,2061.8000000715256,217514.39999997616,8088,zinc,NF,C,215889,215889,214359,215172,214360,216421,215689,215689,216421,6
6,test,1,inc,1,m,Tue Mar 03 2026 15:20:40 GMT-0600 (Central Standard Time),221825.80000007153,banana,800,I,m,m,None,907,707.0,200.0,85,2,2245.600000023842,219580.20000004768,8088,silver,NF,C,217955,217955,216425,217238,216426,218671,217754,217754,218671,7
7,test,1,inc,1,m,Tue Mar 03 2026 15:20:40 GMT-0600 (Central Standard Time),223941.70000004768,cherry,900,I,m,m,None,669,470.0,199.0,78,2,2111.899999976158,221829.80000007153,8088,copper,NF,C,220304,220304,218675,219587,218675,220787,220104,220104,220787,8
8,test,1,inc,1,m,Tue Mar 03 2026 15:20:40 GMT-0600 (Central Standard Time),226041.0,lime,800,I,m,m,None,757,558.0,199.0,125,2,2095.2999999523163,223945.70000004768,8088,lead,NF,C,222320,222320,220791,221603,220791,222886,222120,222120,222886,9
9,test,1,con,1,m,Tue Mar 03 2026 15:20:40 GMT-0600 (Central Standard Time),228657.0,copper,1000,I,m,m,None,1067,867.0,200.0,75,2,2611.899999976158,226045.10000002384,8088,copper,NF,C,224619,224619,222890,223903,222890,225502,224419,224419,225502,10
10,test,1,inc,1,m,Tue Mar 03 2026 15:20:40 GMT-0600 (Central Standard Time),231156.10000002384,raisin,1100,I,m,m,None,854,655.0,199.0,88,2,2494.899999976158,228661.20000004768,8088,silver,NF,C,227335,227335,225506,226618,225506,228001,227135,227135,228001,11
11,test,1,inc,1,z,Tue Mar 03 2026 15:20:40 GMT-0600 (Central Standard Time),233455.60000002384,cobalt,1100,I,z,z,None,651,451.0,200.0,24,2,2294.899999976158,231160.70000004768,8088,orange,NF,C,229834,229834,228006,229118,228006,230301,229634,229634,230301,12
12,test,1,inc,1,m,Tue Mar 03 2026 15:20:40 GMT-0600 (Central Standard Time),235521.20000004768,lime,800,I,m,m,None,732,532.0,200.0,117,2,2061.399999976158,233459.80000007153,8088,zinc,NF,C,231833,231833,230305,231117,230305,232366,231633,231633,232366,13
13,test,1,con,1,z,Tue Mar 03 2026 15:20:40 GMT-0600 (Central Standard Time),237604.0,banana,900,I,z,z,None,638,439.0,199.0,2,2,2078.7999999523163,235525.20000004768,8088,banana,NF,C,233999,233999,232370,233283,232370,234449,233800,233800,234449,14
14,test,1,inc,1,z,Tue Mar 03 2026 15:20:40 GMT-0600 (Central Standard Time),239853.39999997616,silver,1000,I,z,z,None,712,512.0,200.0,23,2,2244.7999999523163,237608.60000002384,8088,orange,NF,C,236182,236182,234454,235466,234454,236698,235982,235982,236698,15
15,test,1,con,1,m,Tue Mar 03 2026 15:20:40 GMT-0600 (Central Standard Time),242086.0,bronze,900,I,m,m,None,795,595.0,200.0,66,2,2228.600000023842,239857.39999997616,8088,bronze,NF,C,238331,238331,236702,237615,236703,238931,238131,238131,238931,16
16,test,1,inc,1,m,Tue Mar 03 2026 15:20:40 GMT-0600 (Central Standard Time),244366.39999997616,pear,900,I,m,m,None,729,529.0,200.0,118,2,2276.2999999523163,242090.10000002384,8088,zinc,NF,C,240564,240564,238935,239848,238935,241211,240364,240364,241211,17
17,test,1,con,1,z,Tue Mar 03 2026 15:20:40 GMT-0600 (Central Standard Time),246584.5,orange,1000,I,z,z,None,673,474.0,199.0,19,2,2212.100000023842,244372.39999997616,8088,orange,NF,C,242947,242947,241217,242230,241218,243430,242747,242747,243430,18
18,test,1,con,1,z,Tue Mar 03 2026 15:20:40 GMT-0600 (Central Standard Time),248950.39999997616,orange,1100,I,z,z,None,717,518.0,199.0,20,2,2362.0,246588.39999997616,8088,orange,NF,C,245263,245263,243433,244546,243434,245795,245063,245063,245795,19
19,test,1,inc,1,z,Tue Mar 03 2026 15:20:40 GMT-0600 (Central Standard Time),251217.10000002384,silver,1000,I,z,z,None,732,517.0,215.0,15,2,2263.0,248954.10000002384,8088,cherry,NF,C,247545,247545,245799,246812,245799,248062,247329,247330,248062,20
20,test,1,inc,1,z,Tue Mar 03 2026 15:20:40 GMT-0600 (Central Standard Time),253499.0,lead,1100,I,z,z,None,646,447.0,199.0,56,2,2277.899999976158,251221.10000002384,8088,kiwi,NF,C,249895,249895,248066,249178,248066,250344,249695,249695,250344,21
21,test,1,inc,1,m,Tue Mar 03 2026 15:20:40 GMT-0600 (Central Standard Time),255648.39999997616,pear,900,I,m,m,None,708,508.0,200.0,126,2,2144.0999999046326,253504.30000007153,8088,lead,NF,C,251977,251977,250349,251260,250350,252493,251777,251777,252493,22
22,test,1,con,1,m,Tue Mar 03 2026 15:20:40 GMT-0600 (Central Standard Time),257964.39999997616,iron,1000,I,m,m,None,794,579.0,215.0,107,2,2312.0,255652.39999997616,8088,iron,NF,C,254227,254227,252497,253510,252498,254809,254011,254011,254809,23
23,test,1,con,1,m,Tue Mar 03 2026 15:20:40 GMT-0600 (Central Standard Time),260463.60000002384,bronze,1100,I,m,m,None,851,652.0,199.0,68,2,2495.100000023842,257968.5,8088,bronze,NF,C,256642,256642,254814,255926,254814,257309,256442,256443,257308,24
24,test,1,con,1,z,Tue Mar 03 2026 15:20:40 GMT-0600 (Central Standard Time),262946.2000000477,raisin,1100,I,z,z,None,839,640.0,199.0,28,2,2478.7000000476837,260467.5,8088,raisin,NF,C,259142,259142,257313,258425,257313,259791,258942,258942,259791,25
25,test,1,con,1,z,Tue Mar 03 2026 15:20:40 GMT-0600 (Central Standard Time),265145.2000000477,raisin,1000,I,z,z,None,666,466.0,200.0,27,2,2194.8000000715256,262950.39999997616,8088,raisin,NF,C,261524,261524,259795,260808,259796,261990,261324,261324,261990,26
26,test,1,inc,1,m,Tue Mar 03 2026 15:20:40 GMT-0600 (Central Standard Time),267194.7000000477,banana,800,I,m,m,None,705,506.0,199.0,69,2,2045.8000000715256,265148.89999997616,8088,bronze,NF,C,263524,263524,261994,262807,261994,264040,263324,263324,264040,27
27,test,1,con,1,z,Tue Mar 03 2026 15:20:40 GMT-0600 (Central Standard Time),269310.7000000477,orange,800,I,z,z,None,777,577.0,200.0,17,2,2112.0,267198.7000000477,8088,orange,NF,C,265573,265573,264044,264859,264044,266156,265373,265373,266156,28
28,test,1,con,1,m,Tue Mar 03 2026 15:20:40 GMT-0600 (Central Standard Time),271693.5,zinc,1000,I,m,m,None,837,637.0,200.0,115,2,2378.5,269315.0,8088,zinc,NF,C,267889,267889,266160,267173,266160,268539,267689,267689,268539,29
29,test,1,inc,1,m,Tue Mar 03 2026 15:20:40 GMT-0600 (Central Standard Time),274592.8000000715,plum,1100,I,m,m,None,1267,1067.0,200.0,128,2,2895.5,271697.3000000715,8088,lead,NF,C,270371,270371,268542,269655,268543,271438,270171,270171,271438,30
30,test,1,con,1,m,Tue Mar 03 2026 15:20:40 GMT-0600 (Central Standard Time),276525.3000000715,silver,800,I,m,m,None,594,395.0,199.0,81,2,1929.2000000476837,274596.10000002384,8088,silver,NF,C,272971,272971,271441,272254,271441,273370,272771,272771,273370,31
31,test,1,con,1,z,Tue Mar 03 2026 15:20:40 GMT-0600 (Central Standard Time),278607.7000000477,cherry,1100,I,z,z,None,434,234.0,200.0,12,2,2078.399999976158,276529.3000000715,8088,cherry,NF,C,275203,275203,273374,274487,273375,275453,275003,275003,275453,32
32,test,1,inc,1,z,Tue Mar 03 2026 15:20:40 GMT-0600 (Central Standard Time),280924.10000002384,zinc,1000,I,z,z,None,771,571.0,200.0,39,2,2312.7999999523163,278611.3000000715,8088,lime,NF,C,277186,277186,275456,276470,275457,277769,276986,276986,277769,33
33,test,1,inc,1,m,Tue Mar 03 2026 15:20:40 GMT-0600 (Central Standard Time),283439.60000002384,plum,1100,I,m,m,None,867,667.0,200.0,104,2,2512.0,280927.60000002384,8088,gold,NF,C,279602,279602,277773,278885,277773,280285,279402,279402,280285,34
34,test,1,inc,1,z,Tue Mar 03 2026 15:20:40 GMT-0600 (Central Standard Time),285723.39999997616,lead,1100,I,z,z,None,664,465.0,199.0,40,2,2280.2999999523163,283443.10000002384,8088,lime,NF,C,282101,282101,280288,281401,280288,282568,281902,281902,282568,35
35,test,1,con,1,m,Tue Mar 03 2026 15:20:40 GMT-0600 (Central Standard Time),287821.39999997616,bronze,800,I,m,m,None,752,553.0,199.0,65,2,2094.0,285727.39999997616,8088,bronze,NF,C,284101,284101,282572,283384,282573,284666,283901,283901,284666,36
36,test,1,inc,1,z,Tue Mar 03 2026 15:20:40 GMT-0600 (Central Standard Time),289837.60000002384,bronze,800,I,z,z,None,676,477.0,199.0,21,2,2012.2000000476837,287825.39999997616,8088,orange,NF,C,286200,286200,284670,285483,284671,286683,286000,286000,286683,37
37,test,1,con,1,z,Tue Mar 03 2026 15:20:40 GMT-0600 (Central Standard Time),292036.8000000715,lime,1000,I,z,z,None,635,420.0,215.0,35,2,2195.4000000953674,289841.39999997616,8088,lime,NF,C,288449,288449,286686,287699,286687,288882,288234,288234,288882,38
38,test,1,inc,1,m,Tue Mar 03 2026 15:20:40 GMT-0600 (Central Standard Time),294402.8000000715,pear,900,I,m,m,None,930,730.0,200.0,110,2,2362.2000000476837,292040.60000002384,8088,iron,NF,C,290515,290515,288886,289799,288886,291248,290315,290315,291248,39
39,test,1,inc,1,z,Tue Mar 03 2026 15:20:40 GMT-0600 (Central Standard Time),296535.5,iron,900,I,z,z,None,685,485.0,200.0,46,2,2128.5,294407.0,8088,pear,NF,C,292881,292881,291252,292165,291252,293381,292681,292681,293381,40
39,test,1,inc,0,m,Tue Mar 03 2026 15:20:40 GMT-0600 (Central Standard Time),298884.7000000477,plum,1100,I,z,z,None,711,512.0,199.0,120,2,2345.2000000476837,296539.5,8088,zinc,NF,C,295214,295214,293385,294497,293385,295730,295014,295014,295730,41
40,test,1,con,1,z,Tue Mar 03 2026 15:20:40 GMT-0600 (Central Standard Time),301000.7000000477,kiwi,800,I,z,z,None,766,567.0,199.0,49,2,2112.2000000476837,298888.5,8088,kiwi,NF,C,297263,297263,295734,296546,295734,297846,297063,297063,297846,42
41,test,1,inc,1,m,Tue Mar 03 2026 15:20:40 GMT-0600 (Central Standard Time),303550.3000000715,orange,1000,I,m,m,None,1002,802.0,200.0,79,2,2545.9000000953674,301004.39999997616,8088,copper,NF,C,299579,299579,297849,298862,297850,300395,299379,299379,300395,43
41,test,1,con,0,z,Tue Mar 03 2026 15:20:40 GMT-0600 (Central Standard Time),305482.60000002384,cherry,800,I,m,m,None,589,389.0,200.0,9,2,1928.7000000476837,303553.89999997616,8088,cherry,NF,C,301928,301928,300399,301212,300399,302328,301728,301728,302328,44
42,test,1,inc,1,m,Tue Mar 03 2026 15:20:40 GMT-0600 (Central Standard Time),307815.3000000715,banana,800,I,m,m,None,992,793.0,199.0,77,2,2329.2000000476837,305486.10000002384,8088,copper,NF,C,303861,303861,302331,303146,302331,304660,303661,303661,304660,45
43,test,1,inc,1,m,Tue Mar 03 2026 15:20:40 GMT-0600 (Central Standard Time),310031.3000000715,kiwi,1000,I,m,m,None,675,460.0,215.0,127,2,2212.0,307819.3000000715,8088,lead,NF,C,306410,306410,304664,305677,304665,306876,306195,306195,306876,46
44,test,1,con,1,z,Tue Mar 03 2026 15:20:40 GMT-0600 (Central Standard Time),312313.8000000715,pear,1000,I,z,z,None,747,548.0,199.0,43,2,2278.5,310035.3000000715,8088,pear,NF,C,308609,308609,306880,307893,306881,309159,308410,308410,309159,47
45,test,1,inc,1,m,Tue Mar 03 2026 15:20:40 GMT-0600 (Central Standard Time),314613.5,kiwi,1000,I,m,m,None,754,554.0,200.0,111,2,2296.2999999523163,312317.2000000477,8088,iron,NF,C,310892,310892,309162,310176,309163,311459,310692,310692,311458,48
46,test,1,con,1,z,Tue Mar 03 2026 15:20:40 GMT-0600 (Central Standard Time),316795.89999997616,banana,1000,I,z,z,None,647,447.0,200.0,3,2,2178.5999999046326,314617.3000000715,8088,banana,NF,C,313191,313191,311462,312475,311463,313641,312991,312991,313641,49
47,test,1,inc,1,m,Tue Mar 03 2026 15:20:40 GMT-0600 (Central Standard Time),319028.5,orange,1000,I,m,m,None,696,496.0,200.0,95,2,2228.899999976158,316799.60000002384,8088,cobalt,NF,C,315374,315374,313645,314657,313645,315874,315174,315174,315874,50
48,test,1,con,1,m,Tue Mar 03 2026 15:20:40 GMT-0600 (Central Standard Time),321294.7000000477,iron,800,I,m,m,None,918,719.0,199.0,105,2,2262.399999976158,319032.3000000715,8088,iron,NF,C,317406,317406,315877,316690,315878,318140,317207,317207,318140,51
49,test,1,con,1,z,Tue Mar 03 2026 15:20:40 GMT-0600 (Central Standard Time),323443.8000000715,lime,900,I,z,z,None,713,513.0,200.0,34,2,2144.600000023842,321299.2000000477,8088,lime,NF,C,319773,319773,318144,319056,318144,320289,319572,319572,320289,52
50,test,1,con,1,m,Tue Mar 03 2026 15:20:40 GMT-0600 (Central Standard Time),325876.5,iron,1100,I,m,m,None,788,588.0,200.0,108,2,2429.0,323447.5,8088,iron,NF,C,322122,322122,320293,321405,320293,322722,321922,321922,322722,53
51,test,1,inc,1,z,Tue Mar 03 2026 15:20:40 GMT-0600 (Central Standard Time),328008.89999997616,iron,900,I,z,z,None,692,492.0,200.0,38,2,2128.6999999284744,325880.2000000477,8088,lime,NF,C,324354,324354,322725,323638,322725,324854,324154,324154,324854,54
52,test,1,con,1,z,Tue Mar 03 2026 15:20:40 GMT-0600 (Central Standard Time),330808.0,cherry,1000,I,z,z,None,1250,1050.0,200.0,11,2,2795.399999976158,328012.60000002384,8088,cherry,NF,C,326587,326587,324858,325871,324858,327653,326387,326387,327653,55
53,test,1,con,1,m,Tue Mar 03 2026 15:20:40 GMT-0600 (Central Standard Time),333140.8000000715,gold,1000,I,m,m,None,788,588.0,200.0,99,2,2328.3000000715256,330812.5,8088,gold,NF,C,329386,329386,327658,328670,327658,329986,329186,329186,329986,56
54,test,1,inc,1,z,Tue Mar 03 2026 15:20:40 GMT-0600 (Central Standard Time),335423.39999997616,silver,1000,I,z,z,None,734,534.0,200.0,7,2,2278.2999999523163,333145.10000002384,8088,banana,NF,C,331719,331719,329990,331002,329990,332269,331519,331519,332268,57
55,test,1,inc,1,m,Tue Mar 03 2026 15:20:40 GMT-0600 (Central Standard Time),337772.7000000477,pear,900,I,m,m,None,910,695.0,215.0,102,2,2345.8000000715256,335426.89999997616,8088,gold,NF,C,333918,333918,332272,333185,332272,334618,333703,333703,334618,58
56,test,1,inc,1,m,Tue Mar 03 2026 15:20:40 GMT-0600 (Central Standard Time),340022.0,orange,1000,I,m,m,None,702,502.0,200.0,87,2,2245.6999999284744,337776.3000000715,8088,silver,NF,C,336351,336351,334621,335634,334622,336867,336151,336151,336867,59
57,test,1,con,1,m,Tue Mar 03 2026 15:20:40 GMT-0600 (Central Standard Time),342487.8000000715,cobalt,1000,I,m,m,None,917,717.0,200.0,91,2,2461.8000000715256,340026.0,8088,cobalt,NF,C,338600,338600,336871,337884,336871,339333,338400,338400,339333,60
58,test,1,inc,1,z,Tue Mar 03 2026 15:20:40 GMT-0600 (Central Standard Time),344537.3000000715,gold,800,I,z,z,None,715,516.0,199.0,53,2,2045.3000000715256,342492.0,8088,kiwi,NF,C,340866,340866,339337,340150,339337,341382,340667,340667,341382,61
59,test,1,con,1,m,Tue Mar 03 2026 15:20:40 GMT-0600 (Central Standard Time),346920.60000002384,lead,1100,I,m,m,None,748,549.0,199.0,124,2,2379.2999999523163,344541.3000000715,8088,lead,NF,C,343215,343216,341386,342499,341387,343766,343016,343016,343766,62
60,test,1,inc,1,m,Tue Mar 03 2026 15:20:40 GMT-0600 (Central Standard Time),349502.3000000715,raisin,1100,I,m,m,None,934,735.0,199.0,80,2,2577.9000000953674,346924.39999997616,8088,copper,NF,C,345598,345598,343769,344881,343770,346347,345398,345398,346347,63
61,test,1,inc,1,z,Tue Mar 03 2026 15:20:40 GMT-0600 (Central Standard Time),352001.2000000477,lead,1100,I,z,z,None,863,664.0,199.0,48,2,2494.8000000715256,349506.39999997616,8088,pear,NF,C,348180,348181,346351,347464,346352,348846,347981,347981,348846,64
62,test,1,inc,1,z,Tue Mar 03 2026 15:20:40 GMT-0600 (Central Standard Time),354201.0,copper,900,I,z,z,None,750,551.0,199.0,22,2,2196.2999999523163,352004.7000000477,8088,orange,NF,C,350479,350479,348850,349763,348850,351046,350280,350280,351046,65
63,test,1,inc,1,m,Tue Mar 03 2026 15:20:40 GMT-0600 (Central Standard Time),356450.2000000477,orange,1000,I,m,m,None,700,500.0,200.0,71,2,2245.7000000476837,354204.5,8088,bronze,NF,C,352779,352779,351050,352063,351050,353295,352579,352579,353295,66
64,test,1,con,1,z,Tue Mar 03 2026 15:20:40 GMT-0600 (Central Standard Time),358899.39999997616,lime,1100,I,z,z,None,814,614.0,200.0,36,2,2445.5999999046326,356453.8000000715,8088,lime,NF,C,355128,355128,353299,354412,353299,355745,354928,354928,355744,67
65,test,1,con,1,m,Tue Mar 03 2026 15:20:40 GMT-0600 (Central Standard Time),361015.3000000715,lead,900,I,m,m,None,667,468.0,199.0,122,2,2112.3000000715256,358903.0,8088,lead,NF,C,357378,357378,355748,356661,355748,357860,357177,357178,357860,68
66,test,1,con,1,z,Tue Mar 03 2026 15:20:40 GMT-0600 (Central Standard Time),363264.7000000477,pear,800,I,z,z,None,914,699.0,215.0,41,2,2245.600000023842,361019.10000002384,8088,pear,NF,C,359394,359394,357864,358677,357864,360110,359178,359178,360110,69
67,test,1,con,1,z,Tue Mar 03 2026 15:20:40 GMT-0600 (Central Standard Time),365580.60000002384,kiwi,1000,I,z,z,None,769,570.0,199.0,51,2,2312.2999999523163,363268.3000000715,8088,kiwi,NF,C,361843,361843,360113,361126,360114,362426,361643,361643,362426,70
68,test,1,con,1,m,Tue Mar 03 2026 15:20:40 GMT-0600 (Central Standard Time),367663.39999997616,lead,800,I,m,m,None,734,534.0,200.0,121,2,2079.0999999046326,365584.3000000715,8088,lead,NF,C,363959,363959,362429,363242,362430,364509,363759,363759,364508,71
69,test,1,inc,1,m,Tue Mar 03 2026 15:20:40 GMT-0600 (Central Standard Time),369912.60000002384,cherry,900,I,m,m,None,808,609.0,199.0,70,2,2245.2999999523163,367667.3000000715,8088,bronze,NF,C,366141,366141,364512,365425,364513,366758,365942,365942,366758,72
70,test,1,inc,1,z,Tue Mar 03 2026 15:20:40 GMT-0600 (Central Standard Time),372128.60000002384,zinc,1000,I,z,z,None,681,482.0,199.0,55,2,2212.100000023842,369916.5,8088,kiwi,NF,C,368491,368491,366762,367774,366762,368974,368291,368291,368974,73
71,test,1,con,1,m,Tue Mar 03 2026 15:20:40 GMT-0600 (Central Standard Time),374477.8000000715,cobalt,1100,I,m,m,None,701,502.0,199.0,92,2,2345.5,372132.3000000715,8088,cobalt,NF,C,370807,370807,368977,370090,368978,371323,370607,370607,371323,74
72,test,1,con,1,z,Tue Mar 03 2026 15:20:40 GMT-0600 (Central Standard Time),376593.89999997616,plum,800,I,z,z,None,774,574.0,200.0,57,2,2112.2999999523163,374481.60000002384,8088,plum,NF,C,372856,372856,371327,372139,371327,373439,372656,372656,373439,75
73,test,1,con,1,m,Tue Mar 03 2026 15:20:40 GMT-0600 (Central Standard Time),378693.10000002384,gold,800,I,m,m,None,762,562.0,200.0,97,2,2095.600000023842,376597.5,8088,gold,NF,C,374972,374972,373443,374255,373443,375538,374772,374772,375538,76
74,test,1,con,1,m,Tue Mar 03 2026 15:20:40 GMT-0600 (Central Standard Time),380825.89999997616,cobalt,800,I,m,m,None,782,583.0,199.0,89,2,2128.7999999523163,378697.10000002384,8088,cobalt,NF,C,377071,377071,375542,376355,375542,377671,376872,376872,377671,77
75,test,1,con,1,z,Tue Mar 03 2026 15:20:40 GMT-0600 (Central Standard Time),383058.39999997616,orange,900,I,z,z,None,797,597.0,200.0,18,2,2228.899999976158,380829.5,8088,orange,NF,C,379304,379304,377675,378587,377675,379904,379104,379104,379903,78
76,test,1,inc,1,m,Tue Mar 03 2026 15:20:40 GMT-0600 (Central Standard Time),385141.2000000477,cherry,900,I,m,m,None,638,438.0,200.0,86,2,2079.0,383062.2000000477,8088,silver,NF,C,381536,381536,379907,380820,379907,381986,381336,381336,381986,79
77,test,1,inc,1,z,Tue Mar 03 2026 15:20:40 GMT-0600 (Central Standard Time),387490.8000000715,silver,1000,I,z,z,None,807,607.0,200.0,31,2,2346.0,385144.8000000715,8088,raisin,NF,C,383719,383719,381990,383003,381990,384336,383519,383519,384336,80
77,test,1,con,0,z,Tue Mar 03 2026 15:20:40 GMT-0600 (Central Standard Time),390006.10000002384,plum,1100,I,m,m,None,868,669.0,199.0,60,2,2511.7999999523163,387494.3000000715,8088,plum,NF,C,386169,386169,384339,385452,384339,386851,385968,385969,386851,81
78,test,1,inc,1,m,Tue Mar 03 2026 15:20:40 GMT-0600 (Central Standard Time),392355.5,raisin,1100,I,m,m,None,705,505.0,200.0,96,2,2345.5,390010.0,8088,cobalt,NF,C,388685,388685,386855,387968,386855,389201,388484,388484,389200,82
79,test,1,con,1,m,Tue Mar 03 2026 15:20:40 GMT-0600 (Central Standard Time),394571.60000002384,gold,900,I,m,m,None,778,579.0,199.0,98,2,2212.100000023842,392359.5,8088,gold,NF,C,390834,390834,389204,390117,389205,391417,390634,390634,391417,83
80,test,1,inc,1,m,Tue Mar 03 2026 15:20:40 GMT-0600 (Central Standard Time),396954.2000000477,plum,1100,I,m,m,None,740,540.0,200.0,112,2,2378.899999976158,394575.3000000715,8088,iron,NF,C,393250,393250,391420,392533,391421,393799,393049,393049,393799,84
81,test,1,con,1,m,Tue Mar 03 2026 15:20:40 GMT-0600 (Central Standard Time),399020.0,lead,1000,I,m,m,None,529,330.0,199.0,123,2,2061.899999976158,396958.10000002384,8088,lead,NF,C,395532,395532,393803,394816,393803,395865,395333,395333,395865,85
82,test,1,con,1,m,Tue Mar 03 2026 15:20:40 GMT-0600 (Central Standard Time),401036.10000002384,silver,900,I,m,m,None,572,372.0,200.0,82,2,2012.2999999523163,399023.8000000715,8088,silver,NF,C,397498,397498,395869,396782,395869,397881,397298,397298,397881,86
83,test,1,inc,1,z,Tue Mar 03 2026 15:20:40 GMT-0600 (Central Standard Time),403052.2000000477,gold,800,I,z,z,None,672,472.0,200.0,45,2,2012.0,401040.2000000477,8088,pear,NF,C,399414,399414,397885,398698,397885,399897,399214,399214,399897,87
84,test,1,inc,1,z,Tue Mar 03 2026 15:20:40 GMT-0600 (Central Standard Time),405084.8000000715,gold,800,I,z,z,None,696,496.0,200.0,37,2,2028.8000000715256,403056.0,8088,lime,NF,C,401430,401430,399901,400714,399901,401930,401230,401230,401930,88
85,test,1,con,1,z,Tue Mar 03 2026 15:20:40 GMT-0600 (Central Standard Time),407167.60000002384,pear,900,I,z,z,None,643,443.0,200.0,42,2,2079.2000000476837,405088.39999997616,8088,pear,NF,C,403563,403563,401933,402846,401934,404013,403363,403363,404013,89
86,test,1,con,1,z,Tue Mar 03 2026 15:20:40 GMT-0600 (Central Standard Time),409016.89999997616,banana,800,I,z,z,None,499,300.0,199.0,1,2,1845.6999999284744,407171.2000000477,8088,banana,NF,C,405546,405546,404016,404829,404016,405862,405346,405346,405862,90
87,test,1,con,1,z,Tue Mar 03 2026 15:20:40 GMT-0600 (Central Standard Time),411032.8000000715,plum,900,I,z,z,None,574,374.0,200.0,58,2,2011.3000000715256,409021.5,8088,plum,NF,C,407495,407495,405867,406779,405867,407878,407295,407295,407878,91
88,test,1,inc,1,z,Tue Mar 03 2026 15:20:40 GMT-0600 (Central Standard Time),413182.39999997616,iron,900,I,z,z,None,710,510.0,200.0,54,2,2145.7999999523163,411036.60000002384,8088,kiwi,NF,C,409512,409512,407882,408795,407882,410028,409311,409311,410027,92
89,test,1,inc,1,z,Tue Mar 03 2026 15:20:40 GMT-0600 (Central Standard Time),415148.39999997616,bronze,800,I,z,z,None,628,428.0,200.0,5,2,1962.1999999284744,413186.2000000477,8088,banana,NF,C,411562,411562,410031,410844,410031,411994,411361,411361,411993,93
90,test,1,con,1,z,Tue Mar 03 2026 15:20:40 GMT-0600 (Central Standard Time),417280.89999997616,kiwi,900,I,z,z,None,699,499.0,200.0,50,2,2128.7999999523163,415152.10000002384,8088,kiwi,NF,C,413626,413626,411997,412910,411997,414126,413426,413426,414126,94
91,test,1,inc,1,z,Tue Mar 03 2026 15:20:40 GMT-0600 (Central Standard Time),419413.8000000715,zinc,1000,I,z,z,None,595,395.0,200.0,47,2,2129.5,417284.3000000715,8088,pear,NF,C,415859,415859,414129,415143,414130,416259,415659,415659,416259,95
92,test,1,con,1,m,Tue Mar 03 2026 15:20:40 GMT-0600 (Central Standard Time),421613.3000000715,copper,900,I,m,m,None,753,554.0,199.0,74,2,2195.600000023842,419417.7000000477,8088,copper,NF,C,417892,417892,416263,417175,416263,418458,417692,417692,418458,96
93,test,1,con,1,m,Tue Mar 03 2026 15:20:40 GMT-0600 (Central Standard Time),423612.10000002384,silver,1000,I,m,m,None,462,262.0,200.0,83,2,1994.7000000476837,421617.39999997616,8088,silver,NF,C,420191,420191,418462,419475,418463,420457,419991,419991,420457,97
94,test,1,con,1,z,Tue Mar 03 2026 15:20:40 GMT-0600 (Central Standard Time),425828.39999997616,lime,800,I,z,z,None,870,669.0,201.0,33,2,2212.1999999284744,423616.2000000477,8088,lime,NF,C,421992,421992,420461,421274,420461,422673,421790,421790,422673,98
95,test,1,inc,1,z,Tue Mar 03 2026 15:20:40 GMT-0600 (Central Standard Time),428094.39999997616,gold,800,I,z,z,None,918,719.0,199.0,61,2,2262.399999976158,425832.0,8088,plum,NF,C,424207,424207,422677,423490,422677,424939,424007,424007,424939,99
96,test,1,inc,1,z,Tue Mar 03 2026 15:20:40 GMT-0600 (Central Standard Time),430260.39999997616,copper,900,I,z,z,None,730,530.0,200.0,30,2,2162.2999999523163,428098.10000002384,8088,raisin,NF,C,426572,426572,424943,425856,424943,427106,426372,426372,427105,100
97,test,1,inc,1,z,Tue Mar 03 2026 15:20:40 GMT-0600 (Central Standard Time),432559.39999997616,lead,1100,I,z,z,None,659,459.0,200.0,64,2,2295.2999999523163,430264.10000002384,8088,plum,NF,C,428938,428938,427109,428222,427109,429404,428738,428738,429404,101
98,test,1,inc,1,m,Tue Mar 03 2026 15:20:40 GMT-0600 (Central Standard Time),435092.2000000477,kiwi,1000,I,m,m,None,996,797.0,199.0,103,2,2529.2000000476837,432563.0,8088,gold,NF,C,431137,431137,429408,430421,429408,431937,430938,430938,431937,102
99,test,1,con,1,z,Tue Mar 03 2026 15:20:40 GMT-0600 (Central Standard Time),437441.5,banana,1100,I,z,z,None,716,516.0,200.0,4,2,2345.5,435096.0,8088,banana,NF,C,433770,433770,431941,433054,431941,434287,433570,433570,434287,103
99,test,1,con,0,m,Tue Mar 03 2026 15:20:40 GMT-0600 (Central Standard Time),439807.39999997616,iron,900,I,z,z,None,926,727.0,199.0,106,2,2362.2999999523163,437445.10000002384,8088,iron,NF,C,435919,435919,434290,435203,434290,436652,435720,435720,436652,104
100,test,1,inc,1,z,Tue Mar 03 2026 15:20:40 GMT-0600 (Central Standard Time),442023.39999997616,copper,900,I,z,z,None,766,566.0,200.0,14,2,2212.399999976158,439811.0,8088,cherry,NF,C,438287,438287,436656,437569,436656,438869,438086,438086,438868,105
101,test,1,con,1,m,Tue Mar 03 2026 15:20:40 GMT-0600 (Central Standard Time),444589.0,zinc,1100,I,m,m,None,921,720.0,201.0,116,2,2561.7999999523163,442027.2000000477,8088,zinc,NF,C,440702,440702,438872,439985,438872,441434,440501,440501,441434,106
102,test,1,inc,1,m,Tue Mar 03 2026 15:20:40 GMT-0600 (Central Standard Time),446822.0,cherry,900,I,m,m,None,794,595.0,199.0,94,2,2229.1999999284744,444592.8000000715,8088,cobalt,NF,C,443067,443067,441438,442351,441438,443667,442868,442868,443667,107
103,test,1,con,1,z,Tue Mar 03 2026 15:20:40 GMT-0600 (Central Standard Time),449204.39999997616,plum,1000,I,z,z,None,845,646.0,199.0,59,2,2378.399999976158,446826.0,8088,plum,NF,C,445400,445400,443671,444683,443671,446049,445200,445200,446049,108
104,test,1,con,1,m,Tue Mar 03 2026 15:20:40 GMT-0600 (Central Standard Time),451653.7000000477,silver,1100,I,m,m,None,803,603.0,200.0,84,2,2445.2000000476837,449208.5,8088,silver,NF,C,447883,447883,446054,447166,446054,448499,447682,447682,448499,109
105,test,1,con,1,m,Tue Mar 03 2026 15:20:40 GMT-0600 (Central Standard Time),453852.89999997616,cobalt,900,I,m,m,None,761,561.0,200.0,90,2,2195.0,451657.89999997616,8088,cobalt,NF,C,450133,450133,448503,449415,448503,450698,449932,449932,450698,110
106,test,1,inc,1,m,Tue Mar 03 2026 15:20:40 GMT-0600 (Central Standard Time),456035.8000000715,lime,800,I,m,m,None,839,639.0,200.0,109,2,2178.5,453857.3000000715,8088,iron,NF,C,452231,452231,450702,451514,450703,452881,452031,452031,452881,111
107,test,1,con,1,m,Tue Mar 03 2026 15:20:40 GMT-0600 (Central Standard Time),458018.3000000715,copper,800,I,m,m,None,639,440.0,199.0,73,2,1978.8000000715256,456039.5,8088,copper,NF,C,454414,454414,452885,453697,452885,454863,454214,454214,454863,112
108,test,1,inc,1,z,Tue Mar 03 2026 15:20:40 GMT-0600 (Central Standard Time),460350.8000000715,cobalt,1100,I,z,z,None,684,485.0,199.0,32,2,2328.8000000715256,458022.0,8088,raisin,NF,C,456696,456696,454867,455980,454867,457196,456496,456497,457196,113
109,test,1,con,1,z,Tue Mar 03 2026 15:20:40 GMT-0600 (Central Standard Time),462535.60000002384,raisin,800,I,z,z,None,845,645.0,200.0,25,2,2181.2999999523163,460354.3000000715,8088,raisin,NF,C,458729,458729,457199,458013,457200,459381,458529,458529,459381,114
110,test,1,con,1,m,Tue Mar 03 2026 15:20:40 GMT-0600 (Central Standard Time),464933.0,zinc,900,I,m,m,None,961,761.0,200.0,114,2,2394.100000023842,462538.89999997616,8088,zinc,NF,C,461012,461012,459384,460295,459384,461778,460812,460812,461778,115
111,test,1,inc,1,z,Tue Mar 03 2026 15:20:40 GMT-0600 (Central Standard Time),467048.89999997616,bronze,800,I,z,z,None,767,567.0,200.0,29,2,2112.2999999523163,464936.60000002384,8088,raisin,NF,C,463311,463311,461782,462594,461782,463894,463111,463111,463894,116
112,test,1,con,1,m,Tue Mar 03 2026 15:20:40 GMT-0600 (Central Standard Time),469781.3000000715,gold,1100,I,m,m,None,1088,888.0,200.0,100,2,2728.7000000476837,467052.60000002384,8088,gold,NF,C,465727,465727,463898,465010,463898,466627,465527,465527,466626,117
113,test,1,inc,1,m,Tue Mar 03 2026 15:20:40 GMT-0600 (Central Standard Time),471897.3000000715,lime,800,I,m,m,None,783,583.0,200.0,101,2,2112.2000000476837,469785.10000002384,8088,gold,NF,C,468159,468159,466630,467443,466630,468742,467959,467959,468742,118
114,test,1,con,1,z,Tue Mar 03 2026 15:20:40 GMT-0600 (Central Standard Time),473979.7000000477,cherry,900,I,z,z,None,645,446.0,199.0,10,2,2078.8000000715256,471900.89999997616,8088,cherry,NF,C,470375,470375,468746,469659,468746,470825,470176,470176,470825,119
115,test,1,con,1,z,Tue Mar 03 2026 15:20:40 GMT-0600 (Central Standard Time),476397.0,kiwi,1100,I,z,z,None,780,580.0,200.0,52,2,2413.7999999523163,473983.2000000477,8088,kiwi,NF,C,472658,472658,470828,471942,470828,473242,472458,472458,473242,120
116,test,1,inc,1,m,Tue Mar 03 2026 15:20:40 GMT-0600 (Central Standard Time),478512.10000002384,banana,800,I,m,m,None,768,568.0,200.0,93,2,2111.2999999523163,476400.8000000715,8088,cobalt,NF,C,474774,474774,473246,474058,473246,475357,474574,474574,475357,121
117,test,1,con,1,m,Tue Mar 03 2026 15:20:40 GMT-0600 (Central Standard Time),481178.0,copper,1100,I,m,m,None,949,740.0,209.0,76,2,2662.2999999523163,478515.7000000477,8088,copper,NF,C,477273,477273,475361,476473,475361,478023,477063,477064,478023,122
118,test,1,inc,1,m,Tue Mar 03 2026 15:20:40 GMT-0600 (Central Standard Time),483593.3000000715,kiwi,1000,I,m,m,None,873,673.0,200.0,119,2,2411.7000000476837,481181.60000002384,8088,zinc,NF,C,479756,479756,478027,479039,478027,480438,479556,479556,480438,123
119,test,1,con,1,z,Tue Mar 03 2026 15:20:40 GMT-0600 (Central Standard Time),486409.3000000715,pear,1100,I,z,z,None,1181,981.0,200.0,44,2,2812.600000023842,483596.7000000477,8088,pear,NF,C,482272,482272,480442,481555,480442,483254,482072,482072,483254,124
120,test,1,inc,1,z,Tue Mar 03 2026 15:20:40 GMT-0600 (Central Standard Time),488875.39999997616,bronze,800,I,z,z,None,1129,930.0,199.0,13,2,2463.0,486412.39999997616,8088,cherry,NF,C,484788,484788,483257,484072,483258,485720,484588,484588,485720,125
121,test,1,inc,1,z,Tue Mar 03 2026 15:20:40 GMT-0600 (Central Standard Time),491491.2000000477,cobalt,1100,I,z,z,None,973,773.0,200.0,16,2,2612.5,488878.7000000477,8088,cherry,NF,C,487553,487553,485724,486837,485724,488336,487353,487353,488336,126
122,test,1,inc,1,m,Tue Mar 03 2026 15:20:40 GMT-0600 (Central Standard Time),494306.60000002384,raisin,1100,I,m,m,None,1179,980.0,199.0,72,2,2811.399999976158,491495.2000000477,8088,bronze,NF,C,490169,490169,488340,489453,488340,491152,489970,489970,491152,127
123,test,1,inc,1,z,Tue Mar 03 2026 15:20:40 GMT-0600 (Central Standard Time),496922.8000000715,iron,900,I,z,z,None,1180,980.0,200.0,62,2,2612.600000023842,494310.2000000477,8088,plum,NF,C,492785,492785,491155,492069,491155,493768,492585,492585,493768,128
