acc_sum,block,block_c,condition,correct,correct_response,datetime,endtime,flanker,jitter,project,response,response_test_buffer_response,response_test_target_response,response_time,response_time_test_buffer_response,response_time_test_target_response,row_sel,session_number,start_end,starttime,subject_id,target,task,task_vers,time_test_buffer,time_test_buffer_response,time_test_constants,time_test_flanker,time_test_jitter,time_test_logger,time_test_target,time_test_target_response,time_test_variables,trial
1,prac,1,con,1,m,Thu Jun 18 2026 15:27:28 GMT-0500 (Central Daylight Time),173437.29999995232,silver,1000,I,m,,,1206,,,11,3,3506.9000000953674,169930.39999985695,8088,silver,NF,C,,,,,,,,,,1
2,prac,1,inc,1,z,Thu Jun 18 2026 15:27:28 GMT-0500 (Central Daylight Time),176587.79999995232,cobalt,1100,I,z,,,738,,,4,3,3145.5,173442.29999995232,8088,raisin,NF,C,,,,,,,,,,2
3,prac,1,inc,1,z,Thu Jun 18 2026 15:27:28 GMT-0500 (Central Daylight Time),179771.20000004768,lead,1100,I,z,,,769,,,8,3,3171.7000000476837,176599.5,8088,plum,NF,C,,,,,,,,,,3
4,prac,1,con,1,z,Thu Jun 18 2026 15:27:28 GMT-0500 (Central Daylight Time),182887.39999985695,kiwi,1000,I,z,,,811,,,7,3,3112.5,179774.89999985695,8088,kiwi,NF,C,,,,,,,,,,4
5,prac,1,inc,1,m,Thu Jun 18 2026 15:27:28 GMT-0500 (Central Daylight Time),185835.20000004768,cherry,900,I,m,,,753,,,10,3,2941.2000000476837,182894.0,8088,copper,NF,C,,,,,,,,,,5
6,prac,1,con,1,m,Thu Jun 18 2026 15:27:28 GMT-0500 (Central Daylight Time),188618.89999985695,bronze,800,I,m,,,681,,,9,3,2777.0999999046326,185841.79999995232,8088,bronze,NF,C,,,,,,,,,,6
7,prac,1,inc,1,m,Thu Jun 18 2026 15:27:28 GMT-0500 (Central Daylight Time),191566.09999990463,pear,900,I,m,,,759,,,14,3,2941.399999856949,188624.70000004768,8088,iron,NF,C,,,,,,,,,,7
8,prac,1,inc,1,m,Thu Jun 18 2026 15:27:28 GMT-0500 (Central Daylight Time),194632.29999995232,raisin,1100,I,m,,,660,,,12,3,3062.5999999046326,191569.70000004768,8088,cobalt,NF,C,,,,,,,,,,8
9,prac,1,con,1,z,Thu Jun 18 2026 15:27:28 GMT-0500 (Central Daylight Time),197466.39999985695,banana,800,I,z,,,739,,,1,3,2830.199999809265,194636.20000004768,8088,banana,NF,C,,,,,,,,,,9
10,prac,1,inc,1,z,Thu Jun 18 2026 15:27:28 GMT-0500 (Central Daylight Time),200482.29999995232,copper,900,I,z,,,816,,,2,3,3009.0,197473.29999995232,8088,cherry,NF,C,,,,,,,,,,10
11,prac,1,inc,1,z,Thu Jun 18 2026 15:27:28 GMT-0500 (Central Daylight Time),203413.79999995232,iron,900,I,z,,,718,,,6,3,2926.5999999046326,200487.20000004768,8088,pear,NF,C,,,,,,,,,,11
12,prac,1,con,1,z,Thu Jun 18 2026 15:27:28 GMT-0500 (Central Daylight Time),206013.5,lime,800,I,z,,,497,,,5,3,2594.4000000953674,203419.09999990463,8088,lime,NF,C,,,,,,,,,,12
13,prac,1,con,1,m,Thu Jun 18 2026 15:27:28 GMT-0500 (Central Daylight Time),208712.39999985695,gold,800,I,m,,,583,,,13,3,2693.399999856949,206019.0,8088,gold,NF,C,,,,,,,,,,13
14,prac,1,inc,1,m,Thu Jun 18 2026 15:27:28 GMT-0500 (Central Daylight Time),211893.79999995232,plum,1100,I,m,,,779,,,16,3,3173.5999999046326,208720.20000004768,8088,lead,NF,C,,,,,,,,,,14
15,prac,1,con,1,m,Thu Jun 18 2026 15:27:28 GMT-0500 (Central Daylight Time),215026.29999995232,zinc,1000,I,m,,,829,,,15,3,3128.2000000476837,211898.09999990463,8088,zinc,NF,C,,,,,,,,,,15
15,prac,1,con,0,z,Thu Jun 18 2026 15:27:28 GMT-0500 (Central Daylight Time),217908.5,orange,1000,I,m,,,569,,,3,3,2875.5,215033.0,8088,orange,NF,C,,,,,,,,,,16
0,prac,2,con,0,m,Thu Jun 18 2026 15:27:28 GMT-0500 (Central Daylight Time),237636.39999985695,silver,1000,I,None,,,1800,,,11,3,5057.899999856949,232578.5,8088,silver,NF,C,,,,,,,,,,1
1,prac,2,inc,1,z,Thu Jun 18 2026 15:27:28 GMT-0500 (Central Daylight Time),240751.70000004768,cobalt,1100,I,z,,,700,,,4,3,3108.5,237643.20000004768,8088,raisin,NF,C,,,,,,,,,,2
2,prac,2,inc,1,z,Thu Jun 18 2026 15:27:28 GMT-0500 (Central Daylight Time),243717.79999995232,iron,900,I,z,,,752,,,6,3,2959.0999999046326,240758.70000004768,8088,pear,NF,C,,,,,,,,,,3
3,prac,2,con,1,z,Thu Jun 18 2026 15:27:28 GMT-0500 (Central Daylight Time),246600.20000004768,kiwi,1000,I,z,,,590,,,7,3,2874.600000143051,243725.59999990463,8088,kiwi,NF,C,,,,,,,,,,4
4,prac,2,con,1,m,Thu Jun 18 2026 15:27:28 GMT-0500 (Central Daylight Time),249433.09999990463,gold,800,I,m,,,717,,,13,3,2825.5,246607.59999990463,8088,gold,NF,C,,,,,,,,,,5
5,prac,2,con,1,z,Thu Jun 18 2026 15:27:28 GMT-0500 (Central Daylight Time),252014.0,banana,800,I,z,,,474,,,1,3,2576.100000143051,249437.89999985695,8088,banana,NF,C,,,,,,,,,,6
6,prac,2,con,1,z,Thu Jun 18 2026 15:27:28 GMT-0500 (Central Daylight Time),254814.79999995232,orange,1000,I,z,,,483,,,3,3,2795.5,252019.29999995232,8088,orange,NF,C,,,,,,,,,,7
7,prac,2,inc,1,m,Thu Jun 18 2026 15:27:28 GMT-0500 (Central Daylight Time),257813.89999985695,plum,1100,I,m,,,586,,,16,3,2992.2999999523163,254821.59999990463,8088,lead,NF,C,,,,,,,,,,8
8,prac,2,inc,1,m,Thu Jun 18 2026 15:27:28 GMT-0500 (Central Daylight Time),260896.29999995232,raisin,1100,I,m,,,667,,,12,3,3076.0,257820.29999995232,8088,cobalt,NF,C,,,,,,,,,,9
8,prac,2,con,0,z,Thu Jun 18 2026 15:27:28 GMT-0500 (Central Daylight Time),263544.2999999523,lime,800,I,m,,,549,,,5,3,2641.7999999523163,260902.5,8088,lime,NF,C,,,,,,,,,,10
9,prac,2,inc,1,z,Thu Jun 18 2026 15:27:28 GMT-0500 (Central Daylight Time),266460.0,copper,900,I,z,,,698,,,2,3,2911.2000000476837,263548.7999999523,8088,cherry,NF,C,,,,,,,,,,11
10,prac,2,inc,1,m,Thu Jun 18 2026 15:27:28 GMT-0500 (Central Daylight Time),269409.59999990463,pear,900,I,m,,,739,,,14,3,2943.399999856949,266466.2000000477,8088,iron,NF,C,,,,,,,,,,12
11,prac,2,con,1,m,Thu Jun 18 2026 15:27:28 GMT-0500 (Central Daylight Time),272492.59999990463,zinc,1000,I,m,,,770,,,15,3,3076.399999856949,269416.2000000477,8088,zinc,NF,C,,,,,,,,,,13
12,prac,2,con,1,m,Thu Jun 18 2026 15:27:28 GMT-0500 (Central Daylight Time),275275.09999990463,bronze,800,I,m,,,668,,,9,3,2776.399999856949,272498.7000000477,8088,bronze,NF,C,,,,,,,,,,14
13,prac,2,inc,1,m,Thu Jun 18 2026 15:27:28 GMT-0500 (Central Daylight Time),278223.7000000477,cherry,900,I,m,,,734,,,10,3,2943.5,275280.2000000477,8088,copper,NF,C,,,,,,,,,,15
14,prac,2,inc,1,z,Thu Jun 18 2026 15:27:28 GMT-0500 (Central Daylight Time),281306.09999990463,lead,1100,I,z,,,668,,,8,3,3076.5999999046326,278229.5,8088,plum,NF,C,,,,,,,,,,16
1,test,1,inc,1,m,Thu Jun 18 2026 15:27:28 GMT-0500 (Central Daylight Time),318659.2999999523,raisin,1100,I,m,m,None,647,448.0,199.0,72,3,2277.2000000476837,316382.09999990463,8088,bronze,NF,C,310887,310888,309059,310171,309059,311336,310687,310688,311336,1
2,test,1,con,1,z,Thu Jun 18 2026 15:27:28 GMT-0500 (Central Daylight Time),320542.2000000477,pear,800,I,z,z,None,553,353.0,200.0,41,3,1877.9000000953674,318664.2999999523,8088,pear,NF,C,312854,312854,311341,312153,311342,313219,312654,312654,313219,2
3,test,1,inc,1,m,Thu Jun 18 2026 15:27:28 GMT-0500 (Central Daylight Time),322675.89999985695,orange,1000,I,m,m,None,582,368.0,214.0,79,3,2124.2999999523163,320551.59999990463,8088,copper,NF,C,314969,314969,313229,314237,313229,315353,314753,314754,315353,3
4,test,1,con,1,z,Thu Jun 18 2026 15:27:28 GMT-0500 (Central Daylight Time),324657.5,plum,800,I,z,z,None,635,436.0,199.0,57,3,1975.0,322682.5,8088,plum,NF,C,316885,316885,315360,316170,315360,317335,316686,316686,317335,4
5,test,1,inc,1,m,Thu Jun 18 2026 15:27:28 GMT-0500 (Central Daylight Time),326974.2999999523,plum,1100,I,m,m,None,670,470.0,200.0,128,3,2312.2999999523163,324662.0,8088,lead,NF,C,319168,319169,317339,318451,317339,319651,318968,318968,319651,5
6,test,1,con,1,z,Thu Jun 18 2026 15:27:28 GMT-0500 (Central Daylight Time),328874.5,orange,900,I,z,z,None,453,253.0,200.0,18,3,1892.6000001430511,326981.89999985695,8088,orange,NF,C,321283,321283,319659,320567,319659,321552,321082,321082,321552,6
7,test,1,con,1,m,Thu Jun 18 2026 15:27:28 GMT-0500 (Central Daylight Time),330688.59999990463,zinc,800,I,m,m,None,476,275.0,201.0,113,3,1808.8999998569489,328879.7000000477,8088,zinc,NF,C,323084,323084,321557,322367,321557,323366,322883,322883,323366,7
8,test,1,inc,1,z,Thu Jun 18 2026 15:27:28 GMT-0500 (Central Daylight Time),332787.7999999523,bronze,800,I,z,z,None,762,563.0,199.0,29,3,2094.9000000953674,330692.89999985695,8088,raisin,NF,C,324899,324899,323370,324183,323370,325465,324699,324699,325465,8
9,test,1,con,1,z,Thu Jun 18 2026 15:27:28 GMT-0500 (Central Daylight Time),334939.59999990463,pear,1000,I,z,z,None,600,401.0,199.0,43,3,2148.899999856949,332790.7000000477,8088,pear,NF,C,327200,327200,325468,326483,325468,327617,326999,327000,327616,9
10,test,1,con,1,m,Thu Jun 18 2026 15:27:28 GMT-0500 (Central Daylight Time),336971.2000000477,bronze,800,I,m,m,None,715,516.0,199.0,65,3,2024.7000000476837,334946.5,8088,bronze,NF,C,329131,329132,327624,328431,327624,329648,328932,328932,329648,10
11,test,1,inc,1,m,Thu Jun 18 2026 15:27:28 GMT-0500 (Central Daylight Time),339019.59999990463,banana,800,I,m,m,None,704,504.0,200.0,69,3,2045.7000000476837,336973.89999985695,8088,bronze,NF,C,331182,331182,329651,330468,329651,331697,330982,330982,331697,11
11,test,1,con,0,m,Thu Jun 18 2026 15:27:28 GMT-0500 (Central Daylight Time),340987.0,lead,800,I,z,z,None,619,418.0,201.0,121,3,1963.2000000476837,339023.7999999523,8088,lead,NF,C,333231,333231,331701,332514,331701,333664,333030,333030,333664,12
12,test,1,con,1,m,Thu Jun 18 2026 15:27:28 GMT-0500 (Central Daylight Time),343102.09999990463,gold,900,I,m,m,None,680,479.0,201.0,98,3,2110.399999856949,340991.7000000477,8088,gold,NF,C,335297,335297,333669,334580,333669,335779,335096,335096,335779,13
13,test,1,inc,1,m,Thu Jun 18 2026 15:27:28 GMT-0500 (Central Daylight Time),345316.2000000477,kiwi,1000,I,m,m,None,669,470.0,199.0,119,3,2210.4000000953674,343105.7999999523,8088,zinc,NF,C,337512,337512,335783,336797,335783,337993,337313,337313,337993,14
14,test,1,con,1,z,Thu Jun 18 2026 15:27:28 GMT-0500 (Central Daylight Time),347384.0,lime,900,I,z,z,None,616,401.0,215.0,34,3,2065.0,345319.0,8088,lime,NF,C,339646,339646,337996,338913,337996,340061,339430,339430,340061,15
15,test,1,inc,1,z,Thu Jun 18 2026 15:27:28 GMT-0500 (Central Daylight Time),349500.2000000477,gold,800,I,z,z,None,773,572.0,201.0,61,3,2110.800000190735,347389.39999985695,8088,plum,NF,C,341595,341595,340066,340876,340067,342177,341393,341393,342177,16
16,test,1,inc,1,z,Thu Jun 18 2026 15:27:28 GMT-0500 (Central Daylight Time),351716.7999999523,zinc,1000,I,z,z,None,682,483.0,199.0,63,3,2211.0,349505.7999999523,8088,plum,NF,C,343911,343911,342183,343194,342183,344394,343711,343711,344394,17
17,test,1,con,1,z,Thu Jun 18 2026 15:27:28 GMT-0500 (Central Daylight Time),353982.0,kiwi,1000,I,z,z,None,732,533.0,199.0,51,3,2260.0,351722.0,8088,kiwi,NF,C,346126,346126,344399,345410,344399,346659,345926,345926,346659,18
18,test,1,inc,1,z,Thu Jun 18 2026 15:27:28 GMT-0500 (Central Daylight Time),356298.09999990463,cobalt,1100,I,z,z,None,675,475.0,200.0,8,3,2311.7999999523163,353986.2999999523,8088,banana,NF,C,348493,348493,346663,347775,346664,348975,348292,348293,348975,19
19,test,1,inc,1,m,Thu Jun 18 2026 15:27:28 GMT-0500 (Central Daylight Time),358481.2999999523,cherry,900,I,m,m,None,734,519.0,215.0,70,3,2175.7999999523163,356305.5,8088,bronze,NF,C,350624,350624,348983,349892,348983,351158,350409,350409,351158,20
20,test,1,inc,1,m,Thu Jun 18 2026 15:27:28 GMT-0500 (Central Daylight Time),360746.7999999523,orange,1000,I,m,m,None,740,541.0,199.0,95,3,2261.0999999046326,358485.7000000477,8088,cobalt,NF,C,352874,352874,351163,352174,351163,353424,352675,352675,353424,21
21,test,1,con,1,m,Thu Jun 18 2026 15:27:28 GMT-0500 (Central Daylight Time),363065.09999990463,lead,1000,I,m,m,None,780,581.0,199.0,123,3,2312.5,360752.59999990463,8088,lead,NF,C,355155,355155,353430,354441,353430,355742,354956,354956,355742,22
22,test,1,con,1,m,Thu Jun 18 2026 15:27:28 GMT-0500 (Central Daylight Time),365277.0,zinc,1100,I,m,m,None,575,361.0,214.0,116,3,2207.9000000953674,363069.09999990463,8088,zinc,NF,C,357590,357590,355746,356856,355746,357954,357375,357375,357954,23
23,test,1,inc,1,z,Thu Jun 18 2026 15:27:28 GMT-0500 (Central Daylight Time),367360.89999985695,copper,900,I,z,z,None,642,441.0,201.0,14,3,2079.399999856949,365281.5,8088,cherry,NF,C,359590,359590,357959,358873,357959,360038,359388,359388,360038,24
24,test,1,con,1,m,Thu Jun 18 2026 15:27:28 GMT-0500 (Central Daylight Time),369628.09999990463,bronze,1000,I,m,m,None,716,517.0,199.0,67,3,2261.5,367366.59999990463,8088,bronze,NF,C,361772,361772,360044,361055,360044,362305,361572,361572,362305,25
25,test,1,inc,1,m,Thu Jun 18 2026 15:27:28 GMT-0500 (Central Daylight Time),371827.0,kiwi,1000,I,m,m,None,651,451.0,200.0,127,3,2194.0,369633.0,8088,lead,NF,C,364038,364038,362310,363322,362310,364504,363837,363837,364504,26
26,test,1,con,1,z,Thu Jun 18 2026 15:27:28 GMT-0500 (Central Daylight Time),374042.5,cherry,900,I,z,z,None,775,575.0,200.0,10,3,2210.2000000476837,371832.2999999523,8088,cherry,NF,C,366136,366136,364509,365420,364510,366720,365936,365936,366720,27
27,test,1,inc,1,m,Thu Jun 18 2026 15:27:28 GMT-0500 (Central Daylight Time),376174.5,kiwi,1000,I,m,m,None,593,394.0,199.0,111,3,2125.9000000953674,374048.59999990463,8088,iron,NF,C,368452,368453,366726,367737,366726,368852,368253,368253,368852,28
28,test,1,inc,1,z,Thu Jun 18 2026 15:27:28 GMT-0500 (Central Daylight Time),378341.2999999523,silver,1000,I,z,z,None,617,416.0,201.0,23,3,2163.2999999523163,376178.0,8088,orange,NF,C,370585,370585,368855,369870,368855,371018,370384,370384,371018,29
29,test,1,inc,1,z,Thu Jun 18 2026 15:27:28 GMT-0500 (Central Daylight Time),380373.7000000477,iron,900,I,z,z,None,595,395.0,200.0,46,3,2027.6000001430511,378346.09999990463,8088,pear,NF,C,372651,372651,371023,371935,371023,373051,372451,372451,373051,30
30,test,1,inc,1,m,Thu Jun 18 2026 15:27:28 GMT-0500 (Central Daylight Time),382639.59999990463,plum,1100,I,m,m,None,633,434.0,199.0,120,3,2263.0999999046326,380376.5,8088,zinc,NF,C,374868,374868,373054,374167,373054,375317,374668,374668,375317,31
31,test,1,con,1,z,Thu Jun 18 2026 15:27:28 GMT-0500 (Central Daylight Time),384955.09999990463,raisin,1100,I,z,z,None,688,488.0,200.0,28,3,2312.5,382642.59999990463,8088,raisin,NF,C,377135,377135,375320,376433,375320,377632,376934,376934,377632,32
32,test,1,inc,1,z,Thu Jun 18 2026 15:27:28 GMT-0500 (Central Daylight Time),387020.7999999523,copper,900,I,z,z,None,635,436.0,199.0,6,3,2061.5,384959.2999999523,8088,banana,NF,C,379250,379250,377636,378548,377637,379698,379050,379050,379698,33
33,test,1,inc,1,z,Thu Jun 18 2026 15:27:28 GMT-0500 (Central Daylight Time),389237.7000000477,lead,1100,I,z,z,None,580,381.0,199.0,64,3,2211.0,387026.7000000477,8088,plum,NF,C,381531,381531,379704,380816,379704,381915,381331,381332,381915,34
34,test,1,inc,1,z,Thu Jun 18 2026 15:27:28 GMT-0500 (Central Daylight Time),391170.09999990463,gold,800,I,z,z,None,598,399.0,199.0,37,3,1928.2000000476837,389241.89999985695,8088,lime,NF,C,383432,383432,381919,382731,381919,383847,383233,383233,383847,35
35,test,1,con,1,z,Thu Jun 18 2026 15:27:28 GMT-0500 (Central Daylight Time),393268.7999999523,orange,1100,I,z,z,None,449,250.0,199.0,20,3,2095.0,391173.7999999523,8088,orange,NF,C,385680,385680,383851,384964,383851,385946,385481,385481,385946,36
36,test,1,con,1,z,Thu Jun 18 2026 15:27:28 GMT-0500 (Central Daylight Time),395351.7000000477,orange,1000,I,z,z,None,542,343.0,199.0,19,3,2077.7000000476837,393274.0,8088,orange,NF,C,387679,387679,385951,386963,385951,388029,387479,387479,388029,37
37,test,1,con,1,m,Thu Jun 18 2026 15:27:28 GMT-0500 (Central Daylight Time),397534.59999990463,silver,800,I,m,m,None,835,617.0,218.0,81,3,2179.7999999523163,395354.7999999523,8088,silver,NF,C,389581,389582,388032,388848,388032,390212,389363,389363,390212,38
38,test,1,con,1,m,Thu Jun 18 2026 15:27:28 GMT-0500 (Central Daylight Time),399667.5,bronze,900,I,m,m,None,684,485.0,199.0,66,3,2128.9000000953674,397538.59999990463,8088,bronze,NF,C,391845,391845,390216,391130,390216,392345,391646,391646,392344,39
39,test,1,con,1,z,Thu Jun 18 2026 15:27:28 GMT-0500 (Central Daylight Time),401451.7999999523,cherry,800,I,z,z,None,433,234.0,199.0,9,3,1778.5999999046326,399673.2000000477,8088,cherry,NF,C,393878,393879,392350,393162,392350,394129,393679,393679,394129,40
40,test,1,con,1,z,Thu Jun 18 2026 15:27:28 GMT-0500 (Central Daylight Time),403549.2999999523,cherry,1000,I,z,z,None,562,363.0,199.0,11,3,2093.0,401456.2999999523,8088,cherry,NF,C,395861,395861,394133,395145,394134,396226,395661,395661,396226,41
41,test,1,con,1,m,Thu Jun 18 2026 15:27:28 GMT-0500 (Central Daylight Time),405730.59999990463,cobalt,1000,I,m,m,None,645,445.0,200.0,91,3,2176.899999856949,403553.7000000477,8088,cobalt,NF,C,397961,397961,396231,397244,396231,398408,397760,397760,398408,42
42,test,1,con,1,z,Thu Jun 18 2026 15:27:28 GMT-0500 (Central Daylight Time),407932.09999990463,plum,900,I,z,z,None,756,557.0,199.0,58,3,2198.5999999046326,405733.5,8088,plum,NF,C,400042,400042,398411,399327,398411,400609,399843,399843,400609,43
43,test,1,inc,1,z,Thu Jun 18 2026 15:27:28 GMT-0500 (Central Daylight Time),410246.09999990463,lead,1100,I,z,z,None,675,475.0,200.0,56,3,2309.0999999046326,407937.0,8088,kiwi,NF,C,402443,402443,400614,401726,400614,402923,402242,402242,402923,44
44,test,1,inc,1,m,Thu Jun 18 2026 15:27:28 GMT-0500 (Central Daylight Time),412395.7999999523,orange,1000,I,m,m,None,629,428.0,201.0,71,3,2146.7999999523163,410249.0,8088,bronze,NF,C,404642,404642,402926,403940,402926,405073,404441,404441,405073,45
45,test,1,con,1,m,Thu Jun 18 2026 15:27:28 GMT-0500 (Central Daylight Time),414630.59999990463,iron,1000,I,m,m,None,699,498.0,201.0,107,3,2231.2999999523163,412399.2999999523,8088,iron,NF,C,406808,406808,405076,406090,405076,407308,406607,406607,407308,46
46,test,1,con,1,z,Thu Jun 18 2026 15:27:28 GMT-0500 (Central Daylight Time),416545.2999999523,lime,800,I,z,z,None,582,382.0,200.0,33,3,1911.0999999046326,414634.2000000477,8088,lime,NF,C,408824,408824,407311,408122,407312,409222,408623,408623,409222,47
47,test,1,inc,1,z,Thu Jun 18 2026 15:27:28 GMT-0500 (Central Daylight Time),418845.2000000477,cobalt,1100,I,z,z,None,664,450.0,214.0,24,3,2295.800000190735,416549.39999985695,8088,orange,NF,C,411072,411072,409226,410340,409227,411522,410858,410858,411522,48
48,test,1,inc,1,m,Thu Jun 18 2026 15:27:28 GMT-0500 (Central Daylight Time),421059.89999985695,pear,900,I,m,m,None,772,570.0,202.0,118,3,2209.5999999046326,418850.2999999523,8088,zinc,NF,C,413157,413157,411527,412438,411528,413737,412955,412955,413737,49
49,test,1,con,1,z,Thu Jun 18 2026 15:27:28 GMT-0500 (Central Daylight Time),423344.7000000477,pear,1100,I,z,z,None,642,442.0,200.0,44,3,2280.5,421064.2000000477,8088,pear,NF,C,415573,415573,413741,414855,413742,416022,415372,415372,416022,50
50,test,1,inc,1,m,Thu Jun 18 2026 15:27:28 GMT-0500 (Central Daylight Time),425391.5,banana,800,I,m,m,None,708,507.0,201.0,93,3,2043.2000000476837,423348.2999999523,8088,cobalt,NF,C,417555,417555,416025,416837,416025,418069,417354,417354,418068,51
51,test,1,con,1,z,Thu Jun 18 2026 15:27:28 GMT-0500 (Central Daylight Time),427540.59999990463,raisin,800,I,z,z,None,812,612.0,200.0,25,3,2145.7999999523163,425394.7999999523,8088,raisin,NF,C,419603,419603,418072,418886,418072,420218,419402,419402,420218,52
52,test,1,con,1,m,Thu Jun 18 2026 15:27:28 GMT-0500 (Central Daylight Time),429556.7999999523,cobalt,800,I,m,m,None,677,478.0,199.0,89,3,2011.2999999523163,427545.5,8088,cobalt,NF,C,421752,421752,420223,421035,420223,422234,421552,421552,422234,53
52,test,1,inc,0,m,Thu Jun 18 2026 15:27:28 GMT-0500 (Central Daylight Time),431873.09999990463,pear,900,I,z,z,None,867,668.0,199.0,102,3,2313.5999999046326,429559.5,8088,gold,NF,C,423868,423868,422237,423151,422237,424550,423668,423668,424550,54
53,test,1,con,1,m,Thu Jun 18 2026 15:27:28 GMT-0500 (Central Daylight Time),434022.39999985695,iron,900,I,m,m,None,702,502.0,200.0,106,3,2143.199999809265,431879.2000000477,8088,iron,NF,C,426184,426185,424556,425468,424556,426699,425984,425984,426699,55
54,test,1,con,1,m,Thu Jun 18 2026 15:27:28 GMT-0500 (Central Daylight Time),436205.89999985695,copper,1000,I,m,m,None,654,455.0,199.0,75,3,2177.2999999523163,434028.59999990463,8088,copper,NF,C,428416,428416,426706,427716,426706,428883,428217,428217,428883,56
55,test,1,inc,1,m,Thu Jun 18 2026 15:27:28 GMT-0500 (Central Daylight Time),438421.0,pear,900,I,m,m,None,770,570.0,200.0,110,3,2209.7000000476837,436211.2999999523,8088,iron,NF,C,430517,430517,428888,429799,428889,431098,430316,430316,431098,57
56,test,1,inc,1,z,Thu Jun 18 2026 15:27:28 GMT-0500 (Central Daylight Time),440553.7999999523,silver,1000,I,z,z,None,583,384.0,199.0,15,3,2126.9000000953674,438426.89999985695,8088,cherry,NF,C,432832,432832,431104,432116,431104,433231,432632,432632,433231,58
57,test,1,inc,1,m,Thu Jun 18 2026 15:27:28 GMT-0500 (Central Daylight Time),442852.89999985695,cherry,900,I,m,m,None,863,663.0,200.0,78,3,2291.5,440561.39999985695,8088,copper,NF,C,434864,434864,433238,434147,433239,435530,434664,434664,435530,59
58,test,1,con,1,z,Thu Jun 18 2026 15:27:28 GMT-0500 (Central Daylight Time),445035.5,pear,900,I,z,z,None,734,534.0,200.0,42,3,2175.100000143051,442860.39999985695,8088,pear,NF,C,437163,437163,435537,436447,435538,437713,436963,436963,437712,60
59,test,1,inc,1,m,Thu Jun 18 2026 15:27:28 GMT-0500 (Central Daylight Time),447101.7000000477,kiwi,1000,I,m,m,None,529,329.0,200.0,103,3,2059.5,445042.2000000477,8088,gold,NF,C,439446,439446,437719,438729,437719,439779,439246,439246,439779,61
60,test,1,con,1,z,Thu Jun 18 2026 15:27:28 GMT-0500 (Central Daylight Time),449318.0,lime,1100,I,z,z,None,570,370.0,200.0,36,3,2210.2000000476837,447107.7999999523,8088,lime,NF,C,441613,441613,439785,440896,439785,441995,441412,441412,441995,62
61,test,1,con,1,z,Thu Jun 18 2026 15:27:28 GMT-0500 (Central Daylight Time),451666.7999999523,banana,1100,I,z,z,None,706,507.0,199.0,4,3,2342.5,449324.2999999523,8088,banana,NF,C,443828,443828,442001,443112,442002,444344,443628,443628,444344,63
62,test,1,inc,1,z,Thu Jun 18 2026 15:27:28 GMT-0500 (Central Daylight Time),453834.0,gold,800,I,z,z,None,818,618.0,200.0,53,3,2159.600000143051,451674.39999985695,8088,kiwi,NF,C,445877,445877,444351,445161,444352,446511,445677,445677,446511,64
63,test,1,con,1,m,Thu Jun 18 2026 15:27:28 GMT-0500 (Central Daylight Time),455915.7999999523,zinc,1000,I,m,m,None,548,348.0,200.0,115,3,2075.7999999523163,453840.0,8088,zinc,NF,C,448243,448243,446517,447527,446517,448593,448043,448043,448593,65
64,test,1,inc,1,z,Thu Jun 18 2026 15:27:28 GMT-0500 (Central Daylight Time),458082.7999999523,silver,1000,I,z,z,None,625,425.0,200.0,7,3,2159.5999999046326,455923.2000000477,8088,banana,NF,C,450326,450326,448600,449610,448600,450760,450126,450126,450760,66
65,test,1,con,1,z,Thu Jun 18 2026 15:27:28 GMT-0500 (Central Daylight Time),460063.89999985695,kiwi,800,I,z,z,None,633,434.0,199.0,49,3,1972.2999999523163,458091.59999990463,8088,kiwi,NF,C,452292,452292,450769,451576,450769,452741,452093,452093,452741,67
66,test,1,con,1,z,Thu Jun 18 2026 15:27:28 GMT-0500 (Central Daylight Time),461964.5,orange,800,I,z,z,None,563,347.0,216.0,17,3,1895.7999999523163,460068.7000000477,8088,orange,NF,C,454292,454292,452746,453559,452746,454642,454076,454076,454642,68
67,test,1,inc,1,m,Thu Jun 18 2026 15:27:28 GMT-0500 (Central Daylight Time),463964.5,pear,900,I,m,m,None,556,354.0,202.0,126,3,1994.4000000953674,461970.09999990463,8088,lead,NF,C,456276,456276,454647,455558,454647,456642,456074,456074,456642,69
68,test,1,inc,1,z,Thu Jun 18 2026 15:27:28 GMT-0500 (Central Daylight Time),466061.7000000477,copper,900,I,z,z,None,650,436.0,214.0,30,3,2091.0,463970.7000000477,8088,raisin,NF,C,458290,458290,456648,457557,456648,458739,458076,458076,458739,70
69,test,1,con,1,z,Thu Jun 18 2026 15:27:28 GMT-0500 (Central Daylight Time),468378.2000000477,kiwi,1100,I,z,z,None,666,467.0,199.0,52,3,2313.600000143051,466064.59999990463,8088,kiwi,NF,C,460573,460573,458742,459857,458742,461055,460373,460373,461055,71
70,test,1,con,1,m,Thu Jun 18 2026 15:27:28 GMT-0500 (Central Daylight Time),470411.39999985695,iron,800,I,m,m,None,683,484.0,199.0,105,3,2028.6999998092651,468382.7000000477,8088,iron,NF,C,462589,462589,461060,461872,461060,463089,462390,462390,463088,72
71,test,1,inc,1,m,Thu Jun 18 2026 15:27:28 GMT-0500 (Central Daylight Time),472676.89999985695,plum,1100,I,m,m,None,630,431.0,199.0,112,3,2261.2999999523163,470415.59999990463,8088,iron,NF,C,464920,464920,463093,464205,463093,465354,464721,464721,465354,73
72,test,1,inc,1,z,Thu Jun 18 2026 15:27:28 GMT-0500 (Central Daylight Time),474976.59999990463,lead,1100,I,z,z,None,659,460.0,199.0,48,3,2294.7999999523163,472681.7999999523,8088,pear,NF,C,467187,467187,465359,466472,465359,467654,466988,466988,467654,74
73,test,1,inc,1,z,Thu Jun 18 2026 15:27:28 GMT-0500 (Central Daylight Time),477008.39999985695,gold,800,I,z,z,None,698,499.0,199.0,45,3,2028.1999998092651,474980.2000000477,8088,pear,NF,C,469171,469171,467657,468470,467658,469685,468971,468971,469685,75
74,test,1,con,1,z,Thu Jun 18 2026 15:27:28 GMT-0500 (Central Daylight Time),479091.89999985695,banana,800,I,z,z,None,741,539.0,202.0,1,3,2080.5999999046326,477011.2999999523,8088,banana,NF,C,471220,471220,469688,470503,469689,471769,471018,471018,471769,76
75,test,1,inc,1,m,Thu Jun 18 2026 15:27:28 GMT-0500 (Central Daylight Time),481041.2999999523,lime,800,I,m,m,None,615,416.0,199.0,117,3,1944.5,479096.7999999523,8088,zinc,NF,C,473302,473302,471774,472586,471774,473718,473103,473103,473718,77
76,test,1,inc,1,m,Thu Jun 18 2026 15:27:28 GMT-0500 (Central Daylight Time),483373.39999985695,raisin,1100,I,m,m,None,709,495.0,214.0,80,3,2328.5999999046326,481044.7999999523,8088,copper,NF,C,475551,475551,473722,474834,473722,476050,475336,475336,476050,78
77,test,1,inc,1,m,Thu Jun 18 2026 15:27:28 GMT-0500 (Central Daylight Time),485673.2999999523,plum,1100,I,m,m,None,667,467.0,200.0,104,3,2296.5999999046326,483376.7000000477,8088,gold,NF,C,477868,477868,476054,477166,476054,478350,477667,477667,478350,79
78,test,1,inc,1,z,Thu Jun 18 2026 15:27:28 GMT-0500 (Central Daylight Time),487706.5,iron,900,I,z,z,None,591,392.0,199.0,62,3,2027.9000000953674,485678.59999990463,8088,plum,NF,C,479983,479983,478356,479267,478356,480384,479784,479784,480384,80
79,test,1,con,1,z,Thu Jun 18 2026 15:27:28 GMT-0500 (Central Daylight Time),489872.09999990463,plum,1000,I,z,z,None,626,427.0,199.0,59,3,2160.5999999046326,487711.5,8088,plum,NF,C,482116,482116,480389,481402,480389,482549,481916,481916,482549,81
80,test,1,inc,1,m,Thu Jun 18 2026 15:27:28 GMT-0500 (Central Daylight Time),492038.0,banana,800,I,m,m,None,815,616.0,199.0,85,3,2159.7000000476837,489878.2999999523,8088,silver,NF,C,484083,484083,482555,483366,482556,484715,483883,483883,484715,82
81,test,1,inc,1,m,Thu Jun 18 2026 15:27:28 GMT-0500 (Central Daylight Time),494286.59999990463,raisin,1100,I,m,m,None,608,394.0,214.0,96,3,2242.7999999523163,492043.7999999523,8088,cobalt,NF,C,486565,486565,484721,485833,484721,486964,486350,486350,486964,83
82,test,1,con,1,m,Thu Jun 18 2026 15:27:28 GMT-0500 (Central Daylight Time),496319.7999999523,gold,800,I,m,m,None,685,485.0,200.0,97,3,2028.7000000476837,494291.09999990463,8088,gold,NF,C,488498,488498,486968,487780,486968,488997,488296,488297,488997,84
83,test,1,con,1,m,Thu Jun 18 2026 15:27:28 GMT-0500 (Central Daylight Time),498520.5,silver,1100,I,m,m,None,552,353.0,199.0,84,3,2195.100000143051,496325.39999985695,8088,silver,NF,C,490830,490830,489002,490114,489003,491198,490631,490631,491198,85
84,test,1,con,1,z,Thu Jun 18 2026 15:27:28 GMT-0500 (Central Daylight Time),500668.59999990463,lime,1000,I,z,z,None,630,431.0,199.0,35,3,2144.0,498524.59999990463,8088,lime,NF,C,492914,492914,491202,492213,491203,493346,492714,492714,493346,86
85,test,1,inc,1,m,Thu Jun 18 2026 15:27:28 GMT-0500 (Central Daylight Time),503067.39999985695,cherry,900,I,m,m,None,956,756.0,200.0,86,3,2392.5999999046326,500674.7999999523,8088,silver,NF,C,494979,494979,493352,494263,493352,495744,494778,494778,495744,87
86,test,1,con,1,m,Thu Jun 18 2026 15:27:28 GMT-0500 (Central Daylight Time),505101.89999985695,copper,900,I,m,m,None,589,388.0,201.0,74,3,2029.8999998569489,503072.0,8088,copper,NF,C,497379,497379,495749,496662,495749,497779,497178,497178,497779,88
87,test,1,con,1,m,Thu Jun 18 2026 15:27:28 GMT-0500 (Central Daylight Time),507082.89999985695,gold,1000,I,m,m,None,450,236.0,214.0,99,3,1977.2999999523163,505105.59999990463,8088,gold,NF,C,499509,499509,497783,498794,497783,499760,499295,499295,499760,89
87,test,1,con,0,z,Thu Jun 18 2026 15:27:28 GMT-0500 (Central Daylight Time),509267.2000000477,plum,1100,I,m,m,None,542,341.0,201.0,60,3,2179.2000000476837,507088.0,8088,plum,NF,C,501594,501594,499765,500877,499765,501944,501393,501393,501944,90
88,test,1,inc,1,z,Thu Jun 18 2026 15:27:28 GMT-0500 (Central Daylight Time),511265.0,bronze,800,I,z,z,None,666,466.0,200.0,13,3,1993.9000000953674,509271.09999990463,8088,cherry,NF,C,503476,503476,501948,502762,501949,503942,503275,503276,503942,91
89,test,1,inc,1,z,Thu Jun 18 2026 15:27:28 GMT-0500 (Central Daylight Time),513181.7999999523,bronze,800,I,z,z,None,579,380.0,199.0,21,3,1913.4000000953674,511268.39999985695,8088,orange,NF,C,505475,505475,503945,504759,503946,505859,505276,505276,505859,92
90,test,1,con,1,z,Thu Jun 18 2026 15:27:28 GMT-0500 (Central Daylight Time),515230.39999985695,banana,900,I,z,z,None,611,411.0,200.0,2,3,2043.2999999523163,513187.09999990463,8088,banana,NF,C,507491,507491,505864,506777,505864,507907,507291,507291,507907,93
91,test,1,con,1,m,Thu Jun 18 2026 15:27:28 GMT-0500 (Central Daylight Time),517180.5,copper,800,I,m,m,None,605,405.0,200.0,73,3,1946.1000001430511,515234.39999985695,8088,copper,NF,C,509442,509442,507911,508726,507912,509858,509241,509241,509858,94
92,test,1,inc,1,z,Thu Jun 18 2026 15:27:28 GMT-0500 (Central Daylight Time),519580.0,cobalt,1100,I,z,z,None,766,567.0,199.0,32,3,2394.7000000476837,517185.2999999523,8088,raisin,NF,C,511690,511690,509862,510975,509862,512257,511491,511491,512257,95
92,test,1,inc,0,m,Thu Jun 18 2026 15:27:28 GMT-0500 (Central Daylight Time),521845.09999990463,raisin,1100,I,z,z,None,629,429.0,200.0,88,3,2260.2000000476837,519584.89999985695,8088,silver,NF,C,514090,514090,512262,513373,512262,514522,513890,513890,514522,96
93,test,1,inc,1,z,Thu Jun 18 2026 15:27:28 GMT-0500 (Central Daylight Time),523946.2000000477,iron,900,I,z,z,None,660,460.0,200.0,54,3,2095.4000000953674,521850.7999999523,8088,kiwi,NF,C,516155,516155,514528,515439,514528,516623,515955,515955,516623,97
94,test,1,inc,1,m,Thu Jun 18 2026 15:27:28 GMT-0500 (Central Daylight Time),526026.5999999046,lime,800,I,m,m,None,738,538.0,200.0,109,3,2076.0,523950.59999990463,8088,iron,NF,C,518156,518156,516628,517439,516628,518704,517955,517956,518704,98
95,test,1,con,1,m,Thu Jun 18 2026 15:27:28 GMT-0500 (Central Daylight Time),528359.5,gold,1100,I,m,m,None,694,494.0,200.0,100,3,2328.5,526031.0,8088,gold,NF,C,520537,520537,518708,519821,518708,521037,520336,520336,521037,99
96,test,1,inc,1,z,Thu Jun 18 2026 15:27:28 GMT-0500 (Central Daylight Time),530626.899999857,cobalt,1100,I,z,z,None,618,418.0,200.0,16,3,2261.699999809265,528365.2000000477,8088,cherry,NF,C,522870,522870,521042,522154,521043,523304,522670,522670,523304,100
97,test,1,inc,1,m,Thu Jun 18 2026 15:27:28 GMT-0500 (Central Daylight Time),532659.899999857,lime,800,I,m,m,None,684,484.0,200.0,125,3,2027.8999998569489,530632.0,8088,lead,NF,C,524836,524836,523309,524120,523309,525337,524636,524636,525337,101
98,test,1,inc,1,z,Thu Jun 18 2026 15:27:28 GMT-0500 (Central Daylight Time),534740.7999999523,bronze,800,I,z,z,None,732,532.0,200.0,5,3,2077.7999999523163,532663.0,8088,banana,NF,C,526869,526869,525340,526152,525340,527418,526669,526669,527418,102
99,test,1,inc,1,z,Thu Jun 18 2026 15:27:28 GMT-0500 (Central Daylight Time),536925.7000000477,iron,900,I,z,z,None,735,534.0,201.0,38,3,2180.5,534745.2000000477,8088,lime,NF,C,529052,529052,527422,528335,527422,529603,528851,528851,529603,103
100,test,1,con,1,m,Thu Jun 18 2026 15:27:28 GMT-0500 (Central Daylight Time),539075.0999999046,silver,1000,I,m,m,None,608,408.0,200.0,83,3,2143.899999856949,536931.2000000477,8088,silver,NF,C,531335,531335,529608,530618,529608,531752,531135,531135,531752,104
101,test,1,con,1,m,Thu Jun 18 2026 15:27:28 GMT-0500 (Central Daylight Time),541289.7000000477,cobalt,1100,I,m,m,None,568,367.0,201.0,92,3,2210.300000190735,539079.399999857,8088,cobalt,NF,C,533583,533583,531756,532867,531757,533967,533382,533382,533967,105
102,test,1,con,1,m,Thu Jun 18 2026 15:27:28 GMT-0500 (Central Daylight Time),543572.2000000477,copper,1100,I,m,m,None,640,439.0,201.0,76,3,2278.0,541294.2000000477,8088,copper,NF,C,535799,535799,533971,535083,533971,536249,535598,535598,536249,106
103,test,1,inc,1,z,Thu Jun 18 2026 15:27:28 GMT-0500 (Central Daylight Time),545818.899999857,lead,1100,I,z,z,None,619,405.0,214.0,40,3,2242.399999856949,543576.5,8088,lime,NF,C,538081,538081,536254,537366,536254,538496,537867,537867,538496,107
104,test,1,inc,1,z,Thu Jun 18 2026 15:27:28 GMT-0500 (Central Daylight Time),548171.2999999523,zinc,1000,I,z,z,None,822,608.0,214.0,55,3,2349.7000000476837,545821.5999999046,8088,kiwi,NF,C,540231,540231,538499,539513,538499,540848,540016,540016,540848,108
105,test,1,con,1,m,Thu Jun 18 2026 15:27:28 GMT-0500 (Central Daylight Time),550419.2999999523,zinc,900,I,m,m,None,801,602.0,199.0,114,3,2242.5999999046326,548176.7000000477,8088,zinc,NF,C,542479,542479,540854,541764,540854,543096,542280,542280,543096,109
106,test,1,inc,1,z,Thu Jun 18 2026 15:27:28 GMT-0500 (Central Daylight Time),552801.5,zinc,1000,I,z,z,None,841,641.0,200.0,47,3,2376.100000143051,550425.399999857,8088,pear,NF,C,544830,544830,543102,544114,543103,545479,544629,544629,545478,110
107,test,1,con,1,m,Thu Jun 18 2026 15:27:28 GMT-0500 (Central Daylight Time),554883.7000000477,lead,1100,I,m,m,None,461,247.0,214.0,124,3,2076.800000190735,552806.899999857,8088,lead,NF,C,547311,547311,545484,546595,545484,547561,547096,547097,547561,111
108,test,1,con,1,z,Thu Jun 18 2026 15:27:28 GMT-0500 (Central Daylight Time),557031.7999999523,banana,1000,I,z,z,None,607,406.0,201.0,3,3,2143.9000000953674,554887.899999857,8088,banana,NF,C,549296,549296,547565,548578,547565,549709,549094,549094,549709,112
109,test,1,inc,1,m,Thu Jun 18 2026 15:27:28 GMT-0500 (Central Daylight Time),559082.0,cherry,900,I,m,m,None,622,422.0,200.0,94,3,2046.9000000953674,557035.0999999046,8088,cobalt,NF,C,551328,551328,549712,550627,549712,551759,551128,551128,551759,113
110,test,1,con,1,m,Thu Jun 18 2026 15:27:28 GMT-0500 (Central Daylight Time),561248.0999999046,lead,900,I,m,m,None,724,525.0,199.0,122,3,2161.899999856949,559086.2000000477,8088,lead,NF,C,553392,553392,551763,552676,551763,553925,553193,553193,553925,114
111,test,1,inc,1,z,Thu Jun 18 2026 15:27:28 GMT-0500 (Central Daylight Time),563399.399999857,silver,1000,I,z,z,None,610,410.0,200.0,31,3,2148.5999999046326,561250.7999999523,8088,raisin,NF,C,555661,555661,553928,554943,553928,556076,555460,555460,556076,115
112,test,1,con,1,m,Thu Jun 18 2026 15:27:28 GMT-0500 (Central Daylight Time),565747.0,iron,1100,I,m,m,None,722,522.0,200.0,108,3,2345.0,563402.0,8088,iron,NF,C,557893,557893,556079,557192,556079,558424,557693,557693,558424,116
113,test,1,con,1,z,Thu Jun 18 2026 15:27:28 GMT-0500 (Central Daylight Time),567829.5999999046,raisin,900,I,z,z,None,644,444.0,200.0,26,3,2076.7000000476837,565752.899999857,8088,raisin,NF,C,560058,560058,558430,559342,558430,560507,559858,559858,560507,117
114,test,1,inc,1,z,Thu Jun 18 2026 15:27:28 GMT-0500 (Central Daylight Time),569896.5999999046,copper,900,I,z,z,None,626,426.0,200.0,22,3,2064.0,567832.5999999046,8088,orange,NF,C,562141,562141,560510,561424,560510,562574,561941,561941,562574,118
115,test,1,con,1,z,Thu Jun 18 2026 15:27:28 GMT-0500 (Central Daylight Time),571979.5999999046,cherry,1100,I,z,z,None,456,257.0,199.0,12,3,2076.5,569903.0999999046,8088,cherry,NF,C,564390,564390,562580,563689,562581,564657,564191,564191,564657,119
116,test,1,inc,1,m,Thu Jun 18 2026 15:27:28 GMT-0500 (Central Daylight Time),574062.2000000477,orange,1000,I,m,m,None,552,337.0,215.0,87,3,2078.9000000953674,571983.2999999523,8088,silver,NF,C,566390,566390,564660,565673,564661,566739,566175,566175,566739,120
117,test,1,inc,1,m,Thu Jun 18 2026 15:27:28 GMT-0500 (Central Daylight Time),576044.2000000477,lime,800,I,m,m,None,663,447.0,216.0,101,3,1976.3000001907349,574067.899999857,8088,gold,NF,C,568273,568273,566745,567555,566745,568721,568056,568056,568721,121
118,test,1,inc,1,z,Thu Jun 18 2026 15:27:28 GMT-0500 (Central Daylight Time),578244.0,zinc,1000,I,z,z,None,665,466.0,199.0,39,3,2194.5,576049.5,8088,lime,NF,C,570439,570439,568727,569737,568727,570921,570239,570239,570921,122
119,test,1,con,1,m,Thu Jun 18 2026 15:27:28 GMT-0500 (Central Daylight Time),580443.899999857,cobalt,900,I,m,m,None,758,559.0,199.0,90,3,2194.5,578249.399999857,8088,cobalt,NF,C,572553,572553,570926,571838,570927,573121,572354,572354,573121,123
120,test,1,con,1,m,Thu Jun 18 2026 15:27:28 GMT-0500 (Central Daylight Time),582660.0999999046,silver,900,I,m,m,None,774,575.0,199.0,82,3,2210.5999999046326,580449.5,8088,silver,NF,C,574752,574752,573127,574037,573127,575337,574553,574553,575337,124
121,test,1,con,1,z,Thu Jun 18 2026 15:27:28 GMT-0500 (Central Daylight Time),585307.2000000477,kiwi,900,I,z,z,None,1229,1029.0,200.0,50,3,2642.4000000953674,582664.7999999523,8088,kiwi,NF,C,576953,576953,575342,576252,575342,577984,576753,576753,577984,125
122,test,1,inc,1,m,Thu Jun 18 2026 15:27:28 GMT-0500 (Central Daylight Time),587523.5999999046,banana,800,I,m,m,None,889,690.0,199.0,77,3,2213.0,585310.5999999046,8088,copper,NF,C,579501,579501,577988,578800,577988,580201,579302,579302,580201,126
123,test,1,con,1,m,Thu Jun 18 2026 15:27:28 GMT-0500 (Central Daylight Time),590005.899999857,bronze,1100,I,m,m,None,846,645.0,201.0,68,3,2477.0999999046326,587528.7999999523,8088,bronze,NF,C,582034,582034,580206,581318,580206,582683,581833,581833,582683,127
124,test,1,con,1,z,Thu Jun 18 2026 15:27:28 GMT-0500 (Central Daylight Time),591989.7000000477,raisin,1000,I,z,z,None,438,238.0,200.0,27,3,1978.4000000953674,590011.2999999523,8088,raisin,NF,C,584417,584417,582688,583701,582689,584667,584217,584217,584667,128
