block_c,block_dur,condition,countdown,datetime,endtime,list,multichar_response,project,response,response_time,session_number,start_end,starttime,subject_id,task,task_vers,trial
,,,,Fri Sep 06 2024 10:20:52 GMT-0500 (Central Daylight Time),,,,O,space,588,1,,,7018,WL,B,
prac,,0,,Fri Sep 06 2024 10:20:52 GMT-0500 (Central Daylight Time),,NA,b,O,b,5405,1,,,7018,WL,B,1.0
prac,,0,,Fri Sep 06 2024 10:20:52 GMT-0500 (Central Daylight Time),,NA,bo,O,o,168,1,,,7018,WL,B,1.0
prac,,0,,Fri Sep 06 2024 10:20:52 GMT-0500 (Central Daylight Time),,NA,boo,O,o,163,1,,,7018,WL,B,1.0
prac,,0,,Fri Sep 06 2024 10:20:52 GMT-0500 (Central Daylight Time),,NA,boos,O,s,75,1,,,7018,WL,B,1.0
prac,,0,,Fri Sep 06 2024 10:20:52 GMT-0500 (Central Daylight Time),,NA,boost,O,t,128,1,,,7018,WL,B,1.0
prac,,0,,Fri Sep 06 2024 10:20:52 GMT-0500 (Central Daylight Time),,NA,boostenter,O,enter,2323,1,,,7018,WL,B,1.0
1,2.7200000286102295,learn,57279.99997138977,Fri Sep 06 2024 10:20:52 GMT-0500 (Central Daylight Time),135853.70000004768,A,s,O,s,2706,1,2717.3000000715256,133136.39999997616,7018,WL,B,1.0
1,2.8489999771118164,learn,57151.00002288818,Fri Sep 06 2024 10:20:52 GMT-0500 (Central Daylight Time),135983.20000004768,A,st,O,t,108,1,2846.8000000715256,133136.39999997616,7018,WL,B,1.0
1,3.0820000171661377,learn,56917.99998283386,Fri Sep 06 2024 10:20:52 GMT-0500 (Central Daylight Time),136216.10000002384,A,str,O,r,221,1,3079.7000000476837,133136.39999997616,7018,WL,B,1.0
1,3.1660001277923584,learn,56833.99987220764,Fri Sep 06 2024 10:20:52 GMT-0500 (Central Daylight Time),136299.5,A,stre,O,e,76,1,3163.100000023842,133136.39999997616,7018,WL,B,1.0
1,3.3489999771118164,learn,56651.00002288818,Fri Sep 06 2024 10:20:52 GMT-0500 (Central Daylight Time),136482.80000007153,A,stree,O,e,168,1,3346.4000000953674,133136.39999997616,7018,WL,B,1.0
1,3.4820001125335693,learn,56517.99988746643,Fri Sep 06 2024 10:20:52 GMT-0500 (Central Daylight Time),136616.10000002384,A,street,O,t,113,1,3479.7000000476837,133136.39999997616,7018,WL,B,1.0
1,4.765000104904175,learn,55234.999895095825,Fri Sep 06 2024 10:20:52 GMT-0500 (Central Daylight Time),137899.0,A,streetenter,O,enter,1276,1,4762.600000023842,133136.39999997616,7018,WL,B,1.0
1,6.481000185012817,learn,53518.99981498718,Fri Sep 06 2024 10:20:52 GMT-0500 (Central Daylight Time),139615.0,A,g,O,g,1695,1,1715.2999999523163,137899.70000004768,7018,WL,B,2.0
1,6.698000192642212,learn,53301.99980735779,Fri Sep 06 2024 10:20:52 GMT-0500 (Central Daylight Time),139831.80000007153,A,gr,O,r,197,1,1932.1000000238419,137899.70000004768,7018,WL,B,2.0
1,6.764000177383423,learn,53235.99982261658,Fri Sep 06 2024 10:20:52 GMT-0500 (Central Daylight Time),139898.10000002384,A,gra,O,a,61,1,1998.3999999761581,137899.70000004768,7018,WL,B,2.0
1,7.031000137329102,learn,52968.9998626709,Fri Sep 06 2024 10:20:52 GMT-0500 (Central Daylight Time),140164.89999997616,A,gras,O,s,250,1,2265.1999999284744,137899.70000004768,7018,WL,B,2.0
1,7.164000034332275,learn,52835.999965667725,Fri Sep 06 2024 10:20:52 GMT-0500 (Central Daylight Time),140298.10000002384,A,grass,O,s,127,1,2398.399999976158,137899.70000004768,7018,WL,B,2.0
1,7.414000034332275,learn,52585.999965667725,Fri Sep 06 2024 10:20:52 GMT-0500 (Central Daylight Time),140548.20000004768,A,grassenter,O,enter,234,1,2648.5,137899.70000004768,7018,WL,B,2.0
1,7.697000026702881,learn,52302.99997329712,Fri Sep 06 2024 10:20:52 GMT-0500 (Central Daylight Time),140831.20000004768,A,d,O,d,264,1,282.5,140548.70000004768,7018,WL,B,3.0
1,7.88100004196167,learn,52118.99995803833,Fri Sep 06 2024 10:20:52 GMT-0500 (Central Daylight Time),141014.60000002384,A,do,O,o,173,1,465.89999997615814,140548.70000004768,7018,WL,B,3.0
1,8.04800009727478,learn,51951.99990272522,Fri Sep 06 2024 10:20:52 GMT-0500 (Central Daylight Time),141181.60000002384,A,doo,O,o,149,1,632.8999999761581,140548.70000004768,7018,WL,B,3.0
1,8.164000034332275,learn,51835.999965667725,Fri Sep 06 2024 10:20:52 GMT-0500 (Central Daylight Time),141298.0,A,door,O,r,103,1,749.2999999523163,140548.70000004768,7018,WL,B,3.0
1,8.414000034332275,learn,51585.999965667725,Fri Sep 06 2024 10:20:52 GMT-0500 (Central Daylight Time),141548.10000002384,A,doorenter,O,enter,234,1,999.3999999761581,140548.70000004768,7018,WL,B,3.0
1,10.21399998664856,learn,49786.00001335144,Fri Sep 06 2024 10:20:52 GMT-0500 (Central Daylight Time),143347.30000007153,A,l,O,l,1784,1,1798.9000000953674,141548.39999997616,7018,WL,B,4.0
1,10.380000114440918,learn,49619.99988555908,Fri Sep 06 2024 10:20:52 GMT-0500 (Central Daylight Time),143513.80000007153,A,la,O,a,146,1,1965.4000000953674,141548.39999997616,7018,WL,B,4.0
1,10.52999997138977,learn,49470.00002861023,Fri Sep 06 2024 10:20:52 GMT-0500 (Central Daylight Time),143664.20000004768,A,lak,O,k,138,1,2115.8000000715256,141548.39999997616,7018,WL,B,4.0
1,10.630000114440918,learn,49369.99988555908,Fri Sep 06 2024 10:20:52 GMT-0500 (Central Daylight Time),143764.0,A,lake,O,e,84,1,2215.600000023842,141548.39999997616,7018,WL,B,4.0
1,10.897000074386597,learn,49102.9999256134,Fri Sep 06 2024 10:20:52 GMT-0500 (Central Daylight Time),144030.39999997616,A,lakeenter,O,enter,256,1,2482.0,141548.39999997616,7018,WL,B,4.0
1,11.61300015449524,learn,48386.99984550476,Fri Sep 06 2024 10:20:52 GMT-0500 (Central Daylight Time),144746.70000004768,A,p,O,p,709,1,716.0,144030.70000004768,7018,WL,B,5.0
1,11.812999963760376,learn,48187.000036239624,Fri Sep 06 2024 10:20:52 GMT-0500 (Central Daylight Time),144946.70000004768,A,pi,O,i,186,1,916.0,144030.70000004768,7018,WL,B,5.0
1,11.913000106811523,learn,48086.99989318848,Fri Sep 06 2024 10:20:52 GMT-0500 (Central Daylight Time),145046.60000002384,A,pip,O,p,81,1,1015.8999999761581,144030.70000004768,7018,WL,B,5.0
1,12.729000091552734,learn,47270.999908447266,Fri Sep 06 2024 10:20:52 GMT-0500 (Central Daylight Time),145863.20000004768,A,pipe,O,e,797,1,1832.5,144030.70000004768,7018,WL,B,5.0
1,13.479000091552734,learn,46520.999908447266,Fri Sep 06 2024 10:20:52 GMT-0500 (Central Daylight Time),146612.80000007153,A,pipeenter,O,enter,733,1,2582.100000023842,144030.70000004768,7018,WL,B,5.0
1,21.210000038146973,learn,38789.99996185303,Fri Sep 06 2024 10:20:52 GMT-0500 (Central Daylight Time),154343.60000002384,A,p,O,p,7711,1,7730.399999976158,146613.20000004768,7018,WL,B,6.0
1,21.427000045776367,learn,38572.99995422363,Fri Sep 06 2024 10:20:52 GMT-0500 (Central Daylight Time),154560.30000007153,A,pu,O,u,196,1,7947.100000023842,146613.20000004768,7018,WL,B,6.0
1,21.743000030517578,learn,38256.99996948242,Fri Sep 06 2024 10:20:52 GMT-0500 (Central Daylight Time),154876.60000002384,A,pup,O,p,300,1,8263.399999976158,146613.20000004768,7018,WL,B,6.0
1,21.943000078201294,learn,38056.999921798706,Fri Sep 06 2024 10:20:52 GMT-0500 (Central Daylight Time),155077.0,A,pupi,O,i,191,1,8463.799999952316,146613.20000004768,7018,WL,B,6.0
1,22.243000030517578,learn,37756.99996948242,Fri Sep 06 2024 10:20:52 GMT-0500 (Central Daylight Time),155376.60000002384,A,pupil,O,l,279,1,8763.399999976158,146613.20000004768,7018,WL,B,6.0
1,22.99399995803833,learn,37006.00004196167,Fri Sep 06 2024 10:20:52 GMT-0500 (Central Daylight Time),156127.5,A,pupilenter,O,enter,732,1,9514.299999952316,146613.20000004768,7018,WL,B,6.0
1,26.508000135421753,learn,33491.99986457825,Fri Sep 06 2024 10:20:52 GMT-0500 (Central Daylight Time),159642.20000004768,A,s,O,s,3499,1,3514.2000000476837,156128.0,7018,WL,B,7.0
1,26.60800004005432,learn,33391.99995994568,Fri Sep 06 2024 10:20:52 GMT-0500 (Central Daylight Time),159742.20000004768,A,sk,O,k,90,1,3614.2000000476837,156128.0,7018,WL,B,7.0
1,26.808000087738037,learn,33191.99991226196,Fri Sep 06 2024 10:20:52 GMT-0500 (Central Daylight Time),159942.10000002384,A,ski,O,i,190,1,3814.100000023842,156128.0,7018,WL,B,7.0
1,26.975000143051147,learn,33024.99985694885,Fri Sep 06 2024 10:20:52 GMT-0500 (Central Daylight Time),160108.80000007153,A,skin,O,n,150,1,3980.8000000715256,156128.0,7018,WL,B,7.0
1,27.242000102996826,learn,32757.999897003174,Fri Sep 06 2024 10:20:52 GMT-0500 (Central Daylight Time),160375.39999997616,A,skinenter,O,enter,248,1,4247.399999976158,156128.0,7018,WL,B,7.0
1,33.055999994277954,learn,26944.000005722046,Fri Sep 06 2024 10:20:52 GMT-0500 (Central Daylight Time),166190.20000004768,A,d,O,d,5796,1,5814.399999976158,160375.80000007153,7018,WL,B,8.0
1,33.223000049591064,learn,26776.999950408936,Fri Sep 06 2024 10:20:52 GMT-0500 (Central Daylight Time),166356.80000007153,A,do,O,o,150,1,5981.0,160375.80000007153,7018,WL,B,8.0
1,33.38900017738342,learn,26610.999822616577,Fri Sep 06 2024 10:20:52 GMT-0500 (Central Daylight Time),166523.20000004768,A,doo,O,o,159,1,6147.399999976158,160375.80000007153,7018,WL,B,8.0
1,33.52300000190735,learn,26476.99999809265,Fri Sep 06 2024 10:20:52 GMT-0500 (Central Daylight Time),166656.39999997616,A,door,O,r,121,1,6280.599999904633,160375.80000007153,7018,WL,B,8.0
1,34.00600004196167,learn,25993.99995803833,Fri Sep 06 2024 10:20:52 GMT-0500 (Central Daylight Time),167139.80000007153,A,doorenter,O,enter,476,1,6764.0,160375.80000007153,7018,WL,B,8.0
1,34.456000089645386,learn,25543.999910354614,Fri Sep 06 2024 10:20:52 GMT-0500 (Central Daylight Time),167589.70000004768,A,s,O,s,433,1,449.5,167140.20000004768,7018,WL,B,9.0
1,34.58899998664856,learn,25411.00001335144,Fri Sep 06 2024 10:20:52 GMT-0500 (Central Daylight Time),167722.89999997616,A,st,O,t,126,1,582.6999999284744,167140.20000004768,7018,WL,B,9.0
1,34.805999994277954,learn,25194.000005722046,Fri Sep 06 2024 10:20:52 GMT-0500 (Central Daylight Time),167939.5,A,sta,O,a,209,1,799.2999999523163,167140.20000004768,7018,WL,B,9.0
1,34.9060001373291,learn,25093.9998626709,Fri Sep 06 2024 10:20:52 GMT-0500 (Central Daylight Time),168039.39999997616,A,star,O,r,89,1,899.1999999284744,167140.20000004768,7018,WL,B,9.0
1,35.33899998664856,learn,24661.00001335144,Fri Sep 06 2024 10:20:52 GMT-0500 (Central Daylight Time),168472.80000007153,A,starenter,O,enter,413,1,1332.6000000238419,167140.20000004768,7018,WL,B,9.0
1,39.604000091552734,learn,20395.999908447266,Fri Sep 06 2024 10:20:52 GMT-0500 (Central Daylight Time),172737.89999997616,A,g,O,g,4260,1,4264.799999952316,168473.10000002384,7018,WL,B,10.0
1,39.854000091552734,learn,20145.999908447266,Fri Sep 06 2024 10:20:52 GMT-0500 (Central Daylight Time),172988.20000004768,A,gr,O,r,242,1,4515.100000023842,168473.10000002384,7018,WL,B,10.0
1,39.937000036239624,learn,20062.999963760376,Fri Sep 06 2024 10:20:52 GMT-0500 (Central Daylight Time),173071.20000004768,A,gra,O,a,72,1,4598.100000023842,168473.10000002384,7018,WL,B,10.0
1,40.254000186920166,learn,19745.999813079834,Fri Sep 06 2024 10:20:52 GMT-0500 (Central Daylight Time),173387.80000007153,A,gras,O,s,301,1,4914.700000047684,168473.10000002384,7018,WL,B,10.0
1,40.38700008392334,learn,19612.99991607666,Fri Sep 06 2024 10:20:52 GMT-0500 (Central Daylight Time),173521.10000002384,A,grass,O,s,128,1,5048.0,168473.10000002384,7018,WL,B,10.0
1,40.604000091552734,learn,19395.999908447266,Fri Sep 06 2024 10:20:52 GMT-0500 (Central Daylight Time),173737.70000004768,A,grassenter,O,enter,211,1,5264.600000023842,168473.10000002384,7018,WL,B,10.0
1,60.01400017738342,learn,-14.000177383422852,Fri Sep 06 2024 10:20:52 GMT-0500 (Central Daylight Time),193148.70000004768,A,None,O,None,19404,1,19410.5,173738.20000004768,7018,WL,B,11.0
2,0.9000000953674316,learn,59099.99990463257,Fri Sep 06 2024 10:20:52 GMT-0500 (Central Daylight Time),271057.39999997616,A,s,O,s,887,1,899.5999999046326,270157.8000000715,7018,WL,B,1.0
2,1.1160001754760742,learn,58883.999824523926,Fri Sep 06 2024 10:20:52 GMT-0500 (Central Daylight Time),271273.60000002384,A,st,O,t,195,1,1115.7999999523163,270157.8000000715,7018,WL,B,1.0
2,1.3320000171661377,learn,58667.99998283386,Fri Sep 06 2024 10:20:52 GMT-0500 (Central Daylight Time),271490.2000000477,A,str,O,r,211,1,1332.3999999761581,270157.8000000715,7018,WL,B,1.0
2,1.4160001277923584,learn,58583.99987220764,Fri Sep 06 2024 10:20:52 GMT-0500 (Central Daylight Time),271573.7000000477,A,stre,O,e,66,1,1415.8999999761581,270157.8000000715,7018,WL,B,1.0
2,1.5820000171661377,learn,58417.99998283386,Fri Sep 06 2024 10:20:52 GMT-0500 (Central Daylight Time),271740.3000000715,A,stree,O,e,159,1,1582.5,270157.8000000715,7018,WL,B,1.0
2,1.7160000801086426,learn,58283.99991989136,Fri Sep 06 2024 10:20:52 GMT-0500 (Central Daylight Time),271873.5,A,street,O,t,112,1,1715.6999999284744,270157.8000000715,7018,WL,B,1.0
2,2.116000175476074,learn,57883.999824523926,Fri Sep 06 2024 10:20:52 GMT-0500 (Central Daylight Time),272273.60000002384,A,streetenter,O,enter,395,1,2115.7999999523163,270157.8000000715,7018,WL,B,1.0
2,2.4149999618530273,learn,57585.00003814697,Fri Sep 06 2024 10:20:52 GMT-0500 (Central Daylight Time),272573.2000000477,A,g,O,g,291,1,299.3000000715256,272273.89999997616,7018,WL,B,2.0
2,2.615000009536743,learn,57384.99999046326,Fri Sep 06 2024 10:20:52 GMT-0500 (Central Daylight Time),272773.3000000715,A,gr,O,r,191,1,499.40000009536743,272273.89999997616,7018,WL,B,2.0
2,2.7150001525878906,learn,57284.99984741211,Fri Sep 06 2024 10:20:52 GMT-0500 (Central Daylight Time),272873.10000002384,A,gra,O,a,79,1,599.2000000476837,272273.89999997616,7018,WL,B,2.0
2,3.015000104904175,learn,56984.999895095825,Fri Sep 06 2024 10:20:52 GMT-0500 (Central Daylight Time),273173.3000000715,A,gras,O,s,291,1,899.4000000953674,272273.89999997616,7018,WL,B,2.0
2,3.1649999618530273,learn,56835.00003814697,Fri Sep 06 2024 10:20:52 GMT-0500 (Central Daylight Time),273323.2000000477,A,grass,O,s,143,1,1049.3000000715256,272273.89999997616,7018,WL,B,2.0
2,3.5980000495910645,learn,56401.999950408936,Fri Sep 06 2024 10:20:52 GMT-0500 (Central Daylight Time),273756.2000000477,A,grassenter,O,enter,425,1,1482.3000000715256,272273.89999997616,7018,WL,B,2.0
2,4.0980000495910645,learn,55901.999950408936,Fri Sep 06 2024 10:20:52 GMT-0500 (Central Daylight Time),274256.39999997616,A,d,O,d,488,1,500.0,273756.39999997616,7018,WL,B,3.0
2,4.365000009536743,learn,55634.99999046326,Fri Sep 06 2024 10:20:52 GMT-0500 (Central Daylight Time),274522.8000000715,A,do,O,o,260,1,766.4000000953674,273756.39999997616,7018,WL,B,3.0
2,4.648000001907349,learn,55351.99999809265,Fri Sep 06 2024 10:20:52 GMT-0500 (Central Daylight Time),274806.0,A,doo,O,o,274,1,1049.6000000238419,273756.39999997616,7018,WL,B,3.0
2,4.981000185012817,learn,55018.99981498718,Fri Sep 06 2024 10:20:52 GMT-0500 (Central Daylight Time),275139.3000000715,A,door,O,r,326,1,1382.9000000953674,273756.39999997616,7018,WL,B,3.0
2,5.281000137329102,learn,54718.9998626709,Fri Sep 06 2024 10:20:52 GMT-0500 (Central Daylight Time),275439.0,A,doorenter,O,enter,281,1,1682.6000000238419,273756.39999997616,7018,WL,B,3.0
2,5.581000089645386,learn,54418.999910354614,Fri Sep 06 2024 10:20:52 GMT-0500 (Central Daylight Time),275739.39999997616,A,a,O,a,285,1,300.0,275439.39999997616,7018,WL,B,4.0
2,5.71399998664856,learn,54286.00001335144,Fri Sep 06 2024 10:20:52 GMT-0500 (Central Daylight Time),275872.10000002384,A,ar,O,r,113,1,432.7000000476837,275439.39999997616,7018,WL,B,4.0
2,6.081000089645386,learn,53918.999910354614,Fri Sep 06 2024 10:20:52 GMT-0500 (Central Daylight Time),276239.0,A,arm,O,m,356,1,799.6000000238419,275439.39999997616,7018,WL,B,4.0
2,6.531000137329102,learn,53468.9998626709,Fri Sep 06 2024 10:20:52 GMT-0500 (Central Daylight Time),276688.7000000477,A,armenter,O,enter,430,1,1249.3000000715256,275439.39999997616,7018,WL,B,4.0
2,7.02400016784668,learn,52975.99983215332,Fri Sep 06 2024 10:20:52 GMT-0500 (Central Daylight Time),277182.2000000477,A,w,O,w,342,1,493.10000002384186,276689.10000002384,7018,WL,B,5.0
2,7.113000154495239,learn,52886.99984550476,Fri Sep 06 2024 10:20:52 GMT-0500 (Central Daylight Time),277271.39999997616,A,wi,O,i,80,1,582.2999999523163,276689.10000002384,7018,WL,B,5.0
2,7.164000034332275,learn,52835.999965667725,Fri Sep 06 2024 10:20:52 GMT-0500 (Central Daylight Time),277321.60000002384,A,win,O,n,35,1,632.5,276689.10000002384,7018,WL,B,5.0
2,7.397000074386597,learn,52602.9999256134,Fri Sep 06 2024 10:20:52 GMT-0500 (Central Daylight Time),277555.3000000715,A,wind,O,d,219,1,866.2000000476837,276689.10000002384,7018,WL,B,5.0
2,7.564000129699707,learn,52435.99987030029,Fri Sep 06 2024 10:20:52 GMT-0500 (Central Daylight Time),277721.8000000715,A,windo,O,o,162,1,1032.7000000476837,276689.10000002384,7018,WL,B,5.0
2,7.7799999713897705,learn,52220.00002861023,Fri Sep 06 2024 10:20:52 GMT-0500 (Central Daylight Time),277938.3000000715,A,window,O,w,203,1,1249.2000000476837,276689.10000002384,7018,WL,B,5.0
2,8.246999979019165,learn,51753.000020980835,Fri Sep 06 2024 10:20:52 GMT-0500 (Central Daylight Time),278404.89999997616,A,windowenter,O,enter,450,1,1715.7999999523163,276689.10000002384,7018,WL,B,5.0
2,8.514000177383423,learn,51485.99982261658,Fri Sep 06 2024 10:20:52 GMT-0500 (Central Daylight Time),278671.5,A,c,O,c,256,1,266.2999999523163,278405.2000000477,7018,WL,B,6.0
2,8.630000114440918,learn,51369.99988555908,Fri Sep 06 2024 10:20:52 GMT-0500 (Central Daylight Time),278788.0,A,cl,O,l,101,1,382.7999999523163,278405.2000000477,7018,WL,B,6.0
2,8.847000122070312,learn,51152.99987792969,Fri Sep 06 2024 10:20:52 GMT-0500 (Central Daylight Time),279004.60000002384,A,clo,O,o,209,1,599.3999999761581,278405.2000000477,7018,WL,B,6.0
2,8.980000019073486,learn,51019.999980926514,Fri Sep 06 2024 10:20:52 GMT-0500 (Central Daylight Time),279138.0,A,cloc,O,c,112,1,732.7999999523163,278405.2000000477,7018,WL,B,6.0
2,9.19700002670288,learn,50802.99997329712,Fri Sep 06 2024 10:20:52 GMT-0500 (Central Daylight Time),279354.39999997616,A,clock,O,k,210,1,949.1999999284744,278405.2000000477,7018,WL,B,6.0
2,9.663000106811523,learn,50336.99989318848,Fri Sep 06 2024 10:20:52 GMT-0500 (Central Daylight Time),279821.2000000477,A,clockenter,O,enter,450,1,1416.0,278405.2000000477,7018,WL,B,6.0
2,10.080000162124634,learn,49919.999837875366,Fri Sep 06 2024 10:20:52 GMT-0500 (Central Daylight Time),280237.5,A,p,O,p,407,1,415.89999997615814,279821.60000002384,7018,WL,B,7.0
2,10.312999963760376,learn,49687.000036239624,Fri Sep 06 2024 10:20:52 GMT-0500 (Central Daylight Time),280470.8000000715,A,pi,O,i,215,1,649.2000000476837,279821.60000002384,7018,WL,B,7.0
2,10.380000114440918,learn,49619.99988555908,Fri Sep 06 2024 10:20:52 GMT-0500 (Central Daylight Time),280537.5,A,pip,O,p,54,1,715.8999999761581,279821.60000002384,7018,WL,B,7.0
2,10.779000043869019,learn,49220.99995613098,Fri Sep 06 2024 10:20:52 GMT-0500 (Central Daylight Time),280937.39999997616,A,pipe,O,e,380,1,1115.7999999523163,279821.60000002384,7018,WL,B,7.0
2,11.046000003814697,learn,48953.9999961853,Fri Sep 06 2024 10:20:52 GMT-0500 (Central Daylight Time),281204.0,A,pipeenter,O,enter,259,1,1382.3999999761581,279821.60000002384,7018,WL,B,7.0
2,11.328999996185303,learn,48671.0000038147,Fri Sep 06 2024 10:20:52 GMT-0500 (Central Daylight Time),281487.3000000715,A,p,O,p,272,1,282.90000009536743,281204.39999997616,7018,WL,B,8.0
2,11.611999988555908,learn,48388.00001144409,Fri Sep 06 2024 10:20:52 GMT-0500 (Central Daylight Time),281770.10000002384,A,pu,O,u,277,1,565.7000000476837,281204.39999997616,7018,WL,B,8.0
2,12.062000036239624,learn,47937.999963760376,Fri Sep 06 2024 10:20:52 GMT-0500 (Central Daylight Time),282220.2000000477,A,pup,O,p,434,1,1015.8000000715256,281204.39999997616,7018,WL,B,8.0
2,12.328999996185303,learn,47671.0000038147,Fri Sep 06 2024 10:20:52 GMT-0500 (Central Daylight Time),282486.7000000477,A,pupi,O,i,248,1,1282.3000000715256,281204.39999997616,7018,WL,B,8.0
2,12.629000186920166,learn,47370.999813079834,Fri Sep 06 2024 10:20:52 GMT-0500 (Central Daylight Time),282786.60000002384,A,pupil,O,l,293,1,1582.2000000476837,281204.39999997616,7018,WL,B,8.0
2,13.062000036239624,learn,46937.999963760376,Fri Sep 06 2024 10:20:52 GMT-0500 (Central Daylight Time),283220.3000000715,A,pupilenter,O,enter,418,1,2015.9000000953674,281204.39999997616,7018,WL,B,8.0
2,13.361999988555908,learn,46638.00001144409,Fri Sep 06 2024 10:20:52 GMT-0500 (Central Daylight Time),283520.0,A,s,O,s,289,1,299.39999997615814,283220.60000002384,7018,WL,B,9.0
2,13.495000123977661,learn,46504.99987602234,Fri Sep 06 2024 10:20:52 GMT-0500 (Central Daylight Time),283653.3000000715,A,st,O,t,117,1,432.7000000476837,283220.60000002384,7018,WL,B,9.0
2,13.76200008392334,learn,46237.99991607666,Fri Sep 06 2024 10:20:52 GMT-0500 (Central Daylight Time),283919.7000000477,A,sta,O,a,255,1,699.1000000238419,283220.60000002384,7018,WL,B,9.0
2,13.92900013923645,learn,46070.99986076355,Fri Sep 06 2024 10:20:52 GMT-0500 (Central Daylight Time),284086.39999997616,A,star,O,r,157,1,865.7999999523163,283220.60000002384,7018,WL,B,9.0
2,14.445000171661377,learn,45554.99982833862,Fri Sep 06 2024 10:20:52 GMT-0500 (Central Daylight Time),284603.0,A,starenter,O,enter,502,1,1382.3999999761581,283220.60000002384,7018,WL,B,9.0
2,17.277000188827515,learn,42722.999811172485,Fri Sep 06 2024 10:20:52 GMT-0500 (Central Daylight Time),287435.39999997616,A,w,O,w,2818,1,2832.0999999046326,284603.3000000715,7018,WL,B,10.0
2,17.460999965667725,learn,42539.000034332275,Fri Sep 06 2024 10:20:52 GMT-0500 (Central Daylight Time),287618.5,A,wi,O,i,177,1,3015.1999999284744,284603.3000000715,7018,WL,B,10.0
2,17.561000108718872,learn,42438.99989128113,Fri Sep 06 2024 10:20:52 GMT-0500 (Central Daylight Time),287718.60000002384,A,wif,O,f,90,1,3115.2999999523163,284603.3000000715,7018,WL,B,10.0
2,17.64400005340576,learn,42355.99994659424,Fri Sep 06 2024 10:20:52 GMT-0500 (Central Daylight Time),287802.0,A,wife,O,e,70,1,3198.6999999284744,284603.3000000715,7018,WL,B,10.0
2,18.044000148773193,learn,41955.99985122681,Fri Sep 06 2024 10:20:52 GMT-0500 (Central Daylight Time),288201.7000000477,A,wifeenter,O,enter,386,1,3598.399999976158,284603.3000000715,7018,WL,B,10.0
2,30.77300000190735,learn,29226.99999809265,Fri Sep 06 2024 10:20:52 GMT-0500 (Central Daylight Time),300930.89999997616,A,c,O,c,12715,1,12728.799999952316,288202.10000002384,7018,WL,B,11.0
2,30.92300009727478,learn,29076.99990272522,Fri Sep 06 2024 10:20:52 GMT-0500 (Central Daylight Time),301081.10000002384,A,ca,O,a,145,1,12879.0,288202.10000002384,7018,WL,B,11.0
2,31.17300009727478,learn,28826.99990272522,Fri Sep 06 2024 10:20:52 GMT-0500 (Central Daylight Time),301330.89999997616,A,cab,O,b,235,1,13128.799999952316,288202.10000002384,7018,WL,B,11.0
2,31.4060001373291,learn,28593.9998626709,Fri Sep 06 2024 10:20:52 GMT-0500 (Central Daylight Time),301564.10000002384,A,cabn,O,n,225,1,13362.0,288202.10000002384,7018,WL,B,11.0
2,32.15499997138977,learn,27845.00002861023,Fri Sep 06 2024 10:20:52 GMT-0500 (Central Daylight Time),302313.7000000477,A,cab,O,backspace,744,1,14111.600000023842,288202.10000002384,7018,WL,B,11.0
2,32.82200002670288,learn,27177.99997329712,Fri Sep 06 2024 10:20:52 GMT-0500 (Central Daylight Time),302980.3000000715,A,cabi,O,i,659,1,14778.200000047684,288202.10000002384,7018,WL,B,11.0
2,33.039000034332275,learn,26960.999965667725,Fri Sep 06 2024 10:20:52 GMT-0500 (Central Daylight Time),303197.3000000715,A,cabin,O,n,208,1,14995.200000047684,288202.10000002384,7018,WL,B,11.0
2,33.53800010681152,learn,26461.999893188477,Fri Sep 06 2024 10:20:52 GMT-0500 (Central Daylight Time),303696.5,A,cabinenter,O,enter,487,1,15494.399999976158,288202.10000002384,7018,WL,B,11.0
2,43.35199999809265,learn,16648.00000190735,Fri Sep 06 2024 10:20:52 GMT-0500 (Central Daylight Time),313510.3000000715,A,enter,O,enter,9796,1,9813.5,303696.8000000715,7018,WL,B,12.0
2,44.402000188827515,learn,15597.999811172485,Fri Sep 06 2024 10:20:52 GMT-0500 (Central Daylight Time),314560.3000000715,A,enter,O,enter,1030,1,1049.6000000238419,313510.7000000477,7018,WL,B,13.0
2,44.68500018119812,learn,15314.99981880188,Fri Sep 06 2024 10:20:52 GMT-0500 (Central Daylight Time),314843.39999997616,A,enter,O,enter,268,1,282.7999999523163,314560.60000002384,7018,WL,B,14.0
2,45.051000118255615,learn,14948.999881744385,Fri Sep 06 2024 10:20:52 GMT-0500 (Central Daylight Time),315209.7000000477,A,enter,O,enter,361,1,365.89999997615814,314843.8000000715,7018,WL,B,15.0
3,0.8670001029968262,learn,59132.999897003174,Fri Sep 06 2024 10:20:52 GMT-0500 (Central Daylight Time),382272.39999997616,A,g,O,g,855,1,866.6999999284744,381405.7000000477,7018,WL,B,1.0
3,1.633000135421753,learn,58366.99986457825,Fri Sep 06 2024 10:20:52 GMT-0500 (Central Daylight Time),383038.7000000477,A,,O,backspace,748,1,1633.0,381405.7000000477,7018,WL,B,1.0
3,2.0160000324249268,learn,57983.99996757507,Fri Sep 06 2024 10:20:52 GMT-0500 (Central Daylight Time),383421.8000000715,A,s,O,s,374,1,2016.1000000238419,381405.7000000477,7018,WL,B,1.0
3,2.1490001678466797,learn,57850.99983215332,Fri Sep 06 2024 10:20:52 GMT-0500 (Central Daylight Time),383555.0,A,st,O,t,127,1,2149.2999999523163,381405.7000000477,7018,WL,B,1.0
3,2.4660000801086426,learn,57533.99991989136,Fri Sep 06 2024 10:20:52 GMT-0500 (Central Daylight Time),383871.7000000477,A,str,O,r,305,1,2466.0,381405.7000000477,7018,WL,B,1.0
3,2.5160000324249268,learn,57483.99996757507,Fri Sep 06 2024 10:20:52 GMT-0500 (Central Daylight Time),383921.5,A,stre,O,e,45,1,2515.7999999523163,381405.7000000477,7018,WL,B,1.0
3,2.7320001125335693,learn,57267.99988746643,Fri Sep 06 2024 10:20:52 GMT-0500 (Central Daylight Time),384138.0,A,stree,O,e,211,1,2732.2999999523163,381405.7000000477,7018,WL,B,1.0
3,2.866000175476074,learn,57133.999824523926,Fri Sep 06 2024 10:20:52 GMT-0500 (Central Daylight Time),384271.5,A,street,O,t,116,1,2865.7999999523163,381405.7000000477,7018,WL,B,1.0
3,3.199000120162964,learn,56800.999879837036,Fri Sep 06 2024 10:20:52 GMT-0500 (Central Daylight Time),384605.0,A,streetenter,O,enter,317,1,3199.2999999523163,381405.7000000477,7018,WL,B,1.0
3,3.5490000247955322,learn,56450.99997520447,Fri Sep 06 2024 10:20:52 GMT-0500 (Central Daylight Time),384954.8000000715,A,g,O,g,344,1,349.5,384605.3000000715,7018,WL,B,2.0
3,3.865000009536743,learn,56134.99999046326,Fri Sep 06 2024 10:20:52 GMT-0500 (Central Daylight Time),385271.0,A,gr,O,r,306,1,665.6999999284744,384605.3000000715,7018,WL,B,2.0
3,3.949000120162964,learn,56050.999879837036,Fri Sep 06 2024 10:20:52 GMT-0500 (Central Daylight Time),385354.60000002384,A,gra,O,a,77,1,749.2999999523163,384605.3000000715,7018,WL,B,2.0
3,4.315000057220459,learn,55684.99994277954,Fri Sep 06 2024 10:20:52 GMT-0500 (Central Daylight Time),385721.10000002384,A,gras,O,s,354,1,1115.7999999523163,384605.3000000715,7018,WL,B,2.0
3,4.482000112533569,learn,55517.99988746643,Fri Sep 06 2024 10:20:52 GMT-0500 (Central Daylight Time),385887.7000000477,A,grass,O,s,155,1,1282.3999999761581,384605.3000000715,7018,WL,B,2.0
3,4.8480000495910645,learn,55151.999950408936,Fri Sep 06 2024 10:20:52 GMT-0500 (Central Daylight Time),386254.3000000715,A,grassenter,O,enter,349,1,1649.0,384605.3000000715,7018,WL,B,2.0
3,5.132000207901001,learn,54867.999792099,Fri Sep 06 2024 10:20:52 GMT-0500 (Central Daylight Time),386537.60000002384,A,d,O,d,270,1,283.0,386254.60000002384,7018,WL,B,3.0
3,5.331000089645386,learn,54668.999910354614,Fri Sep 06 2024 10:20:52 GMT-0500 (Central Daylight Time),386737.2000000477,A,dr,O,r,186,1,482.60000002384186,386254.60000002384,7018,WL,B,3.0
3,5.448000192642212,learn,54551.99980735779,Fri Sep 06 2024 10:20:52 GMT-0500 (Central Daylight Time),386853.8000000715,A,dro,O,o,107,1,599.2000000476837,386254.60000002384,7018,WL,B,3.0
3,5.648000001907349,learn,54351.99999809265,Fri Sep 06 2024 10:20:52 GMT-0500 (Central Daylight Time),387053.7000000477,A,droo,O,o,182,1,799.1000000238419,386254.60000002384,7018,WL,B,3.0
3,6.231000185012817,learn,53768.99981498718,Fri Sep 06 2024 10:20:52 GMT-0500 (Central Daylight Time),387637.3000000715,A,dro,O,backspace,574,1,1382.7000000476837,386254.60000002384,7018,WL,B,3.0
3,6.4150002002716064,learn,53584.99979972839,Fri Sep 06 2024 10:20:52 GMT-0500 (Central Daylight Time),387820.60000002384,A,dr,O,backspace,175,1,1566.0,386254.60000002384,7018,WL,B,3.0
3,6.614000082015991,learn,53385.99991798401,Fri Sep 06 2024 10:20:52 GMT-0500 (Central Daylight Time),388020.2000000477,A,d,O,backspace,184,1,1765.6000000238419,386254.60000002384,7018,WL,B,3.0
3,6.9150002002716064,learn,53084.99979972839,Fri Sep 06 2024 10:20:52 GMT-0500 (Central Daylight Time),388320.39999997616,A,do,O,o,281,1,2065.7999999523163,386254.60000002384,7018,WL,B,3.0
3,7.081000089645386,learn,52918.999910354614,Fri Sep 06 2024 10:20:52 GMT-0500 (Central Daylight Time),388487.10000002384,A,doo,O,o,148,1,2232.5,386254.60000002384,7018,WL,B,3.0
3,7.38100004196167,learn,52618.99995803833,Fri Sep 06 2024 10:20:52 GMT-0500 (Central Daylight Time),388786.8000000715,A,door,O,r,293,1,2532.2000000476837,386254.60000002384,7018,WL,B,3.0
3,8.231000185012817,learn,51768.99981498718,Fri Sep 06 2024 10:20:52 GMT-0500 (Central Daylight Time),389636.5,A,doorenter,O,enter,834,1,3381.899999976158,386254.60000002384,7018,WL,B,3.0
3,8.54800009727478,learn,51451.99990272522,Fri Sep 06 2024 10:20:52 GMT-0500 (Central Daylight Time),389953.5,A,a,O,a,312,1,316.5,389637.0,7018,WL,B,4.0
3,8.63100004196167,learn,51368.99995803833,Fri Sep 06 2024 10:20:52 GMT-0500 (Central Daylight Time),390036.5,A,ar,O,r,67,1,399.5,389637.0,7018,WL,B,4.0
3,8.88100004196167,learn,51118.99995803833,Fri Sep 06 2024 10:20:52 GMT-0500 (Central Daylight Time),390286.39999997616,A,arm,O,m,240,1,649.3999999761581,389637.0,7018,WL,B,4.0
3,9.730000019073486,learn,50269.999980926514,Fri Sep 06 2024 10:20:52 GMT-0500 (Central Daylight Time),391136.10000002384,A,armenter,O,enter,838,1,1499.1000000238419,389637.0,7018,WL,B,4.0
3,11.196000099182129,learn,48803.99990081787,Fri Sep 06 2024 10:20:52 GMT-0500 (Central Daylight Time),392602.10000002384,A,p,O,p,1462,1,1465.6000000238419,391136.5,7018,WL,B,5.0
3,11.430000066757202,learn,48569.9999332428,Fri Sep 06 2024 10:20:52 GMT-0500 (Central Daylight Time),392835.60000002384,A,pi,O,i,218,1,1699.1000000238419,391136.5,7018,WL,B,5.0
3,11.480000019073486,learn,48519.999980926514,Fri Sep 06 2024 10:20:52 GMT-0500 (Central Daylight Time),392886.3000000715,A,pip,O,p,41,1,1749.8000000715256,391136.5,7018,WL,B,5.0
3,11.813000202178955,learn,48186.999797821045,Fri Sep 06 2024 10:20:52 GMT-0500 (Central Daylight Time),393218.89999997616,A,pipe,O,e,326,1,2082.399999976158,391136.5,7018,WL,B,5.0
3,12.063000202178955,learn,47936.999797821045,Fri Sep 06 2024 10:20:52 GMT-0500 (Central Daylight Time),393468.5,A,pipeenter,O,enter,242,1,2332.0,391136.5,7018,WL,B,5.0
3,12.364000082015991,learn,47635.99991798401,Fri Sep 06 2024 10:20:52 GMT-0500 (Central Daylight Time),393769.7000000477,A,p,O,p,279,1,300.89999997615814,393468.8000000715,7018,WL,B,6.0
3,12.59600019454956,learn,47403.99980545044,Fri Sep 06 2024 10:20:52 GMT-0500 (Central Daylight Time),394001.89999997616,A,pu,O,u,219,1,533.0999999046326,393468.8000000715,7018,WL,B,6.0
3,12.84600019454956,learn,47153.99980545044,Fri Sep 06 2024 10:20:52 GMT-0500 (Central Daylight Time),394251.8000000715,A,pup,O,p,243,1,783.0,393468.8000000715,7018,WL,B,6.0
3,13.111999988555908,learn,46888.00001144409,Fri Sep 06 2024 10:20:52 GMT-0500 (Central Daylight Time),394518.2000000477,A,pupi,O,i,249,1,1049.3999999761581,393468.8000000715,7018,WL,B,6.0
3,13.460000038146973,learn,46539.99996185303,Fri Sep 06 2024 10:20:52 GMT-0500 (Central Daylight Time),394865.60000002384,A,pupil,O,l,327,1,1396.7999999523163,393468.8000000715,7018,WL,B,6.0
3,13.828999996185303,learn,46171.0000038147,Fri Sep 06 2024 10:20:52 GMT-0500 (Central Daylight Time),395234.7000000477,A,pupilenter,O,enter,355,1,1765.8999999761581,393468.8000000715,7018,WL,B,6.0
3,14.162000179290771,learn,45837.99982070923,Fri Sep 06 2024 10:20:52 GMT-0500 (Central Daylight Time),395568.0,A,c,O,c,322,1,332.89999997615814,395235.10000002384,7018,WL,B,7.0
3,14.34500002861023,learn,45654.99997138977,Fri Sep 06 2024 10:20:52 GMT-0500 (Central Daylight Time),395751.2000000477,A,cl,O,l,173,1,516.1000000238419,395235.10000002384,7018,WL,B,7.0
3,14.562000036239624,learn,45437.999963760376,Fri Sep 06 2024 10:20:52 GMT-0500 (Central Daylight Time),395967.89999997616,A,clo,O,o,206,1,732.7999999523163,395235.10000002384,7018,WL,B,7.0
3,14.878000020980835,learn,45121.999979019165,Fri Sep 06 2024 10:20:52 GMT-0500 (Central Daylight Time),396284.3000000715,A,clok,O,k,301,1,1049.2000000476837,395235.10000002384,7018,WL,B,7.0
3,15.59500002861023,learn,44404.99997138977,Fri Sep 06 2024 10:20:52 GMT-0500 (Central Daylight Time),397001.0,A,clo,O,backspace,696,1,1765.8999999761581,395235.10000002384,7018,WL,B,7.0
3,15.778000116348267,learn,44221.99988365173,Fri Sep 06 2024 10:20:52 GMT-0500 (Central Daylight Time),397184.3000000715,A,cloc,O,c,172,1,1949.2000000476837,395235.10000002384,7018,WL,B,7.0
3,16.144999980926514,learn,43855.000019073486,Fri Sep 06 2024 10:20:52 GMT-0500 (Central Daylight Time),397550.7000000477,A,clock,O,k,348,1,2315.600000023842,395235.10000002384,7018,WL,B,7.0
3,16.511000156402588,learn,43488.99984359741,Fri Sep 06 2024 10:20:52 GMT-0500 (Central Daylight Time),397917.2000000477,A,clockenter,O,enter,358,1,2682.100000023842,395235.10000002384,7018,WL,B,7.0
3,16.82800006866455,learn,43171.99993133545,Fri Sep 06 2024 10:20:52 GMT-0500 (Central Daylight Time),398233.8000000715,A,l,O,l,303,1,316.2000000476837,397917.60000002384,7018,WL,B,8.0
3,16.99500012397766,learn,43004.99987602234,Fri Sep 06 2024 10:20:52 GMT-0500 (Central Daylight Time),398400.39999997616,A,la,O,a,146,1,482.7999999523163,397917.60000002384,7018,WL,B,8.0
3,17.19600009918213,learn,42803.99990081787,Fri Sep 06 2024 10:20:52 GMT-0500 (Central Daylight Time),398601.5,A,lak,O,k,188,1,683.8999999761581,397917.60000002384,7018,WL,B,8.0
3,17.32800006866455,learn,42671.99993133545,Fri Sep 06 2024 10:20:52 GMT-0500 (Central Daylight Time),398733.60000002384,A,lake,O,e,115,1,816.0,397917.60000002384,7018,WL,B,8.0
3,17.594000101089478,learn,42405.99989891052,Fri Sep 06 2024 10:20:52 GMT-0500 (Central Daylight Time),399000.2000000477,A,lakeenter,O,enter,255,1,1082.6000000238419,397917.60000002384,7018,WL,B,8.0
3,17.861000061035156,learn,42138.999938964844,Fri Sep 06 2024 10:20:52 GMT-0500 (Central Daylight Time),399266.89999997616,A,w,O,w,252,1,266.39999997615814,399000.5,7018,WL,B,9.0
3,18.061000108718872,learn,41938.99989128113,Fri Sep 06 2024 10:20:52 GMT-0500 (Central Daylight Time),399466.39999997616,A,wi,O,i,194,1,465.89999997615814,399000.5,7018,WL,B,9.0
3,18.177000045776367,learn,41822.99995422363,Fri Sep 06 2024 10:20:52 GMT-0500 (Central Daylight Time),399583.2000000477,A,wif,O,f,98,1,582.7000000476837,399000.5,7018,WL,B,9.0
3,18.228000164031982,learn,41771.99983596802,Fri Sep 06 2024 10:20:52 GMT-0500 (Central Daylight Time),399633.39999997616,A,wife,O,e,45,1,632.8999999761581,399000.5,7018,WL,B,9.0
3,18.528000116348267,learn,41471.99988365173,Fri Sep 06 2024 10:20:52 GMT-0500 (Central Daylight Time),399933.39999997616,A,wifeenter,O,enter,291,1,932.8999999761581,399000.5,7018,WL,B,9.0
3,18.927000045776367,learn,41072.99995422363,Fri Sep 06 2024 10:20:52 GMT-0500 (Central Daylight Time),400333.3000000715,A,w,O,w,383,1,399.60000002384186,399933.7000000477,7018,WL,B,10.0
3,19.027000188827515,learn,40972.999811172485,Fri Sep 06 2024 10:20:52 GMT-0500 (Central Daylight Time),400433.3000000715,A,wi,O,i,95,1,499.60000002384186,399933.7000000477,7018,WL,B,10.0
3,19.094000101089478,learn,40905.99989891052,Fri Sep 06 2024 10:20:52 GMT-0500 (Central Daylight Time),400499.60000002384,A,win,O,n,51,1,565.8999999761581,399933.7000000477,7018,WL,B,10.0
3,19.294000148773193,learn,40705.99985122681,Fri Sep 06 2024 10:20:52 GMT-0500 (Central Daylight Time),400699.8000000715,A,wind,O,d,185,1,766.1000000238419,399933.7000000477,7018,WL,B,10.0
3,19.509999990463257,learn,40490.00000953674,Fri Sep 06 2024 10:20:52 GMT-0500 (Central Daylight Time),400916.2000000477,A,windo,O,o,209,1,982.5,399933.7000000477,7018,WL,B,10.0
3,19.66000008583069,learn,40339.99991416931,Fri Sep 06 2024 10:20:52 GMT-0500 (Central Daylight Time),401066.10000002384,A,window,O,w,144,1,1132.3999999761581,399933.7000000477,7018,WL,B,10.0
3,20.259999990463257,learn,39740.00000953674,Fri Sep 06 2024 10:20:52 GMT-0500 (Central Daylight Time),401665.89999997616,A,windowenter,O,enter,596,1,1732.1999999284744,399933.7000000477,7018,WL,B,10.0
3,20.594000101089478,learn,39405.99989891052,Fri Sep 06 2024 10:20:52 GMT-0500 (Central Daylight Time),401999.39999997616,A,s,O,s,315,1,333.2999999523163,401666.10000002384,7018,WL,B,11.0
3,20.743000030517578,learn,39256.99996948242,Fri Sep 06 2024 10:20:52 GMT-0500 (Central Daylight Time),402149.39999997616,A,st,O,t,141,1,483.2999999523163,401666.10000002384,7018,WL,B,11.0
3,20.99400019645691,learn,39005.99980354309,Fri Sep 06 2024 10:20:52 GMT-0500 (Central Daylight Time),402399.39999997616,A,sta,O,a,231,1,733.2999999523163,401666.10000002384,7018,WL,B,11.0
3,21.110000133514404,learn,38889.999866485596,Fri Sep 06 2024 10:20:52 GMT-0500 (Central Daylight Time),402515.39999997616,A,star,O,r,101,1,849.2999999523163,401666.10000002384,7018,WL,B,11.0
3,23.909000158309937,learn,36090.99984169006,Fri Sep 06 2024 10:20:52 GMT-0500 (Central Daylight Time),405315.10000002384,A,starenter,O,enter,2793,1,3649.0,401666.10000002384,7018,WL,B,11.0
3,26.058000087738037,learn,33941.99991226196,Fri Sep 06 2024 10:20:52 GMT-0500 (Central Daylight Time),407464.39999997616,A,f,O,f,2129,1,2149.0,405315.39999997616,7018,WL,B,12.0
3,26.242000102996826,learn,33757.999897003174,Fri Sep 06 2024 10:20:52 GMT-0500 (Central Daylight Time),407647.7000000477,A,fi,O,i,172,1,2332.3000000715256,405315.39999997616,7018,WL,B,12.0
3,26.342000007629395,learn,33657.999992370605,Fri Sep 06 2024 10:20:52 GMT-0500 (Central Daylight Time),407747.60000002384,A,fir,O,r,93,1,2432.2000000476837,405315.39999997616,7018,WL,B,12.0
3,26.442000150680542,learn,33557.99984931946,Fri Sep 06 2024 10:20:52 GMT-0500 (Central Daylight Time),407847.5,A,fire,O,e,89,1,2532.100000023842,405315.39999997616,7018,WL,B,12.0
3,27.60800004005432,learn,32391.99995994568,Fri Sep 06 2024 10:20:52 GMT-0500 (Central Daylight Time),409013.8000000715,A,fireenter,O,enter,1149,1,3698.4000000953674,405315.39999997616,7018,WL,B,12.0
3,41.8030002117157,learn,18196.9997882843,Fri Sep 06 2024 10:20:52 GMT-0500 (Central Daylight Time),423209.3000000715,A,enter,O,enter,14175,1,14195.200000047684,409014.10000002384,7018,WL,B,13.0
3,42.28700017929077,learn,17712.99982070923,Fri Sep 06 2024 10:20:52 GMT-0500 (Central Daylight Time),423692.60000002384,A,enter,O,enter,467,1,483.0,423209.60000002384,7018,WL,B,14.0
3,42.78600001335144,learn,17213.99998664856,Fri Sep 06 2024 10:20:52 GMT-0500 (Central Daylight Time),424192.3000000715,A,enter,O,enter,488,1,499.2000000476837,423693.10000002384,7018,WL,B,15.0
4,0.5160000324249268,learn,59483.99996757507,Fri Sep 06 2024 10:20:52 GMT-0500 (Central Daylight Time),490854.60000002384,A,s,O,s,499,1,515.7999999523163,490338.8000000715,7018,WL,B,1.0
4,0.7000000476837158,learn,59299.999952316284,Fri Sep 06 2024 10:20:52 GMT-0500 (Central Daylight Time),491038.0,A,st,O,t,173,1,699.1999999284744,490338.8000000715,7018,WL,B,1.0
4,1.0329999923706055,learn,58967.000007629395,Fri Sep 06 2024 10:20:52 GMT-0500 (Central Daylight Time),491371.2000000477,A,str,O,r,319,1,1032.3999999761581,490338.8000000715,7018,WL,B,1.0
4,1.0999999046325684,learn,58900.00009536743,Fri Sep 06 2024 10:20:52 GMT-0500 (Central Daylight Time),491437.89999997616,A,stre,O,e,57,1,1099.0999999046326,490338.8000000715,7018,WL,B,1.0
4,1.2990000247955322,learn,58700.99997520447,Fri Sep 06 2024 10:20:52 GMT-0500 (Central Daylight Time),491637.8000000715,A,stree,O,e,183,1,1299.0,490338.8000000715,7018,WL,B,1.0
4,1.432999849319458,learn,58567.00015068054,Fri Sep 06 2024 10:20:52 GMT-0500 (Central Daylight Time),491771.2000000477,A,street,O,t,126,1,1432.3999999761581,490338.8000000715,7018,WL,B,1.0
4,1.7159998416900635,learn,58284.00015830994,Fri Sep 06 2024 10:20:52 GMT-0500 (Central Daylight Time),492054.5,A,streetenter,O,enter,273,1,1715.6999999284744,490338.8000000715,7018,WL,B,1.0
4,1.9159998893737793,learn,58084.00011062622,Fri Sep 06 2024 10:20:52 GMT-0500 (Central Daylight Time),492254.39999997616,A,g,O,g,182,1,199.59999990463257,492054.8000000715,7018,WL,B,2.0
4,2.132999897003174,learn,57867.000102996826,Fri Sep 06 2024 10:20:52 GMT-0500 (Central Daylight Time),492470.8000000715,A,gr,O,r,204,1,416.0,492054.8000000715,7018,WL,B,2.0
4,2.2159998416900635,learn,57784.00015830994,Fri Sep 06 2024 10:20:52 GMT-0500 (Central Daylight Time),492554.10000002384,A,gra,O,a,70,1,499.2999999523163,492054.8000000715,7018,WL,B,2.0
4,2.4819998741149902,learn,57518.00012588501,Fri Sep 06 2024 10:20:52 GMT-0500 (Central Daylight Time),492820.8000000715,A,gras,O,s,250,1,766.0,492054.8000000715,7018,WL,B,2.0
4,2.6489999294281006,learn,57351.0000705719,Fri Sep 06 2024 10:20:52 GMT-0500 (Central Daylight Time),492987.8000000715,A,grass,O,s,152,1,933.0,492054.8000000715,7018,WL,B,2.0
4,3.0820000171661377,learn,56917.99998283386,Fri Sep 06 2024 10:20:52 GMT-0500 (Central Daylight Time),493420.60000002384,A,grassenter,O,enter,425,1,1365.7999999523163,492054.8000000715,7018,WL,B,2.0
4,3.4149999618530273,learn,56585.00003814697,Fri Sep 06 2024 10:20:52 GMT-0500 (Central Daylight Time),493753.8000000715,A,d,O,d,313,1,332.8000000715256,493421.0,7018,WL,B,3.0
4,3.56499981880188,learn,56435.00018119812,Fri Sep 06 2024 10:20:52 GMT-0500 (Central Daylight Time),493903.7000000477,A,do,O,o,137,1,482.7000000476837,493421.0,7018,WL,B,3.0
4,3.7649998664855957,learn,56235.000133514404,Fri Sep 06 2024 10:20:52 GMT-0500 (Central Daylight Time),494103.60000002384,A,doo,O,o,181,1,682.6000000238419,493421.0,7018,WL,B,3.0
4,3.881999969482422,learn,56118.00003051758,Fri Sep 06 2024 10:20:52 GMT-0500 (Central Daylight Time),494220.39999997616,A,door,O,r,109,1,799.3999999761581,493421.0,7018,WL,B,3.0
4,4.781999826431274,learn,55218.000173568726,Fri Sep 06 2024 10:20:52 GMT-0500 (Central Daylight Time),495120.3000000715,A,doorenter,O,enter,888,1,1699.3000000715256,493421.0,7018,WL,B,3.0
4,5.23199987411499,learn,54768.00012588501,Fri Sep 06 2024 10:20:52 GMT-0500 (Central Daylight Time),495570.0,A,a,O,a,429,1,449.2999999523163,495120.7000000477,7018,WL,B,4.0
4,5.31499981880188,learn,54685.00018119812,Fri Sep 06 2024 10:20:52 GMT-0500 (Central Daylight Time),495653.2000000477,A,ar,O,r,74,1,532.5,495120.7000000477,7018,WL,B,4.0
4,5.615000009536743,learn,54384.99999046326,Fri Sep 06 2024 10:20:52 GMT-0500 (Central Daylight Time),495953.3000000715,A,arm,O,m,279,1,832.6000000238419,495120.7000000477,7018,WL,B,4.0
4,5.898999929428101,learn,54101.0000705719,Fri Sep 06 2024 10:20:52 GMT-0500 (Central Daylight Time),496237.39999997616,A,armenter,O,enter,275,1,1116.6999999284744,495120.7000000477,7018,WL,B,4.0
4,8.013999938964844,learn,51986.000061035156,Fri Sep 06 2024 10:20:52 GMT-0500 (Central Daylight Time),498352.3000000715,A,c,O,c,2103,1,2114.600000023842,496237.7000000477,7018,WL,B,5.0
4,8.164000034332275,learn,51835.999965667725,Fri Sep 06 2024 10:20:52 GMT-0500 (Central Daylight Time),498502.3000000715,A,cl,O,l,140,1,2264.600000023842,496237.7000000477,7018,WL,B,5.0
4,8.396999835968018,learn,51603.00016403198,Fri Sep 06 2024 10:20:52 GMT-0500 (Central Daylight Time),498735.60000002384,A,clo,O,o,222,1,2497.899999976158,496237.7000000477,7018,WL,B,5.0
4,8.79699993133545,learn,51203.00006866455,Fri Sep 06 2024 10:20:52 GMT-0500 (Central Daylight Time),499135.39999997616,A,clok,O,k,381,1,2897.6999999284744,496237.7000000477,7018,WL,B,5.0
4,9.179999828338623,learn,50820.00017166138,Fri Sep 06 2024 10:20:52 GMT-0500 (Central Daylight Time),499518.8000000715,A,clo,O,backspace,365,1,3281.100000023842,496237.7000000477,7018,WL,B,5.0
4,9.263999938964844,learn,50736.000061035156,Fri Sep 06 2024 10:20:52 GMT-0500 (Central Daylight Time),499601.8000000715,A,cloc,O,c,78,1,3364.100000023842,496237.7000000477,7018,WL,B,5.0
4,9.52999997138977,learn,50470.00002861023,Fri Sep 06 2024 10:20:52 GMT-0500 (Central Daylight Time),499868.60000002384,A,clock,O,k,259,1,3630.899999976158,496237.7000000477,7018,WL,B,5.0
4,9.912999868392944,learn,50087.000131607056,Fri Sep 06 2024 10:20:52 GMT-0500 (Central Daylight Time),500251.7000000477,A,clockenter,O,enter,376,1,4014.0,496237.7000000477,7018,WL,B,5.0
4,10.297999858856201,learn,49702.0001411438,Fri Sep 06 2024 10:20:52 GMT-0500 (Central Daylight Time),500636.0,A,w,O,w,377,1,384.10000002384186,500251.89999997616,7018,WL,B,6.0
4,10.52999997138977,learn,49470.00002861023,Fri Sep 06 2024 10:20:52 GMT-0500 (Central Daylight Time),500868.2000000477,A,wi,O,i,216,1,616.3000000715256,500251.89999997616,7018,WL,B,6.0
4,10.646999835968018,learn,49353.00016403198,Fri Sep 06 2024 10:20:52 GMT-0500 (Central Daylight Time),500985.0,A,wif,O,f,96,1,733.1000000238419,500251.89999997616,7018,WL,B,6.0
4,10.69599986076355,learn,49304.00013923645,Fri Sep 06 2024 10:20:52 GMT-0500 (Central Daylight Time),501034.7000000477,A,wife,O,e,44,1,782.8000000715256,500251.89999997616,7018,WL,B,6.0
4,11.062999963760376,learn,48937.000036239624,Fri Sep 06 2024 10:20:52 GMT-0500 (Central Daylight Time),501401.3000000715,A,wifeenter,O,enter,354,1,1149.4000000953674,500251.89999997616,7018,WL,B,6.0
4,11.412999868392944,learn,48587.000131607056,Fri Sep 06 2024 10:20:52 GMT-0500 (Central Daylight Time),501751.3000000715,A,w,O,w,339,1,349.60000002384186,501401.7000000477,7018,WL,B,7.0
4,11.562999963760376,learn,48437.000036239624,Fri Sep 06 2024 10:20:52 GMT-0500 (Central Daylight Time),501901.2000000477,A,wi,O,i,141,1,499.5,501401.7000000477,7018,WL,B,7.0
4,11.629999876022339,learn,48370.00012397766,Fri Sep 06 2024 10:20:52 GMT-0500 (Central Daylight Time),501968.0,A,win,O,n,47,1,566.2999999523163,501401.7000000477,7018,WL,B,7.0
4,11.77999997138977,learn,48220.00002861023,Fri Sep 06 2024 10:20:52 GMT-0500 (Central Daylight Time),502117.89999997616,A,wind,O,d,141,1,716.1999999284744,501401.7000000477,7018,WL,B,7.0
4,11.94599986076355,learn,48054.00013923645,Fri Sep 06 2024 10:20:52 GMT-0500 (Central Daylight Time),502284.5,A,windo,O,o,159,1,882.7999999523163,501401.7000000477,7018,WL,B,7.0
4,12.062999963760376,learn,47937.000036239624,Fri Sep 06 2024 10:20:52 GMT-0500 (Central Daylight Time),502401.2000000477,A,window,O,w,112,1,999.5,501401.7000000477,7018,WL,B,7.0
4,12.279000043869019,learn,47720.99995613098,Fri Sep 06 2024 10:20:52 GMT-0500 (Central Daylight Time),502617.7000000477,A,windowenter,O,enter,211,1,1216.0,501401.7000000477,7018,WL,B,7.0
4,12.529000043869019,learn,47470.99995613098,Fri Sep 06 2024 10:20:52 GMT-0500 (Central Daylight Time),502867.60000002384,A,s,O,s,235,1,249.70000004768372,502617.89999997616,7018,WL,B,8.0
4,12.662999868392944,learn,47337.000131607056,Fri Sep 06 2024 10:20:52 GMT-0500 (Central Daylight Time),503001.0,A,st,O,t,121,1,383.10000002384186,502617.89999997616,7018,WL,B,8.0
4,12.912999868392944,learn,47087.000131607056,Fri Sep 06 2024 10:20:52 GMT-0500 (Central Daylight Time),503250.89999997616,A,sta,O,a,236,1,633.0,502617.89999997616,7018,WL,B,8.0
4,12.996000051498413,learn,47003.99994850159,Fri Sep 06 2024 10:20:52 GMT-0500 (Central Daylight Time),503334.2000000477,A,star,O,r,74,1,716.3000000715256,502617.89999997616,7018,WL,B,8.0
4,13.411999940872192,learn,46588.00005912781,Fri Sep 06 2024 10:20:52 GMT-0500 (Central Daylight Time),503750.7000000477,A,starenter,O,enter,399,1,1132.8000000715256,502617.89999997616,7018,WL,B,8.0
4,13.678999900817871,learn,46321.00009918213,Fri Sep 06 2024 10:20:52 GMT-0500 (Central Daylight Time),504017.60000002384,A,c,O,c,254,1,266.60000002384186,503751.0,7018,WL,B,9.0
4,13.779000043869019,learn,46220.99995613098,Fri Sep 06 2024 10:20:52 GMT-0500 (Central Daylight Time),504117.2000000477,A,ca,O,a,91,1,366.2000000476837,503751.0,7018,WL,B,9.0
4,14.01199984550476,learn,45988.00015449524,Fri Sep 06 2024 10:20:52 GMT-0500 (Central Daylight Time),504350.60000002384,A,cab,O,b,215,1,599.6000000238419,503751.0,7018,WL,B,9.0
4,14.161999940872192,learn,45838.00005912781,Fri Sep 06 2024 10:20:52 GMT-0500 (Central Daylight Time),504500.39999997616,A,cabi,O,i,134,1,749.3999999761581,503751.0,7018,WL,B,9.0
4,14.246000051498413,learn,45753.99994850159,Fri Sep 06 2024 10:20:52 GMT-0500 (Central Daylight Time),504583.8000000715,A,cabin,O,n,64,1,832.8000000715256,503751.0,7018,WL,B,9.0
4,14.578999996185303,learn,45421.0000038147,Fri Sep 06 2024 10:20:52 GMT-0500 (Central Daylight Time),504917.10000002384,A,cabinenter,O,enter,317,1,1166.1000000238419,503751.0,7018,WL,B,9.0
4,14.878000020980835,learn,45121.999979019165,Fri Sep 06 2024 10:20:52 GMT-0500 (Central Daylight Time),505216.7000000477,A,p,O,p,280,1,299.2000000476837,504917.5,7018,WL,B,10.0
4,15.062000036239624,learn,44937.999963760376,Fri Sep 06 2024 10:20:52 GMT-0500 (Central Daylight Time),505400.39999997616,A,pu,O,u,172,1,482.89999997615814,504917.5,7018,WL,B,10.0
4,15.244999885559082,learn,44755.00011444092,Fri Sep 06 2024 10:20:52 GMT-0500 (Central Daylight Time),505583.60000002384,A,pup,O,p,172,1,666.1000000238419,504917.5,7018,WL,B,10.0
4,15.51199984550476,learn,44488.00015449524,Fri Sep 06 2024 10:20:52 GMT-0500 (Central Daylight Time),505849.89999997616,A,pupi,O,i,261,1,932.3999999761581,504917.5,7018,WL,B,10.0
4,16.07799983024597,learn,43922.00016975403,Fri Sep 06 2024 10:20:52 GMT-0500 (Central Daylight Time),506416.5,A,pupil,O,l,555,1,1499.0,504917.5,7018,WL,B,10.0
4,17.41100001335144,learn,42588.99998664856,Fri Sep 06 2024 10:20:52 GMT-0500 (Central Daylight Time),507749.39999997616,A,pupilenter,O,enter,1324,1,2831.899999976158,504917.5,7018,WL,B,10.0
4,17.793999910354614,learn,42206.000089645386,Fri Sep 06 2024 10:20:52 GMT-0500 (Central Daylight Time),508132.7000000477,A,c,O,c,368,1,383.0,507749.7000000477,7018,WL,B,11.0
4,17.960999965667725,learn,42039.000034332275,Fri Sep 06 2024 10:20:52 GMT-0500 (Central Daylight Time),508299.3000000715,A,ci,O,i,160,1,549.6000000238419,507749.7000000477,7018,WL,B,11.0
4,18.0939998626709,learn,41906.0001373291,Fri Sep 06 2024 10:20:52 GMT-0500 (Central Daylight Time),508432.60000002384,A,cit,O,t,113,1,682.8999999761581,507749.7000000477,7018,WL,B,11.0
4,18.24399995803833,learn,41756.00004196167,Fri Sep 06 2024 10:20:52 GMT-0500 (Central Daylight Time),508582.39999997616,A,city,O,y,132,1,832.6999999284744,507749.7000000477,7018,WL,B,11.0
4,20.026999950408936,learn,39973.000049591064,Fri Sep 06 2024 10:20:52 GMT-0500 (Central Daylight Time),510365.3000000715,A,cityenter,O,enter,1766,1,2615.600000023842,507749.7000000477,7018,WL,B,11.0
4,20.376999855041504,learn,39623.000144958496,Fri Sep 06 2024 10:20:52 GMT-0500 (Central Daylight Time),510715.2000000477,A,f,O,f,337,1,349.7000000476837,510365.5,7018,WL,B,12.0
4,20.609999895095825,learn,39390.000104904175,Fri Sep 06 2024 10:20:52 GMT-0500 (Central Daylight Time),510948.3000000715,A,fi,O,i,225,1,582.8000000715256,510365.5,7018,WL,B,12.0
4,20.74399995803833,learn,39256.00004196167,Fri Sep 06 2024 10:20:52 GMT-0500 (Central Daylight Time),511081.89999997616,A,fir,O,r,112,1,716.3999999761581,510365.5,7018,WL,B,12.0
4,20.792999982833862,learn,39207.00001716614,Fri Sep 06 2024 10:20:52 GMT-0500 (Central Daylight Time),511131.7000000477,A,fire,O,e,42,1,766.2000000476837,510365.5,7018,WL,B,12.0
4,22.121999979019165,learn,37878.000020980835,Fri Sep 06 2024 10:20:52 GMT-0500 (Central Daylight Time),512460.39999997616,A,fireenter,O,enter,1324,1,2094.899999976158,510365.5,7018,WL,B,12.0
4,32.156999826431274,learn,27843.000173568726,Fri Sep 06 2024 10:20:52 GMT-0500 (Central Daylight Time),522494.8000000715,A,p,O,p,10024,1,10034.0,512460.8000000715,7018,WL,B,13.0
4,33.23899984359741,learn,26761.000156402588,Fri Sep 06 2024 10:20:52 GMT-0500 (Central Daylight Time),523577.5,A,pi,O,i,1069,1,11116.699999928474,512460.8000000715,7018,WL,B,13.0
4,33.75600004196167,learn,26243.99995803833,Fri Sep 06 2024 10:20:52 GMT-0500 (Central Daylight Time),524094.0,A,pip,O,p,507,1,11633.199999928474,512460.8000000715,7018,WL,B,13.0
4,34.055999994277954,learn,25944.000005722046,Fri Sep 06 2024 10:20:52 GMT-0500 (Central Daylight Time),524394.3000000715,A,pipe,O,e,287,1,11933.5,512460.8000000715,7018,WL,B,13.0
4,34.371999979019165,learn,25628.000020980835,Fri Sep 06 2024 10:20:52 GMT-0500 (Central Daylight Time),524710.8000000715,A,pipeenter,O,enter,306,1,12250.0,512460.8000000715,7018,WL,B,13.0
4,34.83899998664856,learn,25161.00001335144,Fri Sep 06 2024 10:20:52 GMT-0500 (Central Daylight Time),525177.3000000715,A,p,O,p,462,1,466.2000000476837,524711.1000000238,7018,WL,B,14.0
4,35.08999991416931,learn,24910.00008583069,Fri Sep 06 2024 10:20:52 GMT-0500 (Central Daylight Time),525428.3999999762,A,pu,O,u,243,1,717.2999999523163,524711.1000000238,7018,WL,B,14.0
4,35.289000034332275,learn,24710.999965667725,Fri Sep 06 2024 10:20:52 GMT-0500 (Central Daylight Time),525627.0,A,pup,O,p,192,1,915.8999999761581,524711.1000000238,7018,WL,B,14.0
4,36.05499982833862,learn,23945.000171661377,Fri Sep 06 2024 10:20:52 GMT-0500 (Central Daylight Time),526393.5,A,pupi,O,i,753,1,1682.3999999761581,524711.1000000238,7018,WL,B,14.0
4,38.47099995613098,learn,21529.00004386902,Fri Sep 06 2024 10:20:52 GMT-0500 (Central Daylight Time),528809.3000000715,A,pupil,O,l,2403,1,4098.200000047684,524711.1000000238,7018,WL,B,14.0
4,40.73699998855591,learn,19263.00001144409,Fri Sep 06 2024 10:20:52 GMT-0500 (Central Daylight Time),531075.2000000477,A,pupilenter,O,enter,2259,1,6364.100000023842,524711.1000000238,7018,WL,B,14.0
4,41.33699989318848,learn,18663.000106811523,Fri Sep 06 2024 10:20:52 GMT-0500 (Central Daylight Time),531675.2000000477,A,enter,O,enter,585,1,599.6000000238419,531075.6000000238,7018,WL,B,15.0
5,0.5,learn,60000.0,Fri Sep 06 2024 10:20:52 GMT-0500 (Central Daylight Time),597921.2000000477,A,s,O,s,488,1,499.89999997615814,597421.3000000715,7018,WL,B,1.0
5,0.6659998893737793,learn,60000.0,Fri Sep 06 2024 10:20:52 GMT-0500 (Central Daylight Time),598087.8000000715,A,st,O,t,155,1,666.5,597421.3000000715,7018,WL,B,1.0
5,0.9330000877380371,learn,60000.0,Fri Sep 06 2024 10:20:52 GMT-0500 (Central Daylight Time),598354.6000000238,A,str,O,r,253,1,933.2999999523163,597421.3000000715,7018,WL,B,1.0
5,1.0,learn,60000.0,Fri Sep 06 2024 10:20:52 GMT-0500 (Central Daylight Time),598421.0,A,stre,O,e,58,1,999.6999999284744,597421.3000000715,7018,WL,B,1.0
5,1.1989998817443848,learn,60000.0,Fri Sep 06 2024 10:20:52 GMT-0500 (Central Daylight Time),598620.8999999762,A,stree,O,e,192,1,1199.5999999046326,597421.3000000715,7018,WL,B,1.0
5,1.3329999446868896,learn,60000.0,Fri Sep 06 2024 10:20:52 GMT-0500 (Central Daylight Time),598754.0,A,street,O,t,128,1,1332.6999999284744,597421.3000000715,7018,WL,B,1.0
5,1.681999921798706,learn,60000.0,Fri Sep 06 2024 10:20:52 GMT-0500 (Central Daylight Time),599103.8999999762,A,streetenter,O,enter,331,1,1682.5999999046326,597421.3000000715,7018,WL,B,1.0
5,1.933000087738037,learn,60000.0,Fri Sep 06 2024 10:20:52 GMT-0500 (Central Daylight Time),599354.2000000477,A,g,O,g,237,1,249.89999997615814,599104.3000000715,7018,WL,B,2.0
5,2.1989998817443848,learn,60000.0,Fri Sep 06 2024 10:20:52 GMT-0500 (Central Daylight Time),599620.6000000238,A,gr,O,r,251,1,516.2999999523163,599104.3000000715,7018,WL,B,2.0
5,2.2829999923706055,learn,60000.0,Fri Sep 06 2024 10:20:52 GMT-0500 (Central Daylight Time),599704.0,A,gra,O,a,64,1,599.6999999284744,599104.3000000715,7018,WL,B,2.0
5,2.565999984741211,learn,60000.0,Fri Sep 06 2024 10:20:52 GMT-0500 (Central Daylight Time),599987.3000000715,A,gras,O,s,269,1,883.0,599104.3000000715,7018,WL,B,2.0
5,2.7319998741149902,learn,60000.0,Fri Sep 06 2024 10:20:52 GMT-0500 (Central Daylight Time),600153.8000000715,A,grass,O,s,145,1,1049.5,599104.3000000715,7018,WL,B,2.0
5,3.065000057220459,learn,60000.0,Fri Sep 06 2024 10:20:52 GMT-0500 (Central Daylight Time),600487.1000000238,A,grassenter,O,enter,322,1,1382.7999999523163,599104.3000000715,7018,WL,B,2.0
5,3.4649999141693115,learn,60000.0,Fri Sep 06 2024 10:20:52 GMT-0500 (Central Daylight Time),600886.8000000715,A,d,O,d,382,1,399.40000009536743,600487.3999999762,7018,WL,B,3.0
5,3.681999921798706,learn,60000.0,Fri Sep 06 2024 10:20:52 GMT-0500 (Central Daylight Time),601103.5,A,do,O,o,198,1,616.1000000238419,600487.3999999762,7018,WL,B,3.0
5,3.8480000495910645,learn,60000.0,Fri Sep 06 2024 10:20:52 GMT-0500 (Central Daylight Time),601270.1000000238,A,doo,O,o,157,1,782.7000000476837,600487.3999999762,7018,WL,B,3.0
5,3.997999906539917,learn,60000.0,Fri Sep 06 2024 10:20:52 GMT-0500 (Central Daylight Time),601420.0,A,door,O,r,134,1,932.6000000238419,600487.3999999762,7018,WL,B,3.0
5,4.3480000495910645,learn,60000.0,Fri Sep 06 2024 10:20:52 GMT-0500 (Central Daylight Time),601769.8999999762,A,doorenter,O,enter,329,1,1282.5,600487.3999999762,7018,WL,B,3.0
5,4.648000001907349,learn,60000.0,Fri Sep 06 2024 10:20:52 GMT-0500 (Central Daylight Time),602069.7000000477,A,a,O,a,291,1,299.5,601770.2000000477,7018,WL,B,4.0
5,4.765000104904175,learn,60000.0,Fri Sep 06 2024 10:20:52 GMT-0500 (Central Daylight Time),602186.3999999762,A,ar,O,r,103,1,416.1999999284744,601770.2000000477,7018,WL,B,4.0
5,5.013999938964844,learn,60000.0,Fri Sep 06 2024 10:20:52 GMT-0500 (Central Daylight Time),602436.3000000715,A,arm,O,m,242,1,666.1000000238419,601770.2000000477,7018,WL,B,4.0
5,5.398000001907349,learn,60000.0,Fri Sep 06 2024 10:20:52 GMT-0500 (Central Daylight Time),602819.5,A,armenter,O,enter,368,1,1049.2999999523163,601770.2000000477,7018,WL,B,4.0
5,6.063999891281128,learn,60000.0,Fri Sep 06 2024 10:20:52 GMT-0500 (Central Daylight Time),603486.2000000477,A,c,O,c,649,1,666.3999999761581,602819.8000000715,7018,WL,B,5.0
5,6.96399998664856,learn,60000.0,Fri Sep 06 2024 10:20:52 GMT-0500 (Central Daylight Time),604385.8999999762,A,ci,O,i,886,1,1566.0999999046326,602819.8000000715,7018,WL,B,5.0
5,7.329999923706055,learn,60000.0,Fri Sep 06 2024 10:20:52 GMT-0500 (Central Daylight Time),604752.2000000477,A,cit,O,t,355,1,1932.3999999761581,602819.8000000715,7018,WL,B,5.0
5,7.513999938964844,learn,60000.0,Fri Sep 06 2024 10:20:52 GMT-0500 (Central Daylight Time),604935.6000000238,A,city,O,y,164,1,2115.7999999523163,602819.8000000715,7018,WL,B,5.0
5,7.930000066757202,learn,60000.0,Fri Sep 06 2024 10:20:52 GMT-0500 (Central Daylight Time),605352.1000000238,A,cityenter,O,enter,405,1,2532.2999999523163,602819.8000000715,7018,WL,B,5.0
5,8.29699993133545,learn,60000.0,Fri Sep 06 2024 10:20:52 GMT-0500 (Central Daylight Time),605718.6000000238,A,s,O,s,349,1,366.10000002384186,605352.5,7018,WL,B,6.0
5,8.480000019073486,learn,60000.0,Fri Sep 06 2024 10:20:52 GMT-0500 (Central Daylight Time),605902.1000000238,A,sk,O,k,174,1,549.6000000238419,605352.5,7018,WL,B,6.0
5,8.69700002670288,learn,60000.0,Fri Sep 06 2024 10:20:52 GMT-0500 (Central Daylight Time),606118.3999999762,A,ski,O,i,198,1,765.8999999761581,605352.5,7018,WL,B,6.0
5,8.763999938964844,learn,60000.0,Fri Sep 06 2024 10:20:52 GMT-0500 (Central Daylight Time),606185.3999999762,A,skin,O,n,54,1,832.8999999761581,605352.5,7018,WL,B,6.0
5,9.2260000705719,learn,60000.0,Fri Sep 06 2024 10:20:52 GMT-0500 (Central Daylight Time),606648.2000000477,A,skinenter,O,enter,458,1,1295.7000000476837,605352.5,7018,WL,B,6.0
5,9.513000011444092,learn,60000.0,Fri Sep 06 2024 10:20:52 GMT-0500 (Central Daylight Time),606934.6000000238,A,f,O,f,268,1,286.10000002384186,606648.5,7018,WL,B,7.0
5,9.69700002670288,learn,60000.0,Fri Sep 06 2024 10:20:52 GMT-0500 (Central Daylight Time),607118.3000000715,A,fi,O,i,174,1,469.8000000715256,606648.5,7018,WL,B,7.0
5,9.812999963760376,learn,60000.0,Fri Sep 06 2024 10:20:52 GMT-0500 (Central Daylight Time),607234.8999999762,A,fir,O,r,110,1,586.3999999761581,606648.5,7018,WL,B,7.0
5,9.897000074386597,learn,60000.0,Fri Sep 06 2024 10:20:52 GMT-0500 (Central Daylight Time),607318.3999999762,A,fire,O,e,66,1,669.8999999761581,606648.5,7018,WL,B,7.0
5,10.145999908447266,learn,60000.0,Fri Sep 06 2024 10:20:52 GMT-0500 (Central Daylight Time),607568.2000000477,A,fireenter,O,enter,229,1,919.7000000476837,606648.5,7018,WL,B,7.0
5,10.36299991607666,learn,60000.0,Fri Sep 06 2024 10:20:52 GMT-0500 (Central Daylight Time),607784.8000000715,A,s,O,s,196,1,216.30000007152557,607568.5,7018,WL,B,8.0
5,10.513000011444092,learn,60000.0,Fri Sep 06 2024 10:20:52 GMT-0500 (Central Daylight Time),607934.6000000238,A,st,O,t,132,1,366.10000002384186,607568.5,7018,WL,B,8.0
5,10.746000051498413,learn,60000.0,Fri Sep 06 2024 10:20:52 GMT-0500 (Central Daylight Time),608167.8999999762,A,sta,O,a,214,1,599.3999999761581,607568.5,7018,WL,B,8.0
5,10.828999996185303,learn,60000.0,Fri Sep 06 2024 10:20:52 GMT-0500 (Central Daylight Time),608251.3000000715,A,star,O,r,77,1,682.8000000715256,607568.5,7018,WL,B,8.0
5,11.196000099182129,learn,60000.0,Fri Sep 06 2024 10:20:52 GMT-0500 (Central Daylight Time),608617.7000000477,A,starenter,O,enter,353,1,1049.2000000476837,607568.5,7018,WL,B,8.0
5,11.496000051498413,learn,60000.0,Fri Sep 06 2024 10:20:52 GMT-0500 (Central Daylight Time),608917.7000000477,A,c,O,c,291,1,299.7000000476837,608618.0,7018,WL,B,9.0
5,11.628999948501587,learn,60000.0,Fri Sep 06 2024 10:20:52 GMT-0500 (Central Daylight Time),609051.2000000477,A,cl,O,l,119,1,433.2000000476837,608618.0,7018,WL,B,9.0
5,11.828999996185303,learn,60000.0,Fri Sep 06 2024 10:20:52 GMT-0500 (Central Daylight Time),609250.7000000477,A,clo,O,o,186,1,632.7000000476837,608618.0,7018,WL,B,9.0
5,11.944999933242798,learn,60000.0,Fri Sep 06 2024 10:20:52 GMT-0500 (Central Daylight Time),609367.2000000477,A,cloc,O,c,97,1,749.2000000476837,608618.0,7018,WL,B,9.0
5,12.196000099182129,learn,60000.0,Fri Sep 06 2024 10:20:52 GMT-0500 (Central Daylight Time),609617.6000000238,A,clock,O,k,229,1,999.6000000238419,608618.0,7018,WL,B,9.0
5,12.928999900817871,learn,60000.0,Fri Sep 06 2024 10:20:52 GMT-0500 (Central Daylight Time),610350.5,A,clockenter,O,enter,715,1,1732.5,608618.0,7018,WL,B,9.0
5,13.295000076293945,learn,60000.0,Fri Sep 06 2024 10:20:52 GMT-0500 (Central Daylight Time),610717.2000000477,A,p,O,p,358,1,366.3000000715256,610350.8999999762,7018,WL,B,10.0
5,13.51200008392334,learn,60000.0,Fri Sep 06 2024 10:20:52 GMT-0500 (Central Daylight Time),610933.6000000238,A,pi,O,i,200,1,582.7000000476837,610350.8999999762,7018,WL,B,10.0
5,13.59500002861023,learn,60000.0,Fri Sep 06 2024 10:20:52 GMT-0500 (Central Daylight Time),611017.1000000238,A,pip,O,p,63,1,666.2000000476837,610350.8999999762,7018,WL,B,10.0
5,13.961999893188477,learn,60000.0,Fri Sep 06 2024 10:20:52 GMT-0500 (Central Daylight Time),611383.7000000477,A,pipe,O,e,348,1,1032.8000000715256,610350.8999999762,7018,WL,B,10.0
5,14.227999925613403,learn,60000.0,Fri Sep 06 2024 10:20:52 GMT-0500 (Central Daylight Time),611650.2000000477,A,pipeenter,O,enter,253,1,1299.3000000715256,610350.8999999762,7018,WL,B,10.0
5,14.527999877929688,learn,60000.0,Fri Sep 06 2024 10:20:52 GMT-0500 (Central Daylight Time),611950.1000000238,A,p,O,p,290,1,299.60000002384186,611650.5,7018,WL,B,11.0
5,14.76200008392334,learn,60000.0,Fri Sep 06 2024 10:20:52 GMT-0500 (Central Daylight Time),612183.7000000477,A,pu,O,u,223,1,533.2000000476837,611650.5,7018,WL,B,11.0
5,14.977999925613403,learn,60000.0,Fri Sep 06 2024 10:20:52 GMT-0500 (Central Daylight Time),612399.8999999762,A,pup,O,p,205,1,749.3999999761581,611650.5,7018,WL,B,11.0
5,15.545000076293945,learn,60000.0,Fri Sep 06 2024 10:20:52 GMT-0500 (Central Daylight Time),612966.6000000238,A,pupi,O,i,549,1,1316.1000000238419,611650.5,7018,WL,B,11.0
5,15.811000108718872,learn,60000.0,Fri Sep 06 2024 10:20:52 GMT-0500 (Central Daylight Time),613233.0,A,pupil,O,l,254,1,1582.5,611650.5,7018,WL,B,11.0
5,16.111999988555908,learn,60000.0,Fri Sep 06 2024 10:20:52 GMT-0500 (Central Daylight Time),613534.1000000238,A,pupilenter,O,enter,292,1,1883.6000000238419,611650.5,7018,WL,B,11.0
5,16.42799997329712,learn,60000.0,Fri Sep 06 2024 10:20:52 GMT-0500 (Central Daylight Time),613849.5,A,w,O,w,311,1,315.10000002384186,613534.3999999762,7018,WL,B,12.0
5,16.67799997329712,learn,60000.0,Fri Sep 06 2024 10:20:52 GMT-0500 (Central Daylight Time),614099.3000000715,A,wi,O,i,235,1,564.9000000953674,613534.3999999762,7018,WL,B,12.0
5,16.793999910354614,learn,60000.0,Fri Sep 06 2024 10:20:52 GMT-0500 (Central Daylight Time),614215.8999999762,A,wif,O,f,97,1,681.5,613534.3999999762,7018,WL,B,12.0
5,16.844000101089478,learn,60000.0,Fri Sep 06 2024 10:20:52 GMT-0500 (Central Daylight Time),614265.8000000715,A,wife,O,e,45,1,731.4000000953674,613534.3999999762,7018,WL,B,12.0
5,18.293999910354614,learn,60000.0,Fri Sep 06 2024 10:20:52 GMT-0500 (Central Daylight Time),615715.6000000238,A,wifeenter,O,enter,1435,1,2181.2000000476837,613534.3999999762,7018,WL,B,12.0
5,18.776999950408936,learn,60000.0,Fri Sep 06 2024 10:20:52 GMT-0500 (Central Daylight Time),616198.6000000238,A,w,O,w,465,1,482.60000002384186,615716.0,7018,WL,B,13.0
5,18.960000038146973,learn,60000.0,Fri Sep 06 2024 10:20:52 GMT-0500 (Central Daylight Time),616381.8999999762,A,wi,O,i,174,1,665.8999999761581,615716.0,7018,WL,B,13.0
5,18.993000030517578,learn,60000.0,Fri Sep 06 2024 10:20:52 GMT-0500 (Central Daylight Time),616415.2000000477,A,win,O,n,14,1,699.2000000476837,615716.0,7018,WL,B,13.0
5,19.194000005722046,learn,60000.0,Fri Sep 06 2024 10:20:52 GMT-0500 (Central Daylight Time),616615.3000000715,A,wind,O,d,190,1,899.3000000715256,615716.0,7018,WL,B,13.0
5,19.427000045776367,learn,60000.0,Fri Sep 06 2024 10:20:52 GMT-0500 (Central Daylight Time),616848.3999999762,A,windo,O,o,221,1,1132.3999999761581,615716.0,7018,WL,B,13.0
5,19.64299988746643,learn,60000.0,Fri Sep 06 2024 10:20:52 GMT-0500 (Central Daylight Time),617064.8000000715,A,window,O,w,204,1,1348.8000000715256,615716.0,7018,WL,B,13.0
5,20.325999975204468,learn,60000.0,Fri Sep 06 2024 10:20:52 GMT-0500 (Central Daylight Time),617747.8000000715,A,windowenter,O,enter,675,1,2031.8000000715256,615716.0,7018,WL,B,13.0
5,23.674999952316284,learn,60000.0,Fri Sep 06 2024 10:20:52 GMT-0500 (Central Daylight Time),621097.2000000477,A,c,O,c,3337,1,3349.0,617748.2000000477,7018,WL,B,14.0
5,23.80900001525879,learn,60000.0,Fri Sep 06 2024 10:20:52 GMT-0500 (Central Daylight Time),621230.3999999762,A,ca,O,a,124,1,3482.1999999284744,617748.2000000477,7018,WL,B,14.0
5,24.02500009536743,learn,60000.0,Fri Sep 06 2024 10:20:52 GMT-0500 (Central Daylight Time),621447.1000000238,A,cab,O,b,198,1,3698.899999976158,617748.2000000477,7018,WL,B,14.0
5,24.22499990463257,learn,60000.0,Fri Sep 06 2024 10:20:52 GMT-0500 (Central Daylight Time),621647.0,A,cabi,O,i,181,1,3898.7999999523163,617748.2000000477,7018,WL,B,14.0
5,24.27500009536743,learn,60000.0,Fri Sep 06 2024 10:20:52 GMT-0500 (Central Daylight Time),621697.0,A,cabin,O,n,38,1,3948.7999999523163,617748.2000000477,7018,WL,B,14.0
5,24.592000007629395,learn,60000.0,Fri Sep 06 2024 10:20:52 GMT-0500 (Central Daylight Time),622013.3999999762,A,cabinenter,O,enter,307,1,4265.199999928474,617748.2000000477,7018,WL,B,14.0
5,24.89199995994568,learn,60000.0,Fri Sep 06 2024 10:20:52 GMT-0500 (Central Daylight Time),622313.5,A,l,O,l,280,1,299.6999999284744,622013.8000000715,7018,WL,B,15.0
5,25.007999897003174,learn,60000.0,Fri Sep 06 2024 10:20:52 GMT-0500 (Central Daylight Time),622429.8999999762,A,la,O,a,107,1,416.09999990463257,622013.8000000715,7018,WL,B,15.0
5,25.157999992370605,learn,60000.0,Fri Sep 06 2024 10:20:52 GMT-0500 (Central Daylight Time),622580.1000000238,A,lak,O,k,143,1,566.2999999523163,622013.8000000715,7018,WL,B,15.0
5,25.27500009536743,learn,60000.0,Fri Sep 06 2024 10:20:52 GMT-0500 (Central Daylight Time),622696.6000000238,A,lake,O,e,105,1,682.7999999523163,622013.8000000715,7018,WL,B,15.0
5,25.52500009536743,learn,60000.0,Fri Sep 06 2024 10:20:52 GMT-0500 (Central Daylight Time),622946.5,A,lakeenter,O,enter,236,1,932.6999999284744,622013.8000000715,7018,WL,B,15.0
6,0.7330000400543213,distr,59266.99995994568,Fri Sep 06 2024 10:20:52 GMT-0500 (Central Daylight Time),705054.3999999762,B,c,O,c,716,1,733.0,704321.3999999762,7018,WL,B,1.0
6,0.9660000801086426,distr,59033.99991989136,Fri Sep 06 2024 10:20:52 GMT-0500 (Central Daylight Time),705287.3000000715,B,ce,O,e,222,1,965.9000000953674,704321.3999999762,7018,WL,B,1.0
6,1.065999984741211,distr,58934.00001525879,Fri Sep 06 2024 10:20:52 GMT-0500 (Central Daylight Time),705387.2000000477,B,cel,O,l,85,1,1065.8000000715256,704321.3999999762,7018,WL,B,1.0
6,1.2669999599456787,distr,58733.00004005432,Fri Sep 06 2024 10:20:52 GMT-0500 (Central Daylight Time),705587.3999999762,B,cell,O,l,193,1,1266.0,704321.3999999762,7018,WL,B,1.0
6,1.633000135421753,distr,58366.99986457825,Fri Sep 06 2024 10:20:52 GMT-0500 (Central Daylight Time),705953.8999999762,B,cellenter,O,enter,345,1,1632.5,704321.3999999762,7018,WL,B,1.0
6,2.0160000324249268,distr,57983.99996757507,Fri Sep 06 2024 10:20:52 GMT-0500 (Central Daylight Time),706337.0,B,v,O,v,368,1,382.7999999523163,705954.2000000477,7018,WL,B,2.0
6,2.1660001277923584,distr,57833.99987220764,Fri Sep 06 2024 10:20:52 GMT-0500 (Central Daylight Time),706487.0,B,vi,O,i,139,1,532.7999999523163,705954.2000000477,7018,WL,B,2.0
6,2.3990001678466797,distr,57600.99983215332,Fri Sep 06 2024 10:20:52 GMT-0500 (Central Daylight Time),706720.3999999762,B,vil,O,l,213,1,766.1999999284744,705954.2000000477,7018,WL,B,2.0
6,2.5490000247955322,distr,57450.99997520447,Fri Sep 06 2024 10:20:52 GMT-0500 (Central Daylight Time),706870.3000000715,B,vill,O,l,140,1,916.1000000238419,705954.2000000477,7018,WL,B,2.0
6,2.616000175476074,distr,57383.999824523926,Fri Sep 06 2024 10:20:52 GMT-0500 (Central Daylight Time),706937.0,B,villa,O,a,46,1,982.7999999523163,705954.2000000477,7018,WL,B,2.0
6,2.8489999771118164,distr,57151.00002288818,Fri Sep 06 2024 10:20:52 GMT-0500 (Central Daylight Time),707170.1000000238,B,villag,O,g,227,1,1215.8999999761581,705954.2000000477,7018,WL,B,2.0
6,2.949000120162964,distr,57050.999879837036,Fri Sep 06 2024 10:20:52 GMT-0500 (Central Daylight Time),707270.1000000238,B,village,O,e,83,1,1315.8999999761581,705954.2000000477,7018,WL,B,2.0
6,3.3990001678466797,distr,56600.99983215332,Fri Sep 06 2024 10:20:52 GMT-0500 (Central Daylight Time),707719.8000000715,B,villageenter,O,enter,430,1,1765.6000000238419,705954.2000000477,7018,WL,B,2.0
6,3.749000072479248,distr,56250.99992752075,Fri Sep 06 2024 10:20:52 GMT-0500 (Central Daylight Time),708069.8000000715,B,s,O,s,333,1,349.7000000476837,707720.1000000238,7018,WL,B,3.0
6,3.881999969482422,distr,56118.00003051758,Fri Sep 06 2024 10:20:52 GMT-0500 (Central Daylight Time),708203.0,B,st,O,t,119,1,482.89999997615814,707720.1000000238,7018,WL,B,3.0
6,4.0320000648498535,distr,55967.99993515015,Fri Sep 06 2024 10:20:52 GMT-0500 (Central Daylight Time),708353.1000000238,B,sto,O,o,130,1,633.0,707720.1000000238,7018,WL,B,3.0
6,4.164999961853027,distr,55835.00003814697,Fri Sep 06 2024 10:20:52 GMT-0500 (Central Daylight Time),708486.2000000477,B,stor,O,r,124,1,766.1000000238419,707720.1000000238,7018,WL,B,3.0
6,4.332000017166138,distr,55667.99998283386,Fri Sep 06 2024 10:20:52 GMT-0500 (Central Daylight Time),708653.1000000238,B,storm,O,m,150,1,933.0,707720.1000000238,7018,WL,B,3.0
6,4.565000057220459,distr,55434.99994277954,Fri Sep 06 2024 10:20:52 GMT-0500 (Central Daylight Time),708886.3000000715,B,stormenter,O,enter,216,1,1166.2000000476837,707720.1000000238,7018,WL,B,3.0
6,4.815000057220459,distr,55184.99994277954,Fri Sep 06 2024 10:20:52 GMT-0500 (Central Daylight Time),709136.3000000715,B,r,O,r,238,1,249.60000002384186,708886.7000000477,7018,WL,B,4.0
6,4.949000120162964,distr,55050.999879837036,Fri Sep 06 2024 10:20:52 GMT-0500 (Central Daylight Time),709269.6000000238,B,ro,O,o,124,1,382.89999997615814,708886.7000000477,7018,WL,B,4.0
6,5.131999969482422,distr,54868.00003051758,Fri Sep 06 2024 10:20:52 GMT-0500 (Central Daylight Time),709452.6000000238,B,roc,O,c,167,1,565.8999999761581,708886.7000000477,7018,WL,B,4.0
6,5.2820000648498535,distr,54717.99993515015,Fri Sep 06 2024 10:20:52 GMT-0500 (Central Daylight Time),709602.6000000238,B,rock,O,k,144,1,715.8999999761581,708886.7000000477,7018,WL,B,4.0
6,5.748000144958496,distr,54251.999855041504,Fri Sep 06 2024 10:20:52 GMT-0500 (Central Daylight Time),710069.3999999762,B,rockenter,O,enter,450,1,1182.6999999284744,708886.7000000477,7018,WL,B,4.0
6,6.115000009536743,distr,53884.99999046326,Fri Sep 06 2024 10:20:52 GMT-0500 (Central Daylight Time),710435.7000000477,B,b,O,b,359,1,366.0,710069.7000000477,7018,WL,B,5.0
6,6.331000089645386,distr,53668.999910354614,Fri Sep 06 2024 10:20:52 GMT-0500 (Central Daylight Time),710652.3999999762,B,ba,O,a,209,1,582.6999999284744,710069.7000000477,7018,WL,B,5.0
6,6.79800009727478,distr,53201.99990272522,Fri Sep 06 2024 10:20:52 GMT-0500 (Central Daylight Time),711119.1000000238,B,bab,O,b,456,1,1049.3999999761581,710069.7000000477,7018,WL,B,5.0
6,7.081000089645386,distr,52918.999910354614,Fri Sep 06 2024 10:20:52 GMT-0500 (Central Daylight Time),711401.8000000715,B,baby,O,y,278,1,1332.1000000238419,710069.7000000477,7018,WL,B,5.0
6,7.414000034332275,distr,52585.999965667725,Fri Sep 06 2024 10:20:52 GMT-0500 (Central Daylight Time),711735.2000000477,B,babyenter,O,enter,323,1,1665.5,710069.7000000477,7018,WL,B,5.0
6,8.46399998664856,distr,51536.00001335144,Fri Sep 06 2024 10:20:52 GMT-0500 (Central Daylight Time),712784.8999999762,B,b,O,b,1030,1,1049.3999999761581,711735.5,7018,WL,B,6.0
6,8.581000089645386,distr,51418.999910354614,Fri Sep 06 2024 10:20:52 GMT-0500 (Central Daylight Time),712901.5,B,bl,O,l,99,1,1166.0,711735.5,7018,WL,B,6.0
6,8.781000137329102,distr,51218.9998626709,Fri Sep 06 2024 10:20:52 GMT-0500 (Central Daylight Time),713101.7000000477,B,blo,O,o,183,1,1366.2000000476837,711735.5,7018,WL,B,6.0
6,8.914000034332275,distr,51085.999965667725,Fri Sep 06 2024 10:20:52 GMT-0500 (Central Daylight Time),713235.0,B,bloc,O,c,127,1,1499.5,711735.5,7018,WL,B,6.0
6,9.114000082015991,distr,50885.99991798401,Fri Sep 06 2024 10:20:52 GMT-0500 (Central Daylight Time),713434.8999999762,B,block,O,k,193,1,1699.3999999761581,711735.5,7018,WL,B,6.0
6,9.52999997138977,distr,50470.00002861023,Fri Sep 06 2024 10:20:52 GMT-0500 (Central Daylight Time),713851.2000000477,B,blockenter,O,enter,402,1,2115.7000000476837,711735.5,7018,WL,B,6.0
6,19.16100001335144,distr,40838.99998664856,Fri Sep 06 2024 10:20:52 GMT-0500 (Central Daylight Time),723481.6000000238,B,b,O,b,9611,1,9630.100000023842,713851.5,7018,WL,B,7.0
6,19.360000133514404,distr,40639.999866485596,Fri Sep 06 2024 10:20:52 GMT-0500 (Central Daylight Time),723681.5,B,bu,O,u,195,1,9830.0,713851.5,7018,WL,B,7.0
6,19.55999994277954,distr,40440.00005722046,Fri Sep 06 2024 10:20:52 GMT-0500 (Central Daylight Time),723881.5,B,bul,O,l,195,1,10030.0,713851.5,7018,WL,B,7.0
6,19.761000156402588,distr,40238.99984359741,Fri Sep 06 2024 10:20:52 GMT-0500 (Central Daylight Time),724081.6000000238,B,buld,O,d,195,1,10230.100000023842,713851.5,7018,WL,B,7.0
6,20.124000072479248,distr,39875.99992752075,Fri Sep 06 2024 10:20:52 GMT-0500 (Central Daylight Time),724445.5,B,buldi,O,i,359,1,10594.0,713851.5,7018,WL,B,7.0
6,20.130000114440918,distr,39869.99988555908,Fri Sep 06 2024 10:20:52 GMT-0500 (Central Daylight Time),724450.7000000477,B,buldin,O,n,0,1,10599.200000047684,713851.5,7018,WL,B,7.0
6,20.427000045776367,distr,39572.99995422363,Fri Sep 06 2024 10:20:52 GMT-0500 (Central Daylight Time),724747.6000000238,B,buldi,O,backspace,282,1,10896.100000023842,713851.5,7018,WL,B,7.0
6,20.610000133514404,distr,39389.999866485596,Fri Sep 06 2024 10:20:52 GMT-0500 (Central Daylight Time),724931.2000000477,B,buld,O,backspace,169,1,11079.700000047684,713851.5,7018,WL,B,7.0
6,20.792999982833862,distr,39207.00001716614,Fri Sep 06 2024 10:20:52 GMT-0500 (Central Daylight Time),725114.3999999762,B,bul,O,backspace,170,1,11262.899999976158,713851.5,7018,WL,B,7.0
6,21.0770001411438,distr,38922.9998588562,Fri Sep 06 2024 10:20:52 GMT-0500 (Central Daylight Time),725397.7000000477,B,bu,O,backspace,274,1,11546.200000047684,713851.5,7018,WL,B,7.0
6,21.41000008583069,distr,38589.99991416931,Fri Sep 06 2024 10:20:52 GMT-0500 (Central Daylight Time),725730.8999999762,B,bui,O,i,327,1,11879.399999976158,713851.5,7018,WL,B,7.0
6,21.80999994277954,distr,38190.00005722046,Fri Sep 06 2024 10:20:52 GMT-0500 (Central Daylight Time),726130.8000000715,B,buil,O,l,386,1,12279.300000071526,713851.5,7018,WL,B,7.0
6,22.05999994277954,distr,37940.00005722046,Fri Sep 06 2024 10:20:52 GMT-0500 (Central Daylight Time),726380.8000000715,B,build,O,d,242,1,12529.300000071526,713851.5,7018,WL,B,7.0
6,22.259999990463257,distr,37740.00000953674,Fri Sep 06 2024 10:20:52 GMT-0500 (Central Daylight Time),726580.6000000238,B,buildi,O,i,184,1,12729.100000023842,713851.5,7018,WL,B,7.0
6,22.30999994277954,distr,37690.00005722046,Fri Sep 06 2024 10:20:52 GMT-0500 (Central Daylight Time),726630.6000000238,B,buildin,O,n,40,1,12779.100000023842,713851.5,7018,WL,B,7.0
6,22.443000078201294,distr,37556.999921798706,Fri Sep 06 2024 10:20:52 GMT-0500 (Central Daylight Time),726764.2000000477,B,building,O,g,126,1,12912.700000047684,713851.5,7018,WL,B,7.0
6,22.909000158309937,distr,37090.99984169006,Fri Sep 06 2024 10:20:52 GMT-0500 (Central Daylight Time),727230.3000000715,B,buildingenter,O,enter,448,1,13378.800000071526,713851.5,7018,WL,B,7.0
6,29.256999969482422,distr,30743.000030517578,Fri Sep 06 2024 10:20:52 GMT-0500 (Central Daylight Time),733578.2000000477,B,enter,O,enter,6342,1,6347.5,727230.7000000477,7018,WL,B,8.0
6,29.491000175476074,distr,30508.999824523926,Fri Sep 06 2024 10:20:52 GMT-0500 (Central Daylight Time),733811.8000000715,B,enter,O,enter,227,1,233.30000007152557,733578.5,7018,WL,B,9.0
6,29.69099998474121,distr,30309.00001525879,Fri Sep 06 2024 10:20:52 GMT-0500 (Central Daylight Time),734011.8000000715,B,enter,O,enter,193,1,199.60000002384186,733812.2000000477,7018,WL,B,10.0
6,29.891000032424927,distr,30108.999967575073,Fri Sep 06 2024 10:20:52 GMT-0500 (Central Daylight Time),734211.6000000238,B,enter,O,enter,185,1,199.5,734012.1000000238,7018,WL,B,11.0
6,30.10700011253357,distr,29892.99988746643,Fri Sep 06 2024 10:20:52 GMT-0500 (Central Daylight Time),734428.3000000715,B,enter,O,enter,209,1,216.5,734211.8000000715,7018,WL,B,12.0
6,30.34000015258789,distr,29659.99984741211,Fri Sep 06 2024 10:20:52 GMT-0500 (Central Daylight Time),734661.3999999762,B,enter,O,enter,224,1,232.79999995231628,734428.6000000238,7018,WL,B,13.0
6,30.69000005722046,distr,29309.99994277954,Fri Sep 06 2024 10:20:52 GMT-0500 (Central Daylight Time),735011.3999999762,B,enter,O,enter,335,1,349.59999990463257,734661.8000000715,7018,WL,B,14.0
6,31.006999969482422,distr,28993.000030517578,Fri Sep 06 2024 10:20:52 GMT-0500 (Central Daylight Time),735327.8000000715,B,enter,O,enter,298,1,316.10000002384186,735011.7000000477,7018,WL,B,15.0
7,5.9649999141693115,immed,54035.00008583069,Fri Sep 06 2024 10:20:52 GMT-0500 (Central Daylight Time),742459.2000000477,A,enter,O,enter,5951,1,5964.600000023842,736494.6000000238,7018,WL,B,1.0
7,8.29699993133545,immed,51703.00006866455,Fri Sep 06 2024 10:20:52 GMT-0500 (Central Daylight Time),744791.3000000715,A,,O,backspace,2313,1,2331.8000000715256,742459.5,7018,WL,B,2.0
7,9.96399998664856,immed,50036.00001335144,Fri Sep 06 2024 10:20:52 GMT-0500 (Central Daylight Time),746457.7000000477,A,s,O,s,1646,1,3998.2000000476837,742459.5,7018,WL,B,2.0
7,10.063999891281128,immed,49936.00010871887,Fri Sep 06 2024 10:20:52 GMT-0500 (Central Daylight Time),746557.8999999762,A,st,O,t,91,1,4098.399999976158,742459.5,7018,WL,B,2.0
7,10.27999997138977,immed,49720.00002861023,Fri Sep 06 2024 10:20:52 GMT-0500 (Central Daylight Time),746774.5,A,sto,O,o,207,1,4315.0,742459.5,7018,WL,B,2.0
7,10.430000066757202,immed,49569.9999332428,Fri Sep 06 2024 10:20:52 GMT-0500 (Central Daylight Time),746924.3000000715,A,stor,O,r,142,1,4464.800000071526,742459.5,7018,WL,B,2.0
7,10.647000074386597,immed,49352.9999256134,Fri Sep 06 2024 10:20:52 GMT-0500 (Central Daylight Time),747140.8000000715,A,storm,O,m,208,1,4681.300000071526,742459.5,7018,WL,B,2.0
7,11.491999864578247,immed,48508.00013542175,Fri Sep 06 2024 10:20:52 GMT-0500 (Central Daylight Time),747985.6000000238,A,stormenter,O,enter,840,1,5526.100000023842,742459.5,7018,WL,B,2.0
7,12.246000051498413,immed,47753.99994850159,Fri Sep 06 2024 10:20:52 GMT-0500 (Central Daylight Time),748740.3000000715,A,g,O,g,747,1,754.4000000953674,747985.8999999762,7018,WL,B,3.0
7,12.480000019073486,immed,47519.999980926514,Fri Sep 06 2024 10:20:52 GMT-0500 (Central Daylight Time),748973.6000000238,A,gr,O,r,224,1,987.7000000476837,747985.8999999762,7018,WL,B,3.0
7,12.579999923706055,immed,47420.000076293945,Fri Sep 06 2024 10:20:52 GMT-0500 (Central Daylight Time),749073.7000000477,A,gra,O,a,87,1,1087.8000000715256,747985.8999999762,7018,WL,B,3.0
7,12.845999956130981,immed,47154.00004386902,Fri Sep 06 2024 10:20:52 GMT-0500 (Central Daylight Time),749340.2000000477,A,gras,O,s,251,1,1354.3000000715256,747985.8999999762,7018,WL,B,3.0
7,13.013000011444092,immed,46986.99998855591,Fri Sep 06 2024 10:20:52 GMT-0500 (Central Daylight Time),749507.0,A,grass,O,s,153,1,1521.1000000238419,747985.8999999762,7018,WL,B,3.0
7,13.94599986076355,immed,46054.00013923645,Fri Sep 06 2024 10:20:52 GMT-0500 (Central Daylight Time),750439.8000000715,A,gras,O,backspace,914,1,2453.9000000953674,747985.8999999762,7018,WL,B,3.0
7,14.145999908447266,immed,45854.000091552734,Fri Sep 06 2024 10:20:52 GMT-0500 (Central Daylight Time),750639.8000000715,A,gra,O,backspace,180,1,2653.9000000953674,747985.8999999762,7018,WL,B,3.0
7,14.312000036239624,immed,45687.999963760376,Fri Sep 06 2024 10:20:52 GMT-0500 (Central Daylight Time),750806.3000000715,A,gr,O,backspace,157,1,2820.4000000953674,747985.8999999762,7018,WL,B,3.0
7,14.496000051498413,immed,45503.99994850159,Fri Sep 06 2024 10:20:52 GMT-0500 (Central Daylight Time),750989.6000000238,A,g,O,backspace,174,1,3003.7000000476837,747985.8999999762,7018,WL,B,3.0
7,14.728999853134155,immed,45271.000146865845,Fri Sep 06 2024 10:20:52 GMT-0500 (Central Daylight Time),751223.1000000238,A,,O,backspace,215,1,3237.2000000476837,747985.8999999762,7018,WL,B,3.0
7,15.328999996185303,immed,44671.0000038147,Fri Sep 06 2024 10:20:52 GMT-0500 (Central Daylight Time),751822.8999999762,A,b,O,b,590,1,3837.0,747985.8999999762,7018,WL,B,3.0
7,15.595999956130981,immed,44404.00004386902,Fri Sep 06 2024 10:20:52 GMT-0500 (Central Daylight Time),752089.5,A,ba,O,a,254,1,4103.600000023842,747985.8999999762,7018,WL,B,3.0
7,15.812000036239624,immed,44187.999963760376,Fri Sep 06 2024 10:20:52 GMT-0500 (Central Daylight Time),752306.2000000477,A,bab,O,b,203,1,4320.300000071526,747985.8999999762,7018,WL,B,3.0
7,15.994999885559082,immed,44005.00011444092,Fri Sep 06 2024 10:20:52 GMT-0500 (Central Daylight Time),752489.2000000477,A,baby,O,y,162,1,4503.300000071526,747985.8999999762,7018,WL,B,3.0
7,16.277999877929688,immed,43722.00012207031,Fri Sep 06 2024 10:20:52 GMT-0500 (Central Daylight Time),752772.3999999762,A,babyenter,O,enter,275,1,4786.5,747985.8999999762,7018,WL,B,3.0
7,22.026999950408936,immed,37973.000049591064,Fri Sep 06 2024 10:20:52 GMT-0500 (Central Daylight Time),758520.8000000715,A,b,O,b,5737,1,5748.100000023842,752772.7000000477,7018,WL,B,4.0
7,22.15999984741211,immed,37840.00015258789,Fri Sep 06 2024 10:20:52 GMT-0500 (Central Daylight Time),758654.1000000238,A,bu,O,u,123,1,5881.399999976158,752772.7000000477,7018,WL,B,4.0
7,22.210000038146973,immed,37789.99996185303,Fri Sep 06 2024 10:20:52 GMT-0500 (Central Daylight Time),758703.8000000715,A,bui,O,i,31,1,5931.100000023842,752772.7000000477,7018,WL,B,4.0
7,22.325999975204468,immed,37674.00002479553,Fri Sep 06 2024 10:20:52 GMT-0500 (Central Daylight Time),758820.3000000715,A,buil,O,l,109,1,6047.600000023842,752772.7000000477,7018,WL,B,4.0
7,22.493000030517578,immed,37506.99996948242,Fri Sep 06 2024 10:20:52 GMT-0500 (Central Daylight Time),758987.3000000715,A,build,O,d,152,1,6214.600000023842,752772.7000000477,7018,WL,B,4.0
7,22.7260000705719,immed,37273.9999294281,Fri Sep 06 2024 10:20:52 GMT-0500 (Central Daylight Time),759220.5,A,buildi,O,i,217,1,6447.799999952316,752772.7000000477,7018,WL,B,4.0
7,22.776000022888184,immed,37223.99997711182,Fri Sep 06 2024 10:20:52 GMT-0500 (Central Daylight Time),759270.3999999762,A,buildin,O,n,40,1,6497.699999928474,752772.7000000477,7018,WL,B,4.0
7,22.943000078201294,immed,37056.999921798706,Fri Sep 06 2024 10:20:52 GMT-0500 (Central Daylight Time),759437.1000000238,A,building,O,g,158,1,6664.399999976158,752772.7000000477,7018,WL,B,4.0
7,23.4760000705719,immed,36523.9999294281,Fri Sep 06 2024 10:20:52 GMT-0500 (Central Daylight Time),759970.0,A,buildingenter,O,enter,528,1,7197.299999952316,752772.7000000477,7018,WL,B,4.0
7,24.20899987220764,immed,35791.00012779236,Fri Sep 06 2024 10:20:52 GMT-0500 (Central Daylight Time),760703.3000000715,A,c,O,c,723,1,733.0,759970.3000000715,7018,WL,B,5.0
7,24.526000022888184,immed,35473.99997711182,Fri Sep 06 2024 10:20:52 GMT-0500 (Central Daylight Time),761020.2000000477,A,ce,O,e,301,1,1049.8999999761581,759970.3000000715,7018,WL,B,5.0
7,24.675999879837036,immed,35324.000120162964,Fri Sep 06 2024 10:20:52 GMT-0500 (Central Daylight Time),761169.6000000238,A,cel,O,l,144,1,1199.2999999523163,759970.3000000715,7018,WL,B,5.0
7,24.858999967575073,immed,35141.00003242493,Fri Sep 06 2024 10:20:52 GMT-0500 (Central Daylight Time),761353.0,A,cell,O,l,163,1,1382.6999999284744,759970.3000000715,7018,WL,B,5.0
7,25.158999919891357,immed,34841.00008010864,Fri Sep 06 2024 10:20:52 GMT-0500 (Central Daylight Time),761653.1000000238,A,cellenter,O,enter,292,1,1682.7999999523163,759970.3000000715,7018,WL,B,5.0
7,27.274999856948853,immed,32725.000143051147,Fri Sep 06 2024 10:20:52 GMT-0500 (Central Daylight Time),763769.0,A,enter,O,enter,2104,1,2115.600000023842,761653.3999999762,7018,WL,B,6.0
7,27.575000047683716,immed,32424.999952316284,Fri Sep 06 2024 10:20:52 GMT-0500 (Central Daylight Time),764069.0,A,enter,O,enter,292,1,299.6999999284744,763769.3000000715,7018,WL,B,7.0
7,27.85800004005432,immed,32141.99995994568,Fri Sep 06 2024 10:20:52 GMT-0500 (Central Daylight Time),764352.2000000477,A,enter,O,enter,264,1,282.89999997615814,764069.3000000715,7018,WL,B,8.0
7,28.10800004005432,immed,31891.99995994568,Fri Sep 06 2024 10:20:52 GMT-0500 (Central Daylight Time),764601.8999999762,A,enter,O,enter,245,1,249.39999997615814,764352.5,7018,WL,B,9.0
7,28.375,immed,31625.0,Fri Sep 06 2024 10:20:52 GMT-0500 (Central Daylight Time),764868.6000000238,A,enter,O,enter,259,1,266.39999997615814,764602.2000000477,7018,WL,B,10.0
7,28.674000024795532,immed,31325.999975204468,Fri Sep 06 2024 10:20:52 GMT-0500 (Central Daylight Time),765168.5,A,enter,O,enter,288,1,299.5,764869.0,7018,WL,B,11.0
7,29.057999849319458,immed,30942.000150680542,Fri Sep 06 2024 10:20:52 GMT-0500 (Central Daylight Time),765551.7000000477,A,enter,O,enter,365,1,383.0,765168.7000000477,7018,WL,B,12.0
7,29.391000032424927,immed,30608.999967575073,Fri Sep 06 2024 10:20:52 GMT-0500 (Central Daylight Time),765885.0,A,enter,O,enter,317,1,332.89999997615814,765552.1000000238,7018,WL,B,13.0
7,29.823999881744385,immed,30176.000118255615,Fri Sep 06 2024 10:20:52 GMT-0500 (Central Daylight Time),766318.0,A,enter,O,enter,424,1,432.6999999284744,765885.3000000715,7018,WL,B,14.0
7,30.490000009536743,immed,29509.999990463257,Fri Sep 06 2024 10:20:52 GMT-0500 (Central Daylight Time),766984.6000000238,A,enter,O,enter,646,1,666.2999999523163,766318.3000000715,7018,WL,B,15.0
