acc_sum,block,block_c,change,condition,correct,correct_response,datetime,endtime,face,project,response,response_time,row_sel,session_number,start_end,starttime,subject_id,task,task_vers,trial
0,prac,1,,1-Back,,,Fri May 16 2025 14:41:53 GMT-0500 (Central Daylight Time),,050_m_f_n_a.png,O,space,9478,1,1,,,7153,NNB,A,0
1,prac,1,0.0,1-Back,1,m,Fri May 16 2025 14:41:53 GMT-0500 (Central Daylight Time),138676.20000004768,063_y_f_n_a.png,O,m,1175,2,1,1990.8000000715256,136685.39999997616,7153,NNB,A,1
2,prac,1,1.0,1-Back,1,z,Fri May 16 2025 14:41:53 GMT-0500 (Central Daylight Time),140708.20000004768,063_y_f_n_a.png,O,z,1254,3,1,2024.6000000238419,138683.60000002384,7153,NNB,A,2
3,prac,1,0.0,1-Back,1,m,Fri May 16 2025 14:41:53 GMT-0500 (Central Daylight Time),142557.39999997616,053_o_m_n_a.png,O,m,1042,4,1,1841.2999999523163,140716.10000002384,7153,NNB,A,3
4,prac,1,0.0,1-Back,1,m,Fri May 16 2025 14:41:53 GMT-0500 (Central Daylight Time),144356.70000004768,058_m_m_n_a.png,O,m,986,5,1,1791.8999999761581,142564.80000007153,7153,NNB,A,4
5,prac,1,1.0,1-Back,1,z,Fri May 16 2025 14:41:53 GMT-0500 (Central Daylight Time),146922.60000002384,058_m_m_n_a.png,O,z,1790,6,1,2558.7999999523163,144363.80000007153,7153,NNB,A,5
6,prac,1,0.0,1-Back,1,m,Fri May 16 2025 14:41:53 GMT-0500 (Central Daylight Time),148872.20000004768,047_o_f_n_a.png,O,m,1112,7,1,1941.5,146930.70000004768,7153,NNB,A,6
6,prac,1,0.0,1-Back,0,m,Fri May 16 2025 14:41:53 GMT-0500 (Central Daylight Time),151671.10000002384,045_m_m_n_a.png,O,None,2001,8,1,2791.7000000476837,148879.39999997616,7153,NNB,A,7
7,prac,1,0.0,1-Back,1,m,Fri May 16 2025 14:41:53 GMT-0500 (Central Daylight Time),154003.89999997616,050_m_f_n_a.png,O,m,1547,9,1,2325.399999976158,151678.5,7153,NNB,A,8
8,prac,1,1.0,1-Back,1,z,Fri May 16 2025 14:41:53 GMT-0500 (Central Daylight Time),155703.10000002384,050_m_f_n_a.png,O,z,918,10,1,1691.7000000476837,154011.39999997616,7153,NNB,A,9
9,prac,1,0.0,1-Back,1,m,Fri May 16 2025 14:41:53 GMT-0500 (Central Daylight Time),157502.80000007153,053_o_m_n_a.png,O,m,1011,11,1,1792.1000000238419,155710.70000004768,7153,NNB,A,10
10,prac,1,0.0,1-Back,1,m,Fri May 16 2025 14:41:53 GMT-0500 (Central Daylight Time),159835.5,010_y_f_n_a.png,O,m,1498,12,1,2323.7999999523163,157511.70000004768,7153,NNB,A,11
0,test,1,0.0,1-Back,,,Fri May 16 2025 14:41:53 GMT-0500 (Central Daylight Time),159835.5,063_y_f_n_a.png,O,space,5426,1,1,2323.7999999523163,157511.70000004768,7153,NNB,A,0
1,test,1,0.0,1-Back,1,m,Fri May 16 2025 14:41:53 GMT-0500 (Central Daylight Time),175230.70000004768,043_m_f_n_a.png,O,m,1587,2,1,2608.8000000715256,172621.89999997616,7153,NNB,A,1
2,test,1,0.0,1-Back,1,m,Fri May 16 2025 14:41:53 GMT-0500 (Central Daylight Time),177979.70000004768,010_y_f_n_a.png,O,m,1731,3,1,2742.399999976158,175237.30000007153,7153,NNB,A,2
3,test,1,1.0,1-Back,1,z,Fri May 16 2025 14:41:53 GMT-0500 (Central Daylight Time),179945.60000002384,010_y_f_n_a.png,O,z,942,4,1,1959.2999999523163,177986.30000007153,7153,NNB,A,3
4,test,1,0.0,1-Back,1,m,Fri May 16 2025 14:41:53 GMT-0500 (Central Daylight Time),182011.70000004768,043_m_f_n_a.png,O,m,1047,5,1,2060.0,179951.70000004768,7153,NNB,A,4
5,test,1,0.0,1-Back,1,m,Fri May 16 2025 14:41:53 GMT-0500 (Central Daylight Time),183977.89999997616,053_o_m_n_a.png,O,m,950,6,1,1959.5999999046326,182018.30000007153,7153,NNB,A,5
6,test,1,1.0,1-Back,1,z,Fri May 16 2025 14:41:53 GMT-0500 (Central Daylight Time),185910.39999997616,053_o_m_n_a.png,O,z,904,7,1,1924.8999999761581,183985.5,7153,NNB,A,6
7,test,1,0.0,1-Back,1,m,Fri May 16 2025 14:41:53 GMT-0500 (Central Daylight Time),187760.0,058_m_m_n_a.png,O,m,819,8,1,1843.1000000238419,185916.89999997616,7153,NNB,A,7
8,test,1,0.0,1-Back,1,m,Fri May 16 2025 14:41:53 GMT-0500 (Central Daylight Time),189909.20000004768,047_o_f_n_a.png,O,m,1121,9,1,2142.899999976158,187766.30000007153,7153,NNB,A,8
9,test,1,0.0,1-Back,1,m,Fri May 16 2025 14:41:53 GMT-0500 (Central Daylight Time),192091.70000004768,058_m_m_n_a.png,O,m,1164,10,1,2176.100000023842,189915.60000002384,7153,NNB,A,9
10,test,1,0.0,1-Back,1,m,Fri May 16 2025 14:41:53 GMT-0500 (Central Daylight Time),193907.80000007153,041_y_m_n_a.png,O,m,797,11,1,1809.7000000476837,192098.10000002384,7153,NNB,A,10
11,test,1,1.0,1-Back,1,z,Fri May 16 2025 14:41:53 GMT-0500 (Central Daylight Time),195523.89999997616,041_y_m_n_a.png,O,z,589,12,1,1610.0,193913.89999997616,7153,NNB,A,11
12,test,1,0.0,1-Back,1,m,Fri May 16 2025 14:41:53 GMT-0500 (Central Daylight Time),197473.39999997616,044_o_f_n_a.png,O,m,917,13,1,1943.0999999046326,195530.30000007153,7153,NNB,A,12
13,test,1,1.0,1-Back,1,z,Fri May 16 2025 14:41:53 GMT-0500 (Central Daylight Time),199256.20000004768,044_o_f_n_a.png,O,z,752,14,1,1776.8999999761581,197479.30000007153,7153,NNB,A,13
14,test,1,0.0,1-Back,1,m,Fri May 16 2025 14:41:53 GMT-0500 (Central Daylight Time),201105.60000002384,008_y_m_n_a.png,O,m,823,15,1,1843.5,199262.10000002384,7153,NNB,A,14
15,test,1,0.0,1-Back,1,m,Fri May 16 2025 14:41:53 GMT-0500 (Central Daylight Time),203021.60000002384,050_m_f_n_a.png,O,m,896,16,1,1909.7999999523163,201111.80000007153,7153,NNB,A,15
16,test,1,0.0,1-Back,1,m,Fri May 16 2025 14:41:53 GMT-0500 (Central Daylight Time),204837.70000004768,046_o_m_n_a.png,O,m,795,17,1,1809.8999999761581,203027.80000007153,7153,NNB,A,16
17,test,1,0.0,1-Back,1,m,Fri May 16 2025 14:41:53 GMT-0500 (Central Daylight Time),206787.10000002384,050_m_f_n_a.png,O,m,924,18,1,1942.6000000238419,204844.5,7153,NNB,A,17
0,test,2,0.0,1-Back,,,Fri May 16 2025 14:41:53 GMT-0500 (Central Daylight Time),206787.10000002384,058_m_m_n_a.png,O,space,3750,1,1,1942.6000000238419,204844.5,7153,NNB,A,0
1,test,2,0.0,1-Back,1,m,Fri May 16 2025 14:41:53 GMT-0500 (Central Daylight Time),214451.5,043_m_f_n_a.png,O,m,864,2,1,1876.1000000238419,212575.39999997616,7153,NNB,A,1
2,test,2,1.0,1-Back,1,z,Fri May 16 2025 14:41:53 GMT-0500 (Central Daylight Time),216633.89999997616,043_m_f_n_a.png,O,z,1157,3,1,2176.5999999046326,214457.30000007153,7153,NNB,A,2
3,test,2,0.0,1-Back,1,m,Fri May 16 2025 14:41:53 GMT-0500 (Central Daylight Time),218816.70000004768,058_m_m_n_a.png,O,m,1159,4,1,2176.399999976158,216640.30000007153,7153,NNB,A,3
4,test,2,0.0,1-Back,1,m,Fri May 16 2025 14:41:53 GMT-0500 (Central Daylight Time),220582.80000007153,041_y_m_n_a.png,O,m,744,5,1,1759.8000000715256,218823.0,7153,NNB,A,4
5,test,2,0.0,1-Back,1,m,Fri May 16 2025 14:41:53 GMT-0500 (Central Daylight Time),222549.10000002384,063_y_f_n_a.png,O,m,946,6,1,1960.6000000238419,220588.5,7153,NNB,A,5
6,test,2,1.0,1-Back,1,z,Fri May 16 2025 14:41:53 GMT-0500 (Central Daylight Time),224248.30000007153,063_y_f_n_a.png,O,z,667,7,1,1692.9000000953674,222555.39999997616,7153,NNB,A,6
7,test,2,0.0,1-Back,1,m,Fri May 16 2025 14:41:53 GMT-0500 (Central Daylight Time),225964.60000002384,041_y_m_n_a.png,O,m,689,8,1,1710.1000000238419,224254.5,7153,NNB,A,7
8,test,2,0.0,1-Back,1,m,Fri May 16 2025 14:41:53 GMT-0500 (Central Daylight Time),227864.0,044_o_f_n_a.png,O,m,869,9,1,1893.3999999761581,225970.60000002384,7153,NNB,A,8
9,test,2,0.0,1-Back,1,m,Fri May 16 2025 14:41:53 GMT-0500 (Central Daylight Time),230046.70000004768,045_m_m_n_a.png,O,m,1153,10,1,2176.399999976158,227870.30000007153,7153,NNB,A,9
10,test,2,1.0,1-Back,1,z,Fri May 16 2025 14:41:53 GMT-0500 (Central Daylight Time),231929.20000004768,045_m_m_n_a.png,O,z,851,11,1,1876.2000000476837,230053.0,7153,NNB,A,10
11,test,2,0.0,1-Back,1,m,Fri May 16 2025 14:41:53 GMT-0500 (Central Daylight Time),233612.0,044_o_f_n_a.png,O,m,664,12,1,1676.3999999761581,231935.60000002384,7153,NNB,A,11
12,test,2,0.0,1-Back,1,m,Fri May 16 2025 14:41:53 GMT-0500 (Central Daylight Time),235811.39999997616,047_o_f_n_a.png,O,m,1173,13,1,2193.0999999046326,233618.30000007153,7153,NNB,A,12
13,test,2,0.0,1-Back,1,m,Fri May 16 2025 14:41:53 GMT-0500 (Central Daylight Time),237611.0,053_o_m_n_a.png,O,m,782,14,1,1793.5,235817.5,7153,NNB,A,13
14,test,2,0.0,1-Back,1,m,Fri May 16 2025 14:41:53 GMT-0500 (Central Daylight Time),239627.10000002384,046_o_m_n_a.png,O,m,990,15,1,2009.7000000476837,237617.39999997616,7153,NNB,A,14
15,test,2,1.0,1-Back,1,z,Fri May 16 2025 14:41:53 GMT-0500 (Central Daylight Time),241392.89999997616,046_o_m_n_a.png,O,z,742,16,1,1759.6999999284744,239633.20000004768,7153,NNB,A,15
16,test,2,0.0,1-Back,1,m,Fri May 16 2025 14:41:53 GMT-0500 (Central Daylight Time),243242.5,008_y_m_n_a.png,O,m,832,17,1,1843.5,241399.0,7153,NNB,A,16
17,test,2,1.0,1-Back,1,z,Fri May 16 2025 14:41:53 GMT-0500 (Central Daylight Time),245391.80000007153,008_y_m_n_a.png,O,z,1119,18,1,2143.600000023842,243248.20000004768,7153,NNB,A,17
0,test,3,1.0,1-Back,,,Fri May 16 2025 14:41:53 GMT-0500 (Central Daylight Time),245391.80000007153,010_y_f_n_a.png,O,space,2673,1,1,2143.600000023842,243248.20000004768,7153,NNB,A,0
1,test,3,0.0,1-Back,1,m,Fri May 16 2025 14:41:53 GMT-0500 (Central Daylight Time),251939.80000007153,046_o_m_n_a.png,O,m,773,2,1,1793.0,250146.80000007153,7153,NNB,A,1
2,test,3,1.0,1-Back,1,z,Fri May 16 2025 14:41:53 GMT-0500 (Central Daylight Time),254022.39999997616,046_o_m_n_a.png,O,z,1053,3,1,2076.1999999284744,251946.20000004768,7153,NNB,A,2
3,test,3,0.0,1-Back,1,m,Fri May 16 2025 14:41:53 GMT-0500 (Central Daylight Time),255855.10000002384,050_m_f_n_a.png,O,m,811,4,1,1826.5,254028.60000002384,7153,NNB,A,3
4,test,3,1.0,1-Back,1,z,Fri May 16 2025 14:41:53 GMT-0500 (Central Daylight Time),258171.0,050_m_f_n_a.png,O,z,1298,5,1,2309.600000023842,255861.39999997616,7153,NNB,A,4
5,test,3,0.0,1-Back,1,m,Fri May 16 2025 14:41:53 GMT-0500 (Central Daylight Time),260153.80000007153,044_o_f_n_a.png,O,m,958,6,1,1976.6000000238419,258177.20000004768,7153,NNB,A,5
6,test,3,0.0,1-Back,1,m,Fri May 16 2025 14:41:53 GMT-0500 (Central Daylight Time),261836.70000004768,041_y_m_n_a.png,O,m,663,7,1,1676.7000000476837,260160.0,7153,NNB,A,6
7,test,3,0.0,1-Back,1,m,Fri May 16 2025 14:41:53 GMT-0500 (Central Daylight Time),263719.3000000715,044_o_f_n_a.png,O,m,861,8,1,1876.4000000953674,261842.89999997616,7153,NNB,A,7
8,test,3,0.0,1-Back,1,m,Fri May 16 2025 14:41:53 GMT-0500 (Central Daylight Time),265468.8000000715,008_y_m_n_a.png,O,m,729,9,1,1742.9000000953674,263725.89999997616,7153,NNB,A,8
9,test,3,1.0,1-Back,1,z,Fri May 16 2025 14:41:53 GMT-0500 (Central Daylight Time),267251.60000002384,008_y_m_n_a.png,O,z,765,10,1,1776.3999999761581,265475.2000000477,7153,NNB,A,9
10,test,3,0.0,1-Back,1,m,Fri May 16 2025 14:41:53 GMT-0500 (Central Daylight Time),269167.60000002384,043_m_f_n_a.png,O,m,886,11,1,1909.6000000238419,267258.0,7153,NNB,A,10
11,test,3,0.0,1-Back,1,m,Fri May 16 2025 14:41:53 GMT-0500 (Central Daylight Time),270900.3000000715,063_y_f_n_a.png,O,m,716,12,1,1726.2000000476837,269174.10000002384,7153,NNB,A,11
12,test,3,1.0,1-Back,1,z,Fri May 16 2025 14:41:53 GMT-0500 (Central Daylight Time),272750.0,063_y_f_n_a.png,O,z,821,13,1,1843.1999999284744,270906.8000000715,7153,NNB,A,12
13,test,3,0.0,1-Back,1,m,Fri May 16 2025 14:41:53 GMT-0500 (Central Daylight Time),274466.10000002384,043_m_f_n_a.png,O,m,691,14,1,1709.7000000476837,272756.39999997616,7153,NNB,A,13
14,test,3,0.0,1-Back,1,m,Fri May 16 2025 14:41:53 GMT-0500 (Central Daylight Time),276532.10000002384,058_m_m_n_a.png,O,m,1039,15,1,2059.2999999523163,274472.8000000715,7153,NNB,A,14
15,test,3,1.0,1-Back,1,z,Fri May 16 2025 14:41:53 GMT-0500 (Central Daylight Time),278347.89999997616,058_m_m_n_a.png,O,z,797,16,1,1809.6999999284744,276538.2000000477,7153,NNB,A,15
16,test,3,0.0,1-Back,1,m,Fri May 16 2025 14:41:53 GMT-0500 (Central Daylight Time),280630.60000002384,047_o_f_n_a.png,O,m,1253,17,1,2276.7999999523163,278353.8000000715,7153,NNB,A,16
17,test,3,1.0,1-Back,1,z,Fri May 16 2025 14:41:53 GMT-0500 (Central Daylight Time),282563.5,047_o_f_n_a.png,O,z,914,18,1,1926.1999999284744,280637.3000000715,7153,NNB,A,17
0,test,4,1.0,1-Back,,,Fri May 16 2025 14:41:53 GMT-0500 (Central Daylight Time),282563.5,050_m_f_n_a.png,O,space,1150,1,1,1926.1999999284744,280637.3000000715,7153,NNB,A,0
1,test,4,0.0,1-Back,1,m,Fri May 16 2025 14:41:53 GMT-0500 (Central Daylight Time),287478.7000000477,046_o_m_n_a.png,O,m,712,2,1,1726.7000000476837,285752.0,7153,NNB,A,1
2,test,4,0.0,1-Back,1,m,Fri May 16 2025 14:41:53 GMT-0500 (Central Daylight Time),289477.8000000715,050_m_f_n_a.png,O,m,970,3,1,1992.6000000238419,287485.2000000477,7153,NNB,A,2
3,test,4,0.0,1-Back,1,m,Fri May 16 2025 14:41:53 GMT-0500 (Central Daylight Time),291144.0,044_o_f_n_a.png,O,m,644,4,1,1659.1000000238419,289484.89999997616,7153,NNB,A,3
3,test,4,1.0,1-Back,0,z,Fri May 16 2025 14:41:53 GMT-0500 (Central Daylight Time),293871.7000000477,044_o_f_n_a.png,O,m,1710,5,1,2721.7000000476837,291150.0,7153,NNB,A,4
4,test,4,0.0,1-Back,1,m,Fri May 16 2025 14:41:53 GMT-0500 (Central Daylight Time),295626.2000000477,063_y_f_n_a.png,O,m,725,6,1,1746.8999999761581,293879.3000000715,7153,NNB,A,5
5,test,4,0.0,1-Back,1,m,Fri May 16 2025 14:41:53 GMT-0500 (Central Daylight Time),297308.8000000715,041_y_m_n_a.png,O,m,655,7,1,1676.4000000953674,295632.39999997616,7153,NNB,A,6
6,test,4,1.0,1-Back,1,z,Fri May 16 2025 14:41:53 GMT-0500 (Central Daylight Time),298976.10000002384,041_y_m_n_a.png,O,z,644,8,1,1660.8999999761581,297315.2000000477,7153,NNB,A,7
7,test,4,0.0,1-Back,1,m,Fri May 16 2025 14:41:53 GMT-0500 (Central Daylight Time),300691.10000002384,063_y_f_n_a.png,O,m,690,9,1,1708.5,298982.60000002384,7153,NNB,A,8
8,test,4,0.0,1-Back,1,m,Fri May 16 2025 14:41:53 GMT-0500 (Central Daylight Time),302390.60000002384,045_m_m_n_a.png,O,m,678,10,1,1693.2999999523163,300697.3000000715,7153,NNB,A,9
9,test,4,1.0,1-Back,1,z,Fri May 16 2025 14:41:53 GMT-0500 (Central Daylight Time),303973.3000000715,045_m_m_n_a.png,O,z,563,11,1,1576.7000000476837,302396.60000002384,7153,NNB,A,10
10,test,4,0.0,1-Back,1,m,Fri May 16 2025 14:41:53 GMT-0500 (Central Daylight Time),305622.89999997616,047_o_f_n_a.png,O,m,628,12,1,1642.5,303980.39999997616,7153,NNB,A,11
11,test,4,0.0,1-Back,1,m,Fri May 16 2025 14:41:53 GMT-0500 (Central Daylight Time),307372.3000000715,053_o_m_n_a.png,O,m,722,13,1,1742.5,305629.8000000715,7153,NNB,A,12
12,test,4,0.0,1-Back,1,m,Fri May 16 2025 14:41:53 GMT-0500 (Central Daylight Time),309355.10000002384,047_o_f_n_a.png,O,m,957,14,1,1976.2000000476837,307378.89999997616,7153,NNB,A,13
13,test,4,0.0,1-Back,1,m,Fri May 16 2025 14:41:53 GMT-0500 (Central Daylight Time),311187.8000000715,010_y_f_n_a.png,O,m,806,15,1,1826.1000000238419,309361.7000000477,7153,NNB,A,14
13,test,4,1.0,1-Back,0,z,Fri May 16 2025 14:41:53 GMT-0500 (Central Daylight Time),313020.60000002384,010_y_f_n_a.png,O,m,813,16,1,1826.7999999523163,311193.8000000715,7153,NNB,A,15
14,test,4,0.0,1-Back,1,m,Fri May 16 2025 14:41:53 GMT-0500 (Central Daylight Time),314686.60000002384,043_m_f_n_a.png,O,m,637,17,1,1659.0,313027.60000002384,7153,NNB,A,16
15,test,4,1.0,1-Back,1,z,Fri May 16 2025 14:41:53 GMT-0500 (Central Daylight Time),316486.10000002384,043_m_f_n_a.png,O,z,779,18,1,1793.1000000238419,314693.0,7153,NNB,A,17
0,test,5,1.0,1-Back,,,Fri May 16 2025 14:41:53 GMT-0500 (Central Daylight Time),316486.10000002384,053_o_m_n_a.png,O,space,1037,1,1,1793.1000000238419,314693.0,7153,NNB,A,0
1,test,5,1.0,1-Back,1,z,Fri May 16 2025 14:41:53 GMT-0500 (Central Daylight Time),322417.89999997616,053_o_m_n_a.png,O,z,1849,2,1,2860.0999999046326,319557.8000000715,7153,NNB,A,1
2,test,5,0.0,1-Back,1,m,Fri May 16 2025 14:41:53 GMT-0500 (Central Daylight Time),324133.7000000477,063_y_f_n_a.png,O,m,688,3,1,1709.0,322424.7000000477,7153,NNB,A,2
3,test,5,0.0,1-Back,1,m,Fri May 16 2025 14:41:53 GMT-0500 (Central Daylight Time),325950.10000002384,041_y_m_n_a.png,O,m,787,4,1,1810.1000000238419,324140.0,7153,NNB,A,3
4,test,5,0.0,1-Back,1,m,Fri May 16 2025 14:41:53 GMT-0500 (Central Daylight Time),327599.2000000477,063_y_f_n_a.png,O,m,619,5,1,1642.8999999761581,325956.3000000715,7153,NNB,A,4
5,test,5,0.0,1-Back,1,m,Fri May 16 2025 14:41:53 GMT-0500 (Central Daylight Time),329215.3000000715,058_m_m_n_a.png,O,m,594,6,1,1610.0,327605.3000000715,7153,NNB,A,5
6,test,5,1.0,1-Back,1,z,Fri May 16 2025 14:41:53 GMT-0500 (Central Daylight Time),331398.10000002384,058_m_m_n_a.png,O,z,1154,7,1,2176.0,329222.10000002384,7153,NNB,A,6
7,test,5,0.0,1-Back,1,m,Fri May 16 2025 14:41:53 GMT-0500 (Central Daylight Time),333280.89999997616,010_y_f_n_a.png,O,m,851,8,1,1876.2999999523163,331404.60000002384,7153,NNB,A,7
8,test,5,0.0,1-Back,1,m,Fri May 16 2025 14:41:53 GMT-0500 (Central Daylight Time),335113.60000002384,008_y_m_n_a.png,O,m,808,9,1,1826.5,333287.10000002384,7153,NNB,A,8
9,test,5,0.0,1-Back,1,m,Fri May 16 2025 14:41:53 GMT-0500 (Central Daylight Time),336796.3000000715,010_y_f_n_a.png,O,m,656,10,1,1676.7000000476837,335119.60000002384,7153,NNB,A,9
10,test,5,0.0,1-Back,1,m,Fri May 16 2025 14:41:53 GMT-0500 (Central Daylight Time),338362.3000000715,047_o_f_n_a.png,O,m,541,11,1,1559.3000000715256,336803.0,7153,NNB,A,10
11,test,5,1.0,1-Back,1,z,Fri May 16 2025 14:41:53 GMT-0500 (Central Daylight Time),340378.60000002384,047_o_f_n_a.png,O,z,990,12,1,2010.0,338368.60000002384,7153,NNB,A,11
12,test,5,0.0,1-Back,1,m,Fri May 16 2025 14:41:53 GMT-0500 (Central Daylight Time),341994.89999997616,046_o_m_n_a.png,O,m,591,13,1,1609.6999999284744,340385.2000000477,7153,NNB,A,12
13,test,5,0.0,1-Back,1,m,Fri May 16 2025 14:41:53 GMT-0500 (Central Daylight Time),343927.39999997616,050_m_f_n_a.png,O,m,902,14,1,1926.2999999523163,342001.10000002384,7153,NNB,A,13
14,test,5,1.0,1-Back,1,z,Fri May 16 2025 14:41:53 GMT-0500 (Central Daylight Time),345810.39999997616,050_m_f_n_a.png,O,z,857,15,1,1876.2999999523163,343934.10000002384,7153,NNB,A,14
15,test,5,0.0,1-Back,1,m,Fri May 16 2025 14:41:53 GMT-0500 (Central Daylight Time),347459.7000000477,046_o_m_n_a.png,O,m,623,16,1,1643.2000000476837,345816.5,7153,NNB,A,15
16,test,5,0.0,1-Back,1,m,Fri May 16 2025 14:41:53 GMT-0500 (Central Daylight Time),349225.89999997616,043_m_f_n_a.png,O,m,749,17,1,1759.8999999761581,347466.0,7153,NNB,A,16
17,test,5,0.0,1-Back,1,m,Fri May 16 2025 14:41:53 GMT-0500 (Central Daylight Time),350825.39999997616,045_m_m_n_a.png,O,m,575,18,1,1593.0,349232.39999997616,7153,NNB,A,17
0,prac,1,0.0,2-Back,,,Fri May 16 2025 14:41:53 GMT-0500 (Central Daylight Time),350825.39999997616,008_y_m_n_a.png,O,space,8240,1,1,1593.0,349232.39999997616,7153,NNB,A,0
0,prac,1,0.0,2-Back,,,Fri May 16 2025 14:41:53 GMT-0500 (Central Daylight Time),350825.39999997616,043_m_f_n_a.png,O,space,8240,2,1,1593.0,349232.39999997616,7153,NNB,A,0
1,prac,1,1.0,2-Back,1,m,Fri May 16 2025 14:41:53 GMT-0500 (Central Daylight Time),483900.39999997616,046_o_m_n_a.png,O,m,1864,3,1,2658.399999976158,481242.0,7153,NNB,A,1
1,prac,1,0.0,2-Back,0,m,Fri May 16 2025 14:41:53 GMT-0500 (Central Daylight Time),486749.60000002384,047_o_f_n_a.png,O,None,2005,4,1,2841.899999976158,483907.7000000477,7153,NNB,A,2
1,prac,1,0.0,2-Back,0,z,Fri May 16 2025 14:41:53 GMT-0500 (Central Daylight Time),488915.39999997616,046_o_m_n_a.png,O,m,1379,5,1,2157.0999999046326,486758.3000000715,7153,NNB,A,3
1,prac,1,1.0,2-Back,0,z,Fri May 16 2025 14:41:53 GMT-0500 (Central Daylight Time),491697.8000000715,047_o_f_n_a.png,O,None,2009,6,1,2775.0,488922.8000000715,7153,NNB,A,4
1,prac,1,0.0,2-Back,0,m,Fri May 16 2025 14:41:53 GMT-0500 (Central Daylight Time),494513.60000002384,045_m_m_n_a.png,O,None,2017,7,1,2808.600000023842,491705.0,7153,NNB,A,5
1,prac,1,0.0,2-Back,0,m,Fri May 16 2025 14:41:53 GMT-0500 (Central Daylight Time),496463.10000002384,053_o_m_n_a.png,O,z,1142,8,1,1941.7999999523163,494521.3000000715,7153,NNB,A,6
1,prac,1,0.0,2-Back,0,m,Fri May 16 2025 14:41:53 GMT-0500 (Central Daylight Time),499295.5,010_y_f_n_a.png,O,None,2002,9,1,2824.5,496471.0,7153,NNB,A,7
1,prac,1,1.0,2-Back,0,z,Fri May 16 2025 14:41:53 GMT-0500 (Central Daylight Time),501211.60000002384,053_o_m_n_a.png,O,m,1130,10,1,1908.5,499303.10000002384,7153,NNB,A,8
1,prac,1,0.0,2-Back,0,m,Fri May 16 2025 14:41:53 GMT-0500 (Central Daylight Time),503560.7000000477,063_y_f_n_a.png,O,z,1533,11,1,2341.8000000715256,501218.89999997616,7153,NNB,A,9
2,prac,1,0.0,2-Back,1,m,Fri May 16 2025 14:41:53 GMT-0500 (Central Daylight Time),506176.7000000477,045_m_m_n_a.png,O,m,1825,12,1,2608.5,503568.2000000477,7153,NNB,A,10
0,prac,2,0.0,2-Back,,,Fri May 16 2025 14:41:53 GMT-0500 (Central Daylight Time),506176.7000000477,008_y_m_n_a.png,O,a,28013,1,1,2608.5,503568.2000000477,7153,NNB,A,0
0,prac,2,0.0,2-Back,,,Fri May 16 2025 14:41:53 GMT-0500 (Central Daylight Time),506176.7000000477,043_m_f_n_a.png,O,a,28013,2,1,2608.5,503568.2000000477,7153,NNB,A,0
1,prac,2,1.0,2-Back,1,m,Fri May 16 2025 14:41:53 GMT-0500 (Central Daylight Time),541299.1000000238,046_o_m_n_a.png,O,m,1189,3,1,1958.2999999523163,539340.8000000715,7153,NNB,A,1
1,prac,2,0.0,2-Back,0,m,Fri May 16 2025 14:41:53 GMT-0500 (Central Daylight Time),544081.6000000238,047_o_f_n_a.png,O,None,2008,4,1,2775.2000000476837,541306.3999999762,7153,NNB,A,2
1,prac,2,0.0,2-Back,0,z,Fri May 16 2025 14:41:53 GMT-0500 (Central Daylight Time),546864.1000000238,046_o_m_n_a.png,O,None,2008,5,1,2775.0,544089.1000000238,7153,NNB,A,3
1,prac,2,1.0,2-Back,0,z,Fri May 16 2025 14:41:53 GMT-0500 (Central Daylight Time),549646.5,047_o_f_n_a.png,O,None,2008,6,1,2774.6999999284744,546871.8000000715,7153,NNB,A,4
2,prac,2,0.0,2-Back,1,m,Fri May 16 2025 14:41:53 GMT-0500 (Central Daylight Time),552395.5,045_m_m_n_a.png,O,m,1929,7,1,2741.5,549654.0,7153,NNB,A,5
2,prac,2,0.0,2-Back,0,m,Fri May 16 2025 14:41:53 GMT-0500 (Central Daylight Time),555211.5,053_o_m_n_a.png,O,None,2014,8,1,2807.899999976158,552403.6000000238,7153,NNB,A,6
2,prac,2,0.0,2-Back,0,m,Fri May 16 2025 14:41:53 GMT-0500 (Central Daylight Time),557543.8000000715,010_y_f_n_a.png,O,z,1500,9,1,2325.2000000476837,555218.6000000238,7153,NNB,A,7
2,prac,2,1.0,2-Back,0,z,Fri May 16 2025 14:41:53 GMT-0500 (Central Daylight Time),559326.5,053_o_m_n_a.png,O,m,995,10,1,1775.3999999761581,557551.1000000238,7153,NNB,A,8
2,prac,2,0.0,2-Back,0,m,Fri May 16 2025 14:41:53 GMT-0500 (Central Daylight Time),562142.3999999762,063_y_f_n_a.png,O,None,2007,11,1,2808.6999999284744,559333.7000000477,7153,NNB,A,9
3,prac,2,0.0,2-Back,1,m,Fri May 16 2025 14:41:53 GMT-0500 (Central Daylight Time),564558.3999999762,045_m_m_n_a.png,O,m,1636,12,1,2408.5,562149.8999999762,7153,NNB,A,10
0,test,1,0.0,2-Back,,,Fri May 16 2025 14:41:53 GMT-0500 (Central Daylight Time),564558.3999999762,041_y_m_n_a.png,O,space,8131,1,1,2408.5,562149.8999999762,7153,NNB,A,0
0,test,1,0.0,2-Back,,,Fri May 16 2025 14:41:53 GMT-0500 (Central Daylight Time),564558.3999999762,041_y_m_n_a.png,O,space,8131,2,1,2408.5,562149.8999999762,7153,NNB,A,0
1,test,1,0.0,2-Back,1,m,Fri May 16 2025 14:41:53 GMT-0500 (Central Daylight Time),585435.1000000238,047_o_f_n_a.png,O,m,931,3,1,1942.6000000238419,583492.5,7153,NNB,A,1
2,test,1,0.0,2-Back,1,m,Fri May 16 2025 14:41:53 GMT-0500 (Central Daylight Time),587551.1000000238,058_m_m_n_a.png,O,m,1086,4,1,2109.5,585441.6000000238,7153,NNB,A,2
3,test,1,1.0,2-Back,1,z,Fri May 16 2025 14:41:53 GMT-0500 (Central Daylight Time),589916.8999999762,047_o_f_n_a.png,O,z,1338,5,1,2359.0999999046326,587557.8000000715,7153,NNB,A,3
4,test,1,0.0,2-Back,1,m,Fri May 16 2025 14:41:53 GMT-0500 (Central Daylight Time),592116.3999999762,063_y_f_n_a.png,O,m,1172,6,1,2192.2999999523163,589924.1000000238,7153,NNB,A,4
5,test,1,0.0,2-Back,1,m,Fri May 16 2025 14:41:53 GMT-0500 (Central Daylight Time),594765.5,058_m_m_n_a.png,O,m,1629,7,1,2642.100000023842,592123.3999999762,7153,NNB,A,5
6,test,1,1.0,2-Back,1,z,Fri May 16 2025 14:41:53 GMT-0500 (Central Daylight Time),596682.1000000238,063_y_f_n_a.png,O,z,900,8,1,1909.7000000476837,594772.3999999762,7153,NNB,A,6
7,test,1,0.0,2-Back,1,m,Fri May 16 2025 14:41:53 GMT-0500 (Central Daylight Time),599247.5,008_y_m_n_a.png,O,m,1536,9,1,2559.0,596688.5,7153,NNB,A,7
8,test,1,0.0,2-Back,1,m,Fri May 16 2025 14:41:53 GMT-0500 (Central Daylight Time),601946.7000000477,044_o_f_n_a.png,O,m,1674,10,1,2691.5,599255.2000000477,7153,NNB,A,8
9,test,1,1.0,2-Back,1,z,Fri May 16 2025 14:41:53 GMT-0500 (Central Daylight Time),604229.3000000715,008_y_m_n_a.png,O,z,1255,11,1,2275.3000000715256,601954.0,7153,NNB,A,9
10,test,1,0.0,2-Back,1,m,Fri May 16 2025 14:41:53 GMT-0500 (Central Daylight Time),606511.8999999762,043_m_f_n_a.png,O,m,1252,12,1,2275.5999999046326,604236.3000000715,7153,NNB,A,10
11,test,1,0.0,2-Back,1,m,Fri May 16 2025 14:41:53 GMT-0500 (Central Daylight Time),609094.3000000715,043_m_f_n_a.png,O,m,1562,13,1,2576.100000023842,606518.2000000477,7153,NNB,A,11
12,test,1,0.0,2-Back,1,m,Fri May 16 2025 14:41:53 GMT-0500 (Central Daylight Time),611260.3000000715,046_o_m_n_a.png,O,m,1139,14,1,2159.2000000476837,609101.1000000238,7153,NNB,A,12
13,test,1,0.0,2-Back,1,m,Fri May 16 2025 14:41:53 GMT-0500 (Central Daylight Time),613809.3999999762,044_o_f_n_a.png,O,m,1517,15,1,2542.899999976158,611266.5,7153,NNB,A,13
13,test,1,1.0,2-Back,0,z,Fri May 16 2025 14:41:53 GMT-0500 (Central Daylight Time),616842.1000000238,046_o_m_n_a.png,O,None,2016,16,1,3026.100000023842,613816.0,7153,NNB,A,14
14,test,1,0.0,2-Back,1,m,Fri May 16 2025 14:41:53 GMT-0500 (Central Daylight Time),619174.5,050_m_f_n_a.png,O,m,1311,17,1,2325.600000023842,616848.8999999762,7153,NNB,A,15
15,test,1,0.0,2-Back,1,m,Fri May 16 2025 14:41:53 GMT-0500 (Central Daylight Time),621457.3000000715,045_m_m_n_a.png,O,m,1259,18,1,2276.7000000476837,619180.6000000238,7153,NNB,A,16
0,test,2,0.0,2-Back,,,Fri May 16 2025 14:41:53 GMT-0500 (Central Daylight Time),621457.3000000715,045_m_m_n_a.png,O,space,2164,1,1,2276.7000000476837,619180.6000000238,7153,NNB,A,0
0,test,2,0.0,2-Back,,,Fri May 16 2025 14:41:53 GMT-0500 (Central Daylight Time),621457.3000000715,010_y_f_n_a.png,O,space,2164,2,1,2276.7000000476837,619180.6000000238,7153,NNB,A,0
1,test,2,1.0,2-Back,1,z,Fri May 16 2025 14:41:53 GMT-0500 (Central Daylight Time),630970.8999999762,045_m_m_n_a.png,O,z,1224,3,1,2243.0,628727.8999999762,7153,NNB,A,1
2,test,2,0.0,2-Back,1,m,Fri May 16 2025 14:41:53 GMT-0500 (Central Daylight Time),632870.1000000238,050_m_f_n_a.png,O,m,871,4,1,1892.5,630977.6000000238,7153,NNB,A,2
3,test,2,0.0,2-Back,1,m,Fri May 16 2025 14:41:53 GMT-0500 (Central Daylight Time),635636.1000000238,010_y_f_n_a.png,O,m,1739,5,1,2759.600000023842,632876.5,7153,NNB,A,3
4,test,2,0.0,2-Back,1,m,Fri May 16 2025 14:41:53 GMT-0500 (Central Daylight Time),637618.6000000238,046_o_m_n_a.png,O,m,965,6,1,1975.8999999761581,635642.7000000477,7153,NNB,A,4
5,test,2,0.0,2-Back,1,m,Fri May 16 2025 14:41:53 GMT-0500 (Central Daylight Time),640201.3999999762,063_y_f_n_a.png,O,m,1551,7,1,2575.5999999046326,637625.8000000715,7153,NNB,A,5
6,test,2,1.0,2-Back,1,z,Fri May 16 2025 14:41:53 GMT-0500 (Central Daylight Time),642517.3000000715,046_o_m_n_a.png,O,z,1288,8,1,2308.8000000715256,640208.5,7153,NNB,A,6
7,test,2,0.0,2-Back,1,m,Fri May 16 2025 14:41:53 GMT-0500 (Central Daylight Time),644499.8999999762,008_y_m_n_a.png,O,m,964,9,1,1976.0999999046326,642523.8000000715,7153,NNB,A,7
8,test,2,0.0,2-Back,1,m,Fri May 16 2025 14:41:53 GMT-0500 (Central Daylight Time),646799.1000000238,008_y_m_n_a.png,O,m,1269,10,1,2293.100000023842,644506.0,7153,NNB,A,8
9,test,2,0.0,2-Back,1,m,Fri May 16 2025 14:41:53 GMT-0500 (Central Daylight Time),648898.5,043_m_f_n_a.png,O,m,1082,11,1,2092.899999976158,646805.6000000238,7153,NNB,A,9
10,test,2,0.0,2-Back,1,m,Fri May 16 2025 14:41:53 GMT-0500 (Central Daylight Time),651098.0,010_y_f_n_a.png,O,m,1183,12,1,2192.1999999284744,648905.8000000715,7153,NNB,A,10
10,test,2,1.0,2-Back,0,z,Fri May 16 2025 14:41:53 GMT-0500 (Central Daylight Time),653713.8000000715,043_m_f_n_a.png,O,m,1591,13,1,2609.3000000715256,651104.5,7153,NNB,A,11
11,test,2,0.0,2-Back,1,m,Fri May 16 2025 14:41:53 GMT-0500 (Central Daylight Time),655862.8000000715,053_o_m_n_a.png,O,m,1120,14,1,2142.0,653720.8000000715,7153,NNB,A,12
12,test,2,0.0,2-Back,1,m,Fri May 16 2025 14:41:53 GMT-0500 (Central Daylight Time),657812.3999999762,053_o_m_n_a.png,O,m,922,15,1,1942.6999999284744,655869.7000000477,7153,NNB,A,13
13,test,2,0.0,2-Back,1,m,Fri May 16 2025 14:41:53 GMT-0500 (Central Daylight Time),660161.6000000238,044_o_f_n_a.png,O,m,1325,16,1,2342.899999976158,657818.7000000477,7153,NNB,A,14
14,test,2,0.0,2-Back,1,m,Fri May 16 2025 14:41:53 GMT-0500 (Central Daylight Time),662327.7000000477,058_m_m_n_a.png,O,m,1144,17,1,2159.600000023842,660168.1000000238,7153,NNB,A,15
14,test,2,1.0,2-Back,0,z,Fri May 16 2025 14:41:53 GMT-0500 (Central Daylight Time),664627.0,044_o_f_n_a.png,O,m,1273,18,1,2292.899999976158,662334.1000000238,7153,NNB,A,16
0,test,3,1.0,2-Back,,,Fri May 16 2025 14:41:53 GMT-0500 (Central Daylight Time),664627.0,041_y_m_n_a.png,O,space,1054,1,1,2292.899999976158,662334.1000000238,7153,NNB,A,0
0,test,3,1.0,2-Back,,,Fri May 16 2025 14:41:53 GMT-0500 (Central Daylight Time),664627.0,041_y_m_n_a.png,O,space,1054,2,1,2292.899999976158,662334.1000000238,7153,NNB,A,0
0,test,3,0.0,2-Back,0,m,Fri May 16 2025 14:41:53 GMT-0500 (Central Daylight Time),673807.3000000715,044_o_f_n_a.png,O,None,2015,3,1,3026.3000000715256,670781.0,7153,NNB,A,1
1,test,3,0.0,2-Back,1,m,Fri May 16 2025 14:41:53 GMT-0500 (Central Daylight Time),676073.3000000715,045_m_m_n_a.png,O,m,1242,4,1,2259.2000000476837,673814.1000000238,7153,NNB,A,2
2,test,3,1.0,2-Back,1,z,Fri May 16 2025 14:41:53 GMT-0500 (Central Daylight Time),678506.1000000238,044_o_f_n_a.png,O,z,1408,5,1,2425.7000000476837,676080.3999999762,7153,NNB,A,3
3,test,3,0.0,2-Back,1,m,Fri May 16 2025 14:41:53 GMT-0500 (Central Daylight Time),681305.0,008_y_m_n_a.png,O,m,1767,6,1,2792.1999999284744,678512.8000000715,7153,NNB,A,4
3,test,3,0.0,2-Back,0,m,Fri May 16 2025 14:41:53 GMT-0500 (Central Daylight Time),684337.2000000477,045_m_m_n_a.png,O,None,2015,7,1,3025.899999976158,681311.3000000715,7153,NNB,A,5
4,test,3,1.0,2-Back,1,z,Fri May 16 2025 14:41:53 GMT-0500 (Central Daylight Time),686553.3000000715,008_y_m_n_a.png,O,z,1192,8,1,2209.5,684343.8000000715,7153,NNB,A,6
5,test,3,0.0,2-Back,1,m,Fri May 16 2025 14:41:53 GMT-0500 (Central Daylight Time),688436.0,010_y_f_n_a.png,O,m,864,9,1,1875.6000000238419,686560.3999999762,7153,NNB,A,7
6,test,3,0.0,2-Back,1,m,Fri May 16 2025 14:41:53 GMT-0500 (Central Daylight Time),690235.7000000477,058_m_m_n_a.png,O,m,773,10,1,1793.3999999761581,688442.3000000715,7153,NNB,A,8
7,test,3,1.0,2-Back,1,z,Fri May 16 2025 14:41:53 GMT-0500 (Central Daylight Time),692435.0,010_y_f_n_a.png,O,z,1174,11,1,2192.6999999284744,690242.3000000715,7153,NNB,A,9
7,test,3,1.0,2-Back,0,z,Fri May 16 2025 14:41:53 GMT-0500 (Central Daylight Time),695017.3000000715,058_m_m_n_a.png,O,m,1550,12,1,2575.7000000476837,692441.6000000238,7153,NNB,A,10
8,test,3,0.0,2-Back,1,m,Fri May 16 2025 14:41:53 GMT-0500 (Central Daylight Time),697050.2000000477,044_o_f_n_a.png,O,m,1008,13,1,2026.1000000238419,695024.1000000238,7153,NNB,A,11
9,test,3,0.0,2-Back,1,m,Fri May 16 2025 14:41:53 GMT-0500 (Central Daylight Time),699982.6000000238,050_m_f_n_a.png,O,m,1903,14,1,2925.2999999523163,697057.3000000715,7153,NNB,A,12
10,test,3,0.0,2-Back,1,m,Fri May 16 2025 14:41:53 GMT-0500 (Central Daylight Time),701898.6000000238,046_o_m_n_a.png,O,m,891,15,1,1909.2999999523163,699989.3000000715,7153,NNB,A,13
11,test,3,1.0,2-Back,1,z,Fri May 16 2025 14:41:53 GMT-0500 (Central Daylight Time),703731.5,050_m_f_n_a.png,O,z,807,16,1,1826.6000000238419,701904.8999999762,7153,NNB,A,14
12,test,3,0.0,2-Back,1,m,Fri May 16 2025 14:41:53 GMT-0500 (Central Daylight Time),705830.7000000477,047_o_f_n_a.png,O,m,1078,17,1,2092.7000000476837,703738.0,7153,NNB,A,15
13,test,3,0.0,2-Back,1,m,Fri May 16 2025 14:41:53 GMT-0500 (Central Daylight Time),707796.6000000238,047_o_f_n_a.png,O,m,946,18,1,1959.2000000476837,705837.3999999762,7153,NNB,A,16
0,test,4,0.0,2-Back,,,Fri May 16 2025 14:41:53 GMT-0500 (Central Daylight Time),707796.6000000238,053_o_m_n_a.png,O,space,957,1,1,1959.2000000476837,705837.3999999762,7153,NNB,A,0
0,test,4,0.0,2-Back,,,Fri May 16 2025 14:41:53 GMT-0500 (Central Daylight Time),707796.6000000238,063_y_f_n_a.png,O,space,957,2,1,1959.2000000476837,705837.3999999762,7153,NNB,A,0
0,test,4,1.0,2-Back,0,z,Fri May 16 2025 14:41:53 GMT-0500 (Central Daylight Time),715510.8000000715,053_o_m_n_a.png,O,m,620,3,1,1643.1000000238419,713867.7000000477,7153,NNB,A,1
0,test,4,1.0,2-Back,0,z,Fri May 16 2025 14:41:53 GMT-0500 (Central Daylight Time),718076.8000000715,063_y_f_n_a.png,O,m,1547,4,1,2559.3000000715256,715517.5,7153,NNB,A,2
0,test,4,0.0,2-Back,0,m,Fri May 16 2025 14:41:53 GMT-0500 (Central Daylight Time),721109.3000000715,044_o_f_n_a.png,O,None,2016,5,1,3025.5,718083.8000000715,7153,NNB,A,3
1,test,4,0.0,2-Back,1,m,Fri May 16 2025 14:41:53 GMT-0500 (Central Daylight Time),723608.5,044_o_f_n_a.png,O,m,1476,6,1,2492.899999976158,721115.6000000238,7153,NNB,A,4
2,test,4,0.0,2-Back,1,m,Fri May 16 2025 14:41:53 GMT-0500 (Central Daylight Time),726574.2000000477,043_m_f_n_a.png,O,m,1945,7,1,2958.5,723615.7000000477,7153,NNB,A,5
2,test,4,0.0,2-Back,0,m,Fri May 16 2025 14:41:53 GMT-0500 (Central Daylight Time),729606.6000000238,008_y_m_n_a.png,O,None,2016,8,1,3025.600000023842,726581.0,7153,NNB,A,6
2,test,4,1.0,2-Back,0,z,Fri May 16 2025 14:41:53 GMT-0500 (Central Daylight Time),731922.3999999762,043_m_f_n_a.png,O,m,1299,9,1,2308.7999999523163,729613.6000000238,7153,NNB,A,7
3,test,4,0.0,2-Back,1,m,Fri May 16 2025 14:41:53 GMT-0500 (Central Daylight Time),734521.8000000715,058_m_m_n_a.png,O,m,1567,10,1,2592.9000000953674,731928.8999999762,7153,NNB,A,8
4,test,4,0.0,2-Back,1,m,Fri May 16 2025 14:41:53 GMT-0500 (Central Daylight Time),736854.3999999762,008_y_m_n_a.png,O,m,1312,11,1,2326.0,734528.3999999762,7153,NNB,A,9
5,test,4,0.0,2-Back,1,m,Fri May 16 2025 14:41:53 GMT-0500 (Central Daylight Time),739570.3000000715,047_o_f_n_a.png,O,m,1699,12,1,2709.100000023842,736861.2000000477,7153,NNB,A,10
6,test,4,0.0,2-Back,1,m,Fri May 16 2025 14:41:53 GMT-0500 (Central Daylight Time),741786.0,041_y_m_n_a.png,O,m,1191,13,1,2209.100000023842,739576.8999999762,7153,NNB,A,11
7,test,4,1.0,2-Back,1,z,Fri May 16 2025 14:41:53 GMT-0500 (Central Daylight Time),743802.3999999762,047_o_f_n_a.png,O,z,999,14,1,2009.1999999284744,741793.2000000477,7153,NNB,A,12
8,test,4,1.0,2-Back,1,z,Fri May 16 2025 14:41:53 GMT-0500 (Central Daylight Time),746034.7000000477,041_y_m_n_a.png,O,z,1215,15,1,2225.600000023842,743809.1000000238,7153,NNB,A,13
9,test,4,0.0,2-Back,1,m,Fri May 16 2025 14:41:53 GMT-0500 (Central Daylight Time),748100.7000000477,045_m_m_n_a.png,O,m,1038,16,1,2059.100000023842,746041.6000000238,7153,NNB,A,14
10,test,4,0.0,2-Back,1,m,Fri May 16 2025 14:41:53 GMT-0500 (Central Daylight Time),750266.8999999762,050_m_f_n_a.png,O,m,1140,17,1,2159.1999999284744,748107.7000000477,7153,NNB,A,15
10,test,4,1.0,2-Back,0,z,Fri May 16 2025 14:41:53 GMT-0500 (Central Daylight Time),753300.8999999762,045_m_m_n_a.png,O,None,2018,18,1,3027.1999999284744,750273.7000000477,7153,NNB,A,16
0,test,5,1.0,2-Back,,,Fri May 16 2025 14:41:53 GMT-0500 (Central Daylight Time),753300.8999999762,041_y_m_n_a.png,O,space,2685,1,1,3027.1999999284744,750273.7000000477,7153,NNB,A,0
0,test,5,1.0,2-Back,,,Fri May 16 2025 14:41:53 GMT-0500 (Central Daylight Time),753300.8999999762,050_m_f_n_a.png,O,space,2685,2,1,3027.1999999284744,750273.7000000477,7153,NNB,A,0
1,test,5,1.0,2-Back,1,z,Fri May 16 2025 14:41:53 GMT-0500 (Central Daylight Time),763079.2000000477,041_y_m_n_a.png,O,z,1011,3,1,2025.8999999761581,761053.3000000715,7153,NNB,A,1
2,test,5,1.0,2-Back,1,z,Fri May 16 2025 14:41:53 GMT-0500 (Central Daylight Time),765612.0,050_m_f_n_a.png,O,z,1514,4,1,2525.399999976158,763086.6000000238,7153,NNB,A,2
3,test,5,0.0,2-Back,1,m,Fri May 16 2025 14:41:53 GMT-0500 (Central Daylight Time),768377.7000000477,047_o_f_n_a.png,O,m,1733,5,1,2759.2000000476837,765618.5,7153,NNB,A,3
4,test,5,0.0,2-Back,1,m,Fri May 16 2025 14:41:53 GMT-0500 (Central Daylight Time),770943.3999999762,041_y_m_n_a.png,O,m,1535,6,1,2558.7999999523163,768384.6000000238,7153,NNB,A,4
4,test,5,0.0,2-Back,0,m,Fri May 16 2025 14:41:53 GMT-0500 (Central Daylight Time),773976.0,010_y_f_n_a.png,O,None,2016,7,1,3026.100000023842,770949.8999999762,7153,NNB,A,5
4,test,5,0.0,2-Back,0,m,Fri May 16 2025 14:41:53 GMT-0500 (Central Daylight Time),776025.1000000238,047_o_f_n_a.png,O,z,1017,8,1,2043.0,773982.1000000238,7153,NNB,A,6
5,test,5,1.0,2-Back,1,z,Fri May 16 2025 14:41:53 GMT-0500 (Central Daylight Time),778224.7000000477,010_y_f_n_a.png,O,z,1168,9,1,2192.899999976158,776031.8000000715,7153,NNB,A,7
6,test,5,0.0,2-Back,1,m,Fri May 16 2025 14:41:53 GMT-0500 (Central Daylight Time),780340.5,046_o_m_n_a.png,O,m,1096,10,1,2109.399999976158,778231.1000000238,7153,NNB,A,8
7,test,5,0.0,2-Back,1,m,Fri May 16 2025 14:41:53 GMT-0500 (Central Daylight Time),782673.3000000715,043_m_f_n_a.png,O,m,1308,11,1,2325.100000023842,780348.2000000477,7153,NNB,A,9
8,test,5,0.0,2-Back,1,m,Fri May 16 2025 14:41:53 GMT-0500 (Central Daylight Time),785522.2000000477,058_m_m_n_a.png,O,m,1832,12,1,2842.600000023842,782679.6000000238,7153,NNB,A,10
9,test,5,0.0,2-Back,1,m,Fri May 16 2025 14:41:53 GMT-0500 (Central Daylight Time),788021.6000000238,046_o_m_n_a.png,O,m,1471,13,1,2492.600000023842,785529.0,7153,NNB,A,11
9,test,5,1.0,2-Back,0,z,Fri May 16 2025 14:41:53 GMT-0500 (Central Daylight Time),790204.0,058_m_m_n_a.png,O,m,1164,14,1,2175.7999999523163,788028.2000000477,7153,NNB,A,12
10,test,5,0.0,2-Back,1,m,Fri May 16 2025 14:41:53 GMT-0500 (Central Daylight Time),793086.5,063_y_f_n_a.png,O,m,1861,15,1,2875.7999999523163,790210.7000000477,7153,NNB,A,13
11,test,5,0.0,2-Back,1,m,Fri May 16 2025 14:41:53 GMT-0500 (Central Daylight Time),795335.8999999762,053_o_m_n_a.png,O,m,1219,16,1,2242.2999999523163,793093.6000000238,7153,NNB,A,14
12,test,5,0.0,2-Back,1,m,Fri May 16 2025 14:41:53 GMT-0500 (Central Daylight Time),797835.1000000238,043_m_f_n_a.png,O,m,1473,17,1,2491.899999976158,795343.2000000477,7153,NNB,A,15
13,test,5,1.0,2-Back,1,z,Fri May 16 2025 14:41:53 GMT-0500 (Central Daylight Time),799734.5,053_o_m_n_a.png,O,z,878,18,1,1892.7999999523163,797841.7000000477,7153,NNB,A,16
