acc_sum,block,block_c,change,condition,correct,correct_response,datetime,endtime,face,project,response,response_time,row_sel,session_number,start_end,starttime,subject_id,task,task_vers,trial
0,prac,1,,1-Back,,,Fri Feb 20 2026 13:15:53 GMT-0600 (Central Standard Time),,050_m_f_n_a.png,O,space,4734,1,,,,,NNB,A,0
1,prac,1,0.0,1-Back,1.0,m,Fri Feb 20 2026 13:15:53 GMT-0600 (Central Standard Time),89670.0,063_y_f_n_a.png,O,m,620,2,,1422.7000000178814,88247.29999998212,,NNB,A,1
2,prac,1,1.0,1-Back,1.0,z,Fri Feb 20 2026 13:15:53 GMT-0600 (Central Standard Time),91219.59999999404,063_y_f_n_a.png,O,z,767,3,,1539.699999988079,89679.90000000596,,NNB,A,2
3,prac,1,0.0,1-Back,1.0,m,Fri Feb 20 2026 13:15:53 GMT-0600 (Central Standard Time),92685.40000000596,053_o_m_n_a.png,O,m,662,4,,1455.9000000059605,91229.5,,NNB,A,3
3,prac,1,0.0,1-Back,0.0,m,Fri Feb 20 2026 13:15:53 GMT-0600 (Central Standard Time),94268.29999998212,058_m_m_n_a.png,O,z,772,5,,1575.199999988079,92693.09999999404,,NNB,A,4
4,prac,1,1.0,1-Back,1.0,z,Fri Feb 20 2026 13:15:53 GMT-0600 (Central Standard Time),95934.59999999404,058_m_m_n_a.png,O,z,890,6,,1657.9000000059605,94276.69999998808,,NNB,A,5
5,prac,1,0.0,1-Back,1.0,m,Fri Feb 20 2026 13:15:53 GMT-0600 (Central Standard Time),97602.5,047_o_f_n_a.png,O,m,898,7,,1658.2000000178814,95944.29999998212,,NNB,A,6
6,prac,1,0.0,1-Back,1.0,m,Fri Feb 20 2026 13:15:53 GMT-0600 (Central Standard Time),99334.0,045_m_m_n_a.png,O,m,950,8,,1725.7000000178814,97608.29999998212,,NNB,A,7
7,prac,1,0.0,1-Back,1.0,m,Fri Feb 20 2026 13:15:53 GMT-0600 (Central Standard Time),100782.90000000596,050_m_f_n_a.png,O,m,677,9,,1444.800000011921,99338.09999999404,,NNB,A,8
8,prac,1,1.0,1-Back,1.0,z,Fri Feb 20 2026 13:15:53 GMT-0600 (Central Standard Time),102200.0,050_m_f_n_a.png,O,z,646,10,,1408.2000000178814,100791.79999998212,,NNB,A,9
9,prac,1,0.0,1-Back,1.0,m,Fri Feb 20 2026 13:15:53 GMT-0600 (Central Standard Time),103748.59999999404,053_o_m_n_a.png,O,m,768,11,,1540.5,102208.09999999404,,NNB,A,10
10,prac,1,0.0,1-Back,1.0,m,Fri Feb 20 2026 13:15:53 GMT-0600 (Central Standard Time),105482.90000000596,010_y_f_n_a.png,O,m,899,12,,1726.0,103756.90000000596,,NNB,A,11
0,test,1,0.0,1-Back,,,Fri Feb 20 2026 13:15:53 GMT-0600 (Central Standard Time),105482.90000000596,063_y_f_n_a.png,O,space,3599,1,,1726.0,103756.90000000596,,NNB,A,0
1,test,1,0.0,1-Back,1.0,m,Fri Feb 20 2026 13:15:53 GMT-0600 (Central Standard Time),120793.59999999404,043_m_f_n_a.png,O,m,645,2,,1652.0,119141.59999999404,,NNB,A,1
2,test,1,0.0,1-Back,1.0,m,Fri Feb 20 2026 13:15:53 GMT-0600 (Central Standard Time),122408.79999998212,010_y_f_n_a.png,O,m,589,3,,1607.699999988079,120801.09999999404,,NNB,A,2
3,test,1,1.0,1-Back,1.0,z,Fri Feb 20 2026 13:15:53 GMT-0600 (Central Standard Time),124058.69999998808,010_y_f_n_a.png,O,z,621,4,,1641.0,122417.69999998808,,NNB,A,3
4,test,1,0.0,1-Back,1.0,m,Fri Feb 20 2026 13:15:53 GMT-0600 (Central Standard Time),125591.0,043_m_f_n_a.png,O,m,508,5,,1526.0999999940395,124064.90000000596,,NNB,A,4
5,test,1,0.0,1-Back,1.0,m,Fri Feb 20 2026 13:15:53 GMT-0600 (Central Standard Time),127407.69999998808,053_o_m_n_a.png,O,m,791,6,,1810.0999999940395,125597.59999999404,,NNB,A,5
6,test,1,1.0,1-Back,1.0,z,Fri Feb 20 2026 13:15:53 GMT-0600 (Central Standard Time),128989.5,053_o_m_n_a.png,O,z,558,7,,1572.5,127417.0,,NNB,A,6
7,test,1,0.0,1-Back,1.0,m,Fri Feb 20 2026 13:15:53 GMT-0600 (Central Standard Time),130623.0,058_m_m_n_a.png,O,m,610,8,,1627.5,128995.5,,NNB,A,7
8,test,1,0.0,1-Back,1.0,m,Fri Feb 20 2026 13:15:53 GMT-0600 (Central Standard Time),132389.40000000596,047_o_f_n_a.png,O,m,735,9,,1757.1000000238419,130632.29999998212,,NNB,A,8
9,test,1,0.0,1-Back,1.0,m,Fri Feb 20 2026 13:15:53 GMT-0600 (Central Standard Time),134254.69999998808,058_m_m_n_a.png,O,m,841,10,,1858.5,132396.19999998808,,NNB,A,9
10,test,1,0.0,1-Back,1.0,m,Fri Feb 20 2026 13:15:53 GMT-0600 (Central Standard Time),136221.69999998808,041_y_m_n_a.png,O,m,935,11,,1958.0999999940395,134263.59999999404,,NNB,A,10
11,test,1,1.0,1-Back,1.0,z,Fri Feb 20 2026 13:15:53 GMT-0600 (Central Standard Time),137954.19999998808,041_y_m_n_a.png,O,z,712,12,,1725.5999999940395,136228.59999999404,,NNB,A,11
12,test,1,0.0,1-Back,1.0,m,Fri Feb 20 2026 13:15:53 GMT-0600 (Central Standard Time),139837.5,044_o_f_n_a.png,O,m,852,13,,1879.2000000178814,137958.29999998212,,NNB,A,12
13,test,1,1.0,1-Back,1.0,z,Fri Feb 20 2026 13:15:53 GMT-0600 (Central Standard Time),141636.19999998808,044_o_f_n_a.png,O,z,778,14,,1792.4000000059605,139843.79999998212,,NNB,A,13
14,test,1,0.0,1-Back,1.0,m,Fri Feb 20 2026 13:15:53 GMT-0600 (Central Standard Time),143468.69999998808,008_y_m_n_a.png,O,m,804,15,,1826.199999988079,141642.5,,NNB,A,14
15,test,1,0.0,1-Back,1.0,m,Fri Feb 20 2026 13:15:53 GMT-0600 (Central Standard Time),145202.09999999404,050_m_f_n_a.png,O,m,713,16,,1723.5,143478.59999999404,,NNB,A,15
16,test,1,0.0,1-Back,1.0,m,Fri Feb 20 2026 13:15:53 GMT-0600 (Central Standard Time),146917.79999998212,046_o_m_n_a.png,O,m,693,17,,1710.3999999761581,145207.40000000596,,NNB,A,16
17,test,1,0.0,1-Back,1.0,m,Fri Feb 20 2026 13:15:53 GMT-0600 (Central Standard Time),148833.79999998212,050_m_f_n_a.png,O,m,895,18,,1909.5,146924.29999998212,,NNB,A,17
0,test,2,0.0,1-Back,,,Fri Feb 20 2026 13:15:53 GMT-0600 (Central Standard Time),148833.79999998212,058_m_m_n_a.png,O,space,1829,1,,1909.5,146924.29999998212,,NNB,A,0
1,test,2,0.0,1-Back,1.0,m,Fri Feb 20 2026 13:15:53 GMT-0600 (Central Standard Time),154398.29999998212,043_m_f_n_a.png,O,m,686,2,,1703.2999999821186,152695.0,,NNB,A,1
2,test,2,1.0,1-Back,1.0,z,Fri Feb 20 2026 13:15:53 GMT-0600 (Central Standard Time),155915.29999998212,043_m_f_n_a.png,O,z,488,3,,1512.199999988079,154403.09999999404,,NNB,A,2
3,test,2,0.0,1-Back,1.0,m,Fri Feb 20 2026 13:15:53 GMT-0600 (Central Standard Time),157464.59999999404,058_m_m_n_a.png,O,m,531,4,,1541.0999999940395,155923.5,,NNB,A,3
4,test,2,0.0,1-Back,1.0,m,Fri Feb 20 2026 13:15:53 GMT-0600 (Central Standard Time),159880.90000000596,041_y_m_n_a.png,O,m,1399,5,,2408.300000011921,157472.59999999404,,NNB,A,4
5,test,2,0.0,1-Back,1.0,m,Fri Feb 20 2026 13:15:53 GMT-0600 (Central Standard Time),161863.19999998808,063_y_f_n_a.png,O,m,958,6,,1973.4000000059605,159889.79999998212,,NNB,A,5
6,test,2,1.0,1-Back,1.0,z,Fri Feb 20 2026 13:15:53 GMT-0600 (Central Standard Time),163329.5,063_y_f_n_a.png,O,z,446,7,,1462.0,161867.5,,NNB,A,6
7,test,2,0.0,1-Back,1.0,m,Fri Feb 20 2026 13:15:53 GMT-0600 (Central Standard Time),165161.79999998212,041_y_m_n_a.png,O,m,814,8,,1825.5999999940395,163336.19999998808,,NNB,A,7
8,test,2,0.0,1-Back,1.0,m,Fri Feb 20 2026 13:15:53 GMT-0600 (Central Standard Time),167094.5,044_o_f_n_a.png,O,m,908,9,,1924.5,165170.0,,NNB,A,8
9,test,2,0.0,1-Back,1.0,m,Fri Feb 20 2026 13:15:53 GMT-0600 (Central Standard Time),168977.19999998808,045_m_m_n_a.png,O,m,864,10,,1876.9000000059605,167100.29999998212,,NNB,A,9
10,test,2,1.0,1-Back,1.0,z,Fri Feb 20 2026 13:15:53 GMT-0600 (Central Standard Time),170460.09999999404,045_m_m_n_a.png,O,z,461,11,,1476.199999988079,168983.90000000596,,NNB,A,10
11,test,2,0.0,1-Back,1.0,m,Fri Feb 20 2026 13:15:53 GMT-0600 (Central Standard Time),171992.59999999404,044_o_f_n_a.png,O,m,505,12,,1525.5999999940395,170467.0,,NNB,A,11
12,test,2,0.0,1-Back,1.0,m,Fri Feb 20 2026 13:15:53 GMT-0600 (Central Standard Time),173893.90000000596,047_o_f_n_a.png,O,m,868,13,,1894.1000000238419,171999.79999998212,,NNB,A,12
13,test,2,0.0,1-Back,1.0,m,Fri Feb 20 2026 13:15:53 GMT-0600 (Central Standard Time),175575.90000000596,053_o_m_n_a.png,O,m,666,14,,1675.300000011921,173900.59999999404,,NNB,A,13
14,test,2,0.0,1-Back,1.0,m,Fri Feb 20 2026 13:15:53 GMT-0600 (Central Standard Time),177141.40000000596,046_o_m_n_a.png,O,m,543,15,,1561.2000000178814,175580.19999998808,,NNB,A,14
15,test,2,1.0,1-Back,1.0,z,Fri Feb 20 2026 13:15:53 GMT-0600 (Central Standard Time),178941.0,046_o_m_n_a.png,O,z,775,16,,1792.5,177148.5,,NNB,A,15
16,test,2,0.0,1-Back,1.0,m,Fri Feb 20 2026 13:15:53 GMT-0600 (Central Standard Time),180377.09999999404,008_y_m_n_a.png,O,m,419,17,,1429.5,178947.59999999404,,NNB,A,16
17,test,2,1.0,1-Back,1.0,z,Fri Feb 20 2026 13:15:53 GMT-0600 (Central Standard Time),182273.29999998212,008_y_m_n_a.png,O,z,881,18,,1892.7999999821186,180380.5,,NNB,A,17
0,test,3,1.0,1-Back,,,Fri Feb 20 2026 13:15:53 GMT-0600 (Central Standard Time),182273.29999998212,010_y_f_n_a.png,O,space,2013,1,,1892.7999999821186,180380.5,,NNB,A,0
1,test,3,0.0,1-Back,1.0,m,Fri Feb 20 2026 13:15:53 GMT-0600 (Central Standard Time),187839.09999999404,046_o_m_n_a.png,O,m,483,2,,1490.9000000059605,186348.19999998808,,NNB,A,1
2,test,3,1.0,1-Back,1.0,z,Fri Feb 20 2026 13:15:53 GMT-0600 (Central Standard Time),189570.90000000596,046_o_m_n_a.png,O,z,702,3,,1727.9000000059605,187843.0,,NNB,A,2
3,test,3,0.0,1-Back,1.0,m,Fri Feb 20 2026 13:15:53 GMT-0600 (Central Standard Time),191235.90000000596,050_m_f_n_a.png,O,m,634,4,,1658.300000011921,189577.59999999404,,NNB,A,3
4,test,3,1.0,1-Back,1.0,z,Fri Feb 20 2026 13:15:53 GMT-0600 (Central Standard Time),192854.79999998212,050_m_f_n_a.png,O,z,595,5,,1615.7999999821186,191239.0,,NNB,A,4
5,test,3,0.0,1-Back,1.0,m,Fri Feb 20 2026 13:15:53 GMT-0600 (Central Standard Time),194435.79999998212,044_o_f_n_a.png,O,m,562,6,,1576.8999999761581,192858.90000000596,,NNB,A,5
6,test,3,0.0,1-Back,1.0,m,Fri Feb 20 2026 13:15:53 GMT-0600 (Central Standard Time),197002.79999998212,041_y_m_n_a.png,O,m,1536,7,,2562.899999976158,194439.90000000596,,NNB,A,6
6,test,3,0.0,1-Back,0.0,m,Fri Feb 20 2026 13:15:53 GMT-0600 (Central Standard Time),198935.09999999404,044_o_f_n_a.png,O,z,910,8,,1926.5999999940395,197008.5,,NNB,A,7
7,test,3,0.0,1-Back,1.0,m,Fri Feb 20 2026 13:15:53 GMT-0600 (Central Standard Time),201735.09999999404,008_y_m_n_a.png,O,m,1775,9,,2793.0,198942.09999999404,,NNB,A,8
8,test,3,1.0,1-Back,1.0,z,Fri Feb 20 2026 13:15:53 GMT-0600 (Central Standard Time),203267.09999999404,008_y_m_n_a.png,O,z,505,10,,1523.5,201743.59999999404,,NNB,A,9
9,test,3,0.0,1-Back,1.0,m,Fri Feb 20 2026 13:15:53 GMT-0600 (Central Standard Time),204899.69999998808,043_m_f_n_a.png,O,m,603,11,,1626.5,203273.19999998808,,NNB,A,10
10,test,3,0.0,1-Back,1.0,m,Fri Feb 20 2026 13:15:53 GMT-0600 (Central Standard Time),206665.29999998212,063_y_f_n_a.png,O,m,747,12,,1759.3999999761581,204905.90000000596,,NNB,A,11
11,test,3,1.0,1-Back,1.0,z,Fri Feb 20 2026 13:15:53 GMT-0600 (Central Standard Time),208314.59999999404,063_y_f_n_a.png,O,z,628,13,,1642.5999999940395,206672.0,,NNB,A,12
12,test,3,0.0,1-Back,1.0,m,Fri Feb 20 2026 13:15:53 GMT-0600 (Central Standard Time),210147.09999999404,043_m_f_n_a.png,O,m,802,14,,1829.800000011921,208317.29999998212,,NNB,A,13
13,test,3,0.0,1-Back,1.0,m,Fri Feb 20 2026 13:15:53 GMT-0600 (Central Standard Time),211932.29999998212,058_m_m_n_a.png,O,m,750,15,,1778.5,210153.79999998212,,NNB,A,14
14,test,3,1.0,1-Back,1.0,z,Fri Feb 20 2026 13:15:53 GMT-0600 (Central Standard Time),213880.19999998808,058_m_m_n_a.png,O,z,923,16,,1942.2999999821186,211937.90000000596,,NNB,A,15
15,test,3,0.0,1-Back,1.0,m,Fri Feb 20 2026 13:15:53 GMT-0600 (Central Standard Time),215663.79999998212,047_o_f_n_a.png,O,m,768,17,,1775.0,213888.79999998212,,NNB,A,16
16,test,3,1.0,1-Back,1.0,z,Fri Feb 20 2026 13:15:53 GMT-0600 (Central Standard Time),217496.0,047_o_f_n_a.png,O,z,807,18,,1827.5999999940395,215668.40000000596,,NNB,A,17
0,test,4,1.0,1-Back,,,Fri Feb 20 2026 13:15:53 GMT-0600 (Central Standard Time),217496.0,050_m_f_n_a.png,O,space,1262,1,,1827.5999999940395,215668.40000000596,,NNB,A,0
1,test,4,0.0,1-Back,1.0,m,Fri Feb 20 2026 13:15:53 GMT-0600 (Central Standard Time),222326.5,046_o_m_n_a.png,O,m,515,2,,1540.5,220786.0,,NNB,A,1
1,test,4,0.0,1-Back,0.0,m,Fri Feb 20 2026 13:15:53 GMT-0600 (Central Standard Time),224111.69999998808,050_m_f_n_a.png,O,z,766,3,,1781.4000000059605,222330.29999998212,,NNB,A,2
2,test,4,0.0,1-Back,1.0,m,Fri Feb 20 2026 13:15:53 GMT-0600 (Central Standard Time),226343.19999998808,044_o_f_n_a.png,O,m,1202,4,,2225.5999999940395,224117.59999999404,,NNB,A,3
3,test,4,1.0,1-Back,1.0,z,Fri Feb 20 2026 13:15:53 GMT-0600 (Central Standard Time),228908.69999998808,044_o_f_n_a.png,O,z,1535,5,,2559.0999999940395,226349.59999999404,,NNB,A,4
4,test,4,0.0,1-Back,1.0,m,Fri Feb 20 2026 13:15:53 GMT-0600 (Central Standard Time),230442.5,063_y_f_n_a.png,O,m,515,6,,1528.0999999940395,228914.40000000596,,NNB,A,5
5,test,4,0.0,1-Back,1.0,m,Fri Feb 20 2026 13:15:53 GMT-0600 (Central Standard Time),231991.69999998808,041_y_m_n_a.png,O,m,532,7,,1541.199999988079,230450.5,,NNB,A,6
6,test,4,1.0,1-Back,1.0,z,Fri Feb 20 2026 13:15:53 GMT-0600 (Central Standard Time),233557.59999999404,041_y_m_n_a.png,O,z,542,8,,1557.0,232000.59999999404,,NNB,A,7
7,test,4,0.0,1-Back,1.0,m,Fri Feb 20 2026 13:15:53 GMT-0600 (Central Standard Time),235439.69999998808,063_y_f_n_a.png,O,m,856,9,,1873.5,233566.19999998808,,NNB,A,8
8,test,4,0.0,1-Back,1.0,m,Fri Feb 20 2026 13:15:53 GMT-0600 (Central Standard Time),237142.19999998808,045_m_m_n_a.png,O,m,671,10,,1695.699999988079,235446.5,,NNB,A,9
9,test,4,1.0,1-Back,1.0,z,Fri Feb 20 2026 13:15:53 GMT-0600 (Central Standard Time),238821.79999998212,045_m_m_n_a.png,O,z,651,11,,1673.199999988079,237148.59999999404,,NNB,A,10
10,test,4,0.0,1-Back,1.0,m,Fri Feb 20 2026 13:15:53 GMT-0600 (Central Standard Time),240738.69999998808,047_o_f_n_a.png,O,m,896,12,,1910.5,238828.19999998808,,NNB,A,11
11,test,4,0.0,1-Back,1.0,m,Fri Feb 20 2026 13:15:53 GMT-0600 (Central Standard Time),242487.40000000596,053_o_m_n_a.png,O,m,717,13,,1742.0,240745.40000000596,,NNB,A,12
12,test,4,0.0,1-Back,1.0,m,Fri Feb 20 2026 13:15:53 GMT-0600 (Central Standard Time),244836.59999999404,047_o_f_n_a.png,O,m,1318,14,,2342.0,242494.59999999404,,NNB,A,13
13,test,4,0.0,1-Back,1.0,m,Fri Feb 20 2026 13:15:53 GMT-0600 (Central Standard Time),247535.69999998808,010_y_f_n_a.png,O,m,1666,15,,2692.2999999821186,244843.40000000596,,NNB,A,14
14,test,4,1.0,1-Back,1.0,z,Fri Feb 20 2026 13:15:53 GMT-0600 (Central Standard Time),249234.90000000596,010_y_f_n_a.png,O,z,677,16,,1692.7000000178814,247542.19999998808,,NNB,A,15
15,test,4,0.0,1-Back,1.0,m,Fri Feb 20 2026 13:15:53 GMT-0600 (Central Standard Time),251004.09999999404,043_m_f_n_a.png,O,m,750,17,,1761.800000011921,249242.29999998212,,NNB,A,16
16,test,4,1.0,1-Back,1.0,z,Fri Feb 20 2026 13:15:53 GMT-0600 (Central Standard Time),252667.19999998808,043_m_f_n_a.png,O,z,633,18,,1654.9000000059605,251012.29999998212,,NNB,A,17
0,test,5,1.0,1-Back,,,Fri Feb 20 2026 13:15:53 GMT-0600 (Central Standard Time),252667.19999998808,053_o_m_n_a.png,O,space,1066,1,,1654.9000000059605,251012.29999998212,,NNB,A,0
1,test,5,1.0,1-Back,1.0,z,Fri Feb 20 2026 13:15:53 GMT-0600 (Central Standard Time),257383.59999999404,053_o_m_n_a.png,O,z,584,2,,1610.5,255773.09999999404,,NNB,A,1
2,test,5,0.0,1-Back,1.0,m,Fri Feb 20 2026 13:15:53 GMT-0600 (Central Standard Time),259366.0,063_y_f_n_a.png,O,m,952,3,,1975.0,257391.0,,NNB,A,2
3,test,5,0.0,1-Back,1.0,m,Fri Feb 20 2026 13:15:53 GMT-0600 (Central Standard Time),261399.90000000596,041_y_m_n_a.png,O,m,1000,4,,2027.300000011921,259372.59999999404,,NNB,A,3
4,test,5,0.0,1-Back,1.0,m,Fri Feb 20 2026 13:15:53 GMT-0600 (Central Standard Time),263430.59999999404,063_y_f_n_a.png,O,m,1007,5,,2022.4000000059605,261408.19999998808,,NNB,A,4
5,test,5,0.0,1-Back,1.0,m,Fri Feb 20 2026 13:15:53 GMT-0600 (Central Standard Time),265281.1999999881,058_m_m_n_a.png,O,m,822,6,,1843.5999999940395,263437.59999999404,,NNB,A,5
6,test,5,1.0,1-Back,1.0,z,Fri Feb 20 2026 13:15:53 GMT-0600 (Central Standard Time),266714.2999999821,058_m_m_n_a.png,O,z,401,7,,1427.5999999940395,265286.6999999881,,NNB,A,6
7,test,5,0.0,1-Back,1.0,m,Fri Feb 20 2026 13:15:53 GMT-0600 (Central Standard Time),268395.90000000596,010_y_f_n_a.png,O,m,660,8,,1674.0,266721.90000000596,,NNB,A,7
8,test,5,0.0,1-Back,1.0,m,Fri Feb 20 2026 13:15:53 GMT-0600 (Central Standard Time),270128.6999999881,008_y_m_n_a.png,O,m,706,9,,1727.9000000059605,268400.7999999821,,NNB,A,8
9,test,5,0.0,1-Back,1.0,m,Fri Feb 20 2026 13:15:53 GMT-0600 (Central Standard Time),272028.5,010_y_f_n_a.png,O,m,878,10,,1893.5999999940395,270134.90000000596,,NNB,A,9
10,test,5,0.0,1-Back,1.0,m,Fri Feb 20 2026 13:15:53 GMT-0600 (Central Standard Time),273827.59999999404,047_o_f_n_a.png,O,m,778,11,,1792.0,272035.59999999404,,NNB,A,10
11,test,5,1.0,1-Back,1.0,z,Fri Feb 20 2026 13:15:53 GMT-0600 (Central Standard Time),275726.7999999821,047_o_f_n_a.png,O,z,883,12,,1895.0999999940395,273831.6999999881,,NNB,A,11
12,test,5,0.0,1-Back,1.0,m,Fri Feb 20 2026 13:15:53 GMT-0600 (Central Standard Time),277226.59999999404,046_o_m_n_a.png,O,m,480,13,,1495.5,275731.09999999404,,NNB,A,12
13,test,5,0.0,1-Back,1.0,m,Fri Feb 20 2026 13:15:53 GMT-0600 (Central Standard Time),278760.5,050_m_f_n_a.png,O,m,516,14,,1527.5,277233.0,,NNB,A,13
13,test,5,1.0,1-Back,0.0,z,Fri Feb 20 2026 13:15:53 GMT-0600 (Central Standard Time),281192.1999999881,050_m_f_n_a.png,O,m,1405,15,,2425.0,278767.1999999881,,NNB,A,14
14,test,5,0.0,1-Back,1.0,m,Fri Feb 20 2026 13:15:53 GMT-0600 (Central Standard Time),283024.7999999821,046_o_m_n_a.png,O,m,806,16,,1826.5,281198.2999999821,,NNB,A,15
15,test,5,0.0,1-Back,1.0,m,Fri Feb 20 2026 13:15:53 GMT-0600 (Central Standard Time),284640.59999999404,043_m_f_n_a.png,O,m,588,17,,1609.0,283031.59999999404,,NNB,A,16
16,test,5,0.0,1-Back,1.0,m,Fri Feb 20 2026 13:15:53 GMT-0600 (Central Standard Time),286323.1999999881,045_m_m_n_a.png,O,m,664,18,,1679.199999988079,284644.0,,NNB,A,17
0,prac,1,0.0,2-Back,,,Fri Feb 20 2026 13:15:53 GMT-0600 (Central Standard Time),286323.1999999881,008_y_m_n_a.png,O,space,3023,1,,1679.199999988079,284644.0,,NNB,A,0
0,prac,1,0.0,2-Back,,,Fri Feb 20 2026 13:15:53 GMT-0600 (Central Standard Time),286323.1999999881,043_m_f_n_a.png,O,space,3023,2,,1679.199999988079,284644.0,,NNB,A,0
1,prac,1,1.0,2-Back,1.0,m,Fri Feb 20 2026 13:15:53 GMT-0600 (Central Standard Time),354036.6999999881,046_o_m_n_a.png,O,m,687,3,,1488.9000000059605,352547.7999999821,,NNB,A,1
2,prac,1,0.0,2-Back,1.0,m,Fri Feb 20 2026 13:15:53 GMT-0600 (Central Standard Time),355584.6999999881,047_o_f_n_a.png,O,m,720,4,,1538.699999988079,354046.0,,NNB,A,2
2,prac,1,0.0,2-Back,0.0,z,Fri Feb 20 2026 13:15:53 GMT-0600 (Central Standard Time),357200.59999999404,046_o_m_n_a.png,O,m,838,5,,1608.300000011921,355592.2999999821,,NNB,A,3
3,prac,1,1.0,2-Back,1.0,z,Fri Feb 20 2026 13:15:53 GMT-0600 (Central Standard Time),359100.7999999821,047_o_f_n_a.png,O,z,1110,6,,1891.8999999761581,357208.90000000596,,NNB,A,4
4,prac,1,0.0,2-Back,1.0,m,Fri Feb 20 2026 13:15:53 GMT-0600 (Central Standard Time),360832.6999999881,045_m_m_n_a.png,O,m,926,7,,1723.9000000059605,359108.7999999821,,NNB,A,5
5,prac,1,0.0,2-Back,1.0,m,Fri Feb 20 2026 13:15:53 GMT-0600 (Central Standard Time),362632.5,053_o_m_n_a.png,O,m,992,8,,1791.0999999940395,360841.40000000596,,NNB,A,6
6,prac,1,0.0,2-Back,1.0,m,Fri Feb 20 2026 13:15:53 GMT-0600 (Central Standard Time),364948.40000000596,010_y_f_n_a.png,O,m,1489,9,,2306.9000000059605,362641.5,,NNB,A,7
7,prac,1,1.0,2-Back,1.0,z,Fri Feb 20 2026 13:15:53 GMT-0600 (Central Standard Time),366382.6999999881,053_o_m_n_a.png,O,z,642,10,,1425.5,364957.1999999881,,NNB,A,8
8,prac,1,0.0,2-Back,1.0,m,Fri Feb 20 2026 13:15:53 GMT-0600 (Central Standard Time),368630.90000000596,063_y_f_n_a.png,O,m,1431,11,,2236.4000000059605,366394.5,,NNB,A,9
9,prac,1,0.0,2-Back,1.0,m,Fri Feb 20 2026 13:15:53 GMT-0600 (Central Standard Time),370049.7999999821,045_m_m_n_a.png,O,m,648,12,,1410.699999988079,368639.09999999404,,NNB,A,10
0,test,1,0.0,2-Back,,,Fri Feb 20 2026 13:15:53 GMT-0600 (Central Standard Time),370049.7999999821,041_y_m_n_a.png,O,space,1926,1,,1410.699999988079,368639.09999999404,,NNB,A,0
0,test,1,0.0,2-Back,,,Fri Feb 20 2026 13:15:53 GMT-0600 (Central Standard Time),370049.7999999821,041_y_m_n_a.png,O,space,1926,2,,1410.699999988079,368639.09999999404,,NNB,A,0
1,test,1,0.0,2-Back,1.0,m,Fri Feb 20 2026 13:15:53 GMT-0600 (Central Standard Time),386008.5,047_o_f_n_a.png,O,m,641,3,,1657.800000011921,384350.6999999881,,NNB,A,1
2,test,1,0.0,2-Back,1.0,m,Fri Feb 20 2026 13:15:53 GMT-0600 (Central Standard Time),388407.90000000596,058_m_m_n_a.png,O,m,1381,4,,2392.600000023842,386015.2999999821,,NNB,A,2
3,test,1,1.0,2-Back,1.0,z,Fri Feb 20 2026 13:15:53 GMT-0600 (Central Standard Time),390957.2999999821,047_o_f_n_a.png,O,z,1520,5,,2545.2999999821186,388412.0,,NNB,A,3
4,test,1,0.0,2-Back,1.0,m,Fri Feb 20 2026 13:15:53 GMT-0600 (Central Standard Time),393705.59999999404,063_y_f_n_a.png,O,m,1721,6,,2742.0999999940395,390963.5,,NNB,A,4
5,test,1,0.0,2-Back,1.0,m,Fri Feb 20 2026 13:15:53 GMT-0600 (Central Standard Time),395405.5,058_m_m_n_a.png,O,m,676,7,,1691.7000000178814,393713.7999999821,,NNB,A,5
6,test,1,1.0,2-Back,1.0,z,Fri Feb 20 2026 13:15:53 GMT-0600 (Central Standard Time),397006.1999999881,063_y_f_n_a.png,O,z,568,8,,1593.5,395412.6999999881,,NNB,A,6
7,test,1,0.0,2-Back,1.0,m,Fri Feb 20 2026 13:15:53 GMT-0600 (Central Standard Time),398654.1999999881,008_y_m_n_a.png,O,m,626,9,,1641.2999999821186,397012.90000000596,,NNB,A,7
8,test,1,0.0,2-Back,1.0,m,Fri Feb 20 2026 13:15:53 GMT-0600 (Central Standard Time),400786.5,044_o_f_n_a.png,O,m,1104,10,,2125.5999999940395,398660.90000000596,,NNB,A,8
9,test,1,1.0,2-Back,1.0,z,Fri Feb 20 2026 13:15:53 GMT-0600 (Central Standard Time),402320.2999999821,008_y_m_n_a.png,O,z,506,11,,1527.8999999761581,400792.40000000596,,NNB,A,9
10,test,1,0.0,2-Back,1.0,m,Fri Feb 20 2026 13:15:53 GMT-0600 (Central Standard Time),403969.09999999404,043_m_f_n_a.png,O,m,626,12,,1642.9000000059605,402326.1999999881,,NNB,A,10
11,test,1,0.0,2-Back,1.0,m,Fri Feb 20 2026 13:15:53 GMT-0600 (Central Standard Time),406585.1999999881,043_m_f_n_a.png,O,m,1592,13,,2609.199999988079,403976.0,,NNB,A,11
11,test,1,0.0,2-Back,0.0,m,Fri Feb 20 2026 13:15:53 GMT-0600 (Central Standard Time),409617.7999999821,046_o_m_n_a.png,O,None,2015,14,,3027.2999999821186,406590.5,,NNB,A,12
11,test,1,0.0,2-Back,0.0,m,Fri Feb 20 2026 13:15:53 GMT-0600 (Central Standard Time),411467.0,044_o_f_n_a.png,O,z,829,15,,1842.2000000178814,409624.7999999821,,NNB,A,13
12,test,1,1.0,2-Back,1.0,z,Fri Feb 20 2026 13:15:53 GMT-0600 (Central Standard Time),413866.5,046_o_m_n_a.png,O,z,1379,16,,2392.300000011921,411474.1999999881,,NNB,A,14
13,test,1,0.0,2-Back,1.0,m,Fri Feb 20 2026 13:15:53 GMT-0600 (Central Standard Time),415681.59999999404,050_m_f_n_a.png,O,m,795,17,,1808.199999988079,413873.40000000596,,NNB,A,15
14,test,1,0.0,2-Back,1.0,m,Fri Feb 20 2026 13:15:53 GMT-0600 (Central Standard Time),417600.09999999404,045_m_m_n_a.png,O,m,901,18,,1912.5999999940395,415687.5,,NNB,A,16
0,test,2,0.0,2-Back,,,Fri Feb 20 2026 13:15:53 GMT-0600 (Central Standard Time),417600.09999999404,045_m_m_n_a.png,O,space,1205,1,,1912.5999999940395,415687.5,,NNB,A,0
0,test,2,0.0,2-Back,,,Fri Feb 20 2026 13:15:53 GMT-0600 (Central Standard Time),417600.09999999404,010_y_f_n_a.png,O,space,1205,2,,1912.5999999940395,415687.5,,NNB,A,0
1,test,2,1.0,2-Back,1.0,z,Fri Feb 20 2026 13:15:53 GMT-0600 (Central Standard Time),425414.0,045_m_m_n_a.png,O,z,485,3,,1510.5,423903.5,,NNB,A,1
2,test,2,0.0,2-Back,1.0,m,Fri Feb 20 2026 13:15:53 GMT-0600 (Central Standard Time),427280.0,050_m_f_n_a.png,O,m,851,4,,1861.800000011921,425418.1999999881,,NNB,A,2
3,test,2,0.0,2-Back,1.0,m,Fri Feb 20 2026 13:15:53 GMT-0600 (Central Standard Time),429861.90000000596,010_y_f_n_a.png,O,m,1551,5,,2576.9000000059605,427285.0,,NNB,A,3
4,test,2,0.0,2-Back,1.0,m,Fri Feb 20 2026 13:15:53 GMT-0600 (Central Standard Time),432744.40000000596,046_o_m_n_a.png,O,m,1867,6,,2876.100000023842,429868.2999999821,,NNB,A,4
4,test,2,0.0,2-Back,0.0,m,Fri Feb 20 2026 13:15:53 GMT-0600 (Central Standard Time),434509.40000000596,063_y_f_n_a.png,O,z,742,7,,1760.0,432749.40000000596,,NNB,A,5
5,test,2,1.0,2-Back,1.0,z,Fri Feb 20 2026 13:15:53 GMT-0600 (Central Standard Time),436908.1999999881,046_o_m_n_a.png,O,z,1375,8,,2396.5,434511.6999999881,,NNB,A,6
6,test,2,0.0,2-Back,1.0,m,Fri Feb 20 2026 13:15:53 GMT-0600 (Central Standard Time),438624.7999999821,008_y_m_n_a.png,O,m,689,9,,1711.0,436913.7999999821,,NNB,A,7
7,test,2,0.0,2-Back,1.0,m,Fri Feb 20 2026 13:15:53 GMT-0600 (Central Standard Time),441324.09999999404,008_y_m_n_a.png,O,m,1676,10,,2696.5999999940395,438627.5,,NNB,A,8
8,test,2,0.0,2-Back,1.0,m,Fri Feb 20 2026 13:15:53 GMT-0600 (Central Standard Time),442975.59999999404,043_m_f_n_a.png,O,m,622,11,,1646.5,441329.09999999404,,NNB,A,9
9,test,2,0.0,2-Back,1.0,m,Fri Feb 20 2026 13:15:53 GMT-0600 (Central Standard Time),445006.5,010_y_f_n_a.png,O,m,1008,12,,2024.4000000059605,442982.09999999404,,NNB,A,10
10,test,2,1.0,2-Back,1.0,z,Fri Feb 20 2026 13:15:53 GMT-0600 (Central Standard Time),446889.59999999404,043_m_f_n_a.png,O,z,855,13,,1876.800000011921,445012.7999999821,,NNB,A,11
11,test,2,0.0,2-Back,1.0,m,Fri Feb 20 2026 13:15:53 GMT-0600 (Central Standard Time),448840.0,053_o_m_n_a.png,O,m,919,14,,1944.4000000059605,446895.59999999404,,NNB,A,12
12,test,2,0.0,2-Back,1.0,m,Fri Feb 20 2026 13:15:53 GMT-0600 (Central Standard Time),451020.90000000596,053_o_m_n_a.png,O,m,1159,15,,2175.0,448845.90000000596,,NNB,A,13
13,test,2,0.0,2-Back,1.0,m,Fri Feb 20 2026 13:15:53 GMT-0600 (Central Standard Time),453735.90000000596,044_o_f_n_a.png,O,m,1688,16,,2708.100000023842,451027.7999999821,,NNB,A,14
14,test,2,0.0,2-Back,1.0,m,Fri Feb 20 2026 13:15:53 GMT-0600 (Central Standard Time),456119.40000000596,058_m_m_n_a.png,O,m,1366,17,,2377.600000023842,453741.7999999821,,NNB,A,15
15,test,2,1.0,2-Back,1.0,z,Fri Feb 20 2026 13:15:53 GMT-0600 (Central Standard Time),457868.7999999821,044_o_f_n_a.png,O,z,723,18,,1743.8999999761581,456124.90000000596,,NNB,A,16
0,test,3,1.0,2-Back,,,Fri Feb 20 2026 13:15:53 GMT-0600 (Central Standard Time),457868.7999999821,041_y_m_n_a.png,O,space,1323,1,,1743.8999999761581,456124.90000000596,,NNB,A,0
0,test,3,1.0,2-Back,,,Fri Feb 20 2026 13:15:53 GMT-0600 (Central Standard Time),457868.7999999821,041_y_m_n_a.png,O,space,1323,2,,1743.8999999761581,456124.90000000596,,NNB,A,0
1,test,3,0.0,2-Back,1.0,m,Fri Feb 20 2026 13:15:53 GMT-0600 (Central Standard Time),465934.2999999821,044_o_f_n_a.png,O,m,645,3,,1657.0,464277.2999999821,,NNB,A,1
2,test,3,0.0,2-Back,1.0,m,Fri Feb 20 2026 13:15:53 GMT-0600 (Central Standard Time),467748.40000000596,045_m_m_n_a.png,O,m,792,4,,1808.5,465939.90000000596,,NNB,A,2
3,test,3,1.0,2-Back,1.0,z,Fri Feb 20 2026 13:15:53 GMT-0600 (Central Standard Time),469415.40000000596,044_o_f_n_a.png,O,z,640,5,,1664.0,467751.40000000596,,NNB,A,3
4,test,3,0.0,2-Back,1.0,m,Fri Feb 20 2026 13:15:53 GMT-0600 (Central Standard Time),471097.6999999881,008_y_m_n_a.png,O,m,654,6,,1679.0,469418.6999999881,,NNB,A,4
4,test,3,0.0,2-Back,0.0,m,Fri Feb 20 2026 13:15:53 GMT-0600 (Central Standard Time),473180.40000000596,045_m_m_n_a.png,O,z,1060,7,,2077.600000023842,471102.7999999821,,NNB,A,5
5,test,3,1.0,2-Back,1.0,z,Fri Feb 20 2026 13:15:53 GMT-0600 (Central Standard Time),475646.2999999821,008_y_m_n_a.png,O,z,1434,8,,2459.699999988079,473186.59999999404,,NNB,A,6
6,test,3,0.0,2-Back,1.0,m,Fri Feb 20 2026 13:15:53 GMT-0600 (Central Standard Time),477562.90000000596,010_y_f_n_a.png,O,m,886,9,,1911.1000000238419,475651.7999999821,,NNB,A,7
7,test,3,0.0,2-Back,1.0,m,Fri Feb 20 2026 13:15:53 GMT-0600 (Central Standard Time),480312.90000000596,058_m_m_n_a.png,O,m,1718,10,,2743.7000000178814,477569.1999999881,,NNB,A,8
8,test,3,1.0,2-Back,1.0,z,Fri Feb 20 2026 13:15:53 GMT-0600 (Central Standard Time),481944.1999999881,010_y_f_n_a.png,O,z,615,11,,1622.7999999821186,480321.40000000596,,NNB,A,9
9,test,3,1.0,2-Back,1.0,z,Fri Feb 20 2026 13:15:53 GMT-0600 (Central Standard Time),483761.40000000596,058_m_m_n_a.png,O,z,789,12,,1807.5,481953.90000000596,,NNB,A,10
10,test,3,0.0,2-Back,1.0,m,Fri Feb 20 2026 13:15:53 GMT-0600 (Central Standard Time),486077.5,044_o_f_n_a.png,O,m,1285,13,,2310.5999999940395,483766.90000000596,,NNB,A,11
11,test,3,0.0,2-Back,1.0,m,Fri Feb 20 2026 13:15:53 GMT-0600 (Central Standard Time),488159.09999999404,050_m_f_n_a.png,O,m,1065,14,,2075.0,486084.09999999404,,NNB,A,12
12,test,3,0.0,2-Back,1.0,m,Fri Feb 20 2026 13:15:53 GMT-0600 (Central Standard Time),490108.90000000596,046_o_m_n_a.png,O,m,919,15,,1944.5,488164.40000000596,,NNB,A,13
13,test,3,1.0,2-Back,1.0,z,Fri Feb 20 2026 13:15:53 GMT-0600 (Central Standard Time),491923.2999999821,050_m_f_n_a.png,O,z,784,16,,1807.5,490115.7999999821,,NNB,A,14
14,test,3,0.0,2-Back,1.0,m,Fri Feb 20 2026 13:15:53 GMT-0600 (Central Standard Time),493940.59999999404,047_o_f_n_a.png,O,m,986,17,,2013.300000011921,491927.2999999821,,NNB,A,15
15,test,3,0.0,2-Back,1.0,m,Fri Feb 20 2026 13:15:53 GMT-0600 (Central Standard Time),496823.2999999821,047_o_f_n_a.png,O,m,1856,18,,2877.0999999940395,493946.1999999881,,NNB,A,16
0,test,4,0.0,2-Back,,,Fri Feb 20 2026 13:15:53 GMT-0600 (Central Standard Time),496823.2999999821,053_o_m_n_a.png,O,space,1222,1,,2877.0999999940395,493946.1999999881,,NNB,A,0
0,test,4,0.0,2-Back,,,Fri Feb 20 2026 13:15:53 GMT-0600 (Central Standard Time),496823.2999999821,063_y_f_n_a.png,O,space,1222,2,,2877.0999999940395,493946.1999999881,,NNB,A,0
1,test,4,1.0,2-Back,1.0,z,Fri Feb 20 2026 13:15:53 GMT-0600 (Central Standard Time),504837.40000000596,053_o_m_n_a.png,O,z,668,3,,1694.6000000238419,503142.7999999821,,NNB,A,1
2,test,4,1.0,2-Back,1.0,z,Fri Feb 20 2026 13:15:53 GMT-0600 (Central Standard Time),507203.0,063_y_f_n_a.png,O,z,1338,4,,2359.0999999940395,504843.90000000596,,NNB,A,2
3,test,4,0.0,2-Back,1.0,m,Fri Feb 20 2026 13:15:53 GMT-0600 (Central Standard Time),509401.59999999404,044_o_f_n_a.png,O,m,1179,5,,2193.4000000059605,507208.1999999881,,NNB,A,3
4,test,4,0.0,2-Back,1.0,m,Fri Feb 20 2026 13:15:53 GMT-0600 (Central Standard Time),511668.90000000596,044_o_f_n_a.png,O,m,1235,6,,2261.7000000178814,509407.1999999881,,NNB,A,4
5,test,4,0.0,2-Back,1.0,m,Fri Feb 20 2026 13:15:53 GMT-0600 (Central Standard Time),513902.1999999881,043_m_f_n_a.png,O,m,1202,7,,2226.5,511675.6999999881,,NNB,A,5
6,test,4,0.0,2-Back,1.0,m,Fri Feb 20 2026 13:15:53 GMT-0600 (Central Standard Time),515951.90000000596,008_y_m_n_a.png,O,m,1034,8,,2043.9000000059605,513908.0,,NNB,A,6
7,test,4,1.0,2-Back,1.0,z,Fri Feb 20 2026 13:15:53 GMT-0600 (Central Standard Time),517767.5,043_m_f_n_a.png,O,z,799,9,,1808.2000000178814,515959.2999999821,,NNB,A,7
8,test,4,0.0,2-Back,1.0,m,Fri Feb 20 2026 13:15:53 GMT-0600 (Central Standard Time),519582.7999999821,058_m_m_n_a.png,O,m,792,10,,1810.5999999940395,517772.1999999881,,NNB,A,8
9,test,4,0.0,2-Back,1.0,m,Fri Feb 20 2026 13:15:53 GMT-0600 (Central Standard Time),521748.6999999881,008_y_m_n_a.png,O,m,1143,11,,2159.0999999940395,519589.59999999404,,NNB,A,9
10,test,4,0.0,2-Back,1.0,m,Fri Feb 20 2026 13:15:53 GMT-0600 (Central Standard Time),523748.09999999404,047_o_f_n_a.png,O,m,977,12,,1992.0,521756.09999999404,,NNB,A,10
11,test,4,0.0,2-Back,1.0,m,Fri Feb 20 2026 13:15:53 GMT-0600 (Central Standard Time),525514.6999999881,041_y_m_n_a.png,O,m,739,13,,1761.199999988079,523753.5,,NNB,A,11
12,test,4,1.0,2-Back,1.0,z,Fri Feb 20 2026 13:15:53 GMT-0600 (Central Standard Time),527480.5,047_o_f_n_a.png,O,z,941,14,,1958.7000000178814,525521.7999999821,,NNB,A,12
12,test,4,1.0,2-Back,0.0,z,Fri Feb 20 2026 13:15:53 GMT-0600 (Central Standard Time),530513.0,041_y_m_n_a.png,O,None,2014,15,,3028.300000011921,527484.6999999881,,NNB,A,13
13,test,4,0.0,2-Back,1.0,m,Fri Feb 20 2026 13:15:53 GMT-0600 (Central Standard Time),532328.6999999881,045_m_m_n_a.png,O,m,798,16,,1810.2999999821186,530518.400000006,,NNB,A,14
14,test,4,0.0,2-Back,1.0,m,Fri Feb 20 2026 13:15:53 GMT-0600 (Central Standard Time),534429.099999994,050_m_f_n_a.png,O,m,1069,17,,2095.699999988079,532333.400000006,,NNB,A,15
15,test,4,1.0,2-Back,1.0,z,Fri Feb 20 2026 13:15:53 GMT-0600 (Central Standard Time),536277.6999999881,045_m_m_n_a.png,O,z,817,18,,1841.9000000059605,534435.7999999821,,NNB,A,16
0,test,5,1.0,2-Back,,,Fri Feb 20 2026 13:15:53 GMT-0600 (Central Standard Time),536277.6999999881,041_y_m_n_a.png,O,space,929,1,,1841.9000000059605,534435.7999999821,,NNB,A,0
0,test,5,1.0,2-Back,,,Fri Feb 20 2026 13:15:53 GMT-0600 (Central Standard Time),536277.6999999881,050_m_f_n_a.png,O,space,929,2,,1841.9000000059605,534435.7999999821,,NNB,A,0
1,test,5,1.0,2-Back,1.0,z,Fri Feb 20 2026 13:15:53 GMT-0600 (Central Standard Time),544091.400000006,041_y_m_n_a.png,O,z,804,3,,1829.4000000059605,542262.0,,NNB,A,1
2,test,5,1.0,2-Back,1.0,z,Fri Feb 20 2026 13:15:53 GMT-0600 (Central Standard Time),545757.599999994,050_m_f_n_a.png,O,z,644,4,,1657.0999999940395,544100.5,,NNB,A,2
3,test,5,0.0,2-Back,1.0,m,Fri Feb 20 2026 13:15:53 GMT-0600 (Central Standard Time),547573.900000006,047_o_f_n_a.png,O,m,783,5,,1810.5,545763.400000006,,NNB,A,3
4,test,5,0.0,2-Back,1.0,m,Fri Feb 20 2026 13:15:53 GMT-0600 (Central Standard Time),549973.2999999821,041_y_m_n_a.png,O,m,1367,6,,2392.5,547580.7999999821,,NNB,A,4
5,test,5,0.0,2-Back,1.0,m,Fri Feb 20 2026 13:15:53 GMT-0600 (Central Standard Time),552605.0,010_y_f_n_a.png,O,m,1610,7,,2625.7000000178814,549979.2999999821,,NNB,A,5
6,test,5,0.0,2-Back,1.0,m,Fri Feb 20 2026 13:15:53 GMT-0600 (Central Standard Time),555320.2999999821,047_o_f_n_a.png,O,m,1696,8,,2709.2999999821186,552611.0,,NNB,A,6
7,test,5,1.0,2-Back,1.0,z,Fri Feb 20 2026 13:15:53 GMT-0600 (Central Standard Time),557254.400000006,010_y_f_n_a.png,O,z,910,9,,1929.800000011921,555324.599999994,,NNB,A,7
8,test,5,0.0,2-Back,1.0,m,Fri Feb 20 2026 13:15:53 GMT-0600 (Central Standard Time),559655.5,046_o_m_n_a.png,O,m,1384,10,,2395.0,557260.5,,NNB,A,8
9,test,5,0.0,2-Back,1.0,m,Fri Feb 20 2026 13:15:53 GMT-0600 (Central Standard Time),562520.599999994,043_m_f_n_a.png,O,m,1832,11,,2857.199999988079,559663.400000006,,NNB,A,9
10,test,5,0.0,2-Back,1.0,m,Fri Feb 20 2026 13:15:53 GMT-0600 (Central Standard Time),564785.2999999821,058_m_m_n_a.png,O,m,1247,12,,2259.0999999940395,562526.1999999881,,NNB,A,10
11,test,5,0.0,2-Back,1.0,m,Fri Feb 20 2026 13:15:53 GMT-0600 (Central Standard Time),566601.400000006,046_o_m_n_a.png,O,m,790,13,,1808.6000000238419,564792.7999999821,,NNB,A,11
12,test,5,1.0,2-Back,1.0,z,Fri Feb 20 2026 13:15:53 GMT-0600 (Central Standard Time),568332.900000006,058_m_m_n_a.png,O,z,707,14,,1723.9000000059605,566609.0,,NNB,A,12
13,test,5,0.0,2-Back,1.0,m,Fri Feb 20 2026 13:15:53 GMT-0600 (Central Standard Time),570515.900000006,063_y_f_n_a.png,O,m,1162,15,,2180.600000023842,568335.2999999821,,NNB,A,13
14,test,5,0.0,2-Back,1.0,m,Fri Feb 20 2026 13:15:53 GMT-0600 (Central Standard Time),572948.900000006,053_o_m_n_a.png,O,m,1409,16,,2428.100000023842,570520.7999999821,,NNB,A,14
15,test,5,0.0,2-Back,1.0,m,Fri Feb 20 2026 13:15:53 GMT-0600 (Central Standard Time),574732.099999994,043_m_f_n_a.png,O,m,753,17,,1776.4000000059605,572955.6999999881,,NNB,A,15
16,test,5,1.0,2-Back,1.0,z,Fri Feb 20 2026 13:15:53 GMT-0600 (Central Standard Time),576364.400000006,053_o_m_n_a.png,O,z,611,18,,1625.7000000178814,574738.6999999881,,NNB,A,16
