acc_sum,block,block_c,condition,correct,correct_response,datetime,endtime,flanker,jitter,project,response,response_test_buffer_response,response_test_target_response,response_time,response_time_test_buffer_response,response_time_test_target_response,row_sel,session_number,start_end,starttime,subject_id,target,task,task_vers,time_test_buffer,time_test_buffer_response,time_test_constants,time_test_flanker,time_test_jitter,time_test_logger,time_test_target,time_test_target_response,time_test_variables,trial
1,prac,1,con,1,z,Fri Oct 10 2025 13:01:47 GMT-0500 (Central Daylight Time),114579.89999985695,kiwi,1000,I,z,,,553,,,7,1,2857.7999999523163,111722.09999990463,7226,kiwi,NF,C,,,,,,,,,,1
2,prac,1,con,1,z,Fri Oct 10 2025 13:01:47 GMT-0500 (Central Daylight Time),117079.0,lime,800,I,z,,,399,,,5,1,2490.600000143051,114588.39999985695,7226,lime,NF,C,,,,,,,,,,2
3,prac,1,inc,1,m,Fri Oct 10 2025 13:01:47 GMT-0500 (Central Daylight Time),119794.69999980927,raisin,1100,I,m,,,304,,,12,1,2709.199999809265,117085.5,7226,cobalt,NF,C,,,,,,,,,,3
4,prac,1,con,1,m,Fri Oct 10 2025 13:01:47 GMT-0500 (Central Daylight Time),122194.89999985695,gold,800,I,m,,,304,,,13,1,2394.0999999046326,119800.79999995232,7226,gold,NF,C,,,,,,,,,,4
5,prac,1,inc,1,z,Fri Oct 10 2025 13:01:47 GMT-0500 (Central Daylight Time),124994.09999990463,lead,1100,I,z,,,372,,,8,1,2781.0,122213.09999990463,7226,plum,NF,C,,,,,,,,,,5
6,prac,1,inc,1,m,Fri Oct 10 2025 13:01:47 GMT-0500 (Central Daylight Time),127526.79999995232,pear,900,I,m,,,300,,,14,1,2510.0,125016.79999995232,7226,iron,NF,C,,,,,,,,,,6
6,prac,1,con,0,m,Fri Oct 10 2025 13:01:47 GMT-0500 (Central Daylight Time),130142.19999980927,zinc,1000,I,z,,,284,,,15,1,2591.699999809265,127550.5,7226,zinc,NF,C,,,,,,,,,,7
7,prac,1,con,1,m,Fri Oct 10 2025 13:01:47 GMT-0500 (Central Daylight Time),132808.09999990463,silver,1000,I,m,,,333,,,11,1,2642.5,130165.59999990463,7226,silver,NF,C,,,,,,,,,,8
8,prac,1,inc,1,z,Fri Oct 10 2025 13:01:47 GMT-0500 (Central Daylight Time),135440.89999985695,iron,900,I,z,,,407,,,6,1,2610.399999856949,132830.5,7226,pear,NF,C,,,,,,,,,,9
8,prac,1,inc,0,z,Fri Oct 10 2025 13:01:47 GMT-0500 (Central Daylight Time),138189.79999995232,cobalt,1100,I,m,,,319,,,4,1,2724.9000000953674,135464.89999985695,7226,raisin,NF,C,,,,,,,,,,10
8,prac,1,con,0,m,Fri Oct 10 2025 13:01:47 GMT-0500 (Central Daylight Time),140739.0,bronze,800,I,z,,,422,,,9,1,2521.4000000953674,138217.59999990463,7226,bronze,NF,C,,,,,,,,,,11
9,prac,1,con,1,z,Fri Oct 10 2025 13:01:47 GMT-0500 (Central Daylight Time),143371.69999980927,orange,1000,I,z,,,303,,,3,1,2610.199999809265,140761.5,7226,orange,NF,C,,,,,,,,,,12
9,prac,1,con,0,z,Fri Oct 10 2025 13:01:47 GMT-0500 (Central Daylight Time),145804.19999980927,banana,800,I,m,,,311,,,1,1,2412.0999999046326,143392.09999990463,7226,banana,NF,C,,,,,,,,,,13
10,prac,1,inc,1,m,Fri Oct 10 2025 13:01:47 GMT-0500 (Central Daylight Time),148336.29999995232,cherry,900,I,m,,,299,,,10,1,2510.2000000476837,145826.09999990463,7226,copper,NF,C,,,,,,,,,,14
10,prac,1,inc,0,m,Fri Oct 10 2025 13:01:47 GMT-0500 (Central Daylight Time),151085.39999985695,plum,1100,I,z,,,320,,,16,1,2726.7999999523163,148358.59999990463,7226,lead,NF,C,,,,,,,,,,15
11,prac,1,inc,1,z,Fri Oct 10 2025 13:01:47 GMT-0500 (Central Daylight Time),153668.19999980927,copper,900,I,z,,,359,,,2,1,2561.5,151106.69999980927,7226,cherry,NF,C,,,,,,,,,,16
1,prac,2,con,1,z,Fri Oct 10 2025 13:01:47 GMT-0500 (Central Daylight Time),162431.89999985695,lime,800,I,z,,,416,,,5,1,2528.5,159903.39999985695,7226,lime,NF,C,,,,,,,,,,1
2,prac,2,con,1,z,Fri Oct 10 2025 13:01:47 GMT-0500 (Central Daylight Time),165080.79999995232,kiwi,1000,I,z,,,331,,,7,1,2626.2999999523163,162454.5,7226,kiwi,NF,C,,,,,,,,,,2
3,prac,2,con,1,m,Fri Oct 10 2025 13:01:47 GMT-0500 (Central Daylight Time),167480.0,gold,800,I,m,,,283,,,13,1,2389.4000000953674,165090.59999990463,7226,gold,NF,C,,,,,,,,,,3
3,prac,2,inc,0,m,Fri Oct 10 2025 13:01:47 GMT-0500 (Central Daylight Time),170012.69999980927,pear,900,I,z,,,311,,,14,1,2511.0999999046326,167501.59999990463,7226,iron,NF,C,,,,,,,,,,4
4,prac,2,con,1,z,Fri Oct 10 2025 13:01:47 GMT-0500 (Central Daylight Time),172495.19999980927,banana,800,I,z,,,358,,,1,1,2464.199999809265,170031.0,7226,banana,NF,C,,,,,,,,,,5
5,prac,2,inc,1,z,Fri Oct 10 2025 13:01:47 GMT-0500 (Central Daylight Time),175327.59999990463,lead,1100,I,z,,,399,,,8,1,2811.2999999523163,172516.29999995232,7226,plum,NF,C,,,,,,,,,,6
5,prac,2,inc,0,m,Fri Oct 10 2025 13:01:47 GMT-0500 (Central Daylight Time),178043.29999995232,raisin,1100,I,z,,,287,,,12,1,2692.4000000953674,175350.89999985695,7226,cobalt,NF,C,,,,,,,,,,7
6,prac,2,inc,1,z,Fri Oct 10 2025 13:01:47 GMT-0500 (Central Daylight Time),180625.69999980927,iron,900,I,z,,,356,,,6,1,2561.7999999523163,178063.89999985695,7226,pear,NF,C,,,,,,,,,,8
7,prac,2,inc,1,m,Fri Oct 10 2025 13:01:47 GMT-0500 (Central Daylight Time),183391.69999980927,plum,1100,I,m,,,341,,,16,1,2744.2999999523163,180647.39999985695,7226,lead,NF,C,,,,,,,,,,9
8,prac,2,con,1,z,Fri Oct 10 2025 13:01:47 GMT-0500 (Central Daylight Time),186107.39999985695,orange,1000,I,z,,,387,,,3,1,2695.7000000476837,183411.69999980927,7226,orange,NF,C,,,,,,,,,,10
9,prac,2,inc,1,m,Fri Oct 10 2025 13:01:47 GMT-0500 (Central Daylight Time),188656.5,cherry,900,I,m,,,332,,,10,1,2528.0,186128.5,7226,copper,NF,C,,,,,,,,,,11
10,prac,2,con,1,m,Fri Oct 10 2025 13:01:47 GMT-0500 (Central Daylight Time),191122.39999985695,bronze,800,I,m,,,346,,,9,1,2444.399999856949,188678.0,7226,bronze,NF,C,,,,,,,,,,12
10,prac,2,inc,0,z,Fri Oct 10 2025 13:01:47 GMT-0500 (Central Daylight Time),193654.69999980927,copper,900,I,m,,,308,,,2,1,2512.399999856949,191142.29999995232,7226,cherry,NF,C,,,,,,,,,,13
11,prac,2,con,1,m,Fri Oct 10 2025 13:01:47 GMT-0500 (Central Daylight Time),196387.39999985695,silver,1000,I,m,,,412,,,11,1,2714.2999999523163,193673.09999990463,7226,silver,NF,C,,,,,,,,,,14
12,prac,2,inc,1,z,Fri Oct 10 2025 13:01:47 GMT-0500 (Central Daylight Time),199186.19999980927,cobalt,1100,I,z,,,380,,,4,1,2777.5999999046326,196408.59999990463,7226,raisin,NF,C,,,,,,,,,,15
13,prac,2,con,1,m,Fri Oct 10 2025 13:01:47 GMT-0500 (Central Daylight Time),201852.19999980927,zinc,1000,I,m,,,336,,,15,1,2645.699999809265,199206.5,7226,zinc,NF,C,,,,,,,,,,16
1,test,1,inc,1,m,Fri Oct 10 2025 13:01:47 GMT-0500 (Central Daylight Time),210716.0,plum,1100,I,m,m,None,496,297.0,199.0,128,1,2129.300000190735,208586.69999980927,7226,lead,NF,C,206231,206231,204401,205513,204402,206530,206031,206031,206530,1
2,test,1,con,1,m,Fri Oct 10 2025 13:01:47 GMT-0500 (Central Daylight Time),212431.5,lead,800,I,m,m,None,351,152.0,199.0,121,1,1695.0,210736.5,7226,lead,NF,C,208079,208079,206551,207364,206552,208246,207880,207880,208246,2
3,test,1,inc,1,z,Fri Oct 10 2025 13:01:47 GMT-0500 (Central Daylight Time),214448.0,cobalt,1100,I,z,z,None,375,176.0,199.0,32,1,2003.5,212444.5,7226,raisin,NF,C,210080,210080,208259,209363,208259,210262,209880,209880,210262,3
4,test,1,con,1,z,Fri Oct 10 2025 13:01:47 GMT-0500 (Central Daylight Time),216297.29999995232,cherry,900,I,z,z,None,383,184.0,199.0,10,1,1825.2999999523163,214472.0,7226,cherry,NF,C,211912,211912,210286,211195,210288,212111,211712,211712,212111,4
5,test,1,inc,1,m,Fri Oct 10 2025 13:01:47 GMT-0500 (Central Daylight Time),218330.5,raisin,1100,I,m,m,None,382,182.0,200.0,88,1,2013.2000000476837,216317.29999995232,7226,silver,NF,C,213961,213962,212131,213245,212132,214145,213761,213761,214144,5
6,test,1,inc,1,z,Fri Oct 10 2025 13:01:47 GMT-0500 (Central Daylight Time),220162.5,iron,900,I,z,z,None,381,182.0,199.0,62,1,1812.1000001430511,218350.39999985695,7226,plum,NF,C,215794,215794,214164,215078,214166,215977,215594,215594,215977,6
7,test,1,con,1,z,Fri Oct 10 2025 13:01:47 GMT-0500 (Central Daylight Time),221828.79999995232,kiwi,800,I,z,z,None,312,113.0,199.0,49,1,1646.1000001430511,220182.69999980927,7226,kiwi,NF,C,217527,217527,215997,216810,215998,217643,217327,217327,217643,7
8,test,1,con,1,z,Fri Oct 10 2025 13:01:47 GMT-0500 (Central Daylight Time),223828.19999980927,orange,1000,I,z,z,None,438,239.0,199.0,19,1,1977.5999999046326,221850.59999990463,7226,orange,NF,C,219393,219393,217665,218677,217665,219642,219193,219193,219642,8
9,test,1,con,1,z,Fri Oct 10 2025 13:01:47 GMT-0500 (Central Daylight Time),225561.09999990463,banana,800,I,z,z,None,374,175.0,199.0,1,1,1712.0,223849.09999990463,7226,banana,NF,C,221193,221193,219663,220476,219664,221375,220992,220993,221375,9
10,test,1,con,1,z,Fri Oct 10 2025 13:01:47 GMT-0500 (Central Daylight Time),227443.39999985695,plum,900,I,z,z,None,430,231.0,199.0,58,1,1862.5,225580.89999985695,7226,plum,NF,C,223025,223025,221395,222308,221396,223258,222825,222825,223257,10
11,test,1,con,1,z,Fri Oct 10 2025 13:01:47 GMT-0500 (Central Daylight Time),229509.69999980927,plum,1100,I,z,z,None,403,204.0,199.0,60,1,2045.8999998569489,227463.79999995232,7226,plum,NF,C,225108,225108,223278,224391,223279,225324,224908,224908,225324,11
12,test,1,inc,1,m,Fri Oct 10 2025 13:01:47 GMT-0500 (Central Daylight Time),231425.89999985695,orange,1000,I,m,m,None,357,158.0,199.0,79,1,1896.7000000476837,229529.19999980927,7226,copper,NF,C,227074,227074,225343,226357,225344,227240,226874,226874,227240,12
13,test,1,inc,1,z,Fri Oct 10 2025 13:01:47 GMT-0500 (Central Daylight Time),233591.79999995232,cobalt,1100,I,z,z,None,509,310.0,199.0,24,1,2148.0,231443.79999995232,7226,orange,NF,C,229090,229090,227258,228373,227259,229406,228890,228890,229406,13
14,test,1,con,1,m,Fri Oct 10 2025 13:01:47 GMT-0500 (Central Daylight Time),235507.59999990463,lead,1000,I,m,m,None,363,164.0,199.0,123,1,1895.2999999523163,233612.29999995232,7226,lead,NF,C,231156,231156,229426,230439,229428,231322,230956,230956,231322,14
15,test,1,con,1,m,Fri Oct 10 2025 13:01:47 GMT-0500 (Central Daylight Time),237273.79999995232,gold,900,I,m,m,None,299,100.0,199.0,98,1,1745.2999999523163,235528.5,7226,gold,NF,C,232972,232972,231343,232255,231344,233088,232772,232772,233088,15
15,test,1,inc,0,z,Fri Oct 10 2025 13:01:47 GMT-0500 (Central Daylight Time),239273.19999980927,lead,1100,I,m,m,None,333,134.0,199.0,40,1,1981.5,237291.69999980927,7226,lime,NF,C,234938,234938,233106,234221,233106,235087,234738,234738,235087,16
16,test,1,inc,1,m,Fri Oct 10 2025 13:01:47 GMT-0500 (Central Daylight Time),241039.19999980927,lime,800,I,m,m,None,402,202.0,200.0,117,1,1747.5,239291.69999980927,7226,zinc,NF,C,236637,236638,235106,235921,235107,236853,236437,236437,236853,17
17,test,1,inc,1,m,Fri Oct 10 2025 13:01:47 GMT-0500 (Central Daylight Time),243105.09999990463,plum,1100,I,m,m,None,408,208.0,200.0,120,1,2047.0,241058.09999990463,7226,zinc,NF,C,238703,238704,236872,237987,236873,238919,238503,238503,238919,18
18,test,1,inc,1,m,Fri Oct 10 2025 13:01:47 GMT-0500 (Central Daylight Time),245154.69999980927,orange,1000,I,m,m,None,491,291.0,200.0,95,1,2029.1999998092651,243125.5,7226,cobalt,NF,C,240669,240669,238940,239953,238941,240969,240469,240469,240969,19
18,test,1,inc,0,m,Fri Oct 10 2025 13:01:47 GMT-0500 (Central Daylight Time),247170.69999980927,raisin,1100,I,z,z,None,349,149.0,200.0,96,1,1995.8999998569489,245174.79999995232,7226,cobalt,NF,C,242819,242819,240989,242102,240990,242985,242618,242618,242985,20
19,test,1,con,1,z,Fri Oct 10 2025 13:01:47 GMT-0500 (Central Daylight Time),248986.69999980927,banana,900,I,z,z,None,348,149.0,199.0,2,1,1795.3999998569489,247191.29999995232,7226,banana,NF,C,244635,244635,243005,243918,243006,244801,244435,244435,244801,21
20,test,1,inc,1,m,Fri Oct 10 2025 13:01:47 GMT-0500 (Central Daylight Time),250802.89999985695,cherry,900,I,m,m,None,364,165.0,199.0,70,1,1797.0999999046326,249005.79999995232,7226,bronze,NF,C,246451,246451,244820,245734,244821,246617,246251,246251,246617,22
21,test,1,inc,1,z,Fri Oct 10 2025 13:01:47 GMT-0500 (Central Daylight Time),252568.79999995232,bronze,800,I,z,z,None,408,209.0,199.0,5,1,1746.9000000953674,250821.89999985695,7226,banana,NF,C,248167,248167,246636,247450,246637,248383,247967,247967,248383,23
22,test,1,inc,1,z,Fri Oct 10 2025 13:01:47 GMT-0500 (Central Daylight Time),254284.79999995232,bronze,800,I,z,z,None,362,163.0,199.0,29,1,1696.1000001430511,252588.69999980927,7226,raisin,NF,C,249933,249933,248403,249217,248404,250099,249733,249733,250099,24
22,test,1,inc,0,z,Fri Oct 10 2025 13:01:47 GMT-0500 (Central Daylight Time),256284.29999995232,cobalt,1100,I,m,m,None,338,139.0,199.0,16,1,1980.7999999523163,254303.5,7226,cherry,NF,C,251949,251949,250118,251233,250118,252098,251749,251749,252098,25
23,test,1,con,1,m,Fri Oct 10 2025 13:01:47 GMT-0500 (Central Daylight Time),258283.79999995232,gold,1100,I,m,m,None,340,140.0,200.0,100,1,1979.5,256304.29999995232,7226,gold,NF,C,253948,253948,252118,253231,252119,254098,253747,253747,254098,26
24,test,1,inc,1,z,Fri Oct 10 2025 13:01:47 GMT-0500 (Central Daylight Time),260183.09999990463,silver,1000,I,z,z,None,335,136.0,199.0,23,1,1880.5,258302.59999990463,7226,orange,NF,C,255848,255848,254117,255130,254118,255997,255648,255648,255997,27
25,test,1,inc,1,m,Fri Oct 10 2025 13:01:47 GMT-0500 (Central Daylight Time),261899.0,banana,800,I,m,m,None,364,165.0,199.0,77,1,1696.4000000953674,260202.59999990463,7226,copper,NF,C,257547,257547,256017,256831,256018,257713,257347,257347,257713,28
26,test,1,inc,1,z,Fri Oct 10 2025 13:01:47 GMT-0500 (Central Daylight Time),263781.5,copper,900,I,z,z,None,421,221.0,200.0,30,1,1862.2000000476837,261919.29999995232,7226,raisin,NF,C,259363,259363,257733,258647,257735,259596,259163,259163,259596,29
27,test,1,con,1,z,Fri Oct 10 2025 13:01:47 GMT-0500 (Central Daylight Time),265464.39999985695,plum,800,I,z,z,None,343,143.0,200.0,57,1,1671.2999999523163,263793.09999990463,7226,plum,NF,C,261129,261129,259607,260413,259608,261278,260929,260929,261278,30
27,test,1,con,0,z,Fri Oct 10 2025 13:01:47 GMT-0500 (Central Daylight Time),267229.7999999523,kiwi,900,I,m,m,None,310,94.0,216.0,50,1,1744.9000000953674,265484.89999985695,7226,kiwi,NF,C,262945,262945,261299,262212,261300,263044,262729,262729,263044,31
28,test,1,con,1,m,Fri Oct 10 2025 13:01:47 GMT-0500 (Central Daylight Time),269113.5,gold,1000,I,m,m,None,334,135.0,199.0,99,1,1878.7000000476837,267234.7999999523,7226,gold,NF,C,264777,264777,263049,264061,263049,264928,264578,264578,264927,32
29,test,1,inc,1,m,Fri Oct 10 2025 13:01:47 GMT-0500 (Central Daylight Time),270929.5,cherry,900,I,m,m,None,374,175.0,199.0,94,1,1802.3000001907349,269127.19999980927,7226,cobalt,NF,C,266561,266561,264941,265843,264942,266744,266361,266361,266744,33
30,test,1,con,1,z,Fri Oct 10 2025 13:01:47 GMT-0500 (Central Daylight Time),272795.59999990463,pear,900,I,z,z,None,406,191.0,215.0,42,1,1847.4000000953674,270948.19999980927,7226,pear,NF,C,268409,268409,266762,267677,266763,268610,268194,268194,268610,34
30,test,1,con,0,z,Fri Oct 10 2025 13:01:47 GMT-0500 (Central Daylight Time),274761.5,lime,1000,I,m,m,None,400,200.0,200.0,35,1,1947.6000001430511,272813.89999985695,7226,lime,NF,C,270360,270360,268628,269643,268629,270576,270159,270159,270576,35
30,test,1,inc,0,z,Fri Oct 10 2025 13:01:47 GMT-0500 (Central Daylight Time),276427.19999980927,bronze,800,I,m,m,None,313,114.0,199.0,13,1,1646.0,274781.19999980927,7226,cherry,NF,C,272126,272126,270595,271409,270596,272241,271926,271926,272241,36
31,test,1,con,1,z,Fri Oct 10 2025 13:01:47 GMT-0500 (Central Daylight Time),278410.2999999523,pear,1100,I,z,z,None,315,116.0,199.0,44,1,1964.0,276446.2999999523,7226,pear,NF,C,274092,274092,272260,273375,272261,274224,273892,273892,274224,37
31,test,1,con,0,m,Fri Oct 10 2025 13:01:47 GMT-0500 (Central Daylight Time),280442.89999985695,copper,1100,I,z,z,None,381,181.0,200.0,76,1,2012.8999998569489,278430.0,7226,copper,NF,C,276074,276075,274244,275358,274245,276257,275874,275874,276257,38
31,test,1,inc,0,z,Fri Oct 10 2025 13:01:47 GMT-0500 (Central Daylight Time),282392.39999985695,zinc,1000,I,m,m,None,392,193.0,199.0,55,1,1930.3999998569489,280462.0,7226,kiwi,NF,C,278007,278007,276276,277291,276277,278206,277807,277807,278206,39
31,test,1,inc,0,m,Fri Oct 10 2025 13:01:47 GMT-0500 (Central Daylight Time),284108.39999985695,banana,800,I,z,z,None,363,163.0,200.0,69,1,1697.0999999046326,282411.2999999523,7226,bronze,NF,C,279757,279757,278225,279040,278226,279923,279556,279556,279922,40
32,test,1,con,1,m,Fri Oct 10 2025 13:01:47 GMT-0500 (Central Daylight Time),285941.19999980927,zinc,900,I,m,m,None,370,171.0,199.0,114,1,1812.5999999046326,284128.59999990463,7226,zinc,NF,C,281573,281573,279943,280856,279944,281755,281372,281373,281755,41
33,test,1,con,1,m,Fri Oct 10 2025 13:01:47 GMT-0500 (Central Daylight Time),287990.69999980927,bronze,1100,I,m,m,None,395,195.0,200.0,68,1,2029.5999999046326,285961.09999990463,7226,bronze,NF,C,283605,283605,281775,282889,281776,283805,283405,283405,283805,42
34,test,1,con,1,m,Fri Oct 10 2025 13:01:47 GMT-0500 (Central Daylight Time),289990.0,lead,1100,I,m,m,None,336,137.0,199.0,124,1,1978.8000001907349,288011.19999980927,7226,lead,NF,C,285655,285655,283825,284938,283826,285804,285455,285455,285804,43
34,test,1,inc,0,m,Fri Oct 10 2025 13:01:47 GMT-0500 (Central Daylight Time),291772.7999999523,cherry,900,I,z,z,None,329,130.0,199.0,86,1,1763.9000000953674,290008.89999985695,7226,silver,NF,C,287454,287454,285823,286737,285824,287587,287254,287254,287587,44
35,test,1,con,1,m,Fri Oct 10 2025 13:01:47 GMT-0500 (Central Daylight Time),293638.89999985695,silver,800,I,m,m,None,502,303.0,199.0,81,1,1847.0999999046326,291791.7999999523,7226,silver,NF,C,289137,289137,287606,288420,287607,289453,288937,288937,289453,45
35,test,1,con,0,z,Fri Oct 10 2025 13:01:47 GMT-0500 (Central Daylight Time),295504.59999990463,raisin,900,I,m,m,None,408,209.0,199.0,26,1,1845.5999999046326,293659.0,7226,raisin,NF,C,291103,291103,289473,290386,289474,291319,290903,290903,291319,46
36,test,1,con,1,z,Fri Oct 10 2025 13:01:47 GMT-0500 (Central Daylight Time),297387.39999985695,cherry,1000,I,z,z,None,322,123.0,199.0,11,1,1864.7999999523163,295522.59999990463,7226,cherry,NF,C,293069,293069,291337,292352,291337,293202,292869,292869,293201,47
37,test,1,inc,1,z,Fri Oct 10 2025 13:01:47 GMT-0500 (Central Daylight Time),299419.19999980927,copper,900,I,z,z,None,581,381.0,200.0,22,1,2010.8999998569489,297408.2999999523,7226,orange,NF,C,294850,294850,293222,294135,293223,295233,294650,294650,295233,48
38,test,1,con,1,m,Fri Oct 10 2025 13:01:47 GMT-0500 (Central Daylight Time),301152.89999985695,zinc,800,I,m,m,None,391,192.0,199.0,113,1,1728.0999999046326,299424.7999999523,7226,zinc,NF,C,296768,296768,295239,296050,295239,296967,296568,296568,296967,49
38,test,1,inc,0,m,Fri Oct 10 2025 13:01:47 GMT-0500 (Central Daylight Time),303085.7999999523,kiwi,1000,I,z,z,None,370,171.0,199.0,103,1,1912.6000001430511,301173.19999980927,7226,gold,NF,C,298717,298717,296987,298000,296988,298900,298517,298517,298900,50
39,test,1,con,1,m,Fri Oct 10 2025 13:01:47 GMT-0500 (Central Daylight Time),304768.39999985695,copper,800,I,m,m,None,325,126.0,199.0,73,1,1662.5999999046326,303105.7999999523,7226,copper,NF,C,300450,300450,298920,299733,298921,300583,300250,300250,300582,51
39,test,1,con,0,z,Fri Oct 10 2025 13:01:47 GMT-0500 (Central Daylight Time),306767.69999980927,cherry,1100,I,m,m,None,345,145.0,200.0,12,1,1979.0999999046326,304788.59999990463,7226,cherry,NF,C,302432,302432,300603,301716,300604,302582,302232,302232,302582,52
40,test,1,con,1,z,Fri Oct 10 2025 13:01:47 GMT-0500 (Central Daylight Time),308783.89999985695,banana,1100,I,z,z,None,359,160.0,199.0,4,1,1996.3999998569489,306787.5,7226,banana,NF,C,304432,304432,302602,303715,302603,304598,304232,304232,304598,53
41,test,1,con,1,m,Fri Oct 10 2025 13:01:47 GMT-0500 (Central Daylight Time),310832.89999985695,silver,1000,I,m,m,None,483,284.0,199.0,83,1,2030.3999998569489,308802.5,7226,silver,NF,C,306348,306348,304616,305631,304618,306647,306148,306148,306647,54
42,test,1,con,1,m,Fri Oct 10 2025 13:01:47 GMT-0500 (Central Daylight Time),312848.69999980927,iron,1100,I,m,m,None,358,159.0,199.0,108,1,1996.5999999046326,310852.09999990463,7226,iron,NF,C,308497,308497,306666,307781,306667,308663,308297,308297,308663,55
43,test,1,con,1,m,Fri Oct 10 2025 13:01:47 GMT-0500 (Central Daylight Time),314631.89999985695,silver,900,I,m,m,None,343,143.0,200.0,82,1,1772.5999999046326,312859.2999999523,7226,silver,NF,C,310297,310297,308673,309580,308674,310446,310096,310096,310446,56
44,test,1,con,1,m,Fri Oct 10 2025 13:01:47 GMT-0500 (Central Daylight Time),316648.0,cobalt,1100,I,m,m,None,351,152.0,199.0,92,1,1996.0,314652.0,7226,cobalt,NF,C,312296,312296,310466,311579,310467,312462,312096,312096,312462,57
45,test,1,con,1,z,Fri Oct 10 2025 13:01:47 GMT-0500 (Central Daylight Time),318680.0,orange,1100,I,z,z,None,374,175.0,199.0,20,1,2010.6000001430511,316669.39999985695,7226,orange,NF,C,314312,314312,312483,313595,312484,314494,314112,314112,314494,58
46,test,1,inc,1,m,Fri Oct 10 2025 13:01:47 GMT-0500 (Central Daylight Time),320730.09999990463,raisin,1100,I,m,m,None,382,183.0,199.0,80,1,2031.5999999046326,318698.5,7226,copper,NF,C,316345,316345,314512,315627,314514,316544,316145,316145,316544,59
47,test,1,inc,1,z,Fri Oct 10 2025 13:01:47 GMT-0500 (Central Daylight Time),322729.09999990463,zinc,1000,I,z,z,None,441,242.0,199.0,39,1,1979.2999999523163,320749.7999999523,7226,lime,NF,C,318294,318294,316564,317577,316565,318543,318094,318094,318543,60
48,test,1,inc,1,z,Fri Oct 10 2025 13:01:47 GMT-0500 (Central Daylight Time),324528.2999999523,gold,800,I,z,z,None,443,243.0,200.0,61,1,1780.4000000953674,322747.89999985695,7226,plum,NF,C,320093,320093,318562,319377,318563,320343,319893,319893,320342,61
49,test,1,inc,1,z,Fri Oct 10 2025 13:01:47 GMT-0500 (Central Daylight Time),326344.2999999523,gold,800,I,z,z,None,458,259.0,199.0,37,1,1796.4000000953674,324547.89999985695,7226,lime,NF,C,321893,321893,320362,321176,320363,322158,321693,321693,322158,62
50,test,1,con,1,z,Fri Oct 10 2025 13:01:47 GMT-0500 (Central Daylight Time),328294.0,plum,1000,I,z,z,None,395,195.0,200.0,59,1,1931.3000001907349,326362.69999980927,7226,plum,NF,C,323909,323909,322177,323192,322177,324108,323708,323708,324108,63
51,test,1,con,1,z,Fri Oct 10 2025 13:01:47 GMT-0500 (Central Daylight Time),330275.89999985695,pear,1000,I,z,z,None,430,230.0,200.0,43,1,1962.7999999523163,328313.09999990463,7226,pear,NF,C,325857,325857,324127,325140,324128,326090,325657,325657,326090,64
52,test,1,inc,1,z,Fri Oct 10 2025 13:01:47 GMT-0500 (Central Daylight Time),332125.5,iron,900,I,z,z,None,412,212.0,200.0,38,1,1844.4000000953674,330281.09999990463,7226,lime,NF,C,327723,327723,326095,327007,326096,327940,327523,327523,327939,65
53,test,1,con,1,m,Fri Oct 10 2025 13:01:47 GMT-0500 (Central Daylight Time),334158.0,zinc,1100,I,m,m,None,395,195.0,200.0,116,1,2025.2000000476837,332132.7999999523,7226,zinc,NF,C,329772,329772,327947,329056,327947,329972,329572,329572,329972,66
54,test,1,inc,1,m,Fri Oct 10 2025 13:01:47 GMT-0500 (Central Daylight Time),336140.5,plum,1100,I,m,m,None,346,146.0,200.0,104,1,1977.3000001907349,334163.19999980927,7226,gold,NF,C,331805,331805,329977,331089,329978,331955,331605,331605,331955,67
55,test,1,con,1,m,Fri Oct 10 2025 13:01:47 GMT-0500 (Central Daylight Time),338023.2999999523,cobalt,900,I,m,m,None,434,235.0,199.0,90,1,1875.2000000476837,336148.09999990463,7226,cobalt,NF,C,333588,333588,331962,332871,331963,333837,333388,333388,333837,68
55,test,1,inc,0,m,Fri Oct 10 2025 13:01:47 GMT-0500 (Central Daylight Time),339856.89999985695,cherry,900,I,z,z,None,393,193.0,200.0,78,1,1827.5999999046326,338029.2999999523,7226,copper,NF,C,335471,335471,333843,334755,333844,335671,335271,335271,335671,69
55,test,1,con,0,m,Fri Oct 10 2025 13:01:47 GMT-0500 (Central Daylight Time),341623.09999990463,cobalt,800,I,z,z,None,402,203.0,199.0,89,1,1746.2999999523163,339876.7999999523,7226,cobalt,NF,C,337221,337221,335691,336504,335692,337437,337021,337021,337437,70
56,test,1,inc,1,z,Fri Oct 10 2025 13:01:47 GMT-0500 (Central Daylight Time),343589.0,zinc,1000,I,z,z,None,412,213.0,199.0,63,1,1946.7000000476837,341642.2999999523,7226,plum,NF,C,339187,339187,337456,338470,337457,339403,338987,338987,339403,71
56,test,1,inc,0,z,Fri Oct 10 2025 13:01:47 GMT-0500 (Central Daylight Time),345455.0,silver,1000,I,m,m,None,302,103.0,199.0,7,1,1847.4000000953674,343607.59999990463,7226,banana,NF,C,341153,341153,339422,340436,339423,341269,340953,340953,341269,72
57,test,1,con,1,z,Fri Oct 10 2025 13:01:47 GMT-0500 (Central Daylight Time),347454.5,raisin,1100,I,z,z,None,340,141.0,199.0,28,1,1979.7000000476837,345474.7999999523,7226,raisin,NF,C,343119,343119,341289,342402,341290,343269,342919,342919,343269,73
58,test,1,inc,1,z,Fri Oct 10 2025 13:01:47 GMT-0500 (Central Daylight Time),349520.39999985695,lead,1100,I,z,z,None,410,210.0,200.0,56,1,2045.5,347474.89999985695,7226,kiwi,NF,C,345118,345118,343289,344402,343290,345334,344918,344918,345334,74
59,test,1,inc,1,m,Fri Oct 10 2025 13:01:47 GMT-0500 (Central Daylight Time),351419.59999990463,pear,900,I,m,m,None,448,248.0,200.0,102,1,1879.2000000476837,349540.39999985695,7226,gold,NF,C,346984,346984,345354,346268,345355,347234,346784,346784,347234,75
60,test,1,inc,1,z,Fri Oct 10 2025 13:01:47 GMT-0500 (Central Daylight Time),353169.2999999523,gold,800,I,z,z,None,384,185.0,199.0,53,1,1729.2000000476837,351440.09999990463,7226,kiwi,NF,C,348784,348784,347254,348067,347255,348983,348584,348584,348983,76
60,test,1,inc,0,m,Fri Oct 10 2025 13:01:47 GMT-0500 (Central Daylight Time),355168.39999985695,orange,1000,I,z,z,None,442,243.0,199.0,87,1,1979.3999998569489,353189.0,7226,silver,NF,C,350733,350733,349003,350017,349004,350983,350533,350533,350982,77
61,test,1,inc,1,z,Fri Oct 10 2025 13:01:47 GMT-0500 (Central Daylight Time),357034.89999985695,bronze,800,I,z,z,None,514,315.0,199.0,21,1,1846.8999998569489,355188.0,7226,orange,NF,C,352533,352533,351002,351816,351003,352849,352332,352333,352849,78
62,test,1,con,1,z,Fri Oct 10 2025 13:01:47 GMT-0500 (Central Daylight Time),359099.7999999523,kiwi,1100,I,z,z,None,413,214.0,199.0,52,1,2047.2000000476837,357052.59999990463,7226,kiwi,NF,C,354698,354698,352867,353982,352867,354914,354499,354499,354914,79
63,test,1,con,1,m,Fri Oct 10 2025 13:01:47 GMT-0500 (Central Daylight Time),361000.0,copper,1000,I,m,m,None,359,160.0,199.0,75,1,1888.8000001907349,359111.19999980927,7226,copper,NF,C,356648,356648,354925,355931,354926,356814,356448,356448,356814,80
64,test,1,inc,1,m,Fri Oct 10 2025 13:01:47 GMT-0500 (Central Daylight Time),362915.7999999523,pear,900,I,m,m,None,463,264.0,199.0,126,1,1899.4000000953674,361016.39999985695,7226,lead,NF,C,358463,358464,356830,357747,356831,358730,358264,358264,358730,81
65,test,1,con,1,m,Fri Oct 10 2025 13:01:47 GMT-0500 (Central Daylight Time),364648.7999999523,gold,800,I,m,m,None,367,168.0,199.0,97,1,1714.2999999523163,362934.5,7226,gold,NF,C,360280,360280,358749,359563,358750,360463,360080,360080,360463,82
66,test,1,inc,1,m,Fri Oct 10 2025 13:01:47 GMT-0500 (Central Daylight Time),366630.69999980927,kiwi,1000,I,m,m,None,418,219.0,199.0,119,1,1963.1999998092651,364667.5,7226,zinc,NF,C,362212,362212,360481,361496,360483,362445,362012,362012,362445,83
67,test,1,con,1,m,Fri Oct 10 2025 13:01:47 GMT-0500 (Central Daylight Time),368546.59999990463,bronze,1000,I,m,m,None,372,173.0,199.0,67,1,1910.5999999046326,366636.0,7226,bronze,NF,C,364178,364178,362450,363461,362450,364361,363978,363978,364361,84
68,test,1,con,1,z,Fri Oct 10 2025 13:01:47 GMT-0500 (Central Daylight Time),370513.59999990463,lime,900,I,z,z,None,516,317.0,199.0,34,1,1961.2999999523163,368552.2999999523,7226,lime,NF,C,365995,365995,364366,365278,364367,366328,365795,365795,366328,85
69,test,1,inc,1,m,Fri Oct 10 2025 13:01:47 GMT-0500 (Central Daylight Time),372296.2999999523,lime,800,I,m,m,None,417,218.0,199.0,109,1,1762.7000000476837,370533.59999990463,7226,iron,NF,C,367878,367878,366348,367161,366349,368110,367678,367678,368110,86
70,test,1,con,1,m,Fri Oct 10 2025 13:01:47 GMT-0500 (Central Daylight Time),374079.09999990463,iron,900,I,m,m,None,320,120.0,200.0,106,1,1764.2000000476837,372314.89999985695,7226,iron,NF,C,369760,369760,368129,369044,368130,369893,369560,369560,369893,87
70,test,1,inc,0,m,Fri Oct 10 2025 13:01:47 GMT-0500 (Central Daylight Time),375795.2999999523,banana,800,I,z,z,None,365,166.0,199.0,93,1,1696.2999999523163,374099.0,7226,cobalt,NF,C,371443,371443,369913,370726,369914,371609,371243,371243,371609,88
71,test,1,con,1,z,Fri Oct 10 2025 13:01:47 GMT-0500 (Central Daylight Time),377877.69999980927,raisin,1000,I,z,z,None,520,321.0,199.0,27,1,2062.7999999523163,375814.89999985695,7226,raisin,NF,C,373359,373359,371629,372642,371630,373692,373159,373159,373692,89
72,test,1,inc,1,m,Fri Oct 10 2025 13:01:47 GMT-0500 (Central Daylight Time),379843.7999999523,kiwi,1000,I,m,m,None,406,206.0,200.0,127,1,1946.0,377897.7999999523,7226,lead,NF,C,375442,375442,373712,374725,373713,375658,375241,375241,375658,90
73,test,1,con,1,m,Fri Oct 10 2025 13:01:47 GMT-0500 (Central Daylight Time),381743.2999999523,zinc,1000,I,m,m,None,343,144.0,199.0,115,1,1879.7000000476837,379863.59999990463,7226,zinc,NF,C,377408,377408,375678,376691,375679,377557,377208,377208,377557,91
74,test,1,con,1,z,Fri Oct 10 2025 13:01:47 GMT-0500 (Central Daylight Time),383725.89999985695,kiwi,1000,I,z,z,None,429,229.0,200.0,51,1,1963.0,381762.89999985695,7226,kiwi,NF,C,379307,379307,377577,378591,377578,379540,379107,379107,379540,92
75,test,1,inc,1,m,Fri Oct 10 2025 13:01:47 GMT-0500 (Central Daylight Time),385458.5,lime,800,I,m,m,None,373,174.0,199.0,125,1,1713.9000000953674,383744.59999990463,7226,lead,NF,C,381090,381090,379559,380373,379560,381273,380890,380890,381272,93
75,test,1,con,0,m,Fri Oct 10 2025 13:01:47 GMT-0500 (Central Daylight Time),387274.7999999523,bronze,900,I,z,z,None,358,158.0,200.0,66,1,1796.7000000476837,385478.09999990463,7226,bronze,NF,C,382922,382923,381292,382206,381293,383089,382722,382722,383089,94
76,test,1,con,1,z,Fri Oct 10 2025 13:01:47 GMT-0500 (Central Daylight Time),389107.0,orange,900,I,z,z,None,380,181.0,199.0,18,1,1814.5,387292.5,7226,orange,NF,C,384739,384739,383107,384022,383107,384921,384539,384539,384921,95
77,test,1,con,1,z,Fri Oct 10 2025 13:01:47 GMT-0500 (Central Daylight Time),391040.09999990463,banana,1000,I,z,z,None,369,169.0,200.0,3,1,1914.4000000953674,389125.69999980927,7226,banana,NF,C,386671,386671,384940,385954,384940,386854,386471,386471,386854,96
77,test,1,inc,0,z,Fri Oct 10 2025 13:01:47 GMT-0500 (Central Daylight Time),392839.2999999523,copper,900,I,m,m,None,343,144.0,199.0,14,1,1779.1000001430511,391060.19999980927,7226,cherry,NF,C,388504,388504,386874,387787,386875,388653,388304,388304,388653,97
78,test,1,inc,1,z,Fri Oct 10 2025 13:01:47 GMT-0500 (Central Daylight Time),394772.0,copper,900,I,z,z,None,481,280.0,201.0,6,1,1913.8000001907349,392858.19999980927,7226,banana,NF,C,390304,390304,388672,389587,388673,390586,390102,390102,390586,98
79,test,1,inc,1,z,Fri Oct 10 2025 13:01:47 GMT-0500 (Central Daylight Time),396838.19999980927,lead,1100,I,z,z,None,403,204.0,199.0,64,1,2047.8999998569489,394790.2999999523,7226,plum,NF,C,392436,392436,390604,391720,390605,392652,392236,392236,392652,99
80,test,1,inc,1,m,Fri Oct 10 2025 13:01:47 GMT-0500 (Central Daylight Time),399003.59999990463,plum,1100,I,m,m,None,514,315.0,199.0,112,1,2145.0999999046326,396858.5,7226,iron,NF,C,394502,394502,392673,393786,392673,394818,394302,394302,394818,100
80,test,1,con,0,m,Fri Oct 10 2025 13:01:47 GMT-0500 (Central Daylight Time),400720.39999985695,iron,800,I,z,z,None,360,160.0,200.0,105,1,1698.7999999523163,399021.59999990463,7226,iron,NF,C,396368,396368,394836,395652,394836,396535,396168,396168,396534,101
81,test,1,con,1,z,Fri Oct 10 2025 13:01:47 GMT-0500 (Central Daylight Time),402436.19999980927,pear,800,I,z,z,None,356,157.0,199.0,41,1,1696.3999998569489,400739.7999999523,7226,pear,NF,C,398083,398083,396554,397368,396555,398250,397884,397884,398250,102
82,test,1,inc,1,z,Fri Oct 10 2025 13:01:47 GMT-0500 (Central Daylight Time),404335.59999990463,zinc,1000,I,z,z,None,336,136.0,200.0,47,1,1881.0999999046326,402454.5,7226,pear,NF,C,400000,400000,398269,399284,398269,400150,399800,399800,400150,103
83,test,1,con,1,m,Fri Oct 10 2025 13:01:47 GMT-0500 (Central Daylight Time),406185.09999990463,bronze,800,I,m,m,None,492,292.0,200.0,65,1,1829.5,404355.59999990463,7226,bronze,NF,C,401700,401700,400170,400983,400171,401999,401499,401499,401999,104
84,test,1,con,1,m,Fri Oct 10 2025 13:01:47 GMT-0500 (Central Daylight Time),408051.0,iron,1000,I,m,m,None,315,115.0,200.0,107,1,1847.0,406204.0,7226,iron,NF,C,403749,403749,402018,403033,402019,403865,403549,403549,403865,105
85,test,1,con,1,z,Fri Oct 10 2025 13:01:47 GMT-0500 (Central Daylight Time),409850.89999985695,orange,800,I,z,z,None,449,249.0,200.0,17,1,1781.5999999046326,408069.2999999523,7226,orange,NF,C,405415,405415,403883,404699,403884,405665,405215,405215,405665,106
86,test,1,inc,1,z,Fri Oct 10 2025 13:01:47 GMT-0500 (Central Daylight Time),411650.09999990463,iron,900,I,z,z,None,341,142.0,199.0,46,1,1780.5,409869.59999990463,7226,pear,NF,C,407314,407314,405684,406598,405685,407464,407115,407115,407464,107
87,test,1,inc,1,z,Fri Oct 10 2025 13:01:47 GMT-0500 (Central Daylight Time),413649.2999999523,lead,1100,I,z,z,None,348,134.0,214.0,48,1,1979.9000000953674,411669.39999985695,7226,pear,NF,C,409314,409314,407483,408597,407484,409463,409099,409099,409463,108
87,test,1,con,0,z,Fri Oct 10 2025 13:01:47 GMT-0500 (Central Daylight Time),415715.09999990463,lime,1100,I,m,m,None,414,214.0,200.0,36,1,2047.4000000953674,413667.69999980927,7226,lime,NF,C,411313,411314,409482,410597,409483,411529,411113,411113,411529,109
88,test,1,con,1,z,Fri Oct 10 2025 13:01:47 GMT-0500 (Central Daylight Time),417481.39999985695,raisin,800,I,z,z,None,409,210.0,199.0,25,1,1749.2000000476837,415732.19999980927,7226,raisin,NF,C,413078,413078,411546,412363,411547,413296,412879,412879,413295,110
89,test,1,con,1,m,Fri Oct 10 2025 13:01:47 GMT-0500 (Central Daylight Time),419230.89999985695,lead,900,I,m,m,None,295,95.0,200.0,122,1,1730.7000000476837,417500.19999980927,7226,lead,NF,C,414945,414945,413314,414229,413315,415045,414745,414745,415045,111
90,test,1,inc,1,z,Fri Oct 10 2025 13:01:47 GMT-0500 (Central Daylight Time),421080.39999985695,iron,900,I,z,z,None,385,170.0,215.0,54,1,1829.7999999523163,419250.59999990463,7226,kiwi,NF,C,416710,416710,415065,415978,415066,416895,416495,416495,416894,112
91,test,1,inc,1,m,Fri Oct 10 2025 13:01:47 GMT-0500 (Central Daylight Time),422996.09999990463,kiwi,1000,I,m,m,None,364,164.0,200.0,111,1,1896.2999999523163,421099.7999999523,7226,iron,NF,C,418644,418644,416914,417928,416915,418810,418444,418444,418810,113
92,test,1,inc,1,z,Fri Oct 10 2025 13:01:47 GMT-0500 (Central Daylight Time),424912.5,silver,1000,I,z,z,None,351,151.0,200.0,31,1,1897.1000001430511,423015.39999985695,7226,raisin,NF,C,420560,420561,418829,419844,418830,420727,420360,420360,420726,114
92,test,1,inc,0,m,Fri Oct 10 2025 13:01:47 GMT-0500 (Central Daylight Time),426628.2999999523,lime,800,I,z,z,None,355,155.0,200.0,101,1,1696.6000001430511,424931.69999980927,7226,gold,NF,C,422276,422277,420746,421560,420747,422442,422076,422076,422442,115
93,test,1,inc,1,z,Fri Oct 10 2025 13:01:47 GMT-0500 (Central Daylight Time),428777.7999999523,silver,1000,I,z,z,None,592,392.0,200.0,15,1,2131.0,426646.7999999523,7226,cherry,NF,C,424192,424192,422461,423476,422462,424592,423992,423992,424592,116
94,test,1,inc,1,m,Fri Oct 10 2025 13:01:47 GMT-0500 (Central Daylight Time),430577.09999990463,pear,900,I,m,m,None,333,134.0,199.0,118,1,1780.9000000953674,428796.19999980927,7226,zinc,NF,C,426242,426242,424610,425525,424611,426391,426042,426042,426391,117
95,test,1,con,1,z,Fri Oct 10 2025 13:01:47 GMT-0500 (Central Daylight Time),432443.09999990463,lime,800,I,z,z,None,508,308.0,200.0,33,1,1846.7000000476837,430596.39999985695,7226,lime,NF,C,427941,427941,426410,427225,426411,428257,427741,427741,428257,118
96,test,1,con,1,m,Fri Oct 10 2025 13:01:47 GMT-0500 (Central Daylight Time),434242.59999990463,copper,900,I,m,m,None,333,133.0,200.0,74,1,1780.0,432462.59999990463,7226,copper,NF,C,429907,429907,428277,429191,428278,430057,429707,429707,430057,119
97,test,1,inc,1,z,Fri Oct 10 2025 13:01:47 GMT-0500 (Central Daylight Time),436258.39999985695,cobalt,1100,I,z,z,None,358,158.0,200.0,8,1,1995.8999998569489,434262.5,7226,banana,NF,C,431906,431906,430077,431190,430077,432073,431706,431706,432072,120
98,test,1,con,1,m,Fri Oct 10 2025 13:01:47 GMT-0500 (Central Daylight Time),438174.59999990463,cobalt,1000,I,m,m,None,360,161.0,199.0,91,1,1898.2000000476837,436276.39999985695,7226,cobalt,NF,C,433823,433823,432090,433106,432091,433989,433623,433623,433989,121
99,test,1,inc,1,m,Fri Oct 10 2025 13:01:47 GMT-0500 (Central Daylight Time),440057.39999985695,orange,1000,I,m,m,None,316,117.0,199.0,71,1,1863.5999999046326,438193.7999999523,7226,bronze,NF,C,435739,435739,434008,435022,434009,435872,435539,435539,435871,122
100,test,1,inc,1,z,Fri Oct 10 2025 13:01:47 GMT-0500 (Central Daylight Time),441790.19999980927,gold,800,I,z,z,None,371,171.0,200.0,45,1,1712.2999999523163,440077.89999985695,7226,pear,NF,C,437421,437421,435892,436705,435893,437604,437221,437221,437604,123
101,test,1,con,1,z,Fri Oct 10 2025 13:01:47 GMT-0500 (Central Daylight Time),443473.0,cherry,800,I,z,z,None,320,119.0,201.0,9,1,1663.3000001907349,441809.69999980927,7226,cherry,NF,C,439154,439154,437624,438437,437625,439287,438953,438953,439287,124
102,test,1,inc,1,m,Fri Oct 10 2025 13:01:47 GMT-0500 (Central Daylight Time),445488.59999990463,raisin,1100,I,m,m,None,350,151.0,199.0,72,1,1996.5,443492.09999990463,7226,bronze,NF,C,441137,441137,439306,440420,439307,441303,440937,440937,441303,125
103,test,1,con,1,m,Fri Oct 10 2025 13:01:47 GMT-0500 (Central Daylight Time),447471.7999999523,silver,1100,I,m,m,None,318,119.0,199.0,84,1,1963.9000000953674,445507.89999985695,7226,silver,NF,C,443153,443153,441322,442436,441323,443286,442953,442953,443286,126
103,test,1,inc,0,m,Fri Oct 10 2025 13:01:47 GMT-0500 (Central Daylight Time),449221.19999980927,pear,900,I,z,z,None,288,88.0,200.0,110,1,1730.7999999523163,447490.39999985695,7226,iron,NF,C,444936,444936,443304,444219,443305,445035,444735,444735,445035,127
103,test,1,inc,0,m,Fri Oct 10 2025 13:01:47 GMT-0500 (Central Daylight Time),450986.89999985695,banana,800,I,z,z,None,432,232.0,200.0,85,1,1746.3999998569489,449240.5,7226,silver,NF,C,446568,446568,445055,445867,445056,446801,446368,446368,446801,128
