Number,acc_sum,block,block_c,block_cond,con_img,correct,correct_response,datetime,endtime,jitter,project,response,response_time,row_sel,session_number,start_end,starttime,subject_id,task,task_vers,trial
9,1,prac,1,A,circle.png,1,m,Mon Aug 05 2024 14:06:06 GMT-0500 (Central Daylight Time),100363.80000001192,1500,O,m,721,8,1,3008.5,97355.30000001192,7006,NTS,B,1
2,2,prac,1,A,circle.png,1,z,Mon Aug 05 2024 14:06:06 GMT-0500 (Central Daylight Time),103712.40000000596,2000,O,z,557,2,1,3341.5999999940395,100370.80000001192,7006,NTS,B,2
7,3,prac,1,A,circle.png,1,m,Mon Aug 05 2024 14:06:06 GMT-0500 (Central Daylight Time),106728.30000001192,1700,O,m,526,6,1,3010.5999999940395,103717.70000001788,7006,NTS,B,3
7,4,prac,1,A,circle.png,1,m,Mon Aug 05 2024 14:06:06 GMT-0500 (Central Daylight Time),109894.0,1700,O,m,669,6,1,3160.0,106734.0,7006,NTS,B,4
9,5,prac,1,A,circle.png,1,m,Mon Aug 05 2024 14:06:06 GMT-0500 (Central Daylight Time),112743.0,1500,O,m,559,8,1,2843.2999999821186,109899.70000001788,7006,NTS,B,5
4,6,prac,1,A,circle.png,1,z,Mon Aug 05 2024 14:06:06 GMT-0500 (Central Daylight Time),115408.80000001192,1400,O,z,466,4,1,2660.199999988079,112748.60000002384,7006,NTS,B,6
1,7,prac,1,A,circle.png,1,z,Mon Aug 05 2024 14:06:06 GMT-0500 (Central Daylight Time),117791.5,1000,O,z,593,1,1,2377.2999999821186,115414.20000001788,7006,NTS,B,7
6,8,prac,1,A,circle.png,1,m,Mon Aug 05 2024 14:06:06 GMT-0500 (Central Daylight Time),121057.20000001788,1900,O,m,567,5,1,3260.5,117796.70000001788,7006,NTS,B,8
8,9,prac,1,A,circle.png,1,m,Mon Aug 05 2024 14:06:06 GMT-0500 (Central Daylight Time),124056.30000001192,1600,O,m,609,7,1,2993.5,121062.80000001192,7006,NTS,B,9
6,10,prac,1,A,circle.png,1,m,Mon Aug 05 2024 14:06:06 GMT-0500 (Central Daylight Time),127455.10000002384,1900,O,m,701,5,1,3393.7000000178814,124061.40000000596,7006,NTS,B,10
4,11,prac,1,A,circle.png,1,z,Mon Aug 05 2024 14:06:06 GMT-0500 (Central Daylight Time),130237.90000000596,1400,O,z,595,4,1,2777.4000000059605,127460.5,7006,NTS,B,11
3,12,prac,1,A,circle.png,1,z,Mon Aug 05 2024 14:06:06 GMT-0500 (Central Daylight Time),132853.60000002384,1200,O,z,621,3,1,2610.5,130243.10000002384,7006,NTS,B,12
4,1,prac,1,B,triangle.png,1,m,Mon Aug 05 2024 14:06:06 GMT-0500 (Central Daylight Time),173640.60000002384,1500,O,m,926,4,1,3211.100000023842,170429.5,7006,NTS,B,1
8,2,prac,1,B,triangle.png,1,m,Mon Aug 05 2024 14:06:06 GMT-0500 (Central Daylight Time),176406.40000000596,1200,O,m,769,7,1,2760.2999999821186,173646.10000002384,7006,NTS,B,2
3,3,prac,1,B,triangle.png,1,z,Mon Aug 05 2024 14:06:06 GMT-0500 (Central Daylight Time),179505.40000000596,1600,O,z,700,3,1,3093.9000000059605,176411.5,7006,NTS,B,3
7,4,prac,1,B,triangle.png,1,z,Mon Aug 05 2024 14:06:06 GMT-0500 (Central Daylight Time),183254.30000001192,2000,O,z,960,6,1,3743.800000011921,179510.5,7006,NTS,B,4
2,5,prac,1,B,triangle.png,1,m,Mon Aug 05 2024 14:06:06 GMT-0500 (Central Daylight Time),186536.60000002384,1700,O,m,792,2,1,3276.300000011921,183260.30000001192,7006,NTS,B,5
1,6,prac,1,B,triangle.png,1,z,Mon Aug 05 2024 14:06:06 GMT-0500 (Central Daylight Time),189868.70000001788,1900,O,z,646,1,1,3326.9000000059605,186541.80000001192,7006,NTS,B,6
7,7,prac,1,B,triangle.png,1,z,Mon Aug 05 2024 14:06:06 GMT-0500 (Central Daylight Time),193567.30000001192,2000,O,z,909,6,1,3693.5,189873.80000001192,7006,NTS,B,7
6,8,prac,1,B,triangle.png,1,m,Mon Aug 05 2024 14:06:06 GMT-0500 (Central Daylight Time),196067.0,1000,O,m,713,5,1,2494.0999999940395,193572.90000000596,7006,NTS,B,8
1,9,prac,1,B,triangle.png,1,z,Mon Aug 05 2024 14:06:06 GMT-0500 (Central Daylight Time),199249.0,1900,O,z,484,1,1,3177.0999999940395,196071.90000000596,7006,NTS,B,9
9,10,prac,1,B,triangle.png,1,z,Mon Aug 05 2024 14:06:06 GMT-0500 (Central Daylight Time),202098.30000001192,1400,O,z,665,8,1,2843.800000011921,199254.5,7006,NTS,B,10
3,11,prac,1,B,triangle.png,1,z,Mon Aug 05 2024 14:06:06 GMT-0500 (Central Daylight Time),205430.70000001788,1600,O,z,939,3,1,3327.0999999940395,202103.60000002384,7006,NTS,B,11
6,12,prac,1,B,triangle.png,1,m,Mon Aug 05 2024 14:06:06 GMT-0500 (Central Daylight Time),207963.20000001788,1000,O,m,747,5,1,2527.5999999940395,205435.60000002384,7006,NTS,B,12
7,1,test,1,A,circle.png,1,m,Mon Aug 05 2024 14:06:06 GMT-0500 (Central Daylight Time),236454.10000002384,1700,O,m,595,6,1,2311.0,234143.10000002384,7006,NTS,B,1
1,2,test,1,A,circle.png,1,z,Mon Aug 05 2024 14:06:06 GMT-0500 (Central Daylight Time),238086.80000001192,1000,O,z,604,1,1,1628.800000011921,236458.0,7006,NTS,B,2
1,3,test,1,A,circle.png,1,z,Mon Aug 05 2024 14:06:06 GMT-0500 (Central Daylight Time),239819.5,1000,O,z,714,1,1,1728.8999999761581,238090.60000002384,7006,NTS,B,3
2,4,test,1,A,circle.png,1,z,Mon Aug 05 2024 14:06:06 GMT-0500 (Central Daylight Time),242535.60000002384,2000,O,z,686,2,1,2712.5,239823.10000002384,7006,NTS,B,4
6,5,test,1,A,circle.png,1,m,Mon Aug 05 2024 14:06:06 GMT-0500 (Central Daylight Time),245151.60000002384,1900,O,m,687,5,1,2612.100000023842,242539.5,7006,NTS,B,5
8,6,test,1,A,circle.png,1,m,Mon Aug 05 2024 14:06:06 GMT-0500 (Central Daylight Time),247400.70000001788,1600,O,m,626,7,1,2245.4000000059605,245155.30000001192,7006,NTS,B,6
9,7,test,1,A,circle.png,1,m,Mon Aug 05 2024 14:06:06 GMT-0500 (Central Daylight Time),249649.90000000596,1500,O,m,725,8,1,2245.5999999940395,247404.30000001192,7006,NTS,B,7
3,8,test,1,A,circle.png,1,z,Mon Aug 05 2024 14:06:06 GMT-0500 (Central Daylight Time),251705.60000002384,1200,O,z,838,3,1,2052.100000023842,249653.5,7006,NTS,B,8
3,9,test,1,A,circle.png,1,z,Mon Aug 05 2024 14:06:06 GMT-0500 (Central Daylight Time),253615.5,1200,O,z,695,3,1,1906.199999988079,251709.30000001192,7006,NTS,B,9
8,10,test,1,A,circle.png,1,m,Mon Aug 05 2024 14:06:06 GMT-0500 (Central Daylight Time),256014.80000001192,1600,O,m,771,7,1,2395.5999999940395,253619.20000001788,7006,NTS,B,10
3,11,test,1,A,circle.png,1,z,Mon Aug 05 2024 14:06:06 GMT-0500 (Central Daylight Time),257947.20000001788,1200,O,z,714,3,1,1928.9000000059605,256018.30000001192,7006,NTS,B,11
9,12,test,1,A,circle.png,1,m,Mon Aug 05 2024 14:06:06 GMT-0500 (Central Daylight Time),260179.80000001192,1500,O,m,707,8,1,2229.0,257950.80000001192,7006,NTS,B,12
4,13,test,1,A,circle.png,1,z,Mon Aug 05 2024 14:06:06 GMT-0500 (Central Daylight Time),262612.7000000179,1400,O,z,1014,4,1,2429.2000000178814,260183.5,7006,NTS,B,13
2,14,test,1,A,circle.png,1,z,Mon Aug 05 2024 14:06:06 GMT-0500 (Central Daylight Time),265295.0,2000,O,z,654,2,1,2678.5999999940395,262616.40000000596,7006,NTS,B,14
7,15,test,1,A,circle.png,1,m,Mon Aug 05 2024 14:06:06 GMT-0500 (Central Daylight Time),267727.7000000179,1700,O,m,703,6,1,2428.5,265299.2000000179,7006,NTS,B,15
6,16,test,1,A,circle.png,1,m,Mon Aug 05 2024 14:06:06 GMT-0500 (Central Daylight Time),270343.5,1900,O,m,695,5,1,2611.899999976158,267731.60000002384,7006,NTS,B,16
1,17,test,1,A,circle.png,1,z,Mon Aug 05 2024 14:06:06 GMT-0500 (Central Daylight Time),272076.2000000179,1000,O,z,707,1,1,1728.9000000059605,270347.3000000119,7006,NTS,B,17
4,18,test,1,A,circle.png,1,z,Mon Aug 05 2024 14:06:06 GMT-0500 (Central Daylight Time),274125.90000000596,1400,O,z,621,4,1,2045.9000000059605,272080.0,7006,NTS,B,18
4,19,test,1,A,circle.png,1,z,Mon Aug 05 2024 14:06:06 GMT-0500 (Central Daylight Time),276141.3000000119,1400,O,z,597,4,1,2011.800000011921,274129.5,7006,NTS,B,19
2,20,test,1,A,circle.png,1,z,Mon Aug 05 2024 14:06:06 GMT-0500 (Central Daylight Time),278807.5,2000,O,z,636,2,1,2662.699999988079,276144.8000000119,7006,NTS,B,20
6,21,test,1,A,circle.png,1,m,Mon Aug 05 2024 14:06:06 GMT-0500 (Central Daylight Time),281523.2000000179,1900,O,m,799,5,1,2711.9000000059605,278811.3000000119,7006,NTS,B,21
9,22,test,1,A,circle.png,1,m,Mon Aug 05 2024 14:06:06 GMT-0500 (Central Daylight Time),283789.3000000119,1500,O,m,747,8,1,2262.5999999940395,281526.7000000179,7006,NTS,B,22
7,23,test,1,A,circle.png,1,m,Mon Aug 05 2024 14:06:06 GMT-0500 (Central Daylight Time),286138.60000002384,1700,O,m,625,6,1,2345.800000011921,283792.8000000119,7006,NTS,B,23
4,24,test,1,A,circle.png,1,z,Mon Aug 05 2024 14:06:06 GMT-0500 (Central Daylight Time),288304.60000002384,1400,O,z,744,4,1,2162.4000000059605,286142.2000000179,7006,NTS,B,24
4,1,test,1,B,triangle.png,1,m,Mon Aug 05 2024 14:06:06 GMT-0500 (Central Daylight Time),309297.8000000119,1500,O,m,759,4,1,2279.5,307018.3000000119,7006,NTS,B,1
4,2,test,1,B,triangle.png,1,m,Mon Aug 05 2024 14:06:06 GMT-0500 (Central Daylight Time),311030.7000000179,1000,O,m,712,12,1,1728.800000011921,309301.90000000596,7006,NTS,B,2
9,3,test,1,B,triangle.png,1,z,Mon Aug 05 2024 14:06:06 GMT-0500 (Central Daylight Time),313196.7000000179,1400,O,z,748,8,1,2162.2000000178814,311034.5,7006,NTS,B,3
7,4,test,1,B,triangle.png,1,z,Mon Aug 05 2024 14:06:06 GMT-0500 (Central Daylight Time),315879.10000002384,2000,O,z,661,6,1,2678.2000000178814,313200.90000000596,7006,NTS,B,4
1,5,test,1,B,triangle.png,1,z,Mon Aug 05 2024 14:06:06 GMT-0500 (Central Daylight Time),318011.60000002384,1400,O,z,715,9,1,2128.600000023842,315883.0,7006,NTS,B,5
3,6,test,1,B,triangle.png,1,z,Mon Aug 05 2024 14:06:06 GMT-0500 (Central Daylight Time),320311.0,1600,O,z,679,3,1,2295.899999976158,318015.10000002384,7006,NTS,B,6
4,7,test,1,B,triangle.png,1,m,Mon Aug 05 2024 14:06:06 GMT-0500 (Central Daylight Time),322175.10000002384,1000,O,m,847,12,1,1860.5,320314.60000002384,7006,NTS,B,7
7,8,test,1,B,triangle.png,1,z,Mon Aug 05 2024 14:06:06 GMT-0500 (Central Daylight Time),324843.0,2000,O,z,648,6,1,2664.0,322179.0,7006,NTS,B,8
3,9,test,1,B,triangle.png,1,z,Mon Aug 05 2024 14:06:06 GMT-0500 (Central Daylight Time),327558.90000000596,2000,O,z,696,11,1,2712.199999988079,324846.7000000179,7006,NTS,B,9
2,10,test,1,B,triangle.png,1,m,Mon Aug 05 2024 14:06:06 GMT-0500 (Central Daylight Time),329908.0,1700,O,m,632,2,1,2345.199999988079,327562.8000000119,7006,NTS,B,10
6,11,test,1,B,triangle.png,1,m,Mon Aug 05 2024 14:06:06 GMT-0500 (Central Daylight Time),332273.90000000596,1500,O,m,833,13,1,2362.0999999940395,329911.8000000119,7006,NTS,B,11
1,12,test,1,B,triangle.png,1,z,Mon Aug 05 2024 14:06:06 GMT-0500 (Central Daylight Time),334406.5,1400,O,z,713,9,1,2128.7999999821186,332277.7000000179,7006,NTS,B,12
9,13,test,1,B,triangle.png,1,z,Mon Aug 05 2024 14:06:06 GMT-0500 (Central Daylight Time),337272.5,1900,O,z,944,16,1,2862.199999988079,334410.3000000119,7006,NTS,B,13
7,14,test,1,B,triangle.png,1,z,Mon Aug 05 2024 14:06:06 GMT-0500 (Central Daylight Time),339688.40000000596,1600,O,z,793,14,1,2412.0,337276.40000000596,7006,NTS,B,14
8,15,test,1,B,triangle.png,1,m,Mon Aug 05 2024 14:06:06 GMT-0500 (Central Daylight Time),341554.5,1200,O,m,634,7,1,1862.2999999821186,339692.2000000179,7006,NTS,B,15
9,16,test,1,B,triangle.png,1,z,Mon Aug 05 2024 14:06:06 GMT-0500 (Central Daylight Time),343637.40000000596,1400,O,z,664,8,1,2079.0,341558.40000000596,7006,NTS,B,16
2,17,test,1,B,triangle.png,1,m,Mon Aug 05 2024 14:06:06 GMT-0500 (Central Daylight Time),345620.7000000179,1200,O,m,765,10,1,1979.5999999940395,343641.10000002384,7006,NTS,B,17
6,18,test,1,B,triangle.png,1,m,Mon Aug 05 2024 14:06:06 GMT-0500 (Central Daylight Time),347769.10000002384,1500,O,m,619,13,1,2144.300000011921,345624.8000000119,7006,NTS,B,18
9,19,test,1,B,triangle.png,1,z,Mon Aug 05 2024 14:06:06 GMT-0500 (Central Daylight Time),350468.2000000179,1900,O,z,781,16,1,2695.2000000178814,347773.0,7006,NTS,B,19
8,20,test,1,B,triangle.png,1,m,Mon Aug 05 2024 14:06:06 GMT-0500 (Central Daylight Time),352784.2000000179,1700,O,m,586,15,1,2312.5,350471.7000000179,7006,NTS,B,20
6,21,test,1,B,triangle.png,1,m,Mon Aug 05 2024 14:06:06 GMT-0500 (Central Daylight Time),354483.60000002384,1000,O,m,674,5,1,1695.7000000178814,352787.90000000596,7006,NTS,B,21
2,22,test,1,B,triangle.png,1,m,Mon Aug 05 2024 14:06:06 GMT-0500 (Central Daylight Time),356816.40000000596,1700,O,m,610,2,1,2329.199999988079,354487.2000000179,7006,NTS,B,22
7,23,test,1,B,triangle.png,1,z,Mon Aug 05 2024 14:06:06 GMT-0500 (Central Daylight Time),359099.0,1600,O,z,666,14,1,2278.699999988079,356820.3000000119,7006,NTS,B,23
1,24,test,1,B,triangle.png,1,z,Mon Aug 05 2024 14:06:06 GMT-0500 (Central Daylight Time),361681.3000000119,1900,O,z,660,1,1,2578.800000011921,359102.5,7006,NTS,B,24
6,0,prac,1,C,circle.png,0,m,Mon Aug 05 2024 14:06:06 GMT-0500 (Central Daylight Time),426427.8000000119,2000,O,None,1515,5,1,4291.0999999940395,422136.7000000179,7006,NTS,B,1
3,1,prac,1,C,triangle.png,1,z,Mon Aug 05 2024 14:06:06 GMT-0500 (Central Daylight Time),430160.0,1500,O,z,1435,3,1,3726.699999988079,426433.3000000119,7006,NTS,B,2
9,1,prac,1,C,circle.png,0,m,Mon Aug 05 2024 14:06:06 GMT-0500 (Central Daylight Time),434358.90000000596,1900,O,None,1516,8,1,4194.0,430164.90000000596,7006,NTS,B,3
7,2,prac,1,C,triangle.png,1,z,Mon Aug 05 2024 14:06:06 GMT-0500 (Central Daylight Time),437441.3000000119,1200,O,z,1084,6,1,3077.5,434363.8000000119,7006,NTS,B,4
6,3,prac,1,C,circle.png,1,m,Mon Aug 05 2024 14:06:06 GMT-0500 (Central Daylight Time),440923.2000000179,2000,O,m,690,5,1,3476.9000000059605,437446.3000000119,7006,NTS,B,5
3,4,prac,1,C,triangle.png,1,z,Mon Aug 05 2024 14:06:06 GMT-0500 (Central Daylight Time),443755.7000000179,1500,O,z,547,3,1,2827.5,440928.2000000179,7006,NTS,B,6
7,5,prac,1,C,triangle.png,1,z,Mon Aug 05 2024 14:06:06 GMT-0500 (Central Daylight Time),446471.60000002384,1200,O,z,719,6,1,2711.0,443760.60000002384,7006,NTS,B,7
2,6,prac,1,C,triangle.png,1,m,Mon Aug 05 2024 14:06:06 GMT-0500 (Central Daylight Time),449354.2000000179,1600,O,m,491,2,1,2877.7000000178814,446476.5,7006,NTS,B,8
8,7,prac,1,C,triangle.png,1,m,Mon Aug 05 2024 14:06:06 GMT-0500 (Central Daylight Time),452553.0,1400,O,m,1009,7,1,3193.7999999821186,449359.2000000179,7006,NTS,B,9
4,7,prac,1,C,circle.png,0,z,Mon Aug 05 2024 14:06:06 GMT-0500 (Central Daylight Time),455318.8000000119,1000,O,m,969,4,1,2760.699999988079,452558.10000002384,7006,NTS,B,10
2,7,prac,1,C,triangle.png,0,m,Mon Aug 05 2024 14:06:06 GMT-0500 (Central Daylight Time),458617.90000000596,1600,O,z,900,2,1,3294.0999999940395,455323.8000000119,7006,NTS,B,11
1,8,prac,1,C,circle.png,1,z,Mon Aug 05 2024 14:06:06 GMT-0500 (Central Daylight Time),462383.40000000596,1700,O,z,1269,1,1,3760.699999988079,458622.7000000179,7006,NTS,B,12
6,1,test,1,C,circle.png,1,m,Mon Aug 05 2024 14:06:06 GMT-0500 (Central Daylight Time),513750.3000000119,1900,O,m,1088,5,1,3012.5,510737.8000000119,7006,NTS,B,1
2,2,test,1,C,circle.png,1,z,Mon Aug 05 2024 14:06:06 GMT-0500 (Central Daylight Time),516532.90000000596,1700,O,z,1064,10,1,2778.2999999821186,513754.60000002384,7006,NTS,B,2
7,3,test,1,C,circle.png,1,m,Mon Aug 05 2024 14:06:06 GMT-0500 (Central Daylight Time),519782.0,2000,O,m,1230,14,1,3245.399999976158,516536.60000002384,7006,NTS,B,3
9,4,test,1,C,circle.png,1,m,Mon Aug 05 2024 14:06:06 GMT-0500 (Central Daylight Time),522064.3000000119,1500,O,m,760,24,1,2278.5999999940395,519785.7000000179,7006,NTS,B,4
8,5,test,1,C,triangle.png,1,m,Mon Aug 05 2024 14:06:06 GMT-0500 (Central Daylight Time),524780.3000000119,1600,O,m,1098,7,1,2712.0999999940395,522068.2000000179,7006,NTS,B,5
2,6,test,1,C,triangle.png,1,m,Mon Aug 05 2024 14:06:06 GMT-0500 (Central Daylight Time),527646.0,2000,O,m,838,2,1,2862.0,524784.0,7006,NTS,B,6
7,7,test,1,C,triangle.png,1,z,Mon Aug 05 2024 14:06:06 GMT-0500 (Central Daylight Time),530111.900000006,1700,O,z,744,6,1,2462.0,527649.900000006,7006,NTS,B,7
6,8,test,1,C,circle.png,1,m,Mon Aug 05 2024 14:06:06 GMT-0500 (Central Daylight Time),532944.400000006,1900,O,m,903,21,1,2828.699999988079,530115.7000000179,7006,NTS,B,8
9,9,test,1,C,circle.png,1,m,Mon Aug 05 2024 14:06:06 GMT-0500 (Central Daylight Time),535243.5,1500,O,m,782,8,1,2295.2999999821186,532948.2000000179,7006,NTS,B,9
4,10,test,1,C,triangle.png,1,m,Mon Aug 05 2024 14:06:06 GMT-0500 (Central Daylight Time),538242.8000000119,1500,O,m,1475,20,1,2995.699999988079,535247.1000000238,7006,NTS,B,10
3,11,test,1,C,triangle.png,1,z,Mon Aug 05 2024 14:06:06 GMT-0500 (Central Daylight Time),540275.3000000119,1200,O,z,808,3,1,2027.4000000059605,538247.900000006,7006,NTS,B,11
2,12,test,1,C,circle.png,1,z,Mon Aug 05 2024 14:06:06 GMT-0500 (Central Daylight Time),543191.1000000238,1700,O,z,1187,18,1,2911.9000000059605,540279.2000000179,7006,NTS,B,12
6,12,test,1,C,triangle.png,0,m,Mon Aug 05 2024 14:06:06 GMT-0500 (Central Daylight Time),545723.7000000179,1000,O,None,1516,13,1,2528.800000011921,543194.900000006,7006,NTS,B,13
4,13,test,1,C,triangle.png,1,m,Mon Aug 05 2024 14:06:06 GMT-0500 (Central Daylight Time),548256.1000000238,1500,O,m,1011,12,1,2528.600000023842,545727.5,7006,NTS,B,14
1,14,test,1,C,triangle.png,1,z,Mon Aug 05 2024 14:06:06 GMT-0500 (Central Daylight Time),551022.0,1900,O,z,847,9,1,2762.199999988079,548259.8000000119,7006,NTS,B,15
1,15,test,1,C,triangle.png,1,z,Mon Aug 05 2024 14:06:06 GMT-0500 (Central Daylight Time),553671.400000006,1900,O,z,721,17,1,2645.5999999940395,551025.8000000119,7006,NTS,B,16
8,16,test,1,C,triangle.png,1,m,Mon Aug 05 2024 14:06:06 GMT-0500 (Central Daylight Time),556236.900000006,1600,O,m,939,23,1,2561.0,553675.900000006,7006,NTS,B,17
4,17,test,1,C,circle.png,1,z,Mon Aug 05 2024 14:06:06 GMT-0500 (Central Daylight Time),558436.3000000119,1400,O,z,782,4,1,2195.4000000059605,556240.900000006,7006,NTS,B,18
7,18,test,1,C,triangle.png,1,z,Mon Aug 05 2024 14:06:06 GMT-0500 (Central Daylight Time),561035.5,1700,O,z,874,22,1,2595.399999976158,558440.1000000238,7006,NTS,B,19
9,19,test,1,C,triangle.png,1,z,Mon Aug 05 2024 14:06:06 GMT-0500 (Central Daylight Time),563218.1000000238,1400,O,z,751,16,1,2178.600000023842,561039.5,7006,NTS,B,20
3,20,test,1,C,circle.png,1,z,Mon Aug 05 2024 14:06:06 GMT-0500 (Central Daylight Time),565434.1000000238,1600,O,z,584,11,1,2212.100000023842,563222.0,7006,NTS,B,21
3,21,test,1,C,circle.png,1,z,Mon Aug 05 2024 14:06:06 GMT-0500 (Central Daylight Time),567666.900000006,1600,O,z,600,19,1,2229.199999988079,565437.7000000179,7006,NTS,B,22
1,22,test,1,C,circle.png,1,z,Mon Aug 05 2024 14:06:06 GMT-0500 (Central Daylight Time),569283.1000000238,1000,O,z,600,1,1,1612.5,567670.6000000238,7006,NTS,B,23
8,23,test,1,C,circle.png,1,m,Mon Aug 05 2024 14:06:06 GMT-0500 (Central Daylight Time),571099.0,1200,O,m,592,15,1,1812.199999988079,569286.8000000119,7006,NTS,B,24
4,1,test,2,C,circle.png,1,z,Mon Aug 05 2024 14:06:06 GMT-0500 (Central Daylight Time),589376.8000000119,1400,O,z,694,4,1,2112.0,587264.8000000119,7006,NTS,B,1
6,2,test,2,C,triangle.png,1,m,Mon Aug 05 2024 14:06:06 GMT-0500 (Central Daylight Time),591109.6000000238,1000,O,m,706,21,1,1728.7000000178814,589380.900000006,7006,NTS,B,2
8,3,test,2,C,circle.png,1,m,Mon Aug 05 2024 14:06:06 GMT-0500 (Central Daylight Time),593142.2000000179,1200,O,m,805,23,1,2025.0999999940395,591117.1000000238,7006,NTS,B,3
9,4,test,2,C,triangle.png,1,z,Mon Aug 05 2024 14:06:06 GMT-0500 (Central Daylight Time),595374.8000000119,1400,O,z,804,24,1,2228.699999988079,593146.1000000238,7006,NTS,B,4
4,5,test,2,C,triangle.png,1,m,Mon Aug 05 2024 14:06:06 GMT-0500 (Central Daylight Time),597674.0,1500,O,m,776,20,1,2295.5,595378.5,7006,NTS,B,5
1,6,test,2,C,circle.png,1,z,Mon Aug 05 2024 14:06:06 GMT-0500 (Central Daylight Time),599556.8000000119,1000,O,z,856,1,1,1879.199999988079,597677.6000000238,7006,NTS,B,6
7,7,test,2,C,circle.png,1,m,Mon Aug 05 2024 14:06:06 GMT-0500 (Central Daylight Time),602389.2000000179,2000,O,m,806,22,1,2828.4000000059605,599560.8000000119,7006,NTS,B,7
9,8,test,2,C,triangle.png,1,z,Mon Aug 05 2024 14:06:06 GMT-0500 (Central Daylight Time),604555.3000000119,1400,O,z,741,16,1,2162.300000011921,602393.0,7006,NTS,B,8
4,9,test,2,C,triangle.png,1,m,Mon Aug 05 2024 14:06:06 GMT-0500 (Central Daylight Time),606971.2000000179,1500,O,m,899,12,1,2412.300000011921,604558.900000006,7006,NTS,B,9
2,10,test,2,C,circle.png,1,z,Mon Aug 05 2024 14:06:06 GMT-0500 (Central Daylight Time),609470.3000000119,1700,O,z,780,10,1,2495.5,606974.8000000119,7006,NTS,B,10
3,11,test,2,C,circle.png,1,z,Mon Aug 05 2024 14:06:06 GMT-0500 (Central Daylight Time),611887.3000000119,1600,O,z,788,19,1,2413.0999999940395,609474.2000000179,7006,NTS,B,11
6,12,test,2,C,triangle.png,1,m,Mon Aug 05 2024 14:06:06 GMT-0500 (Central Daylight Time),613702.400000006,1000,O,m,796,13,1,1811.0999999940395,611891.3000000119,7006,NTS,B,12
7,13,test,2,C,circle.png,1,m,Mon Aug 05 2024 14:06:06 GMT-0500 (Central Daylight Time),616684.8000000119,2000,O,m,964,14,1,2978.5999999940395,613706.2000000179,7006,NTS,B,13
1,14,test,2,C,triangle.png,1,z,Mon Aug 05 2024 14:06:06 GMT-0500 (Central Daylight Time),619516.900000006,1900,O,z,914,17,1,2828.5,616688.400000006,7006,NTS,B,14
8,15,test,2,C,circle.png,1,m,Mon Aug 05 2024 14:06:06 GMT-0500 (Central Daylight Time),621483.1000000238,1200,O,m,741,15,1,1962.5,619520.6000000238,7006,NTS,B,15
2,15,test,2,C,triangle.png,0,m,Mon Aug 05 2024 14:06:06 GMT-0500 (Central Daylight Time),624515.5,2000,O,z,1000,2,1,3028.5,621487.0,7006,NTS,B,16
8,16,test,2,C,triangle.png,1,m,Mon Aug 05 2024 14:06:06 GMT-0500 (Central Daylight Time),627198.1000000238,1600,O,m,1063,7,1,2677.7000000178814,624520.400000006,7006,NTS,B,17
9,17,test,2,C,circle.png,1,m,Mon Aug 05 2024 14:06:06 GMT-0500 (Central Daylight Time),629864.1000000238,1500,O,m,1145,8,1,2662.100000023842,627202.0,7006,NTS,B,18
6,18,test,2,C,circle.png,1,m,Mon Aug 05 2024 14:06:06 GMT-0500 (Central Daylight Time),632712.900000006,1900,O,m,927,5,1,2845.0999999940395,629867.8000000119,7006,NTS,B,19
1,19,test,2,C,triangle.png,1,z,Mon Aug 05 2024 14:06:06 GMT-0500 (Central Daylight Time),635795.400000006,1900,O,z,1158,9,1,3078.9000000059605,632716.5,7006,NTS,B,20
3,19,test,2,C,circle.png,0,z,Mon Aug 05 2024 14:06:06 GMT-0500 (Central Daylight Time),638927.900000006,1600,O,None,1516,11,1,3128.5999999940395,635799.3000000119,7006,NTS,B,21
7,20,test,2,C,triangle.png,1,z,Mon Aug 05 2024 14:06:06 GMT-0500 (Central Daylight Time),641660.400000006,1700,O,z,1007,6,1,2727.5,638932.900000006,7006,NTS,B,22
3,21,test,2,C,triangle.png,1,z,Mon Aug 05 2024 14:06:06 GMT-0500 (Central Daylight Time),643676.2000000179,1200,O,z,790,3,1,2011.9000000059605,641664.3000000119,7006,NTS,B,23
2,22,test,2,C,circle.png,1,z,Mon Aug 05 2024 14:06:06 GMT-0500 (Central Daylight Time),646225.3000000119,1700,O,z,818,18,1,2545.4000000059605,643679.900000006,7006,NTS,B,24
8,1,test,3,C,circle.png,1,m,Mon Aug 05 2024 14:06:06 GMT-0500 (Central Daylight Time),689112.3000000119,1200,O,m,844,15,1,2063.0,687049.3000000119,7006,NTS,B,1
3,2,test,3,C,triangle.png,1,z,Mon Aug 05 2024 14:06:06 GMT-0500 (Central Daylight Time),690894.8000000119,1200,O,z,554,3,1,1778.199999988079,689116.6000000238,7006,NTS,B,2
8,3,test,3,C,triangle.png,1,m,Mon Aug 05 2024 14:06:06 GMT-0500 (Central Daylight Time),693610.6000000238,1600,O,m,1084,7,1,2712.0,690898.6000000238,7006,NTS,B,3
1,4,test,3,C,circle.png,1,z,Mon Aug 05 2024 14:06:06 GMT-0500 (Central Daylight Time),695493.3000000119,1000,O,z,856,17,1,1879.0,693614.3000000119,7006,NTS,B,4
4,5,test,3,C,circle.png,1,z,Mon Aug 05 2024 14:06:06 GMT-0500 (Central Daylight Time),697892.3000000119,1400,O,z,982,20,1,2395.4000000059605,695496.900000006,7006,NTS,B,5
9,6,test,3,C,triangle.png,1,z,Mon Aug 05 2024 14:06:06 GMT-0500 (Central Daylight Time),700175.2000000179,1400,O,z,854,16,1,2279.5,697895.7000000179,7006,NTS,B,6
7,7,test,3,C,circle.png,1,m,Mon Aug 05 2024 14:06:06 GMT-0500 (Central Daylight Time),703125.3000000119,2000,O,m,931,14,1,2946.4000000059605,700178.900000006,7006,NTS,B,7
3,8,test,3,C,circle.png,1,z,Mon Aug 05 2024 14:06:06 GMT-0500 (Central Daylight Time),705457.0,1600,O,z,702,11,1,2327.5999999940395,703129.400000006,7006,NTS,B,8
7,9,test,3,C,triangle.png,1,z,Mon Aug 05 2024 14:06:06 GMT-0500 (Central Daylight Time),707939.5,1700,O,z,751,6,1,2478.7999999821186,705460.7000000179,7006,NTS,B,9
7,10,test,3,C,triangle.png,1,z,Mon Aug 05 2024 14:06:06 GMT-0500 (Central Daylight Time),710338.7000000179,1700,O,z,667,22,1,2395.4000000059605,707943.3000000119,7006,NTS,B,10
1,11,test,3,C,triangle.png,1,z,Mon Aug 05 2024 14:06:06 GMT-0500 (Central Daylight Time),712921.400000006,1900,O,z,652,9,1,2578.9000000059605,710342.5,7006,NTS,B,11
2,12,test,3,C,triangle.png,1,m,Mon Aug 05 2024 14:06:06 GMT-0500 (Central Daylight Time),715753.6000000238,2000,O,m,802,2,1,2828.600000023842,712925.0,7006,NTS,B,12
6,13,test,3,C,circle.png,1,m,Mon Aug 05 2024 14:06:06 GMT-0500 (Central Daylight Time),718369.5,1900,O,m,693,5,1,2612.0,715757.5,7006,NTS,B,13
3,14,test,3,C,triangle.png,1,z,Mon Aug 05 2024 14:06:06 GMT-0500 (Central Daylight Time),720235.5,1200,O,z,641,19,1,1862.199999988079,718373.3000000119,7006,NTS,B,14
1,15,test,3,C,circle.png,1,z,Mon Aug 05 2024 14:06:06 GMT-0500 (Central Daylight Time),721868.1000000238,1000,O,z,615,1,1,1628.800000011921,720239.3000000119,7006,NTS,B,15
6,16,test,3,C,circle.png,1,m,Mon Aug 05 2024 14:06:06 GMT-0500 (Central Daylight Time),724517.5,1900,O,m,722,21,1,2645.699999988079,721871.8000000119,7006,NTS,B,16
6,17,test,3,C,triangle.png,1,m,Mon Aug 05 2024 14:06:06 GMT-0500 (Central Daylight Time),726450.1000000238,1000,O,m,909,13,1,1929.0,724521.1000000238,7006,NTS,B,17
9,17,test,3,C,circle.png,0,m,Mon Aug 05 2024 14:06:06 GMT-0500 (Central Daylight Time),728966.3000000119,1500,O,z,988,8,1,2512.300000011921,726454.0,7006,NTS,B,18
9,18,test,3,C,circle.png,1,m,Mon Aug 05 2024 14:06:06 GMT-0500 (Central Daylight Time),731315.400000006,1500,O,m,817,24,1,2345.2999999821186,728970.1000000238,7006,NTS,B,19
4,19,test,3,C,triangle.png,1,m,Mon Aug 05 2024 14:06:06 GMT-0500 (Central Daylight Time),733731.400000006,1500,O,m,883,12,1,2412.2999999821186,731319.1000000238,7006,NTS,B,20
4,19,test,3,C,circle.png,0,z,Mon Aug 05 2024 14:06:06 GMT-0500 (Central Daylight Time),735914.0,1400,O,m,751,4,1,2178.899999976158,733735.1000000238,7006,NTS,B,21
2,20,test,3,C,triangle.png,1,m,Mon Aug 05 2024 14:06:06 GMT-0500 (Central Daylight Time),738997.400000006,2000,O,m,1065,18,1,3079.5,735917.900000006,7006,NTS,B,22
8,21,test,3,C,triangle.png,1,m,Mon Aug 05 2024 14:06:06 GMT-0500 (Central Daylight Time),741812.0,1600,O,m,1198,23,1,2810.699999988079,739001.3000000119,7006,NTS,B,23
2,22,test,3,C,circle.png,1,z,Mon Aug 05 2024 14:06:06 GMT-0500 (Central Daylight Time),744444.7000000179,1700,O,z,915,10,1,2629.2000000178814,741815.5,7006,NTS,B,24
9,1,test,4,C,triangle.png,1,z,Mon Aug 05 2024 14:06:06 GMT-0500 (Central Daylight Time),790413.6000000238,1400,O,z,780,16,1,2196.2000000178814,788217.400000006,7006,NTS,B,1
8,2,test,4,C,circle.png,1,m,Mon Aug 05 2024 14:06:06 GMT-0500 (Central Daylight Time),792279.7000000179,1200,O,m,637,15,1,1862.300000011921,790417.400000006,7006,NTS,B,2
3,3,test,4,C,triangle.png,1,z,Mon Aug 05 2024 14:06:06 GMT-0500 (Central Daylight Time),794195.8000000119,1200,O,z,699,19,1,1912.5,792283.3000000119,7006,NTS,B,3
2,4,test,4,C,triangle.png,1,m,Mon Aug 05 2024 14:06:06 GMT-0500 (Central Daylight Time),797161.5,2000,O,m,943,2,1,2961.399999976158,794200.1000000238,7006,NTS,B,4
9,5,test,4,C,circle.png,1,m,Mon Aug 05 2024 14:06:06 GMT-0500 (Central Daylight Time),799394.1000000238,1500,O,m,709,8,1,2228.9000000059605,797165.2000000179,7006,NTS,B,5
4,6,test,4,C,circle.png,1,z,Mon Aug 05 2024 14:06:06 GMT-0500 (Central Daylight Time),801493.3000000119,1400,O,z,672,20,1,2095.800000011921,799397.5,7006,NTS,B,6
7,7,test,4,C,triangle.png,1,z,Mon Aug 05 2024 14:06:06 GMT-0500 (Central Daylight Time),803875.8000000119,1700,O,z,665,6,1,2378.9000000059605,801496.900000006,7006,NTS,B,7
1,8,test,4,C,circle.png,1,z,Mon Aug 05 2024 14:06:06 GMT-0500 (Central Daylight Time),805875.400000006,1000,O,z,982,17,1,1996.0999999940395,803879.3000000119,7006,NTS,B,8
1,9,test,4,C,triangle.png,1,z,Mon Aug 05 2024 14:06:06 GMT-0500 (Central Daylight Time),808458.1000000238,1900,O,z,651,9,1,2578.800000011921,805879.3000000119,7006,NTS,B,9
4,10,test,4,C,triangle.png,1,m,Mon Aug 05 2024 14:06:06 GMT-0500 (Central Daylight Time),810957.1000000238,1500,O,m,973,12,1,2495.4000000059605,808461.7000000179,7006,NTS,B,10
2,11,test,4,C,circle.png,1,z,Mon Aug 05 2024 14:06:06 GMT-0500 (Central Daylight Time),813539.6000000238,1700,O,z,865,10,1,2578.300000011921,810961.3000000119,7006,NTS,B,11
6,12,test,4,C,circle.png,1,m,Mon Aug 05 2024 14:06:06 GMT-0500 (Central Daylight Time),816105.400000006,1900,O,m,635,21,1,2562.2999999821186,813543.1000000238,7006,NTS,B,12
7,13,test,4,C,circle.png,1,m,Mon Aug 05 2024 14:06:06 GMT-0500 (Central Daylight Time),818871.2000000179,2000,O,m,746,14,1,2761.9000000059605,816109.3000000119,7006,NTS,B,13
3,14,test,4,C,triangle.png,1,z,Mon Aug 05 2024 14:06:06 GMT-0500 (Central Daylight Time),820870.6000000238,1200,O,z,779,3,1,1995.4000000059605,818875.2000000179,7006,NTS,B,14
4,15,test,4,C,circle.png,1,z,Mon Aug 05 2024 14:06:06 GMT-0500 (Central Daylight Time),823219.900000006,1400,O,z,933,4,1,2345.5,820874.400000006,7006,NTS,B,15
6,16,test,4,C,circle.png,1,m,Mon Aug 05 2024 14:06:06 GMT-0500 (Central Daylight Time),825769.3000000119,1900,O,m,627,5,1,2545.699999988079,823223.6000000238,7006,NTS,B,16
8,17,test,4,C,triangle.png,1,m,Mon Aug 05 2024 14:06:06 GMT-0500 (Central Daylight Time),828318.400000006,1600,O,m,929,23,1,2545.4000000059605,825773.0,7006,NTS,B,17
9,18,test,4,C,circle.png,1,m,Mon Aug 05 2024 14:06:06 GMT-0500 (Central Daylight Time),830551.0,1500,O,m,704,24,1,2228.7999999821186,828322.2000000179,7006,NTS,B,18
7,19,test,4,C,triangle.png,1,z,Mon Aug 05 2024 14:06:06 GMT-0500 (Central Daylight Time),833016.8000000119,1700,O,z,736,22,1,2461.9000000059605,830554.900000006,7006,NTS,B,19
2,20,test,4,C,triangle.png,1,m,Mon Aug 05 2024 14:06:06 GMT-0500 (Central Daylight Time),836015.900000006,2000,O,m,978,18,1,2995.5,833020.400000006,7006,NTS,B,20
8,21,test,4,C,triangle.png,1,m,Mon Aug 05 2024 14:06:06 GMT-0500 (Central Daylight Time),838431.8000000119,1600,O,m,787,7,1,2412.0,836019.8000000119,7006,NTS,B,21
1,22,test,4,C,circle.png,1,z,Mon Aug 05 2024 14:06:06 GMT-0500 (Central Daylight Time),840322.2000000179,1000,O,z,873,1,1,1886.7000000178814,838435.5,7006,NTS,B,22
3,23,test,4,C,circle.png,1,z,Mon Aug 05 2024 14:06:06 GMT-0500 (Central Daylight Time),842747.400000006,1600,O,z,800,11,1,2421.4000000059605,840326.0,7006,NTS,B,23
6,24,test,4,C,triangle.png,1,m,Mon Aug 05 2024 14:06:06 GMT-0500 (Central Daylight Time),844729.8000000119,1000,O,m,951,13,1,1978.5999999940395,842751.2000000179,7006,NTS,B,24
