acc_sum,block,block_c,change,condition,correct,correct_response,datetime,endtime,face,project,response,response_time,row_sel,session_number,start_end,starttime,subject_id,task,task_vers,trial
0,prac,1,,1-Back,,,Mon Feb 23 2026 11:22:51 GMT-0600 (Central Standard Time),,050_m_f_n_a.png,O,space,6430,1,,,,7760,NNB,A,0
1,prac,1,0.0,1-Back,1.0,m,Mon Feb 23 2026 11:22:51 GMT-0600 (Central Standard Time),125224.0,063_y_f_n_a.png,O,m,854,2,,1655.7000000178814,123568.29999998212,7760,NNB,A,1
2,prac,1,1.0,1-Back,1.0,z,Mon Feb 23 2026 11:22:51 GMT-0600 (Central Standard Time),127123.0,063_y_f_n_a.png,O,z,1123,3,,1891.2000000178814,125231.79999998212,7760,NNB,A,2
3,prac,1,0.0,1-Back,1.0,m,Mon Feb 23 2026 11:22:51 GMT-0600 (Central Standard Time),128856.0,053_o_m_n_a.png,O,m,923,4,,1724.9000000059605,127131.09999999404,7760,NNB,A,3
4,prac,1,0.0,1-Back,1.0,m,Mon Feb 23 2026 11:22:51 GMT-0600 (Central Standard Time),130588.5,058_m_m_n_a.png,O,m,934,5,,1724.4000000059605,128864.09999999404,7760,NNB,A,4
5,prac,1,1.0,1-Back,1.0,z,Mon Feb 23 2026 11:22:51 GMT-0600 (Central Standard Time),132239.19999998808,058_m_m_n_a.png,O,z,860,6,,1641.5999999940395,130597.59999999404,7760,NNB,A,5
6,prac,1,0.0,1-Back,1.0,m,Mon Feb 23 2026 11:22:51 GMT-0600 (Central Standard Time),134053.90000000596,047_o_f_n_a.png,O,m,988,7,,1806.800000011921,132247.09999999404,7760,NNB,A,6
6,prac,1,0.0,1-Back,0.0,m,Mon Feb 23 2026 11:22:51 GMT-0600 (Central Standard Time),136186.29999998212,045_m_m_n_a.png,O,z,1329,8,,2123.699999988079,134062.59999999404,7760,NNB,A,7
7,prac,1,0.0,1-Back,1.0,m,Mon Feb 23 2026 11:22:51 GMT-0600 (Central Standard Time),138919.19999998808,050_m_f_n_a.png,O,m,1952,9,,2724.5999999940395,136194.59999999404,7760,NNB,A,8
8,prac,1,1.0,1-Back,1.0,z,Mon Feb 23 2026 11:22:51 GMT-0600 (Central Standard Time),140869.09999999404,050_m_f_n_a.png,O,z,1177,10,,1940.5,138928.59999999404,7760,NNB,A,9
9,prac,1,0.0,1-Back,1.0,m,Mon Feb 23 2026 11:22:51 GMT-0600 (Central Standard Time),142652.29999998212,053_o_m_n_a.png,O,m,1014,11,,1775.5,140876.79999998212,7760,NNB,A,10
10,prac,1,0.0,1-Back,1.0,m,Mon Feb 23 2026 11:22:51 GMT-0600 (Central Standard Time),144485.40000000596,010_y_f_n_a.png,O,m,995,12,,1823.4000000059605,142662.0,7760,NNB,A,11
0,test,1,0.0,1-Back,,,Mon Feb 23 2026 11:22:51 GMT-0600 (Central Standard Time),144485.40000000596,063_y_f_n_a.png,O,space,11028,1,,1823.4000000059605,142662.0,7760,NNB,A,0
1,test,1,0.0,1-Back,1.0,m,Mon Feb 23 2026 11:22:51 GMT-0600 (Central Standard Time),164895.5,043_m_f_n_a.png,O,m,619,2,,1644.300000011921,163251.19999998808,7760,NNB,A,1
2,test,1,0.0,1-Back,1.0,m,Mon Feb 23 2026 11:22:51 GMT-0600 (Central Standard Time),167227.0,010_y_f_n_a.png,O,m,1308,3,,2324.9000000059605,164902.09999999404,7760,NNB,A,2
3,test,1,1.0,1-Back,1.0,z,Mon Feb 23 2026 11:22:51 GMT-0600 (Central Standard Time),169042.69999998808,010_y_f_n_a.png,O,z,791,4,,1808.7999999821186,167233.90000000596,7760,NNB,A,3
4,test,1,0.0,1-Back,1.0,m,Mon Feb 23 2026 11:22:51 GMT-0600 (Central Standard Time),171558.5,043_m_f_n_a.png,O,m,1486,5,,2508.5999999940395,169049.90000000596,7760,NNB,A,4
5,test,1,0.0,1-Back,1.0,m,Mon Feb 23 2026 11:22:51 GMT-0600 (Central Standard Time),173325.09999999404,053_o_m_n_a.png,O,m,748,6,,1762.199999988079,171562.90000000596,7760,NNB,A,5
6,test,1,1.0,1-Back,1.0,z,Mon Feb 23 2026 11:22:51 GMT-0600 (Central Standard Time),175157.79999998212,053_o_m_n_a.png,O,z,806,7,,1828.199999988079,173329.59999999404,7760,NNB,A,6
7,test,1,0.0,1-Back,1.0,m,Mon Feb 23 2026 11:22:51 GMT-0600 (Central Standard Time),176956.69999998808,058_m_m_n_a.png,O,m,777,8,,1793.0,175163.69999998808,7760,NNB,A,7
7,test,1,0.0,1-Back,0.0,m,Mon Feb 23 2026 11:22:51 GMT-0600 (Central Standard Time),178806.69999998808,047_o_f_n_a.png,O,z,821,9,,1842.7999999821186,176963.90000000596,7760,NNB,A,8
8,test,1,0.0,1-Back,1.0,m,Mon Feb 23 2026 11:22:51 GMT-0600 (Central Standard Time),181088.79999998212,058_m_m_n_a.png,O,m,1250,10,,2274.399999976158,178814.40000000596,7760,NNB,A,9
9,test,1,0.0,1-Back,1.0,m,Mon Feb 23 2026 11:22:51 GMT-0600 (Central Standard Time),183106.29999998212,041_y_m_n_a.png,O,m,992,11,,2011.8999999761581,181094.40000000596,7760,NNB,A,10
10,test,1,1.0,1-Back,1.0,z,Mon Feb 23 2026 11:22:51 GMT-0600 (Central Standard Time),185204.59999999404,041_y_m_n_a.png,O,z,1073,12,,2095.300000011921,183109.29999998212,7760,NNB,A,11
11,test,1,0.0,1-Back,1.0,m,Mon Feb 23 2026 11:22:51 GMT-0600 (Central Standard Time),186987.09999999404,044_o_f_n_a.png,O,m,767,13,,1775.0,185212.09999999404,7760,NNB,A,12
12,test,1,1.0,1-Back,1.0,z,Mon Feb 23 2026 11:22:51 GMT-0600 (Central Standard Time),188819.40000000596,044_o_f_n_a.png,O,z,807,14,,1829.4000000059605,186990.0,7760,NNB,A,13
13,test,1,0.0,1-Back,1.0,m,Mon Feb 23 2026 11:22:51 GMT-0600 (Central Standard Time),190486.0,008_y_m_n_a.png,O,m,637,15,,1663.0999999940395,188822.90000000596,7760,NNB,A,14
14,test,1,0.0,1-Back,1.0,m,Mon Feb 23 2026 11:22:51 GMT-0600 (Central Standard Time),192551.40000000596,050_m_f_n_a.png,O,m,1034,16,,2057.4000000059605,190494.0,7760,NNB,A,15
15,test,1,0.0,1-Back,1.0,m,Mon Feb 23 2026 11:22:51 GMT-0600 (Central Standard Time),194300.69999998808,046_o_m_n_a.png,O,m,730,17,,1742.0999999940395,192558.59999999404,7760,NNB,A,16
15,test,1,0.0,1-Back,0.0,m,Mon Feb 23 2026 11:22:51 GMT-0600 (Central Standard Time),196118.29999998212,050_m_f_n_a.png,O,z,796,18,,1812.0999999940395,194306.19999998808,7760,NNB,A,17
0,test,2,0.0,1-Back,,,Mon Feb 23 2026 11:22:51 GMT-0600 (Central Standard Time),196118.29999998212,058_m_m_n_a.png,O,space,2316,1,,1812.0999999940395,194306.19999998808,7760,NNB,A,0
1,test,2,0.0,1-Back,1.0,m,Mon Feb 23 2026 11:22:51 GMT-0600 (Central Standard Time),202482.59999999404,043_m_f_n_a.png,O,m,998,2,,2005.9000000059605,200476.69999998808,7760,NNB,A,1
2,test,2,1.0,1-Back,1.0,z,Mon Feb 23 2026 11:22:51 GMT-0600 (Central Standard Time),204680.5,043_m_f_n_a.png,O,z,1175,3,,2190.2000000178814,202490.29999998212,7760,NNB,A,2
3,test,2,0.0,1-Back,1.0,m,Mon Feb 23 2026 11:22:51 GMT-0600 (Central Standard Time),206731.40000000596,058_m_m_n_a.png,O,m,1032,4,,2046.800000011921,204684.59999999404,7760,NNB,A,3
4,test,2,0.0,1-Back,1.0,m,Mon Feb 23 2026 11:22:51 GMT-0600 (Central Standard Time),208663.79999998212,041_y_m_n_a.png,O,m,911,5,,1926.5,206737.29999998212,7760,NNB,A,4
5,test,2,0.0,1-Back,1.0,m,Mon Feb 23 2026 11:22:51 GMT-0600 (Central Standard Time),210412.5,063_y_f_n_a.png,O,m,731,6,,1742.9000000059605,208669.59999999404,7760,NNB,A,5
6,test,2,1.0,1-Back,1.0,z,Mon Feb 23 2026 11:22:51 GMT-0600 (Central Standard Time),212228.29999998212,063_y_f_n_a.png,O,z,797,7,,1811.5,210416.79999998212,7760,NNB,A,6
7,test,2,0.0,1-Back,1.0,m,Mon Feb 23 2026 11:22:51 GMT-0600 (Central Standard Time),213945.19999998808,041_y_m_n_a.png,O,m,684,8,,1709.5,212235.69999998808,7760,NNB,A,7
8,test,2,0.0,1-Back,1.0,m,Mon Feb 23 2026 11:22:51 GMT-0600 (Central Standard Time),215644.40000000596,044_o_f_n_a.png,O,m,683,9,,1693.0,213951.40000000596,7760,NNB,A,8
9,test,2,0.0,1-Back,1.0,m,Mon Feb 23 2026 11:22:51 GMT-0600 (Central Standard Time),217410.5,045_m_m_n_a.png,O,m,748,10,,1760.800000011921,215649.69999998808,7760,NNB,A,9
10,test,2,1.0,1-Back,1.0,z,Mon Feb 23 2026 11:22:51 GMT-0600 (Central Standard Time),219393.09999999404,045_m_m_n_a.png,O,z,951,11,,1977.300000011921,217415.79999998212,7760,NNB,A,10
11,test,2,0.0,1-Back,1.0,m,Mon Feb 23 2026 11:22:51 GMT-0600 (Central Standard Time),221326.29999998212,044_o_f_n_a.png,O,m,904,12,,1926.7999999821186,219399.5,7760,NNB,A,11
12,test,2,0.0,1-Back,1.0,m,Mon Feb 23 2026 11:22:51 GMT-0600 (Central Standard Time),223158.79999998212,047_o_f_n_a.png,O,m,813,13,,1825.7999999821186,221333.0,7760,NNB,A,12
13,test,2,0.0,1-Back,1.0,m,Mon Feb 23 2026 11:22:51 GMT-0600 (Central Standard Time),224892.40000000596,053_o_m_n_a.png,O,m,708,14,,1728.5,223163.90000000596,7760,NNB,A,13
14,test,2,0.0,1-Back,1.0,m,Mon Feb 23 2026 11:22:51 GMT-0600 (Central Standard Time),226607.90000000596,046_o_m_n_a.png,O,m,694,15,,1710.0,224897.90000000596,7760,NNB,A,14
15,test,2,1.0,1-Back,1.0,z,Mon Feb 23 2026 11:22:51 GMT-0600 (Central Standard Time),228441.19999998808,046_o_m_n_a.png,O,z,803,16,,1826.0999999940395,226615.09999999404,7760,NNB,A,15
16,test,2,0.0,1-Back,1.0,m,Mon Feb 23 2026 11:22:51 GMT-0600 (Central Standard Time),230422.90000000596,008_y_m_n_a.png,O,m,961,17,,1976.0,228446.90000000596,7760,NNB,A,16
17,test,2,1.0,1-Back,1.0,z,Mon Feb 23 2026 11:22:51 GMT-0600 (Central Standard Time),232290.40000000596,008_y_m_n_a.png,O,z,842,18,,1863.0,230427.40000000596,7760,NNB,A,17
0,test,3,1.0,1-Back,,,Mon Feb 23 2026 11:22:51 GMT-0600 (Central Standard Time),232290.40000000596,010_y_f_n_a.png,O,space,2376,1,,1863.0,230427.40000000596,7760,NNB,A,0
1,test,3,0.0,1-Back,1.0,m,Mon Feb 23 2026 11:22:51 GMT-0600 (Central Standard Time),238456.40000000596,046_o_m_n_a.png,O,m,705,2,,1725.300000011921,236731.09999999404,7760,NNB,A,1
2,test,3,1.0,1-Back,1.0,z,Mon Feb 23 2026 11:22:51 GMT-0600 (Central Standard Time),240836.59999999404,046_o_m_n_a.png,O,z,1348,3,,2373.5,238463.09999999404,7760,NNB,A,2
3,test,3,0.0,1-Back,1.0,m,Mon Feb 23 2026 11:22:51 GMT-0600 (Central Standard Time),242553.29999998212,050_m_f_n_a.png,O,m,684,4,,1709.699999988079,240843.59999999404,7760,NNB,A,3
3,test,3,1.0,1-Back,0.0,z,Mon Feb 23 2026 11:22:51 GMT-0600 (Central Standard Time),244352.69999998808,050_m_f_n_a.png,O,m,764,5,,1793.2999999821186,242559.40000000596,7760,NNB,A,4
4,test,3,0.0,1-Back,1.0,m,Mon Feb 23 2026 11:22:51 GMT-0600 (Central Standard Time),246018.19999998808,044_o_f_n_a.png,O,m,642,6,,1658.699999988079,244359.5,7760,NNB,A,5
5,test,3,0.0,1-Back,1.0,m,Mon Feb 23 2026 11:22:51 GMT-0600 (Central Standard Time),247616.5,041_y_m_n_a.png,O,m,569,7,,1594.300000011921,246022.19999998808,7760,NNB,A,6
6,test,3,0.0,1-Back,1.0,m,Mon Feb 23 2026 11:22:51 GMT-0600 (Central Standard Time),249850.59999999404,044_o_f_n_a.png,O,m,1209,8,,2227.300000011921,247623.29999998212,7760,NNB,A,7
7,test,3,0.0,1-Back,1.0,m,Mon Feb 23 2026 11:22:51 GMT-0600 (Central Standard Time),251584.5,008_y_m_n_a.png,O,m,709,9,,1727.9000000059605,249856.59999999404,7760,NNB,A,8
8,test,3,1.0,1-Back,1.0,z,Mon Feb 23 2026 11:22:51 GMT-0600 (Central Standard Time),253300.40000000596,008_y_m_n_a.png,O,z,683,10,,1709.2000000178814,251591.19999998808,7760,NNB,A,9
9,test,3,0.0,1-Back,1.0,m,Mon Feb 23 2026 11:22:51 GMT-0600 (Central Standard Time),254898.59999999404,043_m_f_n_a.png,O,m,567,11,,1590.699999988079,253307.90000000596,7760,NNB,A,10
10,test,3,0.0,1-Back,1.0,m,Mon Feb 23 2026 11:22:51 GMT-0600 (Central Standard Time),256531.19999998808,063_y_f_n_a.png,O,m,607,12,,1624.4000000059605,254906.79999998212,7760,NNB,A,11
11,test,3,1.0,1-Back,1.0,z,Mon Feb 23 2026 11:22:51 GMT-0600 (Central Standard Time),258330.40000000596,063_y_f_n_a.png,O,z,773,13,,1793.5,256536.90000000596,7760,NNB,A,12
12,test,3,0.0,1-Back,1.0,m,Mon Feb 23 2026 11:22:51 GMT-0600 (Central Standard Time),259898.69999998808,043_m_f_n_a.png,O,m,542,14,,1559.0999999940395,258339.59999999404,7760,NNB,A,13
13,test,3,0.0,1-Back,1.0,m,Mon Feb 23 2026 11:22:51 GMT-0600 (Central Standard Time),261581.0,058_m_m_n_a.png,O,m,664,15,,1676.0,259905.0,7760,NNB,A,14
13,test,3,1.0,1-Back,0.0,z,Mon Feb 23 2026 11:22:51 GMT-0600 (Central Standard Time),263479.1999999881,058_m_m_n_a.png,O,m,871,16,,1892.2999999821186,261586.90000000596,7760,NNB,A,15
14,test,3,0.0,1-Back,1.0,m,Mon Feb 23 2026 11:22:51 GMT-0600 (Central Standard Time),265278.59999999404,047_o_f_n_a.png,O,m,779,17,,1791.9000000059605,263486.6999999881,7760,NNB,A,16
15,test,3,1.0,1-Back,1.0,z,Mon Feb 23 2026 11:22:51 GMT-0600 (Central Standard Time),266981.59999999404,047_o_f_n_a.png,O,z,685,18,,1695.699999988079,265285.90000000596,7760,NNB,A,17
0,test,4,1.0,1-Back,,,Mon Feb 23 2026 11:22:51 GMT-0600 (Central Standard Time),266981.59999999404,050_m_f_n_a.png,O,space,2278,1,,1695.699999988079,265285.90000000596,7760,NNB,A,0
1,test,4,0.0,1-Back,1.0,m,Mon Feb 23 2026 11:22:51 GMT-0600 (Central Standard Time),272926.1999999881,046_o_m_n_a.png,O,m,628,2,,1642.199999988079,271284.0,7760,NNB,A,1
2,test,4,0.0,1-Back,1.0,m,Mon Feb 23 2026 11:22:51 GMT-0600 (Central Standard Time),274658.5,050_m_f_n_a.png,O,m,715,3,,1723.300000011921,272935.1999999881,7760,NNB,A,2
3,test,4,0.0,1-Back,1.0,m,Mon Feb 23 2026 11:22:51 GMT-0600 (Central Standard Time),276575.7999999821,044_o_f_n_a.png,O,m,886,4,,1914.7999999821186,274661.0,7760,NNB,A,3
4,test,4,1.0,1-Back,1.0,z,Mon Feb 23 2026 11:22:51 GMT-0600 (Central Standard Time),278525.0,044_o_f_n_a.png,O,z,931,5,,1941.800000011921,276583.1999999881,7760,NNB,A,4
5,test,4,0.0,1-Back,1.0,m,Mon Feb 23 2026 11:22:51 GMT-0600 (Central Standard Time),280057.1999999881,063_y_f_n_a.png,O,m,501,6,,1523.199999988079,278534.0,7760,NNB,A,5
6,test,4,0.0,1-Back,1.0,m,Mon Feb 23 2026 11:22:51 GMT-0600 (Central Standard Time),281524.5,041_y_m_n_a.png,O,m,441,7,,1461.0999999940395,280063.40000000596,7760,NNB,A,6
7,test,4,1.0,1-Back,1.0,z,Mon Feb 23 2026 11:22:51 GMT-0600 (Central Standard Time),283206.5,041_y_m_n_a.png,O,z,662,8,,1673.7000000178814,281532.7999999821,7760,NNB,A,7
8,test,4,0.0,1-Back,1.0,m,Mon Feb 23 2026 11:22:51 GMT-0600 (Central Standard Time),284740.1999999881,063_y_f_n_a.png,O,m,501,9,,1528.199999988079,283212.0,7760,NNB,A,8
9,test,4,0.0,1-Back,1.0,m,Mon Feb 23 2026 11:22:51 GMT-0600 (Central Standard Time),286288.5,045_m_m_n_a.png,O,m,527,10,,1542.2000000178814,284746.2999999821,7760,NNB,A,9
10,test,4,1.0,1-Back,1.0,z,Mon Feb 23 2026 11:22:51 GMT-0600 (Central Standard Time),288255.40000000596,045_m_m_n_a.png,O,z,943,11,,1959.2000000178814,286296.1999999881,7760,NNB,A,10
11,test,4,0.0,1-Back,1.0,m,Mon Feb 23 2026 11:22:51 GMT-0600 (Central Standard Time),289887.1999999881,047_o_f_n_a.png,O,m,611,12,,1626.5999999940395,288260.59999999404,7760,NNB,A,11
12,test,4,0.0,1-Back,1.0,m,Mon Feb 23 2026 11:22:51 GMT-0600 (Central Standard Time),291588.2999999821,053_o_m_n_a.png,O,m,674,13,,1694.3999999761581,289893.90000000596,7760,NNB,A,12
13,test,4,0.0,1-Back,1.0,m,Mon Feb 23 2026 11:22:51 GMT-0600 (Central Standard Time),293352.90000000596,047_o_f_n_a.png,O,m,743,14,,1756.9000000059605,291596.0,7760,NNB,A,13
14,test,4,0.0,1-Back,1.0,m,Mon Feb 23 2026 11:22:51 GMT-0600 (Central Standard Time),294953.7999999821,010_y_f_n_a.png,O,m,567,15,,1594.199999988079,293359.59999999404,7760,NNB,A,14
15,test,4,1.0,1-Back,1.0,z,Mon Feb 23 2026 11:22:51 GMT-0600 (Central Standard Time),296669.7999999821,010_y_f_n_a.png,O,z,699,16,,1709.0999999940395,294960.6999999881,7760,NNB,A,15
16,test,4,0.0,1-Back,1.0,m,Mon Feb 23 2026 11:22:51 GMT-0600 (Central Standard Time),298219.5,043_m_f_n_a.png,O,m,525,17,,1544.9000000059605,296674.59999999404,7760,NNB,A,16
17,test,4,1.0,1-Back,1.0,z,Mon Feb 23 2026 11:22:51 GMT-0600 (Central Standard Time),299951.2999999821,043_m_f_n_a.png,O,z,710,18,,1726.0,298225.2999999821,7760,NNB,A,17
0,test,5,1.0,1-Back,,,Mon Feb 23 2026 11:22:51 GMT-0600 (Central Standard Time),299951.2999999821,053_o_m_n_a.png,O,space,1627,1,,1726.0,298225.2999999821,7760,NNB,A,0
0,test,5,1.0,1-Back,0.0,z,Mon Feb 23 2026 11:22:51 GMT-0600 (Central Standard Time),305099.40000000596,053_o_m_n_a.png,O,m,466,2,,1491.0,303608.40000000596,7760,NNB,A,1
0,test,5,0.0,1-Back,0.0,m,Mon Feb 23 2026 11:22:51 GMT-0600 (Central Standard Time),306682.6999999881,063_y_f_n_a.png,O,z,550,3,,1576.9000000059605,305105.7999999821,7760,NNB,A,2
1,test,5,0.0,1-Back,1.0,m,Mon Feb 23 2026 11:22:51 GMT-0600 (Central Standard Time),308698.0,041_y_m_n_a.png,O,m,983,4,,2007.800000011921,306690.1999999881,7760,NNB,A,3
2,test,5,0.0,1-Back,1.0,m,Mon Feb 23 2026 11:22:51 GMT-0600 (Central Standard Time),310897.5,063_y_f_n_a.png,O,m,1167,5,,2192.800000011921,308704.6999999881,7760,NNB,A,4
3,test,5,0.0,1-Back,1.0,m,Mon Feb 23 2026 11:22:51 GMT-0600 (Central Standard Time),312646.59999999404,058_m_m_n_a.png,O,m,728,6,,1742.5,310904.09999999404,7760,NNB,A,5
3,test,5,1.0,1-Back,0.0,z,Mon Feb 23 2026 11:22:51 GMT-0600 (Central Standard Time),314563.09999999404,058_m_m_n_a.png,O,m,890,7,,1910.4000000059605,312652.6999999881,7760,NNB,A,6
4,test,5,0.0,1-Back,1.0,m,Mon Feb 23 2026 11:22:51 GMT-0600 (Central Standard Time),316312.90000000596,010_y_f_n_a.png,O,m,726,8,,1745.0,314567.90000000596,7760,NNB,A,7
5,test,5,0.0,1-Back,1.0,m,Mon Feb 23 2026 11:22:51 GMT-0600 (Central Standard Time),318029.7999999821,008_y_m_n_a.png,O,m,690,9,,1709.199999988079,316320.59999999404,7760,NNB,A,8
6,test,5,0.0,1-Back,1.0,m,Mon Feb 23 2026 11:22:51 GMT-0600 (Central Standard Time),319761.7999999821,010_y_f_n_a.png,O,m,710,10,,1725.699999988079,318036.09999999404,7760,NNB,A,9
7,test,5,0.0,1-Back,1.0,m,Mon Feb 23 2026 11:22:51 GMT-0600 (Central Standard Time),321394.59999999404,047_o_f_n_a.png,O,m,609,11,,1624.9000000059605,319769.6999999881,7760,NNB,A,10
8,test,5,1.0,1-Back,1.0,z,Mon Feb 23 2026 11:22:51 GMT-0600 (Central Standard Time),323194.09999999404,047_o_f_n_a.png,O,z,767,12,,1794.9000000059605,321399.1999999881,7760,NNB,A,11
9,test,5,0.0,1-Back,1.0,m,Mon Feb 23 2026 11:22:51 GMT-0600 (Central Standard Time),324810.59999999404,046_o_m_n_a.png,O,m,582,13,,1611.5,323199.09999999404,7760,NNB,A,12
10,test,5,0.0,1-Back,1.0,m,Mon Feb 23 2026 11:22:51 GMT-0600 (Central Standard Time),326442.7999999821,050_m_f_n_a.png,O,m,601,14,,1625.8999999761581,324816.90000000596,7760,NNB,A,13
10,test,5,1.0,1-Back,0.0,z,Mon Feb 23 2026 11:22:51 GMT-0600 (Central Standard Time),328293.7999999821,050_m_f_n_a.png,O,m,817,15,,1843.5,326450.2999999821,7760,NNB,A,14
11,test,5,0.0,1-Back,1.0,m,Mon Feb 23 2026 11:22:51 GMT-0600 (Central Standard Time),329924.6999999881,046_o_m_n_a.png,O,m,604,16,,1625.9000000059605,328298.7999999821,7760,NNB,A,15
12,test,5,0.0,1-Back,1.0,m,Mon Feb 23 2026 11:22:51 GMT-0600 (Central Standard Time),331624.6999999881,043_m_f_n_a.png,O,m,677,17,,1695.0,329929.6999999881,7760,NNB,A,16
13,test,5,0.0,1-Back,1.0,m,Mon Feb 23 2026 11:22:51 GMT-0600 (Central Standard Time),333256.7999999821,045_m_m_n_a.png,O,m,608,18,,1626.0999999940395,331630.6999999881,7760,NNB,A,17
0,prac,1,0.0,2-Back,,,Mon Feb 23 2026 11:22:51 GMT-0600 (Central Standard Time),333256.7999999821,008_y_m_n_a.png,O,space,3361,1,,1626.0999999940395,331630.6999999881,7760,NNB,A,0
0,prac,1,0.0,2-Back,,,Mon Feb 23 2026 11:22:51 GMT-0600 (Central Standard Time),333256.7999999821,043_m_f_n_a.png,O,space,3361,2,,1626.0999999940395,331630.6999999881,7760,NNB,A,0
1,prac,1,1.0,2-Back,1.0,m,Mon Feb 23 2026 11:22:51 GMT-0600 (Central Standard Time),431892.59999999404,046_o_m_n_a.png,O,m,848,3,,1641.800000011921,430250.7999999821,7760,NNB,A,1
2,prac,1,0.0,2-Back,1.0,m,Mon Feb 23 2026 11:22:51 GMT-0600 (Central Standard Time),434459.40000000596,047_o_f_n_a.png,O,m,1760,4,,2558.7000000178814,431900.6999999881,7760,NNB,A,2
2,prac,1,0.0,2-Back,0.0,z,Mon Feb 23 2026 11:22:51 GMT-0600 (Central Standard Time),437243.2999999821,046_o_m_n_a.png,O,None,2009,5,,2777.899999976158,434465.40000000596,7760,NNB,A,3
2,prac,1,1.0,2-Back,0.0,z,Mon Feb 23 2026 11:22:51 GMT-0600 (Central Standard Time),438956.59999999404,047_o_f_n_a.png,O,m,937,6,,1706.9000000059605,437249.6999999881,7760,NNB,A,4
3,prac,1,0.0,2-Back,1.0,m,Mon Feb 23 2026 11:22:51 GMT-0600 (Central Standard Time),440990.09999999404,045_m_m_n_a.png,O,m,1236,7,,2025.800000011921,438964.2999999821,7760,NNB,A,5
3,prac,1,0.0,2-Back,0.0,m,Mon Feb 23 2026 11:22:51 GMT-0600 (Central Standard Time),443789.90000000596,053_o_m_n_a.png,O,None,2005,8,,2792.300000011921,440997.59999999404,7760,NNB,A,6
4,prac,1,0.0,2-Back,1.0,m,Mon Feb 23 2026 11:22:51 GMT-0600 (Central Standard Time),444688.7999999821,010_y_f_n_a.png,O,m,73,9,,891.3999999761581,443797.40000000596,7760,NNB,A,7
4,prac,1,1.0,2-Back,0.0,z,Mon Feb 23 2026 11:22:51 GMT-0600 (Central Standard Time),447470.59999999404,053_o_m_n_a.png,O,None,2009,10,,2774.300000011921,444696.2999999821,7760,NNB,A,8
5,prac,1,0.0,2-Back,1.0,m,Mon Feb 23 2026 11:22:51 GMT-0600 (Central Standard Time),449188.6999999881,063_y_f_n_a.png,O,m,913,11,,1708.9000000059605,447479.7999999821,7760,NNB,A,9
5,prac,1,0.0,2-Back,0.0,m,Mon Feb 23 2026 11:22:51 GMT-0600 (Central Standard Time),451969.09999999404,045_m_m_n_a.png,O,None,2006,12,,2772.0999999940395,449197.0,7760,NNB,A,10
0,prac,2,0.0,2-Back,,,Mon Feb 23 2026 11:22:51 GMT-0600 (Central Standard Time),451969.09999999404,008_y_m_n_a.png,O,a,3599,1,,2772.0999999940395,449197.0,7760,NNB,A,0
0,prac,2,0.0,2-Back,,,Mon Feb 23 2026 11:22:51 GMT-0600 (Central Standard Time),451969.09999999404,043_m_f_n_a.png,O,a,3599,2,,2772.0999999940395,449197.0,7760,NNB,A,0
0,prac,2,1.0,2-Back,0.0,m,Mon Feb 23 2026 11:22:51 GMT-0600 (Central Standard Time),463451.40000000596,046_o_m_n_a.png,O,None,2009,3,,2777.4000000059605,460674.0,7760,NNB,A,1
0,prac,2,0.0,2-Back,0.0,m,Mon Feb 23 2026 11:22:51 GMT-0600 (Central Standard Time),466232.59999999404,047_o_f_n_a.png,O,None,2007,4,,2772.800000011921,463459.7999999821,7760,NNB,A,2
0,prac,2,0.0,2-Back,0.0,z,Mon Feb 23 2026 11:22:51 GMT-0600 (Central Standard Time),469014.2999999821,046_o_m_n_a.png,O,None,2007,5,,2774.5999999940395,466239.6999999881,7760,NNB,A,3
0,prac,2,1.0,2-Back,0.0,z,Mon Feb 23 2026 11:22:51 GMT-0600 (Central Standard Time),471797.40000000596,047_o_f_n_a.png,O,None,2008,6,,2774.300000011921,469023.09999999404,7760,NNB,A,4
1,prac,2,0.0,2-Back,1.0,m,Mon Feb 23 2026 11:22:51 GMT-0600 (Central Standard Time),473379.7999999821,045_m_m_n_a.png,O,m,811,7,,1572.2999999821186,471807.5,7760,NNB,A,5
1,prac,2,0.0,2-Back,0.0,m,Mon Feb 23 2026 11:22:51 GMT-0600 (Central Standard Time),476161.40000000596,053_o_m_n_a.png,O,None,2004,8,,2770.600000023842,473390.7999999821,7760,NNB,A,6
2,prac,2,0.0,2-Back,1.0,m,Mon Feb 23 2026 11:22:51 GMT-0600 (Central Standard Time),477079.0,010_y_f_n_a.png,O,m,129,9,,909.5999999940395,476169.40000000596,7760,NNB,A,7
3,prac,2,1.0,2-Back,1.0,z,Mon Feb 23 2026 11:22:51 GMT-0600 (Central Standard Time),479349.40000000596,053_o_m_n_a.png,O,z,1498,10,,2259.300000011921,477090.09999999404,7760,NNB,A,8
3,prac,2,0.0,2-Back,0.0,m,Mon Feb 23 2026 11:22:51 GMT-0600 (Central Standard Time),482126.90000000596,063_y_f_n_a.png,O,None,2006,11,,2772.300000011921,479354.59999999404,7760,NNB,A,9
4,prac,2,0.0,2-Back,1.0,m,Mon Feb 23 2026 11:22:51 GMT-0600 (Central Standard Time),483776.6999999881,045_m_m_n_a.png,O,m,871,12,,1644.2999999821186,482132.40000000596,7760,NNB,A,10
0,test,1,0.0,2-Back,,,Mon Feb 23 2026 11:22:51 GMT-0600 (Central Standard Time),483776.6999999881,041_y_m_n_a.png,O,space,9089,1,,1644.2999999821186,482132.40000000596,7760,NNB,A,0
0,test,1,0.0,2-Back,,,Mon Feb 23 2026 11:22:51 GMT-0600 (Central Standard Time),483776.6999999881,041_y_m_n_a.png,O,space,9089,2,,1644.2999999821186,482132.40000000596,7760,NNB,A,0
1,test,1,0.0,2-Back,1.0,m,Mon Feb 23 2026 11:22:51 GMT-0600 (Central Standard Time),505669.5,047_o_f_n_a.png,O,m,556,3,,1572.7000000178814,504096.7999999821,7760,NNB,A,1
1,test,1,0.0,2-Back,0.0,m,Mon Feb 23 2026 11:22:51 GMT-0600 (Central Standard Time),508701.5,058_m_m_n_a.png,O,None,2015,4,,3025.0,505676.5,7760,NNB,A,2
2,test,1,1.0,2-Back,1.0,z,Mon Feb 23 2026 11:22:51 GMT-0600 (Central Standard Time),510902.40000000596,047_o_f_n_a.png,O,z,1173,5,,2194.100000023842,508708.2999999821,7760,NNB,A,3
3,test,1,0.0,2-Back,1.0,m,Mon Feb 23 2026 11:22:51 GMT-0600 (Central Standard Time),512999.90000000596,063_y_f_n_a.png,O,m,1068,6,,2091.0,510908.90000000596,7760,NNB,A,4
3,test,1,0.0,2-Back,0.0,m,Mon Feb 23 2026 11:22:51 GMT-0600 (Central Standard Time),516032.7999999821,058_m_m_n_a.png,O,None,2013,7,,3026.0999999940395,513006.6999999881,7760,NNB,A,5
4,test,1,1.0,2-Back,1.0,z,Mon Feb 23 2026 11:22:51 GMT-0600 (Central Standard Time),518149.5,063_y_f_n_a.png,O,z,1090,8,,2109.9000000059605,516039.59999999404,7760,NNB,A,6
5,test,1,0.0,2-Back,1.0,m,Mon Feb 23 2026 11:22:51 GMT-0600 (Central Standard Time),520647.2999999821,008_y_m_n_a.png,O,m,1470,9,,2490.5999999940395,518156.6999999881,7760,NNB,A,7
6,test,1,0.0,2-Back,1.0,m,Mon Feb 23 2026 11:22:51 GMT-0600 (Central Standard Time),523430.5,044_o_f_n_a.png,O,m,1765,10,,2776.9000000059605,520653.59999999404,7760,NNB,A,8
7,test,1,1.0,2-Back,1.0,z,Mon Feb 23 2026 11:22:51 GMT-0600 (Central Standard Time),525481.0,008_y_m_n_a.png,O,z,1020,11,,2045.0,523436.0,7760,NNB,A,9
7,test,1,0.0,2-Back,0.0,m,Mon Feb 23 2026 11:22:51 GMT-0600 (Central Standard Time),528498.099999994,043_m_f_n_a.png,O,None,2002,12,,3011.0999999940395,525487.0,7760,NNB,A,10
7,test,1,0.0,2-Back,0.0,m,Mon Feb 23 2026 11:22:51 GMT-0600 (Central Standard Time),530910.099999994,043_m_f_n_a.png,O,z,1386,13,,2404.9000000059605,528505.1999999881,7760,NNB,A,11
7,test,1,0.0,2-Back,0.0,m,Mon Feb 23 2026 11:22:51 GMT-0600 (Central Standard Time),533943.099999994,046_o_m_n_a.png,O,None,2015,14,,3029.800000011921,530913.2999999821,7760,NNB,A,12
8,test,1,0.0,2-Back,1.0,m,Mon Feb 23 2026 11:22:51 GMT-0600 (Central Standard Time),535975.0,044_o_f_n_a.png,O,m,1001,15,,2025.800000011921,533949.1999999881,7760,NNB,A,13
9,test,1,1.0,2-Back,1.0,z,Mon Feb 23 2026 11:22:51 GMT-0600 (Central Standard Time),537959.6999999881,046_o_m_n_a.png,O,z,955,16,,1979.5,535980.1999999881,7760,NNB,A,14
10,test,1,0.0,2-Back,1.0,m,Mon Feb 23 2026 11:22:51 GMT-0600 (Central Standard Time),540724.5,050_m_f_n_a.png,O,m,1748,17,,2759.4000000059605,537965.099999994,7760,NNB,A,15
10,test,1,0.0,2-Back,0.0,m,Mon Feb 23 2026 11:22:51 GMT-0600 (Central Standard Time),543757.0,045_m_m_n_a.png,O,None,2016,18,,3026.300000011921,540730.6999999881,7760,NNB,A,16
0,test,2,0.0,2-Back,,,Mon Feb 23 2026 11:22:51 GMT-0600 (Central Standard Time),543757.0,045_m_m_n_a.png,O,space,3566,1,,3026.300000011921,540730.6999999881,7760,NNB,A,0
0,test,2,0.0,2-Back,,,Mon Feb 23 2026 11:22:51 GMT-0600 (Central Standard Time),543757.0,010_y_f_n_a.png,O,space,3566,2,,3026.300000011921,540730.6999999881,7760,NNB,A,0
0,test,2,1.0,2-Back,0.0,z,Mon Feb 23 2026 11:22:51 GMT-0600 (Central Standard Time),554587.0,045_m_m_n_a.png,O,m,1152,3,,2177.2000000178814,552409.7999999821,7760,NNB,A,1
1,test,2,0.0,2-Back,1.0,m,Mon Feb 23 2026 11:22:51 GMT-0600 (Central Standard Time),557135.400000006,050_m_f_n_a.png,O,m,1519,4,,2543.5,554591.900000006,7760,NNB,A,2
1,test,2,0.0,2-Back,0.0,m,Mon Feb 23 2026 11:22:51 GMT-0600 (Central Standard Time),559834.599999994,010_y_f_n_a.png,O,z,1665,5,,2694.5999999940395,557140.0,7760,NNB,A,3
2,test,2,0.0,2-Back,1.0,m,Mon Feb 23 2026 11:22:51 GMT-0600 (Central Standard Time),562536.900000006,046_o_m_n_a.png,O,m,1672,6,,2699.7000000178814,559837.1999999881,7760,NNB,A,4
2,test,2,0.0,2-Back,0.0,m,Mon Feb 23 2026 11:22:51 GMT-0600 (Central Standard Time),564966.1999999881,063_y_f_n_a.png,O,z,1412,7,,2422.9000000059605,562543.2999999821,7760,NNB,A,5
3,test,2,1.0,2-Back,1.0,z,Mon Feb 23 2026 11:22:51 GMT-0600 (Central Standard Time),567333.7999999821,046_o_m_n_a.png,O,z,1340,8,,2360.5999999940395,564973.1999999881,7760,NNB,A,6
3,test,2,0.0,2-Back,0.0,m,Mon Feb 23 2026 11:22:51 GMT-0600 (Central Standard Time),570365.6999999881,008_y_m_n_a.png,O,None,2017,9,,3027.9000000059605,567337.7999999821,7760,NNB,A,7
3,test,2,0.0,2-Back,0.0,m,Mon Feb 23 2026 11:22:51 GMT-0600 (Central Standard Time),572731.6999999881,008_y_m_n_a.png,O,z,1340,10,,2359.199999988079,570372.5,7760,NNB,A,8
4,test,2,0.0,2-Back,1.0,m,Mon Feb 23 2026 11:22:51 GMT-0600 (Central Standard Time),575296.5,043_m_f_n_a.png,O,m,1530,11,,2558.5999999940395,572737.900000006,7760,NNB,A,9
5,test,2,0.0,2-Back,1.0,m,Mon Feb 23 2026 11:22:51 GMT-0600 (Central Standard Time),577863.099999994,010_y_f_n_a.png,O,m,1546,12,,2559.0,575304.099999994,7760,NNB,A,10
6,test,2,1.0,2-Back,1.0,z,Mon Feb 23 2026 11:22:51 GMT-0600 (Central Standard Time),579797.6999999881,043_m_f_n_a.png,O,z,918,13,,1927.5999999940395,577870.099999994,7760,NNB,A,11
7,test,2,0.0,2-Back,1.0,m,Mon Feb 23 2026 11:22:51 GMT-0600 (Central Standard Time),582128.0,053_o_m_n_a.png,O,m,1303,14,,2324.5,579803.5,7760,NNB,A,12
8,test,2,0.0,2-Back,1.0,m,Mon Feb 23 2026 11:22:51 GMT-0600 (Central Standard Time),584877.400000006,053_o_m_n_a.png,O,m,1732,15,,2743.100000023842,582134.2999999821,7760,NNB,A,13
9,test,2,0.0,2-Back,1.0,m,Mon Feb 23 2026 11:22:51 GMT-0600 (Central Standard Time),586943.599999994,044_o_f_n_a.png,O,m,1038,16,,2060.9000000059605,584882.6999999881,7760,NNB,A,14
10,test,2,0.0,2-Back,1.0,m,Mon Feb 23 2026 11:22:51 GMT-0600 (Central Standard Time),589192.7999999821,058_m_m_n_a.png,O,m,1218,17,,2243.699999988079,586949.099999994,7760,NNB,A,15
11,test,2,1.0,2-Back,1.0,z,Mon Feb 23 2026 11:22:51 GMT-0600 (Central Standard Time),590908.2999999821,044_o_f_n_a.png,O,z,689,18,,1709.3999999761581,589198.900000006,7760,NNB,A,16
0,test,3,1.0,2-Back,,,Mon Feb 23 2026 11:22:51 GMT-0600 (Central Standard Time),590908.2999999821,041_y_m_n_a.png,O,space,2070,1,,1709.3999999761581,589198.900000006,7760,NNB,A,0
0,test,3,1.0,2-Back,,,Mon Feb 23 2026 11:22:51 GMT-0600 (Central Standard Time),590908.2999999821,041_y_m_n_a.png,O,space,2070,2,,1709.3999999761581,589198.900000006,7760,NNB,A,0
1,test,3,0.0,2-Back,1.0,m,Mon Feb 23 2026 11:22:51 GMT-0600 (Central Standard Time),600389.400000006,044_o_f_n_a.png,O,m,1305,3,,2327.300000011921,598062.099999994,7760,NNB,A,1
1,test,3,0.0,2-Back,0.0,m,Mon Feb 23 2026 11:22:51 GMT-0600 (Central Standard Time),602688.5,045_m_m_n_a.png,O,z,1269,4,,2293.4000000059605,600395.099999994,7760,NNB,A,2
1,test,3,1.0,2-Back,0.0,z,Mon Feb 23 2026 11:22:51 GMT-0600 (Central Standard Time),604821.400000006,044_o_f_n_a.png,O,m,1105,5,,2126.7000000178814,602694.6999999881,7760,NNB,A,3
2,test,3,0.0,2-Back,1.0,m,Mon Feb 23 2026 11:22:51 GMT-0600 (Central Standard Time),606921.0,008_y_m_n_a.png,O,m,1078,6,,2092.5999999940395,604828.400000006,7760,NNB,A,4
3,test,3,0.0,2-Back,1.0,m,Mon Feb 23 2026 11:22:51 GMT-0600 (Central Standard Time),609186.400000006,045_m_m_n_a.png,O,m,1233,7,,2257.600000023842,606928.7999999821,7760,NNB,A,5
3,test,3,1.0,2-Back,0.0,z,Mon Feb 23 2026 11:22:51 GMT-0600 (Central Standard Time),612218.6999999881,008_y_m_n_a.png,O,None,2016,8,,3024.7999999821186,609193.900000006,7760,NNB,A,6
4,test,3,0.0,2-Back,1.0,m,Mon Feb 23 2026 11:22:51 GMT-0600 (Central Standard Time),614769.1999999881,010_y_f_n_a.png,O,m,1529,9,,2544.9000000059605,612224.2999999821,7760,NNB,A,7
5,test,3,0.0,2-Back,1.0,m,Mon Feb 23 2026 11:22:51 GMT-0600 (Central Standard Time),616717.400000006,058_m_m_n_a.png,O,m,930,10,,1939.7000000178814,614777.6999999881,7760,NNB,A,8
6,test,3,1.0,2-Back,1.0,z,Mon Feb 23 2026 11:22:51 GMT-0600 (Central Standard Time),618500.5,010_y_f_n_a.png,O,z,764,11,,1775.5,616725.0,7760,NNB,A,9
7,test,3,1.0,2-Back,1.0,z,Mon Feb 23 2026 11:22:51 GMT-0600 (Central Standard Time),620548.5,058_m_m_n_a.png,O,z,1030,12,,2041.300000011921,618507.1999999881,7760,NNB,A,10
8,test,3,0.0,2-Back,1.0,m,Mon Feb 23 2026 11:22:51 GMT-0600 (Central Standard Time),622414.900000006,044_o_f_n_a.png,O,m,837,13,,1860.9000000059605,620554.0,7760,NNB,A,11
9,test,3,0.0,2-Back,1.0,m,Mon Feb 23 2026 11:22:51 GMT-0600 (Central Standard Time),624332.400000006,050_m_f_n_a.png,O,m,891,14,,1911.5,622420.900000006,7760,NNB,A,12
10,test,3,0.0,2-Back,1.0,m,Mon Feb 23 2026 11:22:51 GMT-0600 (Central Standard Time),626264.5,046_o_m_n_a.png,O,m,902,15,,1924.800000011921,624339.6999999881,7760,NNB,A,13
11,test,3,1.0,2-Back,1.0,z,Mon Feb 23 2026 11:22:51 GMT-0600 (Central Standard Time),628079.7999999821,050_m_f_n_a.png,O,z,794,16,,1808.7999999821186,626271.0,7760,NNB,A,14
12,test,3,0.0,2-Back,1.0,m,Mon Feb 23 2026 11:22:51 GMT-0600 (Central Standard Time),629895.900000006,047_o_f_n_a.png,O,m,794,17,,1810.4000000059605,628085.5,7760,NNB,A,15
12,test,3,0.0,2-Back,0.0,m,Mon Feb 23 2026 11:22:51 GMT-0600 (Central Standard Time),632395.7999999821,047_o_f_n_a.png,O,z,1482,18,,2490.0,629905.7999999821,7760,NNB,A,16
0,test,4,0.0,2-Back,,,Mon Feb 23 2026 11:22:51 GMT-0600 (Central Standard Time),632395.7999999821,053_o_m_n_a.png,O,space,1806,1,,2490.0,629905.7999999821,7760,NNB,A,0
0,test,4,0.0,2-Back,,,Mon Feb 23 2026 11:22:51 GMT-0600 (Central Standard Time),632395.7999999821,063_y_f_n_a.png,O,space,1806,2,,2490.0,629905.7999999821,7760,NNB,A,0
1,test,4,1.0,2-Back,1.0,z,Mon Feb 23 2026 11:22:51 GMT-0600 (Central Standard Time),641392.5,053_o_m_n_a.png,O,z,1060,3,,2075.7000000178814,639316.7999999821,7760,NNB,A,1
1,test,4,1.0,2-Back,0.0,z,Mon Feb 23 2026 11:22:51 GMT-0600 (Central Standard Time),642957.599999994,063_y_f_n_a.png,O,m,544,4,,1557.300000011921,641400.2999999821,7760,NNB,A,2
2,test,4,0.0,2-Back,1.0,m,Mon Feb 23 2026 11:22:51 GMT-0600 (Central Standard Time),644992.5,044_o_f_n_a.png,O,m,1003,5,,2032.0999999940395,642960.400000006,7760,NNB,A,3
2,test,4,0.0,2-Back,0.0,m,Mon Feb 23 2026 11:22:51 GMT-0600 (Central Standard Time),647891.0,044_o_f_n_a.png,O,z,1874,6,,2892.9000000059605,644998.099999994,7760,NNB,A,4
3,test,4,0.0,2-Back,1.0,m,Mon Feb 23 2026 11:22:51 GMT-0600 (Central Standard Time),650905.599999994,043_m_f_n_a.png,O,m,1991,7,,3005.9000000059605,647899.6999999881,7760,NNB,A,5
4,test,4,0.0,2-Back,1.0,m,Mon Feb 23 2026 11:22:51 GMT-0600 (Central Standard Time),652905.6999999881,008_y_m_n_a.png,O,m,965,8,,1995.699999988079,650910.0,7760,NNB,A,6
5,test,4,1.0,2-Back,1.0,z,Mon Feb 23 2026 11:22:51 GMT-0600 (Central Standard Time),654937.2999999821,043_m_f_n_a.png,O,z,1001,9,,2027.8999999761581,652909.400000006,7760,NNB,A,7
6,test,4,0.0,2-Back,1.0,m,Mon Feb 23 2026 11:22:51 GMT-0600 (Central Standard Time),656839.0,058_m_m_n_a.png,O,m,881,10,,1895.4000000059605,654943.599999994,7760,NNB,A,8
7,test,4,0.0,2-Back,1.0,m,Mon Feb 23 2026 11:22:51 GMT-0600 (Central Standard Time),658787.5,008_y_m_n_a.png,O,m,917,11,,1941.0,656846.5,7760,NNB,A,9
7,test,4,0.0,2-Back,0.0,m,Mon Feb 23 2026 11:22:51 GMT-0600 (Central Standard Time),660620.6999999881,047_o_f_n_a.png,O,z,801,12,,1825.699999988079,658795.0,7760,NNB,A,10
8,test,4,0.0,2-Back,1.0,m,Mon Feb 23 2026 11:22:51 GMT-0600 (Central Standard Time),662668.6999999881,041_y_m_n_a.png,O,m,1024,13,,2041.9000000059605,660626.7999999821,7760,NNB,A,11
9,test,4,1.0,2-Back,1.0,z,Mon Feb 23 2026 11:22:51 GMT-0600 (Central Standard Time),664636.599999994,047_o_f_n_a.png,O,z,942,14,,1964.199999988079,662672.400000006,7760,NNB,A,12
9,test,4,1.0,2-Back,0.0,z,Mon Feb 23 2026 11:22:51 GMT-0600 (Central Standard Time),666901.099999994,041_y_m_n_a.png,O,m,1239,15,,2258.300000011921,664642.7999999821,7760,NNB,A,13
10,test,4,0.0,2-Back,1.0,m,Mon Feb 23 2026 11:22:51 GMT-0600 (Central Standard Time),669101.1999999881,045_m_m_n_a.png,O,m,1166,16,,2194.5999999940395,666906.599999994,7760,NNB,A,14
11,test,4,0.0,2-Back,1.0,m,Mon Feb 23 2026 11:22:51 GMT-0600 (Central Standard Time),671216.2999999821,050_m_f_n_a.png,O,m,1085,17,,2106.5999999940395,669109.6999999881,7760,NNB,A,15
12,test,4,1.0,2-Back,1.0,z,Mon Feb 23 2026 11:22:51 GMT-0600 (Central Standard Time),672965.900000006,045_m_m_n_a.png,O,z,721,18,,1743.0,671222.900000006,7760,NNB,A,16
0,test,5,1.0,2-Back,,,Mon Feb 23 2026 11:22:51 GMT-0600 (Central Standard Time),672965.900000006,041_y_m_n_a.png,O,space,1636,1,,1743.0,671222.900000006,7760,NNB,A,0
0,test,5,1.0,2-Back,,,Mon Feb 23 2026 11:22:51 GMT-0600 (Central Standard Time),672965.900000006,050_m_f_n_a.png,O,space,1636,2,,1743.0,671222.900000006,7760,NNB,A,0
1,test,5,1.0,2-Back,1.0,z,Mon Feb 23 2026 11:22:51 GMT-0600 (Central Standard Time),682396.5,041_y_m_n_a.png,O,z,1706,3,,2725.800000011921,679670.6999999881,7760,NNB,A,1
2,test,5,1.0,2-Back,1.0,z,Mon Feb 23 2026 11:22:51 GMT-0600 (Central Standard Time),684878.099999994,050_m_f_n_a.png,O,z,1455,4,,2475.0999999940395,682403.0,7760,NNB,A,2
3,test,5,0.0,2-Back,1.0,m,Mon Feb 23 2026 11:22:51 GMT-0600 (Central Standard Time),686728.099999994,047_o_f_n_a.png,O,m,827,5,,1843.4000000059605,684884.6999999881,7760,NNB,A,3
3,test,5,0.0,2-Back,0.0,m,Mon Feb 23 2026 11:22:51 GMT-0600 (Central Standard Time),688928.400000006,041_y_m_n_a.png,O,z,1178,6,,2194.2000000178814,686734.1999999881,7760,NNB,A,4
4,test,5,0.0,2-Back,1.0,m,Mon Feb 23 2026 11:22:51 GMT-0600 (Central Standard Time),690795.1999999881,010_y_f_n_a.png,O,m,835,7,,1862.7999999821186,688932.400000006,7760,NNB,A,5
4,test,5,0.0,2-Back,0.0,m,Mon Feb 23 2026 11:22:51 GMT-0600 (Central Standard Time),692892.7999999821,047_o_f_n_a.png,O,z,1070,8,,2091.699999988079,690801.099999994,7760,NNB,A,6
5,test,5,1.0,2-Back,1.0,z,Mon Feb 23 2026 11:22:51 GMT-0600 (Central Standard Time),694993.1999999881,010_y_f_n_a.png,O,z,1069,9,,2095.199999988079,692898.0,7760,NNB,A,7
6,test,5,0.0,2-Back,1.0,m,Mon Feb 23 2026 11:22:51 GMT-0600 (Central Standard Time),696758.5,046_o_m_n_a.png,O,m,739,10,,1762.4000000059605,694996.099999994,7760,NNB,A,8
7,test,5,0.0,2-Back,1.0,m,Mon Feb 23 2026 11:22:51 GMT-0600 (Central Standard Time),698692.6999999881,043_m_f_n_a.png,O,m,917,11,,1927.5999999940395,696765.099999994,7760,NNB,A,9
8,test,5,0.0,2-Back,1.0,m,Mon Feb 23 2026 11:22:51 GMT-0600 (Central Standard Time),700541.599999994,058_m_m_n_a.png,O,m,823,12,,1844.699999988079,698696.900000006,7760,NNB,A,10
9,test,5,0.0,2-Back,1.0,m,Mon Feb 23 2026 11:22:51 GMT-0600 (Central Standard Time),702972.400000006,046_o_m_n_a.png,O,m,1406,13,,2425.4000000059605,700547.0,7760,NNB,A,11
10,test,5,1.0,2-Back,1.0,z,Mon Feb 23 2026 11:22:51 GMT-0600 (Central Standard Time),704455.7999999821,058_m_m_n_a.png,O,z,462,14,,1478.0,702977.7999999821,7760,NNB,A,12
11,test,5,0.0,2-Back,1.0,m,Mon Feb 23 2026 11:22:51 GMT-0600 (Central Standard Time),706155.7999999821,063_y_f_n_a.png,O,m,674,15,,1695.199999988079,704460.599999994,7760,NNB,A,13
12,test,5,0.0,2-Back,1.0,m,Mon Feb 23 2026 11:22:51 GMT-0600 (Central Standard Time),708155.900000006,053_o_m_n_a.png,O,m,966,16,,1994.5,706161.400000006,7760,NNB,A,14
13,test,5,0.0,2-Back,1.0,m,Mon Feb 23 2026 11:22:51 GMT-0600 (Central Standard Time),709973.0,043_m_f_n_a.png,O,m,783,17,,1812.2000000178814,708160.7999999821,7760,NNB,A,15
14,test,5,1.0,2-Back,1.0,z,Mon Feb 23 2026 11:22:51 GMT-0600 (Central Standard Time),711737.1999999881,053_o_m_n_a.png,O,z,744,18,,1758.0999999940395,709979.099999994,7760,NNB,A,16
