Number,acc_sum,block,block_c,block_cond,con_img,correct,correct_response,datetime,endtime,jitter,project,response,response_time,row_sel,session_number,start_end,starttime,subject_id,task,task_vers,trial
2,0,prac,1,A,circle.png,0,z,Thu Aug 21 2025 17:14:14 GMT-0500 (Central Daylight Time),78167.10000014305,2000,O,None,1515,2,1,4290.400000095367,73876.70000004768,7208,NTS,A,1
9,0,prac,1,A,circle.png,0,m,Thu Aug 21 2025 17:14:14 GMT-0500 (Central Daylight Time),80783.20000004768,1500,O,z,331,8,1,2605.5,78177.70000004768,7208,NTS,A,2
8,0,prac,1,A,circle.png,0,m,Thu Aug 21 2025 17:14:14 GMT-0500 (Central Daylight Time),84681.10000014305,1600,O,None,1516,7,1,3889.100000143051,80792.0,7208,NTS,A,3
3,1,prac,1,A,circle.png,1,z,Thu Aug 21 2025 17:14:14 GMT-0500 (Central Daylight Time),87413.90000009537,1200,O,z,760,3,1,2726.2999999523163,84687.60000014305,7208,NTS,A,4
4,2,prac,1,A,circle.png,1,z,Thu Aug 21 2025 17:14:14 GMT-0500 (Central Daylight Time),90831.20000004768,1400,O,z,1230,4,1,3408.5,87422.70000004768,7208,NTS,A,5
1,3,prac,1,A,circle.png,1,z,Thu Aug 21 2025 17:14:14 GMT-0500 (Central Daylight Time),93412.79999995232,1000,O,z,797,1,1,2575.2999999523163,90837.5,7208,NTS,A,6
9,4,prac,1,A,circle.png,1,m,Thu Aug 21 2025 17:14:14 GMT-0500 (Central Daylight Time),96428.5,1500,O,m,735,8,1,3008.5,93420.0,7208,NTS,A,7
6,5,prac,1,A,circle.png,1,m,Thu Aug 21 2025 17:14:14 GMT-0500 (Central Daylight Time),99961.0,1900,O,m,837,5,1,3522.7999999523163,96438.20000004768,7208,NTS,A,8
4,6,prac,1,A,circle.png,1,z,Thu Aug 21 2025 17:14:14 GMT-0500 (Central Daylight Time),102976.10000014305,1400,O,z,819,4,1,3006.4000000953674,99969.70000004768,7208,NTS,A,9
3,7,prac,1,A,circle.png,1,z,Thu Aug 21 2025 17:14:14 GMT-0500 (Central Daylight Time),105859.0,1200,O,z,884,3,1,2875.0999999046326,102983.90000009537,7208,NTS,A,10
7,8,prac,1,A,circle.png,1,m,Thu Aug 21 2025 17:14:14 GMT-0500 (Central Daylight Time),109139.60000014305,1700,O,m,783,6,1,3273.100000143051,105866.5,7208,NTS,A,11
2,9,prac,1,A,circle.png,1,z,Thu Aug 21 2025 17:14:14 GMT-0500 (Central Daylight Time),112688.40000009537,2000,O,z,759,2,1,3541.2000000476837,109147.20000004768,7208,NTS,A,12
4,0,prac,1,B,triangle.png,0,m,Thu Aug 21 2025 17:14:14 GMT-0500 (Central Daylight Time),141312.40000009537,1500,O,None,1516,4,1,3789.100000143051,137523.29999995232,7208,NTS,A,1
8,1,prac,1,B,triangle.png,1,m,Thu Aug 21 2025 17:14:14 GMT-0500 (Central Daylight Time),144244.29999995232,1200,O,m,939,7,1,2919.7999999523163,141324.5,7208,NTS,A,2
9,2,prac,1,B,triangle.png,1,z,Thu Aug 21 2025 17:14:14 GMT-0500 (Central Daylight Time),147311.20000004768,1400,O,z,878,8,1,3062.5999999046326,144248.60000014305,7208,NTS,A,3
3,3,prac,1,B,triangle.png,1,z,Thu Aug 21 2025 17:14:14 GMT-0500 (Central Daylight Time),150596.40000009537,1600,O,z,908,3,1,3276.2000000476837,147320.20000004768,7208,NTS,A,4
1,4,prac,1,B,triangle.png,1,z,Thu Aug 21 2025 17:14:14 GMT-0500 (Central Daylight Time),154025.20000004768,1900,O,z,734,1,1,3420.7999999523163,150604.40000009537,7208,NTS,A,5
6,5,prac,1,B,triangle.png,1,m,Thu Aug 21 2025 17:14:14 GMT-0500 (Central Daylight Time),156775.5,1000,O,m,970,5,1,2741.5,154034.0,7208,NTS,A,6
9,6,prac,1,B,triangle.png,1,z,Thu Aug 21 2025 17:14:14 GMT-0500 (Central Daylight Time),159706.60000014305,1400,O,z,741,8,1,2920.5,156786.10000014305,7208,NTS,A,7
7,7,prac,1,B,triangle.png,1,z,Thu Aug 21 2025 17:14:14 GMT-0500 (Central Daylight Time),163405.70000004768,2000,O,z,912,6,1,3690.5,159715.20000004768,7208,NTS,A,8
6,8,prac,1,B,triangle.png,1,m,Thu Aug 21 2025 17:14:14 GMT-0500 (Central Daylight Time),166038.29999995232,1000,O,m,839,5,1,2624.7999999523163,163413.5,7208,NTS,A,9
4,9,prac,1,B,triangle.png,1,m,Thu Aug 21 2025 17:14:14 GMT-0500 (Central Daylight Time),169254.10000014305,1500,O,m,922,4,1,3202.9000000953674,166051.20000004768,7208,NTS,A,10
2,10,prac,1,B,triangle.png,1,m,Thu Aug 21 2025 17:14:14 GMT-0500 (Central Daylight Time),172670.40000009537,1700,O,m,930,2,1,3410.2000000476837,169260.20000004768,7208,NTS,A,11
1,11,prac,1,B,triangle.png,1,z,Thu Aug 21 2025 17:14:14 GMT-0500 (Central Daylight Time),176203.5,1900,O,z,834,1,1,3527.0,172676.5,7208,NTS,A,12
1,1,test,1,A,circle.png,1,z,Thu Aug 21 2025 17:14:14 GMT-0500 (Central Daylight Time),196461.29999995232,1000,O,z,712,1,1,1725.7999999523163,194735.5,7208,NTS,A,1
6,2,test,1,A,circle.png,1,m,Thu Aug 21 2025 17:14:14 GMT-0500 (Central Daylight Time),199112.70000004768,1900,O,m,729,5,1,2644.9000000953674,196467.79999995232,7208,NTS,A,2
8,3,test,1,A,circle.png,1,m,Thu Aug 21 2025 17:14:14 GMT-0500 (Central Daylight Time),201544.10000014305,1600,O,m,805,7,1,2428.600000143051,199115.5,7208,NTS,A,3
8,4,test,1,A,circle.png,1,m,Thu Aug 21 2025 17:14:14 GMT-0500 (Central Daylight Time),203894.79999995232,1600,O,m,734,7,1,2344.699999809265,201550.10000014305,7208,NTS,A,4
6,5,test,1,A,circle.png,1,m,Thu Aug 21 2025 17:14:14 GMT-0500 (Central Daylight Time),206592.5,1900,O,m,779,5,1,2692.2000000476837,203900.29999995232,7208,NTS,A,5
6,6,test,1,A,circle.png,1,m,Thu Aug 21 2025 17:14:14 GMT-0500 (Central Daylight Time),209142.10000014305,1900,O,m,634,5,1,2545.4000000953674,206596.70000004768,7208,NTS,A,6
4,7,test,1,A,circle.png,1,z,Thu Aug 21 2025 17:14:14 GMT-0500 (Central Daylight Time),211708.60000014305,1400,O,z,1140,4,1,2561.100000143051,209147.5,7208,NTS,A,7
9,8,test,1,A,circle.png,1,m,Thu Aug 21 2025 17:14:14 GMT-0500 (Central Daylight Time),213923.40000009537,1500,O,m,692,8,1,2210.2000000476837,211713.20000004768,7208,NTS,A,8
2,9,test,1,A,circle.png,1,z,Thu Aug 21 2025 17:14:14 GMT-0500 (Central Daylight Time),216823.70000004768,2000,O,z,882,2,1,2895.9000000953674,213927.79999995232,7208,NTS,A,9
1,10,test,1,A,circle.png,1,z,Thu Aug 21 2025 17:14:14 GMT-0500 (Central Daylight Time),218538.29999995232,1000,O,z,692,1,1,1709.0999999046326,216829.20000004768,7208,NTS,A,10
6,11,test,1,A,circle.png,1,m,Thu Aug 21 2025 17:14:14 GMT-0500 (Central Daylight Time),221138.40000009537,1900,O,m,675,5,1,2593.9000000953674,218544.5,7208,NTS,A,11
3,12,test,1,A,circle.png,1,z,Thu Aug 21 2025 17:14:14 GMT-0500 (Central Daylight Time),223120.0,1200,O,z,760,3,1,1976.7999999523163,221143.20000004768,7208,NTS,A,12
1,13,test,1,A,circle.png,1,z,Thu Aug 21 2025 17:14:14 GMT-0500 (Central Daylight Time),225019.90000009537,1000,O,z,877,1,1,1897.1000001430511,223122.79999995232,7208,NTS,A,13
9,14,test,1,A,circle.png,1,m,Thu Aug 21 2025 17:14:14 GMT-0500 (Central Daylight Time),227335.40000009537,1500,O,m,788,8,1,2311.100000143051,225024.29999995232,7208,NTS,A,14
7,15,test,1,A,circle.png,1,m,Thu Aug 21 2025 17:14:14 GMT-0500 (Central Daylight Time),229702.20000004768,1700,O,m,649,6,1,2361.7999999523163,227340.40000009537,7208,NTS,A,15
3,16,test,1,A,circle.png,1,z,Thu Aug 21 2025 17:14:14 GMT-0500 (Central Daylight Time),231817.90000009537,1200,O,z,892,3,1,2110.0,229707.90000009537,7208,NTS,A,16
4,17,test,1,A,circle.png,1,z,Thu Aug 21 2025 17:14:14 GMT-0500 (Central Daylight Time),234302.0,1400,O,z,1055,4,1,2479.2000000476837,231822.79999995232,7208,NTS,A,17
4,18,test,1,A,circle.png,1,z,Thu Aug 21 2025 17:14:14 GMT-0500 (Central Daylight Time),236399.40000009537,1400,O,z,671,4,1,2094.9000000953674,234304.5,7208,NTS,A,18
2,19,test,1,A,circle.png,1,z,Thu Aug 21 2025 17:14:14 GMT-0500 (Central Daylight Time),239149.79999995232,2000,O,z,725,2,1,2745.2999999523163,236404.5,7208,NTS,A,19
9,20,test,1,A,circle.png,1,m,Thu Aug 21 2025 17:14:14 GMT-0500 (Central Daylight Time),241348.20000004768,1500,O,m,666,8,1,2194.0,239154.20000004768,7208,NTS,A,20
7,21,test,1,A,circle.png,1,m,Thu Aug 21 2025 17:14:14 GMT-0500 (Central Daylight Time),243747.20000004768,1700,O,m,675,6,1,2394.2999999523163,241352.90000009537,7208,NTS,A,21
2,22,test,1,A,circle.png,1,z,Thu Aug 21 2025 17:14:14 GMT-0500 (Central Daylight Time),246463.0,2000,O,z,687,2,1,2711.0999999046326,243751.90000009537,7208,NTS,A,22
8,23,test,1,A,circle.png,1,m,Thu Aug 21 2025 17:14:14 GMT-0500 (Central Daylight Time),248796.0,1600,O,m,700,7,1,2328.7999999523163,246467.20000004768,7208,NTS,A,23
4,24,test,1,A,circle.png,1,z,Thu Aug 21 2025 17:14:14 GMT-0500 (Central Daylight Time),251229.90000009537,1400,O,z,1008,4,1,2429.0,248800.90000009537,7208,NTS,A,24
4,1,test,1,B,triangle.png,1,m,Thu Aug 21 2025 17:14:14 GMT-0500 (Central Daylight Time),271255.60000014305,1000,O,m,1407,12,1,2426.100000143051,268829.5,7208,NTS,A,1
2,2,test,1,B,triangle.png,1,m,Thu Aug 21 2025 17:14:14 GMT-0500 (Central Daylight Time),273371.0,1200,O,m,893,10,1,2109.2000000476837,271261.7999999523,7208,NTS,A,2
7,3,test,1,B,triangle.png,1,z,Thu Aug 21 2025 17:14:14 GMT-0500 (Central Daylight Time),275852.60000014305,1600,O,z,849,14,1,2474.4000000953674,273378.2000000477,7208,NTS,A,3
9,4,test,1,B,triangle.png,1,z,Thu Aug 21 2025 17:14:14 GMT-0500 (Central Daylight Time),278585.10000014305,1900,O,z,811,16,1,2724.0,275861.10000014305,7208,NTS,A,4
9,5,test,1,B,triangle.png,1,z,Thu Aug 21 2025 17:14:14 GMT-0500 (Central Daylight Time),280885.7999999523,1400,O,z,870,8,1,2292.2999999523163,278593.5,7208,NTS,A,5
6,6,test,1,B,triangle.png,1,m,Thu Aug 21 2025 17:14:14 GMT-0500 (Central Daylight Time),282734.5,1000,O,m,817,5,1,1841.0999999046326,280893.40000009537,7208,NTS,A,6
9,7,test,1,B,triangle.png,1,z,Thu Aug 21 2025 17:14:14 GMT-0500 (Central Daylight Time),285600.60000014305,1900,O,z,941,16,1,2858.300000190735,282742.2999999523,7208,NTS,A,7
3,8,test,1,B,triangle.png,1,z,Thu Aug 21 2025 17:14:14 GMT-0500 (Central Daylight Time),288083.7999999523,1600,O,z,850,3,1,2477.5999999046326,285606.2000000477,7208,NTS,A,8
2,9,test,1,B,triangle.png,1,m,Thu Aug 21 2025 17:14:14 GMT-0500 (Central Daylight Time),290598.10000014305,1700,O,m,782,2,1,2508.4000000953674,288089.7000000477,7208,NTS,A,9
2,10,test,1,B,triangle.png,1,m,Thu Aug 21 2025 17:14:14 GMT-0500 (Central Daylight Time),292481.60000014305,1200,O,m,654,10,1,1878.2000000476837,290603.40000009537,7208,NTS,A,10
6,11,test,1,B,triangle.png,1,m,Thu Aug 21 2025 17:14:14 GMT-0500 (Central Daylight Time),294280.7999999523,1000,O,m,768,5,1,1792.6999998092651,292488.10000014305,7208,NTS,A,11
8,12,test,1,B,triangle.png,1,m,Thu Aug 21 2025 17:14:14 GMT-0500 (Central Daylight Time),296629.7000000477,1700,O,m,630,15,1,2343.2000000476837,294286.5,7208,NTS,A,12
8,13,test,1,B,triangle.png,1,m,Thu Aug 21 2025 17:14:14 GMT-0500 (Central Daylight Time),299229.7000000477,1700,O,m,868,15,1,2594.4000000953674,296635.2999999523,7208,NTS,A,13
1,14,test,1,B,triangle.png,1,z,Thu Aug 21 2025 17:14:14 GMT-0500 (Central Daylight Time),301895.5,1900,O,z,749,1,1,2661.399999856949,299234.10000014305,7208,NTS,A,14
3,15,test,1,B,triangle.png,1,z,Thu Aug 21 2025 17:14:14 GMT-0500 (Central Daylight Time),304793.60000014305,2000,O,z,868,11,1,2893.2000000476837,301900.40000009537,7208,NTS,A,15
1,16,test,1,B,triangle.png,1,z,Thu Aug 21 2025 17:14:14 GMT-0500 (Central Daylight Time),307043.90000009537,1400,O,z,816,9,1,2243.7000000476837,304800.2000000477,7208,NTS,A,16
8,17,test,1,B,triangle.png,1,m,Thu Aug 21 2025 17:14:14 GMT-0500 (Central Daylight Time),308911.2000000477,1200,O,m,650,7,1,1862.9000000953674,307048.2999999523,7208,NTS,A,17
7,18,test,1,B,triangle.png,1,z,Thu Aug 21 2025 17:14:14 GMT-0500 (Central Daylight Time),311493.2000000477,1600,O,z,959,14,1,2575.5999999046326,308917.60000014305,7208,NTS,A,18
3,19,test,1,B,triangle.png,1,z,Thu Aug 21 2025 17:14:14 GMT-0500 (Central Daylight Time),314325.0,2000,O,z,801,11,1,2827.2999999523163,311497.7000000477,7208,NTS,A,19
1,20,test,1,B,triangle.png,1,z,Thu Aug 21 2025 17:14:14 GMT-0500 (Central Daylight Time),316957.7000000477,1900,O,z,715,1,1,2627.7999999523163,314329.90000009537,7208,NTS,A,20
7,21,test,1,B,triangle.png,1,z,Thu Aug 21 2025 17:14:14 GMT-0500 (Central Daylight Time),320023.10000014305,2000,O,z,1048,6,1,3060.2000000476837,316962.90000009537,7208,NTS,A,21
4,22,test,1,B,triangle.png,1,m,Thu Aug 21 2025 17:14:14 GMT-0500 (Central Daylight Time),322321.90000009537,1500,O,m,777,4,1,2293.9000000953674,320028.0,7208,NTS,A,22
4,23,test,1,B,triangle.png,1,m,Thu Aug 21 2025 17:14:14 GMT-0500 (Central Daylight Time),324487.0,1500,O,m,644,4,1,2160.2999999523163,322326.7000000477,7208,NTS,A,23
6,24,test,1,B,triangle.png,1,m,Thu Aug 21 2025 17:14:14 GMT-0500 (Central Daylight Time),326787.2999999523,1500,O,m,776,13,1,2295.699999809265,324491.60000014305,7208,NTS,A,24
8,0,prac,1,C,triangle.png,0,m,Thu Aug 21 2025 17:14:14 GMT-0500 (Central Daylight Time),377371.5,1400,O,None,1514,7,1,3690.7999999523163,373680.7000000477,7208,NTS,A,1
2,0,prac,1,C,triangle.png,0,m,Thu Aug 21 2025 17:14:14 GMT-0500 (Central Daylight Time),381269.40000009537,1600,O,None,1517,2,1,3888.2000000476837,377381.2000000477,7208,NTS,A,2
8,1,prac,1,C,triangle.png,1,m,Thu Aug 21 2025 17:14:14 GMT-0500 (Central Daylight Time),384152.40000009537,1400,O,m,688,7,1,2873.9000000953674,381278.5,7208,NTS,A,3
1,2,prac,1,C,circle.png,1,z,Thu Aug 21 2025 17:14:14 GMT-0500 (Central Daylight Time),387721.60000014305,1700,O,z,1081,1,1,3560.100000143051,384161.5,7208,NTS,A,4
1,2,prac,1,C,circle.png,0,z,Thu Aug 21 2025 17:14:14 GMT-0500 (Central Daylight Time),391700.5,1700,O,None,1501,1,1,3974.2000000476837,387726.2999999523,7208,NTS,A,5
9,3,prac,1,C,circle.png,1,m,Thu Aug 21 2025 17:14:14 GMT-0500 (Central Daylight Time),395033.40000009537,1900,O,m,652,8,1,3324.4000000953674,391709.0,7208,NTS,A,6
2,3,prac,1,C,triangle.png,0,m,Thu Aug 21 2025 17:14:14 GMT-0500 (Central Daylight Time),398664.2000000477,1600,O,z,1237,2,1,3625.0,395039.2000000477,7208,NTS,A,7
3,3,prac,1,C,triangle.png,0,z,Thu Aug 21 2025 17:14:14 GMT-0500 (Central Daylight Time),402462.40000009537,1500,O,None,1515,3,1,3792.9000000953674,398669.5,7208,NTS,A,8
4,3,prac,1,C,circle.png,0,z,Thu Aug 21 2025 17:14:14 GMT-0500 (Central Daylight Time),405080.10000014305,1000,O,m,836,4,1,2606.4000000953674,402473.7000000477,7208,NTS,A,9
7,3,prac,1,C,triangle.png,0,z,Thu Aug 21 2025 17:14:14 GMT-0500 (Central Daylight Time),408577.7000000477,1200,O,None,1517,6,1,3488.4000000953674,405089.2999999523,7208,NTS,A,10
6,3,prac,1,C,circle.png,0,m,Thu Aug 21 2025 17:14:14 GMT-0500 (Central Daylight Time),412260.90000009537,2000,O,z,885,5,1,3674.9000000953674,408586.0,7208,NTS,A,11
6,4,prac,1,C,circle.png,1,m,Thu Aug 21 2025 17:14:14 GMT-0500 (Central Daylight Time),416492.60000014305,2000,O,m,1455,5,1,4224.5,412268.10000014305,7208,NTS,A,12
3,0,prac,2,C,triangle.png,0,z,Thu Aug 21 2025 17:14:14 GMT-0500 (Central Daylight Time),449032.40000009537,1500,O,None,1515,3,1,3791.7999999523163,445240.60000014305,7208,NTS,A,1
7,0,prac,2,C,triangle.png,0,z,Thu Aug 21 2025 17:14:14 GMT-0500 (Central Daylight Time),452197.90000009537,1200,O,m,1172,6,1,3157.2999999523163,449040.60000014305,7208,NTS,A,2
6,1,prac,2,C,circle.png,1,m,Thu Aug 21 2025 17:14:14 GMT-0500 (Central Daylight Time),456280.40000009537,2000,O,m,1293,5,1,4075.7999999523163,452204.60000014305,7208,NTS,A,3
2,1,prac,2,C,triangle.png,0,m,Thu Aug 21 2025 17:14:14 GMT-0500 (Central Daylight Time),459612.0,1600,O,z,949,2,1,3322.7999999523163,456289.2000000477,7208,NTS,A,4
3,2,prac,2,C,triangle.png,1,z,Thu Aug 21 2025 17:14:14 GMT-0500 (Central Daylight Time),463228.60000014305,1500,O,z,1339,3,1,3607.100000143051,459621.5,7208,NTS,A,5
2,3,prac,2,C,triangle.png,1,m,Thu Aug 21 2025 17:14:14 GMT-0500 (Central Daylight Time),466611.0,1600,O,m,1001,2,1,3376.5999999046326,463234.40000009537,7208,NTS,A,6
4,3,prac,2,C,circle.png,0,z,Thu Aug 21 2025 17:14:14 GMT-0500 (Central Daylight Time),469543.60000014305,1000,O,m,1138,4,1,2926.0,466617.60000014305,7208,NTS,A,7
1,4,prac,2,C,circle.png,1,z,Thu Aug 21 2025 17:14:14 GMT-0500 (Central Daylight Time),473307.7000000477,1700,O,z,1268,1,1,3759.7000000476837,469548.0,7208,NTS,A,8
9,5,prac,2,C,circle.png,1,m,Thu Aug 21 2025 17:14:14 GMT-0500 (Central Daylight Time),476905.60000014305,1900,O,m,907,8,1,3589.4000000953674,473316.2000000477,7208,NTS,A,9
1,6,prac,2,C,circle.png,1,z,Thu Aug 21 2025 17:14:14 GMT-0500 (Central Daylight Time),480406.0,1700,O,z,1022,1,1,3497.0,476909.0,7208,NTS,A,10
6,7,prac,2,C,circle.png,1,m,Thu Aug 21 2025 17:14:14 GMT-0500 (Central Daylight Time),484254.40000009537,2000,O,m,1054,5,1,3841.7000000476837,480412.7000000477,7208,NTS,A,11
8,8,prac,2,C,triangle.png,1,m,Thu Aug 21 2025 17:14:14 GMT-0500 (Central Daylight Time),487820.7999999523,1400,O,m,1383,7,1,3560.199999809265,484260.60000014305,7208,NTS,A,12
1,1,test,1,C,triangle.png,1,z,Thu Aug 21 2025 17:14:14 GMT-0500 (Central Daylight Time),531921.4000000954,1900,O,z,1129,17,1,3041.600000143051,528879.7999999523,7208,NTS,A,1
4,1,test,1,C,circle.png,0,z,Thu Aug 21 2025 17:14:14 GMT-0500 (Central Daylight Time),534404.7000000477,1400,O,m,1058,4,1,2477.4000000953674,531927.2999999523,7208,NTS,A,2
3,2,test,1,C,circle.png,1,z,Thu Aug 21 2025 17:14:14 GMT-0500 (Central Daylight Time),537320.100000143,1600,O,z,1289,19,1,2910.800000190735,534409.2999999523,7208,NTS,A,3
1,3,test,1,C,triangle.png,1,z,Thu Aug 21 2025 17:14:14 GMT-0500 (Central Daylight Time),540685.600000143,1900,O,z,1433,9,1,3361.0,537324.600000143,7208,NTS,A,4
6,3,test,1,C,triangle.png,0,m,Thu Aug 21 2025 17:14:14 GMT-0500 (Central Daylight Time),543218.2000000477,1000,O,None,1514,13,1,2527.2000000476837,540691.0,7208,NTS,A,5
2,4,test,1,C,circle.png,1,z,Thu Aug 21 2025 17:14:14 GMT-0500 (Central Daylight Time),546318.0,1700,O,z,1369,10,1,3093.899999856949,543224.100000143,7208,NTS,A,6
7,4,test,1,C,triangle.png,0,z,Thu Aug 21 2025 17:14:14 GMT-0500 (Central Daylight Time),549283.2999999523,1700,O,m,1245,6,1,2959.699999809265,546323.600000143,7208,NTS,A,7
8,5,test,1,C,triangle.png,1,m,Thu Aug 21 2025 17:14:14 GMT-0500 (Central Daylight Time),552182.5,1600,O,m,1275,7,1,2894.5999999046326,549287.9000000954,7208,NTS,A,8
9,6,test,1,C,circle.png,1,m,Thu Aug 21 2025 17:14:14 GMT-0500 (Central Daylight Time),555181.2000000477,1500,O,m,1474,8,1,2994.5,552186.7000000477,7208,NTS,A,9
8,7,test,1,C,triangle.png,1,m,Thu Aug 21 2025 17:14:14 GMT-0500 (Central Daylight Time),557848.2999999523,1600,O,m,1038,23,1,2661.5999999046326,555186.7000000477,7208,NTS,A,10
9,7,test,1,C,triangle.png,0,z,Thu Aug 21 2025 17:14:14 GMT-0500 (Central Daylight Time),560513.2000000477,1400,O,m,1249,16,1,2659.5,557853.7000000477,7208,NTS,A,11
4,8,test,1,C,triangle.png,1,m,Thu Aug 21 2025 17:14:14 GMT-0500 (Central Daylight Time),563430.2999999523,1500,O,m,1400,20,1,2911.2999999523163,560519.0,7208,NTS,A,12
6,9,test,1,C,circle.png,1,m,Thu Aug 21 2025 17:14:14 GMT-0500 (Central Daylight Time),566494.100000143,1900,O,m,1140,5,1,3058.100000143051,563436.0,7208,NTS,A,13
6,10,test,1,C,circle.png,1,m,Thu Aug 21 2025 17:14:14 GMT-0500 (Central Daylight Time),569327.7000000477,1900,O,m,916,21,1,2828.0999999046326,566499.600000143,7208,NTS,A,14
1,11,test,1,C,circle.png,1,z,Thu Aug 21 2025 17:14:14 GMT-0500 (Central Daylight Time),571408.5,1000,O,z,1052,1,1,2076.0,569332.5,7208,NTS,A,15
7,11,test,1,C,triangle.png,0,z,Thu Aug 21 2025 17:14:14 GMT-0500 (Central Daylight Time),574492.100000143,1700,O,m,1350,22,1,3078.7000000476837,571413.4000000954,7208,NTS,A,16
9,12,test,1,C,circle.png,1,m,Thu Aug 21 2025 17:14:14 GMT-0500 (Central Daylight Time),577174.100000143,1500,O,m,1166,24,1,2675.9000000953674,574498.2000000477,7208,NTS,A,17
8,12,test,1,C,circle.png,0,m,Thu Aug 21 2025 17:14:14 GMT-0500 (Central Daylight Time),579906.0,1200,O,None,1515,15,1,2727.399999856949,577178.600000143,7208,NTS,A,18
7,12,test,1,C,circle.png,0,m,Thu Aug 21 2025 17:14:14 GMT-0500 (Central Daylight Time),583439.7000000477,2000,O,None,1515,14,1,3529.2000000476837,579910.5,7208,NTS,A,19
4,12,test,1,C,triangle.png,0,m,Thu Aug 21 2025 17:14:14 GMT-0500 (Central Daylight Time),585920.7999999523,1500,O,z,952,12,1,2475.0999999046326,583445.7000000477,7208,NTS,A,20
3,12,test,1,C,triangle.png,0,z,Thu Aug 21 2025 17:14:14 GMT-0500 (Central Daylight Time),588654.7999999523,1200,O,None,1516,3,1,2729.0999999046326,585925.7000000477,7208,NTS,A,21
3,13,test,1,C,circle.png,1,z,Thu Aug 21 2025 17:14:14 GMT-0500 (Central Daylight Time),590919.2999999523,1600,O,z,638,11,1,2258.5999999046326,588660.7000000477,7208,NTS,A,22
2,14,test,1,C,circle.png,1,z,Thu Aug 21 2025 17:14:14 GMT-0500 (Central Daylight Time),593550.4000000954,1700,O,z,913,18,1,2626.7999999523163,590923.600000143,7208,NTS,A,23
2,15,test,1,C,triangle.png,1,m,Thu Aug 21 2025 17:14:14 GMT-0500 (Central Daylight Time),596949.100000143,2000,O,m,1379,2,1,3396.100000143051,593553.0,7208,NTS,A,24
4,0,test,2,C,triangle.png,0,m,Thu Aug 21 2025 17:14:14 GMT-0500 (Central Daylight Time),604965.0,1500,O,None,1515,20,1,3030.5,601934.5,7208,NTS,A,1
6,1,test,2,C,circle.png,1,m,Thu Aug 21 2025 17:14:14 GMT-0500 (Central Daylight Time),607849.0,1900,O,m,950,5,1,2880.0,604969.0,7208,NTS,A,2
8,2,test,2,C,circle.png,1,m,Thu Aug 21 2025 17:14:14 GMT-0500 (Central Daylight Time),610032.5,1200,O,m,958,23,1,2178.7000000476837,607853.7999999523,7208,NTS,A,3
9,2,test,2,C,triangle.png,0,z,Thu Aug 21 2025 17:14:14 GMT-0500 (Central Daylight Time),612796.7000000477,1400,O,m,1333,16,1,2760.9000000953674,610035.7999999523,7208,NTS,A,4
4,2,test,2,C,circle.png,0,z,Thu Aug 21 2025 17:14:14 GMT-0500 (Central Daylight Time),615194.2000000477,1400,O,m,975,4,1,2392.7999999523163,612801.4000000954,7208,NTS,A,5
2,3,test,2,C,circle.png,1,z,Thu Aug 21 2025 17:14:14 GMT-0500 (Central Daylight Time),618177.0,1700,O,z,1260,10,1,2979.0999999046326,615197.9000000954,7208,NTS,A,6
1,4,test,2,C,triangle.png,1,z,Thu Aug 21 2025 17:14:14 GMT-0500 (Central Daylight Time),621409.2000000477,1900,O,z,1310,17,1,3225.2999999523163,618183.9000000954,7208,NTS,A,7
1,4,test,2,C,circle.png,0,z,Thu Aug 21 2025 17:14:14 GMT-0500 (Central Daylight Time),623359.0,1000,O,m,930,1,1,1941.5,621417.5,7208,NTS,A,8
6,4,test,2,C,triangle.png,0,m,Thu Aug 21 2025 17:14:14 GMT-0500 (Central Daylight Time),625875.100000143,1000,O,None,1501,21,1,2512.7000000476837,623362.4000000954,7208,NTS,A,9
1,5,test,2,C,triangle.png,1,z,Thu Aug 21 2025 17:14:14 GMT-0500 (Central Daylight Time),628906.9000000954,1900,O,z,1109,9,1,3024.7000000476837,625882.2000000477,7208,NTS,A,10
8,6,test,2,C,triangle.png,1,m,Thu Aug 21 2025 17:14:14 GMT-0500 (Central Daylight Time),631423.5,1600,O,m,898,7,1,2512.0999999046326,628911.4000000954,7208,NTS,A,11
3,7,test,2,C,triangle.png,1,z,Thu Aug 21 2025 17:14:14 GMT-0500 (Central Daylight Time),633789.2000000477,1200,O,z,1142,3,1,2358.7999999523163,631430.4000000954,7208,NTS,A,12
3,8,test,2,C,circle.png,1,z,Thu Aug 21 2025 17:14:14 GMT-0500 (Central Daylight Time),636570.2000000477,1600,O,z,1149,19,1,2774.5999999046326,633795.600000143,7208,NTS,A,13
7,9,test,2,C,circle.png,1,m,Thu Aug 21 2025 17:14:14 GMT-0500 (Central Daylight Time),639803.0,2000,O,m,1202,22,1,3227.2000000476837,636575.7999999523,7208,NTS,A,14
9,9,test,2,C,triangle.png,0,z,Thu Aug 21 2025 17:14:14 GMT-0500 (Central Daylight Time),642402.2999999523,1400,O,m,1177,24,1,2589.399999856949,639812.9000000954,7208,NTS,A,15
2,10,test,2,C,circle.png,1,z,Thu Aug 21 2025 17:14:14 GMT-0500 (Central Daylight Time),645201.5,1700,O,z,1069,18,1,2790.399999856949,642411.100000143,7208,NTS,A,16
2,10,test,2,C,triangle.png,0,m,Thu Aug 21 2025 17:14:14 GMT-0500 (Central Daylight Time),648734.9000000954,2000,O,None,1514,2,1,3526.100000143051,645208.7999999523,7208,NTS,A,17
4,11,test,2,C,triangle.png,1,m,Thu Aug 21 2025 17:14:14 GMT-0500 (Central Daylight Time),651268.5,1500,O,m,1015,12,1,2528.399999856949,648740.100000143,7208,NTS,A,18
7,11,test,2,C,circle.png,0,m,Thu Aug 21 2025 17:14:14 GMT-0500 (Central Daylight Time),654799.7000000477,2000,O,None,1514,14,1,3525.9000000953674,651273.7999999523,7208,NTS,A,19
9,12,test,2,C,circle.png,1,m,Thu Aug 21 2025 17:14:14 GMT-0500 (Central Daylight Time),657214.600000143,1500,O,m,887,8,1,2407.0,654807.600000143,7208,NTS,A,20
6,12,test,2,C,triangle.png,0,m,Thu Aug 21 2025 17:14:14 GMT-0500 (Central Daylight Time),659747.600000143,1000,O,None,1517,13,1,2530.100000143051,657217.5,7208,NTS,A,21
7,12,test,2,C,triangle.png,0,z,Thu Aug 21 2025 17:14:14 GMT-0500 (Central Daylight Time),662980.0,1700,O,None,1514,6,1,3225.2000000476837,659754.7999999523,7208,NTS,A,22
3,13,test,2,C,circle.png,1,z,Thu Aug 21 2025 17:14:14 GMT-0500 (Central Daylight Time),665829.2000000477,1600,O,z,1223,11,1,2843.9000000953674,662985.2999999523,7208,NTS,A,23
8,14,test,2,C,circle.png,1,m,Thu Aug 21 2025 17:14:14 GMT-0500 (Central Daylight Time),668326.9000000954,1200,O,m,1278,15,1,2492.4000000953674,665834.5,7208,NTS,A,24
2,1,test,3,C,circle.png,1,z,Thu Aug 21 2025 17:14:14 GMT-0500 (Central Daylight Time),692520.7999999523,1700,O,z,882,10,1,2594.5999999046326,689926.2000000477,7208,NTS,A,1
1,2,test,3,C,circle.png,1,z,Thu Aug 21 2025 17:14:14 GMT-0500 (Central Daylight Time),694387.5,1000,O,z,835,17,1,1861.7000000476837,692525.7999999523,7208,NTS,A,2
6,3,test,3,C,circle.png,1,m,Thu Aug 21 2025 17:14:14 GMT-0500 (Central Daylight Time),697252.4000000954,1900,O,m,942,5,1,2858.600000143051,694393.7999999523,7208,NTS,A,3
7,4,test,3,C,circle.png,1,m,Thu Aug 21 2025 17:14:14 GMT-0500 (Central Daylight Time),700184.7000000477,2000,O,m,898,14,1,2928.2999999523163,697256.4000000954,7208,NTS,A,4
7,5,test,3,C,triangle.png,1,z,Thu Aug 21 2025 17:14:14 GMT-0500 (Central Daylight Time),703134.4000000954,1700,O,z,1233,6,1,2945.100000143051,700189.2999999523,7208,NTS,A,5
3,6,test,3,C,circle.png,1,z,Thu Aug 21 2025 17:14:14 GMT-0500 (Central Daylight Time),705999.5,1600,O,z,1237,11,1,2858.7999999523163,703140.7000000477,7208,NTS,A,6
7,6,test,3,C,triangle.png,0,z,Thu Aug 21 2025 17:14:14 GMT-0500 (Central Daylight Time),708683.2000000477,1700,O,m,960,22,1,2677.9000000953674,706005.2999999523,7208,NTS,A,7
3,7,test,3,C,triangle.png,1,z,Thu Aug 21 2025 17:14:14 GMT-0500 (Central Daylight Time),711146.4000000954,1200,O,z,1232,3,1,2458.5,708687.9000000954,7208,NTS,A,8
9,8,test,3,C,circle.png,1,m,Thu Aug 21 2025 17:14:14 GMT-0500 (Central Daylight Time),713679.100000143,1500,O,m,1004,24,1,2529.9000000953674,711149.2000000477,7208,NTS,A,9
4,9,test,3,C,circle.png,1,z,Thu Aug 21 2025 17:14:14 GMT-0500 (Central Daylight Time),716062.7999999523,1400,O,z,950,20,1,2379.2999999523163,713683.5,7208,NTS,A,10
3,10,test,3,C,triangle.png,1,z,Thu Aug 21 2025 17:14:14 GMT-0500 (Central Daylight Time),718344.9000000954,1200,O,z,1060,19,1,2276.100000143051,716068.7999999523,7208,NTS,A,11
1,11,test,3,C,circle.png,1,z,Thu Aug 21 2025 17:14:14 GMT-0500 (Central Daylight Time),720295.2999999523,1000,O,z,931,1,1,1947.2999999523163,718348.0,7208,NTS,A,12
9,11,test,3,C,triangle.png,0,z,Thu Aug 21 2025 17:14:14 GMT-0500 (Central Daylight Time),722778.2999999523,1400,O,m,1061,16,1,2478.0999999046326,720300.2000000477,7208,NTS,A,13
4,12,test,3,C,triangle.png,1,m,Thu Aug 21 2025 17:14:14 GMT-0500 (Central Daylight Time),725777.100000143,1500,O,m,1469,12,1,2994.9000000953674,722782.2000000477,7208,NTS,A,14
6,13,test,3,C,triangle.png,1,m,Thu Aug 21 2025 17:14:14 GMT-0500 (Central Daylight Time),727744.2000000477,1000,O,m,950,13,1,1962.5,725781.7000000477,7208,NTS,A,15
6,14,test,3,C,circle.png,1,m,Thu Aug 21 2025 17:14:14 GMT-0500 (Central Daylight Time),730725.100000143,1900,O,m,1051,21,1,2974.9000000953674,727750.2000000477,7208,NTS,A,16
2,14,test,3,C,triangle.png,0,m,Thu Aug 21 2025 17:14:14 GMT-0500 (Central Daylight Time),733773.100000143,2000,O,z,1021,18,1,3042.2000000476837,730730.9000000954,7208,NTS,A,17
8,15,test,3,C,triangle.png,1,m,Thu Aug 21 2025 17:14:14 GMT-0500 (Central Daylight Time),736406.4000000954,1600,O,m,1006,7,1,2630.5,733775.9000000954,7208,NTS,A,18
8,16,test,3,C,circle.png,1,m,Thu Aug 21 2025 17:14:14 GMT-0500 (Central Daylight Time),738538.7000000477,1200,O,m,908,15,1,2128.7999999523163,736409.9000000954,7208,NTS,A,19
1,17,test,3,C,triangle.png,1,z,Thu Aug 21 2025 17:14:14 GMT-0500 (Central Daylight Time),741806.600000143,1900,O,z,1335,9,1,3261.4000000953674,738545.2000000477,7208,NTS,A,20
2,18,test,3,C,triangle.png,1,m,Thu Aug 21 2025 17:14:14 GMT-0500 (Central Daylight Time),744886.0,2000,O,m,1053,2,1,3074.0999999046326,741811.9000000954,7208,NTS,A,21
9,19,test,3,C,circle.png,1,m,Thu Aug 21 2025 17:14:14 GMT-0500 (Central Daylight Time),747504.2000000477,1500,O,m,1095,8,1,2615.2999999523163,744888.9000000954,7208,NTS,A,22
8,19,test,3,C,triangle.png,0,m,Thu Aug 21 2025 17:14:14 GMT-0500 (Central Daylight Time),750304.0,1600,O,z,1175,23,1,2797.0999999046326,747506.9000000954,7208,NTS,A,23
4,20,test,3,C,circle.png,1,z,Thu Aug 21 2025 17:14:14 GMT-0500 (Central Daylight Time),752966.7999999523,1400,O,z,1246,4,1,2657.0,750309.7999999523,7208,NTS,A,24
3,1,test,4,C,triangle.png,1,z,Thu Aug 21 2025 17:14:14 GMT-0500 (Central Daylight Time),757483.9000000954,1200,O,z,1201,3,1,2425.600000143051,755058.2999999523,7208,NTS,A,1
3,2,test,4,C,triangle.png,1,z,Thu Aug 21 2025 17:14:14 GMT-0500 (Central Daylight Time),759765.2000000477,1200,O,z,1056,19,1,2274.9000000953674,757490.2999999523,7208,NTS,A,2
1,3,test,4,C,circle.png,1,z,Thu Aug 21 2025 17:14:14 GMT-0500 (Central Daylight Time),762165.7000000477,1000,O,z,1367,17,1,2395.4000000953674,759770.2999999523,7208,NTS,A,3
9,4,test,4,C,circle.png,1,m,Thu Aug 21 2025 17:14:14 GMT-0500 (Central Daylight Time),764482.2999999523,1500,O,m,786,24,1,2310.5,762171.7999999523,7208,NTS,A,4
6,5,test,4,C,triangle.png,1,m,Thu Aug 21 2025 17:14:14 GMT-0500 (Central Daylight Time),766896.7000000477,1000,O,m,1395,13,1,2408.5999999046326,764488.100000143,7208,NTS,A,5
2,5,test,4,C,circle.png,0,z,Thu Aug 21 2025 17:14:14 GMT-0500 (Central Daylight Time),769678.600000143,1700,O,m,1061,10,1,2776.100000143051,766902.5,7208,NTS,A,6
8,5,test,4,C,triangle.png,0,m,Thu Aug 21 2025 17:14:14 GMT-0500 (Central Daylight Time),772812.600000143,1600,O,None,1516,7,1,3130.7000000476837,769681.9000000954,7208,NTS,A,7
7,6,test,4,C,triangle.png,1,z,Thu Aug 21 2025 17:14:14 GMT-0500 (Central Daylight Time),775610.2999999523,1700,O,z,1067,22,1,2790.699999809265,772819.600000143,7208,NTS,A,8
4,7,test,4,C,circle.png,1,z,Thu Aug 21 2025 17:14:14 GMT-0500 (Central Daylight Time),778208.0,1400,O,z,1168,4,1,2592.0,775616.0,7208,NTS,A,9
4,8,test,4,C,circle.png,1,z,Thu Aug 21 2025 17:14:14 GMT-0500 (Central Daylight Time),780909.600000143,1400,O,z,1268,20,1,2698.600000143051,778211.0,7208,NTS,A,10
6,9,test,4,C,circle.png,1,m,Thu Aug 21 2025 17:14:14 GMT-0500 (Central Daylight Time),783775.7999999523,1900,O,m,940,21,1,2860.5999999046326,780915.2000000477,7208,NTS,A,11
4,10,test,4,C,triangle.png,1,m,Thu Aug 21 2025 17:14:14 GMT-0500 (Central Daylight Time),786573.9000000954,1500,O,m,1273,12,1,2793.7999999523163,783780.100000143,7208,NTS,A,12
9,11,test,4,C,triangle.png,1,z,Thu Aug 21 2025 17:14:14 GMT-0500 (Central Daylight Time),789373.5,1400,O,z,1365,16,1,2794.0999999046326,786579.4000000954,7208,NTS,A,13
8,11,test,4,C,triangle.png,0,m,Thu Aug 21 2025 17:14:14 GMT-0500 (Central Daylight Time),792222.7999999523,1600,O,z,1232,23,1,2844.5999999046326,789378.2000000477,7208,NTS,A,14
3,12,test,4,C,circle.png,1,z,Thu Aug 21 2025 17:14:14 GMT-0500 (Central Daylight Time),795054.7999999523,1600,O,z,1206,11,1,2826.699999809265,792228.100000143,7208,NTS,A,15
7,13,test,4,C,circle.png,1,m,Thu Aug 21 2025 17:14:14 GMT-0500 (Central Daylight Time),798120.9000000954,2000,O,m,1038,14,1,3061.2999999523163,795059.600000143,7208,NTS,A,16
2,14,test,4,C,triangle.png,1,m,Thu Aug 21 2025 17:14:14 GMT-0500 (Central Daylight Time),801453.0,2000,O,m,1313,18,1,3327.7999999523163,798125.2000000477,7208,NTS,A,17
1,14,test,4,C,circle.png,0,z,Thu Aug 21 2025 17:14:14 GMT-0500 (Central Daylight Time),803984.7000000477,1000,O,None,1515,1,1,2529.2000000476837,801455.5,7208,NTS,A,18
1,15,test,4,C,triangle.png,1,z,Thu Aug 21 2025 17:14:14 GMT-0500 (Central Daylight Time),806701.2999999523,1900,O,z,790,9,1,2710.199999809265,803991.100000143,7208,NTS,A,19
9,16,test,4,C,circle.png,1,m,Thu Aug 21 2025 17:14:14 GMT-0500 (Central Daylight Time),809466.2999999523,1500,O,m,1243,8,1,2760.0999999046326,806706.2000000477,7208,NTS,A,20
2,17,test,4,C,triangle.png,1,m,Thu Aug 21 2025 17:14:14 GMT-0500 (Central Daylight Time),812883.4000000954,2000,O,m,1394,2,1,3413.100000143051,809470.2999999523,7208,NTS,A,21
6,18,test,4,C,circle.png,1,m,Thu Aug 21 2025 17:14:14 GMT-0500 (Central Daylight Time),815880.4000000954,1900,O,m,1080,5,1,2992.0,812888.4000000954,7208,NTS,A,22
8,19,test,4,C,circle.png,1,m,Thu Aug 21 2025 17:14:14 GMT-0500 (Central Daylight Time),818232.100000143,1200,O,m,1132,15,1,2347.0,815885.100000143,7208,NTS,A,23
7,20,test,4,C,triangle.png,1,z,Thu Aug 21 2025 17:14:14 GMT-0500 (Central Daylight Time),821095.600000143,1700,O,z,1139,6,1,2859.2000000476837,818236.4000000954,7208,NTS,A,24
