block_c,block_dur,condition,countdown,datetime,endtime,list,multichar_response,project,response,response_time,session_number,start_end,starttime,subject_id,task,task_vers,trial
,,,,Tue Apr 21 2026 13:12:33 GMT-0500 (Central Daylight Time),,,,I,space,1288,1,,,8107,WL,A,
prac,,0,,Tue Apr 21 2026 13:12:33 GMT-0500 (Central Daylight Time),,NA,b,I,b,2387,1,,,8107,WL,A,1.0
prac,,0,,Tue Apr 21 2026 13:12:33 GMT-0500 (Central Daylight Time),,NA,bo,I,o,232,1,,,8107,WL,A,1.0
prac,,0,,Tue Apr 21 2026 13:12:33 GMT-0500 (Central Daylight Time),,NA,boo,I,o,189,1,,,8107,WL,A,1.0
prac,,0,,Tue Apr 21 2026 13:12:33 GMT-0500 (Central Daylight Time),,NA,boos,I,s,390,1,,,8107,WL,A,1.0
prac,,0,,Tue Apr 21 2026 13:12:33 GMT-0500 (Central Daylight Time),,NA,boost,I,t,45,1,,,8107,WL,A,1.0
prac,,0,,Tue Apr 21 2026 13:12:33 GMT-0500 (Central Daylight Time),,NA,boostenter,I,enter,636,1,,,8107,WL,A,1.0
1,1.5160000324249268,learn,58483.99996757507,Tue Apr 21 2026 13:12:33 GMT-0500 (Central Daylight Time),91371.40000000596,A,b,I,b,1507,1,1515.7999999970198,89855.60000000894,8107,WL,A,1.0
1,2.3500001430511475,learn,57649.99985694885,Tue Apr 21 2026 13:12:33 GMT-0500 (Central Daylight Time),92204.5,A,bo,I,o,824,1,2348.8999999910593,89855.60000000894,8107,WL,A,1.0
1,2.5490000247955322,learn,57450.99997520447,Tue Apr 21 2026 13:12:33 GMT-0500 (Central Daylight Time),92404.40000000596,A,boo,I,o,183,1,2548.7999999970198,89855.60000000894,8107,WL,A,1.0
1,2.634000062942505,learn,57365.999937057495,Tue Apr 21 2026 13:12:33 GMT-0500 (Central Daylight Time),92488.80000001192,A,book,I,k,63,1,2633.2000000029802,89855.60000000894,8107,WL,A,1.0
1,3.499000072479248,learn,56500.99992752075,Tue Apr 21 2026 13:12:33 GMT-0500 (Central Daylight Time),93354.0,A,bookenter,I,enter,851,1,3498.3999999910593,89855.60000000894,8107,WL,A,1.0
1,4.565999984741211,learn,55434.00001525879,Tue Apr 21 2026 13:12:33 GMT-0500 (Central Daylight Time),94420.5,A,b,I,b,1049,1,1066.0,93354.5,8107,WL,A,2.0
1,4.815000057220459,learn,55184.99994277954,Tue Apr 21 2026 13:12:33 GMT-0500 (Central Daylight Time),94670.20000000298,A,bu,I,u,231,1,1315.7000000029802,93354.5,8107,WL,A,2.0
1,5.065000057220459,learn,54934.99994277954,Tue Apr 21 2026 13:12:33 GMT-0500 (Central Daylight Time),94920.30000001192,A,but,I,t,238,1,1565.800000011921,93354.5,8107,WL,A,2.0
1,5.199000120162964,learn,54800.999879837036,Tue Apr 21 2026 13:12:33 GMT-0500 (Central Daylight Time),95053.70000000298,A,butt,I,t,123,1,1699.2000000029802,93354.5,8107,WL,A,2.0
1,5.5320000648498535,learn,54467.99993515015,Tue Apr 21 2026 13:12:33 GMT-0500 (Central Daylight Time),95386.80000001192,A,butto,I,o,326,1,2032.300000011921,93354.5,8107,WL,A,2.0
1,5.748000144958496,learn,54251.999855041504,Tue Apr 21 2026 13:12:33 GMT-0500 (Central Daylight Time),95603.20000000298,A,button,I,n,208,1,2248.7000000029802,93354.5,8107,WL,A,2.0
1,6.182000160217285,learn,53817.999839782715,Tue Apr 21 2026 13:12:33 GMT-0500 (Central Daylight Time),96036.70000000298,A,buttonenter,I,enter,425,1,2682.2000000029802,93354.5,8107,WL,A,2.0
1,6.8480000495910645,learn,53151.999950408936,Tue Apr 21 2026 13:12:33 GMT-0500 (Central Daylight Time),96703.20000000298,A,m,I,m,647,1,666.0,96037.20000000298,8107,WL,A,3.0
1,6.998000144958496,learn,53001.999855041504,Tue Apr 21 2026 13:12:33 GMT-0500 (Central Daylight Time),96853.10000000894,A,me,I,e,141,1,815.9000000059605,96037.20000000298,8107,WL,A,3.0
1,7.081000089645386,learn,52918.999910354614,Tue Apr 21 2026 13:12:33 GMT-0500 (Central Daylight Time),96936.40000000596,A,mea,I,a,63,1,899.2000000029802,96037.20000000298,8107,WL,A,3.0
1,7.514000177383423,learn,52485.99982261658,Tue Apr 21 2026 13:12:33 GMT-0500 (Central Daylight Time),97369.5,A,mead,I,d,427,1,1332.2999999970198,96037.20000000298,8107,WL,A,3.0
1,7.615000009536743,learn,52384.99999046326,Tue Apr 21 2026 13:12:33 GMT-0500 (Central Daylight Time),97469.5,A,meado,I,o,90,1,1432.2999999970198,96037.20000000298,8107,WL,A,3.0
1,7.96399998664856,learn,52036.00001335144,Tue Apr 21 2026 13:12:33 GMT-0500 (Central Daylight Time),97819.30000001192,A,meadow,I,w,342,1,1782.1000000089407,96037.20000000298,8107,WL,A,3.0
1,8.71399998664856,learn,51286.00001335144,Tue Apr 21 2026 13:12:33 GMT-0500 (Central Daylight Time),98569.30000001192,A,meadowenter,I,enter,745,1,2532.1000000089407,96037.20000000298,8107,WL,A,3.0
1,9.77999997138977,learn,50220.00002861023,Tue Apr 21 2026 13:12:33 GMT-0500 (Central Daylight Time),99635.40000000596,A,g,I,g,1052,1,1065.7999999970198,98569.60000000894,8107,WL,A,4.0
1,9.847000122070312,learn,50152.99987792969,Tue Apr 21 2026 13:12:33 GMT-0500 (Central Daylight Time),99702.30000001192,A,go,I,o,57,1,1132.7000000029802,98569.60000000894,8107,WL,A,4.0
1,10.047000169754028,learn,49952.99983024597,Tue Apr 21 2026 13:12:33 GMT-0500 (Central Daylight Time),99902.0,A,gol,I,l,190,1,1332.3999999910593,98569.60000000894,8107,WL,A,4.0
1,10.180000066757202,learn,49819.9999332428,Tue Apr 21 2026 13:12:33 GMT-0500 (Central Daylight Time),100035.30000001192,A,gold,I,d,118,1,1465.7000000029802,98569.60000000894,8107,WL,A,4.0
1,10.630000114440918,learn,49369.99988555908,Tue Apr 21 2026 13:12:33 GMT-0500 (Central Daylight Time),100485.30000001192,A,goldenter,I,enter,440,1,1915.7000000029802,98569.60000000894,8107,WL,A,4.0
1,11.963000059127808,learn,48036.99994087219,Tue Apr 21 2026 13:12:33 GMT-0500 (Central Daylight Time),101818.10000000894,A,f,I,f,1320,1,1332.4000000059605,100485.70000000298,8107,WL,A,5.0
1,12.19700002670288,learn,47802.99997329712,Tue Apr 21 2026 13:12:33 GMT-0500 (Central Daylight Time),102051.5,A,fn,I,n,218,1,1565.7999999970198,100485.70000000298,8107,WL,A,5.0
1,12.796000003814697,learn,47203.9999961853,Tue Apr 21 2026 13:12:33 GMT-0500 (Central Daylight Time),102651.30000001192,A,f,I,backspace,584,1,2165.6000000089407,100485.70000000298,8107,WL,A,5.0
1,13.078999996185303,learn,46921.0000038147,Tue Apr 21 2026 13:12:33 GMT-0500 (Central Daylight Time),102934.40000000596,A,fi,I,i,265,1,2448.7000000029802,100485.70000000298,8107,WL,A,5.0
1,13.146000146865845,learn,46853.999853134155,Tue Apr 21 2026 13:12:33 GMT-0500 (Central Daylight Time),103001.30000001192,A,fin,I,n,62,1,2515.6000000089407,100485.70000000298,8107,WL,A,5.0
1,13.328999996185303,learn,46671.0000038147,Tue Apr 21 2026 13:12:33 GMT-0500 (Central Daylight Time),103184.40000000596,A,fing,I,g,171,1,2698.7000000029802,100485.70000000298,8107,WL,A,5.0
1,13.514000177383423,learn,46485.99982261658,Tue Apr 21 2026 13:12:33 GMT-0500 (Central Daylight Time),103368.80000001192,A,finge,I,e,171,1,2883.1000000089407,100485.70000000298,8107,WL,A,5.0
1,13.61300015449524,learn,46386.99984550476,Tue Apr 21 2026 13:12:33 GMT-0500 (Central Daylight Time),103467.5,A,finger,I,r,84,1,2981.7999999970198,100485.70000000298,8107,WL,A,5.0
1,14.279000043869019,learn,45720.99995613098,Tue Apr 21 2026 13:12:33 GMT-0500 (Central Daylight Time),104134.10000000894,A,fingerenter,I,enter,657,1,3648.4000000059605,100485.70000000298,8107,WL,A,5.0
1,18.028000116348267,learn,41971.99988365173,Tue Apr 21 2026 13:12:33 GMT-0500 (Central Daylight Time),107882.90000000596,A,k,I,k,3733,1,3748.4000000059605,104134.5,8107,WL,A,6.0
1,18.478000164031982,learn,41521.99983596802,Tue Apr 21 2026 13:12:33 GMT-0500 (Central Daylight Time),108332.70000000298,A,ke,I,e,441,1,4198.20000000298,104134.5,8107,WL,A,6.0
1,18.57800006866455,learn,41421.99993133545,Tue Apr 21 2026 13:12:33 GMT-0500 (Central Daylight Time),108432.80000001192,A,key,I,y,89,1,4298.300000011921,104134.5,8107,WL,A,6.0
1,19.59500002861023,learn,40404.99997138977,Tue Apr 21 2026 13:12:33 GMT-0500 (Central Daylight Time),109449.60000000894,A,keyenter,I,enter,1011,1,5315.100000008941,104134.5,8107,WL,A,6.0
1,21.06000018119812,learn,38939.99981880188,Tue Apr 21 2026 13:12:33 GMT-0500 (Central Daylight Time),110915.40000000596,A,c,I,c,1451,1,1465.5999999940395,109449.80000001192,8107,WL,A,7.0
1,21.127000093460083,learn,38872.99990653992,Tue Apr 21 2026 13:12:33 GMT-0500 (Central Daylight Time),110982.0,A,ch,I,h,49,1,1532.199999988079,109449.80000001192,8107,WL,A,7.0
1,21.360000133514404,learn,38639.999866485596,Tue Apr 21 2026 13:12:33 GMT-0500 (Central Daylight Time),111215.20000000298,A,chi,I,i,222,1,1765.3999999910593,109449.80000001192,8107,WL,A,7.0
1,21.460000038146973,learn,38539.99996185303,Tue Apr 21 2026 13:12:33 GMT-0500 (Central Daylight Time),111315.0,A,chim,I,m,93,1,1865.199999988079,109449.80000001192,8107,WL,A,7.0
1,21.943000078201294,learn,38056.999921798706,Tue Apr 21 2026 13:12:33 GMT-0500 (Central Daylight Time),111798.30000001192,A,chimn,I,n,466,1,2348.5,109449.80000001192,8107,WL,A,7.0
1,22.177000045776367,learn,37822.99995422363,Tue Apr 21 2026 13:12:33 GMT-0500 (Central Daylight Time),112031.90000000596,A,chimne,I,e,214,1,2582.0999999940395,109449.80000001192,8107,WL,A,7.0
1,22.2260000705719,learn,37773.9999294281,Tue Apr 21 2026 13:12:33 GMT-0500 (Central Daylight Time),112081.40000000596,A,chimney,I,y,44,1,2631.5999999940395,109449.80000001192,8107,WL,A,7.0
1,23.026000022888184,learn,36973.99997711182,Tue Apr 21 2026 13:12:33 GMT-0500 (Central Daylight Time),112881.30000001192,A,chimneyenter,I,enter,788,1,3431.5,109449.80000001192,8107,WL,A,7.0
1,28.058000087738037,learn,31941.999912261963,Tue Apr 21 2026 13:12:33 GMT-0500 (Central Daylight Time),117912.80000001192,A,r,I,r,5011,1,5031.0,112881.80000001192,8107,WL,A,8.0
1,28.174000024795532,learn,31825.999975204468,Tue Apr 21 2026 13:12:33 GMT-0500 (Central Daylight Time),118029.30000001192,A,ru,I,u,107,1,5147.5,112881.80000001192,8107,WL,A,8.0
1,28.407999992370605,learn,31592.000007629395,Tue Apr 21 2026 13:12:33 GMT-0500 (Central Daylight Time),118263.0,A,rug,I,g,224,1,5381.199999988079,112881.80000001192,8107,WL,A,8.0
1,28.741000175476074,learn,31258.999824523926,Tue Apr 21 2026 13:12:33 GMT-0500 (Central Daylight Time),118596.10000000894,A,rugenter,I,enter,326,1,5714.29999999702,112881.80000001192,8107,WL,A,8.0
1,35.98900008201599,learn,24010.99991798401,Tue Apr 21 2026 13:12:33 GMT-0500 (Central Daylight Time),125843.80000001192,A,r,I,r,7241,1,7247.4000000059605,118596.40000000596,8107,WL,A,9.0
1,36.08899998664856,learn,23911.00001335144,Tue Apr 21 2026 13:12:33 GMT-0500 (Central Daylight Time),125944.10000000894,A,ra,I,a,86,1,7347.70000000298,118596.40000000596,8107,WL,A,9.0
1,36.371999979019165,learn,23628.000020980835,Tue Apr 21 2026 13:12:33 GMT-0500 (Central Daylight Time),126227.10000000894,A,rat,I,t,278,1,7630.70000000298,118596.40000000596,8107,WL,A,9.0
1,36.50500011444092,learn,23494.999885559082,Tue Apr 21 2026 13:12:33 GMT-0500 (Central Daylight Time),126360.40000000596,A,ratt,I,t,123,1,7764.0,118596.40000000596,8107,WL,A,9.0
1,36.7720000743866,learn,23227.999925613403,Tue Apr 21 2026 13:12:33 GMT-0500 (Central Daylight Time),126627.30000001192,A,rattl,I,l,253,1,8030.9000000059605,118596.40000000596,8107,WL,A,9.0
1,36.855000019073486,learn,23144.999980926514,Tue Apr 21 2026 13:12:33 GMT-0500 (Central Daylight Time),126710.30000001192,A,rattle,I,e,65,1,8113.9000000059605,118596.40000000596,8107,WL,A,9.0
1,37.105000019073486,learn,22894.999980926514,Tue Apr 21 2026 13:12:33 GMT-0500 (Central Daylight Time),126960.30000001192,A,rattleenter,I,enter,238,1,8363.90000000596,118596.40000000596,8107,WL,A,9.0
1,60.015000104904175,learn,-15.000104904174805,Tue Apr 21 2026 13:12:33 GMT-0500 (Central Daylight Time),149869.80000001192,A,None,I,None,22905,1,22909.10000000894,126960.70000000298,8107,WL,A,10.0
2,1.0999999046325684,learn,58900.00009536743,Tue Apr 21 2026 13:12:33 GMT-0500 (Central Daylight Time),215249.30000001192,A,b,I,b,1095,1,1099.6000000089407,214149.70000000298,8107,WL,A,1.0
2,1.7839999198913574,learn,58216.00008010864,Tue Apr 21 2026 13:12:33 GMT-0500 (Central Daylight Time),215933.40000000596,A,bo,I,o,666,1,1783.7000000029802,214149.70000000298,8107,WL,A,1.0
2,1.9659998416900635,learn,58034.00015830994,Tue Apr 21 2026 13:12:33 GMT-0500 (Central Daylight Time),216115.80000001192,A,boo,I,o,175,1,1966.1000000089407,214149.70000000298,8107,WL,A,1.0
2,2.0829999446868896,learn,57917.00005531311,Tue Apr 21 2026 13:12:33 GMT-0500 (Central Daylight Time),216232.40000000596,A,book,I,k,97,1,2082.7000000029802,214149.70000000298,8107,WL,A,1.0
2,2.552999973297119,learn,57447.00002670288,Tue Apr 21 2026 13:12:33 GMT-0500 (Central Daylight Time),216702.90000000596,A,bookenter,I,enter,466,1,2553.2000000029802,214149.70000000298,8107,WL,A,1.0
2,2.982999801635742,learn,57017.00019836426,Tue Apr 21 2026 13:12:33 GMT-0500 (Central Daylight Time),217132.20000000298,A,f,I,f,415,1,429.0,216703.20000000298,8107,WL,A,2.0
2,3.1489999294281006,learn,56851.0000705719,Tue Apr 21 2026 13:12:33 GMT-0500 (Central Daylight Time),217298.60000000894,A,fl,I,l,160,1,595.4000000059605,216703.20000000298,8107,WL,A,2.0
2,3.365999937057495,learn,56634.000062942505,Tue Apr 21 2026 13:12:33 GMT-0500 (Central Daylight Time),217515.40000000596,A,flo,I,o,202,1,812.2000000029802,216703.20000000298,8107,WL,A,2.0
2,3.5160000324249268,learn,56483.99996757507,Tue Apr 21 2026 13:12:33 GMT-0500 (Central Daylight Time),217665.40000000596,A,flow,I,w,129,1,962.2000000029802,216703.20000000298,8107,WL,A,2.0
2,3.565999984741211,learn,56434.00001525879,Tue Apr 21 2026 13:12:33 GMT-0500 (Central Daylight Time),217715.30000001192,A,flowe,I,e,43,1,1012.1000000089407,216703.20000000298,8107,WL,A,2.0
2,4.2159998416900635,learn,55784.00015830994,Tue Apr 21 2026 13:12:33 GMT-0500 (Central Daylight Time),218365.0,A,flower,I,r,641,1,1661.7999999970198,216703.20000000298,8107,WL,A,2.0
2,4.7159998416900635,learn,55284.00015830994,Tue Apr 21 2026 13:12:33 GMT-0500 (Central Daylight Time),218865.20000000298,A,flowerenter,I,enter,488,1,2162.0,216703.20000000298,8107,WL,A,2.0
2,5.531999826431274,learn,54468.000173568726,Tue Apr 21 2026 13:12:33 GMT-0500 (Central Daylight Time),219681.10000000894,A,t,I,t,795,1,815.6000000089407,218865.5,8107,WL,A,3.0
2,5.7149999141693115,learn,54285.00008583069,Tue Apr 21 2026 13:12:33 GMT-0500 (Central Daylight Time),219864.40000000596,A,tr,I,r,162,1,998.9000000059605,218865.5,8107,WL,A,3.0
2,5.81499981880188,learn,54185.00018119812,Tue Apr 21 2026 13:12:33 GMT-0500 (Central Daylight Time),219964.40000000596,A,tra,I,a,92,1,1098.9000000059605,218865.5,8107,WL,A,3.0
2,6.014999866485596,learn,53985.000133514404,Tue Apr 21 2026 13:12:33 GMT-0500 (Central Daylight Time),220164.40000000596,A,trai,I,i,193,1,1298.9000000059605,218865.5,8107,WL,A,3.0
2,6.131999969482422,learn,53868.00003051758,Tue Apr 21 2026 13:12:33 GMT-0500 (Central Daylight Time),220281.20000000298,A,train,I,n,103,1,1415.7000000029802,218865.5,8107,WL,A,3.0
2,6.497999906539917,learn,53502.00009346008,Tue Apr 21 2026 13:12:33 GMT-0500 (Central Daylight Time),220647.5,A,trainenter,I,enter,347,1,1782.0,218865.5,8107,WL,A,3.0
2,6.865000009536743,learn,53134.99999046326,Tue Apr 21 2026 13:12:33 GMT-0500 (Central Daylight Time),221014.20000000298,A,r,I,r,357,1,366.29999999701977,220647.90000000596,8107,WL,A,4.0
2,6.9659998416900635,learn,53034.00015830994,Tue Apr 21 2026 13:12:33 GMT-0500 (Central Daylight Time),221115.0,A,ru,I,u,94,1,467.09999999403954,220647.90000000596,8107,WL,A,4.0
2,7.2149999141693115,learn,52785.00008583069,Tue Apr 21 2026 13:12:33 GMT-0500 (Central Daylight Time),221363.90000000596,A,rug,I,g,241,1,716.0,220647.90000000596,8107,WL,A,4.0
2,7.71399998664856,learn,52286.00001335144,Tue Apr 21 2026 13:12:33 GMT-0500 (Central Daylight Time),221863.90000000596,A,rugenter,I,enter,489,1,1216.0,220647.90000000596,8107,WL,A,4.0
2,7.996999979019165,learn,52003.000020980835,Tue Apr 21 2026 13:12:33 GMT-0500 (Central Daylight Time),222146.90000000596,A,m,I,m,277,1,282.59999999403954,221864.30000001192,8107,WL,A,5.0
2,8.097999811172485,learn,51902.000188827515,Tue Apr 21 2026 13:12:33 GMT-0500 (Central Daylight Time),222247.0,A,me,I,e,82,1,382.69999998807907,221864.30000001192,8107,WL,A,5.0
2,8.164000034332275,learn,51835.999965667725,Tue Apr 21 2026 13:12:33 GMT-0500 (Central Daylight Time),222313.30000001192,A,mea,I,a,61,1,449.0,221864.30000001192,8107,WL,A,5.0
2,8.38099980354309,learn,51619.00019645691,Tue Apr 21 2026 13:12:33 GMT-0500 (Central Daylight Time),222530.30000001192,A,mead,I,d,204,1,666.0,221864.30000001192,8107,WL,A,5.0
2,8.597999811172485,learn,51402.000188827515,Tue Apr 21 2026 13:12:33 GMT-0500 (Central Daylight Time),222747.0,A,meado,I,o,210,1,882.6999999880791,221864.30000001192,8107,WL,A,5.0
2,8.846999883651733,learn,51153.00011634827,Tue Apr 21 2026 13:12:33 GMT-0500 (Central Daylight Time),222996.90000000596,A,meadow,I,w,242,1,1132.5999999940395,221864.30000001192,8107,WL,A,5.0
2,9.247999906539917,learn,50752.00009346008,Tue Apr 21 2026 13:12:33 GMT-0500 (Central Daylight Time),223396.90000000596,A,meadowenter,I,enter,383,1,1532.5999999940395,221864.30000001192,8107,WL,A,5.0
2,9.530999898910522,learn,50469.00010108948,Tue Apr 21 2026 13:12:33 GMT-0500 (Central Daylight Time),223680.20000000298,A,g,I,g,273,1,282.8999999910593,223397.30000001192,8107,WL,A,6.0
2,9.580999851226807,learn,50419.00014877319,Tue Apr 21 2026 13:12:33 GMT-0500 (Central Daylight Time),223730.30000001192,A,go,I,o,45,1,333.0,223397.30000001192,8107,WL,A,6.0
2,9.77999997138977,learn,50220.00002861023,Tue Apr 21 2026 13:12:33 GMT-0500 (Central Daylight Time),223929.90000000596,A,gol,I,l,187,1,532.5999999940395,223397.30000001192,8107,WL,A,6.0
2,9.914000034332275,learn,50085.999965667725,Tue Apr 21 2026 13:12:33 GMT-0500 (Central Daylight Time),224063.10000000894,A,gold,I,d,114,1,665.7999999970198,223397.30000001192,8107,WL,A,6.0
2,10.263000011444092,learn,49736.99998855591,Tue Apr 21 2026 13:12:33 GMT-0500 (Central Daylight Time),224412.80000001192,A,goldenter,I,enter,341,1,1015.5,223397.30000001192,8107,WL,A,6.0
2,10.77999997138977,learn,49220.00002861023,Tue Apr 21 2026 13:12:33 GMT-0500 (Central Daylight Time),224929.5,A,i,I,i,504,1,516.3999999910593,224413.10000000894,8107,WL,A,7.0
2,11.312999963760376,learn,48687.000036239624,Tue Apr 21 2026 13:12:33 GMT-0500 (Central Daylight Time),225462.80000001192,A,,I,backspace,523,1,1049.7000000029802,224413.10000000894,8107,WL,A,7.0
2,11.429999828338623,learn,48570.00017166138,Tue Apr 21 2026 13:12:33 GMT-0500 (Central Daylight Time),225579.5,A,f,I,f,110,1,1166.3999999910593,224413.10000000894,8107,WL,A,7.0
2,11.61299991607666,learn,48387.00008392334,Tue Apr 21 2026 13:12:33 GMT-0500 (Central Daylight Time),225762.70000000298,A,fi,I,i,177,1,1349.5999999940395,224413.10000000894,8107,WL,A,7.0
2,11.69700002670288,learn,48302.99997329712,Tue Apr 21 2026 13:12:33 GMT-0500 (Central Daylight Time),225846.0,A,fin,I,n,66,1,1432.8999999910593,224413.10000000894,8107,WL,A,7.0
2,11.812999963760376,learn,48187.000036239624,Tue Apr 21 2026 13:12:33 GMT-0500 (Central Daylight Time),225962.5,A,fing,I,g,102,1,1549.3999999910593,224413.10000000894,8107,WL,A,7.0
2,11.995999813079834,learn,48004.000186920166,Tue Apr 21 2026 13:12:33 GMT-0500 (Central Daylight Time),226145.80000001192,A,finge,I,e,162,1,1732.7000000029802,224413.10000000894,8107,WL,A,7.0
2,12.079999923706055,learn,47920.000076293945,Tue Apr 21 2026 13:12:33 GMT-0500 (Central Daylight Time),226229.10000000894,A,finger,I,r,75,1,1816.0,224413.10000000894,8107,WL,A,7.0
2,12.38099980354309,learn,47619.00019645691,Tue Apr 21 2026 13:12:33 GMT-0500 (Central Daylight Time),226530.30000001192,A,fingerenter,I,enter,288,1,2117.2000000029802,224413.10000000894,8107,WL,A,7.0
2,12.730999946594238,learn,47269.00005340576,Tue Apr 21 2026 13:12:33 GMT-0500 (Central Daylight Time),226880.0,A,r,I,r,330,1,349.3999999910593,226530.60000000894,8107,WL,A,8.0
2,12.828999996185303,learn,47171.0000038147,Tue Apr 21 2026 13:12:33 GMT-0500 (Central Daylight Time),226978.90000000596,A,ra,I,a,86,1,448.29999999701977,226530.60000000894,8107,WL,A,8.0
2,13.162999868392944,learn,46837.000131607056,Tue Apr 21 2026 13:12:33 GMT-0500 (Central Daylight Time),227312.40000000596,A,rat,I,t,322,1,781.7999999970198,226530.60000000894,8107,WL,A,8.0
2,13.546000003814697,learn,46453.9999961853,Tue Apr 21 2026 13:12:33 GMT-0500 (Central Daylight Time),227695.5,A,ratt,I,t,373,1,1164.8999999910593,226530.60000000894,8107,WL,A,8.0
2,13.745999813079834,learn,46254.000186920166,Tue Apr 21 2026 13:12:33 GMT-0500 (Central Daylight Time),227895.20000000298,A,rattl,I,l,181,1,1364.5999999940395,226530.60000000894,8107,WL,A,8.0
2,13.828999996185303,learn,46171.0000038147,Tue Apr 21 2026 13:12:33 GMT-0500 (Central Daylight Time),227978.40000000596,A,rattle,I,e,78,1,1447.7999999970198,226530.60000000894,8107,WL,A,8.0
2,14.661999940872192,learn,45338.00005912781,Tue Apr 21 2026 13:12:33 GMT-0500 (Central Daylight Time),228811.60000000894,A,rattleenter,I,enter,826,1,2281.0,226530.60000000894,8107,WL,A,8.0
2,16.59500002861023,learn,43404.99997138977,Tue Apr 21 2026 13:12:33 GMT-0500 (Central Daylight Time),230744.30000001192,A,k,I,k,1913,1,1932.4000000059605,228811.90000000596,8107,WL,A,9.0
2,16.794999837875366,learn,43205.000162124634,Tue Apr 21 2026 13:12:33 GMT-0500 (Central Daylight Time),230944.30000001192,A,ke,I,e,188,1,2132.4000000059605,228811.90000000596,8107,WL,A,9.0
2,17.244999885559082,learn,42755.00011444092,Tue Apr 21 2026 13:12:33 GMT-0500 (Central Daylight Time),231394.0,A,key,I,y,444,1,2582.0999999940395,228811.90000000596,8107,WL,A,9.0
2,17.67799997329712,learn,42322.00002670288,Tue Apr 21 2026 13:12:33 GMT-0500 (Central Daylight Time),231827.5,A,keyenter,I,enter,420,1,3015.5999999940395,228811.90000000596,8107,WL,A,9.0
2,18.17799997329712,learn,41822.00002670288,Tue Apr 21 2026 13:12:33 GMT-0500 (Central Daylight Time),232327.20000000298,A,h,I,h,481,1,499.3999999910593,231827.80000001192,8107,WL,A,10.0
2,18.310999870300293,learn,41689.00012969971,Tue Apr 21 2026 13:12:33 GMT-0500 (Central Daylight Time),232460.70000000298,A,ha,I,a,117,1,632.8999999910593,231827.80000001192,8107,WL,A,10.0
2,18.360999822616577,learn,41639.00017738342,Tue Apr 21 2026 13:12:33 GMT-0500 (Central Daylight Time),232510.20000000298,A,har,I,r,40,1,682.3999999910593,231827.80000001192,8107,WL,A,10.0
2,18.643999814987183,learn,41356.00018501282,Tue Apr 21 2026 13:12:33 GMT-0500 (Central Daylight Time),232793.60000000894,A,harp,I,p,272,1,965.7999999970198,231827.80000001192,8107,WL,A,10.0
2,19.41100001335144,learn,40588.99998664856,Tue Apr 21 2026 13:12:33 GMT-0500 (Central Daylight Time),233560.30000001192,A,harpenter,I,enter,747,1,1732.5,231827.80000001192,8107,WL,A,10.0
2,22.493000030517578,learn,37506.99996948242,Tue Apr 21 2026 13:12:33 GMT-0500 (Central Daylight Time),236642.30000001192,A,a,I,a,3077,1,3081.7000000029802,233560.60000000894,8107,WL,A,11.0
2,22.592999935150146,learn,37407.00006484985,Tue Apr 21 2026 13:12:33 GMT-0500 (Central Daylight Time),236742.30000001192,A,ap,I,p,91,1,3181.7000000029802,233560.60000000894,8107,WL,A,11.0
2,23.026000022888184,learn,36973.99997711182,Tue Apr 21 2026 13:12:33 GMT-0500 (Central Daylight Time),237175.70000000298,A,apl,I,l,423,1,3615.0999999940395,233560.60000000894,8107,WL,A,11.0
2,23.375999927520752,learn,36624.00007247925,Tue Apr 21 2026 13:12:33 GMT-0500 (Central Daylight Time),237525.5,A,ap,I,backspace,341,1,3964.8999999910593,233560.60000000894,8107,WL,A,11.0
2,23.675999879837036,learn,36324.000120162964,Tue Apr 21 2026 13:12:33 GMT-0500 (Central Daylight Time),237825.30000001192,A,app,I,p,287,1,4264.70000000298,233560.60000000894,8107,WL,A,11.0
2,23.893999814987183,learn,36106.00018501282,Tue Apr 21 2026 13:12:33 GMT-0500 (Central Daylight Time),238043.30000001192,A,appl,I,l,196,1,4482.70000000298,233560.60000000894,8107,WL,A,11.0
2,24.30900001525879,learn,35690.99998474121,Tue Apr 21 2026 13:12:33 GMT-0500 (Central Daylight Time),238458.40000000596,A,apple,I,e,409,1,4897.79999999702,233560.60000000894,8107,WL,A,11.0
2,24.45899987220764,learn,35541.00012779236,Tue Apr 21 2026 13:12:33 GMT-0500 (Central Daylight Time),238608.80000001192,A,appleenter,I,enter,139,1,5048.20000000298,233560.60000000894,8107,WL,A,11.0
2,24.825999975204468,learn,35174.00002479553,Tue Apr 21 2026 13:12:33 GMT-0500 (Central Daylight Time),238975.10000000894,A,l,I,l,356,1,366.0,238609.10000000894,8107,WL,A,12.0
2,25.04199981689453,learn,34958.00018310547,Tue Apr 21 2026 13:12:33 GMT-0500 (Central Daylight Time),239191.70000000298,A,lo,I,o,197,1,582.5999999940395,238609.10000000894,8107,WL,A,12.0
2,25.14199995994568,learn,34858.00004005432,Tue Apr 21 2026 13:12:33 GMT-0500 (Central Daylight Time),239291.70000000298,A,log,I,g,85,1,682.5999999940395,238609.10000000894,8107,WL,A,12.0
2,25.507999897003174,learn,34492.000102996826,Tue Apr 21 2026 13:12:33 GMT-0500 (Central Daylight Time),239658.0,A,logenter,I,enter,362,1,1048.8999999910593,238609.10000000894,8107,WL,A,12.0
2,32.08999991416931,learn,27910.00008583069,Tue Apr 21 2026 13:12:33 GMT-0500 (Central Daylight Time),246239.5,A,c,I,c,6563,1,6581.199999988079,239658.30000001192,8107,WL,A,13.0
2,32.139999866485596,learn,27860.000133514404,Tue Apr 21 2026 13:12:33 GMT-0500 (Central Daylight Time),246289.40000000596,A,ch,I,h,38,1,6631.0999999940395,239658.30000001192,8107,WL,A,13.0
2,32.4229998588562,learn,27577.0001411438,Tue Apr 21 2026 13:12:33 GMT-0500 (Central Daylight Time),246572.80000001192,A,chi,I,i,267,1,6914.5,239658.30000001192,8107,WL,A,13.0
2,32.53999996185303,learn,27460.000038146973,Tue Apr 21 2026 13:12:33 GMT-0500 (Central Daylight Time),246689.40000000596,A,chim,I,m,104,1,7031.0999999940395,239658.30000001192,8107,WL,A,13.0
2,33.10599994659424,learn,26894.00005340576,Tue Apr 21 2026 13:12:33 GMT-0500 (Central Daylight Time),247256.0,A,chimn,I,n,547,1,7597.699999988079,239658.30000001192,8107,WL,A,13.0
2,33.27300000190735,learn,26726.99999809265,Tue Apr 21 2026 13:12:33 GMT-0500 (Central Daylight Time),247422.70000000298,A,chimne,I,e,157,1,7764.399999991059,239658.30000001192,8107,WL,A,13.0
2,33.65599989891052,learn,26344.000101089478,Tue Apr 21 2026 13:12:33 GMT-0500 (Central Daylight Time),247805.40000000596,A,chimney,I,y,366,1,8147.0999999940395,239658.30000001192,8107,WL,A,13.0
2,34.138999938964844,learn,25861.000061035156,Tue Apr 21 2026 13:12:33 GMT-0500 (Central Daylight Time),248289.0,A,chimneyenter,I,enter,463,1,8630.699999988079,239658.30000001192,8107,WL,A,13.0
2,41.519999980926514,learn,18480.000019073486,Tue Apr 21 2026 13:12:33 GMT-0500 (Central Daylight Time),255670.0,A,f,I,f,7372,1,7380.399999991059,248289.60000000894,8107,WL,A,14.0
2,41.58699989318848,learn,18413.000106811523,Tue Apr 21 2026 13:12:33 GMT-0500 (Central Daylight Time),255736.70000000298,A,fl,I,l,55,1,7447.0999999940395,248289.60000000894,8107,WL,A,14.0
2,41.8529999256134,learn,18147.000074386597,Tue Apr 21 2026 13:12:33 GMT-0500 (Central Daylight Time),256003.0,A,flo,I,o,261,1,7713.399999991059,248289.60000000894,8107,WL,A,14.0
2,42.05299997329712,learn,17947.00002670288,Tue Apr 21 2026 13:12:33 GMT-0500 (Central Daylight Time),256203.10000000894,A,flow,I,w,194,1,7913.5,248289.60000000894,8107,WL,A,14.0
2,42.13699984550476,learn,17863.00015449524,Tue Apr 21 2026 13:12:33 GMT-0500 (Central Daylight Time),256286.5,A,flowe,I,e,67,1,7996.899999991059,248289.60000000894,8107,WL,A,14.0
2,42.23699998855591,learn,17763.00001144409,Tue Apr 21 2026 13:12:33 GMT-0500 (Central Daylight Time),256386.30000001192,A,flower,I,r,86,1,8096.70000000298,248289.60000000894,8107,WL,A,14.0
2,42.437000036239624,learn,17562.999963760376,Tue Apr 21 2026 13:12:33 GMT-0500 (Central Daylight Time),256586.20000000298,A,flowerenter,I,enter,186,1,8296.59999999404,248289.60000000894,8107,WL,A,14.0
2,57.198999881744385,learn,2801.0001182556152,Tue Apr 21 2026 13:12:33 GMT-0500 (Central Daylight Time),271348.3000000119,A,r,I,r,14754,1,14761.800000011921,256586.5,8107,WL,A,15.0
2,57.281999826431274,learn,2718.0001735687256,Tue Apr 21 2026 13:12:33 GMT-0500 (Central Daylight Time),271431.40000000596,A,ru,I,u,64,1,14844.90000000596,256586.5,8107,WL,A,15.0
2,57.514999866485596,learn,2485.0001335144043,Tue Apr 21 2026 13:12:33 GMT-0500 (Central Daylight Time),271664.700000003,A,rug,I,g,213,1,15078.20000000298,256586.5,8107,WL,A,15.0
2,57.71499991416931,learn,2285.0000858306885,Tue Apr 21 2026 13:12:33 GMT-0500 (Central Daylight Time),271864.60000000894,A,rugenter,I,enter,188,1,15278.10000000894,256586.5,8107,WL,A,15.0
3,0.748999834060669,learn,59251.00016593933,Tue Apr 21 2026 13:12:33 GMT-0500 (Central Daylight Time),337494.3000000119,A,b,I,b,740,1,749.7000000029802,336744.60000000894,8107,WL,A,1.0
3,1.065999984741211,learn,58934.00001525879,Tue Apr 21 2026 13:12:33 GMT-0500 (Central Daylight Time),337810.700000003,A,bu,I,u,301,1,1066.0999999940395,336744.60000000894,8107,WL,A,1.0
3,1.3339998722076416,learn,58666.00012779236,Tue Apr 21 2026 13:12:33 GMT-0500 (Central Daylight Time),338078.60000000894,A,but,I,t,250,1,1334.0,336744.60000000894,8107,WL,A,1.0
3,1.4659998416900635,learn,58534.00015830994,Tue Apr 21 2026 13:12:33 GMT-0500 (Central Daylight Time),338210.40000000596,A,butt,I,t,125,1,1465.7999999970198,336744.60000000894,8107,WL,A,1.0
3,1.6159999370574951,learn,58384.000062942505,Tue Apr 21 2026 13:12:33 GMT-0500 (Central Daylight Time),338360.5,A,butto,I,o,130,1,1615.8999999910593,336744.60000000894,8107,WL,A,1.0
3,1.6989998817443848,learn,58301.000118255615,Tue Apr 21 2026 13:12:33 GMT-0500 (Central Daylight Time),338444.200000003,A,button,I,n,68,1,1699.5999999940395,336744.60000000894,8107,WL,A,1.0
3,2.0819997787475586,learn,57918.00022125244,Tue Apr 21 2026 13:12:33 GMT-0500 (Central Daylight Time),338827.200000003,A,buttonenter,I,enter,369,1,2082.5999999940395,336744.60000000894,8107,WL,A,1.0
3,2.5819997787475586,learn,57418.00022125244,Tue Apr 21 2026 13:12:33 GMT-0500 (Central Daylight Time),339326.8000000119,A,l,I,l,481,1,499.20000000298023,338827.60000000894,8107,WL,A,2.0
3,2.7819998264312744,learn,57218.000173568726,Tue Apr 21 2026 13:12:33 GMT-0500 (Central Daylight Time),339527.10000000894,A,lo,I,o,182,1,699.5,338827.60000000894,8107,WL,A,2.0
3,2.931999921798706,learn,57068.000078201294,Tue Apr 21 2026 13:12:33 GMT-0500 (Central Daylight Time),339677.0,A,log,I,g,135,1,849.3999999910593,338827.60000000894,8107,WL,A,2.0
3,3.248999834060669,learn,56751.00016593933,Tue Apr 21 2026 13:12:33 GMT-0500 (Central Daylight Time),339993.40000000596,A,logenter,I,enter,295,1,1165.7999999970198,338827.60000000894,8107,WL,A,2.0
3,3.6649999618530273,learn,56335.00003814697,Tue Apr 21 2026 13:12:33 GMT-0500 (Central Daylight Time),340410.0,A,k,I,k,404,1,416.19999998807907,339993.8000000119,8107,WL,A,3.0
3,4.181999921798706,learn,55818.000078201294,Tue Apr 21 2026 13:12:33 GMT-0500 (Central Daylight Time),340926.5,A,ke,I,e,499,1,932.6999999880791,339993.8000000119,8107,WL,A,3.0
3,4.431999921798706,learn,55568.000078201294,Tue Apr 21 2026 13:12:33 GMT-0500 (Central Daylight Time),341176.5,A,key,I,y,230,1,1182.699999988079,339993.8000000119,8107,WL,A,3.0
3,4.831999778747559,learn,55168.00022125244,Tue Apr 21 2026 13:12:33 GMT-0500 (Central Daylight Time),341576.3000000119,A,keyenter,I,enter,379,1,1582.5,339993.8000000119,8107,WL,A,3.0
3,5.080999851226807,learn,54919.00014877319,Tue Apr 21 2026 13:12:33 GMT-0500 (Central Daylight Time),341826.0,A,r,I,r,245,1,249.29999999701977,341576.700000003,8107,WL,A,4.0
3,5.180999994277954,learn,54819.000005722046,Tue Apr 21 2026 13:12:33 GMT-0500 (Central Daylight Time),341926.200000003,A,ra,I,a,83,1,349.5,341576.700000003,8107,WL,A,4.0
3,5.364999771118164,learn,54635.000228881836,Tue Apr 21 2026 13:12:33 GMT-0500 (Central Daylight Time),342109.40000000596,A,rat,I,t,174,1,532.7000000029802,341576.700000003,8107,WL,A,4.0
3,5.514999866485596,learn,54485.000133514404,Tue Apr 21 2026 13:12:33 GMT-0500 (Central Daylight Time),342259.60000000894,A,ratt,I,t,136,1,682.9000000059605,341576.700000003,8107,WL,A,4.0
3,5.664999961853027,learn,54335.00003814697,Tue Apr 21 2026 13:12:33 GMT-0500 (Central Daylight Time),342409.40000000596,A,rattl,I,l,129,1,832.7000000029802,341576.700000003,8107,WL,A,4.0
3,5.764999866485596,learn,54235.000133514404,Tue Apr 21 2026 13:12:33 GMT-0500 (Central Daylight Time),342509.3000000119,A,rattle,I,e,83,1,932.6000000089407,341576.700000003,8107,WL,A,4.0
3,5.980999946594238,learn,54019.00005340576,Tue Apr 21 2026 13:12:33 GMT-0500 (Central Daylight Time),342726.0,A,rattleenter,I,enter,207,1,1149.2999999970198,341576.700000003,8107,WL,A,4.0
3,6.21399998664856,learn,53786.00001335144,Tue Apr 21 2026 13:12:33 GMT-0500 (Central Daylight Time),342959.200000003,A,g,I,g,215,1,232.79999999701977,342726.40000000596,8107,WL,A,5.0
3,6.296999931335449,learn,53703.00006866455,Tue Apr 21 2026 13:12:33 GMT-0500 (Central Daylight Time),343042.3000000119,A,go,I,o,77,1,315.90000000596046,342726.40000000596,8107,WL,A,5.0
3,6.480999946594238,learn,53519.00005340576,Tue Apr 21 2026 13:12:33 GMT-0500 (Central Daylight Time),343225.8000000119,A,gol,I,l,178,1,499.40000000596046,342726.40000000596,8107,WL,A,5.0
3,6.613999843597412,learn,53386.00015640259,Tue Apr 21 2026 13:12:33 GMT-0500 (Central Daylight Time),343359.3000000119,A,gold,I,d,124,1,632.9000000059605,342726.40000000596,8107,WL,A,5.0
3,6.847999811172485,learn,53152.000188827515,Tue Apr 21 2026 13:12:33 GMT-0500 (Central Daylight Time),343592.40000000596,A,goldenter,I,enter,221,1,866.0,342726.40000000596,8107,WL,A,5.0
3,7.080999851226807,learn,52919.00014877319,Tue Apr 21 2026 13:12:33 GMT-0500 (Central Daylight Time),343825.5,A,f,I,f,221,1,232.79999999701977,343592.700000003,8107,WL,A,6.0
3,7.229999780654907,learn,52770.00021934509,Tue Apr 21 2026 13:12:33 GMT-0500 (Central Daylight Time),343975.200000003,A,fi,I,i,130,1,382.5,343592.700000003,8107,WL,A,6.0
3,7.313999891281128,learn,52686.00010871887,Tue Apr 21 2026 13:12:33 GMT-0500 (Central Daylight Time),344058.60000000894,A,fin,I,n,76,1,465.90000000596046,343592.700000003,8107,WL,A,6.0
3,7.446999788284302,learn,52553.0002117157,Tue Apr 21 2026 13:12:33 GMT-0500 (Central Daylight Time),344191.8000000119,A,fing,I,g,122,1,599.1000000089407,343592.700000003,8107,WL,A,6.0
3,7.613999843597412,learn,52386.00015640259,Tue Apr 21 2026 13:12:33 GMT-0500 (Central Daylight Time),344358.8000000119,A,finge,I,e,156,1,766.1000000089407,343592.700000003,8107,WL,A,6.0
3,7.696999788284302,learn,52303.0002117157,Tue Apr 21 2026 13:12:33 GMT-0500 (Central Daylight Time),344441.90000000596,A,finger,I,r,79,1,849.2000000029802,343592.700000003,8107,WL,A,6.0
3,7.863999843597412,learn,52136.00015640259,Tue Apr 21 2026 13:12:33 GMT-0500 (Central Daylight Time),344608.700000003,A,fingerenter,I,enter,147,1,1016.0,343592.700000003,8107,WL,A,6.0
3,9.479999780654907,learn,50520.00021934509,Tue Apr 21 2026 13:12:33 GMT-0500 (Central Daylight Time),346225.0,A,h,I,h,1604,1,1615.7999999970198,344609.200000003,8107,WL,A,7.0
3,9.579999923706055,learn,50420.000076293945,Tue Apr 21 2026 13:12:33 GMT-0500 (Central Daylight Time),346324.8000000119,A,ha,I,a,91,1,1715.6000000089407,344609.200000003,8107,WL,A,7.0
3,9.663999795913696,learn,50336.000204086304,Tue Apr 21 2026 13:12:33 GMT-0500 (Central Daylight Time),346408.3000000119,A,har,I,r,72,1,1799.1000000089407,344609.200000003,8107,WL,A,7.0
3,10.095999956130981,learn,49904.00004386902,Tue Apr 21 2026 13:12:33 GMT-0500 (Central Daylight Time),346841.3000000119,A,harp,I,p,420,1,2232.1000000089407,344609.200000003,8107,WL,A,7.0
3,10.495999813079834,learn,49504.000186920166,Tue Apr 21 2026 13:12:33 GMT-0500 (Central Daylight Time),347241.200000003,A,harpenter,I,enter,379,1,2632.0,344609.200000003,8107,WL,A,7.0
3,12.744999885559082,learn,47255.00011444092,Tue Apr 21 2026 13:12:33 GMT-0500 (Central Daylight Time),349490.3000000119,A,m,I,m,2243,1,2248.7000000029802,347241.60000000894,8107,WL,A,8.0
3,13.961999893188477,learn,46038.00010681152,Tue Apr 21 2026 13:12:33 GMT-0500 (Central Daylight Time),350706.8000000119,A,me,I,e,1210,1,3465.2000000029802,347241.60000000894,8107,WL,A,8.0
3,14.078999996185303,learn,45921.0000038147,Tue Apr 21 2026 13:12:33 GMT-0500 (Central Daylight Time),350823.60000000894,A,mea,I,a,105,1,3582.0,347241.60000000894,8107,WL,A,8.0
3,14.311999797821045,learn,45688.000202178955,Tue Apr 21 2026 13:12:33 GMT-0500 (Central Daylight Time),351056.8000000119,A,mead,I,d,213,1,3815.2000000029802,347241.60000000894,8107,WL,A,8.0
3,14.411999940872192,learn,45588.00005912781,Tue Apr 21 2026 13:12:33 GMT-0500 (Central Daylight Time),351156.700000003,A,meado,I,o,85,1,3915.0999999940395,347241.60000000894,8107,WL,A,8.0
3,14.59499979019165,learn,45405.00020980835,Tue Apr 21 2026 13:12:33 GMT-0500 (Central Daylight Time),351339.90000000596,A,meadow,I,w,169,1,4098.29999999702,347241.60000000894,8107,WL,A,8.0
3,14.994999885559082,learn,45005.00011444092,Tue Apr 21 2026 13:12:33 GMT-0500 (Central Daylight Time),351739.8000000119,A,meadowenter,I,enter,394,1,4498.20000000298,347241.60000000894,8107,WL,A,8.0
3,15.211999893188477,learn,44788.00010681152,Tue Apr 21 2026 13:12:33 GMT-0500 (Central Daylight Time),351956.5,A,f,I,f,208,1,216.3999999910593,351740.10000000894,8107,WL,A,9.0
3,15.277999877929688,learn,44722.00012207031,Tue Apr 21 2026 13:12:33 GMT-0500 (Central Daylight Time),352023.10000000894,A,fl,I,l,56,1,283.0,351740.10000000894,8107,WL,A,9.0
3,15.494999885559082,learn,44505.00011444092,Tue Apr 21 2026 13:12:33 GMT-0500 (Central Daylight Time),352239.60000000894,A,flo,I,o,197,1,499.5,351740.10000000894,8107,WL,A,9.0
3,15.577999830245972,learn,44422.00016975403,Tue Apr 21 2026 13:12:33 GMT-0500 (Central Daylight Time),352323.0,A,flow,I,w,69,1,582.8999999910593,351740.10000000894,8107,WL,A,9.0
3,15.645999908447266,learn,44354.000091552734,Tue Apr 21 2026 13:12:33 GMT-0500 (Central Daylight Time),352391.200000003,A,flowe,I,e,51,1,651.0999999940395,351740.10000000894,8107,WL,A,9.0
3,15.76199984550476,learn,44238.00015449524,Tue Apr 21 2026 13:12:33 GMT-0500 (Central Daylight Time),352506.5,A,flower,I,r,94,1,766.3999999910593,351740.10000000894,8107,WL,A,9.0
3,16.07799983024597,learn,43922.00016975403,Tue Apr 21 2026 13:12:33 GMT-0500 (Central Daylight Time),352823.0,A,flowerenter,I,enter,306,1,1082.8999999910593,351740.10000000894,8107,WL,A,9.0
3,17.59599995613098,learn,42404.00004386902,Tue Apr 21 2026 13:12:33 GMT-0500 (Central Daylight Time),354340.40000000596,A,r,I,r,1509,1,1517.0,352823.40000000596,8107,WL,A,10.0
3,17.694000005722046,learn,42305.999994277954,Tue Apr 21 2026 13:12:33 GMT-0500 (Central Daylight Time),354439.10000000894,A,ru,I,u,88,1,1615.7000000029802,352823.40000000596,8107,WL,A,10.0
3,17.860999822616577,learn,42139.00017738342,Tue Apr 21 2026 13:12:33 GMT-0500 (Central Daylight Time),354605.90000000596,A,rug,I,g,149,1,1782.5,352823.40000000596,8107,WL,A,10.0
3,18.0939998626709,learn,41906.0001373291,Tue Apr 21 2026 13:12:33 GMT-0500 (Central Daylight Time),354838.8000000119,A,rugenter,I,enter,216,1,2015.4000000059605,352823.40000000596,8107,WL,A,10.0
3,20.32699990272522,learn,39673.00009727478,Tue Apr 21 2026 13:12:33 GMT-0500 (Central Daylight Time),357071.5,A,b,I,b,2222,1,2232.5,354839.0,8107,WL,A,11.0
3,20.543999910354614,learn,39456.000089645386,Tue Apr 21 2026 13:12:33 GMT-0500 (Central Daylight Time),357288.40000000596,A,bo,I,o,197,1,2449.4000000059605,354839.0,8107,WL,A,11.0
3,20.74399995803833,learn,39256.00004196167,Tue Apr 21 2026 13:12:33 GMT-0500 (Central Daylight Time),357489.3000000119,A,boo,I,o,181,1,2650.300000011921,354839.0,8107,WL,A,11.0
3,20.793999910354614,learn,39206.000089645386,Tue Apr 21 2026 13:12:33 GMT-0500 (Central Daylight Time),357538.5,A,book,I,k,43,1,2699.5,354839.0,8107,WL,A,11.0
3,21.175999879837036,learn,38824.000120162964,Tue Apr 21 2026 13:12:33 GMT-0500 (Central Daylight Time),357921.10000000894,A,bookenter,I,enter,377,1,3082.1000000089407,354839.0,8107,WL,A,11.0
3,26.640999794006348,learn,33359.00020599365,Tue Apr 21 2026 13:12:33 GMT-0500 (Central Daylight Time),363385.90000000596,A,h,I,h,5460,1,5464.5,357921.40000000596,8107,WL,A,12.0
3,26.857999801635742,learn,33142.00019836426,Tue Apr 21 2026 13:12:33 GMT-0500 (Central Daylight Time),363602.60000000894,A,ha,I,a,211,1,5681.20000000298,357921.40000000596,8107,WL,A,12.0
3,26.95799994468689,learn,33042.00005531311,Tue Apr 21 2026 13:12:33 GMT-0500 (Central Daylight Time),363702.90000000596,A,har,I,r,83,1,5781.5,357921.40000000596,8107,WL,A,12.0
3,27.090999841690063,learn,32909.00015830994,Tue Apr 21 2026 13:12:33 GMT-0500 (Central Daylight Time),363835.8000000119,A,harp,I,p,126,1,5914.4000000059605,357921.40000000596,8107,WL,A,12.0
3,29.93999981880188,learn,30060.00018119812,Tue Apr 21 2026 13:12:33 GMT-0500 (Central Daylight Time),366685.200000003,A,harpenter,I,enter,2833,1,8763.79999999702,357921.40000000596,8107,WL,A,12.0
3,34.17199993133545,learn,25828.00006866455,Tue Apr 21 2026 13:12:33 GMT-0500 (Central Daylight Time),370917.200000003,A,c,I,c,4216,1,4231.5999999940395,366685.60000000894,8107,WL,A,13.0
3,34.25499987602234,learn,25745.00012397766,Tue Apr 21 2026 13:12:33 GMT-0500 (Central Daylight Time),371000.200000003,A,ch,I,h,63,1,4314.5999999940395,366685.60000000894,8107,WL,A,13.0
3,34.52199983596802,learn,25478.000164031982,Tue Apr 21 2026 13:12:33 GMT-0500 (Central Daylight Time),371267.0,A,chi,I,i,253,1,4581.399999991059,366685.60000000894,8107,WL,A,13.0
3,34.621999979019165,learn,25378.000020980835,Tue Apr 21 2026 13:12:33 GMT-0500 (Central Daylight Time),371367.200000003,A,chim,I,m,89,1,4681.5999999940395,366685.60000000894,8107,WL,A,13.0
3,35.23799991607666,learn,24762.00008392334,Tue Apr 21 2026 13:12:33 GMT-0500 (Central Daylight Time),371983.3000000119,A,chimn,I,n,597,1,5297.70000000298,366685.60000000894,8107,WL,A,13.0
3,35.40499997138977,learn,24595.00002861023,Tue Apr 21 2026 13:12:33 GMT-0500 (Central Daylight Time),372150.10000000894,A,chimne,I,e,149,1,5464.5,366685.60000000894,8107,WL,A,13.0
3,35.454999923706055,learn,24545.000076293945,Tue Apr 21 2026 13:12:33 GMT-0500 (Central Daylight Time),372200.200000003,A,chimney,I,y,30,1,5514.5999999940395,366685.60000000894,8107,WL,A,13.0
3,35.787999868392944,learn,24212.000131607056,Tue Apr 21 2026 13:12:33 GMT-0500 (Central Daylight Time),372533.40000000596,A,chimneyenter,I,enter,324,1,5847.79999999702,366685.60000000894,8107,WL,A,13.0
3,38.120999813079834,learn,21879.000186920166,Tue Apr 21 2026 13:12:33 GMT-0500 (Central Daylight Time),374865.8000000119,A,r,I,r,2328,1,2332.0,372533.8000000119,8107,WL,A,14.0
3,38.22099995613098,learn,21779.00004386902,Tue Apr 21 2026 13:12:33 GMT-0500 (Central Daylight Time),374965.8000000119,A,ra,I,a,82,1,2432.0,372533.8000000119,8107,WL,A,14.0
3,38.436999797821045,learn,21563.000202178955,Tue Apr 21 2026 13:12:33 GMT-0500 (Central Daylight Time),375182.40000000596,A,rat,I,t,199,1,2648.5999999940395,372533.8000000119,8107,WL,A,14.0
3,38.57099986076355,learn,21429.00013923645,Tue Apr 21 2026 13:12:33 GMT-0500 (Central Daylight Time),375315.8000000119,A,ratt,I,t,127,1,2782.0,372533.8000000119,8107,WL,A,14.0
3,38.853999853134155,learn,21146.000146865845,Tue Apr 21 2026 13:12:33 GMT-0500 (Central Daylight Time),375599.10000000894,A,rattl,I,l,265,1,3065.2999999970198,372533.8000000119,8107,WL,A,14.0
3,38.97099995613098,learn,21029.00004386902,Tue Apr 21 2026 13:12:33 GMT-0500 (Central Daylight Time),375715.700000003,A,rattle,I,e,101,1,3181.8999999910593,372533.8000000119,8107,WL,A,14.0
3,43.68599987030029,learn,16314.000129699707,Tue Apr 21 2026 13:12:33 GMT-0500 (Central Daylight Time),380430.8000000119,A,rattl,I,backspace,4697,1,7897.0,372533.8000000119,8107,WL,A,14.0
3,43.819000005722046,learn,16180.999994277954,Tue Apr 21 2026 13:12:33 GMT-0500 (Central Daylight Time),380564.200000003,A,ratt,I,backspace,125,1,8030.399999991059,372533.8000000119,8107,WL,A,14.0
3,44.00399994850159,learn,15996.000051498413,Tue Apr 21 2026 13:12:33 GMT-0500 (Central Daylight Time),380748.60000000894,A,rat,I,backspace,168,1,8214.79999999702,372533.8000000119,8107,WL,A,14.0
3,44.168999910354614,learn,15831.000089645386,Tue Apr 21 2026 13:12:33 GMT-0500 (Central Daylight Time),380914.200000003,A,ra,I,backspace,152,1,8380.39999999106,372533.8000000119,8107,WL,A,14.0
3,44.30199980735779,learn,15698.000192642212,Tue Apr 21 2026 13:12:33 GMT-0500 (Central Daylight Time),381047.3000000119,A,r,I,backspace,114,1,8513.5,372533.8000000119,8107,WL,A,14.0
3,44.45199990272522,learn,15548.00009727478,Tue Apr 21 2026 13:12:33 GMT-0500 (Central Daylight Time),381197.200000003,A,,I,backspace,141,1,8663.39999999106,372533.8000000119,8107,WL,A,14.0
3,46.05199980735779,learn,13948.000192642212,Tue Apr 21 2026 13:12:33 GMT-0500 (Central Daylight Time),382796.700000003,A,l,I,l,1583,1,10262.89999999106,372533.8000000119,8107,WL,A,14.0
3,46.26799988746643,learn,13732.00011253357,Tue Apr 21 2026 13:12:33 GMT-0500 (Central Daylight Time),383013.5,A,lo,I,o,208,1,10479.699999988079,372533.8000000119,8107,WL,A,14.0
3,46.334999799728394,learn,13665.000200271606,Tue Apr 21 2026 13:12:33 GMT-0500 (Central Daylight Time),383080.10000000894,A,log,I,g,47,1,10546.29999999702,372533.8000000119,8107,WL,A,14.0
3,46.567999839782715,learn,13432.000160217285,Tue Apr 21 2026 13:12:33 GMT-0500 (Central Daylight Time),383313.10000000894,A,logenter,I,enter,228,1,10779.29999999702,372533.8000000119,8107,WL,A,14.0
3,47.20099997520447,learn,12799.000024795532,Tue Apr 21 2026 13:12:33 GMT-0500 (Central Daylight Time),383946.3000000119,A,g,I,g,628,1,633.0,383313.3000000119,8107,WL,A,15.0
3,47.300999879837036,learn,12699.000120162964,Tue Apr 21 2026 13:12:33 GMT-0500 (Central Daylight Time),384046.3000000119,A,go,I,o,82,1,733.0,383313.3000000119,8107,WL,A,15.0
3,47.51799988746643,learn,12482.00011253357,Tue Apr 21 2026 13:12:33 GMT-0500 (Central Daylight Time),384263.10000000894,A,gol,I,l,207,1,949.7999999970198,383313.3000000119,8107,WL,A,15.0
3,47.584999799728394,learn,12415.000200271606,Tue Apr 21 2026 13:12:33 GMT-0500 (Central Daylight Time),384329.60000000894,A,gole,I,e,53,1,1016.2999999970198,383313.3000000119,8107,WL,A,15.0
3,48.18499994277954,learn,11815.000057220459,Tue Apr 21 2026 13:12:33 GMT-0500 (Central Daylight Time),384929.5,A,goled,I,d,588,1,1616.199999988079,383313.3000000119,8107,WL,A,15.0
3,48.60099983215332,learn,11399.00016784668,Tue Apr 21 2026 13:12:33 GMT-0500 (Central Daylight Time),385345.8000000119,A,gole,I,backspace,404,1,2032.5,383313.3000000119,8107,WL,A,15.0
3,48.78399991989136,learn,11216.000080108643,Tue Apr 21 2026 13:12:33 GMT-0500 (Central Daylight Time),385529.200000003,A,gol,I,backspace,171,1,2215.8999999910593,383313.3000000119,8107,WL,A,15.0
3,48.867999792099,learn,11132.000207901001,Tue Apr 21 2026 13:12:33 GMT-0500 (Central Daylight Time),385612.700000003,A,gold,I,d,68,1,2299.3999999910593,383313.3000000119,8107,WL,A,15.0
3,49.16799998283386,learn,10832.000017166138,Tue Apr 21 2026 13:12:33 GMT-0500 (Central Daylight Time),385912.60000000894,A,goldenter,I,enter,280,1,2599.2999999970198,383313.3000000119,8107,WL,A,15.0
4,0.7000000476837158,learn,59299.999952316284,Tue Apr 21 2026 13:12:33 GMT-0500 (Central Daylight Time),451192.10000000894,A,b,I,b,689,1,699.7000000029802,450492.40000000596,8107,WL,A,1.0
4,1.3000001907348633,learn,58699.99980926514,Tue Apr 21 2026 13:12:33 GMT-0500 (Central Daylight Time),451792.0,A,bo,I,o,588,1,1299.5999999940395,450492.40000000596,8107,WL,A,1.0
4,1.5,learn,58500.0,Tue Apr 21 2026 13:12:33 GMT-0500 (Central Daylight Time),451991.60000000894,A,boo,I,o,180,1,1499.2000000029802,450492.40000000596,8107,WL,A,1.0
4,1.6170001029968262,learn,58382.999897003174,Tue Apr 21 2026 13:12:33 GMT-0500 (Central Daylight Time),452108.3000000119,A,book,I,k,101,1,1615.9000000059605,450492.40000000596,8107,WL,A,1.0
4,2.127000093460083,learn,57872.99990653992,Tue Apr 21 2026 13:12:33 GMT-0500 (Central Daylight Time),452618.90000000596,A,bookenter,I,enter,490,1,2126.5,450492.40000000596,8107,WL,A,1.0
4,2.815999984741211,learn,57184.00001525879,Tue Apr 21 2026 13:12:33 GMT-0500 (Central Daylight Time),453308.0,A,f,I,f,679,1,688.7999999970198,452619.200000003,8107,WL,A,2.0
4,2.9670000076293945,learn,57032.999992370605,Tue Apr 21 2026 13:12:33 GMT-0500 (Central Daylight Time),453458.90000000596,A,fl,I,l,144,1,839.7000000029802,452619.200000003,8107,WL,A,2.0
4,3.1660001277923584,learn,56833.99987220764,Tue Apr 21 2026 13:12:33 GMT-0500 (Central Daylight Time),453657.8000000119,A,flo,I,o,186,1,1038.6000000089407,452619.200000003,8107,WL,A,2.0
4,3.249000072479248,learn,56750.99992752075,Tue Apr 21 2026 13:12:33 GMT-0500 (Central Daylight Time),453741.200000003,A,flow,I,w,76,1,1122.0,452619.200000003,8107,WL,A,2.0
4,3.3340001106262207,learn,56665.99988937378,Tue Apr 21 2026 13:12:33 GMT-0500 (Central Daylight Time),453825.40000000596,A,flowe,I,e,64,1,1206.2000000029802,452619.200000003,8107,WL,A,2.0
4,3.4160001277923584,learn,56583.99987220764,Tue Apr 21 2026 13:12:33 GMT-0500 (Central Daylight Time),453907.90000000596,A,flower,I,r,67,1,1288.7000000029802,452619.200000003,8107,WL,A,2.0
4,3.749000072479248,learn,56250.99992752075,Tue Apr 21 2026 13:12:33 GMT-0500 (Central Daylight Time),454241.200000003,A,flowerenter,I,enter,313,1,1622.0,452619.200000003,8107,WL,A,2.0
4,4.249000072479248,learn,55750.99992752075,Tue Apr 21 2026 13:12:33 GMT-0500 (Central Daylight Time),454741.10000000894,A,t,I,t,484,1,499.6000000089407,454241.5,8107,WL,A,3.0
4,4.449000120162964,learn,55550.999879837036,Tue Apr 21 2026 13:12:33 GMT-0500 (Central Daylight Time),454941.0,A,tr,I,r,183,1,699.5,454241.5,8107,WL,A,3.0
4,4.5320000648498535,learn,55467.99993515015,Tue Apr 21 2026 13:12:33 GMT-0500 (Central Daylight Time),455024.10000000894,A,tra,I,a,73,1,782.6000000089407,454241.5,8107,WL,A,3.0
4,4.766000032424927,learn,55233.99996757507,Tue Apr 21 2026 13:12:33 GMT-0500 (Central Daylight Time),455257.40000000596,A,trai,I,i,221,1,1015.9000000059605,454241.5,8107,WL,A,3.0
4,4.866000175476074,learn,55133.999824523926,Tue Apr 21 2026 13:12:33 GMT-0500 (Central Daylight Time),455357.40000000596,A,train,I,n,91,1,1115.9000000059605,454241.5,8107,WL,A,3.0
4,5.414999961853027,learn,54585.00003814697,Tue Apr 21 2026 13:12:33 GMT-0500 (Central Daylight Time),455907.10000000894,A,trainenter,I,enter,543,1,1665.6000000089407,454241.5,8107,WL,A,3.0
4,5.749000072479248,learn,54250.99992752075,Tue Apr 21 2026 13:12:33 GMT-0500 (Central Daylight Time),456240.60000000894,A,m,I,m,321,1,333.20000000298023,455907.40000000596,8107,WL,A,4.0
4,5.865000009536743,learn,54134.99999046326,Tue Apr 21 2026 13:12:33 GMT-0500 (Central Daylight Time),456357.200000003,A,me,I,e,108,1,449.79999999701977,455907.40000000596,8107,WL,A,4.0
4,5.932000160217285,learn,54067.999839782715,Tue Apr 21 2026 13:12:33 GMT-0500 (Central Daylight Time),456423.700000003,A,mea,I,a,55,1,516.2999999970198,455907.40000000596,8107,WL,A,4.0
4,6.164999961853027,learn,53835.00003814697,Tue Apr 21 2026 13:12:33 GMT-0500 (Central Daylight Time),456657.10000000894,A,mead,I,d,213,1,749.7000000029802,455907.40000000596,8107,WL,A,4.0
4,6.381999969482422,learn,53618.00003051758,Tue Apr 21 2026 13:12:33 GMT-0500 (Central Daylight Time),456873.700000003,A,meado,I,o,196,1,966.2999999970198,455907.40000000596,8107,WL,A,4.0
4,6.749000072479248,learn,53250.99992752075,Tue Apr 21 2026 13:12:33 GMT-0500 (Central Daylight Time),457240.90000000596,A,meadow,I,w,363,1,1333.5,455907.40000000596,8107,WL,A,4.0
4,6.965000152587891,learn,53034.99984741211,Tue Apr 21 2026 13:12:33 GMT-0500 (Central Daylight Time),457456.700000003,A,meadown,I,n,205,1,1549.2999999970198,455907.40000000596,8107,WL,A,4.0
4,7.481000185012817,learn,52518.99981498718,Tue Apr 21 2026 13:12:33 GMT-0500 (Central Daylight Time),457973.10000000894,A,meadow,I,backspace,508,1,2065.7000000029802,455907.40000000596,8107,WL,A,4.0
4,7.898000001907349,learn,52101.99999809265,Tue Apr 21 2026 13:12:33 GMT-0500 (Central Daylight Time),458389.700000003,A,meadowenter,I,enter,400,1,2482.2999999970198,455907.40000000596,8107,WL,A,4.0
4,8.698000192642212,learn,51301.99980735779,Tue Apr 21 2026 13:12:33 GMT-0500 (Central Daylight Time),459189.5,A,r,I,r,791,1,799.3999999910593,458390.10000000894,8107,WL,A,5.0
4,8.781000137329102,learn,51218.9998626709,Tue Apr 21 2026 13:12:33 GMT-0500 (Central Daylight Time),459272.8000000119,A,ru,I,u,72,1,882.7000000029802,458390.10000000894,8107,WL,A,5.0
4,9.014000177383423,learn,50985.99982261658,Tue Apr 21 2026 13:12:33 GMT-0500 (Central Daylight Time),459506.10000000894,A,rug,I,g,227,1,1116.0,458390.10000000894,8107,WL,A,5.0
4,9.531000137329102,learn,50468.9998626709,Tue Apr 21 2026 13:12:33 GMT-0500 (Central Daylight Time),460022.5,A,rugenter,I,enter,507,1,1632.3999999910593,458390.10000000894,8107,WL,A,5.0
4,10.014000177383423,learn,49985.99982261658,Tue Apr 21 2026 13:12:33 GMT-0500 (Central Daylight Time),460505.60000000894,A,h,I,h,471,1,482.70000000298023,460022.90000000596,8107,WL,A,6.0
4,10.147000074386597,learn,49852.9999256134,Tue Apr 21 2026 13:12:33 GMT-0500 (Central Daylight Time),460638.90000000596,A,ha,I,a,123,1,616.0,460022.90000000596,8107,WL,A,6.0
4,10.21399998664856,learn,49786.00001335144,Tue Apr 21 2026 13:12:33 GMT-0500 (Central Daylight Time),460705.3000000119,A,har,I,r,61,1,682.4000000059605,460022.90000000596,8107,WL,A,6.0
4,10.547000169754028,learn,49452.99983024597,Tue Apr 21 2026 13:12:33 GMT-0500 (Central Daylight Time),461039.10000000894,A,harp,I,p,315,1,1016.2000000029802,460022.90000000596,8107,WL,A,6.0
4,10.94700002670288,learn,49052.99997329712,Tue Apr 21 2026 13:12:33 GMT-0500 (Central Daylight Time),461438.60000000894,A,harpenter,I,enter,390,1,1415.7000000029802,460022.90000000596,8107,WL,A,6.0
4,11.647000074386597,learn,48352.9999256134,Tue Apr 21 2026 13:12:33 GMT-0500 (Central Daylight Time),462138.5,A,k,I,k,686,1,699.5,461439.0,8107,WL,A,7.0
4,11.812999963760376,learn,48187.000036239624,Tue Apr 21 2026 13:12:33 GMT-0500 (Central Daylight Time),462305.0,A,ke,I,e,146,1,866.0,461439.0,8107,WL,A,7.0
4,12.796000003814697,learn,47203.9999961853,Tue Apr 21 2026 13:12:33 GMT-0500 (Central Daylight Time),463288.3000000119,A,key,I,y,964,1,1849.300000011921,461439.0,8107,WL,A,7.0
4,13.196000099182129,learn,46803.99990081787,Tue Apr 21 2026 13:12:33 GMT-0500 (Central Daylight Time),463688.200000003,A,keyenter,I,enter,388,1,2249.2000000029802,461439.0,8107,WL,A,7.0
4,13.663000106811523,learn,46336.99989318848,Tue Apr 21 2026 13:12:33 GMT-0500 (Central Daylight Time),464154.60000000894,A,r,I,r,452,1,466.1000000089407,463688.5,8107,WL,A,8.0
4,13.763000011444092,learn,46236.99998855591,Tue Apr 21 2026 13:12:33 GMT-0500 (Central Daylight Time),464254.700000003,A,ra,I,a,82,1,566.2000000029802,463688.5,8107,WL,A,8.0
4,13.963000059127808,learn,46036.99994087219,Tue Apr 21 2026 13:12:33 GMT-0500 (Central Daylight Time),464454.60000000894,A,rat,I,t,182,1,766.1000000089407,463688.5,8107,WL,A,8.0
4,14.09600019454956,learn,45903.99980545044,Tue Apr 21 2026 13:12:33 GMT-0500 (Central Daylight Time),464587.90000000596,A,ratt,I,t,127,1,899.4000000059605,463688.5,8107,WL,A,8.0
4,14.263000011444092,learn,45736.99998855591,Tue Apr 21 2026 13:12:33 GMT-0500 (Central Daylight Time),464754.60000000894,A,rattl,I,l,154,1,1066.1000000089407,463688.5,8107,WL,A,8.0
4,14.396000146865845,learn,45603.999853134155,Tue Apr 21 2026 13:12:33 GMT-0500 (Central Daylight Time),464887.90000000596,A,rattle,I,e,122,1,1199.4000000059605,463688.5,8107,WL,A,8.0
4,14.662000179290771,learn,45337.99982070923,Tue Apr 21 2026 13:12:33 GMT-0500 (Central Daylight Time),465154.3000000119,A,rattleenter,I,enter,253,1,1465.800000011921,463688.5,8107,WL,A,8.0
4,15.029000043869019,learn,44970.99995613098,Tue Apr 21 2026 13:12:33 GMT-0500 (Central Daylight Time),465520.8000000119,A,g,I,g,356,1,366.20000000298023,465154.60000000894,8107,WL,A,9.0
4,15.062000036239624,learn,44937.999963760376,Tue Apr 21 2026 13:12:33 GMT-0500 (Central Daylight Time),465554.3000000119,A,go,I,o,28,1,399.70000000298023,465154.60000000894,8107,WL,A,9.0
4,15.279000043869019,learn,44720.99995613098,Tue Apr 21 2026 13:12:33 GMT-0500 (Central Daylight Time),465770.60000000894,A,gol,I,l,202,1,616.0,465154.60000000894,8107,WL,A,9.0
4,15.42900013923645,learn,44570.99986076355,Tue Apr 21 2026 13:12:33 GMT-0500 (Central Daylight Time),465920.90000000596,A,gold,I,d,130,1,766.2999999970198,465154.60000000894,8107,WL,A,9.0
4,16.195000171661377,learn,43804.99982833862,Tue Apr 21 2026 13:12:33 GMT-0500 (Central Daylight Time),466687.200000003,A,goldenter,I,enter,749,1,1532.5999999940395,465154.60000000894,8107,WL,A,9.0
4,16.66200017929077,learn,43337.99982070923,Tue Apr 21 2026 13:12:33 GMT-0500 (Central Daylight Time),467153.5,A,c,I,c,453,1,465.8999999910593,466687.60000000894,8107,WL,A,10.0
4,16.712000131607056,learn,43287.999868392944,Tue Apr 21 2026 13:12:33 GMT-0500 (Central Daylight Time),467203.5,A,ch,I,h,35,1,515.8999999910593,466687.60000000894,8107,WL,A,10.0
4,16.979000091552734,learn,43020.999908447266,Tue Apr 21 2026 13:12:33 GMT-0500 (Central Daylight Time),467470.40000000596,A,chi,I,i,257,1,782.7999999970198,466687.60000000894,8107,WL,A,10.0
4,17.028000116348267,learn,42971.99988365173,Tue Apr 21 2026 13:12:33 GMT-0500 (Central Daylight Time),467520.200000003,A,chim,I,m,30,1,832.5999999940395,466687.60000000894,8107,WL,A,10.0
4,17.42799997329712,learn,42572.00002670288,Tue Apr 21 2026 13:12:33 GMT-0500 (Central Daylight Time),467919.90000000596,A,chimn,I,n,380,1,1232.2999999970198,466687.60000000894,8107,WL,A,10.0
4,17.59500002861023,learn,42404.99997138977,Tue Apr 21 2026 13:12:33 GMT-0500 (Central Daylight Time),468086.60000000894,A,chimne,I,e,149,1,1399.0,466687.60000000894,8107,WL,A,10.0
4,17.74500012397766,learn,42254.99987602234,Tue Apr 21 2026 13:12:33 GMT-0500 (Central Daylight Time),468236.60000000894,A,chimney,I,y,134,1,1549.0,466687.60000000894,8107,WL,A,10.0
4,18.17799997329712,learn,41822.00002670288,Tue Apr 21 2026 13:12:33 GMT-0500 (Central Daylight Time),468670.0,A,chimneyenter,I,enter,425,1,1982.3999999910593,466687.60000000894,8107,WL,A,10.0
4,18.511000156402588,learn,41488.99984359741,Tue Apr 21 2026 13:12:33 GMT-0500 (Central Daylight Time),469003.200000003,A,a,I,a,319,1,332.79999999701977,468670.40000000596,8107,WL,A,11.0
4,18.561000108718872,learn,41438.99989128113,Tue Apr 21 2026 13:12:33 GMT-0500 (Central Daylight Time),469053.200000003,A,ap,I,p,33,1,382.79999999701977,468670.40000000596,8107,WL,A,11.0
4,18.728000164031982,learn,41271.99983596802,Tue Apr 21 2026 13:12:33 GMT-0500 (Central Daylight Time),469219.8000000119,A,app,I,p,151,1,549.4000000059605,468670.40000000596,8107,WL,A,11.0
4,18.945000171661377,learn,41054.99982833862,Tue Apr 21 2026 13:12:33 GMT-0500 (Central Daylight Time),469436.40000000596,A,appl,I,l,209,1,766.0,468670.40000000596,8107,WL,A,11.0
4,19.194000005722046,learn,40805.999994277954,Tue Apr 21 2026 13:12:33 GMT-0500 (Central Daylight Time),469686.3000000119,A,apple,I,e,240,1,1015.9000000059605,468670.40000000596,8107,WL,A,11.0
4,19.49399995803833,learn,40506.00004196167,Tue Apr 21 2026 13:12:33 GMT-0500 (Central Daylight Time),469985.90000000596,A,appleenter,I,enter,294,1,1315.5,468670.40000000596,8107,WL,A,11.0
4,19.74399995803833,learn,40256.00004196167,Tue Apr 21 2026 13:12:33 GMT-0500 (Central Daylight Time),470235.90000000596,A,f,I,f,243,1,249.79999999701977,469986.10000000894,8107,WL,A,12.0
4,19.844000101089478,learn,40155.99989891052,Tue Apr 21 2026 13:12:33 GMT-0500 (Central Daylight Time),470336.0,A,fi,I,i,81,1,349.8999999910593,469986.10000000894,8107,WL,A,12.0
4,19.944000005722046,learn,40055.999994277954,Tue Apr 21 2026 13:12:33 GMT-0500 (Central Daylight Time),470436.0,A,fin,I,n,93,1,449.8999999910593,469986.10000000894,8107,WL,A,12.0
4,20.0770001411438,learn,39922.9998588562,Tue Apr 21 2026 13:12:33 GMT-0500 (Central Daylight Time),470569.10000000894,A,fing,I,g,122,1,583.0,469986.10000000894,8107,WL,A,12.0
4,20.228000164031982,learn,39771.99983596802,Tue Apr 21 2026 13:12:33 GMT-0500 (Central Daylight Time),470719.3000000119,A,finge,I,e,132,1,733.2000000029802,469986.10000000894,8107,WL,A,12.0
4,20.3270001411438,learn,39672.9998588562,Tue Apr 21 2026 13:12:33 GMT-0500 (Central Daylight Time),470819.200000003,A,finger,I,r,94,1,833.0999999940395,469986.10000000894,8107,WL,A,12.0
4,20.64400005340576,learn,39355.99994659424,Tue Apr 21 2026 13:12:33 GMT-0500 (Central Daylight Time),471135.700000003,A,fingerenter,I,enter,307,1,1149.5999999940395,469986.10000000894,8107,WL,A,12.0
4,22.993000030517578,learn,37006.99996948242,Tue Apr 21 2026 13:12:33 GMT-0500 (Central Daylight Time),473484.60000000894,A,b,I,b,2341,1,2348.6000000089407,471136.0,8107,WL,A,13.0
4,23.210000038146973,learn,36789.99996185303,Tue Apr 21 2026 13:12:33 GMT-0500 (Central Daylight Time),473701.40000000596,A,bu,I,u,199,1,2565.4000000059605,471136.0,8107,WL,A,13.0
4,23.427000045776367,learn,36572.99995422363,Tue Apr 21 2026 13:12:33 GMT-0500 (Central Daylight Time),473918.60000000894,A,but,I,t,199,1,2782.6000000089407,471136.0,8107,WL,A,13.0
4,23.56000018119812,learn,36439.99981880188,Tue Apr 21 2026 13:12:33 GMT-0500 (Central Daylight Time),474051.60000000894,A,butt,I,t,127,1,2915.6000000089407,471136.0,8107,WL,A,13.0
4,23.693000078201294,learn,36306.999921798706,Tue Apr 21 2026 13:12:33 GMT-0500 (Central Daylight Time),474185.10000000894,A,butto,I,o,122,1,3049.1000000089407,471136.0,8107,WL,A,13.0
4,23.743000030517578,learn,36256.99996948242,Tue Apr 21 2026 13:12:33 GMT-0500 (Central Daylight Time),474235.3000000119,A,button,I,n,45,1,3099.300000011921,471136.0,8107,WL,A,13.0
4,24.4760000705719,learn,35523.9999294281,Tue Apr 21 2026 13:12:33 GMT-0500 (Central Daylight Time),474967.8000000119,A,buttonenter,I,enter,713,1,3831.800000011921,471136.0,8107,WL,A,13.0
4,25.670000076293945,learn,34329.999923706055,Tue Apr 21 2026 13:12:33 GMT-0500 (Central Daylight Time),476162.3000000119,A,t,I,t,1190,1,1194.1000000089407,474968.200000003,8107,WL,A,14.0
4,25.79200005531311,learn,34207.99994468689,Tue Apr 21 2026 13:12:33 GMT-0500 (Central Daylight Time),476283.8000000119,A,tr,I,r,115,1,1315.6000000089407,474968.200000003,8107,WL,A,14.0
4,25.875,learn,34125.0,Tue Apr 21 2026 13:12:33 GMT-0500 (Central Daylight Time),476367.3000000119,A,tra,I,a,64,1,1399.1000000089407,474968.200000003,8107,WL,A,14.0
4,26.04200005531311,learn,33957.99994468689,Tue Apr 21 2026 13:12:33 GMT-0500 (Central Daylight Time),476534.0,A,trai,I,i,151,1,1565.7999999970198,474968.200000003,8107,WL,A,14.0
4,26.12600016593933,learn,33873.99983406067,Tue Apr 21 2026 13:12:33 GMT-0500 (Central Daylight Time),476617.5,A,train,I,n,62,1,1649.2999999970198,474968.200000003,8107,WL,A,14.0
4,26.425000190734863,learn,33574.99980926514,Tue Apr 21 2026 13:12:33 GMT-0500 (Central Daylight Time),476917.200000003,A,trainenter,I,enter,283,1,1949.0,474968.200000003,8107,WL,A,14.0
4,29.006999969482422,learn,30993.000030517578,Tue Apr 21 2026 13:12:33 GMT-0500 (Central Daylight Time),479499.8000000119,A,g,I,g,2568,1,2582.2000000029802,476917.60000000894,8107,WL,A,15.0
4,29.09000015258789,learn,30909.99984741211,Tue Apr 21 2026 13:12:33 GMT-0500 (Central Daylight Time),479583.10000000894,A,go,I,o,65,1,2665.5,476917.60000000894,8107,WL,A,15.0
4,29.289999961853027,learn,30710.000038146973,Tue Apr 21 2026 13:12:33 GMT-0500 (Central Daylight Time),479782.90000000596,A,gol,I,l,182,1,2865.2999999970198,476917.60000000894,8107,WL,A,15.0
4,29.34000015258789,learn,30659.99984741211,Tue Apr 21 2026 13:12:33 GMT-0500 (Central Daylight Time),479832.90000000596,A,gold,I,d,38,1,2915.2999999970198,476917.60000000894,8107,WL,A,15.0
4,29.557000160217285,learn,30442.999839782715,Tue Apr 21 2026 13:12:33 GMT-0500 (Central Daylight Time),480049.8000000119,A,goldenter,I,enter,204,1,3132.2000000029802,476917.60000000894,8107,WL,A,15.0
5,0.9330000877380371,learn,60000.0,Tue Apr 21 2026 13:12:33 GMT-0500 (Central Daylight Time),545529.200000003,A,b,I,b,929,1,932.7000000029802,544596.5,8107,WL,A,1.0
5,1.7160000801086426,learn,60000.0,Tue Apr 21 2026 13:12:33 GMT-0500 (Central Daylight Time),546312.1000000089,A,bo,I,o,770,1,1715.6000000089407,544596.5,8107,WL,A,1.0
5,2.2940001487731934,learn,60000.0,Tue Apr 21 2026 13:12:33 GMT-0500 (Central Daylight Time),546890.200000003,A,b,I,backspace,574,1,2293.7000000029802,544596.5,8107,WL,A,1.0
5,2.9160001277923584,learn,60000.0,Tue Apr 21 2026 13:12:33 GMT-0500 (Central Daylight Time),547511.8000000119,A,,I,backspace,610,1,2915.300000011921,544596.5,8107,WL,A,1.0
5,3.881999969482422,learn,60000.0,Tue Apr 21 2026 13:12:33 GMT-0500 (Central Daylight Time),548478.1000000089,A,b,I,b,958,1,3881.6000000089407,544596.5,8107,WL,A,1.0
5,4.131999969482422,learn,60000.0,Tue Apr 21 2026 13:12:33 GMT-0500 (Central Daylight Time),548728.200000003,A,bo,I,o,240,1,4131.70000000298,544596.5,8107,WL,A,1.0
5,4.2820000648498535,learn,60000.0,Tue Apr 21 2026 13:12:33 GMT-0500 (Central Daylight Time),548878.0,A,boo,I,o,132,1,4281.5,544596.5,8107,WL,A,1.0
5,4.383000135421753,learn,60000.0,Tue Apr 21 2026 13:12:33 GMT-0500 (Central Daylight Time),548979.400000006,A,book,I,k,87,1,4382.9000000059605,544596.5,8107,WL,A,1.0
5,4.79800009727478,learn,60000.0,Tue Apr 21 2026 13:12:33 GMT-0500 (Central Daylight Time),549394.5,A,bookenter,I,enter,401,1,4798.0,544596.5,8107,WL,A,1.0
5,5.164999961853027,learn,60000.0,Tue Apr 21 2026 13:12:33 GMT-0500 (Central Daylight Time),549761.0,A,f,I,f,346,1,366.09999999403954,549394.900000006,8107,WL,A,2.0
5,5.215000152587891,learn,60000.0,Tue Apr 21 2026 13:12:33 GMT-0500 (Central Daylight Time),549811.400000006,A,fl,I,l,36,1,416.5,549394.900000006,8107,WL,A,2.0
5,5.430999994277954,learn,60000.0,Tue Apr 21 2026 13:12:33 GMT-0500 (Central Daylight Time),550027.700000003,A,flo,I,o,201,1,632.7999999970198,549394.900000006,8107,WL,A,2.0
5,5.481000185012817,learn,60000.0,Tue Apr 21 2026 13:12:33 GMT-0500 (Central Daylight Time),550077.8000000119,A,flow,I,w,42,1,682.9000000059605,549394.900000006,8107,WL,A,2.0
5,5.54800009727478,learn,60000.0,Tue Apr 21 2026 13:12:33 GMT-0500 (Central Daylight Time),550144.200000003,A,flowe,I,e,56,1,749.2999999970198,549394.900000006,8107,WL,A,2.0
5,5.63100004196167,learn,60000.0,Tue Apr 21 2026 13:12:33 GMT-0500 (Central Daylight Time),550227.700000003,A,flower,I,r,76,1,832.7999999970198,549394.900000006,8107,WL,A,2.0
5,6.430999994277954,learn,60000.0,Tue Apr 21 2026 13:12:33 GMT-0500 (Central Daylight Time),551027.200000003,A,flowerenter,I,enter,786,1,1632.2999999970198,549394.900000006,8107,WL,A,2.0
5,7.831000089645386,learn,60000.0,Tue Apr 21 2026 13:12:33 GMT-0500 (Central Daylight Time),552426.8000000119,A,t,I,t,1386,1,1399.2000000029802,551027.6000000089,8107,WL,A,3.0
5,8.015000104904175,learn,60000.0,Tue Apr 21 2026 13:12:33 GMT-0500 (Central Daylight Time),552611.3000000119,A,tr,I,r,178,1,1583.7000000029802,551027.6000000089,8107,WL,A,3.0
5,8.21399998664856,learn,60000.0,Tue Apr 21 2026 13:12:33 GMT-0500 (Central Daylight Time),552810.200000003,A,tra,I,a,178,1,1782.5999999940395,551027.6000000089,8107,WL,A,3.0
5,8.463000059127808,learn,60000.0,Tue Apr 21 2026 13:12:33 GMT-0500 (Central Daylight Time),553059.6000000089,A,trai,I,i,243,1,2032.0,551027.6000000089,8107,WL,A,3.0
5,8.547000169754028,learn,60000.0,Tue Apr 21 2026 13:12:33 GMT-0500 (Central Daylight Time),553143.3000000119,A,train,I,n,65,1,2115.7000000029802,551027.6000000089,8107,WL,A,3.0
5,8.880000114440918,learn,60000.0,Tue Apr 21 2026 13:12:33 GMT-0500 (Central Daylight Time),553476.400000006,A,trainenter,I,enter,325,1,2448.7999999970198,551027.6000000089,8107,WL,A,3.0
5,9.19700002670288,learn,60000.0,Tue Apr 21 2026 13:12:33 GMT-0500 (Central Daylight Time),553793.700000003,A,r,I,r,312,1,316.8999999910593,553476.8000000119,8107,WL,A,4.0
5,9.297000169754028,learn,60000.0,Tue Apr 21 2026 13:12:33 GMT-0500 (Central Daylight Time),553893.200000003,A,ru,I,u,83,1,416.3999999910593,553476.8000000119,8107,WL,A,4.0
5,9.514000177383423,learn,60000.0,Tue Apr 21 2026 13:12:33 GMT-0500 (Central Daylight Time),554109.700000003,A,rug,I,g,208,1,632.8999999910593,553476.8000000119,8107,WL,A,4.0
5,10.213000059127808,learn,60000.0,Tue Apr 21 2026 13:12:33 GMT-0500 (Central Daylight Time),554809.6000000089,A,rugenter,I,enter,679,1,1332.7999999970198,553476.8000000119,8107,WL,A,4.0
5,10.546000003814697,learn,60000.0,Tue Apr 21 2026 13:12:33 GMT-0500 (Central Daylight Time),555142.6000000089,A,m,I,m,316,1,332.6000000089407,554810.0,8107,WL,A,5.0
5,10.630000114440918,learn,60000.0,Tue Apr 21 2026 13:12:33 GMT-0500 (Central Daylight Time),555226.3000000119,A,me,I,e,70,1,416.30000001192093,554810.0,8107,WL,A,5.0
5,10.730000019073486,learn,60000.0,Tue Apr 21 2026 13:12:33 GMT-0500 (Central Daylight Time),555326.1000000089,A,mea,I,a,82,1,516.1000000089407,554810.0,8107,WL,A,5.0
5,10.946000099182129,learn,60000.0,Tue Apr 21 2026 13:12:33 GMT-0500 (Central Daylight Time),555542.700000003,A,mead,I,d,198,1,732.7000000029802,554810.0,8107,WL,A,5.0
5,11.046000003814697,learn,60000.0,Tue Apr 21 2026 13:12:33 GMT-0500 (Central Daylight Time),555642.8000000119,A,meado,I,o,86,1,832.8000000119209,554810.0,8107,WL,A,5.0
5,11.297000169754028,learn,60000.0,Tue Apr 21 2026 13:12:33 GMT-0500 (Central Daylight Time),555892.900000006,A,meadow,I,w,242,1,1082.9000000059605,554810.0,8107,WL,A,5.0
5,11.84600019454956,learn,60000.0,Tue Apr 21 2026 13:12:33 GMT-0500 (Central Daylight Time),556442.3000000119,A,meadowenter,I,enter,536,1,1632.300000011921,554810.0,8107,WL,A,5.0
5,13.379000186920166,learn,60000.0,Tue Apr 21 2026 13:12:33 GMT-0500 (Central Daylight Time),557975.5,A,g,I,g,1514,1,1532.699999988079,556442.8000000119,8107,WL,A,6.0
5,13.446000099182129,learn,60000.0,Tue Apr 21 2026 13:12:33 GMT-0500 (Central Daylight Time),558042.0,A,go,I,o,53,1,1599.199999988079,556442.8000000119,8107,WL,A,6.0
5,13.647000074386597,learn,60000.0,Tue Apr 21 2026 13:12:33 GMT-0500 (Central Daylight Time),558242.8000000119,A,gol,I,l,180,1,1800.0,556442.8000000119,8107,WL,A,6.0
5,13.76200008392334,learn,60000.0,Tue Apr 21 2026 13:12:33 GMT-0500 (Central Daylight Time),558358.400000006,A,gold,I,d,98,1,1915.5999999940395,556442.8000000119,8107,WL,A,6.0
5,14.312000036239624,learn,60000.0,Tue Apr 21 2026 13:12:33 GMT-0500 (Central Daylight Time),558908.3000000119,A,goldenter,I,enter,535,1,2465.5,556442.8000000119,8107,WL,A,6.0
5,16.128000020980835,learn,60000.0,Tue Apr 21 2026 13:12:33 GMT-0500 (Central Daylight Time),560724.3000000119,A,f,I,f,1802,1,1815.6000000089407,558908.700000003,8107,WL,A,7.0
5,16.261000156402588,learn,60000.0,Tue Apr 21 2026 13:12:33 GMT-0500 (Central Daylight Time),560857.400000006,A,fi,I,i,112,1,1948.7000000029802,558908.700000003,8107,WL,A,7.0
5,16.328999996185303,learn,60000.0,Tue Apr 21 2026 13:12:33 GMT-0500 (Central Daylight Time),560925.400000006,A,fin,I,n,59,1,2016.7000000029802,558908.700000003,8107,WL,A,7.0
5,16.795000076293945,learn,60000.0,Tue Apr 21 2026 13:12:33 GMT-0500 (Central Daylight Time),561390.900000006,A,fing,I,g,447,1,2482.2000000029802,558908.700000003,8107,WL,A,7.0
5,16.960999965667725,learn,60000.0,Tue Apr 21 2026 13:12:33 GMT-0500 (Central Daylight Time),561557.400000006,A,finge,I,e,150,1,2648.7000000029802,558908.700000003,8107,WL,A,7.0
5,17.045000076293945,learn,60000.0,Tue Apr 21 2026 13:12:33 GMT-0500 (Central Daylight Time),561640.900000006,A,finger,I,r,63,1,2732.2000000029802,558908.700000003,8107,WL,A,7.0
5,17.57800006866455,learn,60000.0,Tue Apr 21 2026 13:12:33 GMT-0500 (Central Daylight Time),562173.900000006,A,fingerenter,I,enter,516,1,3265.2000000029802,558908.700000003,8107,WL,A,7.0
5,17.877000093460083,learn,60000.0,Tue Apr 21 2026 13:12:33 GMT-0500 (Central Daylight Time),562473.5,A,s,I,s,295,1,299.19999998807907,562174.3000000119,8107,WL,A,8.0
5,17.960999965667725,learn,60000.0,Tue Apr 21 2026 13:12:33 GMT-0500 (Central Daylight Time),562557.200000003,A,sa,I,a,75,1,382.8999999910593,562174.3000000119,8107,WL,A,8.0
5,18.127000093460083,learn,60000.0,Tue Apr 21 2026 13:12:33 GMT-0500 (Central Daylight Time),562723.6000000089,A,sal,I,l,159,1,549.2999999970198,562174.3000000119,8107,WL,A,8.0
5,18.544000148773193,learn,60000.0,Tue Apr 21 2026 13:12:33 GMT-0500 (Central Daylight Time),563140.1000000089,A,salt,I,t,401,1,965.7999999970198,562174.3000000119,8107,WL,A,8.0
5,19.061000108718872,learn,60000.0,Tue Apr 21 2026 13:12:33 GMT-0500 (Central Daylight Time),563656.8000000119,A,saltenter,I,enter,506,1,1482.5,562174.3000000119,8107,WL,A,8.0
5,19.344000101089478,learn,60000.0,Tue Apr 21 2026 13:12:33 GMT-0500 (Central Daylight Time),563939.900000006,A,b,I,b,269,1,282.79999999701977,563657.1000000089,8107,WL,A,9.0
5,19.56000018119812,learn,60000.0,Tue Apr 21 2026 13:12:33 GMT-0500 (Central Daylight Time),564156.6000000089,A,bu,I,u,209,1,499.5,563657.1000000089,8107,WL,A,9.0
5,19.759999990463257,learn,60000.0,Tue Apr 21 2026 13:12:33 GMT-0500 (Central Daylight Time),564356.8000000119,A,but,I,t,185,1,699.7000000029802,563657.1000000089,8107,WL,A,9.0
5,20.0770001411438,learn,60000.0,Tue Apr 21 2026 13:12:33 GMT-0500 (Central Daylight Time),564673.0,A,buto,I,o,304,1,1015.8999999910593,563657.1000000089,8107,WL,A,9.0
5,20.14400005340576,learn,60000.0,Tue Apr 21 2026 13:12:33 GMT-0500 (Central Daylight Time),564739.8000000119,A,buton,I,n,60,1,1082.7000000029802,563657.1000000089,8107,WL,A,9.0
5,20.710000038146973,learn,60000.0,Tue Apr 21 2026 13:12:33 GMT-0500 (Central Daylight Time),565306.0,A,buto,I,backspace,553,1,1648.8999999910593,563657.1000000089,8107,WL,A,9.0
5,20.87600016593933,learn,60000.0,Tue Apr 21 2026 13:12:33 GMT-0500 (Central Daylight Time),565472.700000003,A,but,I,backspace,147,1,1815.5999999940395,563657.1000000089,8107,WL,A,9.0
5,21.294000148773193,learn,60000.0,Tue Apr 21 2026 13:12:33 GMT-0500 (Central Daylight Time),565890.6000000089,A,buto,I,o,397,1,2233.5,563657.1000000089,8107,WL,A,9.0
5,21.64300012588501,learn,60000.0,Tue Apr 21 2026 13:12:33 GMT-0500 (Central Daylight Time),566239.400000006,A,but,I,backspace,339,1,2582.2999999970198,563657.1000000089,8107,WL,A,9.0
5,21.710000038146973,learn,60000.0,Tue Apr 21 2026 13:12:33 GMT-0500 (Central Daylight Time),566305.8000000119,A,butt,I,t,46,1,2648.7000000029802,563657.1000000089,8107,WL,A,9.0
5,21.927000045776367,learn,60000.0,Tue Apr 21 2026 13:12:33 GMT-0500 (Central Daylight Time),566523.6000000089,A,butto,I,o,202,1,2866.5,563657.1000000089,8107,WL,A,9.0
5,21.993000030517578,learn,60000.0,Tue Apr 21 2026 13:12:33 GMT-0500 (Central Daylight Time),566589.400000006,A,button,I,n,58,1,2932.2999999970198,563657.1000000089,8107,WL,A,9.0
5,22.343000173568726,learn,60000.0,Tue Apr 21 2026 13:12:33 GMT-0500 (Central Daylight Time),566939.1000000089,A,buttonenter,I,enter,343,1,3282.0,563657.1000000089,8107,WL,A,9.0
5,22.608999967575073,learn,60000.0,Tue Apr 21 2026 13:12:33 GMT-0500 (Central Daylight Time),567205.700000003,A,c,I,c,258,1,266.20000000298023,566939.5,8107,WL,A,10.0
5,22.693000078201294,learn,60000.0,Tue Apr 21 2026 13:12:33 GMT-0500 (Central Daylight Time),567288.900000006,A,ch,I,h,72,1,349.40000000596046,566939.5,8107,WL,A,10.0
5,22.926000118255615,learn,60000.0,Tue Apr 21 2026 13:12:33 GMT-0500 (Central Daylight Time),567522.200000003,A,chi,I,i,220,1,582.7000000029802,566939.5,8107,WL,A,10.0
5,23.009000062942505,learn,60000.0,Tue Apr 21 2026 13:12:33 GMT-0500 (Central Daylight Time),567605.400000006,A,chim,I,m,66,1,665.9000000059605,566939.5,8107,WL,A,10.0
5,23.360000133514404,learn,60000.0,Tue Apr 21 2026 13:12:33 GMT-0500 (Central Daylight Time),567956.5,A,chimn,I,n,335,1,1017.0,566939.5,8107,WL,A,10.0
5,23.509000062942505,learn,60000.0,Tue Apr 21 2026 13:12:33 GMT-0500 (Central Daylight Time),568105.200000003,A,chimne,I,e,128,1,1165.7000000029802,566939.5,8107,WL,A,10.0
5,24.192000150680542,learn,60000.0,Tue Apr 21 2026 13:12:33 GMT-0500 (Central Daylight Time),568788.5,A,chimney,I,y,667,1,1849.0,566939.5,8107,WL,A,10.0
5,25.125,learn,60000.0,Tue Apr 21 2026 13:12:33 GMT-0500 (Central Daylight Time),569721.700000003,A,chimneyenter,I,enter,912,1,2782.2000000029802,566939.5,8107,WL,A,10.0
5,25.52500009536743,learn,60000.0,Tue Apr 21 2026 13:12:33 GMT-0500 (Central Daylight Time),570121.400000006,A,a,I,a,388,1,399.5,569721.900000006,8107,WL,A,11.0
5,25.592000007629395,learn,60000.0,Tue Apr 21 2026 13:12:33 GMT-0500 (Central Daylight Time),570188.3000000119,A,ap,I,p,51,1,466.40000000596046,569721.900000006,8107,WL,A,11.0
5,25.765000104904175,learn,60000.0,Tue Apr 21 2026 13:12:33 GMT-0500 (Central Daylight Time),570361.1000000089,A,app,I,p,168,1,639.2000000029802,569721.900000006,8107,WL,A,11.0
5,25.975000143051147,learn,60000.0,Tue Apr 21 2026 13:12:33 GMT-0500 (Central Daylight Time),570571.0,A,appl,I,l,196,1,849.0999999940395,569721.900000006,8107,WL,A,11.0
5,26.175000190734863,learn,60000.0,Tue Apr 21 2026 13:12:33 GMT-0500 (Central Daylight Time),570771.3000000119,A,apple,I,e,194,1,1049.4000000059605,569721.900000006,8107,WL,A,11.0
5,26.841000080108643,learn,60000.0,Tue Apr 21 2026 13:12:33 GMT-0500 (Central Daylight Time),571437.400000006,A,appleenter,I,enter,657,1,1715.5,569721.900000006,8107,WL,A,11.0
5,27.37600016593933,learn,60000.0,Tue Apr 21 2026 13:12:33 GMT-0500 (Central Daylight Time),571971.8000000119,A,h,I,h,528,1,534.3000000119209,571437.5,8107,WL,A,12.0
5,27.558000087738037,learn,60000.0,Tue Apr 21 2026 13:12:33 GMT-0500 (Central Daylight Time),572154.0,A,ha,I,a,169,1,716.5,571437.5,8107,WL,A,12.0
5,27.62600016593933,learn,60000.0,Tue Apr 21 2026 13:12:33 GMT-0500 (Central Daylight Time),572221.900000006,A,har,I,r,51,1,784.4000000059605,571437.5,8107,WL,A,12.0
5,27.808000087738037,learn,60000.0,Tue Apr 21 2026 13:12:33 GMT-0500 (Central Daylight Time),572404.0,A,harp,I,p,174,1,966.5,571437.5,8107,WL,A,12.0
5,28.141000032424927,learn,60000.0,Tue Apr 21 2026 13:12:33 GMT-0500 (Central Daylight Time),572737.1000000089,A,harpenter,I,enter,322,1,1299.6000000089407,571437.5,8107,WL,A,12.0
5,29.77400016784668,learn,60000.0,Tue Apr 21 2026 13:12:33 GMT-0500 (Central Daylight Time),574369.900000006,A,k,I,k,1628,1,1632.5,572737.400000006,8107,WL,A,13.0
5,29.957000017166138,learn,60000.0,Tue Apr 21 2026 13:12:33 GMT-0500 (Central Daylight Time),574553.3000000119,A,ka,I,a,171,1,1815.9000000059605,572737.400000006,8107,WL,A,13.0
5,30.473999977111816,learn,60000.0,Tue Apr 21 2026 13:12:33 GMT-0500 (Central Daylight Time),575069.900000006,A,k,I,backspace,500,1,2332.5,572737.400000006,8107,WL,A,13.0
5,30.574000120162964,learn,60000.0,Tue Apr 21 2026 13:12:33 GMT-0500 (Central Daylight Time),575169.900000006,A,ke,I,e,86,1,2432.5,572737.400000006,8107,WL,A,13.0
5,30.740000009536743,learn,60000.0,Tue Apr 21 2026 13:12:33 GMT-0500 (Central Daylight Time),575336.3000000119,A,key,I,y,155,1,2598.9000000059605,572737.400000006,8107,WL,A,13.0
5,31.073000192642212,learn,60000.0,Tue Apr 21 2026 13:12:33 GMT-0500 (Central Daylight Time),575669.6000000089,A,keyenter,I,enter,324,1,2932.2000000029802,572737.400000006,8107,WL,A,13.0
5,39.004000186920166,learn,60000.0,Tue Apr 21 2026 13:12:33 GMT-0500 (Central Daylight Time),583600.5,A,r,I,r,7920,1,7930.5,575670.0,8107,WL,A,14.0
5,39.087000131607056,learn,60000.0,Tue Apr 21 2026 13:12:33 GMT-0500 (Central Daylight Time),583683.6000000089,A,ra,I,a,68,1,8013.600000008941,575670.0,8107,WL,A,14.0
5,39.28800010681152,learn,60000.0,Tue Apr 21 2026 13:12:33 GMT-0500 (Central Daylight Time),583883.900000006,A,rat,I,t,193,1,8213.90000000596,575670.0,8107,WL,A,14.0
5,39.437999963760376,learn,60000.0,Tue Apr 21 2026 13:12:33 GMT-0500 (Central Daylight Time),584033.900000006,A,ratt,I,t,137,1,8363.90000000596,575670.0,8107,WL,A,14.0
5,39.55400013923645,learn,60000.0,Tue Apr 21 2026 13:12:33 GMT-0500 (Central Daylight Time),584150.200000003,A,rattl,I,l,99,1,8480.20000000298,575670.0,8107,WL,A,14.0
5,39.63700008392334,learn,60000.0,Tue Apr 21 2026 13:12:33 GMT-0500 (Central Daylight Time),584233.6000000089,A,rattle,I,e,71,1,8563.60000000894,575670.0,8107,WL,A,14.0
5,40.03700017929077,learn,60000.0,Tue Apr 21 2026 13:12:33 GMT-0500 (Central Daylight Time),584633.400000006,A,rattleenter,I,enter,395,1,8963.40000000596,575670.0,8107,WL,A,14.0
5,47.86900019645691,learn,60000.0,Tue Apr 21 2026 13:12:33 GMT-0500 (Central Daylight Time),592465.5,A,l,I,l,7811,1,7831.899999991059,584633.6000000089,8107,WL,A,15.0
5,48.068000078201294,learn,60000.0,Tue Apr 21 2026 13:12:33 GMT-0500 (Central Daylight Time),592664.400000006,A,lo,I,o,186,1,8030.79999999702,584633.6000000089,8107,WL,A,15.0
5,48.11800003051758,learn,60000.0,Tue Apr 21 2026 13:12:33 GMT-0500 (Central Daylight Time),592714.0,A,log,I,g,44,1,8080.399999991059,584633.6000000089,8107,WL,A,15.0
5,48.51800012588501,learn,60000.0,Tue Apr 21 2026 13:12:33 GMT-0500 (Central Daylight Time),593114.1000000089,A,logenter,I,enter,380,1,8480.5,584633.6000000089,8107,WL,A,15.0
6,0.997999906539917,distr,59002.00009346008,Tue Apr 21 2026 13:12:33 GMT-0500 (Central Daylight Time),658810.3000000119,B,c,I,c,995,1,999.9000000059605,657810.400000006,8107,WL,A,1.0
6,1.0989999771118164,distr,58901.00002288818,Tue Apr 21 2026 13:12:33 GMT-0500 (Central Daylight Time),658910.3000000119,B,ch,I,h,81,1,1099.9000000059605,657810.400000006,8107,WL,A,1.0
6,1.3989999294281006,distr,58601.0000705719,Tue Apr 21 2026 13:12:33 GMT-0500 (Central Daylight Time),659210.3000000119,B,cha,I,a,286,1,1399.9000000059605,657810.400000006,8107,WL,A,1.0
6,1.5150001049041748,distr,58484.999895095825,Tue Apr 21 2026 13:12:33 GMT-0500 (Central Daylight Time),659326.8000000119,B,chai,I,i,98,1,1516.4000000059605,657810.400000006,8107,WL,A,1.0
6,1.6649999618530273,distr,58335.00003814697,Tue Apr 21 2026 13:12:33 GMT-0500 (Central Daylight Time),659476.8000000119,B,chair,I,r,142,1,1666.4000000059605,657810.400000006,8107,WL,A,1.0
6,2.0310001373291016,distr,57968.9998626709,Tue Apr 21 2026 13:12:33 GMT-0500 (Central Daylight Time),659843.1000000089,B,chairenter,I,enter,361,1,2032.7000000029802,657810.400000006,8107,WL,A,1.0
6,2.447999954223633,distr,57552.00004577637,Tue Apr 21 2026 13:12:33 GMT-0500 (Central Daylight Time),660259.700000003,B,p,I,p,403,1,416.29999999701977,659843.400000006,8107,WL,A,2.0
6,2.6480000019073486,distr,57351.99999809265,Tue Apr 21 2026 13:12:33 GMT-0500 (Central Daylight Time),660459.700000003,B,pe,I,e,184,1,616.2999999970198,659843.400000006,8107,WL,A,2.0
6,2.7810001373291016,distr,57218.9998626709,Tue Apr 21 2026 13:12:33 GMT-0500 (Central Daylight Time),660592.900000006,B,pea,I,a,113,1,749.5,659843.400000006,8107,WL,A,2.0
6,3.2309999465942383,distr,56769.00005340576,Tue Apr 21 2026 13:12:33 GMT-0500 (Central Daylight Time),661043.0,B,peac,I,c,436,1,1199.5999999940395,659843.400000006,8107,WL,A,2.0
6,3.2980000972747803,distr,56701.99990272522,Tue Apr 21 2026 13:12:33 GMT-0500 (Central Daylight Time),661109.700000003,B,peach,I,h,59,1,1266.2999999970198,659843.400000006,8107,WL,A,2.0
6,3.697999954223633,distr,56302.00004577637,Tue Apr 21 2026 13:12:33 GMT-0500 (Central Daylight Time),661509.6000000089,B,peachenter,I,enter,391,1,1666.2000000029802,659843.400000006,8107,WL,A,2.0
6,4.114000082015991,distr,55885.99991798401,Tue Apr 21 2026 13:12:33 GMT-0500 (Central Daylight Time),661926.0,B,i,I,i,399,1,416.0,661510.0,8107,WL,A,3.0
6,4.230999946594238,distr,55769.00005340576,Tue Apr 21 2026 13:12:33 GMT-0500 (Central Daylight Time),662042.6000000089,B,in,I,n,102,1,532.6000000089407,661510.0,8107,WL,A,3.0
6,4.46399998664856,distr,55536.00001335144,Tue Apr 21 2026 13:12:33 GMT-0500 (Central Daylight Time),662275.900000006,B,ins,I,s,219,1,765.9000000059605,661510.0,8107,WL,A,3.0
6,4.546999931335449,distr,55453.00006866455,Tue Apr 21 2026 13:12:33 GMT-0500 (Central Daylight Time),662359.1000000089,B,inse,I,e,64,1,849.1000000089407,661510.0,8107,WL,A,3.0
6,4.864000082015991,distr,55135.99991798401,Tue Apr 21 2026 13:12:33 GMT-0500 (Central Daylight Time),662675.6000000089,B,insec,I,c,310,1,1165.6000000089407,661510.0,8107,WL,A,3.0
6,5.0970001220703125,distr,54902.99987792969,Tue Apr 21 2026 13:12:33 GMT-0500 (Central Daylight Time),662909.0,B,insect,I,t,225,1,1399.0,661510.0,8107,WL,A,3.0
6,5.564000129699707,distr,54435.99987030029,Tue Apr 21 2026 13:12:33 GMT-0500 (Central Daylight Time),663375.5,B,insectenter,I,enter,457,1,1865.5,661510.0,8107,WL,A,3.0
6,6.0970001220703125,distr,53902.99987792969,Tue Apr 21 2026 13:12:33 GMT-0500 (Central Daylight Time),663908.5,B,p,I,p,517,1,532.6999999880791,663375.8000000119,8107,WL,A,4.0
6,6.329999923706055,distr,53670.000076293945,Tue Apr 21 2026 13:12:33 GMT-0500 (Central Daylight Time),664141.8000000119,B,po,I,o,225,1,766.0,663375.8000000119,8107,WL,A,4.0
6,6.513999938964844,distr,53486.000061035156,Tue Apr 21 2026 13:12:33 GMT-0500 (Central Daylight Time),664325.3000000119,B,poo,I,o,176,1,949.5,663375.8000000119,8107,WL,A,4.0
6,7.663000106811523,distr,52336.99989318848,Tue Apr 21 2026 13:12:33 GMT-0500 (Central Daylight Time),665474.8000000119,B,pool,I,l,1128,1,2099.0,663375.8000000119,8107,WL,A,4.0
6,8.763000011444092,distr,51236.99998855591,Tue Apr 21 2026 13:12:33 GMT-0500 (Central Daylight Time),666574.400000006,B,poolenter,I,enter,1090,1,3198.5999999940395,663375.8000000119,8107,WL,A,4.0
6,9.246000051498413,distr,50753.99994850159,Tue Apr 21 2026 13:12:33 GMT-0500 (Central Daylight Time),667057.700000003,B,s,I,s,462,1,483.09999999403954,666574.6000000089,8107,WL,A,5.0
6,9.328999996185303,distr,50671.0000038147,Tue Apr 21 2026 13:12:33 GMT-0500 (Central Daylight Time),667141.1000000089,B,sh,I,h,76,1,566.5,666574.6000000089,8107,WL,A,5.0
6,9.645999908447266,distr,50354.000091552734,Tue Apr 21 2026 13:12:33 GMT-0500 (Central Daylight Time),667457.400000006,B,she,I,e,311,1,882.7999999970198,666574.6000000089,8107,WL,A,5.0
6,9.828999996185303,distr,50171.0000038147,Tue Apr 21 2026 13:12:33 GMT-0500 (Central Daylight Time),667640.8000000119,B,shee,I,e,164,1,1066.2000000029802,666574.6000000089,8107,WL,A,5.0
6,9.928999900817871,distr,50071.00009918213,Tue Apr 21 2026 13:12:33 GMT-0500 (Central Daylight Time),667740.700000003,B,sheep,I,p,85,1,1166.0999999940395,666574.6000000089,8107,WL,A,5.0
6,10.661999940872192,distr,49338.00005912781,Tue Apr 21 2026 13:12:33 GMT-0500 (Central Daylight Time),668474.0,B,sheepenter,I,enter,713,1,1899.3999999910593,666574.6000000089,8107,WL,A,5.0
6,12.194999933242798,distr,47805.0000667572,Tue Apr 21 2026 13:12:33 GMT-0500 (Central Daylight Time),670006.900000006,B,m,I,m,1515,1,1532.5999999940395,668474.3000000119,8107,WL,A,6.0
6,12.312000036239624,distr,47687.999963760376,Tue Apr 21 2026 13:12:33 GMT-0500 (Central Daylight Time),670123.3000000119,B,me,I,e,111,1,1649.0,668474.3000000119,8107,WL,A,6.0
6,12.42799997329712,distr,47572.00002670288,Tue Apr 21 2026 13:12:33 GMT-0500 (Central Daylight Time),670240.0,B,mea,I,a,97,1,1765.699999988079,668474.3000000119,8107,WL,A,6.0
6,12.66100001335144,distr,47338.99998664856,Tue Apr 21 2026 13:12:33 GMT-0500 (Central Daylight Time),670473.1000000089,B,meal,I,l,229,1,1998.7999999970198,668474.3000000119,8107,WL,A,6.0
6,13.010999917984009,distr,46989.00008201599,Tue Apr 21 2026 13:12:33 GMT-0500 (Central Daylight Time),670823.1000000089,B,mealenter,I,enter,332,1,2348.7999999970198,668474.3000000119,8107,WL,A,6.0
6,14.210999965667725,distr,45789.000034332275,Tue Apr 21 2026 13:12:33 GMT-0500 (Central Daylight Time),672022.900000006,B,j,I,j,1190,1,1199.5,670823.400000006,8107,WL,A,7.0
6,14.394000053405762,distr,45605.99994659424,Tue Apr 21 2026 13:12:33 GMT-0500 (Central Daylight Time),672206.0,B,ju,I,u,165,1,1382.5999999940395,670823.400000006,8107,WL,A,7.0
6,14.528000116348267,distr,45471.99988365173,Tue Apr 21 2026 13:12:33 GMT-0500 (Central Daylight Time),672339.5,B,jud,I,d,120,1,1516.0999999940395,670823.400000006,8107,WL,A,7.0
6,14.82800006866455,distr,45171.99993133545,Tue Apr 21 2026 13:12:33 GMT-0500 (Central Daylight Time),672639.200000003,B,judg,I,g,281,1,1815.7999999970198,670823.400000006,8107,WL,A,7.0
6,15.276999950408936,distr,44723.000049591064,Tue Apr 21 2026 13:12:33 GMT-0500 (Central Daylight Time),673089.0,B,judge,I,e,445,1,2265.5999999940395,670823.400000006,8107,WL,A,7.0
6,15.844000101089478,distr,44155.99989891052,Tue Apr 21 2026 13:12:33 GMT-0500 (Central Daylight Time),673655.5,B,judgeenter,I,enter,556,1,2832.0999999940395,670823.400000006,8107,WL,A,7.0
6,19.743000030517578,distr,40256.99996948242,Tue Apr 21 2026 13:12:33 GMT-0500 (Central Daylight Time),677554.6000000089,B,p,I,p,3886,1,3898.7000000029802,673655.900000006,8107,WL,A,8.0
6,19.993000030517578,distr,40006.99996948242,Tue Apr 21 2026 13:12:33 GMT-0500 (Central Daylight Time),677804.5,B,pe,I,e,234,1,4148.5999999940395,673655.900000006,8107,WL,A,8.0
6,20.108999967575073,distr,39891.00003242493,Tue Apr 21 2026 13:12:33 GMT-0500 (Central Daylight Time),677920.900000006,B,pea,I,a,105,1,4265.0,673655.900000006,8107,WL,A,8.0
6,20.158999919891357,distr,39841.00008010864,Tue Apr 21 2026 13:12:33 GMT-0500 (Central Daylight Time),677970.900000006,B,pear,I,r,44,1,4315.0,673655.900000006,8107,WL,A,8.0
6,20.441999912261963,distr,39558.00008773804,Tue Apr 21 2026 13:12:33 GMT-0500 (Central Daylight Time),678254.1000000089,B,pearenter,I,enter,267,1,4598.20000000298,673655.900000006,8107,WL,A,8.0
6,32.67199993133545,distr,27328.00006866455,Tue Apr 21 2026 13:12:33 GMT-0500 (Central Daylight Time),690483.5,B,enter,I,enter,12222,1,12229.0,678254.5,8107,WL,A,9.0
6,33.58800005912781,distr,26411.999940872192,Tue Apr 21 2026 13:12:33 GMT-0500 (Central Daylight Time),691400.200000003,B,enter,I,enter,897,1,916.3999999910593,690483.8000000119,8107,WL,A,10.0
6,52.699000120162964,distr,7300.999879837036,Tue Apr 21 2026 13:12:33 GMT-0500 (Central Daylight Time),710510.700000003,B,enter,I,enter,19093,1,19110.20000000298,691400.5,8107,WL,A,11.0
6,60.013999938964844,distr,-13.99993896484375,Tue Apr 21 2026 13:12:33 GMT-0500 (Central Daylight Time),717826.1000000089,B,None,I,None,7311,1,7315.100000008941,710511.0,8107,WL,A,12.0
7,3.7660000324249268,immed,56233.99996757507,Tue Apr 21 2026 13:12:33 GMT-0500 (Central Daylight Time),723940.0,A,f,I,f,3751,1,3765.699999988079,720174.3000000119,8107,WL,A,1.0
7,3.8499999046325684,immed,56150.00009536743,Tue Apr 21 2026 13:12:33 GMT-0500 (Central Daylight Time),724023.3000000119,A,fl,I,l,72,1,3849.0,720174.3000000119,8107,WL,A,1.0
7,4.050999879837036,immed,55949.000120162964,Tue Apr 21 2026 13:12:33 GMT-0500 (Central Daylight Time),724224.400000006,A,flo,I,o,190,1,4050.0999999940395,720174.3000000119,8107,WL,A,1.0
7,4.132999897003174,immed,55867.000102996826,Tue Apr 21 2026 13:12:33 GMT-0500 (Central Daylight Time),724306.3000000119,A,flow,I,w,76,1,4132.0,720174.3000000119,8107,WL,A,1.0
7,4.182999849319458,immed,55817.00015068054,Tue Apr 21 2026 13:12:33 GMT-0500 (Central Daylight Time),724356.400000006,A,flowe,I,e,43,1,4182.0999999940395,720174.3000000119,8107,WL,A,1.0
7,4.2829999923706055,immed,55717.000007629395,Tue Apr 21 2026 13:12:33 GMT-0500 (Central Daylight Time),724456.400000006,A,flower,I,r,88,1,4282.0999999940395,720174.3000000119,8107,WL,A,1.0
7,4.615999937057495,immed,55384.000062942505,Tue Apr 21 2026 13:12:33 GMT-0500 (Central Daylight Time),724790.200000003,A,flowerenter,I,enter,325,1,4615.899999991059,720174.3000000119,8107,WL,A,1.0
7,5.381999969482422,immed,54618.00003051758,Tue Apr 21 2026 13:12:33 GMT-0500 (Central Daylight Time),725556.200000003,A,m,I,m,758,1,765.7000000029802,724790.5,8107,WL,A,2.0
7,5.615999937057495,immed,54384.000062942505,Tue Apr 21 2026 13:12:33 GMT-0500 (Central Daylight Time),725789.3000000119,A,me,I,e,225,1,998.8000000119209,724790.5,8107,WL,A,2.0
7,5.681999921798706,immed,54318.000078201294,Tue Apr 21 2026 13:12:33 GMT-0500 (Central Daylight Time),725856.0,A,mea,I,a,56,1,1065.5,724790.5,8107,WL,A,2.0
7,5.898999929428101,immed,54101.0000705719,Tue Apr 21 2026 13:12:33 GMT-0500 (Central Daylight Time),726072.6000000089,A,mead,I,d,197,1,1282.1000000089407,724790.5,8107,WL,A,2.0
7,6.164999961853027,immed,53835.00003814697,Tue Apr 21 2026 13:12:33 GMT-0500 (Central Daylight Time),726339.1000000089,A,meado,I,o,260,1,1548.6000000089407,724790.5,8107,WL,A,2.0
7,6.615000009536743,immed,53384.99999046326,Tue Apr 21 2026 13:12:33 GMT-0500 (Central Daylight Time),726789.0,A,meadow,I,w,434,1,1998.5,724790.5,8107,WL,A,2.0
7,7.315000057220459,immed,52684.99994277954,Tue Apr 21 2026 13:12:33 GMT-0500 (Central Daylight Time),727488.8000000119,A,meadowenter,I,enter,687,1,2698.300000011921,724790.5,8107,WL,A,2.0
7,7.797999858856201,immed,52202.0001411438,Tue Apr 21 2026 13:12:33 GMT-0500 (Central Daylight Time),727971.6000000089,A,t,I,t,468,1,482.5,727489.1000000089,8107,WL,A,3.0
7,7.96399998664856,immed,52036.00001335144,Tue Apr 21 2026 13:12:33 GMT-0500 (Central Daylight Time),728138.0,A,tr,I,r,160,1,648.8999999910593,727489.1000000089,8107,WL,A,3.0
7,8.047999858856201,immed,51952.0001411438,Tue Apr 21 2026 13:12:33 GMT-0500 (Central Daylight Time),728221.8000000119,A,tra,I,a,66,1,732.7000000029802,727489.1000000089,8107,WL,A,3.0
7,8.247999906539917,immed,51752.00009346008,Tue Apr 21 2026 13:12:33 GMT-0500 (Central Daylight Time),728421.700000003,A,trai,I,i,182,1,932.5999999940395,727489.1000000089,8107,WL,A,3.0
7,8.315000057220459,immed,51684.99994277954,Tue Apr 21 2026 13:12:33 GMT-0500 (Central Daylight Time),728488.400000006,A,train,I,n,56,1,999.2999999970198,727489.1000000089,8107,WL,A,3.0
7,8.631999969482422,immed,51368.00003051758,Tue Apr 21 2026 13:12:33 GMT-0500 (Central Daylight Time),728805.3000000119,A,trainenter,I,enter,300,1,1316.2000000029802,727489.1000000089,8107,WL,A,3.0
7,8.898000001907349,immed,51101.99999809265,Tue Apr 21 2026 13:12:33 GMT-0500 (Central Daylight Time),729071.6000000089,A,l,I,l,247,1,266.0,728805.6000000089,8107,WL,A,4.0
7,9.065999984741211,immed,50934.00001525879,Tue Apr 21 2026 13:12:33 GMT-0500 (Central Daylight Time),729239.3000000119,A,lo,I,o,157,1,433.70000000298023,728805.6000000089,8107,WL,A,4.0
7,9.263999938964844,immed,50736.000061035156,Tue Apr 21 2026 13:12:33 GMT-0500 (Central Daylight Time),729438.1000000089,A,log,I,g,181,1,632.5,728805.6000000089,8107,WL,A,4.0
7,9.88100004196167,immed,50118.99995803833,Tue Apr 21 2026 13:12:33 GMT-0500 (Central Daylight Time),730054.700000003,A,logenter,I,enter,598,1,1249.0999999940395,728805.6000000089,8107,WL,A,4.0
7,12.147000074386597,immed,47852.9999256134,Tue Apr 21 2026 13:12:33 GMT-0500 (Central Daylight Time),732320.3000000119,A,a,I,a,2254,1,2265.4000000059605,730054.900000006,8107,WL,A,5.0
7,12.19599986076355,immed,47804.00013923645,Tue Apr 21 2026 13:12:33 GMT-0500 (Central Daylight Time),732370.200000003,A,ap,I,p,44,1,2315.2999999970198,730054.900000006,8107,WL,A,5.0
7,12.36299991607666,immed,47637.00008392334,Tue Apr 21 2026 13:12:33 GMT-0500 (Central Daylight Time),732536.8000000119,A,app,I,p,154,1,2481.9000000059605,730054.900000006,8107,WL,A,5.0
7,12.546000003814697,immed,47453.9999961853,Tue Apr 21 2026 13:12:33 GMT-0500 (Central Daylight Time),732720.200000003,A,appl,I,l,172,1,2665.2999999970198,730054.900000006,8107,WL,A,5.0
7,12.629999876022339,immed,47370.00012397766,Tue Apr 21 2026 13:12:33 GMT-0500 (Central Daylight Time),732803.400000006,A,apple,I,e,76,1,2748.5,730054.900000006,8107,WL,A,5.0
7,12.94599986076355,immed,47054.00013923645,Tue Apr 21 2026 13:12:33 GMT-0500 (Central Daylight Time),733120.0,A,appleenter,I,enter,296,1,3065.0999999940395,730054.900000006,8107,WL,A,5.0
7,13.129999876022339,immed,46870.00012397766,Tue Apr 21 2026 13:12:33 GMT-0500 (Central Daylight Time),733303.6000000089,A,f,I,f,172,1,183.29999999701977,733120.3000000119,8107,WL,A,6.0
7,13.230000019073486,immed,46769.999980926514,Tue Apr 21 2026 13:12:33 GMT-0500 (Central Daylight Time),733403.5,A,fi,I,i,93,1,283.19999998807907,733120.3000000119,8107,WL,A,6.0
7,13.345999956130981,immed,46654.00004386902,Tue Apr 21 2026 13:12:33 GMT-0500 (Central Daylight Time),733520.0,A,fin,I,n,105,1,399.69999998807907,733120.3000000119,8107,WL,A,6.0
7,13.395999908447266,immed,46604.000091552734,Tue Apr 21 2026 13:12:33 GMT-0500 (Central Daylight Time),733570.1000000089,A,fing,I,g,38,1,449.79999999701977,733120.3000000119,8107,WL,A,6.0
7,13.562999963760376,immed,46437.000036239624,Tue Apr 21 2026 13:12:33 GMT-0500 (Central Daylight Time),733736.900000006,A,finge,I,e,146,1,616.5999999940395,733120.3000000119,8107,WL,A,6.0
7,13.645999908447266,immed,46354.000091552734,Tue Apr 21 2026 13:12:33 GMT-0500 (Central Daylight Time),733820.200000003,A,finger,I,r,68,1,699.8999999910593,733120.3000000119,8107,WL,A,6.0
7,14.062999963760376,immed,45937.000036239624,Tue Apr 21 2026 13:12:33 GMT-0500 (Central Daylight Time),734236.6000000089,A,fingerenter,I,enter,410,1,1116.2999999970198,733120.3000000119,8107,WL,A,6.0
7,18.295000076293945,immed,41704.999923706055,Tue Apr 21 2026 13:12:33 GMT-0500 (Central Daylight Time),738468.700000003,A,c,I,c,4225,1,4231.79999999702,734236.900000006,8107,WL,A,7.0
7,18.34500002861023,immed,41654.99997138977,Tue Apr 21 2026 13:12:33 GMT-0500 (Central Daylight Time),738518.6000000089,A,ch,I,h,32,1,4281.70000000298,734236.900000006,8107,WL,A,7.0
7,18.59500002861023,immed,41404.99997138977,Tue Apr 21 2026 13:12:33 GMT-0500 (Central Daylight Time),738768.5,A,chi,I,i,229,1,4531.5999999940395,734236.900000006,8107,WL,A,7.0
7,18.66100001335144,immed,41338.99998664856,Tue Apr 21 2026 13:12:33 GMT-0500 (Central Daylight Time),738835.0,A,chim,I,m,52,1,4598.0999999940395,734236.900000006,8107,WL,A,7.0
7,19.027999877929688,immed,40972.00012207031,Tue Apr 21 2026 13:12:33 GMT-0500 (Central Daylight Time),739201.5,A,chimn,I,n,362,1,4964.5999999940395,734236.900000006,8107,WL,A,7.0
7,19.310999870300293,immed,40689.00012969971,Tue Apr 21 2026 13:12:33 GMT-0500 (Central Daylight Time),739484.900000006,A,chimne,I,e,267,1,5248.0,734236.900000006,8107,WL,A,7.0
7,19.444999933242798,immed,40555.0000667572,Tue Apr 21 2026 13:12:33 GMT-0500 (Central Daylight Time),739618.6000000089,A,chimney,I,y,120,1,5381.70000000298,734236.900000006,8107,WL,A,7.0
7,20.228999853134155,immed,39771.000146865845,Tue Apr 21 2026 13:12:33 GMT-0500 (Central Daylight Time),740402.900000006,A,chimneyenter,I,enter,778,1,6166.0,734236.900000006,8107,WL,A,7.0
7,21.310999870300293,immed,38689.00012969971,Tue Apr 21 2026 13:12:33 GMT-0500 (Central Daylight Time),741484.3000000119,A,s,I,s,1075,1,1081.1000000089407,740403.200000003,8107,WL,A,8.0
7,21.41100001335144,immed,38588.99998664856,Tue Apr 21 2026 13:12:33 GMT-0500 (Central Daylight Time),741584.6000000089,A,sa,I,a,80,1,1181.4000000059605,740403.200000003,8107,WL,A,8.0
7,21.49399995803833,immed,38506.00004196167,Tue Apr 21 2026 13:12:33 GMT-0500 (Central Daylight Time),741667.700000003,A,sal,I,l,68,1,1264.5,740403.200000003,8107,WL,A,8.0
7,21.677000045776367,immed,38322.99995422363,Tue Apr 21 2026 13:12:33 GMT-0500 (Central Daylight Time),741851.0,A,salt,I,t,169,1,1447.7999999970198,740403.200000003,8107,WL,A,8.0
7,22.05999994277954,immed,37940.00005722046,Tue Apr 21 2026 13:12:33 GMT-0500 (Central Daylight Time),742233.8000000119,A,saltenter,I,enter,378,1,1830.6000000089407,740403.200000003,8107,WL,A,8.0
7,57.032999992370605,immed,2967.0000076293945,Tue Apr 21 2026 13:12:33 GMT-0500 (Central Daylight Time),777206.6000000089,A,h,I,h,34956,1,34972.5,742234.1000000089,8107,WL,A,9.0
7,57.382999897003174,immed,2617.000102996826,Tue Apr 21 2026 13:12:33 GMT-0500 (Central Daylight Time),777556.400000006,A,ha,I,a,334,1,35322.29999999702,742234.1000000089,8107,WL,A,9.0
7,57.43299984931946,immed,2567.000150680542,Tue Apr 21 2026 13:12:33 GMT-0500 (Central Daylight Time),777606.5,A,har,I,r,32,1,35372.39999999106,742234.1000000089,8107,WL,A,9.0
7,57.68299984931946,immed,2317.000150680542,Tue Apr 21 2026 13:12:33 GMT-0500 (Central Daylight Time),777856.400000006,A,harp,I,p,230,1,35622.29999999702,742234.1000000089,8107,WL,A,9.0
7,58.06500005722046,immed,1934.999942779541,Tue Apr 21 2026 13:12:33 GMT-0500 (Central Daylight Time),778239.3000000119,A,harpenter,I,enter,373,1,36005.20000000298,742234.1000000089,8107,WL,A,9.0
7,58.764999866485596,immed,1235.0001335144043,Tue Apr 21 2026 13:12:33 GMT-0500 (Central Daylight Time),778939.5,A,k,I,k,687,1,700.0,778239.5,8107,WL,A,10.0
7,59.098000049591064,immed,901.9999504089355,Tue Apr 21 2026 13:12:33 GMT-0500 (Central Daylight Time),779272.200000003,A,ke,I,e,322,1,1032.7000000029802,778239.5,8107,WL,A,10.0
7,59.19799995422363,immed,802.0000457763672,Tue Apr 21 2026 13:12:33 GMT-0500 (Central Daylight Time),779372.5,A,keu,I,u,86,1,1133.0,778239.5,8107,WL,A,10.0
