acc_sum,block,block_c,change,condition,correct,correct_response,datetime,endtime,face,project,response,response_time,row_sel,session_number,start_end,starttime,subject_id,task,task_vers,trial
0,prac,1,,1-Back,,,Mon Aug 18 2025 13:59:42 GMT-0500 (Central Daylight Time),,012_o_f_d_a.png,O,space,5748,1,1,,,7211,VNB,C,0
0,prac,1,0.0,1-Back,0,m,Mon Aug 18 2025 13:59:42 GMT-0500 (Central Daylight Time),112365.89999997616,022_y_f_n_a.png,O,z,1383,2,1,2258.7000000476837,110107.19999992847,7211,VNB,C,1
1,prac,1,0.0,1-Back,1,m,Mon Aug 18 2025 13:59:42 GMT-0500 (Central Daylight Time),115031.60000002384,014_m_m_h_a.png,O,m,1806,3,1,2659.8000000715256,112371.79999995232,7211,VNB,C,2
2,prac,1,0.0,1-Back,1,m,Mon Aug 18 2025 13:59:42 GMT-0500 (Central Daylight Time),116864.10000002384,025_y_m_d_a.png,O,m,974,4,1,1826.5,115037.60000002384,7211,VNB,C,3
3,prac,1,0.0,1-Back,1,m,Mon Aug 18 2025 13:59:42 GMT-0500 (Central Daylight Time),118612.0,012_o_f_n_a.png,O,m,887,5,1,1742.3999999761581,116869.60000002384,7211,VNB,C,4
4,prac,1,1.0,1-Back,1,z,Mon Aug 18 2025 13:59:42 GMT-0500 (Central Daylight Time),120429.5,025_y_m_n_a.png,O,z,962,6,1,1811.7000000476837,118617.79999995232,7211,VNB,C,5
5,prac,1,0.0,1-Back,1,m,Mon Aug 18 2025 13:59:42 GMT-0500 (Central Daylight Time),122029.19999992847,015_o_m_h_a.png,O,m,728,7,1,1594.8999999761581,120434.29999995232,7211,VNB,C,6
5,prac,1,0.0,1-Back,0,m,Mon Aug 18 2025 13:59:42 GMT-0500 (Central Daylight Time),124028.39999997616,019_m_f_d_a.png,O,z,1127,8,1,1994.3999999761581,122034.0,7211,VNB,C,7
5,prac,1,1.0,1-Back,0,z,Mon Aug 18 2025 13:59:42 GMT-0500 (Central Daylight Time),126377.29999995232,022_y_f_d_a.png,O,m,1476,9,1,2339.0,124038.29999995232,7211,VNB,C,8
5,prac,1,0.0,1-Back,0,m,Mon Aug 18 2025 13:59:42 GMT-0500 (Central Daylight Time),128543.5,014_m_m_n_a.png,O,z,1307,10,1,2159.0,126384.5,7211,VNB,C,9
6,prac,1,0.0,1-Back,1,m,Mon Aug 18 2025 13:59:42 GMT-0500 (Central Daylight Time),130444.0,012_o_f_h_a.png,O,m,1024,11,1,1892.1000000238419,128551.89999997616,7211,VNB,C,10
7,prac,1,0.0,1-Back,1,m,Mon Aug 18 2025 13:59:42 GMT-0500 (Central Daylight Time),132676.10000002384,025_y_m_d_a.png,O,m,1385,12,1,2224.4000000953674,130451.69999992847,7211,VNB,C,11
0,prac,2,0.0,1-Back,,,Mon Aug 18 2025 13:59:42 GMT-0500 (Central Daylight Time),132676.10000002384,012_o_f_d_a.png,O,a,1930,1,1,2224.4000000953674,130451.69999992847,7211,VNB,C,0
1,prac,2,0.0,1-Back,1,m,Mon Aug 18 2025 13:59:42 GMT-0500 (Central Daylight Time),139940.39999997616,022_y_f_n_a.png,O,m,1406,2,1,2277.7000000476837,137662.69999992847,7211,VNB,C,1
2,prac,2,0.0,1-Back,1,m,Mon Aug 18 2025 13:59:42 GMT-0500 (Central Daylight Time),142041.0,014_m_m_h_a.png,O,m,1251,3,1,2091.7000000476837,139949.29999995232,7211,VNB,C,2
3,prac,2,0.0,1-Back,1,m,Mon Aug 18 2025 13:59:42 GMT-0500 (Central Daylight Time),143705.39999997616,025_y_m_d_a.png,O,m,880,4,1,1655.1000000238419,142050.29999995232,7211,VNB,C,3
4,prac,2,0.0,1-Back,1,m,Mon Aug 18 2025 13:59:42 GMT-0500 (Central Daylight Time),145355.79999995232,012_o_f_n_a.png,O,m,791,5,1,1645.5,143710.29999995232,7211,VNB,C,4
5,prac,2,1.0,1-Back,1,z,Mon Aug 18 2025 13:59:42 GMT-0500 (Central Daylight Time),147004.79999995232,025_y_m_n_a.png,O,z,794,6,1,1641.3999999761581,145363.39999997616,7211,VNB,C,5
6,prac,2,0.0,1-Back,1,m,Mon Aug 18 2025 13:59:42 GMT-0500 (Central Daylight Time),148687.69999992847,015_o_m_h_a.png,O,m,806,7,1,1675.0999999046326,147012.60000002384,7211,VNB,C,6
7,prac,2,0.0,1-Back,1,m,Mon Aug 18 2025 13:59:42 GMT-0500 (Central Daylight Time),150388.0,019_m_f_d_a.png,O,m,849,8,1,1692.8999999761581,148695.10000002384,7211,VNB,C,7
8,prac,2,1.0,1-Back,1,z,Mon Aug 18 2025 13:59:42 GMT-0500 (Central Daylight Time),152185.79999995232,022_y_f_d_a.png,O,z,926,9,1,1789.8999999761581,150395.89999997616,7211,VNB,C,8
9,prac,2,0.0,1-Back,1,m,Mon Aug 18 2025 13:59:42 GMT-0500 (Central Daylight Time),153769.29999995232,014_m_m_n_a.png,O,m,722,10,1,1576.8999999761581,152192.39999997616,7211,VNB,C,9
10,prac,2,0.0,1-Back,1,m,Mon Aug 18 2025 13:59:42 GMT-0500 (Central Daylight Time),155435.29999995232,012_o_f_h_a.png,O,m,799,11,1,1658.6000000238419,153776.69999992847,7211,VNB,C,10
11,prac,2,0.0,1-Back,1,m,Mon Aug 18 2025 13:59:42 GMT-0500 (Central Daylight Time),157235.69999992847,025_y_m_d_a.png,O,m,941,12,1,1795.0999999046326,155440.60000002384,7211,VNB,C,11
0,test,1,0.0,1-Back,,,Mon Aug 18 2025 13:59:42 GMT-0500 (Central Daylight Time),157235.69999992847,022_y_f_d_a.png,O,space,6890,1,1,1795.0999999046326,155440.60000002384,7211,VNB,C,0
1,test,1,0.0,1-Back,1,m,Mon Aug 18 2025 13:59:42 GMT-0500 (Central Daylight Time),172579.69999992847,019_m_f_n_a.png,O,m,842,2,1,1860.6999999284744,170719.0,7211,VNB,C,1
2,test,1,0.0,1-Back,1,m,Mon Aug 18 2025 13:59:42 GMT-0500 (Central Daylight Time),174512.89999997616,015_o_m_h_a.png,O,m,911,3,1,1929.7999999523163,172583.10000002384,7211,VNB,C,2
2,test,1,1.0,1-Back,0,z,Mon Aug 18 2025 13:59:42 GMT-0500 (Central Daylight Time),176478.10000002384,014_m_m_h_a.png,O,m,938,4,1,1960.0,174518.10000002384,7211,VNB,C,3
3,test,1,0.0,1-Back,1,m,Mon Aug 18 2025 13:59:42 GMT-0500 (Central Daylight Time),178328.10000002384,012_o_f_n_a.png,O,m,820,5,1,1847.1000000238419,176481.0,7211,VNB,C,4
4,test,1,0.0,1-Back,1,m,Mon Aug 18 2025 13:59:42 GMT-0500 (Central Daylight Time),180177.39999997616,025_y_m_d_a.png,O,m,827,6,1,1846.1000000238419,178331.29999995232,7211,VNB,C,5
4,test,1,1.0,1-Back,0,z,Mon Aug 18 2025 13:59:42 GMT-0500 (Central Daylight Time),182376.5,019_m_f_d_a.png,O,m,1178,7,1,2196.2000000476837,180180.29999995232,7211,VNB,C,6
5,test,1,0.0,1-Back,1,m,Mon Aug 18 2025 13:59:42 GMT-0500 (Central Daylight Time),184109.60000002384,022_y_f_h_a.png,O,m,713,8,1,1729.5,182380.10000002384,7211,VNB,C,7
6,test,1,0.0,1-Back,1,m,Mon Aug 18 2025 13:59:42 GMT-0500 (Central Daylight Time),185908.5,015_o_m_n_a.png,O,m,771,9,1,1795.5,184113.0,7211,VNB,C,8
7,test,1,0.0,1-Back,1,m,Mon Aug 18 2025 13:59:42 GMT-0500 (Central Daylight Time),187658.10000002384,025_y_m_h_a.png,O,m,718,10,1,1744.7000000476837,185913.39999997616,7211,VNB,C,9
8,test,1,0.0,1-Back,1,m,Mon Aug 18 2025 13:59:42 GMT-0500 (Central Daylight Time),189407.10000002384,015_o_m_d_a.png,O,m,719,11,1,1745.0,187662.10000002384,7211,VNB,C,10
8,test,1,1.0,1-Back,0,z,Mon Aug 18 2025 13:59:42 GMT-0500 (Central Daylight Time),191707.29999995232,012_o_f_d_a.png,O,m,1274,12,1,2297.100000023842,189410.19999992847,7211,VNB,C,11
9,test,1,0.0,1-Back,1,m,Mon Aug 18 2025 13:59:42 GMT-0500 (Central Daylight Time),193388.79999995232,014_m_m_n_a.png,O,m,663,13,1,1677.6000000238419,191711.19999992847,7211,VNB,C,12
9,test,1,1.0,1-Back,0,z,Mon Aug 18 2025 13:59:42 GMT-0500 (Central Daylight Time),195604.89999997616,022_y_f_n_a.png,O,m,1197,14,1,2212.899999976158,193392.0,7211,VNB,C,13
10,test,1,0.0,1-Back,1,m,Mon Aug 18 2025 13:59:42 GMT-0500 (Central Daylight Time),197272.0,019_m_f_h_a.png,O,m,644,15,1,1664.2000000476837,195607.79999995232,7211,VNB,C,14
11,test,1,0.0,1-Back,1,m,Mon Aug 18 2025 13:59:42 GMT-0500 (Central Daylight Time),199188.10000002384,014_m_m_d_a.png,O,m,891,16,1,1912.7000000476837,197275.39999997616,7211,VNB,C,15
12,test,1,0.0,1-Back,1,m,Mon Aug 18 2025 13:59:42 GMT-0500 (Central Daylight Time),200970.29999995232,025_y_m_n_a.png,O,m,757,17,1,1779.6000000238419,199190.69999992847,7211,VNB,C,16
13,test,1,0.0,1-Back,1,m,Mon Aug 18 2025 13:59:42 GMT-0500 (Central Daylight Time),202703.29999995232,012_o_f_h_a.png,O,m,710,18,1,1729.1000000238419,200974.19999992847,7211,VNB,C,17
0,test,2,0.0,1-Back,,,Mon Aug 18 2025 13:59:42 GMT-0500 (Central Daylight Time),202703.29999995232,025_y_m_n_a.png,O,space,1691,1,1,1729.1000000238419,200974.19999992847,7211,VNB,C,0
1,test,2,0.0,1-Back,1,m,Mon Aug 18 2025 13:59:42 GMT-0500 (Central Daylight Time),208134.0,022_y_f_h_a.png,O,m,694,2,1,1709.8999999761581,206424.10000002384,7211,VNB,C,1
2,test,2,1.0,1-Back,1,m,Mon Aug 18 2025 13:59:42 GMT-0500 (Central Daylight Time),210000.79999995232,015_o_m_n_a.png,O,m,832,3,1,1858.7999999523163,208142.0,7211,VNB,C,2
3,test,2,0.0,1-Back,1,m,Mon Aug 18 2025 13:59:42 GMT-0500 (Central Daylight Time),211717.5,019_m_f_d_a.png,O,m,689,4,1,1713.3000000715256,210004.19999992847,7211,VNB,C,3
4,test,2,0.0,1-Back,1,z,Mon Aug 18 2025 13:59:42 GMT-0500 (Central Daylight Time),213466.69999992847,014_m_m_d_a.png,O,z,725,5,1,1743.5999999046326,211723.10000002384,7211,VNB,C,4
5,test,2,0.0,1-Back,1,m,Mon Aug 18 2025 13:59:42 GMT-0500 (Central Daylight Time),215200.19999992847,025_y_m_h_a.png,O,m,704,6,1,1729.3999999761581,213470.79999995232,7211,VNB,C,5
6,test,2,1.0,1-Back,1,z,Mon Aug 18 2025 13:59:42 GMT-0500 (Central Daylight Time),217149.10000002384,012_o_f_h_a.png,O,z,932,7,1,1941.2000000476837,215207.89999997616,7211,VNB,C,6
7,test,2,0.0,1-Back,1,m,Mon Aug 18 2025 13:59:42 GMT-0500 (Central Daylight Time),218847.89999997616,019_m_f_n_a.png,O,m,677,8,1,1695.1000000238419,217152.79999995232,7211,VNB,C,7
8,test,2,0.0,1-Back,1,m,Mon Aug 18 2025 13:59:42 GMT-0500 (Central Daylight Time),220480.39999997616,022_y_f_d_a.png,O,m,601,9,1,1628.7000000476837,218851.69999992847,7211,VNB,C,8
9,test,2,0.0,1-Back,1,m,Mon Aug 18 2025 13:59:42 GMT-0500 (Central Daylight Time),222198.0,014_m_m_n_a.png,O,m,690,10,1,1712.3999999761581,220485.60000002384,7211,VNB,C,9
10,test,2,1.0,1-Back,1,m,Mon Aug 18 2025 13:59:42 GMT-0500 (Central Daylight Time),223997.39999997616,019_m_f_h_a.png,O,m,766,11,1,1794.1000000238419,222203.29999995232,7211,VNB,C,10
11,test,2,0.0,1-Back,1,z,Mon Aug 18 2025 13:59:42 GMT-0500 (Central Daylight Time),225946.0,015_o_m_h_a.png,O,z,926,12,1,1944.8000000715256,224001.19999992847,7211,VNB,C,11
12,test,2,0.0,1-Back,1,m,Mon Aug 18 2025 13:59:42 GMT-0500 (Central Daylight Time),227695.39999997616,025_y_m_d_a.png,O,m,719,13,1,1745.7999999523163,225949.60000002384,7211,VNB,C,12
13,test,2,0.0,1-Back,1,m,Mon Aug 18 2025 13:59:42 GMT-0500 (Central Daylight Time),229411.89999997616,012_o_f_n_a.png,O,m,691,14,1,1713.8999999761581,227698.0,7211,VNB,C,13
14,test,2,0.0,1-Back,1,z,Mon Aug 18 2025 13:59:42 GMT-0500 (Central Daylight Time),231344.5,022_y_f_n_a.png,O,z,911,15,1,1929.7000000476837,229414.79999995232,7211,VNB,C,14
15,test,2,1.0,1-Back,1,m,Mon Aug 18 2025 13:59:42 GMT-0500 (Central Daylight Time),233310.10000002384,014_m_m_h_a.png,O,m,939,16,1,1962.9000000953674,231347.19999992847,7211,VNB,C,15
16,test,2,0.0,1-Back,1,m,Mon Aug 18 2025 13:59:42 GMT-0500 (Central Daylight Time),235359.89999997616,012_o_f_d_a.png,O,m,1021,17,1,2045.2999999523163,233314.60000002384,7211,VNB,C,16
17,test,2,1.0,1-Back,1,z,Mon Aug 18 2025 13:59:42 GMT-0500 (Central Daylight Time),236959.89999997616,015_o_m_d_a.png,O,z,571,18,1,1595.5,235364.39999997616,7211,VNB,C,17
0,test,3,1.0,1-Back,,,Mon Aug 18 2025 13:59:42 GMT-0500 (Central Daylight Time),236959.89999997616,012_o_f_h_a.png,O,space,1650,1,1,1595.5,235364.39999997616,7211,VNB,C,0
1,test,3,0.0,1-Back,1,m,Mon Aug 18 2025 13:59:42 GMT-0500 (Central Daylight Time),242806.10000002384,019_m_f_d_a.png,O,m,1061,2,1,2079.3000000715256,240726.79999995232,7211,VNB,C,1
2,test,3,1.0,1-Back,1,m,Mon Aug 18 2025 13:59:42 GMT-0500 (Central Daylight Time),244607.19999992847,014_m_m_n_a.png,O,m,770,3,1,1798.3999999761581,242808.79999995232,7211,VNB,C,2
2,test,3,0.0,1-Back,0,z,Mon Aug 18 2025 13:59:42 GMT-0500 (Central Daylight Time),246372.10000002384,012_o_f_n_a.png,O,m,749,4,1,1761.7000000476837,244610.39999997616,7211,VNB,C,3
3,test,3,1.0,1-Back,1,m,Mon Aug 18 2025 13:59:42 GMT-0500 (Central Daylight Time),248105.69999992847,015_o_m_d_a.png,O,m,709,5,1,1729.0,246376.69999992847,7211,VNB,C,4
4,test,3,0.0,1-Back,1,m,Mon Aug 18 2025 13:59:42 GMT-0500 (Central Daylight Time),249806.19999992847,022_y_f_h_a.png,O,m,673,6,1,1696.5999999046326,248109.60000002384,7211,VNB,C,5
5,test,3,0.0,1-Back,1,z,Mon Aug 18 2025 13:59:42 GMT-0500 (Central Daylight Time),251704.39999997616,025_y_m_h_a.png,O,z,869,7,1,1893.8999999761581,249810.5,7211,VNB,C,6
6,test,3,0.0,1-Back,1,m,Mon Aug 18 2025 13:59:42 GMT-0500 (Central Daylight Time),253403.60000002384,019_m_f_n_a.png,O,m,682,8,1,1696.4000000953674,251707.19999992847,7211,VNB,C,7
7,test,3,0.0,1-Back,1,m,Mon Aug 18 2025 13:59:42 GMT-0500 (Central Daylight Time),255103.29999995232,022_y_f_d_a.png,O,m,679,9,1,1696.2999999523163,253407.0,7211,VNB,C,8
8,test,3,1.0,1-Back,1,m,Mon Aug 18 2025 13:59:42 GMT-0500 (Central Daylight Time),256853.19999992847,015_o_m_n_a.png,O,m,721,10,1,1743.7999999523163,255109.39999997616,7211,VNB,C,9
9,test,3,0.0,1-Back,1,m,Mon Aug 18 2025 13:59:42 GMT-0500 (Central Daylight Time),258519.5,014_m_m_h_a.png,O,m,645,11,1,1660.3000000715256,256859.19999992847,7211,VNB,C,10
10,test,3,0.0,1-Back,1,z,Mon Aug 18 2025 13:59:42 GMT-0500 (Central Daylight Time),260151.79999995232,019_m_f_h_a.png,O,z,603,12,1,1629.2999999523163,258522.5,7211,VNB,C,11
11,test,3,1.0,1-Back,1,m,Mon Aug 18 2025 13:59:42 GMT-0500 (Central Daylight Time),262117.10000002384,012_o_f_d_a.png,O,m,938,13,1,1962.6000000238419,260154.5,7211,VNB,C,12
12,test,3,0.0,1-Back,1,z,Mon Aug 18 2025 13:59:42 GMT-0500 (Central Daylight Time),264067.10000002384,014_m_m_d_a.png,O,z,933,14,1,1947.4000000953674,262119.69999992847,7211,VNB,C,13
13,test,3,0.0,1-Back,1,m,Mon Aug 18 2025 13:59:42 GMT-0500 (Central Daylight Time),265799.89999997616,025_y_m_n_a.png,O,m,712,15,1,1729.2999999523163,264070.60000002384,7211,VNB,C,14
14,test,3,1.0,1-Back,1,m,Mon Aug 18 2025 13:59:42 GMT-0500 (Central Daylight Time),267399.1999999285,015_o_m_h_a.png,O,m,579,16,1,1595.6999999284744,265803.5,7211,VNB,C,15
15,test,3,0.0,1-Back,1,m,Mon Aug 18 2025 13:59:42 GMT-0500 (Central Daylight Time),269364.89999997616,025_y_m_d_a.png,O,m,938,17,1,1961.3999999761581,267403.5,7211,VNB,C,16
16,test,3,1.0,1-Back,1,m,Mon Aug 18 2025 13:59:42 GMT-0500 (Central Daylight Time),271014.60000002384,022_y_f_n_a.png,O,m,621,18,1,1646.9000000953674,269367.6999999285,7211,VNB,C,17
0,test,4,1.0,1-Back,,,Mon Aug 18 2025 13:59:42 GMT-0500 (Central Daylight Time),271014.60000002384,014_m_m_d_a.png,O,space,1419,1,1,1646.9000000953674,269367.6999999285,7211,VNB,C,0
1,test,4,0.0,1-Back,1,z,Mon Aug 18 2025 13:59:42 GMT-0500 (Central Daylight Time),276329.6999999285,015_o_m_d_a.png,O,z,841,2,1,1860.6999999284744,274469.0,7211,VNB,C,1
2,test,4,0.0,1-Back,1,m,Mon Aug 18 2025 13:59:42 GMT-0500 (Central Daylight Time),277962.0,025_y_m_h_a.png,O,m,609,3,1,1627.2000000476837,276334.7999999523,7211,VNB,C,2
3,test,4,0.0,1-Back,1,m,Mon Aug 18 2025 13:59:42 GMT-0500 (Central Daylight Time),279546.10000002384,019_m_f_n_a.png,O,m,559,4,1,1581.6000000238419,277964.5,7211,VNB,C,3
4,test,4,1.0,1-Back,1,m,Mon Aug 18 2025 13:59:42 GMT-0500 (Central Daylight Time),281145.5,012_o_f_h_a.png,O,m,568,5,1,1596.0,279549.5,7211,VNB,C,4
5,test,4,0.0,1-Back,1,m,Mon Aug 18 2025 13:59:42 GMT-0500 (Central Daylight Time),283077.60000002384,014_m_m_n_a.png,O,m,905,6,1,1929.3000000715256,281148.2999999523,7211,VNB,C,5
6,test,4,0.0,1-Back,1,m,Mon Aug 18 2025 13:59:42 GMT-0500 (Central Daylight Time),284643.2999999523,025_y_m_d_a.png,O,m,540,7,1,1562.2999999523163,283081.0,7211,VNB,C,6
7,test,4,1.0,1-Back,1,z,Mon Aug 18 2025 13:59:42 GMT-0500 (Central Daylight Time),286376.5,022_y_f_d_a.png,O,z,702,8,1,1729.8999999761581,284646.60000002384,7211,VNB,C,7
8,test,4,0.0,1-Back,1,m,Mon Aug 18 2025 13:59:42 GMT-0500 (Central Daylight Time),288192.60000002384,019_m_f_h_a.png,O,m,785,9,1,1812.9000000953674,286379.6999999285,7211,VNB,C,8
9,test,4,0.0,1-Back,1,z,Mon Aug 18 2025 13:59:42 GMT-0500 (Central Daylight Time),290175.5,015_o_m_h_a.png,O,z,962,10,1,1980.0,288195.5,7211,VNB,C,9
10,test,4,1.0,1-Back,1,m,Mon Aug 18 2025 13:59:42 GMT-0500 (Central Daylight Time),291791.89999997616,012_o_f_n_a.png,O,m,586,11,1,1613.6000000238419,290178.2999999523,7211,VNB,C,10
11,test,4,0.0,1-Back,1,m,Mon Aug 18 2025 13:59:42 GMT-0500 (Central Daylight Time),293891.2999999523,019_m_f_d_a.png,O,m,1067,12,1,2096.1999999284744,291795.10000002384,7211,VNB,C,11
12,test,4,0.0,1-Back,1,m,Mon Aug 18 2025 13:59:42 GMT-0500 (Central Daylight Time),295590.5,022_y_f_n_a.png,O,m,678,13,1,1696.3999999761581,293894.10000002384,7211,VNB,C,12
13,test,4,0.0,1-Back,1,m,Mon Aug 18 2025 13:59:42 GMT-0500 (Central Daylight Time),297506.5,012_o_f_d_a.png,O,m,891,14,1,1912.8000000715256,295593.6999999285,7211,VNB,C,13
14,test,4,0.0,1-Back,1,m,Mon Aug 18 2025 13:59:42 GMT-0500 (Central Daylight Time),299206.39999997616,022_y_f_h_a.png,O,m,671,15,1,1695.7999999523163,297510.60000002384,7211,VNB,C,14
15,test,4,1.0,1-Back,1,z,Mon Aug 18 2025 13:59:42 GMT-0500 (Central Daylight Time),300756.0,014_m_m_h_a.png,O,z,525,16,1,1543.7000000476837,299212.2999999523,7211,VNB,C,15
16,test,4,0.0,1-Back,1,m,Mon Aug 18 2025 13:59:42 GMT-0500 (Central Daylight Time),302355.2999999523,015_o_m_n_a.png,O,m,566,17,1,1596.0,300759.2999999523,7211,VNB,C,16
17,test,4,1.0,1-Back,1,z,Mon Aug 18 2025 13:59:42 GMT-0500 (Central Daylight Time),303937.39999997616,025_y_m_n_a.png,O,z,559,18,1,1578.7000000476837,302358.6999999285,7211,VNB,C,17
0,test,5,1.0,1-Back,,,Mon Aug 18 2025 13:59:42 GMT-0500 (Central Daylight Time),303937.39999997616,015_o_m_n_a.png,O,space,1336,1,1,1578.7000000476837,302358.6999999285,7211,VNB,C,0
1,test,5,1.0,1-Back,1,m,Mon Aug 18 2025 13:59:42 GMT-0500 (Central Daylight Time),309086.10000002384,012_o_f_h_a.png,O,m,763,2,1,1778.3000000715256,307307.7999999523,7211,VNB,C,1
2,test,5,0.0,1-Back,1,m,Mon Aug 18 2025 13:59:42 GMT-0500 (Central Daylight Time),310785.10000002384,025_y_m_d_a.png,O,m,665,3,1,1696.5,309088.60000002384,7211,VNB,C,2
3,test,5,0.0,1-Back,1,z,Mon Aug 18 2025 13:59:42 GMT-0500 (Central Daylight Time),312568.2999999523,015_o_m_d_a.png,O,z,761,4,1,1779.6999999284744,310788.60000002384,7211,VNB,C,3
4,test,5,0.0,1-Back,1,m,Mon Aug 18 2025 13:59:42 GMT-0500 (Central Daylight Time),314200.6999999285,019_m_f_h_a.png,O,m,602,5,1,1628.2999999523163,312572.39999997616,7211,VNB,C,4
5,test,5,0.0,1-Back,1,m,Mon Aug 18 2025 13:59:42 GMT-0500 (Central Daylight Time),315750.7999999523,022_y_f_n_a.png,O,m,530,6,1,1547.3999999761581,314203.39999997616,7211,VNB,C,5
5,test,5,1.0,1-Back,0,z,Mon Aug 18 2025 13:59:42 GMT-0500 (Central Daylight Time),317400.0,012_o_f_n_a.png,O,m,628,7,1,1645.8000000715256,315754.1999999285,7211,VNB,C,6
6,test,5,0.0,1-Back,1,m,Mon Aug 18 2025 13:59:42 GMT-0500 (Central Daylight Time),319333.10000002384,019_m_f_d_a.png,O,m,915,8,1,1928.7000000476837,317404.39999997616,7211,VNB,C,7
7,test,5,0.0,1-Back,1,m,Mon Aug 18 2025 13:59:42 GMT-0500 (Central Daylight Time),321198.7999999523,025_y_m_h_a.png,O,m,838,9,1,1862.6999999284744,319336.10000002384,7211,VNB,C,8
8,test,5,0.0,1-Back,1,m,Mon Aug 18 2025 13:59:42 GMT-0500 (Central Daylight Time),322915.1999999285,022_y_f_d_a.png,O,m,683,10,1,1712.7999999523163,321202.39999997616,7211,VNB,C,9
9,test,5,0.0,1-Back,1,m,Mon Aug 18 2025 13:59:42 GMT-0500 (Central Daylight Time),324499.0,014_m_m_n_a.png,O,m,559,11,1,1579.8999999761581,322919.10000002384,7211,VNB,C,10
10,test,5,1.0,1-Back,1,z,Mon Aug 18 2025 13:59:42 GMT-0500 (Central Daylight Time),326313.5,019_m_f_n_a.png,O,z,783,12,1,1809.7000000476837,324503.7999999523,7211,VNB,C,11
11,test,5,0.0,1-Back,1,m,Mon Aug 18 2025 13:59:42 GMT-0500 (Central Daylight Time),327979.5,015_o_m_h_a.png,O,m,648,13,1,1663.3000000715256,326316.1999999285,7211,VNB,C,12
12,test,5,0.0,1-Back,1,z,Mon Aug 18 2025 13:59:42 GMT-0500 (Central Daylight Time),329962.10000002384,014_m_m_h_a.png,O,z,958,14,1,1979.9000000953674,327982.1999999285,7211,VNB,C,13
13,test,5,1.0,1-Back,1,m,Mon Aug 18 2025 13:59:42 GMT-0500 (Central Daylight Time),331729.10000002384,012_o_f_d_a.png,O,m,735,15,1,1764.3000000715256,329964.7999999523,7211,VNB,C,14
14,test,5,0.0,1-Back,1,m,Mon Aug 18 2025 13:59:42 GMT-0500 (Central Daylight Time),333478.5,025_y_m_n_a.png,O,m,721,16,1,1745.6000000238419,331732.89999997616,7211,VNB,C,15
15,test,5,0.0,1-Back,1,m,Mon Aug 18 2025 13:59:42 GMT-0500 (Central Daylight Time),335427.7999999523,022_y_f_h_a.png,O,m,924,17,1,1944.6999999284744,333483.10000002384,7211,VNB,C,16
16,test,5,0.0,1-Back,1,m,Mon Aug 18 2025 13:59:42 GMT-0500 (Central Daylight Time),337410.60000002384,014_m_m_d_a.png,O,m,949,18,1,1979.2000000476837,335431.39999997616,7211,VNB,C,17
0,prac,1,0.0,2-Back,,,Mon Aug 18 2025 13:59:42 GMT-0500 (Central Daylight Time),337410.60000002384,019_m_f_n_a.png,O,space,3767,1,1,1979.2000000476837,335431.39999997616,7211,VNB,C,0
0,prac,1,0.0,2-Back,,,Mon Aug 18 2025 13:59:42 GMT-0500 (Central Daylight Time),337410.60000002384,012_o_f_h_a.png,O,space,3767,2,1,1979.2000000476837,335431.39999997616,7211,VNB,C,0
1,prac,1,0.0,2-Back,1,m,Mon Aug 18 2025 13:59:42 GMT-0500 (Central Daylight Time),457889.10000002384,015_o_m_d_a.png,O,m,910,3,1,1771.8000000715256,456117.2999999523,7211,VNB,C,1
1,prac,1,1.0,2-Back,0,z,Mon Aug 18 2025 13:59:42 GMT-0500 (Central Daylight Time),460404.6999999285,014_m_m_h_a.png,O,m,1654,4,1,2504.399999976158,457900.2999999523,7211,VNB,C,2
2,prac,1,0.0,2-Back,1,m,Mon Aug 18 2025 13:59:42 GMT-0500 (Central Daylight Time),462938.39999997616,022_y_f_n_a.png,O,m,1661,5,1,2522.2999999523163,460416.10000002384,7211,VNB,C,3
3,prac,1,1.0,2-Back,1,z,Mon Aug 18 2025 13:59:42 GMT-0500 (Central Daylight Time),464671.60000002384,015_o_m_h_a.png,O,z,949,6,1,1722.2000000476837,462949.39999997616,7211,VNB,C,4
3,prac,1,1.0,2-Back,0,z,Mon Aug 18 2025 13:59:42 GMT-0500 (Central Daylight Time),466604.5,025_y_m_n_a.png,O,m,1071,7,1,1921.7000000476837,464682.7999999523,7211,VNB,C,5
3,prac,1,0.0,2-Back,0,m,Mon Aug 18 2025 13:59:42 GMT-0500 (Central Daylight Time),469220.6999999285,019_m_f_d_a.png,O,z,1751,8,1,2605.899999976158,466614.7999999523,7211,VNB,C,6
3,prac,1,0.0,2-Back,0,m,Mon Aug 18 2025 13:59:42 GMT-0500 (Central Daylight Time),471768.7999999523,012_o_f_d_a.png,O,z,1694,9,1,2537.5,469231.2999999523,7211,VNB,C,7
4,prac,1,0.0,2-Back,1,m,Mon Aug 18 2025 13:59:42 GMT-0500 (Central Daylight Time),473469.7999999523,014_m_m_h_a.png,O,m,907,10,1,1690.2999999523163,471779.5,7211,VNB,C,8
4,prac,1,1.0,2-Back,0,z,Mon Aug 18 2025 13:59:42 GMT-0500 (Central Daylight Time),476350.89999997616,022_y_f_d_a.png,O,None,2017,11,1,2872.0,473478.89999997616,7211,VNB,C,9
4,prac,1,0.0,2-Back,0,m,Mon Aug 18 2025 13:59:42 GMT-0500 (Central Daylight Time),478516.2999999523,015_o_m_n_a.png,O,z,1290,12,1,2154.399999976158,476361.89999997616,7211,VNB,C,10
0,prac,2,0.0,2-Back,,,Mon Aug 18 2025 13:59:42 GMT-0500 (Central Daylight Time),478516.2999999523,019_m_f_n_a.png,O,a,1729,1,1,2154.399999976158,476361.89999997616,7211,VNB,C,0
0,prac,2,0.0,2-Back,,,Mon Aug 18 2025 13:59:42 GMT-0500 (Central Daylight Time),478516.2999999523,012_o_f_h_a.png,O,a,1729,2,1,2154.399999976158,476361.89999997616,7211,VNB,C,0
1,prac,2,0.0,2-Back,1,m,Mon Aug 18 2025 13:59:42 GMT-0500 (Central Daylight Time),487630.39999997616,015_o_m_d_a.png,O,m,1252,3,1,2117.7999999523163,485512.60000002384,7211,VNB,C,1
2,prac,2,1.0,2-Back,1,z,Mon Aug 18 2025 13:59:42 GMT-0500 (Central Daylight Time),489797.39999997616,014_m_m_h_a.png,O,z,1388,4,1,2156.399999976158,487641.0,7211,VNB,C,2
3,prac,2,0.0,2-Back,1,m,Mon Aug 18 2025 13:59:42 GMT-0500 (Central Daylight Time),491545.0,022_y_f_n_a.png,O,m,882,5,1,1737.1000000238419,489807.89999997616,7211,VNB,C,3
3,prac,2,1.0,2-Back,0,z,Mon Aug 18 2025 13:59:42 GMT-0500 (Central Daylight Time),493430.10000002384,015_o_m_h_a.png,O,m,1005,6,1,1872.3000000715256,491557.7999999523,7211,VNB,C,4
3,prac,2,1.0,2-Back,0,z,Mon Aug 18 2025 13:59:42 GMT-0500 (Central Daylight Time),496276.7999999523,025_y_m_n_a.png,O,None,2004,7,1,2838.600000023842,493438.1999999285,7211,VNB,C,5
4,prac,2,0.0,2-Back,1,m,Mon Aug 18 2025 13:59:42 GMT-0500 (Central Daylight Time),498976.39999997616,019_m_f_d_a.png,O,m,1837,8,1,2691.0,496285.39999997616,7211,VNB,C,6
4,prac,2,0.0,2-Back,0,m,Mon Aug 18 2025 13:59:42 GMT-0500 (Central Daylight Time),501224.6999999285,012_o_f_d_a.png,O,z,1371,9,1,2235.7999999523163,498988.89999997616,7211,VNB,C,7
5,prac,2,0.0,2-Back,1,m,Mon Aug 18 2025 13:59:42 GMT-0500 (Central Daylight Time),502825.89999997616,014_m_m_h_a.png,O,m,811,10,1,1593.3999999761581,501232.5,7211,VNB,C,8
5,prac,2,1.0,2-Back,0,z,Mon Aug 18 2025 13:59:42 GMT-0500 (Central Daylight Time),505390.6999999285,022_y_f_d_a.png,O,m,1685,11,1,2552.7999999523163,502837.89999997616,7211,VNB,C,9
5,prac,2,0.0,2-Back,0,m,Mon Aug 18 2025 13:59:42 GMT-0500 (Central Daylight Time),507524.0,015_o_m_n_a.png,O,z,1252,12,1,2125.600000023842,505398.39999997616,7211,VNB,C,10
0,test,1,0.0,2-Back,,,Mon Aug 18 2025 13:59:42 GMT-0500 (Central Daylight Time),507524.0,025_y_m_h_a.png,O,space,3322,1,1,2125.600000023842,505398.39999997616,7211,VNB,C,0
0,test,1,0.0,2-Back,,,Mon Aug 18 2025 13:59:42 GMT-0500 (Central Daylight Time),507524.0,012_o_f_n_a.png,O,space,3322,2,1,2125.600000023842,505398.39999997616,7211,VNB,C,0
1,test,1,0.0,2-Back,1,z,Mon Aug 18 2025 13:59:42 GMT-0500 (Central Daylight Time),525436.8999999762,015_o_m_h_a.png,O,z,783,3,1,1807.7000000476837,523629.1999999285,7211,VNB,C,1
2,test,1,0.0,2-Back,1,m,Mon Aug 18 2025 13:59:42 GMT-0500 (Central Daylight Time),527434.7999999523,019_m_f_d_a.png,O,m,976,4,1,1994.2999999523163,525440.5,7211,VNB,C,2
3,test,1,1.0,2-Back,1,m,Mon Aug 18 2025 13:59:42 GMT-0500 (Central Daylight Time),529800.1000000238,025_y_m_n_a.png,O,m,1335,5,1,2356.5,527443.6000000238,7211,VNB,C,3
3,test,1,0.0,2-Back,0,z,Mon Aug 18 2025 13:59:42 GMT-0500 (Central Daylight Time),531881.0,022_y_f_d_a.png,O,m,1051,6,1,2071.8000000715256,529809.1999999285,7211,VNB,C,4
4,test,1,0.0,2-Back,1,m,Mon Aug 18 2025 13:59:42 GMT-0500 (Central Daylight Time),533901.6999999285,014_m_m_h_a.png,O,m,1002,7,1,2013.6999999284744,531888.0,7211,VNB,C,5
4,test,1,1.0,2-Back,0,m,Mon Aug 18 2025 13:59:42 GMT-0500 (Central Daylight Time),535483.8999999762,022_y_f_n_a.png,O,z,553,8,1,1573.3999999761581,533910.5,7211,VNB,C,6
4,test,1,0.0,2-Back,0,z,Mon Aug 18 2025 13:59:42 GMT-0500 (Central Daylight Time),537714.0,012_o_f_h_a.png,O,m,1210,9,1,2220.8000000715256,535493.1999999285,7211,VNB,C,7
4,test,1,0.0,2-Back,0,m,Mon Aug 18 2025 13:59:42 GMT-0500 (Central Daylight Time),539680.2999999523,015_o_m_d_a.png,O,z,935,10,1,1957.0,537723.2999999523,7211,VNB,C,8
5,test,1,1.0,2-Back,1,m,Mon Aug 18 2025 13:59:42 GMT-0500 (Central Daylight Time),541863.1000000238,014_m_m_d_a.png,O,m,1154,11,1,2174.0,539689.1000000238,7211,VNB,C,9
5,test,1,0.0,2-Back,0,m,Mon Aug 18 2025 13:59:42 GMT-0500 (Central Daylight Time),543711.2999999523,019_m_f_n_a.png,O,z,827,12,1,1837.6000000238419,541873.6999999285,7211,VNB,C,10
6,test,1,0.0,2-Back,1,m,Mon Aug 18 2025 13:59:42 GMT-0500 (Central Daylight Time),545661.1999999285,022_y_f_h_a.png,O,m,923,13,1,1942.7999999523163,543718.3999999762,7211,VNB,C,11
6,test,1,0.0,2-Back,0,z,Mon Aug 18 2025 13:59:42 GMT-0500 (Central Daylight Time),547692.6000000238,014_m_m_n_a.png,O,m,1005,14,1,2020.4000000953674,545672.1999999285,7211,VNB,C,12
7,test,1,0.0,2-Back,1,m,Mon Aug 18 2025 13:59:42 GMT-0500 (Central Daylight Time),550093.6000000238,025_y_m_d_a.png,O,m,1378,15,1,2397.600000023842,547696.0,7211,VNB,C,13
8,test,1,1.0,2-Back,1,m,Mon Aug 18 2025 13:59:42 GMT-0500 (Central Daylight Time),552108.5,019_m_f_h_a.png,O,m,990,16,1,2005.2000000476837,550103.2999999523,7211,VNB,C,14
9,test,1,0.0,2-Back,1,z,Mon Aug 18 2025 13:59:42 GMT-0500 (Central Daylight Time),553676.8999999762,012_o_f_d_a.png,O,z,525,17,1,1552.2000000476837,552124.6999999285,7211,VNB,C,15
10,test,1,0.0,2-Back,1,m,Mon Aug 18 2025 13:59:42 GMT-0500 (Central Daylight Time),555542.1999999285,015_o_m_n_a.png,O,m,839,18,1,1856.5,553685.6999999285,7211,VNB,C,16
0,test,2,0.0,2-Back,,,Mon Aug 18 2025 13:59:42 GMT-0500 (Central Daylight Time),555542.1999999285,014_m_m_h_a.png,O,space,2314,1,1,1856.5,553685.6999999285,7211,VNB,C,0
0,test,2,0.0,2-Back,,,Mon Aug 18 2025 13:59:42 GMT-0500 (Central Daylight Time),555542.1999999285,022_y_f_n_a.png,O,space,2314,2,1,1856.5,553685.6999999285,7211,VNB,C,0
1,test,2,1.0,2-Back,1,z,Mon Aug 18 2025 13:59:42 GMT-0500 (Central Daylight Time),565323.6999999285,012_o_f_h_a.png,O,z,1218,3,1,2244.2999999523163,563079.3999999762,7211,VNB,C,1
2,test,2,0.0,2-Back,1,m,Mon Aug 18 2025 13:59:42 GMT-0500 (Central Daylight Time),567270.6000000238,015_o_m_d_a.png,O,m,918,4,1,1937.3000000715256,565333.2999999523,7211,VNB,C,2
3,test,2,0.0,2-Back,1,m,Mon Aug 18 2025 13:59:42 GMT-0500 (Central Daylight Time),569554.3999999762,019_m_f_d_a.png,O,m,1249,5,1,2273.899999976158,567280.5,7211,VNB,C,3
3,test,2,0.0,2-Back,0,m,Mon Aug 18 2025 13:59:42 GMT-0500 (Central Daylight Time),571803.8999999762,025_y_m_h_a.png,O,z,1217,6,1,2239.2000000476837,569564.6999999285,7211,VNB,C,4
4,test,2,0.0,2-Back,1,m,Mon Aug 18 2025 13:59:42 GMT-0500 (Central Daylight Time),573620.1000000238,012_o_f_n_a.png,O,m,783,7,1,1806.2000000476837,571813.8999999762,7211,VNB,C,5
5,test,2,1.0,2-Back,1,z,Mon Aug 18 2025 13:59:42 GMT-0500 (Central Daylight Time),576218.8999999762,015_o_m_h_a.png,O,z,1567,8,1,2591.2999999523163,573627.6000000238,7211,VNB,C,6
6,test,2,0.0,2-Back,1,m,Mon Aug 18 2025 13:59:42 GMT-0500 (Central Daylight Time),578284.1000000238,022_y_f_d_a.png,O,m,1039,9,1,2055.8000000715256,576228.2999999523,7211,VNB,C,7
7,test,2,0.0,2-Back,1,m,Mon Aug 18 2025 13:59:42 GMT-0500 (Central Daylight Time),580918.1000000238,025_y_m_d_a.png,O,m,1608,10,1,2627.600000023842,578290.5,7211,VNB,C,8
7,test,2,0.0,2-Back,0,m,Mon Aug 18 2025 13:59:42 GMT-0500 (Central Daylight Time),582767.3999999762,014_m_m_n_a.png,O,z,818,11,1,1841.2000000476837,580926.1999999285,7211,VNB,C,9
8,test,2,0.0,2-Back,1,m,Mon Aug 18 2025 13:59:42 GMT-0500 (Central Daylight Time),584382.7999999523,019_m_f_h_a.png,O,m,590,12,1,1605.6000000238419,582777.1999999285,7211,VNB,C,10
8,test,2,1.0,2-Back,0,z,Mon Aug 18 2025 13:59:42 GMT-0500 (Central Daylight Time),586132.6999999285,015_o_m_n_a.png,O,m,719,13,1,1743.0,584389.6999999285,7211,VNB,C,11
9,test,2,0.0,2-Back,1,m,Mon Aug 18 2025 13:59:42 GMT-0500 (Central Daylight Time),588680.5,012_o_f_d_a.png,O,m,1518,14,1,2539.100000023842,586141.3999999762,7211,VNB,C,12
9,test,2,0.0,2-Back,0,m,Mon Aug 18 2025 13:59:42 GMT-0500 (Central Daylight Time),590564.1000000238,022_y_f_h_a.png,O,z,852,15,1,1875.3000000715256,588688.7999999523,7211,VNB,C,13
9,test,2,0.0,2-Back,0,z,Mon Aug 18 2025 13:59:42 GMT-0500 (Central Daylight Time),592496.5,014_m_m_d_a.png,O,m,899,16,1,1924.3999999761581,590572.1000000238,7211,VNB,C,14
10,test,2,0.0,2-Back,1,m,Mon Aug 18 2025 13:59:42 GMT-0500 (Central Daylight Time),594812.6999999285,025_y_m_n_a.png,O,m,1283,17,1,2307.5,592505.1999999285,7211,VNB,C,15
11,test,2,1.0,2-Back,1,m,Mon Aug 18 2025 13:59:42 GMT-0500 (Central Daylight Time),597028.1000000238,019_m_f_n_a.png,O,m,1189,18,1,2205.3000000715256,594822.7999999523,7211,VNB,C,16
0,test,3,1.0,2-Back,,,Mon Aug 18 2025 13:59:42 GMT-0500 (Central Daylight Time),597028.1000000238,015_o_m_n_a.png,O,space,3025,1,1,2205.3000000715256,594822.7999999523,7211,VNB,C,0
0,test,3,1.0,2-Back,,,Mon Aug 18 2025 13:59:42 GMT-0500 (Central Daylight Time),597028.1000000238,012_o_f_d_a.png,O,space,3025,2,1,2205.3000000715256,594822.7999999523,7211,VNB,C,0
1,test,3,0.0,2-Back,1,m,Mon Aug 18 2025 13:59:42 GMT-0500 (Central Daylight Time),606944.5,022_y_f_h_a.png,O,m,805,3,1,1826.7000000476837,605117.7999999523,7211,VNB,C,1
1,test,3,0.0,2-Back,0,z,Mon Aug 18 2025 13:59:42 GMT-0500 (Central Daylight Time),608744.3999999762,019_m_f_d_a.png,O,m,785,4,1,1790.7999999523163,606953.6000000238,7211,VNB,C,2
1,test,3,1.0,2-Back,0,m,Mon Aug 18 2025 13:59:42 GMT-0500 (Central Daylight Time),610491.5,025_y_m_n_a.png,O,z,723,5,1,1739.3999999761581,608752.1000000238,7211,VNB,C,3
2,test,3,0.0,2-Back,1,m,Mon Aug 18 2025 13:59:42 GMT-0500 (Central Daylight Time),612457.6999999285,015_o_m_h_a.png,O,m,944,6,1,1961.5999999046326,610496.1000000238,7211,VNB,C,4
2,test,3,0.0,2-Back,0,z,Mon Aug 18 2025 13:59:42 GMT-0500 (Central Daylight Time),614473.6000000238,022_y_f_n_a.png,O,m,984,7,1,2008.0,612465.6000000238,7211,VNB,C,5
3,test,3,1.0,2-Back,1,m,Mon Aug 18 2025 13:59:42 GMT-0500 (Central Daylight Time),616937.8999999762,014_m_m_d_a.png,O,m,1447,8,1,2454.899999976158,614483.0,7211,VNB,C,6
4,test,3,0.0,2-Back,1,m,Mon Aug 18 2025 13:59:42 GMT-0500 (Central Daylight Time),619089.1000000238,025_y_m_d_a.png,O,m,1121,9,1,2140.9000000953674,616948.1999999285,7211,VNB,C,7
5,test,3,0.0,2-Back,1,m,Mon Aug 18 2025 13:59:42 GMT-0500 (Central Daylight Time),621371.6999999285,012_o_f_h_a.png,O,m,1251,10,1,2274.7999999523163,619096.8999999762,7211,VNB,C,8
6,test,3,1.0,2-Back,1,m,Mon Aug 18 2025 13:59:42 GMT-0500 (Central Daylight Time),623602.2999999523,019_m_f_n_a.png,O,m,1205,11,1,2220.899999976158,621381.3999999762,7211,VNB,C,9
7,test,3,1.0,2-Back,1,z,Mon Aug 18 2025 13:59:42 GMT-0500 (Central Daylight Time),625787.1000000238,014_m_m_h_a.png,O,z,1152,12,1,2176.600000023842,623610.5,7211,VNB,C,10
8,test,3,0.0,2-Back,1,m,Mon Aug 18 2025 13:59:42 GMT-0500 (Central Daylight Time),627602.7999999523,022_y_f_d_a.png,O,m,784,13,1,1809.3999999761581,625793.3999999762,7211,VNB,C,11
9,test,3,0.0,2-Back,1,m,Mon Aug 18 2025 13:59:42 GMT-0500 (Central Daylight Time),629967.6000000238,012_o_f_n_a.png,O,m,1337,14,1,2354.7000000476837,627612.8999999762,7211,VNB,C,12
10,test,3,0.0,2-Back,1,z,Mon Aug 18 2025 13:59:42 GMT-0500 (Central Daylight Time),631718.6999999285,015_o_m_d_a.png,O,z,732,15,1,1742.3999999761581,629976.2999999523,7211,VNB,C,13
11,test,3,1.0,2-Back,1,m,Mon Aug 18 2025 13:59:42 GMT-0500 (Central Daylight Time),633749.1999999285,019_m_f_h_a.png,O,m,1011,16,1,2025.2999999523163,631723.8999999762,7211,VNB,C,14
12,test,3,0.0,2-Back,1,m,Mon Aug 18 2025 13:59:42 GMT-0500 (Central Daylight Time),635797.2999999523,014_m_m_n_a.png,O,m,1028,17,1,2044.6000000238419,633752.6999999285,7211,VNB,C,15
12,test,3,0.0,2-Back,0,z,Mon Aug 18 2025 13:59:42 GMT-0500 (Central Daylight Time),637749.2999999523,025_y_m_h_a.png,O,m,919,18,1,1946.6000000238419,635802.6999999285,7211,VNB,C,16
0,test,4,0.0,2-Back,,,Mon Aug 18 2025 13:59:42 GMT-0500 (Central Daylight Time),637749.2999999523,019_m_f_n_a.png,O,space,1638,1,1,1946.6000000238419,635802.6999999285,7211,VNB,C,0
0,test,4,0.0,2-Back,,,Mon Aug 18 2025 13:59:42 GMT-0500 (Central Daylight Time),637749.2999999523,015_o_m_n_a.png,O,space,1638,2,1,1946.6000000238419,635802.6999999285,7211,VNB,C,0
1,test,4,1.0,2-Back,1,m,Mon Aug 18 2025 13:59:42 GMT-0500 (Central Daylight Time),646463.2999999523,025_y_m_h_a.png,O,m,816,3,1,1825.0,644638.2999999523,7211,VNB,C,1
2,test,4,1.0,2-Back,1,m,Mon Aug 18 2025 13:59:42 GMT-0500 (Central Daylight Time),648545.1000000238,012_o_f_d_a.png,O,m,1062,4,1,2073.0,646472.1000000238,7211,VNB,C,2
2,test,4,0.0,2-Back,0,z,Mon Aug 18 2025 13:59:42 GMT-0500 (Central Daylight Time),650861.5,015_o_m_h_a.png,O,m,1291,5,1,2308.600000023842,648552.8999999762,7211,VNB,C,3
3,test,4,0.0,2-Back,1,m,Mon Aug 18 2025 13:59:42 GMT-0500 (Central Daylight Time),652778.1000000238,014_m_m_n_a.png,O,m,881,6,1,1908.5,650869.6000000238,7211,VNB,C,4
4,test,4,0.0,2-Back,1,m,Mon Aug 18 2025 13:59:42 GMT-0500 (Central Daylight Time),654627.2999999523,019_m_f_d_a.png,O,m,827,7,1,1841.6000000238419,652785.6999999285,7211,VNB,C,5
5,test,4,0.0,2-Back,1,z,Mon Aug 18 2025 13:59:42 GMT-0500 (Central Daylight Time),656126.6999999285,022_y_f_n_a.png,O,z,471,8,1,1492.0999999046326,654634.6000000238,7211,VNB,C,6
5,test,4,1.0,2-Back,0,m,Mon Aug 18 2025 13:59:42 GMT-0500 (Central Daylight Time),657958.5,012_o_f_h_a.png,O,z,805,9,1,1823.0,656135.5,7211,VNB,C,7
6,test,4,0.0,2-Back,1,m,Mon Aug 18 2025 13:59:42 GMT-0500 (Central Daylight Time),659958.6999999285,014_m_m_h_a.png,O,m,982,10,1,1991.3999999761581,657967.2999999523,7211,VNB,C,8
7,test,4,0.0,2-Back,1,m,Mon Aug 18 2025 13:59:42 GMT-0500 (Central Daylight Time),662191.1999999285,022_y_f_d_a.png,O,m,1207,11,1,2224.0999999046326,659967.1000000238,7211,VNB,C,9
8,test,4,0.0,2-Back,1,m,Mon Aug 18 2025 13:59:42 GMT-0500 (Central Daylight Time),664209.1999999285,025_y_m_n_a.png,O,m,988,12,1,2008.5,662200.6999999285,7211,VNB,C,10
8,test,4,0.0,2-Back,0,z,Mon Aug 18 2025 13:59:42 GMT-0500 (Central Daylight Time),666589.7999999523,015_o_m_d_a.png,O,m,1364,13,1,2375.6999999284744,664214.1000000238,7211,VNB,C,11
9,test,4,1.0,2-Back,1,m,Mon Aug 18 2025 13:59:42 GMT-0500 (Central Daylight Time),668722.0,019_m_f_h_a.png,O,m,1101,14,1,2123.0,666599.0,7211,VNB,C,12
10,test,4,1.0,2-Back,1,m,Mon Aug 18 2025 13:59:42 GMT-0500 (Central Daylight Time),670687.8999999762,022_y_f_h_a.png,O,m,937,15,1,1957.5,668730.3999999762,7211,VNB,C,13
10,test,4,0.0,2-Back,0,m,Mon Aug 18 2025 13:59:42 GMT-0500 (Central Daylight Time),672470.1999999285,012_o_f_n_a.png,O,z,752,16,1,1771.5999999046326,670698.6000000238,7211,VNB,C,14
11,test,4,0.0,2-Back,1,m,Mon Aug 18 2025 13:59:42 GMT-0500 (Central Daylight Time),674136.7999999523,025_y_m_d_a.png,O,m,636,17,1,1654.2999999523163,672482.5,7211,VNB,C,15
12,test,4,1.0,2-Back,1,m,Mon Aug 18 2025 13:59:42 GMT-0500 (Central Daylight Time),675852.6999999285,014_m_m_d_a.png,O,m,699,18,1,1707.7999999523163,674144.8999999762,7211,VNB,C,16
0,test,5,1.0,2-Back,,,Mon Aug 18 2025 13:59:42 GMT-0500 (Central Daylight Time),675852.6999999285,022_y_f_d_a.png,O,space,1221,1,1,1707.7999999523163,674144.8999999762,7211,VNB,C,0
0,test,5,1.0,2-Back,,,Mon Aug 18 2025 13:59:42 GMT-0500 (Central Daylight Time),675852.6999999285,012_o_f_h_a.png,O,space,1221,2,1,1707.7999999523163,674144.8999999762,7211,VNB,C,0
1,test,5,1.0,2-Back,1,z,Mon Aug 18 2025 13:59:42 GMT-0500 (Central Daylight Time),683933.6999999285,015_o_m_d_a.png,O,z,615,3,1,1630.5999999046326,682303.1000000238,7211,VNB,C,1
2,test,5,1.0,2-Back,1,m,Mon Aug 18 2025 13:59:42 GMT-0500 (Central Daylight Time),685966.1000000238,019_m_f_n_a.png,O,m,1006,4,1,2021.5,683944.6000000238,7211,VNB,C,2
3,test,5,0.0,2-Back,1,m,Mon Aug 18 2025 13:59:42 GMT-0500 (Central Daylight Time),687882.5,014_m_m_h_a.png,O,m,892,5,1,1907.0,685975.5,7211,VNB,C,3
4,test,5,0.0,2-Back,1,z,Mon Aug 18 2025 13:59:42 GMT-0500 (Central Daylight Time),689498.3999999762,022_y_f_n_a.png,O,z,584,6,1,1608.2000000476837,687890.1999999285,7211,VNB,C,4
5,test,5,0.0,2-Back,1,m,Mon Aug 18 2025 13:59:42 GMT-0500 (Central Daylight Time),691398.6999999285,012_o_f_d_a.png,O,m,872,7,1,1891.5,689507.1999999285,7211,VNB,C,5
6,test,5,0.0,2-Back,1,m,Mon Aug 18 2025 13:59:42 GMT-0500 (Central Daylight Time),693382.8999999762,015_o_m_h_a.png,O,m,958,8,1,1974.7000000476837,691408.1999999285,7211,VNB,C,6
6,test,5,1.0,2-Back,0,z,Mon Aug 18 2025 13:59:42 GMT-0500 (Central Daylight Time),695513.6999999285,019_m_f_d_a.png,O,m,1102,9,1,2121.2999999523163,693392.3999999762,7211,VNB,C,7
6,test,5,0.0,2-Back,0,m,Mon Aug 18 2025 13:59:42 GMT-0500 (Central Daylight Time),697114.0,025_y_m_n_a.png,O,z,570,10,1,1592.3999999761581,695521.6000000238,7211,VNB,C,8
7,test,5,0.0,2-Back,1,m,Mon Aug 18 2025 13:59:42 GMT-0500 (Central Daylight Time),698812.0,014_m_m_n_a.png,O,m,668,11,1,1686.6000000238419,697125.3999999762,7211,VNB,C,9
8,test,5,0.0,2-Back,1,m,Mon Aug 18 2025 13:59:42 GMT-0500 (Central Daylight Time),700596.6999999285,022_y_f_h_a.png,O,m,751,12,1,1776.0999999046326,698820.6000000238,7211,VNB,C,10
9,test,5,0.0,2-Back,1,m,Mon Aug 18 2025 13:59:42 GMT-0500 (Central Daylight Time),702311.6999999285,025_y_m_d_a.png,O,m,695,13,1,1705.8999999761581,700605.7999999523,7211,VNB,C,11
9,test,5,1.0,2-Back,0,z,Mon Aug 18 2025 13:59:42 GMT-0500 (Central Daylight Time),704027.1999999285,019_m_f_h_a.png,O,m,690,14,1,1707.5,702319.6999999285,7211,VNB,C,12
10,test,5,0.0,2-Back,1,m,Mon Aug 18 2025 13:59:42 GMT-0500 (Central Daylight Time),705878.6999999285,015_o_m_n_a.png,O,m,818,15,1,1842.6999999284744,704036.0,7211,VNB,C,13
11,test,5,0.0,2-Back,1,m,Mon Aug 18 2025 13:59:42 GMT-0500 (Central Daylight Time),707843.3999999762,014_m_m_d_a.png,O,m,935,16,1,1955.7999999523163,705887.6000000238,7211,VNB,C,14
12,test,5,0.0,2-Back,1,z,Mon Aug 18 2025 13:59:42 GMT-0500 (Central Daylight Time),709526.3999999762,012_o_f_n_a.png,O,z,651,17,1,1676.5,707849.8999999762,7211,VNB,C,15
13,test,5,1.0,2-Back,1,m,Mon Aug 18 2025 13:59:42 GMT-0500 (Central Daylight Time),711342.8999999762,025_y_m_h_a.png,O,m,786,18,1,1805.2000000476837,709537.6999999285,7211,VNB,C,16
