acc_sum,block,block_c,change,condition,correct,correct_response,datetime,endtime,face,project,response,response_time,row_sel,session_number,start_end,starttime,subject_id,task,task_vers,trial
0,prac,1,,1-Back,,,Thu May 29 2025 17:22:18 GMT-0400 (Eastern Daylight Time),,124_o_f_d_a.png,I,space,15221,1,1,,,9018,VNB,A,0
1,prac,1,0.0,1-Back,1,m,Thu May 29 2025 17:22:18 GMT-0400 (Eastern Daylight Time),129510.70000004768,071_y_f_n_a.png,I,m,1277,2,1,2097.5,127413.20000004768,9018,VNB,A,1
2,prac,1,0.0,1-Back,1,m,Thu May 29 2025 17:22:18 GMT-0400 (Eastern Daylight Time),131460.90000009537,165_m_m_h_a.png,I,m,1125,3,1,1936.0,129524.90000009537,9018,VNB,A,2
3,prac,1,0.0,1-Back,1,m,Thu May 29 2025 17:22:18 GMT-0400 (Eastern Daylight Time),133593.70000004768,109_y_m_d_a.png,I,m,1292,4,1,2117.7999999523163,131475.90000009537,9018,VNB,A,3
4,prac,1,0.0,1-Back,1,m,Thu May 29 2025 17:22:18 GMT-0400 (Eastern Daylight Time),135710.60000002384,124_o_f_n_a.png,I,m,1243,5,1,2098.0,133612.60000002384,9018,VNB,A,4
5,prac,1,1.0,1-Back,1,z,Thu May 29 2025 17:22:18 GMT-0400 (Eastern Daylight Time),137493.90000009537,109_y_m_n_a.png,I,z,942,6,1,1768.4000000953674,135725.5,9018,VNB,A,5
6,prac,1,0.0,1-Back,1,m,Thu May 29 2025 17:22:18 GMT-0400 (Eastern Daylight Time),139577.30000007153,039_o_m_h_a.png,I,m,1246,7,1,2066.2000000476837,137511.10000002384,9018,VNB,A,6
7,prac,1,0.0,1-Back,1,m,Thu May 29 2025 17:22:18 GMT-0400 (Eastern Daylight Time),141577.30000007153,139_m_f_d_a.png,I,m,1170,8,1,1983.8000000715256,139593.5,9018,VNB,A,7
8,prac,1,1.0,1-Back,1,z,Thu May 29 2025 17:22:18 GMT-0400 (Eastern Daylight Time),143410.60000002384,071_y_f_d_a.png,I,z,998,9,1,1819.0,141591.60000002384,9018,VNB,A,8
9,prac,1,0.0,1-Back,1,m,Thu May 29 2025 17:22:18 GMT-0400 (Eastern Daylight Time),145277.5,165_m_m_n_a.png,I,m,1041,10,1,1851.2999999523163,143426.20000004768,9018,VNB,A,9
10,prac,1,0.0,1-Back,1,m,Thu May 29 2025 17:22:18 GMT-0400 (Eastern Daylight Time),147260.60000002384,124_o_f_h_a.png,I,m,1119,11,1,1969.1999999284744,145291.40000009537,9018,VNB,A,10
11,prac,1,0.0,1-Back,1,m,Thu May 29 2025 17:22:18 GMT-0400 (Eastern Daylight Time),149060.10000002384,109_y_m_d_a.png,I,m,1016,12,1,1782.7999999523163,147277.30000007153,9018,VNB,A,11
0,test,1,0.0,1-Back,,,Thu May 29 2025 17:22:18 GMT-0400 (Eastern Daylight Time),149060.10000002384,071_y_f_d_a.png,I,space,13899,1,1,1782.7999999523163,147277.30000007153,9018,VNB,A,0
1,test,1,0.0,1-Back,1,m,Thu May 29 2025 17:22:18 GMT-0400 (Eastern Daylight Time),173910.60000002384,139_m_f_n_a.png,I,m,1174,2,1,2186.600000023842,171724.0,9018,VNB,A,1
2,test,1,0.0,1-Back,1,m,Thu May 29 2025 17:22:18 GMT-0400 (Eastern Daylight Time),175894.30000007153,039_o_m_h_a.png,I,m,966,3,1,1970.2000000476837,173924.10000002384,9018,VNB,A,2
3,test,1,1.0,1-Back,1,z,Thu May 29 2025 17:22:18 GMT-0400 (Eastern Daylight Time),177876.5,165_m_m_h_a.png,I,z,957,4,1,1969.6999999284744,175906.80000007153,9018,VNB,A,3
4,test,1,0.0,1-Back,1,m,Thu May 29 2025 17:22:18 GMT-0400 (Eastern Daylight Time),179777.0,124_o_f_n_a.png,I,m,879,5,1,1891.2999999523163,177885.70000004768,9018,VNB,A,4
5,test,1,0.0,1-Back,1,m,Thu May 29 2025 17:22:18 GMT-0400 (Eastern Daylight Time),181793.70000004768,109_y_m_d_a.png,I,m,994,6,1,2003.0,179790.70000004768,9018,VNB,A,5
6,test,1,1.0,1-Back,1,z,Thu May 29 2025 17:22:18 GMT-0400 (Eastern Daylight Time),183743.80000007153,139_m_f_d_a.png,I,z,922,7,1,1936.8000000715256,181807.0,9018,VNB,A,6
7,test,1,0.0,1-Back,1,m,Thu May 29 2025 17:22:18 GMT-0400 (Eastern Daylight Time),185643.70000004768,071_y_f_h_a.png,I,m,876,8,1,1887.2999999523163,183756.40000009537,9018,VNB,A,7
8,test,1,0.0,1-Back,1,m,Thu May 29 2025 17:22:18 GMT-0400 (Eastern Daylight Time),187593.70000004768,039_o_m_n_a.png,I,m,929,9,1,1936.0,185657.70000004768,9018,VNB,A,8
9,test,1,0.0,1-Back,1,m,Thu May 29 2025 17:22:18 GMT-0400 (Eastern Daylight Time),189927.10000002384,109_y_m_h_a.png,I,m,1290,10,1,2316.5,187610.60000002384,9018,VNB,A,9
10,test,1,0.0,1-Back,1,m,Thu May 29 2025 17:22:18 GMT-0400 (Eastern Daylight Time),191954.0,039_o_m_d_a.png,I,m,1009,11,1,2011.6999999284744,189942.30000007153,9018,VNB,A,10
11,test,1,1.0,1-Back,1,z,Thu May 29 2025 17:22:18 GMT-0400 (Eastern Daylight Time),193877.10000002384,124_o_f_d_a.png,I,z,892,12,1,1911.1000000238419,191966.0,9018,VNB,A,11
12,test,1,0.0,1-Back,1,m,Thu May 29 2025 17:22:18 GMT-0400 (Eastern Daylight Time),195943.5,165_m_m_n_a.png,I,m,1047,13,1,2053.1999999284744,193890.30000007153,9018,VNB,A,12
13,test,1,1.0,1-Back,1,z,Thu May 29 2025 17:22:18 GMT-0400 (Eastern Daylight Time),197943.90000009537,071_y_f_n_a.png,I,z,972,14,1,1987.2000000476837,195956.70000004768,9018,VNB,A,13
14,test,1,0.0,1-Back,1,m,Thu May 29 2025 17:22:18 GMT-0400 (Eastern Daylight Time),199677.10000002384,139_m_f_h_a.png,I,m,682,15,1,1718.6000000238419,197958.5,9018,VNB,A,14
15,test,1,0.0,1-Back,1,m,Thu May 29 2025 17:22:18 GMT-0400 (Eastern Daylight Time),201510.40000009537,165_m_m_d_a.png,I,m,799,16,1,1820.8000000715256,199689.60000002384,9018,VNB,A,15
16,test,1,0.0,1-Back,1,m,Thu May 29 2025 17:22:18 GMT-0400 (Eastern Daylight Time),203510.90000009537,109_y_m_n_a.png,I,m,982,17,1,1988.8000000715256,201522.10000002384,9018,VNB,A,16
17,test,1,0.0,1-Back,1,m,Thu May 29 2025 17:22:18 GMT-0400 (Eastern Daylight Time),205326.80000007153,124_o_f_h_a.png,I,m,798,18,1,1801.3000000715256,203525.5,9018,VNB,A,17
0,test,2,0.0,1-Back,,,Thu May 29 2025 17:22:18 GMT-0400 (Eastern Daylight Time),205326.80000007153,109_y_m_n_a.png,I,space,2157,1,1,1801.3000000715256,203525.5,9018,VNB,A,0
1,test,2,0.0,1-Back,1,m,Thu May 29 2025 17:22:18 GMT-0400 (Eastern Daylight Time),211427.20000004768,071_y_f_h_a.png,I,m,894,2,1,1906.2000000476837,209521.0,9018,VNB,A,1
2,test,2,1.0,1-Back,1,m,Thu May 29 2025 17:22:18 GMT-0400 (Eastern Daylight Time),214110.80000007153,039_o_m_n_a.png,I,m,1665,3,1,2668.2000000476837,211442.60000002384,9018,VNB,A,2
3,test,2,0.0,1-Back,1,m,Thu May 29 2025 17:22:18 GMT-0400 (Eastern Daylight Time),216377.20000004768,139_m_f_d_a.png,I,m,1221,4,1,2250.899999976158,214126.30000007153,9018,VNB,A,3
4,test,2,0.0,1-Back,1,z,Thu May 29 2025 17:22:18 GMT-0400 (Eastern Daylight Time),218227.30000007153,165_m_m_d_a.png,I,z,819,5,1,1836.2000000476837,216391.10000002384,9018,VNB,A,4
5,test,2,0.0,1-Back,1,m,Thu May 29 2025 17:22:18 GMT-0400 (Eastern Daylight Time),219977.10000002384,109_y_m_h_a.png,I,m,729,6,1,1736.6000000238419,218240.5,9018,VNB,A,5
5,test,2,1.0,1-Back,0,z,Thu May 29 2025 17:22:18 GMT-0400 (Eastern Daylight Time),221910.60000002384,124_o_f_h_a.png,I,m,915,7,1,1919.1000000238419,219991.5,9018,VNB,A,6
6,test,2,0.0,1-Back,1,m,Thu May 29 2025 17:22:18 GMT-0400 (Eastern Daylight Time),223893.60000002384,139_m_f_n_a.png,I,m,965,8,1,1969.0,221924.60000002384,9018,VNB,A,7
7,test,2,0.0,1-Back,1,m,Thu May 29 2025 17:22:18 GMT-0400 (Eastern Daylight Time),225926.80000007153,071_y_f_d_a.png,I,m,1014,9,1,2022.5,223904.30000007153,9018,VNB,A,8
8,test,2,0.0,1-Back,1,m,Thu May 29 2025 17:22:18 GMT-0400 (Eastern Daylight Time),228110.60000002384,165_m_m_n_a.png,I,m,1165,10,1,2170.899999976158,225939.70000004768,9018,VNB,A,9
9,test,2,1.0,1-Back,1,m,Thu May 29 2025 17:22:18 GMT-0400 (Eastern Daylight Time),229960.30000007153,139_m_f_h_a.png,I,m,821,11,1,1837.3999999761581,228122.90000009537,9018,VNB,A,10
10,test,2,0.0,1-Back,1,z,Thu May 29 2025 17:22:18 GMT-0400 (Eastern Daylight Time),232260.60000002384,039_o_m_h_a.png,I,z,1268,12,1,2288.6999999284744,229971.90000009537,9018,VNB,A,11
11,test,2,0.0,1-Back,1,m,Thu May 29 2025 17:22:18 GMT-0400 (Eastern Daylight Time),234310.60000002384,109_y_m_d_a.png,I,m,1024,13,1,2036.7999999523163,232273.80000007153,9018,VNB,A,12
12,test,2,0.0,1-Back,1,m,Thu May 29 2025 17:22:18 GMT-0400 (Eastern Daylight Time),236493.5,124_o_f_n_a.png,I,m,1150,14,1,2170.399999976158,234323.10000002384,9018,VNB,A,13
13,test,2,0.0,1-Back,1,z,Thu May 29 2025 17:22:18 GMT-0400 (Eastern Daylight Time),238343.70000004768,071_y_f_n_a.png,I,z,822,15,1,1839.7000000476837,236504.0,9018,VNB,A,14
14,test,2,1.0,1-Back,1,m,Thu May 29 2025 17:22:18 GMT-0400 (Eastern Daylight Time),240210.60000002384,165_m_m_h_a.png,I,m,844,16,1,1853.1000000238419,238357.5,9018,VNB,A,15
15,test,2,0.0,1-Back,1,m,Thu May 29 2025 17:22:18 GMT-0400 (Eastern Daylight Time),242310.60000002384,124_o_f_d_a.png,I,m,1073,17,1,2085.7999999523163,240224.80000007153,9018,VNB,A,16
16,test,2,1.0,1-Back,1,z,Thu May 29 2025 17:22:18 GMT-0400 (Eastern Daylight Time),244143.70000004768,039_o_m_d_a.png,I,z,814,18,1,1820.2000000476837,242323.5,9018,VNB,A,17
0,test,3,1.0,1-Back,,,Thu May 29 2025 17:22:18 GMT-0400 (Eastern Daylight Time),244143.70000004768,124_o_f_h_a.png,I,space,1805,1,1,1820.2000000476837,242323.5,9018,VNB,A,0
1,test,3,0.0,1-Back,1,m,Thu May 29 2025 17:22:18 GMT-0400 (Eastern Daylight Time),249960.20000004768,139_m_f_d_a.png,I,m,871,2,1,1886.1000000238419,248074.10000002384,9018,VNB,A,1
2,test,3,1.0,1-Back,1,m,Thu May 29 2025 17:22:18 GMT-0400 (Eastern Daylight Time),251860.40000009537,165_m_m_n_a.png,I,m,875,3,1,1890.4000000953674,249970.0,9018,VNB,A,2
3,test,3,0.0,1-Back,1,z,Thu May 29 2025 17:22:18 GMT-0400 (Eastern Daylight Time),253760.20000004768,124_o_f_n_a.png,I,z,880,4,1,1886.2000000476837,251874.0,9018,VNB,A,3
4,test,3,1.0,1-Back,1,m,Thu May 29 2025 17:22:18 GMT-0400 (Eastern Daylight Time),255493.90000009537,039_o_m_d_a.png,I,m,707,5,1,1720.9000000953674,253773.0,9018,VNB,A,4
5,test,3,0.0,1-Back,1,m,Thu May 29 2025 17:22:18 GMT-0400 (Eastern Daylight Time),257710.5,071_y_f_h_a.png,I,m,1190,6,1,2204.0999999046326,255506.40000009537,9018,VNB,A,5
5,test,3,0.0,1-Back,0,z,Thu May 29 2025 17:22:18 GMT-0400 (Eastern Daylight Time),259427.30000007153,109_y_m_h_a.png,I,m,693,7,1,1703.8999999761581,257723.40000009537,9018,VNB,A,6
6,test,3,0.0,1-Back,1,m,Thu May 29 2025 17:22:18 GMT-0400 (Eastern Daylight Time),261643.90000009537,139_m_f_n_a.png,I,m,1185,8,1,2202.0,259441.90000009537,9018,VNB,A,7
7,test,3,0.0,1-Back,1,m,Thu May 29 2025 17:22:18 GMT-0400 (Eastern Daylight Time),263927.0,071_y_f_d_a.png,I,m,1264,9,1,2269.6999999284744,261657.30000007153,9018,VNB,A,8
7,test,3,1.0,1-Back,0,m,Thu May 29 2025 17:22:18 GMT-0400 (Eastern Daylight Time),266177.2000000477,039_o_m_n_a.png,I,z,1221,10,1,2237.0,263940.2000000477,9018,VNB,A,9
8,test,3,0.0,1-Back,1,m,Thu May 29 2025 17:22:18 GMT-0400 (Eastern Daylight Time),268393.90000009537,165_m_m_h_a.png,I,m,1186,11,1,2201.8000000715256,266192.10000002384,9018,VNB,A,10
9,test,3,0.0,1-Back,1,z,Thu May 29 2025 17:22:18 GMT-0400 (Eastern Daylight Time),270427.2000000477,139_m_f_h_a.png,I,z,1001,12,1,2020.0,268407.2000000477,9018,VNB,A,11
10,test,3,1.0,1-Back,1,m,Thu May 29 2025 17:22:18 GMT-0400 (Eastern Daylight Time),272260.7000000477,124_o_f_d_a.png,I,m,809,13,1,1820.7000000476837,270440.0,9018,VNB,A,12
11,test,3,0.0,1-Back,1,z,Thu May 29 2025 17:22:18 GMT-0400 (Eastern Daylight Time),274126.90000009537,165_m_m_d_a.png,I,z,848,14,1,1852.9000000953674,272274.0,9018,VNB,A,13
12,test,3,0.0,1-Back,1,m,Thu May 29 2025 17:22:18 GMT-0400 (Eastern Daylight Time),276127.2000000477,109_y_m_n_a.png,I,m,973,15,1,1986.0,274141.2000000477,9018,VNB,A,14
13,test,3,1.0,1-Back,1,m,Thu May 29 2025 17:22:18 GMT-0400 (Eastern Daylight Time),278110.7000000477,039_o_m_h_a.png,I,m,957,16,1,1972.5,276138.2000000477,9018,VNB,A,15
14,test,3,0.0,1-Back,1,m,Thu May 29 2025 17:22:18 GMT-0400 (Eastern Daylight Time),280160.40000009537,109_y_m_d_a.png,I,m,1029,17,1,2037.0,278123.40000009537,9018,VNB,A,16
14,test,3,1.0,1-Back,0,m,Thu May 29 2025 17:22:18 GMT-0400 (Eastern Daylight Time),282027.2000000477,071_y_f_n_a.png,I,z,843,18,1,1853.3999999761581,280173.8000000715,9018,VNB,A,17
0,test,4,1.0,1-Back,,,Thu May 29 2025 17:22:18 GMT-0400 (Eastern Daylight Time),282027.2000000477,165_m_m_d_a.png,I,space,1480,1,1,1853.3999999761581,280173.8000000715,9018,VNB,A,0
1,test,4,0.0,1-Back,1,z,Thu May 29 2025 17:22:18 GMT-0400 (Eastern Daylight Time),287444.10000002384,039_o_m_d_a.png,I,z,894,2,1,1906.6999999284744,285537.40000009537,9018,VNB,A,1
2,test,4,0.0,1-Back,1,m,Thu May 29 2025 17:22:18 GMT-0400 (Eastern Daylight Time),289193.7000000477,109_y_m_h_a.png,I,m,727,3,1,1735.3999999761581,287458.3000000715,9018,VNB,A,2
2,test,4,0.0,1-Back,0,m,Thu May 29 2025 17:22:18 GMT-0400 (Eastern Daylight Time),291077.2000000477,139_m_f_n_a.png,I,z,850,4,1,1872.6000000238419,289204.60000002384,9018,VNB,A,3
3,test,4,1.0,1-Back,1,m,Thu May 29 2025 17:22:18 GMT-0400 (Eastern Daylight Time),293077.3000000715,124_o_f_h_a.png,I,m,974,5,1,1986.7000000476837,291090.60000002384,9018,VNB,A,4
4,test,4,0.0,1-Back,1,m,Thu May 29 2025 17:22:18 GMT-0400 (Eastern Daylight Time),295311.2000000477,165_m_m_n_a.png,I,m,1215,6,1,2220.7999999523163,293090.40000009537,9018,VNB,A,5
5,test,4,0.0,1-Back,1,m,Thu May 29 2025 17:22:18 GMT-0400 (Eastern Daylight Time),297210.5,109_y_m_d_a.png,I,m,870,7,1,1886.8999999761581,295323.60000002384,9018,VNB,A,6
6,test,4,1.0,1-Back,1,z,Thu May 29 2025 17:22:18 GMT-0400 (Eastern Daylight Time),299177.3000000715,071_y_f_d_a.png,I,z,945,8,1,1953.1000000238419,297224.2000000477,9018,VNB,A,7
7,test,4,0.0,1-Back,1,m,Thu May 29 2025 17:22:18 GMT-0400 (Eastern Daylight Time),301043.8000000715,139_m_f_h_a.png,I,m,843,9,1,1852.1000000238419,299191.7000000477,9018,VNB,A,8
8,test,4,0.0,1-Back,1,z,Thu May 29 2025 17:22:18 GMT-0400 (Eastern Daylight Time),303043.90000009537,039_o_m_h_a.png,I,z,968,10,1,1987.0,301056.90000009537,9018,VNB,A,9
9,test,4,1.0,1-Back,1,m,Thu May 29 2025 17:22:18 GMT-0400 (Eastern Daylight Time),305094.60000002384,124_o_f_n_a.png,I,m,1032,11,1,2037.5,303057.10000002384,9018,VNB,A,10
10,test,4,0.0,1-Back,1,m,Thu May 29 2025 17:22:18 GMT-0400 (Eastern Daylight Time),307194.0,139_m_f_d_a.png,I,m,1078,12,1,2086.1999999284744,305107.8000000715,9018,VNB,A,11
10,test,4,0.0,1-Back,0,m,Thu May 29 2025 17:22:18 GMT-0400 (Eastern Daylight Time),309477.40000009537,071_y_f_n_a.png,I,z,1250,13,1,2270.8000000715256,307206.60000002384,9018,VNB,A,12
11,test,4,0.0,1-Back,1,m,Thu May 29 2025 17:22:18 GMT-0400 (Eastern Daylight Time),311443.90000009537,124_o_f_d_a.png,I,m,935,14,1,1953.0,309490.90000009537,9018,VNB,A,13
12,test,4,0.0,1-Back,1,m,Thu May 29 2025 17:22:18 GMT-0400 (Eastern Daylight Time),313528.0,071_y_f_h_a.png,I,m,1064,15,1,2070.5999999046326,311457.40000009537,9018,VNB,A,14
13,test,4,1.0,1-Back,1,z,Thu May 29 2025 17:22:18 GMT-0400 (Eastern Daylight Time),315560.8000000715,165_m_m_h_a.png,I,z,1005,16,1,2019.8999999761581,313540.90000009537,9018,VNB,A,15
14,test,4,0.0,1-Back,1,m,Thu May 29 2025 17:22:18 GMT-0400 (Eastern Daylight Time),317327.2000000477,039_o_m_n_a.png,I,m,740,17,1,1752.2999999523163,315574.90000009537,9018,VNB,A,16
15,test,4,1.0,1-Back,1,z,Thu May 29 2025 17:22:18 GMT-0400 (Eastern Daylight Time),319277.3000000715,109_y_m_n_a.png,I,z,917,18,1,1937.6000000238419,317339.7000000477,9018,VNB,A,17
0,test,5,1.0,1-Back,,,Thu May 29 2025 17:22:18 GMT-0400 (Eastern Daylight Time),319277.3000000715,039_o_m_n_a.png,I,space,1638,1,1,1937.6000000238419,317339.7000000477,9018,VNB,A,0
1,test,5,1.0,1-Back,1,m,Thu May 29 2025 17:22:18 GMT-0400 (Eastern Daylight Time),324760.40000009537,124_o_f_h_a.png,I,m,797,2,1,1803.8000000715256,322956.60000002384,9018,VNB,A,1
2,test,5,0.0,1-Back,1,m,Thu May 29 2025 17:22:18 GMT-0400 (Eastern Daylight Time),326844.10000002384,109_y_m_d_a.png,I,m,1060,3,1,2069.0,324775.10000002384,9018,VNB,A,2
3,test,5,0.0,1-Back,1,z,Thu May 29 2025 17:22:18 GMT-0400 (Eastern Daylight Time),328710.7000000477,039_o_m_d_a.png,I,z,833,4,1,1853.7000000476837,326857.0,9018,VNB,A,3
4,test,5,0.0,1-Back,1,m,Thu May 29 2025 17:22:18 GMT-0400 (Eastern Daylight Time),330510.60000002384,139_m_f_h_a.png,I,m,773,5,1,1786.6999999284744,328723.90000009537,9018,VNB,A,4
5,test,5,0.0,1-Back,1,m,Thu May 29 2025 17:22:18 GMT-0400 (Eastern Daylight Time),332677.40000009537,071_y_f_n_a.png,I,m,1133,6,1,2153.8000000715256,330523.60000002384,9018,VNB,A,5
6,test,5,1.0,1-Back,1,z,Thu May 29 2025 17:22:18 GMT-0400 (Eastern Daylight Time),334510.90000009537,124_o_f_n_a.png,I,z,815,7,1,1819.5,332691.40000009537,9018,VNB,A,6
7,test,5,0.0,1-Back,1,m,Thu May 29 2025 17:22:18 GMT-0400 (Eastern Daylight Time),336327.5,139_m_f_d_a.png,I,m,790,8,1,1804.2999999523163,334523.2000000477,9018,VNB,A,7
8,test,5,0.0,1-Back,1,m,Thu May 29 2025 17:22:18 GMT-0400 (Eastern Daylight Time),338177.2000000477,109_y_m_h_a.png,I,m,829,9,1,1836.2000000476837,336341.0,9018,VNB,A,8
9,test,5,0.0,1-Back,1,m,Thu May 29 2025 17:22:18 GMT-0400 (Eastern Daylight Time),340377.3000000715,071_y_f_d_a.png,I,m,1171,10,1,2186.5,338190.8000000715,9018,VNB,A,9
10,test,5,0.0,1-Back,1,m,Thu May 29 2025 17:22:18 GMT-0400 (Eastern Daylight Time),342294.8000000715,165_m_m_n_a.png,I,m,899,11,1,1904.7000000476837,340390.10000002384,9018,VNB,A,10
11,test,5,1.0,1-Back,1,z,Thu May 29 2025 17:22:18 GMT-0400 (Eastern Daylight Time),344128.0,139_m_f_n_a.png,I,z,806,12,1,1819.2999999523163,342308.7000000477,9018,VNB,A,11
12,test,5,0.0,1-Back,1,m,Thu May 29 2025 17:22:18 GMT-0400 (Eastern Daylight Time),345827.40000009537,039_o_m_h_a.png,I,m,670,13,1,1689.7000000476837,344137.7000000477,9018,VNB,A,12
12,test,5,0.0,1-Back,0,z,Thu May 29 2025 17:22:18 GMT-0400 (Eastern Daylight Time),347527.0,165_m_m_h_a.png,I,m,681,14,1,1687.1999999284744,345839.8000000715,9018,VNB,A,13
13,test,5,1.0,1-Back,1,m,Thu May 29 2025 17:22:18 GMT-0400 (Eastern Daylight Time),349660.7000000477,124_o_f_d_a.png,I,m,1101,15,1,2121.600000023842,347539.10000002384,9018,VNB,A,14
14,test,5,0.0,1-Back,1,m,Thu May 29 2025 17:22:18 GMT-0400 (Eastern Daylight Time),351543.90000009537,109_y_m_n_a.png,I,m,863,16,1,1870.2000000476837,349673.7000000477,9018,VNB,A,15
15,test,5,0.0,1-Back,1,m,Thu May 29 2025 17:22:18 GMT-0400 (Eastern Daylight Time),353360.7000000477,071_y_f_h_a.png,I,m,788,17,1,1803.8999999761581,351556.8000000715,9018,VNB,A,16
16,test,5,0.0,1-Back,1,m,Thu May 29 2025 17:22:18 GMT-0400 (Eastern Daylight Time),355327.40000009537,165_m_m_d_a.png,I,m,938,18,1,1953.1000000238419,353374.3000000715,9018,VNB,A,17
0,prac,1,0.0,2-Back,,,Thu May 29 2025 17:22:18 GMT-0400 (Eastern Daylight Time),355327.40000009537,139_m_f_n_a.png,I,space,14001,1,1,1953.1000000238419,353374.3000000715,9018,VNB,A,0
0,prac,1,0.0,2-Back,,,Thu May 29 2025 17:22:18 GMT-0400 (Eastern Daylight Time),355327.40000009537,124_o_f_h_a.png,I,space,14001,2,1,1953.1000000238419,353374.3000000715,9018,VNB,A,0
1,prac,1,0.0,2-Back,1,m,Thu May 29 2025 17:22:18 GMT-0400 (Eastern Daylight Time),497944.5,039_o_m_d_a.png,I,m,932,3,1,1752.2999999523163,496192.2000000477,9018,VNB,A,1
1,prac,1,1.0,2-Back,0,z,Thu May 29 2025 17:22:18 GMT-0400 (Eastern Daylight Time),500777.60000002384,165_m_m_h_a.png,I,None,2009,4,1,2818.6999999284744,497958.90000009537,9018,VNB,A,2
1,prac,1,0.0,2-Back,0,m,Thu May 29 2025 17:22:18 GMT-0400 (Eastern Daylight Time),503610.8000000715,071_y_f_n_a.png,I,None,2007,5,1,2817.100000023842,500793.7000000477,9018,VNB,A,3
2,prac,1,1.0,2-Back,1,z,Thu May 29 2025 17:22:18 GMT-0400 (Eastern Daylight Time),505893.90000009537,039_o_m_h_a.png,I,z,1497,6,1,2264.4000000953674,503629.5,9018,VNB,A,4
2,prac,1,1.0,2-Back,0,z,Thu May 29 2025 17:22:18 GMT-0400 (Eastern Daylight Time),507677.5,109_y_m_n_a.png,I,m,944,7,1,1771.0999999046326,505906.40000009537,9018,VNB,A,5
3,prac,1,0.0,2-Back,1,m,Thu May 29 2025 17:22:18 GMT-0400 (Eastern Daylight Time),509327.60000002384,139_m_f_d_a.png,I,m,824,8,1,1635.5,507692.10000002384,9018,VNB,A,6
3,prac,1,0.0,2-Back,0,m,Thu May 29 2025 17:22:18 GMT-0400 (Eastern Daylight Time),511560.8000000715,124_o_f_d_a.png,I,z,1337,9,1,2216.600000023842,509344.2000000477,9018,VNB,A,7
4,prac,1,0.0,2-Back,1,m,Thu May 29 2025 17:22:18 GMT-0400 (Eastern Daylight Time),513461.10000002384,165_m_m_h_a.png,I,m,1110,10,1,1885.1000000238419,511576.0,9018,VNB,A,8
4,prac,1,1.0,2-Back,0,z,Thu May 29 2025 17:22:18 GMT-0400 (Eastern Daylight Time),515460.90000009537,071_y_f_d_a.png,I,m,1166,11,1,1981.5,513479.40000009537,9018,VNB,A,9
5,prac,1,0.0,2-Back,1,m,Thu May 29 2025 17:22:18 GMT-0400 (Eastern Daylight Time),517227.7000000477,039_o_m_n_a.png,I,m,928,12,1,1751.2000000476837,515476.5,9018,VNB,A,10
0,prac,2,0.0,2-Back,,,Thu May 29 2025 17:22:18 GMT-0400 (Eastern Daylight Time),517227.7000000477,139_m_f_n_a.png,I,a,11169,1,1,1751.2000000476837,515476.5,9018,VNB,A,0
0,prac,2,0.0,2-Back,,,Thu May 29 2025 17:22:18 GMT-0400 (Eastern Daylight Time),517227.7000000477,124_o_f_h_a.png,I,a,11169,2,1,1751.2000000476837,515476.5,9018,VNB,A,0
1,prac,2,0.0,2-Back,1,m,Thu May 29 2025 17:22:18 GMT-0400 (Eastern Daylight Time),535677.6000000238,039_o_m_d_a.png,I,m,1279,3,1,2086.1999999284744,533591.4000000954,9018,VNB,A,1
2,prac,2,1.0,2-Back,1,z,Thu May 29 2025 17:22:18 GMT-0400 (Eastern Daylight Time),537561.0,165_m_m_h_a.png,I,z,1095,4,1,1866.2999999523163,535694.7000000477,9018,VNB,A,2
2,prac,2,0.0,2-Back,0,m,Thu May 29 2025 17:22:18 GMT-0400 (Eastern Daylight Time),540411.1000000238,071_y_f_n_a.png,I,None,2017,5,1,2828.1999999284744,537582.9000000954,9018,VNB,A,3
3,prac,2,1.0,2-Back,1,z,Thu May 29 2025 17:22:18 GMT-0400 (Eastern Daylight Time),542611.0,039_o_m_h_a.png,I,z,1369,6,1,2182.5999999046326,540428.4000000954,9018,VNB,A,4
4,prac,2,1.0,2-Back,1,z,Thu May 29 2025 17:22:18 GMT-0400 (Eastern Daylight Time),544811.1000000238,109_y_m_n_a.png,I,z,1351,7,1,2185.2999999523163,542625.8000000715,9018,VNB,A,5
5,prac,2,0.0,2-Back,1,m,Thu May 29 2025 17:22:18 GMT-0400 (Eastern Daylight Time),547011.0,139_m_f_d_a.png,I,m,1386,8,1,2184.899999976158,544826.1000000238,9018,VNB,A,6
6,prac,2,0.0,2-Back,1,m,Thu May 29 2025 17:22:18 GMT-0400 (Eastern Daylight Time),549077.5,124_o_f_d_a.png,I,m,1185,9,1,2051.5,547026.0,9018,VNB,A,7
6,prac,2,0.0,2-Back,0,m,Thu May 29 2025 17:22:18 GMT-0400 (Eastern Daylight Time),551111.0,165_m_m_h_a.png,I,z,1244,10,1,2015.6999999284744,549095.3000000715,9018,VNB,A,8
6,prac,2,1.0,2-Back,0,z,Thu May 29 2025 17:22:18 GMT-0400 (Eastern Daylight Time),552810.9000000954,071_y_f_d_a.png,I,m,863,11,1,1684.5,551126.4000000954,9018,VNB,A,9
7,prac,2,0.0,2-Back,1,m,Thu May 29 2025 17:22:18 GMT-0400 (Eastern Daylight Time),554344.4000000954,039_o_m_n_a.png,I,m,698,12,1,1519.2000000476837,552825.2000000477,9018,VNB,A,10
0,test,1,0.0,2-Back,,,Thu May 29 2025 17:22:18 GMT-0400 (Eastern Daylight Time),554344.4000000954,109_y_m_h_a.png,I,space,13771,1,1,1519.2000000476837,552825.2000000477,9018,VNB,A,0
0,test,1,0.0,2-Back,,,Thu May 29 2025 17:22:18 GMT-0400 (Eastern Daylight Time),554344.4000000954,124_o_f_n_a.png,I,space,13771,2,1,1519.2000000476837,552825.2000000477,9018,VNB,A,0
1,test,1,0.0,2-Back,1,z,Thu May 29 2025 17:22:18 GMT-0400 (Eastern Daylight Time),591494.8000000715,039_o_m_h_a.png,I,z,1265,3,1,2271.8000000715256,589223.0,9018,VNB,A,1
1,test,1,0.0,2-Back,0,m,Thu May 29 2025 17:22:18 GMT-0400 (Eastern Daylight Time),594494.3000000715,139_m_f_d_a.png,I,z,1975,4,1,2985.100000023842,591509.2000000477,9018,VNB,A,2
2,test,1,1.0,2-Back,1,m,Thu May 29 2025 17:22:18 GMT-0400 (Eastern Daylight Time),596510.6000000238,109_y_m_n_a.png,I,m,989,5,1,2003.1999999284744,594507.4000000954,9018,VNB,A,3
3,test,1,0.0,2-Back,1,z,Thu May 29 2025 17:22:18 GMT-0400 (Eastern Daylight Time),599127.6000000238,071_y_f_d_a.png,I,z,1589,6,1,2605.6999999284744,596521.9000000954,9018,VNB,A,4
4,test,1,0.0,2-Back,1,m,Thu May 29 2025 17:22:18 GMT-0400 (Eastern Daylight Time),601610.9000000954,165_m_m_h_a.png,I,m,1453,7,1,2468.600000023842,599142.3000000715,9018,VNB,A,5
5,test,1,1.0,2-Back,1,m,Thu May 29 2025 17:22:18 GMT-0400 (Eastern Daylight Time),604294.7000000477,071_y_f_n_a.png,I,m,1665,8,1,2670.5,601624.2000000477,9018,VNB,A,6
5,test,1,0.0,2-Back,0,z,Thu May 29 2025 17:22:18 GMT-0400 (Eastern Daylight Time),606760.8000000715,124_o_f_h_a.png,I,m,1447,9,1,2451.899999976158,604308.9000000954,9018,VNB,A,7
6,test,1,0.0,2-Back,1,m,Thu May 29 2025 17:22:18 GMT-0400 (Eastern Daylight Time),609411.0,039_o_m_d_a.png,I,m,1619,10,1,2635.0999999046326,606775.9000000954,9018,VNB,A,8
6,test,1,1.0,2-Back,0,m,Thu May 29 2025 17:22:18 GMT-0400 (Eastern Daylight Time),611444.4000000954,165_m_m_d_a.png,I,z,1001,11,1,2019.7000000476837,609424.7000000477,9018,VNB,A,9
7,test,1,0.0,2-Back,1,m,Thu May 29 2025 17:22:18 GMT-0400 (Eastern Daylight Time),613610.8000000715,139_m_f_n_a.png,I,m,1136,12,1,2152.899999976158,611457.9000000954,9018,VNB,A,10
8,test,1,0.0,2-Back,1,m,Thu May 29 2025 17:22:18 GMT-0400 (Eastern Daylight Time),615661.0,071_y_f_h_a.png,I,m,1017,13,1,2038.1999999284744,613622.8000000715,9018,VNB,A,11
9,test,1,0.0,2-Back,1,z,Thu May 29 2025 17:22:18 GMT-0400 (Eastern Daylight Time),617660.9000000954,165_m_m_n_a.png,I,z,967,14,1,1986.4000000953674,615674.5,9018,VNB,A,12
10,test,1,0.0,2-Back,1,m,Thu May 29 2025 17:22:18 GMT-0400 (Eastern Daylight Time),619777.5,109_y_m_d_a.png,I,m,1095,15,1,2101.6999999284744,617675.8000000715,9018,VNB,A,13
11,test,1,1.0,2-Back,1,m,Thu May 29 2025 17:22:18 GMT-0400 (Eastern Daylight Time),621711.1000000238,139_m_f_h_a.png,I,m,915,16,1,1920.5,619790.6000000238,9018,VNB,A,14
12,test,1,0.0,2-Back,1,z,Thu May 29 2025 17:22:18 GMT-0400 (Eastern Daylight Time),623695.0,124_o_f_d_a.png,I,z,965,17,1,1970.7999999523163,621724.2000000477,9018,VNB,A,15
13,test,1,0.0,2-Back,1,m,Thu May 29 2025 17:22:18 GMT-0400 (Eastern Daylight Time),625627.7000000477,039_o_m_n_a.png,I,m,893,18,1,1916.5,623711.2000000477,9018,VNB,A,16
0,test,2,0.0,2-Back,,,Thu May 29 2025 17:22:18 GMT-0400 (Eastern Daylight Time),625627.7000000477,165_m_m_h_a.png,I,space,1624,1,1,1916.5,623711.2000000477,9018,VNB,A,0
0,test,2,0.0,2-Back,,,Thu May 29 2025 17:22:18 GMT-0400 (Eastern Daylight Time),625627.7000000477,071_y_f_n_a.png,I,space,1624,2,1,1916.5,623711.2000000477,9018,VNB,A,0
1,test,2,1.0,2-Back,1,z,Thu May 29 2025 17:22:18 GMT-0400 (Eastern Daylight Time),634560.5,124_o_f_h_a.png,I,z,1112,3,1,2133.2999999523163,632427.2000000477,9018,VNB,A,1
2,test,2,0.0,2-Back,1,m,Thu May 29 2025 17:22:18 GMT-0400 (Eastern Daylight Time),636594.2000000477,039_o_m_d_a.png,I,m,1003,4,1,2022.2999999523163,634571.9000000954,9018,VNB,A,2
3,test,2,0.0,2-Back,1,m,Thu May 29 2025 17:22:18 GMT-0400 (Eastern Daylight Time),639294.4000000954,139_m_f_d_a.png,I,m,1674,5,1,2686.4000000953674,636608.0,9018,VNB,A,3
4,test,2,0.0,2-Back,1,m,Thu May 29 2025 17:22:18 GMT-0400 (Eastern Daylight Time),641627.8000000715,109_y_m_h_a.png,I,m,1310,6,1,2318.600000023842,639309.2000000477,9018,VNB,A,4
5,test,2,0.0,2-Back,1,m,Thu May 29 2025 17:22:18 GMT-0400 (Eastern Daylight Time),643744.1000000238,124_o_f_n_a.png,I,m,1096,7,1,2102.0,641642.1000000238,9018,VNB,A,5
5,test,2,1.0,2-Back,0,z,Thu May 29 2025 17:22:18 GMT-0400 (Eastern Daylight Time),645810.9000000954,039_o_m_h_a.png,I,m,1037,8,1,2053.100000023842,643757.8000000715,9018,VNB,A,6
6,test,2,0.0,2-Back,1,m,Thu May 29 2025 17:22:18 GMT-0400 (Eastern Daylight Time),648077.6000000238,071_y_f_d_a.png,I,m,1233,9,1,2252.6999999284744,645824.9000000954,9018,VNB,A,7
7,test,2,0.0,2-Back,1,m,Thu May 29 2025 17:22:18 GMT-0400 (Eastern Daylight Time),650344.3000000715,109_y_m_d_a.png,I,m,1238,10,1,2251.899999976158,648092.4000000954,9018,VNB,A,8
8,test,2,0.0,2-Back,1,m,Thu May 29 2025 17:22:18 GMT-0400 (Eastern Daylight Time),652295.2000000477,165_m_m_n_a.png,I,m,932,11,1,1936.5,650358.7000000477,9018,VNB,A,9
9,test,2,0.0,2-Back,1,m,Thu May 29 2025 17:22:18 GMT-0400 (Eastern Daylight Time),654594.4000000954,139_m_f_h_a.png,I,m,1253,12,1,2283.8000000715256,652310.6000000238,9018,VNB,A,10
10,test,2,1.0,2-Back,1,z,Thu May 29 2025 17:22:18 GMT-0400 (Eastern Daylight Time),656827.6000000238,039_o_m_n_a.png,I,z,1211,13,1,2218.7999999523163,654608.8000000715,9018,VNB,A,11
11,test,2,0.0,2-Back,1,m,Thu May 29 2025 17:22:18 GMT-0400 (Eastern Daylight Time),659277.6000000238,124_o_f_d_a.png,I,m,1416,14,1,2435.6999999284744,656841.9000000954,9018,VNB,A,12
12,test,2,0.0,2-Back,1,m,Thu May 29 2025 17:22:18 GMT-0400 (Eastern Daylight Time),661560.9000000954,071_y_f_h_a.png,I,m,1254,15,1,2269.3000000715256,659291.6000000238,9018,VNB,A,13
12,test,2,0.0,2-Back,0,z,Thu May 29 2025 17:22:18 GMT-0400 (Eastern Daylight Time),663860.9000000954,165_m_m_d_a.png,I,m,1268,16,1,2289.7000000476837,661571.2000000477,9018,VNB,A,14
13,test,2,0.0,2-Back,1,m,Thu May 29 2025 17:22:18 GMT-0400 (Eastern Daylight Time),665877.6000000238,109_y_m_n_a.png,I,m,991,17,1,2002.8999999761581,663874.7000000477,9018,VNB,A,15
14,test,2,1.0,2-Back,1,m,Thu May 29 2025 17:22:18 GMT-0400 (Eastern Daylight Time),668294.5,139_m_f_n_a.png,I,m,1383,18,1,2401.399999976158,665893.1000000238,9018,VNB,A,16
0,test,3,1.0,2-Back,,,Thu May 29 2025 17:22:18 GMT-0400 (Eastern Daylight Time),668294.5,039_o_m_n_a.png,I,space,1838,1,1,2401.399999976158,665893.1000000238,9018,VNB,A,0
0,test,3,1.0,2-Back,,,Thu May 29 2025 17:22:18 GMT-0400 (Eastern Daylight Time),668294.5,124_o_f_d_a.png,I,space,1838,2,1,2401.399999976158,665893.1000000238,9018,VNB,A,0
1,test,3,0.0,2-Back,1,m,Thu May 29 2025 17:22:18 GMT-0400 (Eastern Daylight Time),677177.7000000477,071_y_f_h_a.png,I,m,954,3,1,1969.8999999761581,675207.8000000715,9018,VNB,A,1
2,test,3,0.0,2-Back,1,z,Thu May 29 2025 17:22:18 GMT-0400 (Eastern Daylight Time),679177.6000000238,139_m_f_d_a.png,I,z,971,4,1,1984.8999999761581,677192.7000000477,9018,VNB,A,2
2,test,3,1.0,2-Back,0,m,Thu May 29 2025 17:22:18 GMT-0400 (Eastern Daylight Time),681295.0,109_y_m_n_a.png,I,z,1099,5,1,2104.1999999284744,679190.8000000715,9018,VNB,A,3
3,test,3,0.0,2-Back,1,m,Thu May 29 2025 17:22:18 GMT-0400 (Eastern Daylight Time),683411.3000000715,039_o_m_h_a.png,I,m,1085,6,1,2102.8000000715256,681308.5,9018,VNB,A,4
4,test,3,0.0,2-Back,1,z,Thu May 29 2025 17:22:18 GMT-0400 (Eastern Daylight Time),685377.5,071_y_f_n_a.png,I,z,945,7,1,1952.3999999761581,683425.1000000238,9018,VNB,A,5
5,test,3,1.0,2-Back,1,m,Thu May 29 2025 17:22:18 GMT-0400 (Eastern Daylight Time),687244.3000000715,165_m_m_d_a.png,I,m,834,8,1,1853.1000000238419,685391.2000000477,9018,VNB,A,6
6,test,3,0.0,2-Back,1,m,Thu May 29 2025 17:22:18 GMT-0400 (Eastern Daylight Time),689311.0,109_y_m_d_a.png,I,m,1041,9,1,2053.1999999284744,687257.8000000715,9018,VNB,A,7
7,test,3,0.0,2-Back,1,m,Thu May 29 2025 17:22:18 GMT-0400 (Eastern Daylight Time),691261.0,124_o_f_h_a.png,I,m,917,10,1,1934.7999999523163,689326.2000000477,9018,VNB,A,8
8,test,3,1.0,2-Back,1,m,Thu May 29 2025 17:22:18 GMT-0400 (Eastern Daylight Time),693461.0,139_m_f_n_a.png,I,m,1175,11,1,2186.7999999523163,691274.2000000477,9018,VNB,A,9
9,test,3,1.0,2-Back,1,z,Thu May 29 2025 17:22:18 GMT-0400 (Eastern Daylight Time),695577.7000000477,165_m_m_h_a.png,I,z,1087,12,1,2102.2999999523163,693475.4000000954,9018,VNB,A,10
10,test,3,0.0,2-Back,1,m,Thu May 29 2025 17:22:18 GMT-0400 (Eastern Daylight Time),697944.5,071_y_f_d_a.png,I,m,1338,13,1,2352.6999999284744,695591.8000000715,9018,VNB,A,11
10,test,3,0.0,2-Back,0,m,Thu May 29 2025 17:22:18 GMT-0400 (Eastern Daylight Time),700177.7000000477,124_o_f_n_a.png,I,z,1205,14,1,2219.2999999523163,697958.4000000954,9018,VNB,A,12
10,test,3,0.0,2-Back,0,z,Thu May 29 2025 17:22:18 GMT-0400 (Eastern Daylight Time),702294.4000000954,039_o_m_d_a.png,I,m,1085,15,1,2102.100000023842,700192.3000000715,9018,VNB,A,13
11,test,3,1.0,2-Back,1,m,Thu May 29 2025 17:22:18 GMT-0400 (Eastern Daylight Time),704361.0,139_m_f_h_a.png,I,m,1046,16,1,2053.2999999523163,702307.7000000477,9018,VNB,A,14
11,test,3,0.0,2-Back,0,m,Thu May 29 2025 17:22:18 GMT-0400 (Eastern Daylight Time),706444.4000000954,165_m_m_n_a.png,I,z,1051,17,1,2070.2000000476837,704374.2000000477,9018,VNB,A,15
11,test,3,0.0,2-Back,0,z,Thu May 29 2025 17:22:18 GMT-0400 (Eastern Daylight Time),708561.1000000238,109_y_m_h_a.png,I,m,1071,18,1,2099.100000023842,706462.0,9018,VNB,A,16
0,test,4,0.0,2-Back,,,Thu May 29 2025 17:22:18 GMT-0400 (Eastern Daylight Time),708561.1000000238,139_m_f_n_a.png,I,space,1163,1,1,2099.100000023842,706462.0,9018,VNB,A,0
0,test,4,0.0,2-Back,,,Thu May 29 2025 17:22:18 GMT-0400 (Eastern Daylight Time),708561.1000000238,039_o_m_n_a.png,I,space,1163,2,1,2099.100000023842,706462.0,9018,VNB,A,0
1,test,4,1.0,2-Back,1,m,Thu May 29 2025 17:22:18 GMT-0400 (Eastern Daylight Time),716694.5,109_y_m_h_a.png,I,m,841,3,1,1853.1999999284744,714841.3000000715,9018,VNB,A,1
2,test,4,1.0,2-Back,1,m,Thu May 29 2025 17:22:18 GMT-0400 (Eastern Daylight Time),718577.7000000477,124_o_f_d_a.png,I,m,863,4,1,1869.7999999523163,716707.9000000954,9018,VNB,A,2
3,test,4,0.0,2-Back,1,z,Thu May 29 2025 17:22:18 GMT-0400 (Eastern Daylight Time),720560.9000000954,039_o_m_h_a.png,I,z,963,5,1,1969.4000000953674,718591.5,9018,VNB,A,3
4,test,4,0.0,2-Back,1,m,Thu May 29 2025 17:22:18 GMT-0400 (Eastern Daylight Time),722411.2000000477,165_m_m_n_a.png,I,m,819,6,1,1837.0,720574.2000000477,9018,VNB,A,4
5,test,4,0.0,2-Back,1,m,Thu May 29 2025 17:22:18 GMT-0400 (Eastern Daylight Time),724344.4000000954,139_m_f_d_a.png,I,m,905,7,1,1919.4000000953674,722425.0,9018,VNB,A,5
5,test,4,0.0,2-Back,0,z,Thu May 29 2025 17:22:18 GMT-0400 (Eastern Daylight Time),726377.6000000238,071_y_f_n_a.png,I,m,1012,8,1,2018.6999999284744,724358.9000000954,9018,VNB,A,6
6,test,4,1.0,2-Back,1,m,Thu May 29 2025 17:22:18 GMT-0400 (Eastern Daylight Time),728411.0,124_o_f_h_a.png,I,m,1011,9,1,2018.3999999761581,726392.6000000238,9018,VNB,A,7
7,test,4,0.0,2-Back,1,m,Thu May 29 2025 17:22:18 GMT-0400 (Eastern Daylight Time),730844.5,165_m_m_h_a.png,I,m,1401,10,1,2418.0999999046326,728426.4000000954,9018,VNB,A,8
7,test,4,0.0,2-Back,0,m,Thu May 29 2025 17:22:18 GMT-0400 (Eastern Daylight Time),732844.5,071_y_f_d_a.png,I,z,968,11,1,1986.0,730858.5,9018,VNB,A,9
8,test,4,0.0,2-Back,1,m,Thu May 29 2025 17:22:18 GMT-0400 (Eastern Daylight Time),734777.8000000715,109_y_m_n_a.png,I,m,904,12,1,1919.7000000476837,732858.1000000238,9018,VNB,A,10
8,test,4,0.0,2-Back,0,z,Thu May 29 2025 17:22:18 GMT-0400 (Eastern Daylight Time),737194.5,039_o_m_d_a.png,I,m,1386,13,1,2402.0999999046326,734792.4000000954,9018,VNB,A,11
9,test,4,1.0,2-Back,1,m,Thu May 29 2025 17:22:18 GMT-0400 (Eastern Daylight Time),739177.8000000715,139_m_f_h_a.png,I,m,955,14,1,1968.3000000715256,737209.5,9018,VNB,A,12
10,test,4,1.0,2-Back,1,m,Thu May 29 2025 17:22:18 GMT-0400 (Eastern Daylight Time),740927.5,071_y_f_h_a.png,I,m,731,15,1,1734.8999999761581,739192.6000000238,9018,VNB,A,13
10,test,4,0.0,2-Back,0,m,Thu May 29 2025 17:22:18 GMT-0400 (Eastern Daylight Time),742711.3000000715,124_o_f_n_a.png,I,z,756,16,1,1770.8000000715256,740940.5,9018,VNB,A,14
11,test,4,0.0,2-Back,1,m,Thu May 29 2025 17:22:18 GMT-0400 (Eastern Daylight Time),744744.2000000477,109_y_m_d_a.png,I,m,1013,17,1,2019.1000000238419,742725.1000000238,9018,VNB,A,15
12,test,4,1.0,2-Back,1,m,Thu May 29 2025 17:22:18 GMT-0400 (Eastern Daylight Time),746877.6000000238,165_m_m_d_a.png,I,m,1109,18,1,2119.1999999284744,744758.4000000954,9018,VNB,A,16
0,test,5,1.0,2-Back,,,Thu May 29 2025 17:22:18 GMT-0400 (Eastern Daylight Time),746877.6000000238,071_y_f_d_a.png,I,space,2528,1,1,2119.1999999284744,744758.4000000954,9018,VNB,A,0
0,test,5,1.0,2-Back,,,Thu May 29 2025 17:22:18 GMT-0400 (Eastern Daylight Time),746877.6000000238,124_o_f_h_a.png,I,space,2528,2,1,2119.1999999284744,744758.4000000954,9018,VNB,A,0
1,test,5,1.0,2-Back,1,z,Thu May 29 2025 17:22:18 GMT-0400 (Eastern Daylight Time),756344.4000000954,039_o_m_d_a.png,I,z,789,3,1,1803.2000000476837,754541.2000000477,9018,VNB,A,1
2,test,5,1.0,2-Back,1,m,Thu May 29 2025 17:22:18 GMT-0400 (Eastern Daylight Time),758461.3000000715,139_m_f_n_a.png,I,m,1092,4,1,2103.0,756358.3000000715,9018,VNB,A,2
3,test,5,0.0,2-Back,1,m,Thu May 29 2025 17:22:18 GMT-0400 (Eastern Daylight Time),760644.4000000954,165_m_m_h_a.png,I,m,1160,5,1,2167.7000000476837,758476.7000000477,9018,VNB,A,3
3,test,5,0.0,2-Back,0,z,Thu May 29 2025 17:22:18 GMT-0400 (Eastern Daylight Time),762827.7000000477,071_y_f_n_a.png,I,m,1161,6,1,2169.399999976158,760658.3000000715,9018,VNB,A,4
4,test,5,0.0,2-Back,1,m,Thu May 29 2025 17:22:18 GMT-0400 (Eastern Daylight Time),765094.4000000954,124_o_f_d_a.png,I,m,1241,7,1,2251.9000000953674,762842.5,9018,VNB,A,5
4,test,5,0.0,2-Back,0,m,Thu May 29 2025 17:22:18 GMT-0400 (Eastern Daylight Time),767227.9000000954,039_o_m_h_a.png,I,z,1085,8,1,2118.0,765109.9000000954,9018,VNB,A,6
4,test,5,1.0,2-Back,0,z,Thu May 29 2025 17:22:18 GMT-0400 (Eastern Daylight Time),769044.4000000954,139_m_f_d_a.png,I,m,777,9,1,1802.0,767242.4000000954,9018,VNB,A,7
5,test,5,0.0,2-Back,1,m,Thu May 29 2025 17:22:18 GMT-0400 (Eastern Daylight Time),771394.5,109_y_m_n_a.png,I,m,1329,10,1,2335.7999999523163,769058.7000000477,9018,VNB,A,8
6,test,5,0.0,2-Back,1,m,Thu May 29 2025 17:22:18 GMT-0400 (Eastern Daylight Time),773827.7000000477,165_m_m_n_a.png,I,m,1393,11,1,2419.2000000476837,771408.5,9018,VNB,A,9
7,test,5,0.0,2-Back,1,m,Thu May 29 2025 17:22:18 GMT-0400 (Eastern Daylight Time),775911.4000000954,071_y_f_h_a.png,I,m,1065,12,1,2068.8000000715256,773842.6000000238,9018,VNB,A,10
8,test,5,0.0,2-Back,1,m,Thu May 29 2025 17:22:18 GMT-0400 (Eastern Daylight Time),777961.2000000477,109_y_m_d_a.png,I,m,1004,13,1,2033.7000000476837,775927.5,9018,VNB,A,11
8,test,5,1.0,2-Back,0,z,Thu May 29 2025 17:22:18 GMT-0400 (Eastern Daylight Time),780027.7000000477,139_m_f_h_a.png,I,m,1027,14,1,2051.0,777976.7000000477,9018,VNB,A,12
8,test,5,0.0,2-Back,0,m,Thu May 29 2025 17:22:18 GMT-0400 (Eastern Daylight Time),782144.4000000954,039_o_m_n_a.png,I,z,1089,15,1,2103.5,780040.9000000954,9018,VNB,A,13
9,test,5,0.0,2-Back,1,m,Thu May 29 2025 17:22:18 GMT-0400 (Eastern Daylight Time),784177.7000000477,165_m_m_d_a.png,I,m,1012,16,1,2020.7000000476837,782157.0,9018,VNB,A,14
10,test,5,0.0,2-Back,1,z,Thu May 29 2025 17:22:18 GMT-0400 (Eastern Daylight Time),786561.1000000238,124_o_f_n_a.png,I,z,1362,17,1,2369.1999999284744,784191.9000000954,9018,VNB,A,15
11,test,5,1.0,2-Back,1,m,Thu May 29 2025 17:22:18 GMT-0400 (Eastern Daylight Time),788427.8000000715,109_y_m_h_a.png,I,m,835,18,1,1852.3999999761581,786575.4000000954,9018,VNB,A,16
