acc_sum,block,block_c,block_cond,con_img,correct,correct_response,datetime,endtime,face,jitter,line,project,response,response_time,row_sel,session_number,start_end,starttime,subject_id,task,task_vers,trial
1,prac,1,A,haborder.png,1,z,Wed May 07 2025 16:49:52 GMT-0500 (Central Daylight Time),86245.0,CFD-BM-005-010-A.jpg,1600,solid,O,z,1471,2,1,3866.5,82378.5,7143,ATS,A,1
2,prac,1,A,haborder.png,1,m,Wed May 07 2025 16:49:52 GMT-0500 (Central Daylight Time),89376.5,CFD-BM-029-026-HC.jpg,1500,solid,O,m,834,3,1,6998.0,82378.5,7143,ATS,A,2
2,prac,1,A,haborder.png,0,z,Wed May 07 2025 16:49:52 GMT-0500 (Central Daylight Time),92025.40000000596,CFD-BF-023-013-A.jpg,1000,solid,O,m,865,4,1,9646.90000000596,82378.5,7143,ATS,A,3
3,prac,1,A,haborder.png,1,z,Wed May 07 2025 16:49:52 GMT-0500 (Central Daylight Time),94974.60000002384,CFD-WF-019-015-A.jpg,1000,solid,O,z,1160,12,1,12596.100000023842,82378.5,7143,ATS,A,4
4,prac,1,A,haborder.png,1,z,Wed May 07 2025 16:49:52 GMT-0500 (Central Daylight Time),98356.60000002384,CFD-WF-003-014-A.jpg,1600,solid,O,z,987,10,1,15978.100000023842,82378.5,7143,ATS,A,5
5,prac,1,A,haborder.png,1,z,Wed May 07 2025 16:49:52 GMT-0500 (Central Daylight Time),102105.40000000596,CFD-WM-013-015-A.jpg,1900,solid,O,z,1064,8,1,19726.90000000596,82378.5,7143,ATS,A,6
6,prac,1,A,haborder.png,1,m,Wed May 07 2025 16:49:52 GMT-0500 (Central Daylight Time),105870.90000000596,CFD-BF-028-020-HC.jpg,2000,solid,O,m,968,5,1,23492.40000000596,82378.5,7143,ATS,A,7
7,prac,1,A,haborder.png,1,z,Wed May 07 2025 16:49:52 GMT-0500 (Central Daylight Time),108770.10000002384,CFD-BF-039-039-A.jpg,1200,solid,O,z,906,6,1,26391.600000023842,82378.5,7143,ATS,A,8
8,prac,1,A,haborder.png,1,m,Wed May 07 2025 16:49:52 GMT-0500 (Central Daylight Time),112235.80000001192,CFD-WF-017-016-HC.jpg,1500,solid,O,m,1175,11,1,29857.30000001192,82378.5,7143,ATS,A,9
9,prac,1,A,haborder.png,1,m,Wed May 07 2025 16:49:52 GMT-0500 (Central Daylight Time),115751.0,CFD-WM-006-013-HC.jpg,1700,solid,O,m,1046,9,1,33372.5,82378.5,7143,ATS,A,10
10,prac,1,A,haborder.png,1,m,Wed May 07 2025 16:49:52 GMT-0500 (Central Daylight Time),118750.20000001788,CFD-WM-004-005-HC.jpg,1400,solid,O,m,810,7,1,36371.70000001788,82378.5,7143,ATS,A,11
11,prac,1,A,haborder.png,1,m,Wed May 07 2025 16:49:52 GMT-0500 (Central Daylight Time),122116.40000000596,CFD-BM-017-052-HC.jpg,1700,solid,O,m,871,1,1,39737.90000000596,82378.5,7143,ATS,A,12
0,prac,1,B,mfborder.png,0,z,Wed May 07 2025 16:49:52 GMT-0500 (Central Daylight Time),173766.70000001788,CFD-BF-023-013-A.jpg,1000,dash,O,None,1516,4,1,3299.0999999940395,170467.60000002384,7143,ATS,A,1
1,prac,1,B,mfborder.png,1,m,Wed May 07 2025 16:49:52 GMT-0500 (Central Daylight Time),176933.10000002384,CFD-BM-029-026-HC.jpg,1700,dash,O,m,680,1,1,6465.5,170467.60000002384,7143,ATS,A,2
2,prac,1,B,mfborder.png,1,m,Wed May 07 2025 16:49:52 GMT-0500 (Central Daylight Time),180047.90000000596,CFD-BM-010-019-A.jpg,1600,dash,O,m,717,2,1,9580.299999982119,170467.60000002384,7143,ATS,A,3
3,prac,1,B,mfborder.png,1,z,Wed May 07 2025 16:49:52 GMT-0500 (Central Daylight Time),183246.70000001788,CFD-WF-003-014-A.jpg,1500,dash,O,z,901,11,1,12779.09999999404,170467.60000002384,7143,ATS,A,4
4,prac,1,B,mfborder.png,1,z,Wed May 07 2025 16:49:52 GMT-0500 (Central Daylight Time),186795.60000002384,CFD-WF-002-008-HC.jpg,1900,dash,O,z,862,8,1,16328.0,170467.60000002384,7143,ATS,A,5
5,prac,1,B,mfborder.png,1,z,Wed May 07 2025 16:49:52 GMT-0500 (Central Daylight Time),189761.40000000596,CFD-BF-010-005-HC.jpg,1500,dash,O,z,681,3,1,19293.79999998212,170467.60000002384,7143,ATS,A,6
6,prac,1,B,mfborder.png,1,m,Wed May 07 2025 16:49:52 GMT-0500 (Central Daylight Time),193627.0,CFD-WM-013-015-A.jpg,1700,dash,O,m,1380,9,1,23159.399999976158,170467.60000002384,7143,ATS,A,7
7,prac,1,B,mfborder.png,1,m,Wed May 07 2025 16:49:52 GMT-0500 (Central Daylight Time),197425.80000001192,CFD-BM-005-010-A.jpg,2000,dash,O,m,1007,5,1,26958.19999998808,170467.60000002384,7143,ATS,A,8
8,prac,1,B,mfborder.png,1,m,Wed May 07 2025 16:49:52 GMT-0500 (Central Daylight Time),200391.40000000596,CFD-WM-019-013-A.jpg,1200,dash,O,m,975,6,1,29923.79999998212,170467.60000002384,7143,ATS,A,9
9,prac,1,B,mfborder.png,1,m,Wed May 07 2025 16:49:52 GMT-0500 (Central Daylight Time),203823.60000002384,CFD-WM-006-013-HC.jpg,1600,dash,O,m,1042,10,1,33356.0,170467.60000002384,7143,ATS,A,10
10,prac,1,B,mfborder.png,1,z,Wed May 07 2025 16:49:52 GMT-0500 (Central Daylight Time),206423.0,CFD-WF-017-016-HC.jpg,1000,dash,O,z,801,12,1,35955.39999997616,170467.60000002384,7143,ATS,A,11
11,prac,1,B,mfborder.png,1,z,Wed May 07 2025 16:49:52 GMT-0500 (Central Daylight Time),209554.90000000596,CFD-BF-028-020-HC.jpg,1400,dash,O,z,946,7,1,39087.29999998212,170467.60000002384,7143,ATS,A,12
1,test,1,A,haborder.png,1,m,Wed May 07 2025 16:49:52 GMT-0500 (Central Daylight Time),228382.90000000596,CFD-WM-004-005-HC.jpg,1400,solid,O,m,961,7,1,2382.7999999821186,226000.10000002384,7143,ATS,A,1
2,test,1,A,haborder.png,1,z,Wed May 07 2025 16:49:52 GMT-0500 (Central Daylight Time),230782.10000002384,CFD-WF-003-014-A.jpg,1600,solid,O,z,779,10,1,4782.0,226000.10000002384,7143,ATS,A,2
3,test,1,A,haborder.png,1,z,Wed May 07 2025 16:49:52 GMT-0500 (Central Daylight Time),233781.10000002384,CFD-WM-013-015-A.jpg,1900,solid,O,z,1000,8,1,7781.0,226000.10000002384,7143,ATS,A,3
4,test,1,A,haborder.png,1,m,Wed May 07 2025 16:49:52 GMT-0500 (Central Daylight Time),236380.30000001192,CFD-WM-006-013-HC.jpg,1700,solid,O,m,869,9,1,10380.199999988079,226000.10000002384,7143,ATS,A,4
5,test,1,A,haborder.png,1,z,Wed May 07 2025 16:49:52 GMT-0500 (Central Daylight Time),239329.20000001788,CFD-WF-003-014-A.jpg,1600,solid,O,z,1317,10,1,13329.09999999404,226000.10000002384,7143,ATS,A,5
6,test,1,A,haborder.png,1,z,Wed May 07 2025 16:49:52 GMT-0500 (Central Daylight Time),242161.70000001788,CFD-BM-005-010-A.jpg,1600,solid,O,z,1200,2,1,16161.59999999404,226000.10000002384,7143,ATS,A,6
7,test,1,A,haborder.png,1,m,Wed May 07 2025 16:49:52 GMT-0500 (Central Daylight Time),244894.30000001192,CFD-WF-017-016-HC.jpg,1500,solid,O,m,1212,11,1,18894.19999998808,226000.10000002384,7143,ATS,A,7
8,test,1,A,haborder.png,1,z,Wed May 07 2025 16:49:52 GMT-0500 (Central Daylight Time),247693.60000002384,CFD-WM-013-015-A.jpg,1900,solid,O,z,872,8,1,21693.5,226000.10000002384,7143,ATS,A,8
9,test,1,A,haborder.png,1,m,Wed May 07 2025 16:49:52 GMT-0500 (Central Daylight Time),250375.80000001192,CFD-BF-028-020-HC.jpg,2000,solid,O,m,649,5,1,24375.69999998808,226000.10000002384,7143,ATS,A,9
10,test,1,A,haborder.png,1,m,Wed May 07 2025 16:49:52 GMT-0500 (Central Daylight Time),252991.5,CFD-WM-006-013-HC.jpg,1700,solid,O,m,886,9,1,26991.399999976158,226000.10000002384,7143,ATS,A,10
11,test,1,A,haborder.png,1,m,Wed May 07 2025 16:49:52 GMT-0500 (Central Daylight Time),255474.10000002384,CFD-BM-029-026-HC.jpg,1500,solid,O,m,957,3,1,29474.0,226000.10000002384,7143,ATS,A,11
12,test,1,A,haborder.png,1,m,Wed May 07 2025 16:49:52 GMT-0500 (Central Daylight Time),257956.60000002384,CFD-BM-029-026-HC.jpg,1500,solid,O,m,954,3,1,31956.5,226000.10000002384,7143,ATS,A,12
13,test,1,A,haborder.png,1,m,Wed May 07 2025 16:49:52 GMT-0500 (Central Daylight Time),260422.70000001788,CFD-WF-017-016-HC.jpg,1500,solid,O,m,936,11,1,34422.59999999404,226000.10000002384,7143,ATS,A,13
14,test,1,A,haborder.png,1,m,Wed May 07 2025 16:49:52 GMT-0500 (Central Daylight Time),263021.90000000596,CFD-BM-017-052-HC.jpg,1700,solid,O,m,867,1,1,37021.79999998212,226000.10000002384,7143,ATS,A,14
15,test,1,A,haborder.png,1,z,Wed May 07 2025 16:49:52 GMT-0500 (Central Daylight Time),265454.3000000119,CFD-BM-005-010-A.jpg,1600,solid,O,z,811,2,1,39454.19999998808,226000.10000002384,7143,ATS,A,15
16,test,1,A,haborder.png,1,z,Wed May 07 2025 16:49:52 GMT-0500 (Central Daylight Time),267553.60000002384,CFD-WF-019-015-A.jpg,1000,solid,O,z,1075,12,1,41553.5,226000.10000002384,7143,ATS,A,16
17,test,1,A,haborder.png,1,m,Wed May 07 2025 16:49:52 GMT-0500 (Central Daylight Time),270403.0,CFD-BF-028-020-HC.jpg,2000,solid,O,m,824,5,1,44402.89999997616,226000.10000002384,7143,ATS,A,17
18,test,1,A,haborder.png,1,z,Wed May 07 2025 16:49:52 GMT-0500 (Central Daylight Time),272368.90000000596,CFD-WF-019-015-A.jpg,1000,solid,O,z,934,12,1,46368.79999998212,226000.10000002384,7143,ATS,A,18
19,test,1,A,haborder.png,1,z,Wed May 07 2025 16:49:52 GMT-0500 (Central Daylight Time),274551.40000000596,CFD-BF-023-013-A.jpg,1000,solid,O,z,1152,4,1,48551.29999998212,226000.10000002384,7143,ATS,A,19
20,test,1,A,haborder.png,1,m,Wed May 07 2025 16:49:52 GMT-0500 (Central Daylight Time),277534.10000002384,CFD-BM-017-052-HC.jpg,1700,solid,O,m,1253,1,1,51534.0,226000.10000002384,7143,ATS,A,20
21,test,1,A,haborder.png,1,m,Wed May 07 2025 16:49:52 GMT-0500 (Central Daylight Time),280062.0,CFD-WM-004-005-HC.jpg,1400,solid,O,m,1094,7,1,54061.89999997616,226000.10000002384,7143,ATS,A,21
22,test,1,A,haborder.png,1,z,Wed May 07 2025 16:49:52 GMT-0500 (Central Daylight Time),282082.60000002384,CFD-BF-039-039-A.jpg,1200,solid,O,z,799,6,1,56082.5,226000.10000002384,7143,ATS,A,22
23,test,1,A,haborder.png,1,z,Wed May 07 2025 16:49:52 GMT-0500 (Central Daylight Time),284048.5,CFD-BF-039-039-A.jpg,1200,solid,O,z,743,6,1,58048.39999997616,226000.10000002384,7143,ATS,A,23
24,test,1,A,haborder.png,1,z,Wed May 07 2025 16:49:52 GMT-0500 (Central Daylight Time),285748.0,CFD-BF-023-013-A.jpg,1000,solid,O,z,680,4,1,59747.89999997616,226000.10000002384,7143,ATS,A,24
1,test,1,B,mfborder.png,1,m,Wed May 07 2025 16:49:52 GMT-0500 (Central Daylight Time),299327.3000000119,CFD-WM-006-013-HC.jpg,1600,dash,O,m,965,10,1,2599.4000000059605,296727.90000000596,7143,ATS,A,1
2,test,1,B,mfborder.png,1,m,Wed May 07 2025 16:49:52 GMT-0500 (Central Daylight Time),302210.3000000119,CFD-BM-005-010-A.jpg,2000,dash,O,m,866,5,1,5482.4000000059605,296727.90000000596,7143,ATS,A,2
3,test,1,B,mfborder.png,1,z,Wed May 07 2025 16:49:52 GMT-0500 (Central Daylight Time),304775.40000000596,CFD-WF-003-014-A.jpg,1500,dash,O,z,1040,11,1,8047.5,296727.90000000596,7143,ATS,A,3
4,test,1,B,mfborder.png,1,m,Wed May 07 2025 16:49:52 GMT-0500 (Central Daylight Time),307674.60000002384,CFD-BM-005-010-A.jpg,2000,dash,O,m,867,5,1,10946.700000017881,296727.90000000596,7143,ATS,A,4
5,test,1,B,mfborder.png,1,z,Wed May 07 2025 16:49:52 GMT-0500 (Central Daylight Time),310007.2000000179,CFD-BF-010-005-HC.jpg,1500,dash,O,z,802,3,1,13279.300000011921,296727.90000000596,7143,ATS,A,5
6,test,1,B,mfborder.png,1,m,Wed May 07 2025 16:49:52 GMT-0500 (Central Daylight Time),312189.90000000596,CFD-WM-019-013-A.jpg,1200,dash,O,m,959,6,1,15462.0,296727.90000000596,7143,ATS,A,6
7,test,1,B,mfborder.png,1,m,Wed May 07 2025 16:49:52 GMT-0500 (Central Daylight Time),314972.3000000119,CFD-BM-029-026-HC.jpg,1700,dash,O,m,1054,1,1,18244.40000000596,296727.90000000596,7143,ATS,A,7
8,test,1,B,mfborder.png,1,m,Wed May 07 2025 16:49:52 GMT-0500 (Central Daylight Time),317271.40000000596,CFD-BM-010-019-A.jpg,1600,dash,O,m,669,2,1,20543.5,296727.90000000596,7143,ATS,A,8
9,test,1,B,mfborder.png,1,m,Wed May 07 2025 16:49:52 GMT-0500 (Central Daylight Time),319837.2000000179,CFD-BM-010-019-A.jpg,1600,dash,O,m,947,2,1,23109.30000001192,296727.90000000596,7143,ATS,A,9
10,test,1,B,mfborder.png,1,z,Wed May 07 2025 16:49:52 GMT-0500 (Central Daylight Time),322536.40000000596,CFD-WF-002-008-HC.jpg,1900,dash,O,z,772,8,1,25808.5,296727.90000000596,7143,ATS,A,10
11,test,1,B,mfborder.png,1,z,Wed May 07 2025 16:49:52 GMT-0500 (Central Daylight Time),324802.60000002384,CFD-WF-003-014-A.jpg,1500,dash,O,z,745,11,1,28074.70000001788,296727.90000000596,7143,ATS,A,11
12,test,1,B,mfborder.png,1,z,Wed May 07 2025 16:49:52 GMT-0500 (Central Daylight Time),326468.8000000119,CFD-BF-023-013-A.jpg,1000,dash,O,z,639,4,1,29740.90000000596,296727.90000000596,7143,ATS,A,12
13,test,1,B,mfborder.png,1,z,Wed May 07 2025 16:49:52 GMT-0500 (Central Daylight Time),328734.60000002384,CFD-BF-028-020-HC.jpg,1400,dash,O,z,833,7,1,32006.70000001788,296727.90000000596,7143,ATS,A,13
14,test,1,B,mfborder.png,1,z,Wed May 07 2025 16:49:52 GMT-0500 (Central Daylight Time),331333.7000000179,CFD-WF-002-008-HC.jpg,1900,dash,O,z,679,8,1,34605.80000001192,296727.90000000596,7143,ATS,A,14
15,test,1,B,mfborder.png,1,z,Wed May 07 2025 16:49:52 GMT-0500 (Central Daylight Time),333516.3000000119,CFD-BF-010-005-HC.jpg,1500,dash,O,z,656,3,1,36788.40000000596,296727.90000000596,7143,ATS,A,15
16,test,1,B,mfborder.png,1,m,Wed May 07 2025 16:49:52 GMT-0500 (Central Daylight Time),335765.8000000119,CFD-WM-006-013-HC.jpg,1600,dash,O,m,626,10,1,39037.90000000596,296727.90000000596,7143,ATS,A,16
17,test,1,B,mfborder.png,1,z,Wed May 07 2025 16:49:52 GMT-0500 (Central Daylight Time),338314.8000000119,CFD-BF-028-020-HC.jpg,1400,dash,O,z,1131,7,1,41586.90000000596,296727.90000000596,7143,ATS,A,17
18,test,1,B,mfborder.png,1,z,Wed May 07 2025 16:49:52 GMT-0500 (Central Daylight Time),340414.40000000596,CFD-WF-017-016-HC.jpg,1000,dash,O,z,1078,12,1,43686.5,296727.90000000596,7143,ATS,A,18
19,test,1,B,mfborder.png,1,z,Wed May 07 2025 16:49:52 GMT-0500 (Central Daylight Time),342363.8000000119,CFD-WF-017-016-HC.jpg,1000,dash,O,z,931,12,1,45635.90000000596,296727.90000000596,7143,ATS,A,19
20,test,1,B,mfborder.png,1,m,Wed May 07 2025 16:49:52 GMT-0500 (Central Daylight Time),344862.90000000596,CFD-BM-029-026-HC.jpg,1700,dash,O,m,777,1,1,48135.0,296727.90000000596,7143,ATS,A,20
21,test,1,B,mfborder.png,1,m,Wed May 07 2025 16:49:52 GMT-0500 (Central Daylight Time),347412.2000000179,CFD-WM-013-015-A.jpg,1700,dash,O,m,830,9,1,50684.30000001192,296727.90000000596,7143,ATS,A,21
22,test,1,B,mfborder.png,1,m,Wed May 07 2025 16:49:52 GMT-0500 (Central Daylight Time),349628.10000002384,CFD-WM-019-013-A.jpg,1200,dash,O,m,989,6,1,52900.20000001788,296727.90000000596,7143,ATS,A,22
23,test,1,B,mfborder.png,1,m,Wed May 07 2025 16:49:52 GMT-0500 (Central Daylight Time),352060.5,CFD-WM-013-015-A.jpg,1700,dash,O,m,705,9,1,55332.59999999404,296727.90000000596,7143,ATS,A,23
24,test,1,B,mfborder.png,1,z,Wed May 07 2025 16:49:52 GMT-0500 (Central Daylight Time),353960.0,CFD-BF-023-013-A.jpg,1000,dash,O,z,877,4,1,57232.09999999404,296727.90000000596,7143,ATS,A,24
0,prac,1,C,haborder.png,0,m,Wed May 07 2025 16:49:52 GMT-0500 (Central Daylight Time),380885.2000000179,CFD-BM-029-026-HC.jpg,1500,solid,O,None,1516,10,1,3798.9000000059605,377086.3000000119,7143,ATS,A,1
0,prac,1,C,mfborder.png,0,z,Wed May 07 2025 16:49:52 GMT-0500 (Central Daylight Time),384783.7000000179,CFD-WF-017-016-HC.jpg,1600,dash,O,None,1516,1,1,7697.4000000059605,377086.3000000119,7143,ATS,A,2
1,prac,1,C,haborder.png,1,m,Wed May 07 2025 16:49:52 GMT-0500 (Central Daylight Time),388032.90000000596,CFD-WM-004-005-HC.jpg,1000,dash,O,m,1458,11,1,10946.59999999404,377086.3000000119,7143,ATS,A,3
2,prac,1,C,haborder.png,1,z,Wed May 07 2025 16:49:52 GMT-0500 (Central Daylight Time),391531.60000002384,CFD-BF-039-039-A.jpg,1700,solid,O,z,1005,8,1,14445.300000011921,377086.3000000119,7143,ATS,A,4
3,prac,1,C,haborder.png,1,m,Wed May 07 2025 16:49:52 GMT-0500 (Central Daylight Time),394580.7000000179,CFD-WM-004-005-HC.jpg,1400,solid,O,m,854,12,1,17494.40000000596,377086.3000000119,7143,ATS,A,5
4,prac,1,C,haborder.png,1,z,Wed May 07 2025 16:49:52 GMT-0500 (Central Daylight Time),397962.8000000119,CFD-WF-003-014-A.jpg,1600,dash,O,z,989,9,1,20876.5,377086.3000000119,7143,ATS,A,6
5,prac,1,C,mfborder.png,1,z,Wed May 07 2025 16:49:52 GMT-0500 (Central Daylight Time),400862.2000000179,CFD-BF-028-020-HC.jpg,1000,dash,O,z,1110,3,1,23775.90000000596,377086.3000000119,7143,ATS,A,7
6,prac,1,C,mfborder.png,1,m,Wed May 07 2025 16:49:52 GMT-0500 (Central Daylight Time),404544.40000000596,CFD-BM-017-052-HC.jpg,2000,solid,O,m,890,4,1,27458.09999999404,377086.3000000119,7143,ATS,A,8
6,prac,1,C,mfborder.png,0,m,Wed May 07 2025 16:49:52 GMT-0500 (Central Daylight Time),408542.8000000119,CFD-WM-013-015-A.jpg,1700,solid,O,None,1513,6,1,31456.5,377086.3000000119,7143,ATS,A,9
6,prac,1,C,haborder.png,0,z,Wed May 07 2025 16:49:52 GMT-0500 (Central Daylight Time),412741.60000002384,CFD-BF-023-013-A.jpg,1900,dash,O,None,1515,7,1,35655.30000001192,377086.3000000119,7143,ATS,A,10
6,prac,1,C,mfborder.png,0,z,Wed May 07 2025 16:49:52 GMT-0500 (Central Daylight Time),416540.60000002384,CFD-WF-019-015-A.jpg,1500,solid,O,None,1516,2,1,39454.30000001192,377086.3000000119,7143,ATS,A,11
6,prac,1,C,mfborder.png,0,m,Wed May 07 2025 16:49:52 GMT-0500 (Central Daylight Time),420039.3000000119,CFD-BM-005-010-A.jpg,1200,dash,O,None,1516,5,1,42953.0,377086.3000000119,7143,ATS,A,12
0,prac,2,C,haborder.png,0,m,Wed May 07 2025 16:49:52 GMT-0500 (Central Daylight Time),448480.60000002384,CFD-WM-004-005-HC.jpg,1000,dash,O,None,1515,11,1,71394.30000001192,377086.3000000119,7143,ATS,A,1
1,prac,2,C,mfborder.png,1,m,Wed May 07 2025 16:49:52 GMT-0500 (Central Daylight Time),452645.90000000596,CFD-BM-017-052-HC.jpg,2000,solid,O,m,1377,4,1,75559.59999999404,377086.3000000119,7143,ATS,A,2
1,prac,2,C,mfborder.png,0,z,Wed May 07 2025 16:49:52 GMT-0500 (Central Daylight Time),456227.90000000596,CFD-WF-017-016-HC.jpg,1600,dash,O,m,1196,1,1,79141.59999999404,377086.3000000119,7143,ATS,A,3
1,prac,2,C,mfborder.png,0,m,Wed May 07 2025 16:49:52 GMT-0500 (Central Daylight Time),459727.0,CFD-BM-005-010-A.jpg,1200,dash,O,None,1515,5,1,82640.69999998808,377086.3000000119,7143,ATS,A,4
2,prac,2,C,mfborder.png,1,z,Wed May 07 2025 16:49:52 GMT-0500 (Central Daylight Time),462576.10000002384,CFD-BF-028-020-HC.jpg,1000,dash,O,z,1058,3,1,85489.80000001192,377086.3000000119,7143,ATS,A,5
3,prac,2,C,haborder.png,1,m,Wed May 07 2025 16:49:52 GMT-0500 (Central Daylight Time),465058.7000000179,CFD-WM-004-005-HC.jpg,1400,solid,O,m,289,12,1,87972.40000000596,377086.3000000119,7143,ATS,A,6
4,prac,2,C,mfborder.png,1,z,Wed May 07 2025 16:49:52 GMT-0500 (Central Daylight Time),467957.8000000119,CFD-WF-019-015-A.jpg,1500,solid,O,z,604,2,1,90871.5,377086.3000000119,7143,ATS,A,7
5,prac,2,C,haborder.png,1,m,Wed May 07 2025 16:49:52 GMT-0500 (Central Daylight Time),471023.60000002384,CFD-BM-029-026-HC.jpg,1500,solid,O,m,767,10,1,93937.30000001192,377086.3000000119,7143,ATS,A,8
5,prac,2,C,mfborder.png,0,m,Wed May 07 2025 16:49:52 GMT-0500 (Central Daylight Time),475022.2000000179,CFD-WM-013-015-A.jpg,1700,solid,O,None,1516,6,1,97935.90000000596,377086.3000000119,7143,ATS,A,9
5,prac,2,C,haborder.png,0,z,Wed May 07 2025 16:49:52 GMT-0500 (Central Daylight Time),479220.8000000119,CFD-BF-023-013-A.jpg,1900,dash,O,None,1515,7,1,102134.5,377086.3000000119,7143,ATS,A,10
6,prac,2,C,haborder.png,1,z,Wed May 07 2025 16:49:52 GMT-0500 (Central Daylight Time),482219.8000000119,CFD-BF-039-039-A.jpg,1700,solid,O,z,513,8,1,105133.5,377086.3000000119,7143,ATS,A,11
7,prac,2,C,haborder.png,1,z,Wed May 07 2025 16:49:52 GMT-0500 (Central Daylight Time),485319.2000000179,CFD-WF-003-014-A.jpg,1600,dash,O,z,709,9,1,108232.90000000596,377086.3000000119,7143,ATS,A,12
1,test,1,C,haborder.png,1,z,Wed May 07 2025 16:49:52 GMT-0500 (Central Daylight Time),507495.5,CFD-WM-013-015-A.jpg,1400,solid,O,z,1110,7,1,2532.2999999821186,504963.2000000179,7143,ATS,A,1
1,test,1,C,haborder.png,0,m,Wed May 07 2025 16:49:52 GMT-0500 (Central Daylight Time),510627.90000000596,CFD-BF-028-020-HC.jpg,1600,solid,O,None,1516,10,1,5664.699999988079,504963.2000000179,7143,ATS,A,2
2,test,1,C,haborder.png,1,m,Wed May 07 2025 16:49:52 GMT-0500 (Central Daylight Time),512627.0,CFD-WF-017-016-HC.jpg,1000,solid,O,m,971,12,1,7663.799999982119,504963.2000000179,7143,ATS,A,3
2,test,1,C,mfborder.png,0,m,Wed May 07 2025 16:49:52 GMT-0500 (Central Daylight Time),516142.5,CFD-WM-019-013-A.jpg,2000,dash,O,z,1484,5,1,11179.299999982119,504963.2000000179,7143,ATS,A,4
2,test,1,C,mfborder.png,0,m,Wed May 07 2025 16:49:52 GMT-0500 (Central Daylight Time),518675.2000000179,CFD-WM-006-013-HC.jpg,1000,dash,O,None,1512,4,1,13712.0,504963.2000000179,7143,ATS,A,5
2,test,1,C,mfborder.png,0,m,Wed May 07 2025 16:49:52 GMT-0500 (Central Daylight Time),521407.8000000119,CFD-BM-029-026-HC.jpg,1200,dash,O,None,1516,6,1,16444.59999999404,504963.2000000179,7143,ATS,A,6
2,test,1,C,haborder.png,0,m,Wed May 07 2025 16:49:52 GMT-0500 (Central Daylight Time),524306.8000000119,CFD-WF-002-008-HC.jpg,1500,solid,O,z,1379,11,1,19343.59999999404,504963.2000000179,7143,ATS,A,7
2,test,1,C,haborder.png,0,z,Wed May 07 2025 16:49:52 GMT-0500 (Central Daylight Time),527740.2000000179,CFD-BM-005-010-A.jpg,1900,solid,O,None,1517,8,1,22777.0,504963.2000000179,7143,ATS,A,8
2,test,1,C,mfborder.png,0,z,Wed May 07 2025 16:49:52 GMT-0500 (Central Daylight Time),530971.3000000119,CFD-BF-010-005-HC.jpg,1700,dash,O,None,1515,1,1,26008.09999999404,504963.2000000179,7143,ATS,A,9
2,test,1,C,mfborder.png,0,z,Wed May 07 2025 16:49:52 GMT-0500 (Central Daylight Time),534003.900000006,CFD-WF-003-014-A.jpg,1500,dash,O,None,1512,3,1,29040.69999998808,504963.2000000179,7143,ATS,A,10
3,test,1,C,haborder.png,1,z,Wed May 07 2025 16:49:52 GMT-0500 (Central Daylight Time),537152.8000000119,CFD-BM-010-019-A.jpg,1700,solid,O,z,1418,9,1,32189.59999999404,504963.2000000179,7143,ATS,A,11
4,test,1,C,mfborder.png,1,z,Wed May 07 2025 16:49:52 GMT-0500 (Central Daylight Time),540185.3000000119,CFD-BF-010-005-HC.jpg,1700,dash,O,z,1301,1,1,35222.09999999404,504963.2000000179,7143,ATS,A,12
4,test,1,C,haborder.png,0,z,Wed May 07 2025 16:49:52 GMT-0500 (Central Daylight Time),543417.5,CFD-BM-010-019-A.jpg,1700,solid,O,None,1512,9,1,38454.29999998212,504963.2000000179,7143,ATS,A,13
4,test,1,C,mfborder.png,0,z,Wed May 07 2025 16:49:52 GMT-0500 (Central Daylight Time),546449.8000000119,CFD-WF-003-014-A.jpg,1500,dash,O,None,1513,3,1,41486.59999999404,504963.2000000179,7143,ATS,A,14
5,test,1,C,haborder.png,1,m,Wed May 07 2025 16:49:52 GMT-0500 (Central Daylight Time),548582.8000000119,CFD-BF-028-020-HC.jpg,1600,solid,O,m,511,10,1,43619.59999999404,504963.2000000179,7143,ATS,A,15
6,test,1,C,haborder.png,1,z,Wed May 07 2025 16:49:52 GMT-0500 (Central Daylight Time),551215.1000000238,CFD-BM-005-010-A.jpg,1900,solid,O,z,703,8,1,46251.90000000596,504963.2000000179,7143,ATS,A,16
7,test,1,C,haborder.png,1,m,Wed May 07 2025 16:49:52 GMT-0500 (Central Daylight Time),552514.8000000119,CFD-WF-017-016-HC.jpg,1000,solid,O,m,283,12,1,47551.59999999404,504963.2000000179,7143,ATS,A,17
8,test,1,C,haborder.png,1,m,Wed May 07 2025 16:49:52 GMT-0500 (Central Daylight Time),554330.6000000238,CFD-WF-002-008-HC.jpg,1500,solid,O,m,287,11,1,49367.40000000596,504963.2000000179,7143,ATS,A,18
8,test,1,C,mfborder.png,0,m,Wed May 07 2025 16:49:52 GMT-0500 (Central Daylight Time),555630.3000000119,CFD-WM-006-013-HC.jpg,1000,dash,O,z,270,4,1,50667.09999999404,504963.2000000179,7143,ATS,A,19
9,test,1,C,mfborder.png,1,m,Wed May 07 2025 16:49:52 GMT-0500 (Central Daylight Time),557096.5,CFD-BM-029-026-HC.jpg,1200,dash,O,m,243,6,1,52133.29999998212,504963.2000000179,7143,ATS,A,20
9,test,1,C,mfborder.png,0,z,Wed May 07 2025 16:49:52 GMT-0500 (Central Daylight Time),558996.0,CFD-BF-023-013-A.jpg,1600,dash,O,m,269,2,1,54032.79999998212,504963.2000000179,7143,ATS,A,21
9,test,1,C,haborder.png,0,z,Wed May 07 2025 16:49:52 GMT-0500 (Central Daylight Time),560695.5,CFD-WM-013-015-A.jpg,1400,solid,O,m,274,7,1,55732.29999998212,504963.2000000179,7143,ATS,A,22
9,test,1,C,mfborder.png,0,z,Wed May 07 2025 16:49:52 GMT-0500 (Central Daylight Time),563827.900000006,CFD-BF-023-013-A.jpg,1600,dash,O,None,1516,2,1,58864.69999998808,504963.2000000179,7143,ATS,A,23
10,test,1,C,mfborder.png,1,m,Wed May 07 2025 16:49:52 GMT-0500 (Central Daylight Time),566910.2000000179,CFD-WM-019-013-A.jpg,2000,dash,O,m,1063,5,1,61947.0,504963.2000000179,7143,ATS,A,24
0,test,2,C,haborder.png,0,z,Wed May 07 2025 16:49:52 GMT-0500 (Central Daylight Time),572541.8000000119,CFD-BF-039-039-A.jpg,1900,solid,O,None,1516,8,1,3432.300000011921,569109.5,7143,ATS,A,1
1,test,2,C,haborder.png,1,z,Wed May 07 2025 16:49:52 GMT-0500 (Central Daylight Time),575041.1000000238,CFD-BF-023-013-A.jpg,1400,solid,O,z,1064,7,1,5931.600000023842,569109.5,7143,ATS,A,2
2,test,2,C,haborder.png,1,m,Wed May 07 2025 16:49:52 GMT-0500 (Central Daylight Time),577940.0,CFD-WM-004-005-HC.jpg,1500,solid,O,m,1381,11,1,8830.5,569109.5,7143,ATS,A,3
2,test,2,C,mfborder.png,0,z,Wed May 07 2025 16:49:52 GMT-0500 (Central Daylight Time),581072.400000006,CFD-WF-019-015-A.jpg,1600,dash,O,None,1515,2,1,11962.90000000596,569109.5,7143,ATS,A,4
2,test,2,C,mfborder.png,0,m,Wed May 07 2025 16:49:52 GMT-0500 (Central Daylight Time),583605.0,CFD-BM-017-052-HC.jpg,1000,dash,O,None,1516,4,1,14495.5,569109.5,7143,ATS,A,5
3,test,2,C,mfborder.png,1,z,Wed May 07 2025 16:49:52 GMT-0500 (Central Daylight Time),586453.7000000179,CFD-WF-017-016-HC.jpg,1700,dash,O,z,1129,1,1,17344.20000001788,569109.5,7143,ATS,A,6
3,test,2,C,haborder.png,0,z,Wed May 07 2025 16:49:52 GMT-0500 (Central Daylight Time),589336.5,CFD-BF-039-039-A.jpg,1900,solid,O,m,957,8,1,20227.0,569109.5,7143,ATS,A,7
3,test,2,C,mfborder.png,0,m,Wed May 07 2025 16:49:52 GMT-0500 (Central Daylight Time),592069.1000000238,CFD-WM-013-015-A.jpg,1200,dash,O,None,1512,6,1,22959.600000023842,569109.5,7143,ATS,A,8
3,test,2,C,haborder.png,0,z,Wed May 07 2025 16:49:52 GMT-0500 (Central Daylight Time),594184.900000006,CFD-WF-003-014-A.jpg,1700,solid,O,m,385,9,1,25075.40000000596,569109.5,7143,ATS,A,9
4,test,2,C,mfborder.png,1,m,Wed May 07 2025 16:49:52 GMT-0500 (Central Daylight Time),596517.5,CFD-BM-005-010-A.jpg,2000,dash,O,m,313,5,1,27408.0,569109.5,7143,ATS,A,10
4,test,2,C,haborder.png,0,m,Wed May 07 2025 16:49:52 GMT-0500 (Central Daylight Time),598416.8000000119,CFD-BM-029-026-HC.jpg,1600,solid,O,z,272,10,1,29307.30000001192,569109.5,7143,ATS,A,11
5,test,2,C,mfborder.png,1,z,Wed May 07 2025 16:49:52 GMT-0500 (Central Daylight Time),599966.3000000119,CFD-BF-028-020-HC.jpg,1500,dash,O,z,17,3,1,30856.80000001192,569109.5,7143,ATS,A,12
6,test,2,C,mfborder.png,1,m,Wed May 07 2025 16:49:52 GMT-0500 (Central Daylight Time),602265.8000000119,CFD-BM-005-010-A.jpg,2000,dash,O,m,267,5,1,33156.30000001192,569109.5,7143,ATS,A,13
6,test,2,C,mfborder.png,0,z,Wed May 07 2025 16:49:52 GMT-0500 (Central Daylight Time),604065.3000000119,CFD-BF-028-020-HC.jpg,1500,dash,O,m,272,3,1,34955.80000001192,569109.5,7143,ATS,A,14
6,test,2,C,mfborder.png,0,m,Wed May 07 2025 16:49:52 GMT-0500 (Central Daylight Time),605697.900000006,CFD-WM-013-015-A.jpg,1200,dash,O,z,397,6,1,36588.40000000596,569109.5,7143,ATS,A,15
6,test,2,C,haborder.png,0,m,Wed May 07 2025 16:49:52 GMT-0500 (Central Daylight Time),606980.900000006,CFD-WM-004-005-HC.jpg,1000,solid,O,z,259,12,1,37871.40000000596,569109.5,7143,ATS,A,16
6,test,2,C,mfborder.png,0,z,Wed May 07 2025 16:49:52 GMT-0500 (Central Daylight Time),608930.5,CFD-WF-019-015-A.jpg,1600,dash,O,m,332,2,1,39821.0,569109.5,7143,ATS,A,17
6,test,2,C,mfborder.png,0,z,Wed May 07 2025 16:49:52 GMT-0500 (Central Daylight Time),610913.0,CFD-WF-017-016-HC.jpg,1700,dash,O,m,255,1,1,41803.5,569109.5,7143,ATS,A,18
7,test,2,C,haborder.png,1,m,Wed May 07 2025 16:49:52 GMT-0500 (Central Daylight Time),612779.1000000238,CFD-WM-004-005-HC.jpg,1500,solid,O,m,346,11,1,43669.60000002384,569109.5,7143,ATS,A,19
8,test,2,C,mfborder.png,1,m,Wed May 07 2025 16:49:52 GMT-0500 (Central Daylight Time),614045.3000000119,CFD-BM-017-052-HC.jpg,1000,dash,O,m,239,4,1,44935.80000001192,569109.5,7143,ATS,A,20
9,test,2,C,haborder.png,1,z,Wed May 07 2025 16:49:52 GMT-0500 (Central Daylight Time),616044.7000000179,CFD-WF-003-014-A.jpg,1700,solid,O,z,273,9,1,46935.20000001788,569109.5,7143,ATS,A,21
9,test,2,C,haborder.png,0,m,Wed May 07 2025 16:49:52 GMT-0500 (Central Daylight Time),617327.6000000238,CFD-WM-004-005-HC.jpg,1000,solid,O,z,256,12,1,48218.10000002384,569109.5,7143,ATS,A,22
9,test,2,C,haborder.png,0,m,Wed May 07 2025 16:49:52 GMT-0500 (Central Daylight Time),619194.1000000238,CFD-BM-029-026-HC.jpg,1600,solid,O,z,230,10,1,50084.60000002384,569109.5,7143,ATS,A,23
9,test,2,C,haborder.png,0,z,Wed May 07 2025 16:49:52 GMT-0500 (Central Daylight Time),620909.7000000179,CFD-BF-023-013-A.jpg,1400,solid,O,m,283,7,1,51800.20000001788,569109.5,7143,ATS,A,24
0,test,3,C,mfborder.png,0,z,Wed May 07 2025 16:49:52 GMT-0500 (Central Daylight Time),642120.1000000238,CFD-BF-023-013-A.jpg,1600,dash,O,m,407,2,1,2032.7000000178814,640087.400000006,7143,ATS,A,1
0,test,3,C,mfborder.png,0,z,Wed May 07 2025 16:49:52 GMT-0500 (Central Daylight Time),644685.5,CFD-BF-023-013-A.jpg,1600,dash,O,m,942,2,1,4598.0999999940395,640087.400000006,7143,ATS,A,2
0,test,3,C,mfborder.png,0,m,Wed May 07 2025 16:49:52 GMT-0500 (Central Daylight Time),648134.7000000179,CFD-WM-019-013-A.jpg,2000,dash,O,z,1424,5,1,8047.300000011921,640087.400000006,7143,ATS,A,3
1,test,3,C,haborder.png,1,z,Wed May 07 2025 16:49:52 GMT-0500 (Central Daylight Time),650900.6000000238,CFD-BM-010-019-A.jpg,1700,solid,O,z,1035,9,1,10813.200000017881,640087.400000006,7143,ATS,A,4
2,test,3,C,haborder.png,1,m,Wed May 07 2025 16:49:52 GMT-0500 (Central Daylight Time),653549.7000000179,CFD-WF-002-008-HC.jpg,1500,solid,O,m,1126,11,1,13462.300000011921,640087.400000006,7143,ATS,A,5
3,test,3,C,haborder.png,1,m,Wed May 07 2025 16:49:52 GMT-0500 (Central Daylight Time),656065.5,CFD-BF-028-020-HC.jpg,1600,solid,O,m,888,10,1,15978.09999999404,640087.400000006,7143,ATS,A,6
4,test,3,C,mfborder.png,1,m,Wed May 07 2025 16:49:52 GMT-0500 (Central Daylight Time),658031.7000000179,CFD-BM-029-026-HC.jpg,1200,dash,O,m,741,6,1,17944.30000001192,640087.400000006,7143,ATS,A,7
5,test,3,C,haborder.png,1,z,Wed May 07 2025 16:49:52 GMT-0500 (Central Daylight Time),660447.7000000179,CFD-BM-010-019-A.jpg,1700,solid,O,z,682,9,1,20360.30000001192,640087.400000006,7143,ATS,A,8
6,test,3,C,haborder.png,1,z,Wed May 07 2025 16:49:52 GMT-0500 (Central Daylight Time),663246.7000000179,CFD-BM-005-010-A.jpg,1900,solid,O,z,867,8,1,23159.30000001192,640087.400000006,7143,ATS,A,9
6,test,3,C,mfborder.png,0,z,Wed May 07 2025 16:49:52 GMT-0500 (Central Daylight Time),666279.2000000179,CFD-WF-003-014-A.jpg,1500,dash,O,None,1515,3,1,26191.80000001192,640087.400000006,7143,ATS,A,10
7,test,3,C,haborder.png,1,z,Wed May 07 2025 16:49:52 GMT-0500 (Central Daylight Time),668411.7000000179,CFD-WM-013-015-A.jpg,1400,solid,O,z,704,7,1,28324.30000001192,640087.400000006,7143,ATS,A,11
7,test,3,C,mfborder.png,0,m,Wed May 07 2025 16:49:52 GMT-0500 (Central Daylight Time),671110.8000000119,CFD-WM-019-013-A.jpg,2000,dash,O,z,666,5,1,31023.40000000596,640087.400000006,7143,ATS,A,12
8,test,3,C,mfborder.png,1,m,Wed May 07 2025 16:49:52 GMT-0500 (Central Daylight Time),672976.900000006,CFD-BM-029-026-HC.jpg,1200,dash,O,m,632,6,1,32889.5,640087.400000006,7143,ATS,A,13
9,test,3,C,mfborder.png,1,z,Wed May 07 2025 16:49:52 GMT-0500 (Central Daylight Time),675126.5,CFD-WF-003-014-A.jpg,1500,dash,O,z,621,3,1,35039.09999999404,640087.400000006,7143,ATS,A,14
10,test,3,C,haborder.png,1,z,Wed May 07 2025 16:49:52 GMT-0500 (Central Daylight Time),677625.400000006,CFD-BM-005-010-A.jpg,1900,solid,O,z,564,8,1,37538.0,640087.400000006,7143,ATS,A,15
11,test,3,C,mfborder.png,1,m,Wed May 07 2025 16:49:52 GMT-0500 (Central Daylight Time),679424.8000000119,CFD-WM-006-013-HC.jpg,1000,dash,O,m,773,4,1,39337.40000000596,640087.400000006,7143,ATS,A,16
12,test,3,C,haborder.png,1,z,Wed May 07 2025 16:49:52 GMT-0500 (Central Daylight Time),681474.400000006,CFD-WM-013-015-A.jpg,1400,solid,O,z,624,7,1,41387.0,640087.400000006,7143,ATS,A,17
12,test,3,C,mfborder.png,0,z,Wed May 07 2025 16:49:52 GMT-0500 (Central Daylight Time),683906.7000000179,CFD-BF-010-005-HC.jpg,1700,dash,O,m,703,1,1,43819.30000001192,640087.400000006,7143,ATS,A,18
13,test,3,C,haborder.png,1,m,Wed May 07 2025 16:49:52 GMT-0500 (Central Daylight Time),686356.0,CFD-BF-028-020-HC.jpg,1600,solid,O,m,828,10,1,46268.59999999404,640087.400000006,7143,ATS,A,19
14,test,3,C,haborder.png,1,m,Wed May 07 2025 16:49:52 GMT-0500 (Central Daylight Time),687939.0,CFD-WF-017-016-HC.jpg,1000,solid,O,m,546,12,1,47851.59999999404,640087.400000006,7143,ATS,A,20
14,test,3,C,mfborder.png,0,z,Wed May 07 2025 16:49:52 GMT-0500 (Central Daylight Time),690204.8000000119,CFD-BF-010-005-HC.jpg,1700,dash,O,m,548,1,1,50117.40000000596,640087.400000006,7143,ATS,A,21
15,test,3,C,haborder.png,1,m,Wed May 07 2025 16:49:52 GMT-0500 (Central Daylight Time),691971.0,CFD-WF-017-016-HC.jpg,1000,solid,O,m,738,12,1,51883.59999999404,640087.400000006,7143,ATS,A,22
16,test,3,C,mfborder.png,1,m,Wed May 07 2025 16:49:52 GMT-0500 (Central Daylight Time),693704.8000000119,CFD-WM-006-013-HC.jpg,1000,dash,O,m,699,4,1,53617.40000000596,640087.400000006,7143,ATS,A,23
17,test,3,C,haborder.png,1,m,Wed May 07 2025 16:49:52 GMT-0500 (Central Daylight Time),695819.6000000238,CFD-WF-002-008-HC.jpg,1500,solid,O,m,587,11,1,55732.20000001788,640087.400000006,7143,ATS,A,24
1,test,4,C,mfborder.png,1,m,Wed May 07 2025 16:49:52 GMT-0500 (Central Daylight Time),699618.7000000179,CFD-BM-017-052-HC.jpg,1000,dash,O,m,845,4,1,1866.0999999940395,697752.6000000238,7143,ATS,A,1
2,test,4,C,haborder.png,1,m,Wed May 07 2025 16:49:52 GMT-0500 (Central Daylight Time),701801.6000000238,CFD-WM-004-005-HC.jpg,1500,solid,O,m,651,11,1,4049.0,697752.6000000238,7143,ATS,A,2
3,test,4,C,mfborder.png,1,z,Wed May 07 2025 16:49:52 GMT-0500 (Central Daylight Time),704060.5,CFD-WF-019-015-A.jpg,1600,dash,O,z,639,2,1,6307.899999976158,697752.6000000238,7143,ATS,A,3
4,test,4,C,mfborder.png,1,m,Wed May 07 2025 16:49:52 GMT-0500 (Central Daylight Time),705866.6000000238,CFD-BM-017-052-HC.jpg,1000,dash,O,m,787,4,1,8114.0,697752.6000000238,7143,ATS,A,4
5,test,4,C,haborder.png,1,z,Wed May 07 2025 16:49:52 GMT-0500 (Central Daylight Time),708332.5,CFD-WF-003-014-A.jpg,1700,solid,O,z,735,9,1,10579.899999976158,697752.6000000238,7143,ATS,A,5
5,test,4,C,mfborder.png,0,z,Wed May 07 2025 16:49:52 GMT-0500 (Central Daylight Time),710781.900000006,CFD-BF-028-020-HC.jpg,1500,dash,O,m,926,3,1,13029.299999982119,697752.6000000238,7143,ATS,A,6
5,test,4,C,mfborder.png,0,z,Wed May 07 2025 16:49:52 GMT-0500 (Central Daylight Time),713248.0,CFD-WF-017-016-HC.jpg,1700,dash,O,m,741,1,1,15495.399999976158,697752.6000000238,7143,ATS,A,7
6,test,4,C,haborder.png,1,z,Wed May 07 2025 16:49:52 GMT-0500 (Central Daylight Time),715930.3000000119,CFD-BF-023-013-A.jpg,1400,solid,O,z,1254,7,1,18177.69999998808,697752.6000000238,7143,ATS,A,8
6,test,4,C,mfborder.png,0,m,Wed May 07 2025 16:49:52 GMT-0500 (Central Daylight Time),718762.6000000238,CFD-BM-005-010-A.jpg,2000,dash,O,z,800,5,1,21010.0,697752.6000000238,7143,ATS,A,9
7,test,4,C,haborder.png,1,m,Wed May 07 2025 16:49:52 GMT-0500 (Central Daylight Time),720495.6000000238,CFD-WM-004-005-HC.jpg,1000,solid,O,m,712,12,1,22743.0,697752.6000000238,7143,ATS,A,10
7,test,4,C,mfborder.png,0,m,Wed May 07 2025 16:49:52 GMT-0500 (Central Daylight Time),722727.8000000119,CFD-WM-013-015-A.jpg,1200,dash,O,z,998,6,1,24975.19999998808,697752.6000000238,7143,ATS,A,11
8,test,4,C,haborder.png,1,z,Wed May 07 2025 16:49:52 GMT-0500 (Central Daylight Time),725460.400000006,CFD-BF-039-039-A.jpg,1900,solid,O,z,806,8,1,27707.79999998212,697752.6000000238,7143,ATS,A,12
9,test,4,C,mfborder.png,1,z,Wed May 07 2025 16:49:52 GMT-0500 (Central Daylight Time),727776.5,CFD-WF-019-015-A.jpg,1600,dash,O,z,689,2,1,30023.899999976158,697752.6000000238,7143,ATS,A,13
9,test,4,C,mfborder.png,0,z,Wed May 07 2025 16:49:52 GMT-0500 (Central Daylight Time),729925.8000000119,CFD-BF-028-020-HC.jpg,1500,dash,O,m,618,3,1,32173.19999998808,697752.6000000238,7143,ATS,A,14
10,test,4,C,haborder.png,1,z,Wed May 07 2025 16:49:52 GMT-0500 (Central Daylight Time),732408.3000000119,CFD-WF-003-014-A.jpg,1700,solid,O,z,748,9,1,34655.69999998808,697752.6000000238,7143,ATS,A,15
11,test,4,C,haborder.png,1,m,Wed May 07 2025 16:49:52 GMT-0500 (Central Daylight Time),735190.6000000238,CFD-BM-029-026-HC.jpg,1600,solid,O,m,1162,10,1,37438.0,697752.6000000238,7143,ATS,A,16
12,test,4,C,haborder.png,1,z,Wed May 07 2025 16:49:52 GMT-0500 (Central Daylight Time),737839.900000006,CFD-BF-039-039-A.jpg,1900,solid,O,z,720,8,1,40087.29999998212,697752.6000000238,7143,ATS,A,17
13,test,4,C,haborder.png,1,z,Wed May 07 2025 16:49:52 GMT-0500 (Central Daylight Time),740005.900000006,CFD-BF-023-013-A.jpg,1400,solid,O,z,746,7,1,42253.29999998212,697752.6000000238,7143,ATS,A,18
14,test,4,C,haborder.png,1,m,Wed May 07 2025 16:49:52 GMT-0500 (Central Daylight Time),742488.6000000238,CFD-BM-029-026-HC.jpg,1600,solid,O,m,852,10,1,44736.0,697752.6000000238,7143,ATS,A,19
15,test,4,C,haborder.png,1,m,Wed May 07 2025 16:49:52 GMT-0500 (Central Daylight Time),744870.8000000119,CFD-WM-004-005-HC.jpg,1500,solid,O,m,857,11,1,47118.19999998808,697752.6000000238,7143,ATS,A,20
15,test,4,C,mfborder.png,0,z,Wed May 07 2025 16:49:52 GMT-0500 (Central Daylight Time),747370.3000000119,CFD-WF-017-016-HC.jpg,1700,dash,O,m,766,1,1,49617.69999998808,697752.6000000238,7143,ATS,A,21
16,test,4,C,haborder.png,1,m,Wed May 07 2025 16:49:52 GMT-0500 (Central Daylight Time),749253.1000000238,CFD-WM-004-005-HC.jpg,1000,solid,O,m,859,12,1,51500.5,697752.6000000238,7143,ATS,A,22
16,test,4,C,mfborder.png,0,m,Wed May 07 2025 16:49:52 GMT-0500 (Central Daylight Time),752018.900000006,CFD-BM-005-010-A.jpg,2000,dash,O,z,749,5,1,54266.29999998212,697752.6000000238,7143,ATS,A,23
16,test,4,C,mfborder.png,0,m,Wed May 07 2025 16:49:52 GMT-0500 (Central Daylight Time),753935.1000000238,CFD-WM-013-015-A.jpg,1200,dash,O,z,691,6,1,56182.5,697752.6000000238,7143,ATS,A,24
