acc_sum,block,block_c,change,condition,correct,correct_response,datetime,endtime,face,project,response,response_time,row_sel,session_number,start_end,starttime,subject_id,task,task_vers,trial
0,prac,1,,1-Back,,,Tue May 05 2026 09:24:02 GMT-0500 (Central Daylight Time),,093_m_f_n_a.png,O,space,14166,1,1,,,7799,NNB,C,0
1,prac,1,0.0,1-Back,1.0,m,Tue May 05 2026 09:24:02 GMT-0500 (Central Daylight Time),161132.39999997616,098_y_f_n_a.png,O,m,1269,2,1,2099.399999976158,159033.0,7799,NNB,C,1
2,prac,1,1.0,1-Back,1.0,z,Tue May 05 2026 09:24:02 GMT-0500 (Central Daylight Time),163198.0,098_y_f_n_a.png,O,z,1287,3,1,2058.0,161140.0,7799,NNB,C,2
3,prac,1,0.0,1-Back,1.0,m,Tue May 05 2026 09:24:02 GMT-0500 (Central Daylight Time),165281.19999992847,059_o_m_n_a.png,O,m,1229,4,1,2073.0999999046326,163208.10000002384,7799,NNB,C,3
4,prac,1,0.0,1-Back,1.0,m,Tue May 05 2026 09:24:02 GMT-0500 (Central Daylight Time),167299.89999997616,092_m_m_n_a.png,O,m,1163,5,1,2011.1000000238419,165288.79999995232,7799,NNB,C,4
5,prac,1,1.0,1-Back,1.0,z,Tue May 05 2026 09:24:02 GMT-0500 (Central Daylight Time),169546.60000002384,092_m_m_n_a.png,O,z,1464,6,1,2233.100000023842,167313.5,7799,NNB,C,5
6,prac,1,0.0,1-Back,1.0,m,Tue May 05 2026 09:24:02 GMT-0500 (Central Daylight Time),171446.0,130_o_f_n_a.png,O,m,1040,7,1,1890.0,169556.0,7799,NNB,C,6
6,prac,1,0.0,1-Back,0.0,m,Tue May 05 2026 09:24:02 GMT-0500 (Central Daylight Time),174029.19999992847,082_m_m_n_a.png,O,z,1726,8,1,2571.7999999523163,171457.39999997616,7799,NNB,C,7
6,prac,1,0.0,1-Back,0.0,m,Tue May 05 2026 09:24:02 GMT-0500 (Central Daylight Time),176709.19999992847,093_m_f_n_a.png,O,z,1889,9,1,2668.2999999523163,174040.89999997616,7799,NNB,C,8
7,prac,1,1.0,1-Back,1.0,z,Tue May 05 2026 09:24:02 GMT-0500 (Central Daylight Time),178376.69999992847,093_m_f_n_a.png,O,z,877,10,1,1660.0999999046326,176716.60000002384,7799,NNB,C,9
8,prac,1,0.0,1-Back,1.0,m,Tue May 05 2026 09:24:02 GMT-0500 (Central Daylight Time),180092.79999995232,059_o_m_n_a.png,O,m,934,11,1,1705.2999999523163,178387.5,7799,NNB,C,10
8,prac,1,0.0,1-Back,0.0,m,Tue May 05 2026 09:24:02 GMT-0500 (Central Daylight Time),182476.10000002384,028_y_f_n_a.png,O,z,1534,12,1,2372.100000023842,180104.0,7799,NNB,C,11
0,test,1,0.0,1-Back,,,Tue May 05 2026 09:24:02 GMT-0500 (Central Daylight Time),182476.10000002384,098_y_f_n_a.png,O,space,18498,1,1,2372.100000023842,180104.0,7799,NNB,C,0
1,test,1,0.0,1-Back,1.0,m,Tue May 05 2026 09:24:02 GMT-0500 (Central Daylight Time),214631.5,006_m_f_n_a.png,O,m,576,2,1,1594.6000000238419,213036.89999997616,7799,NNB,C,1
2,test,1,0.0,1-Back,1.0,m,Tue May 05 2026 09:24:02 GMT-0500 (Central Daylight Time),216647.39999997616,028_y_f_n_a.png,O,m,994,3,1,2013.7000000476837,214633.69999992847,7799,NNB,C,2
3,test,1,1.0,1-Back,1.0,z,Tue May 05 2026 09:24:02 GMT-0500 (Central Daylight Time),218280.89999997616,028_y_f_n_a.png,O,z,609,4,1,1630.2999999523163,216650.60000002384,7799,NNB,C,3
4,test,1,0.0,1-Back,1.0,m,Tue May 05 2026 09:24:02 GMT-0500 (Central Daylight Time),220229.60000002384,006_m_f_n_a.png,O,m,929,5,1,1945.1000000238419,218284.5,7799,NNB,C,4
5,test,1,0.0,1-Back,1.0,m,Tue May 05 2026 09:24:02 GMT-0500 (Central Daylight Time),221945.79999995232,059_o_m_n_a.png,O,m,684,6,1,1711.3999999761581,220234.39999997616,7799,NNB,C,5
6,test,1,1.0,1-Back,1.0,z,Tue May 05 2026 09:24:02 GMT-0500 (Central Daylight Time),224028.60000002384,059_o_m_n_a.png,O,z,1062,7,1,2078.3000000715256,221950.29999995232,7799,NNB,C,6
7,test,1,0.0,1-Back,1.0,m,Tue May 05 2026 09:24:02 GMT-0500 (Central Daylight Time),225860.39999997616,092_m_m_n_a.png,O,m,813,8,1,1827.7000000476837,224032.69999992847,7799,NNB,C,7
8,test,1,0.0,1-Back,1.0,m,Tue May 05 2026 09:24:02 GMT-0500 (Central Daylight Time),227709.89999997616,130_o_f_n_a.png,O,m,822,9,1,1846.7999999523163,225863.10000002384,7799,NNB,C,8
9,test,1,0.0,1-Back,1.0,m,Tue May 05 2026 09:24:02 GMT-0500 (Central Daylight Time),229809.79999995232,092_m_m_n_a.png,O,m,1076,10,1,2096.1999999284744,227713.60000002384,7799,NNB,C,9
10,test,1,0.0,1-Back,1.0,m,Tue May 05 2026 09:24:02 GMT-0500 (Central Daylight Time),231508.89999997616,057_y_m_n_a.png,O,m,681,11,1,1695.7000000476837,229813.19999992847,7799,NNB,C,10
11,test,1,1.0,1-Back,1.0,z,Tue May 05 2026 09:24:02 GMT-0500 (Central Daylight Time),233190.29999995232,057_y_m_n_a.png,O,z,659,12,1,1677.1000000238419,231513.19999992847,7799,NNB,C,11
12,test,1,0.0,1-Back,1.0,m,Tue May 05 2026 09:24:02 GMT-0500 (Central Daylight Time),235059.19999992847,030_o_f_n_a.png,O,m,835,13,1,1866.5999999046326,233192.60000002384,7799,NNB,C,12
13,test,1,1.0,1-Back,1.0,z,Tue May 05 2026 09:24:02 GMT-0500 (Central Daylight Time),236973.60000002384,030_o_f_n_a.png,O,z,895,14,1,1910.6000000238419,235063.0,7799,NNB,C,13
14,test,1,0.0,1-Back,1.0,m,Tue May 05 2026 09:24:02 GMT-0500 (Central Daylight Time),238740.0,031_y_m_n_a.png,O,m,740,15,1,1762.8000000715256,236977.19999992847,7799,NNB,C,14
15,test,1,0.0,1-Back,1.0,m,Tue May 05 2026 09:24:02 GMT-0500 (Central Daylight Time),240622.60000002384,093_m_f_n_a.png,O,m,854,16,1,1878.3000000715256,238744.29999995232,7799,NNB,C,15
16,test,1,0.0,1-Back,1.0,m,Tue May 05 2026 09:24:02 GMT-0500 (Central Daylight Time),242255.5,146_o_m_n_a.png,O,m,611,17,1,1629.7000000476837,240625.79999995232,7799,NNB,C,16
17,test,1,0.0,1-Back,1.0,m,Tue May 05 2026 09:24:02 GMT-0500 (Central Daylight Time),243939.10000002384,093_m_f_n_a.png,O,m,649,18,1,1681.0,242258.10000002384,7799,NNB,C,17
0,test,2,0.0,1-Back,,,Tue May 05 2026 09:24:02 GMT-0500 (Central Daylight Time),243939.10000002384,092_m_m_n_a.png,O,space,1854,1,1,1681.0,242258.10000002384,7799,NNB,C,0
1,test,2,0.0,1-Back,1.0,m,Tue May 05 2026 09:24:02 GMT-0500 (Central Daylight Time),249404.29999995232,006_m_f_n_a.png,O,m,556,2,1,1577.1000000238419,247827.19999992847,7799,NNB,C,1
2,test,2,1.0,1-Back,1.0,z,Tue May 05 2026 09:24:02 GMT-0500 (Central Daylight Time),250935.69999992847,006_m_f_n_a.png,O,z,509,3,1,1528.3999999761581,249407.29999995232,7799,NNB,C,2
3,test,2,0.0,1-Back,1.0,m,Tue May 05 2026 09:24:02 GMT-0500 (Central Daylight Time),252602.79999995232,092_m_m_n_a.png,O,m,641,4,1,1662.7999999523163,250940.0,7799,NNB,C,3
4,test,2,0.0,1-Back,1.0,m,Tue May 05 2026 09:24:02 GMT-0500 (Central Daylight Time),254385.10000002384,057_y_m_n_a.png,O,m,751,5,1,1779.0,252606.10000002384,7799,NNB,C,4
5,test,2,0.0,1-Back,1.0,m,Tue May 05 2026 09:24:02 GMT-0500 (Central Daylight Time),256184.89999997616,098_y_f_n_a.png,O,m,777,6,1,1797.7000000476837,254387.19999992847,7799,NNB,C,5
6,test,2,1.0,1-Back,1.0,z,Tue May 05 2026 09:24:02 GMT-0500 (Central Daylight Time),257717.5,098_y_f_n_a.png,O,z,504,7,1,1530.2000000476837,256187.29999995232,7799,NNB,C,6
7,test,2,0.0,1-Back,1.0,m,Tue May 05 2026 09:24:02 GMT-0500 (Central Daylight Time),259418.60000002384,057_y_m_n_a.png,O,m,683,8,1,1697.6000000238419,257721.0,7799,NNB,C,7
8,test,2,0.0,1-Back,1.0,m,Tue May 05 2026 09:24:02 GMT-0500 (Central Daylight Time),261215.5,030_o_f_n_a.png,O,m,776,9,1,1793.3999999761581,259422.10000002384,7799,NNB,C,8
9,test,2,0.0,1-Back,1.0,m,Tue May 05 2026 09:24:02 GMT-0500 (Central Daylight Time),262967.0,082_m_m_n_a.png,O,m,726,10,1,1747.3999999761581,261219.60000002384,7799,NNB,C,9
10,test,2,1.0,1-Back,1.0,z,Tue May 05 2026 09:24:02 GMT-0500 (Central Daylight Time),264765.1999999285,082_m_m_n_a.png,O,z,772,11,1,1795.2999999523163,262969.89999997616,7799,NNB,C,10
11,test,2,0.0,1-Back,1.0,m,Tue May 05 2026 09:24:02 GMT-0500 (Central Daylight Time),266413.89999997616,030_o_f_n_a.png,O,m,628,12,1,1644.7000000476837,264769.1999999285,7799,NNB,C,11
12,test,2,0.0,1-Back,1.0,m,Tue May 05 2026 09:24:02 GMT-0500 (Central Daylight Time),268147.1999999285,130_o_f_n_a.png,O,m,714,13,1,1730.0,266417.1999999285,7799,NNB,C,12
13,test,2,0.0,1-Back,1.0,m,Tue May 05 2026 09:24:02 GMT-0500 (Central Daylight Time),269815.5,059_o_m_n_a.png,O,m,648,14,1,1663.8000000715256,268151.6999999285,7799,NNB,C,13
14,test,2,0.0,1-Back,1.0,m,Tue May 05 2026 09:24:02 GMT-0500 (Central Daylight Time),271496.39999997616,146_o_m_n_a.png,O,m,651,15,1,1677.7999999523163,269818.60000002384,7799,NNB,C,14
15,test,2,1.0,1-Back,1.0,z,Tue May 05 2026 09:24:02 GMT-0500 (Central Daylight Time),272980.60000002384,146_o_m_n_a.png,O,z,468,16,1,1479.5,271501.10000002384,7799,NNB,C,15
16,test,2,0.0,1-Back,1.0,m,Tue May 05 2026 09:24:02 GMT-0500 (Central Daylight Time),274612.10000002384,031_y_m_n_a.png,O,m,606,17,1,1628.7000000476837,272983.39999997616,7799,NNB,C,16
17,test,2,1.0,1-Back,1.0,z,Tue May 05 2026 09:24:02 GMT-0500 (Central Daylight Time),276429.1999999285,031_y_m_n_a.png,O,z,790,18,1,1813.5,274615.6999999285,7799,NNB,C,17
0,test,3,1.0,1-Back,,,Tue May 05 2026 09:24:02 GMT-0500 (Central Daylight Time),276429.1999999285,028_y_f_n_a.png,O,space,971,1,1,1813.5,274615.6999999285,7799,NNB,C,0
1,test,3,0.0,1-Back,1.0,m,Tue May 05 2026 09:24:02 GMT-0500 (Central Daylight Time),281060.10000002384,146_o_m_n_a.png,O,m,538,1,1,1560.8000000715256,279499.2999999523,7799,NNB,C,1
2,test,3,1.0,1-Back,1.0,z,Tue May 05 2026 09:24:02 GMT-0500 (Central Daylight Time),282676.0,146_o_m_n_a.png,O,z,589,1,1,1611.8000000715256,281064.1999999285,7799,NNB,C,2
3,test,3,0.0,1-Back,1.0,m,Tue May 05 2026 09:24:02 GMT-0500 (Central Daylight Time),284409.1999999285,093_m_f_n_a.png,O,m,708,1,1,1729.7999999523163,282679.39999997616,7799,NNB,C,3
4,test,3,1.0,1-Back,1.0,z,Tue May 05 2026 09:24:02 GMT-0500 (Central Daylight Time),286292.10000002384,093_m_f_n_a.png,O,z,863,1,1,1879.3000000715256,284412.7999999523,7799,NNB,C,4
5,test,3,0.0,1-Back,1.0,m,Tue May 05 2026 09:24:02 GMT-0500 (Central Daylight Time),287926.10000002384,030_o_f_n_a.png,O,m,612,1,1,1630.6000000238419,286295.5,7799,NNB,C,5
6,test,3,0.0,1-Back,1.0,m,Tue May 05 2026 09:24:02 GMT-0500 (Central Daylight Time),289640.39999997616,057_y_m_n_a.png,O,m,693,1,1,1710.6000000238419,287929.7999999523,7799,NNB,C,6
7,test,3,0.0,1-Back,1.0,m,Tue May 05 2026 09:24:02 GMT-0500 (Central Daylight Time),291490.2999999523,030_o_f_n_a.png,O,m,817,1,1,1846.8999999761581,289643.39999997616,7799,NNB,C,7
8,test,3,0.0,1-Back,1.0,m,Tue May 05 2026 09:24:02 GMT-0500 (Central Daylight Time),293123.10000002384,031_y_m_n_a.png,O,m,606,1,1,1630.1000000238419,291493.0,7799,NNB,C,8
9,test,3,1.0,1-Back,1.0,z,Tue May 05 2026 09:24:02 GMT-0500 (Central Daylight Time),294922.2999999523,031_y_m_n_a.png,O,z,774,1,1,1795.6000000238419,293126.6999999285,7799,NNB,C,9
10,test,3,0.0,1-Back,1.0,m,Tue May 05 2026 09:24:02 GMT-0500 (Central Daylight Time),296488.10000002384,006_m_f_n_a.png,O,m,542,1,1,1562.3000000715256,294925.7999999523,7799,NNB,C,10
11,test,3,0.0,1-Back,1.0,m,Tue May 05 2026 09:24:02 GMT-0500 (Central Daylight Time),298155.39999997616,098_y_f_n_a.png,O,m,633,1,1,1664.0,296491.39999997616,7799,NNB,C,11
12,test,3,1.0,1-Back,1.0,z,Tue May 05 2026 09:24:02 GMT-0500 (Central Daylight Time),299637.5,098_y_f_n_a.png,O,z,463,1,1,1478.6000000238419,298158.89999997616,7799,NNB,C,12
13,test,3,0.0,1-Back,1.0,m,Tue May 05 2026 09:24:02 GMT-0500 (Central Daylight Time),301171.1999999285,006_m_f_n_a.png,O,m,502,1,1,1531.6999999284744,299639.5,7799,NNB,C,13
14,test,3,0.0,1-Back,1.0,m,Tue May 05 2026 09:24:02 GMT-0500 (Central Daylight Time),302737.7999999523,092_m_m_n_a.png,O,m,544,1,1,1562.7999999523163,301175.0,7799,NNB,C,14
15,test,3,1.0,1-Back,1.0,z,Tue May 05 2026 09:24:02 GMT-0500 (Central Daylight Time),304469.2999999523,092_m_m_n_a.png,O,z,704,1,1,1728.1999999284744,302741.10000002384,7799,NNB,C,15
16,test,3,0.0,1-Back,1.0,m,Tue May 05 2026 09:24:02 GMT-0500 (Central Daylight Time),306051.60000002384,130_o_f_n_a.png,O,m,557,1,1,1579.0,304472.60000002384,7799,NNB,C,16
16,test,3,1.0,1-Back,0.0,z,Tue May 05 2026 09:24:02 GMT-0500 (Central Daylight Time),308085.60000002384,130_o_f_n_a.png,O,m,1015,1,1,2031.3000000715256,306054.2999999523,7799,NNB,C,17
0,test,4,1.0,1-Back,,,Tue May 05 2026 09:24:02 GMT-0500 (Central Daylight Time),308085.60000002384,093_m_f_n_a.png,O,space,1156,1,1,2031.3000000715256,306054.2999999523,7799,NNB,C,0
1,test,4,0.0,1-Back,1.0,m,Tue May 05 2026 09:24:02 GMT-0500 (Central Daylight Time),312999.60000002384,146_o_m_n_a.png,O,m,634,2,1,1661.5,311338.10000002384,7799,NNB,C,1
2,test,4,0.0,1-Back,1.0,m,Tue May 05 2026 09:24:02 GMT-0500 (Central Daylight Time),314798.6999999285,093_m_f_n_a.png,O,m,777,3,1,1796.1999999284744,313002.5,7799,NNB,C,2
3,test,4,0.0,1-Back,1.0,m,Tue May 05 2026 09:24:02 GMT-0500 (Central Daylight Time),316548.5,030_o_f_n_a.png,O,m,731,4,1,1747.1000000238419,314801.39999997616,7799,NNB,C,3
4,test,4,1.0,1-Back,1.0,z,Tue May 05 2026 09:24:02 GMT-0500 (Central Daylight Time),318149.0,030_o_f_n_a.png,O,z,583,5,1,1597.6000000238419,316551.39999997616,7799,NNB,C,4
5,test,4,0.0,1-Back,1.0,m,Tue May 05 2026 09:24:02 GMT-0500 (Central Daylight Time),319813.60000002384,098_y_f_n_a.png,O,m,634,6,1,1660.9000000953674,318152.6999999285,7799,NNB,C,5
6,test,4,0.0,1-Back,1.0,m,Tue May 05 2026 09:24:02 GMT-0500 (Central Daylight Time),321596.2999999523,057_y_m_n_a.png,O,m,763,7,1,1780.5,319815.7999999523,7799,NNB,C,6
7,test,4,1.0,1-Back,1.0,z,Tue May 05 2026 09:24:02 GMT-0500 (Central Daylight Time),323297.60000002384,057_y_m_n_a.png,O,z,669,8,1,1698.5,321599.10000002384,7799,NNB,C,7
8,test,4,0.0,1-Back,1.0,m,Tue May 05 2026 09:24:02 GMT-0500 (Central Daylight Time),325030.5,098_y_f_n_a.png,O,m,700,9,1,1729.6000000238419,323300.89999997616,7799,NNB,C,8
9,test,4,0.0,1-Back,1.0,m,Tue May 05 2026 09:24:02 GMT-0500 (Central Daylight Time),326695.7999999523,082_m_m_n_a.png,O,m,646,10,1,1662.2999999523163,325033.5,7799,NNB,C,9
10,test,4,1.0,1-Back,1.0,z,Tue May 05 2026 09:24:02 GMT-0500 (Central Daylight Time),328511.7999999523,082_m_m_n_a.png,O,z,784,11,1,1813.6999999284744,326698.10000002384,7799,NNB,C,10
11,test,4,0.0,1-Back,1.0,m,Tue May 05 2026 09:24:02 GMT-0500 (Central Daylight Time),330177.1999999285,130_o_f_n_a.png,O,m,642,12,1,1661.5999999046326,328515.60000002384,7799,NNB,C,11
12,test,4,0.0,1-Back,1.0,m,Tue May 05 2026 09:24:02 GMT-0500 (Central Daylight Time),331743.5,059_o_m_n_a.png,O,m,535,13,1,1564.1000000238419,330179.39999997616,7799,NNB,C,12
13,test,4,0.0,1-Back,1.0,m,Tue May 05 2026 09:24:02 GMT-0500 (Central Daylight Time),333427.7999999523,130_o_f_n_a.png,O,m,666,14,1,1681.5,331746.2999999523,7799,NNB,C,13
14,test,4,0.0,1-Back,1.0,m,Tue May 05 2026 09:24:02 GMT-0500 (Central Daylight Time),335044.39999997616,028_y_f_n_a.png,O,m,590,15,1,1612.8999999761581,333431.5,7799,NNB,C,14
15,test,4,1.0,1-Back,1.0,z,Tue May 05 2026 09:24:02 GMT-0500 (Central Daylight Time),336625.60000002384,028_y_f_n_a.png,O,z,548,16,1,1578.5,335047.10000002384,7799,NNB,C,15
16,test,4,0.0,1-Back,1.0,m,Tue May 05 2026 09:24:02 GMT-0500 (Central Daylight Time),338224.7999999523,006_m_f_n_a.png,O,m,570,17,1,1596.7999999523163,336628.0,7799,NNB,C,16
16,test,4,1.0,1-Back,0.0,z,Tue May 05 2026 09:24:02 GMT-0500 (Central Daylight Time),339874.89999997616,006_m_f_n_a.png,O,m,624,18,1,1646.7000000476837,338228.1999999285,7799,NNB,C,17
0,test,5,1.0,1-Back,,,Tue May 05 2026 09:24:02 GMT-0500 (Central Daylight Time),339874.89999997616,059_o_m_n_a.png,O,space,926,1,1,1646.7000000476837,338228.1999999285,7799,NNB,C,0
1,test,5,1.0,1-Back,1.0,z,Tue May 05 2026 09:24:02 GMT-0500 (Central Daylight Time),344589.2999999523,059_o_m_n_a.png,O,z,745,2,1,1757.0,342832.2999999523,7799,NNB,C,1
2,test,5,0.0,1-Back,1.0,m,Tue May 05 2026 09:24:02 GMT-0500 (Central Daylight Time),346122.5,098_y_f_n_a.png,O,m,499,3,1,1529.8999999761581,344592.60000002384,7799,NNB,C,2
3,test,5,0.0,1-Back,1.0,m,Tue May 05 2026 09:24:02 GMT-0500 (Central Daylight Time),347823.2999999523,057_y_m_n_a.png,O,m,671,4,1,1698.1999999284744,346125.10000002384,7799,NNB,C,3
4,test,5,0.0,1-Back,1.0,m,Tue May 05 2026 09:24:02 GMT-0500 (Central Daylight Time),349487.7999999523,098_y_f_n_a.png,O,m,633,5,1,1662.0,347825.7999999523,7799,NNB,C,4
5,test,5,0.0,1-Back,1.0,m,Tue May 05 2026 09:24:02 GMT-0500 (Central Daylight Time),351237.89999997616,092_m_m_n_a.png,O,m,731,6,1,1746.7000000476837,349491.1999999285,7799,NNB,C,5
6,test,5,1.0,1-Back,1.0,z,Tue May 05 2026 09:24:02 GMT-0500 (Central Daylight Time),352686.6999999285,092_m_m_n_a.png,O,z,427,7,1,1445.6999999284744,351241.0,7799,NNB,C,6
7,test,5,0.0,1-Back,1.0,m,Tue May 05 2026 09:24:02 GMT-0500 (Central Daylight Time),354270.7999999523,028_y_f_n_a.png,O,m,556,8,1,1581.8999999761581,352688.89999997616,7799,NNB,C,7
8,test,5,0.0,1-Back,1.0,m,Tue May 05 2026 09:24:02 GMT-0500 (Central Daylight Time),355853.10000002384,031_y_m_n_a.png,O,m,556,9,1,1579.5,354273.60000002384,7799,NNB,C,8
8,test,5,0.0,1-Back,0.0,m,Tue May 05 2026 09:24:02 GMT-0500 (Central Daylight Time),357686.10000002384,028_y_f_n_a.png,O,z,812,10,1,1830.2000000476837,355855.89999997616,7799,NNB,C,9
9,test,5,0.0,1-Back,1.0,m,Tue May 05 2026 09:24:02 GMT-0500 (Central Daylight Time),359402.6999999285,130_o_f_n_a.png,O,m,692,11,1,1713.1999999284744,357689.5,7799,NNB,C,10
10,test,5,1.0,1-Back,1.0,z,Tue May 05 2026 09:24:02 GMT-0500 (Central Daylight Time),361085.39999997616,130_o_f_n_a.png,O,z,656,12,1,1679.7000000476837,359405.6999999285,7799,NNB,C,11
11,test,5,0.0,1-Back,1.0,m,Tue May 05 2026 09:24:02 GMT-0500 (Central Daylight Time),363017.60000002384,146_o_m_n_a.png,O,m,899,13,1,1930.0,361087.60000002384,7799,NNB,C,12
12,test,5,0.0,1-Back,1.0,m,Tue May 05 2026 09:24:02 GMT-0500 (Central Daylight Time),364682.89999997616,093_m_f_n_a.png,O,m,641,14,1,1661.7999999523163,363021.10000002384,7799,NNB,C,13
13,test,5,1.0,1-Back,1.0,z,Tue May 05 2026 09:24:02 GMT-0500 (Central Daylight Time),366599.5,093_m_f_n_a.png,O,z,893,15,1,1911.0,364688.5,7799,NNB,C,14
14,test,5,0.0,1-Back,1.0,m,Tue May 05 2026 09:24:02 GMT-0500 (Central Daylight Time),368381.60000002384,146_o_m_n_a.png,O,m,762,16,1,1778.7000000476837,366602.89999997616,7799,NNB,C,15
15,test,5,0.0,1-Back,1.0,m,Tue May 05 2026 09:24:02 GMT-0500 (Central Daylight Time),370031.5,006_m_f_n_a.png,O,m,626,17,1,1646.5,368385.0,7799,NNB,C,16
16,test,5,0.0,1-Back,1.0,m,Tue May 05 2026 09:24:02 GMT-0500 (Central Daylight Time),371714.39999997616,082_m_m_n_a.png,O,m,658,18,1,1679.7000000476837,370034.6999999285,7799,NNB,C,17
0,prac,1,0.0,2-Back,,,Tue May 05 2026 09:24:02 GMT-0500 (Central Daylight Time),371714.39999997616,031_y_m_n_a.png,O,space,10890,1,1,1679.7000000476837,370034.6999999285,7799,NNB,C,0
0,prac,1,0.0,2-Back,,,Tue May 05 2026 09:24:02 GMT-0500 (Central Daylight Time),371714.39999997616,006_m_f_n_a.png,O,space,10890,2,1,1679.7000000476837,370034.6999999285,7799,NNB,C,0
1,prac,1,1.0,2-Back,1.0,m,Tue May 05 2026 09:24:02 GMT-0500 (Central Daylight Time),514819.39999997616,146_o_m_n_a.png,O,m,1040,3,1,1889.7999999523163,512929.60000002384,7799,NNB,C,1
1,prac,1,0.0,2-Back,0.0,m,Tue May 05 2026 09:24:02 GMT-0500 (Central Daylight Time),517717.39999997616,130_o_f_n_a.png,O,None,2017,4,1,2881.7000000476837,514835.6999999285,7799,NNB,C,2
1,prac,1,0.0,2-Back,0.0,z,Tue May 05 2026 09:24:02 GMT-0500 (Central Daylight Time),519701.1999999285,146_o_m_n_a.png,O,m,1209,5,1,1973.3999999761581,517727.7999999523,7799,NNB,C,3
2,prac,1,1.0,2-Back,1.0,z,Tue May 05 2026 09:24:02 GMT-0500 (Central Daylight Time),521818.10000002384,130_o_f_n_a.png,O,z,1339,6,1,2107.9000000953674,519710.1999999285,7799,NNB,C,4
2,prac,1,0.0,2-Back,0.0,m,Tue May 05 2026 09:24:02 GMT-0500 (Central Daylight Time),524232.6999999285,082_m_m_n_a.png,O,z,1561,7,1,2403.5,521829.1999999285,7799,NNB,C,5
2,prac,1,0.0,2-Back,0.0,m,Tue May 05 2026 09:24:02 GMT-0500 (Central Daylight Time),527048.1000000238,059_o_m_n_a.png,O,z,1966,8,1,2802.8000000715256,524245.2999999523,7799,NNB,C,6
3,prac,1,0.0,2-Back,1.0,m,Tue May 05 2026 09:24:02 GMT-0500 (Central Daylight Time),529616.6999999285,028_y_f_n_a.png,O,m,1722,9,1,2560.7999999523163,527055.8999999762,7799,NNB,C,7
4,prac,1,1.0,2-Back,1.0,z,Tue May 05 2026 09:24:02 GMT-0500 (Central Daylight Time),531495.6000000238,059_o_m_n_a.png,O,z,1088,10,1,1868.8000000715256,529626.7999999523,7799,NNB,C,8
5,prac,1,0.0,2-Back,1.0,m,Tue May 05 2026 09:24:02 GMT-0500 (Central Daylight Time),533429.1999999285,098_y_f_n_a.png,O,m,1076,11,1,1925.2999999523163,531503.8999999762,7799,NNB,C,9
6,prac,1,0.0,2-Back,1.0,m,Tue May 05 2026 09:24:02 GMT-0500 (Central Daylight Time),535146.3999999762,082_m_m_n_a.png,O,m,940,12,1,1708.8999999761581,533437.5,7799,NNB,C,10
0,prac,2,0.0,2-Back,,,Tue May 05 2026 09:24:02 GMT-0500 (Central Daylight Time),535146.3999999762,031_y_m_n_a.png,O,a,4482,1,1,1708.8999999761581,533437.5,7799,NNB,C,0
0,prac,2,0.0,2-Back,,,Tue May 05 2026 09:24:02 GMT-0500 (Central Daylight Time),535146.3999999762,006_m_f_n_a.png,O,a,4482,2,1,1708.8999999761581,533437.5,7799,NNB,C,0
1,prac,2,1.0,2-Back,1.0,m,Tue May 05 2026 09:24:02 GMT-0500 (Central Daylight Time),546593.6000000238,146_o_m_n_a.png,O,m,887,3,1,1741.7000000476837,544851.8999999762,7799,NNB,C,1
2,prac,2,0.0,2-Back,1.0,m,Tue May 05 2026 09:24:02 GMT-0500 (Central Daylight Time),548292.5,130_o_f_n_a.png,O,m,826,4,1,1693.8000000715256,546598.6999999285,7799,NNB,C,2
2,prac,2,0.0,2-Back,0.0,z,Tue May 05 2026 09:24:02 GMT-0500 (Central Daylight Time),550174.3999999762,146_o_m_n_a.png,O,m,1091,5,1,1871.6000000238419,548302.7999999523,7799,NNB,C,3
3,prac,2,1.0,2-Back,1.0,z,Tue May 05 2026 09:24:02 GMT-0500 (Central Daylight Time),552324.1999999285,130_o_f_n_a.png,O,z,1372,6,1,2142.399999976158,550181.7999999523,7799,NNB,C,4
3,prac,2,0.0,2-Back,0.0,m,Tue May 05 2026 09:24:02 GMT-0500 (Central Daylight Time),554290.5,082_m_m_n_a.png,O,z,1180,7,1,1957.1000000238419,552333.3999999762,7799,NNB,C,5
4,prac,2,0.0,2-Back,1.0,m,Tue May 05 2026 09:24:02 GMT-0500 (Central Daylight Time),556389.0,059_o_m_n_a.png,O,m,1238,8,1,2088.399999976158,554300.6000000238,7799,NNB,C,6
5,prac,2,0.0,2-Back,1.0,m,Tue May 05 2026 09:24:02 GMT-0500 (Central Daylight Time),558506.2999999523,028_y_f_n_a.png,O,m,1257,9,1,2107.399999976158,556398.8999999762,7799,NNB,C,7
6,prac,2,1.0,2-Back,1.0,z,Tue May 05 2026 09:24:02 GMT-0500 (Central Daylight Time),560439.0,059_o_m_n_a.png,O,z,1142,10,1,1923.3000000715256,558515.6999999285,7799,NNB,C,8
7,prac,2,0.0,2-Back,1.0,m,Tue May 05 2026 09:24:02 GMT-0500 (Central Daylight Time),562321.1000000238,098_y_f_n_a.png,O,m,1016,11,1,1872.1000000238419,560449.0,7799,NNB,C,9
8,prac,2,0.0,2-Back,1.0,m,Tue May 05 2026 09:24:02 GMT-0500 (Central Daylight Time),564486.7999999523,082_m_m_n_a.png,O,m,1378,12,1,2159.1999999284744,562327.6000000238,7799,NNB,C,10
0,test,1,0.0,2-Back,,,Tue May 05 2026 09:24:02 GMT-0500 (Central Daylight Time),564486.7999999523,057_y_m_n_a.png,O,space,7464,1,1,2159.1999999284744,562327.6000000238,7799,NNB,C,0
0,test,1,0.0,2-Back,,,Tue May 05 2026 09:24:02 GMT-0500 (Central Daylight Time),564486.7999999523,057_y_m_n_a.png,O,space,7464,2,1,2159.1999999284744,562327.6000000238,7799,NNB,C,0
1,test,1,0.0,2-Back,1.0,m,Tue May 05 2026 09:24:02 GMT-0500 (Central Daylight Time),588678.7999999523,130_o_f_n_a.png,O,m,621,3,1,1647.0,587031.7999999523,7799,NNB,C,1
2,test,1,0.0,2-Back,1.0,m,Tue May 05 2026 09:24:02 GMT-0500 (Central Daylight Time),590395.6999999285,092_m_m_n_a.png,O,m,699,4,1,1714.1999999284744,588681.5,7799,NNB,C,2
2,test,1,1.0,2-Back,0.0,z,Tue May 05 2026 09:24:02 GMT-0500 (Central Daylight Time),592111.0,130_o_f_n_a.png,O,m,697,5,1,1711.8000000715256,590399.1999999285,7799,NNB,C,3
3,test,1,0.0,2-Back,1.0,m,Tue May 05 2026 09:24:02 GMT-0500 (Central Daylight Time),593994.1000000238,098_y_f_n_a.png,O,m,858,6,1,1880.1000000238419,592114.0,7799,NNB,C,4
3,test,1,0.0,2-Back,0.0,m,Tue May 05 2026 09:24:02 GMT-0500 (Central Daylight Time),595977.8999999762,092_m_m_n_a.png,O,z,951,7,1,1981.7000000476837,593996.1999999285,7799,NNB,C,5
4,test,1,1.0,2-Back,1.0,z,Tue May 05 2026 09:24:02 GMT-0500 (Central Daylight Time),597958.6000000238,098_y_f_n_a.png,O,z,961,8,1,1977.8000000715256,595980.7999999523,7799,NNB,C,6
5,test,1,0.0,2-Back,1.0,m,Tue May 05 2026 09:24:02 GMT-0500 (Central Daylight Time),600160.1000000238,031_y_m_n_a.png,O,m,1171,9,1,2198.9000000953674,597961.1999999285,7799,NNB,C,7
6,test,1,0.0,2-Back,1.0,m,Tue May 05 2026 09:24:02 GMT-0500 (Central Daylight Time),602241.0,030_o_f_n_a.png,O,m,1057,10,1,2077.899999976158,600163.1000000238,7799,NNB,C,8
7,test,1,1.0,2-Back,1.0,z,Tue May 05 2026 09:24:02 GMT-0500 (Central Daylight Time),604555.2999999523,031_y_m_n_a.png,O,z,1297,11,1,2310.899999976158,602244.3999999762,7799,NNB,C,9
8,test,1,0.0,2-Back,1.0,m,Tue May 05 2026 09:24:02 GMT-0500 (Central Daylight Time),606839.3999999762,006_m_f_n_a.png,O,m,1261,12,1,2281.7000000476837,604557.6999999285,7799,NNB,C,10
9,test,1,0.0,2-Back,1.0,m,Tue May 05 2026 09:24:02 GMT-0500 (Central Daylight Time),609589.3999999762,006_m_f_n_a.png,O,m,1721,13,1,2746.100000023842,606843.2999999523,7799,NNB,C,11
10,test,1,0.0,2-Back,1.0,m,Tue May 05 2026 09:24:02 GMT-0500 (Central Daylight Time),612003.8999999762,146_o_m_n_a.png,O,m,1387,14,1,2410.600000023842,609593.2999999523,7799,NNB,C,12
11,test,1,0.0,2-Back,1.0,m,Tue May 05 2026 09:24:02 GMT-0500 (Central Daylight Time),614104.7999999523,030_o_f_n_a.png,O,m,1078,15,1,2097.100000023842,612007.6999999285,7799,NNB,C,13
12,test,1,1.0,2-Back,1.0,z,Tue May 05 2026 09:24:02 GMT-0500 (Central Daylight Time),616037.8999999762,146_o_m_n_a.png,O,z,897,16,1,1930.5,614107.3999999762,7799,NNB,C,14
13,test,1,0.0,2-Back,1.0,m,Tue May 05 2026 09:24:02 GMT-0500 (Central Daylight Time),617918.8999999762,093_m_f_n_a.png,O,m,862,17,1,1875.6000000238419,616043.2999999523,7799,NNB,C,15
13,test,1,0.0,2-Back,0.0,m,Tue May 05 2026 09:24:02 GMT-0500 (Central Daylight Time),620200.2999999523,082_m_m_n_a.png,O,z,1250,18,1,2278.899999976158,617921.3999999762,7799,NNB,C,16
0,test,2,0.0,2-Back,,,Tue May 05 2026 09:24:02 GMT-0500 (Central Daylight Time),620200.2999999523,082_m_m_n_a.png,O,space,1249,1,1,2278.899999976158,617921.3999999762,7799,NNB,C,0
0,test,2,0.0,2-Back,,,Tue May 05 2026 09:24:02 GMT-0500 (Central Daylight Time),620200.2999999523,028_y_f_n_a.png,O,space,1249,2,1,2278.899999976158,617921.3999999762,7799,NNB,C,0
1,test,2,1.0,2-Back,1.0,z,Tue May 05 2026 09:24:02 GMT-0500 (Central Daylight Time),629182.1000000238,082_m_m_n_a.png,O,z,1595,3,1,2609.2000000476837,626572.8999999762,7799,NNB,C,1
2,test,2,0.0,2-Back,1.0,m,Tue May 05 2026 09:24:02 GMT-0500 (Central Daylight Time),630965.8999999762,093_m_f_n_a.png,O,m,755,4,1,1779.6000000238419,629186.2999999523,7799,NNB,C,2
3,test,2,0.0,2-Back,1.0,m,Tue May 05 2026 09:24:02 GMT-0500 (Central Daylight Time),633265.6000000238,028_y_f_n_a.png,O,m,1268,5,1,2296.4000000953674,630969.1999999285,7799,NNB,C,3
4,test,2,0.0,2-Back,1.0,m,Tue May 05 2026 09:24:02 GMT-0500 (Central Daylight Time),635630.8999999762,146_o_m_n_a.png,O,m,1337,6,1,2362.2000000476837,633268.6999999285,7799,NNB,C,4
5,test,2,0.0,2-Back,1.0,m,Tue May 05 2026 09:24:02 GMT-0500 (Central Daylight Time),637596.7999999523,098_y_f_n_a.png,O,m,940,7,1,1962.5,635634.2999999523,7799,NNB,C,5
6,test,2,1.0,2-Back,1.0,z,Tue May 05 2026 09:24:02 GMT-0500 (Central Daylight Time),639479.3999999762,146_o_m_n_a.png,O,z,866,8,1,1880.0,637599.3999999762,7799,NNB,C,6
7,test,2,0.0,2-Back,1.0,m,Tue May 05 2026 09:24:02 GMT-0500 (Central Daylight Time),641495.2999999523,031_y_m_n_a.png,O,m,985,9,1,2013.2999999523163,639482.0,7799,NNB,C,7
8,test,2,0.0,2-Back,1.0,m,Tue May 05 2026 09:24:02 GMT-0500 (Central Daylight Time),644495.8999999762,031_y_m_n_a.png,O,m,1979,10,1,2998.399999976158,641497.5,7799,NNB,C,8
9,test,2,0.0,2-Back,1.0,m,Tue May 05 2026 09:24:02 GMT-0500 (Central Daylight Time),646611.8999999762,006_m_f_n_a.png,O,m,1099,11,1,2113.0,644498.8999999762,7799,NNB,C,9
10,test,2,0.0,2-Back,1.0,m,Tue May 05 2026 09:24:02 GMT-0500 (Central Daylight Time),648559.6000000238,028_y_f_n_a.png,O,m,919,12,1,1944.3000000715256,646615.2999999523,7799,NNB,C,10
11,test,2,1.0,2-Back,1.0,z,Tue May 05 2026 09:24:02 GMT-0500 (Central Daylight Time),650093.3999999762,006_m_f_n_a.png,O,z,500,13,1,1530.5,648562.8999999762,7799,NNB,C,11
12,test,2,0.0,2-Back,1.0,m,Tue May 05 2026 09:24:02 GMT-0500 (Central Daylight Time),652140.3999999762,059_o_m_n_a.png,O,m,1029,14,1,2043.8999999761581,650096.5,7799,NNB,C,12
12,test,2,0.0,2-Back,0.0,m,Tue May 05 2026 09:24:02 GMT-0500 (Central Daylight Time),654458.8999999762,059_o_m_n_a.png,O,z,1299,15,1,2316.100000023842,652142.7999999523,7799,NNB,C,13
13,test,2,0.0,2-Back,1.0,m,Tue May 05 2026 09:24:02 GMT-0500 (Central Daylight Time),657106.3999999762,030_o_f_n_a.png,O,m,1617,16,1,2644.2000000476837,654462.1999999285,7799,NNB,C,14
14,test,2,0.0,2-Back,1.0,m,Tue May 05 2026 09:24:02 GMT-0500 (Central Daylight Time),659806.1999999285,092_m_m_n_a.png,O,m,1669,17,1,2695.399999976158,657110.7999999523,7799,NNB,C,15
15,test,2,1.0,2-Back,1.0,z,Tue May 05 2026 09:24:02 GMT-0500 (Central Daylight Time),661571.8999999762,030_o_f_n_a.png,O,z,740,18,1,1762.5,659809.3999999762,7799,NNB,C,16
0,test,3,1.0,2-Back,,,Tue May 05 2026 09:24:02 GMT-0500 (Central Daylight Time),661571.8999999762,057_y_m_n_a.png,O,space,1182,1,1,1762.5,659809.3999999762,7799,NNB,C,0
0,test,3,1.0,2-Back,,,Tue May 05 2026 09:24:02 GMT-0500 (Central Daylight Time),661571.8999999762,057_y_m_n_a.png,O,space,1182,2,1,1762.5,659809.3999999762,7799,NNB,C,0
1,test,3,0.0,2-Back,1.0,m,Tue May 05 2026 09:24:02 GMT-0500 (Central Daylight Time),669469.1000000238,030_o_f_n_a.png,O,m,552,3,1,1576.4000000953674,667892.6999999285,7799,NNB,C,1
2,test,3,0.0,2-Back,1.0,m,Tue May 05 2026 09:24:02 GMT-0500 (Central Daylight Time),671135.0,082_m_m_n_a.png,O,m,644,4,1,1664.1000000238419,669470.8999999762,7799,NNB,C,2
2,test,3,1.0,2-Back,0.0,z,Tue May 05 2026 09:24:02 GMT-0500 (Central Daylight Time),673252.8999999762,030_o_f_n_a.png,O,m,1098,5,1,2114.5,671138.3999999762,7799,NNB,C,3
3,test,3,0.0,2-Back,1.0,m,Tue May 05 2026 09:24:02 GMT-0500 (Central Daylight Time),675401.2999999523,031_y_m_n_a.png,O,m,1126,6,1,2145.6999999284744,673255.6000000238,7799,NNB,C,4
3,test,3,0.0,2-Back,0.0,m,Tue May 05 2026 09:24:02 GMT-0500 (Central Daylight Time),677601.3999999762,082_m_m_n_a.png,O,z,1184,7,1,2197.7000000476837,675403.6999999285,7799,NNB,C,5
3,test,3,1.0,2-Back,0.0,z,Tue May 05 2026 09:24:02 GMT-0500 (Central Daylight Time),679450.3999999762,031_y_m_n_a.png,O,m,827,8,1,1847.0,677603.3999999762,7799,NNB,C,6
4,test,3,0.0,2-Back,1.0,m,Tue May 05 2026 09:24:02 GMT-0500 (Central Daylight Time),681766.1999999285,028_y_f_n_a.png,O,m,1294,9,1,2313.399999976158,679452.7999999523,7799,NNB,C,7
5,test,3,0.0,2-Back,1.0,m,Tue May 05 2026 09:24:02 GMT-0500 (Central Daylight Time),683865.2999999523,092_m_m_n_a.png,O,m,1076,10,1,2096.1999999284744,681769.1000000238,7799,NNB,C,8
6,test,3,1.0,2-Back,1.0,z,Tue May 05 2026 09:24:02 GMT-0500 (Central Daylight Time),685449.0,028_y_f_n_a.png,O,z,552,11,1,1580.7000000476837,683868.2999999523,7799,NNB,C,9
7,test,3,1.0,2-Back,1.0,z,Tue May 05 2026 09:24:02 GMT-0500 (Central Daylight Time),687864.2999999523,092_m_m_n_a.png,O,z,1385,12,1,2412.100000023842,685452.1999999285,7799,NNB,C,10
8,test,3,0.0,2-Back,1.0,m,Tue May 05 2026 09:24:02 GMT-0500 (Central Daylight Time),689663.3999999762,030_o_f_n_a.png,O,m,777,13,1,1796.0,687867.3999999762,7799,NNB,C,11
9,test,3,0.0,2-Back,1.0,m,Tue May 05 2026 09:24:02 GMT-0500 (Central Daylight Time),691481.1000000238,093_m_f_n_a.png,O,m,785,14,1,1815.2000000476837,689665.8999999762,7799,NNB,C,12
10,test,3,0.0,2-Back,1.0,m,Tue May 05 2026 09:24:02 GMT-0500 (Central Daylight Time),693478.7999999523,146_o_m_n_a.png,O,m,971,15,1,1994.7999999523163,691484.0,7799,NNB,C,13
11,test,3,1.0,2-Back,1.0,z,Tue May 05 2026 09:24:02 GMT-0500 (Central Daylight Time),695377.6000000238,093_m_f_n_a.png,O,z,866,16,1,1895.6000000238419,693482.0,7799,NNB,C,14
12,test,3,0.0,2-Back,1.0,m,Tue May 05 2026 09:24:02 GMT-0500 (Central Daylight Time),697329.5,130_o_f_n_a.png,O,m,919,17,1,1948.5,695381.0,7799,NNB,C,15
12,test,3,0.0,2-Back,0.0,m,Tue May 05 2026 09:24:02 GMT-0500 (Central Daylight Time),699861.6999999285,130_o_f_n_a.png,O,z,1517,18,1,2529.0,697332.6999999285,7799,NNB,C,16
0,test,4,0.0,2-Back,,,Tue May 05 2026 09:24:02 GMT-0500 (Central Daylight Time),699861.6999999285,059_o_m_n_a.png,O,space,3170,1,1,2529.0,697332.6999999285,7799,NNB,C,0
0,test,4,0.0,2-Back,,,Tue May 05 2026 09:24:02 GMT-0500 (Central Daylight Time),699861.6999999285,098_y_f_n_a.png,O,space,3170,2,1,2529.0,697332.6999999285,7799,NNB,C,0
1,test,4,1.0,2-Back,1.0,z,Tue May 05 2026 09:24:02 GMT-0500 (Central Daylight Time),710290.1000000238,059_o_m_n_a.png,O,z,1059,3,1,2075.3000000715256,708214.7999999523,7799,NNB,C,1
2,test,4,1.0,2-Back,1.0,z,Tue May 05 2026 09:24:02 GMT-0500 (Central Daylight Time),712422.1000000238,098_y_f_n_a.png,O,z,1102,4,1,2129.600000023842,710292.5,7799,NNB,C,2
3,test,4,0.0,2-Back,1.0,m,Tue May 05 2026 09:24:02 GMT-0500 (Central Daylight Time),714389.1000000238,030_o_f_n_a.png,O,m,939,5,1,1964.2000000476837,712424.8999999762,7799,NNB,C,3
4,test,4,0.0,2-Back,1.0,m,Tue May 05 2026 09:24:02 GMT-0500 (Central Daylight Time),716772.5,030_o_f_n_a.png,O,m,1366,6,1,2380.899999976158,714391.6000000238,7799,NNB,C,4
5,test,4,0.0,2-Back,1.0,m,Tue May 05 2026 09:24:02 GMT-0500 (Central Daylight Time),719453.2999999523,006_m_f_n_a.png,O,m,1664,7,1,2678.0,716775.2999999523,7799,NNB,C,5
6,test,4,0.0,2-Back,1.0,m,Tue May 05 2026 09:24:02 GMT-0500 (Central Daylight Time),721304.0,031_y_m_n_a.png,O,m,828,8,1,1846.7000000476837,719457.2999999523,7799,NNB,C,6
7,test,4,1.0,2-Back,1.0,z,Tue May 05 2026 09:24:02 GMT-0500 (Central Daylight Time),722969.2999999523,006_m_f_n_a.png,O,z,640,9,1,1662.5,721306.7999999523,7799,NNB,C,7
8,test,4,0.0,2-Back,1.0,m,Tue May 05 2026 09:24:02 GMT-0500 (Central Daylight Time),724718.1000000238,092_m_m_n_a.png,O,m,721,10,1,1747.1000000238419,722971.0,7799,NNB,C,8
9,test,4,0.0,2-Back,1.0,m,Tue May 05 2026 09:24:02 GMT-0500 (Central Daylight Time),727251.0,031_y_m_n_a.png,O,m,1513,11,1,2527.3000000715256,724723.6999999285,7799,NNB,C,9
10,test,4,0.0,2-Back,1.0,m,Tue May 05 2026 09:24:02 GMT-0500 (Central Daylight Time),729233.8999999762,130_o_f_n_a.png,O,m,961,12,1,1977.6000000238419,727256.2999999523,7799,NNB,C,10
10,test,4,0.0,2-Back,0.0,m,Tue May 05 2026 09:24:02 GMT-0500 (Central Daylight Time),731082.8999999762,057_y_m_n_a.png,O,z,832,13,1,1843.5,729239.3999999762,7799,NNB,C,11
10,test,4,1.0,2-Back,0.0,z,Tue May 05 2026 09:24:02 GMT-0500 (Central Daylight Time),733332.1000000238,130_o_f_n_a.png,O,m,1230,14,1,2244.3000000715256,731087.7999999523,7799,NNB,C,12
10,test,4,1.0,2-Back,0.0,z,Tue May 05 2026 09:24:02 GMT-0500 (Central Daylight Time),735548.6000000238,057_y_m_n_a.png,O,m,1197,15,1,2212.8000000715256,733335.7999999523,7799,NNB,C,13
11,test,4,0.0,2-Back,1.0,m,Tue May 05 2026 09:24:02 GMT-0500 (Central Daylight Time),737516.1999999285,082_m_m_n_a.png,O,m,951,16,1,1962.5999999046326,735553.6000000238,7799,NNB,C,14
12,test,4,0.0,2-Back,1.0,m,Tue May 05 2026 09:24:02 GMT-0500 (Central Daylight Time),739662.7999999523,093_m_f_n_a.png,O,m,1118,17,1,2141.0,737521.7999999523,7799,NNB,C,15
13,test,4,1.0,2-Back,1.0,z,Tue May 05 2026 09:24:02 GMT-0500 (Central Daylight Time),741630.0,082_m_m_n_a.png,O,z,938,18,1,1963.0,739667.0,7799,NNB,C,16
0,test,5,1.0,2-Back,,,Tue May 05 2026 09:24:02 GMT-0500 (Central Daylight Time),741630.0,057_y_m_n_a.png,O,space,1019,1,1,1963.0,739667.0,7799,NNB,C,0
0,test,5,1.0,2-Back,,,Tue May 05 2026 09:24:02 GMT-0500 (Central Daylight Time),741630.0,093_m_f_n_a.png,O,space,1019,2,1,1963.0,739667.0,7799,NNB,C,0
1,test,5,1.0,2-Back,1.0,z,Tue May 05 2026 09:24:02 GMT-0500 (Central Daylight Time),749443.5,057_y_m_n_a.png,O,z,714,3,1,1726.2000000476837,747717.2999999523,7799,NNB,C,1
1,test,5,1.0,2-Back,0.0,z,Tue May 05 2026 09:24:02 GMT-0500 (Central Daylight Time),751059.6000000238,093_m_f_n_a.png,O,m,597,4,1,1611.5,749448.1000000238,7799,NNB,C,2
2,test,5,0.0,2-Back,1.0,m,Tue May 05 2026 09:24:02 GMT-0500 (Central Daylight Time),753176.6999999285,130_o_f_n_a.png,O,m,1084,5,1,2110.5,751066.1999999285,7799,NNB,C,3
2,test,5,0.0,2-Back,0.0,m,Tue May 05 2026 09:24:02 GMT-0500 (Central Daylight Time),754742.7999999523,057_y_m_n_a.png,O,z,548,6,1,1564.2999999523163,753178.5,7799,NNB,C,4
3,test,5,0.0,2-Back,1.0,m,Tue May 05 2026 09:24:02 GMT-0500 (Central Daylight Time),756859.3999999762,028_y_f_n_a.png,O,m,1084,7,1,2113.7000000476837,754745.6999999285,7799,NNB,C,5
3,test,5,0.0,2-Back,0.0,m,Tue May 05 2026 09:24:02 GMT-0500 (Central Daylight Time),758891.5,130_o_f_n_a.png,O,z,1006,8,1,2029.0,756862.5,7799,NNB,C,6
4,test,5,1.0,2-Back,1.0,z,Tue May 05 2026 09:24:02 GMT-0500 (Central Daylight Time),761324.5,028_y_f_n_a.png,O,z,1404,9,1,2430.0,758894.5,7799,NNB,C,7
5,test,5,0.0,2-Back,1.0,m,Tue May 05 2026 09:24:02 GMT-0500 (Central Daylight Time),763089.8999999762,146_o_m_n_a.png,O,m,732,10,1,1762.3999999761581,761327.5,7799,NNB,C,8
6,test,5,0.0,2-Back,1.0,m,Tue May 05 2026 09:24:02 GMT-0500 (Central Daylight Time),765405.1000000238,006_m_f_n_a.png,O,m,1287,11,1,2312.3000000715256,763092.7999999523,7799,NNB,C,9
6,test,5,0.0,2-Back,0.0,m,Tue May 05 2026 09:24:02 GMT-0500 (Central Daylight Time),767371.1999999285,092_m_m_n_a.png,O,z,948,12,1,1959.5,765411.6999999285,7799,NNB,C,10
6,test,5,0.0,2-Back,0.0,m,Tue May 05 2026 09:24:02 GMT-0500 (Central Daylight Time),769322.1999999285,146_o_m_n_a.png,O,z,934,13,1,1945.8999999761581,767376.2999999523,7799,NNB,C,11
6,test,5,1.0,2-Back,0.0,z,Tue May 05 2026 09:24:02 GMT-0500 (Central Daylight Time),772019.8999999762,092_m_m_n_a.png,O,m,1670,14,1,2694.600000023842,769325.2999999523,7799,NNB,C,12
7,test,5,0.0,2-Back,1.0,m,Tue May 05 2026 09:24:02 GMT-0500 (Central Daylight Time),774603.0,098_y_f_n_a.png,O,m,1550,15,1,2579.7000000476837,772023.2999999523,7799,NNB,C,13
8,test,5,0.0,2-Back,1.0,m,Tue May 05 2026 09:24:02 GMT-0500 (Central Daylight Time),776485.6999999285,059_o_m_n_a.png,O,m,853,16,1,1878.1999999284744,774607.5,7799,NNB,C,14
9,test,5,0.0,2-Back,1.0,m,Tue May 05 2026 09:24:02 GMT-0500 (Central Daylight Time),778568.1000000238,006_m_f_n_a.png,O,m,1050,17,1,2077.8000000715256,776490.2999999523,7799,NNB,C,15
10,test,5,1.0,2-Back,1.0,z,Tue May 05 2026 09:24:02 GMT-0500 (Central Daylight Time),780550.1999999285,059_o_m_n_a.png,O,z,962,18,1,1976.5999999046326,778573.6000000238,7799,NNB,C,16
