acc_sum,block,block_c,change,condition,correct,correct_response,datetime,endtime,face,project,response,response_time,row_sel,session_number,start_end,starttime,subject_id,task,task_vers,trial
0,prac,1,,1-Back,,,Fri May 09 2025 13:31:33 GMT-0500 (Central Daylight Time),,050_m_f_n_a.png,I,space,4564,1,2,,,8030,NNB,A,0
1,prac,1,0.0,1-Back,1,m,Fri May 09 2025 13:31:33 GMT-0500 (Central Daylight Time),107050.0,063_y_f_n_a.png,I,m,807,2,2,1608.6000000000931,105441.3999999999,8030,NNB,A,1
1,prac,1,1.0,1-Back,0,z,Fri May 09 2025 13:31:33 GMT-0500 (Central Daylight Time),108849.1000000001,063_y_f_n_a.png,I,m,1016,3,2,1792.3000000002794,107056.79999999981,8030,NNB,A,2
1,prac,1,0.0,1-Back,0,m,Fri May 09 2025 13:31:33 GMT-0500 (Central Daylight Time),111131.8999999999,053_o_m_n_a.png,I,z,1475,4,2,2274.2000000001863,108857.69999999972,8030,NNB,A,3
2,prac,1,0.0,1-Back,1,m,Fri May 09 2025 13:31:33 GMT-0500 (Central Daylight Time),112881.29999999981,058_m_m_n_a.png,I,m,949,5,2,1742.8999999999069,111138.3999999999,8030,NNB,A,4
3,prac,1,1.0,1-Back,1,z,Fri May 09 2025 13:31:33 GMT-0500 (Central Daylight Time),114480.79999999981,058_m_m_n_a.png,I,z,816,6,2,1592.6000000000931,112888.19999999972,8030,NNB,A,5
4,prac,1,0.0,1-Back,1,m,Fri May 09 2025 13:31:33 GMT-0500 (Central Daylight Time),116147.19999999972,047_o_f_n_a.png,I,m,833,7,2,1659.2999999998137,114487.8999999999,8030,NNB,A,6
5,prac,1,0.0,1-Back,1,m,Fri May 09 2025 13:31:33 GMT-0500 (Central Daylight Time),117829.5,045_m_m_n_a.png,I,m,871,8,2,1674.8000000002794,116154.69999999972,8030,NNB,A,7
6,prac,1,0.0,1-Back,1,m,Fri May 09 2025 13:31:33 GMT-0500 (Central Daylight Time),119462.5,050_m_f_n_a.png,I,m,843,9,2,1625.0,117837.5,8030,NNB,A,8
7,prac,1,1.0,1-Back,1,z,Fri May 09 2025 13:31:33 GMT-0500 (Central Daylight Time),121195.19999999972,050_m_f_n_a.png,I,z,948,10,2,1726.1999999997206,119469.0,8030,NNB,A,9
8,prac,1,0.0,1-Back,1,m,Fri May 09 2025 13:31:33 GMT-0500 (Central Daylight Time),122944.8999999999,053_o_m_n_a.png,I,m,974,11,2,1742.7999999998137,121202.1000000001,8030,NNB,A,10
9,prac,1,0.0,1-Back,1,m,Fri May 09 2025 13:31:33 GMT-0500 (Central Daylight Time),124644.3999999999,010_y_f_n_a.png,I,m,869,12,2,1692.2000000001863,122952.19999999972,8030,NNB,A,11
0,test,1,0.0,1-Back,,,Fri May 09 2025 13:31:33 GMT-0500 (Central Daylight Time),124644.3999999999,063_y_f_n_a.png,I,space,7234,1,2,1692.2000000001863,122952.19999999972,8030,NNB,A,0
1,test,1,0.0,1-Back,1,m,Fri May 09 2025 13:31:33 GMT-0500 (Central Daylight Time),142371.8999999999,043_m_f_n_a.png,I,m,746,2,2,1759.6000000000931,140612.2999999998,8030,NNB,A,1
2,test,1,0.0,1-Back,1,m,Fri May 09 2025 13:31:33 GMT-0500 (Central Daylight Time),144238.1000000001,010_y_f_n_a.png,I,m,836,3,2,1860.6000000000931,142377.5,8030,NNB,A,2
3,test,1,1.0,1-Back,1,z,Fri May 09 2025 13:31:33 GMT-0500 (Central Daylight Time),146087.6000000001,010_y_f_n_a.png,I,z,818,4,2,1843.8000000002794,144243.7999999998,8030,NNB,A,3
4,test,1,0.0,1-Back,1,m,Fri May 09 2025 13:31:33 GMT-0500 (Central Daylight Time),147703.8999999999,043_m_f_n_a.png,I,m,593,5,2,1610.7000000001863,146093.19999999972,8030,NNB,A,4
5,test,1,0.0,1-Back,1,m,Fri May 09 2025 13:31:33 GMT-0500 (Central Daylight Time),149403.19999999972,053_o_m_n_a.png,I,m,673,6,2,1692.8999999999069,147710.2999999998,8030,NNB,A,5
6,test,1,1.0,1-Back,1,z,Fri May 09 2025 13:31:33 GMT-0500 (Central Daylight Time),151064.7999999998,053_o_m_n_a.png,I,z,627,7,2,1655.8999999999069,149408.8999999999,8030,NNB,A,6
7,test,1,0.0,1-Back,1,m,Fri May 09 2025 13:31:33 GMT-0500 (Central Daylight Time),152868.6000000001,058_m_m_n_a.png,I,m,779,8,2,1797.4000000003725,151071.19999999972,8030,NNB,A,7
8,test,1,0.0,1-Back,1,m,Fri May 09 2025 13:31:33 GMT-0500 (Central Daylight Time),154551.6000000001,047_o_f_n_a.png,I,m,652,9,2,1677.3000000002794,152874.2999999998,8030,NNB,A,8
9,test,1,0.0,1-Back,1,m,Fri May 09 2025 13:31:33 GMT-0500 (Central Daylight Time),156401.1000000001,058_m_m_n_a.png,I,m,824,10,2,1843.7000000001863,154557.3999999999,8030,NNB,A,9
10,test,1,0.0,1-Back,1,m,Fri May 09 2025 13:31:33 GMT-0500 (Central Daylight Time),158133.69999999972,041_y_m_n_a.png,I,m,703,11,2,1726.1999999997206,156407.5,8030,NNB,A,10
11,test,1,1.0,1-Back,1,z,Fri May 09 2025 13:31:33 GMT-0500 (Central Daylight Time),159933.1000000001,041_y_m_n_a.png,I,z,770,12,2,1793.3000000002794,158139.7999999998,8030,NNB,A,11
12,test,1,0.0,1-Back,1,m,Fri May 09 2025 13:31:33 GMT-0500 (Central Daylight Time),161616.0,044_o_f_n_a.png,I,m,659,13,2,1677.2000000001863,159938.7999999998,8030,NNB,A,12
13,test,1,1.0,1-Back,1,z,Fri May 09 2025 13:31:33 GMT-0500 (Central Daylight Time),163249.0,044_o_f_n_a.png,I,z,600,14,2,1627.2000000001863,161621.7999999998,8030,NNB,A,13
14,test,1,0.0,1-Back,1,m,Fri May 09 2025 13:31:33 GMT-0500 (Central Daylight Time),164948.2999999998,008_y_m_n_a.png,I,m,672,15,2,1693.6000000000931,163254.69999999972,8030,NNB,A,14
15,test,1,0.0,1-Back,1,m,Fri May 09 2025 13:31:33 GMT-0500 (Central Daylight Time),166747.8999999999,050_m_f_n_a.png,I,m,772,16,2,1793.7999999998137,164954.1000000001,8030,NNB,A,15
16,test,1,0.0,1-Back,1,m,Fri May 09 2025 13:31:33 GMT-0500 (Central Daylight Time),168580.5,046_o_m_n_a.png,I,m,804,17,2,1826.6000000000931,166753.8999999999,8030,NNB,A,16
17,test,1,0.0,1-Back,1,m,Fri May 09 2025 13:31:33 GMT-0500 (Central Daylight Time),170463.3999999999,050_m_f_n_a.png,I,m,852,18,2,1876.2999999998137,168587.1000000001,8030,NNB,A,17
0,test,2,0.0,1-Back,,,Fri May 09 2025 13:31:33 GMT-0500 (Central Daylight Time),170463.3999999999,058_m_m_n_a.png,I,space,2817,1,2,1876.2999999998137,168587.1000000001,8030,NNB,A,0
1,test,2,0.0,1-Back,1,m,Fri May 09 2025 13:31:33 GMT-0500 (Central Daylight Time),177063.0,043_m_f_n_a.png,I,m,720,2,2,1745.3000000002794,175317.69999999972,8030,NNB,A,1
2,test,2,1.0,1-Back,1,z,Fri May 09 2025 13:31:33 GMT-0500 (Central Daylight Time),178827.2999999998,043_m_f_n_a.png,I,z,738,3,2,1758.3999999999069,177068.8999999999,8030,NNB,A,2
3,test,2,0.0,1-Back,1,m,Fri May 09 2025 13:31:33 GMT-0500 (Central Daylight Time),180676.69999999972,058_m_m_n_a.png,I,m,821,4,2,1843.5,178833.19999999972,8030,NNB,A,3
4,test,2,0.0,1-Back,1,m,Fri May 09 2025 13:31:33 GMT-0500 (Central Daylight Time),182509.2999999998,041_y_m_n_a.png,I,m,811,5,2,1826.6999999997206,180682.6000000001,8030,NNB,A,4
5,test,2,0.0,1-Back,1,m,Fri May 09 2025 13:31:33 GMT-0500 (Central Daylight Time),184175.69999999972,063_y_f_n_a.png,I,m,643,6,2,1660.8999999999069,182514.7999999998,8030,NNB,A,5
6,test,2,1.0,1-Back,1,z,Fri May 09 2025 13:31:33 GMT-0500 (Central Daylight Time),186091.7999999998,063_y_f_n_a.png,I,z,889,7,2,1909.0,184182.7999999998,8030,NNB,A,6
7,test,2,0.0,1-Back,1,m,Fri May 09 2025 13:31:33 GMT-0500 (Central Daylight Time),187724.2999999998,041_y_m_n_a.png,I,m,604,8,2,1626.2999999998137,186098.0,8030,NNB,A,7
8,test,2,0.0,1-Back,1,m,Fri May 09 2025 13:31:33 GMT-0500 (Central Daylight Time),189523.8999999999,044_o_f_n_a.png,I,m,780,9,2,1793.7999999998137,187730.1000000001,8030,NNB,A,8
9,test,2,0.0,1-Back,1,m,Fri May 09 2025 13:31:33 GMT-0500 (Central Daylight Time),191289.7999999998,045_m_m_n_a.png,I,m,748,10,2,1760.0,189529.7999999998,8030,NNB,A,9
10,test,2,1.0,1-Back,1,z,Fri May 09 2025 13:31:33 GMT-0500 (Central Daylight Time),193406.1000000001,045_m_m_n_a.png,I,z,1094,11,2,2110.600000000093,191295.5,8030,NNB,A,10
11,test,2,0.0,1-Back,1,m,Fri May 09 2025 13:31:33 GMT-0500 (Central Daylight Time),195105.5,044_o_f_n_a.png,I,m,674,12,2,1693.7000000001863,193411.7999999998,8030,NNB,A,11
12,test,2,0.0,1-Back,1,m,Fri May 09 2025 13:31:33 GMT-0500 (Central Daylight Time),197138.19999999972,047_o_f_n_a.png,I,m,1007,13,2,2026.8999999999069,195111.2999999998,8030,NNB,A,12
13,test,2,0.0,1-Back,1,m,Fri May 09 2025 13:31:33 GMT-0500 (Central Daylight Time),199037.6000000001,053_o_m_n_a.png,I,m,859,14,2,1893.3000000002794,197144.2999999998,8030,NNB,A,13
14,test,2,0.0,1-Back,1,m,Fri May 09 2025 13:31:33 GMT-0500 (Central Daylight Time),200737.1000000001,046_o_m_n_a.png,I,m,682,15,2,1693.3000000002794,199043.7999999998,8030,NNB,A,14
15,test,2,1.0,1-Back,1,z,Fri May 09 2025 13:31:33 GMT-0500 (Central Daylight Time),202536.3999999999,046_o_m_n_a.png,I,z,767,16,2,1793.2000000001863,200743.19999999972,8030,NNB,A,15
16,test,2,0.0,1-Back,1,m,Fri May 09 2025 13:31:33 GMT-0500 (Central Daylight Time),204536.0,008_y_m_n_a.png,I,m,968,17,2,1994.0,202542.0,8030,NNB,A,16
17,test,2,1.0,1-Back,1,z,Fri May 09 2025 13:31:33 GMT-0500 (Central Daylight Time),206185.2999999998,008_y_m_n_a.png,I,z,624,18,2,1643.2999999998137,204542.0,8030,NNB,A,17
0,test,3,1.0,1-Back,,,Fri May 09 2025 13:31:33 GMT-0500 (Central Daylight Time),206185.2999999998,010_y_f_n_a.png,I,space,2271,1,2,1643.2999999998137,204542.0,8030,NNB,A,0
1,test,3,0.0,1-Back,1,m,Fri May 09 2025 13:31:33 GMT-0500 (Central Daylight Time),212283.3999999999,046_o_m_n_a.png,I,m,722,2,2,1743.3999999999069,210540.0,8030,NNB,A,1
2,test,3,1.0,1-Back,1,z,Fri May 09 2025 13:31:33 GMT-0500 (Central Daylight Time),214032.8999999999,046_o_m_n_a.png,I,z,725,3,2,1743.7000000001863,212289.19999999972,8030,NNB,A,2
3,test,3,0.0,1-Back,1,m,Fri May 09 2025 13:31:33 GMT-0500 (Central Daylight Time),215765.5,050_m_f_n_a.png,I,m,711,4,2,1726.8999999999069,214038.6000000001,8030,NNB,A,3
4,test,3,1.0,1-Back,1,z,Fri May 09 2025 13:31:33 GMT-0500 (Central Daylight Time),217531.7999999998,050_m_f_n_a.png,I,z,747,5,2,1760.6000000000931,215771.19999999972,8030,NNB,A,4
5,test,3,0.0,1-Back,1,m,Fri May 09 2025 13:31:33 GMT-0500 (Central Daylight Time),219314.2999999998,044_o_f_n_a.png,I,m,764,6,2,1777.1999999997206,217537.1000000001,8030,NNB,A,5
6,test,3,0.0,1-Back,1,m,Fri May 09 2025 13:31:33 GMT-0500 (Central Daylight Time),221080.7999999998,041_y_m_n_a.png,I,m,733,7,2,1760.7999999998137,219320.0,8030,NNB,A,6
7,test,3,0.0,1-Back,1,m,Fri May 09 2025 13:31:33 GMT-0500 (Central Daylight Time),223063.69999999972,044_o_f_n_a.png,I,m,952,8,2,1977.1999999997206,221086.5,8030,NNB,A,7
8,test,3,0.0,1-Back,1,m,Fri May 09 2025 13:31:33 GMT-0500 (Central Daylight Time),224779.5,008_y_m_n_a.png,I,m,689,9,2,1710.1000000000931,223069.3999999999,8030,NNB,A,8
9,test,3,1.0,1-Back,1,z,Fri May 09 2025 13:31:33 GMT-0500 (Central Daylight Time),226412.6000000001,008_y_m_n_a.png,I,z,605,10,2,1627.6000000000931,224785.0,8030,NNB,A,9
10,test,3,0.0,1-Back,1,m,Fri May 09 2025 13:31:33 GMT-0500 (Central Daylight Time),228178.5,043_m_f_n_a.png,I,m,748,11,2,1760.0,226418.5,8030,NNB,A,10
11,test,3,0.0,1-Back,1,m,Fri May 09 2025 13:31:33 GMT-0500 (Central Daylight Time),230177.69999999972,063_y_f_n_a.png,I,m,975,12,2,1993.3999999999069,228184.2999999998,8030,NNB,A,11
12,test,3,1.0,1-Back,1,z,Fri May 09 2025 13:31:33 GMT-0500 (Central Daylight Time),231660.7999999998,063_y_f_n_a.png,I,z,462,13,2,1477.1999999997206,230183.6000000001,8030,NNB,A,12
13,test,3,0.0,1-Back,1,m,Fri May 09 2025 13:31:33 GMT-0500 (Central Daylight Time),233360.2999999998,043_m_f_n_a.png,I,m,675,14,2,1693.6000000000931,231666.69999999972,8030,NNB,A,13
14,test,3,0.0,1-Back,1,m,Fri May 09 2025 13:31:33 GMT-0500 (Central Daylight Time),234976.3999999999,058_m_m_n_a.png,I,m,592,15,2,1610.1000000000931,233366.2999999998,8030,NNB,A,14
15,test,3,1.0,1-Back,1,z,Fri May 09 2025 13:31:33 GMT-0500 (Central Daylight Time),236759.1000000001,058_m_m_n_a.png,I,z,760,16,2,1777.0,234982.1000000001,8030,NNB,A,15
16,test,3,0.0,1-Back,1,m,Fri May 09 2025 13:31:33 GMT-0500 (Central Daylight Time),238775.1000000001,047_o_f_n_a.png,I,m,994,17,2,2010.0,236765.1000000001,8030,NNB,A,16
17,test,3,1.0,1-Back,1,z,Fri May 09 2025 13:31:33 GMT-0500 (Central Daylight Time),240508.1000000001,047_o_f_n_a.png,I,z,713,18,2,1727.1000000000931,238781.0,8030,NNB,A,17
0,test,4,1.0,1-Back,,,Fri May 09 2025 13:31:33 GMT-0500 (Central Daylight Time),240508.1000000001,050_m_f_n_a.png,I,space,2116,1,2,1727.1000000000931,238781.0,8030,NNB,A,0
1,test,4,0.0,1-Back,1,m,Fri May 09 2025 13:31:33 GMT-0500 (Central Daylight Time),246222.7999999998,046_o_m_n_a.png,I,m,544,2,2,1559.8999999999069,244662.8999999999,8030,NNB,A,1
2,test,4,0.0,1-Back,1,m,Fri May 09 2025 13:31:33 GMT-0500 (Central Daylight Time),248222.2999999998,050_m_f_n_a.png,I,m,969,3,2,1993.5,246228.7999999998,8030,NNB,A,2
3,test,4,0.0,1-Back,1,m,Fri May 09 2025 13:31:33 GMT-0500 (Central Daylight Time),249839.6000000001,044_o_f_n_a.png,I,m,594,4,2,1611.5,248228.1000000001,8030,NNB,A,3
4,test,4,1.0,1-Back,1,z,Fri May 09 2025 13:31:33 GMT-0500 (Central Daylight Time),251471.3999999999,044_o_f_n_a.png,I,z,602,5,2,1625.8999999999069,249845.5,8030,NNB,A,4
5,test,4,0.0,1-Back,1,m,Fri May 09 2025 13:31:33 GMT-0500 (Central Daylight Time),253254.1000000001,063_y_f_n_a.png,I,m,753,6,2,1776.7000000001863,251477.3999999999,8030,NNB,A,5
6,test,4,0.0,1-Back,1,m,Fri May 09 2025 13:31:33 GMT-0500 (Central Daylight Time),254903.3999999999,041_y_m_n_a.png,I,m,626,7,2,1643.3999999999069,253260.0,8030,NNB,A,6
7,test,4,1.0,1-Back,1,z,Fri May 09 2025 13:31:33 GMT-0500 (Central Daylight Time),256486.0,041_y_m_n_a.png,I,z,561,8,2,1576.8000000002794,254909.19999999972,8030,NNB,A,7
8,test,4,0.0,1-Back,1,m,Fri May 09 2025 13:31:33 GMT-0500 (Central Daylight Time),258269.1000000001,063_y_f_n_a.png,I,m,754,9,2,1777.2000000001863,256491.8999999999,8030,NNB,A,8
9,test,4,0.0,1-Back,1,m,Fri May 09 2025 13:31:33 GMT-0500 (Central Daylight Time),259951.69999999972,045_m_m_n_a.png,I,m,651,10,2,1676.8999999999069,258274.7999999998,8030,NNB,A,9
10,test,4,1.0,1-Back,1,z,Fri May 09 2025 13:31:33 GMT-0500 (Central Daylight Time),261568.0,045_m_m_n_a.png,I,z,592,11,2,1610.3000000002794,259957.69999999972,8030,NNB,A,10
11,test,4,0.0,1-Back,1,m,Fri May 09 2025 13:31:33 GMT-0500 (Central Daylight Time),263300.6999999997,047_o_f_n_a.png,I,m,712,12,2,1726.5,261574.19999999972,8030,NNB,A,11
12,test,4,0.0,1-Back,1,m,Fri May 09 2025 13:31:33 GMT-0500 (Central Daylight Time),265050.0,053_o_m_n_a.png,I,m,732,13,2,1742.6000000000931,263307.3999999999,8030,NNB,A,12
13,test,4,0.0,1-Back,1,m,Fri May 09 2025 13:31:33 GMT-0500 (Central Daylight Time),266916.1999999997,047_o_f_n_a.png,I,m,838,14,2,1859.8999999999069,265056.2999999998,8030,NNB,A,13
14,test,4,0.0,1-Back,1,m,Fri May 09 2025 13:31:33 GMT-0500 (Central Daylight Time),268708.0,010_y_f_n_a.png,I,m,775,15,2,1786.1000000000931,266921.8999999999,8030,NNB,A,14
15,test,4,1.0,1-Back,1,z,Fri May 09 2025 13:31:33 GMT-0500 (Central Daylight Time),270298.5,010_y_f_n_a.png,I,z,572,16,2,1584.3999999999069,268714.1000000001,8030,NNB,A,15
16,test,4,0.0,1-Back,1,m,Fri May 09 2025 13:31:33 GMT-0500 (Central Daylight Time),271998.1000000001,043_m_f_n_a.png,I,m,676,17,2,1693.4000000003725,270304.6999999997,8030,NNB,A,16
17,test,4,1.0,1-Back,1,z,Fri May 09 2025 13:31:33 GMT-0500 (Central Daylight Time),273614.5,043_m_f_n_a.png,I,z,594,18,2,1610.2000000001863,272004.2999999998,8030,NNB,A,17
0,test,5,1.0,1-Back,,,Fri May 09 2025 13:31:33 GMT-0500 (Central Daylight Time),273614.5,053_o_m_n_a.png,I,space,1786,1,2,1610.2000000001863,272004.2999999998,8030,NNB,A,0
0,test,5,1.0,1-Back,0,z,Fri May 09 2025 13:31:33 GMT-0500 (Central Daylight Time),279329.1000000001,053_o_m_n_a.png,I,m,865,2,2,1893.9000000003725,277435.1999999997,8030,NNB,A,1
1,test,5,0.0,1-Back,1,m,Fri May 09 2025 13:31:33 GMT-0500 (Central Daylight Time),281311.7999999998,063_y_f_n_a.png,I,m,951,3,2,1977.1000000000931,279334.6999999997,8030,NNB,A,2
2,test,5,0.0,1-Back,1,m,Fri May 09 2025 13:31:33 GMT-0500 (Central Daylight Time),282961.2999999998,041_y_m_n_a.png,I,m,625,4,2,1643.7999999998137,281317.5,8030,NNB,A,3
3,test,5,0.0,1-Back,1,m,Fri May 09 2025 13:31:33 GMT-0500 (Central Daylight Time),284977.2999999998,063_y_f_n_a.png,I,m,991,5,2,2010.1999999997206,282967.1000000001,8030,NNB,A,4
4,test,5,0.0,1-Back,1,m,Fri May 09 2025 13:31:33 GMT-0500 (Central Daylight Time),286761.1999999997,058_m_m_n_a.png,I,m,751,6,2,1778.0999999996275,284983.1000000001,8030,NNB,A,5
5,test,5,1.0,1-Back,1,z,Fri May 09 2025 13:31:33 GMT-0500 (Central Daylight Time),288343.1000000001,058_m_m_n_a.png,I,z,561,7,2,1575.8000000002794,286767.2999999998,8030,NNB,A,6
6,test,5,0.0,1-Back,1,m,Fri May 09 2025 13:31:33 GMT-0500 (Central Daylight Time),290059.1000000001,010_y_f_n_a.png,I,m,690,8,2,1709.9000000003725,288349.1999999997,8030,NNB,A,7
7,test,5,0.0,1-Back,1,m,Fri May 09 2025 13:31:33 GMT-0500 (Central Daylight Time),291792.1000000001,008_y_m_n_a.png,I,m,701,9,2,1727.2000000001863,290064.8999999999,8030,NNB,A,8
8,test,5,0.0,1-Back,1,m,Fri May 09 2025 13:31:33 GMT-0500 (Central Daylight Time),293408.1000000001,010_y_f_n_a.png,I,m,584,10,2,1609.9000000003725,291798.1999999997,8030,NNB,A,9
9,test,5,0.0,1-Back,1,m,Fri May 09 2025 13:31:33 GMT-0500 (Central Daylight Time),295074.1000000001,047_o_f_n_a.png,I,m,640,11,2,1660.1000000000931,293414.0,8030,NNB,A,10
10,test,5,1.0,1-Back,1,z,Fri May 09 2025 13:31:33 GMT-0500 (Central Daylight Time),296656.8999999999,047_o_f_n_a.png,I,z,558,12,2,1577.2999999998137,295079.6000000001,8030,NNB,A,11
11,test,5,0.0,1-Back,1,m,Fri May 09 2025 13:31:33 GMT-0500 (Central Daylight Time),298339.7999999998,046_o_m_n_a.png,I,m,663,13,2,1677.0,296662.7999999998,8030,NNB,A,12
12,test,5,0.0,1-Back,1,m,Fri May 09 2025 13:31:33 GMT-0500 (Central Daylight Time),300006.0,050_m_f_n_a.png,I,m,636,14,2,1660.5,298345.5,8030,NNB,A,13
13,test,5,1.0,1-Back,1,z,Fri May 09 2025 13:31:33 GMT-0500 (Central Daylight Time),301589.0,050_m_f_n_a.png,I,z,562,15,2,1577.1000000000931,300011.8999999999,8030,NNB,A,14
14,test,5,0.0,1-Back,1,m,Fri May 09 2025 13:31:33 GMT-0500 (Central Daylight Time),303338.1999999997,046_o_m_n_a.png,I,m,732,16,2,1743.0999999996275,301595.1000000001,8030,NNB,A,15
15,test,5,0.0,1-Back,1,m,Fri May 09 2025 13:31:33 GMT-0500 (Central Daylight Time),305121.1999999997,043_m_f_n_a.png,I,m,750,17,2,1777.2999999998137,303343.8999999999,8030,NNB,A,16
16,test,5,0.0,1-Back,1,m,Fri May 09 2025 13:31:33 GMT-0500 (Central Daylight Time),306920.5,045_m_m_n_a.png,I,m,767,18,2,1793.7000000001863,305126.7999999998,8030,NNB,A,17
0,prac,1,0.0,2-Back,,,Fri May 09 2025 13:31:33 GMT-0500 (Central Daylight Time),306920.5,008_y_m_n_a.png,I,space,3395,1,2,1793.7000000001863,305126.7999999998,8030,NNB,A,0
0,prac,1,0.0,2-Back,,,Fri May 09 2025 13:31:33 GMT-0500 (Central Daylight Time),306920.5,043_m_f_n_a.png,I,space,3395,2,2,1793.7000000001863,305126.7999999998,8030,NNB,A,0
0,prac,1,1.0,2-Back,0,m,Fri May 09 2025 13:31:33 GMT-0500 (Central Daylight Time),403407.0,046_o_m_n_a.png,I,z,1237,3,2,2042.5,401364.5,8030,NNB,A,1
1,prac,1,0.0,2-Back,1,m,Fri May 09 2025 13:31:33 GMT-0500 (Central Daylight Time),405723.0,047_o_f_n_a.png,I,m,1484,4,2,2308.8000000002794,403414.1999999997,8030,NNB,A,2
1,prac,1,0.0,2-Back,0,z,Fri May 09 2025 13:31:33 GMT-0500 (Central Daylight Time),408505.2999999998,046_o_m_n_a.png,I,None,2008,5,2,2775.100000000093,405730.1999999997,8030,NNB,A,3
1,prac,1,1.0,2-Back,0,z,Fri May 09 2025 13:31:33 GMT-0500 (Central Daylight Time),411121.2999999998,047_o_f_n_a.png,I,m,1832,6,2,2609.100000000093,408512.1999999997,8030,NNB,A,4
2,prac,1,0.0,2-Back,1,m,Fri May 09 2025 13:31:33 GMT-0500 (Central Daylight Time),413437.1000000001,045_m_m_n_a.png,I,m,1514,7,2,2308.9000000003725,411128.1999999997,8030,NNB,A,5
3,prac,1,0.0,2-Back,1,m,Fri May 09 2025 13:31:33 GMT-0500 (Central Daylight Time),415170.0,053_o_m_n_a.png,I,m,933,8,2,1726.0,413444.0,8030,NNB,A,6
4,prac,1,0.0,2-Back,1,m,Fri May 09 2025 13:31:33 GMT-0500 (Central Daylight Time),417052.5,010_y_f_n_a.png,I,m,1044,9,2,1875.6000000000931,415176.8999999999,8030,NNB,A,7
5,prac,1,1.0,2-Back,1,z,Fri May 09 2025 13:31:33 GMT-0500 (Central Daylight Time),418718.6999999997,053_o_m_n_a.png,I,z,885,10,2,1659.3999999999069,417059.2999999998,8030,NNB,A,8
6,prac,1,0.0,2-Back,1,m,Fri May 09 2025 13:31:33 GMT-0500 (Central Daylight Time),420918.1999999997,063_y_f_n_a.png,I,m,1388,11,2,2192.6999999997206,418725.5,8030,NNB,A,9
6,prac,1,0.0,2-Back,0,m,Fri May 09 2025 13:31:33 GMT-0500 (Central Daylight Time),422750.7999999998,045_m_m_n_a.png,I,z,1052,12,2,1825.7999999998137,420925.0,8030,NNB,A,10
0,prac,2,0.0,2-Back,,,Fri May 09 2025 13:31:33 GMT-0500 (Central Daylight Time),422750.7999999998,008_y_m_n_a.png,I,a,10062,1,2,1825.7999999998137,420925.0,8030,NNB,A,0
0,prac,2,0.0,2-Back,,,Fri May 09 2025 13:31:33 GMT-0500 (Central Daylight Time),422750.7999999998,043_m_f_n_a.png,I,a,10062,2,2,1825.7999999998137,420925.0,8030,NNB,A,0
1,prac,2,1.0,2-Back,1,m,Fri May 09 2025 13:31:33 GMT-0500 (Central Daylight Time),439995.5,046_o_m_n_a.png,I,m,1338,3,2,2109.399999999907,437886.1000000001,8030,NNB,A,1
1,prac,2,0.0,2-Back,0,m,Fri May 09 2025 13:31:33 GMT-0500 (Central Daylight Time),441861.5,047_o_f_n_a.png,I,z,1086,4,2,1859.0,440002.5,8030,NNB,A,2
1,prac,2,0.0,2-Back,0,z,Fri May 09 2025 13:31:33 GMT-0500 (Central Daylight Time),443527.6999999997,046_o_m_n_a.png,I,m,884,5,2,1659.5,441868.1999999997,8030,NNB,A,3
2,prac,2,1.0,2-Back,1,z,Fri May 09 2025 13:31:33 GMT-0500 (Central Daylight Time),446126.8999999999,047_o_f_n_a.png,I,z,1810,6,2,2592.100000000093,443534.7999999998,8030,NNB,A,4
2,prac,2,0.0,2-Back,0,m,Fri May 09 2025 13:31:33 GMT-0500 (Central Daylight Time),448426.1999999997,045_m_m_n_a.png,I,z,1523,7,2,2292.5,446133.6999999997,8030,NNB,A,5
3,prac,2,0.0,2-Back,1,m,Fri May 09 2025 13:31:33 GMT-0500 (Central Daylight Time),450758.6000000001,053_o_m_n_a.png,I,m,1551,8,2,2325.5,448433.1000000001,8030,NNB,A,6
4,prac,2,0.0,2-Back,1,m,Fri May 09 2025 13:31:33 GMT-0500 (Central Daylight Time),452658.2999999998,010_y_f_n_a.png,I,m,1123,9,2,1892.8999999999069,450765.3999999999,8030,NNB,A,7
5,prac,2,1.0,2-Back,1,z,Fri May 09 2025 13:31:33 GMT-0500 (Central Daylight Time),454474.3999999999,053_o_m_n_a.png,I,z,1031,10,2,1809.2999999998137,452665.1000000001,8030,NNB,A,8
6,prac,2,0.0,2-Back,1,m,Fri May 09 2025 13:31:33 GMT-0500 (Central Daylight Time),456374.7999999998,063_y_f_n_a.png,I,m,1127,11,2,1893.6000000000931,454481.1999999997,8030,NNB,A,9
6,prac,2,0.0,2-Back,0,m,Fri May 09 2025 13:31:33 GMT-0500 (Central Daylight Time),458056.3999999999,045_m_m_n_a.png,I,z,770,12,2,1674.2000000001863,456382.1999999997,8030,NNB,A,10
0,test,1,0.0,2-Back,,,Fri May 09 2025 13:31:33 GMT-0500 (Central Daylight Time),458056.3999999999,041_y_m_n_a.png,I,space,8108,1,2,1674.2000000001863,456382.1999999997,8030,NNB,A,0
0,test,1,0.0,2-Back,,,Fri May 09 2025 13:31:33 GMT-0500 (Central Daylight Time),458056.3999999999,041_y_m_n_a.png,I,space,8108,2,2,1674.2000000001863,456382.1999999997,8030,NNB,A,0
1,test,1,0.0,2-Back,1,m,Fri May 09 2025 13:31:33 GMT-0500 (Central Daylight Time),481299.1999999997,047_o_f_n_a.png,I,m,829,3,2,1842.2999999998137,479456.8999999999,8030,NNB,A,1
2,test,1,0.0,2-Back,1,m,Fri May 09 2025 13:31:33 GMT-0500 (Central Daylight Time),483298.6000000001,058_m_m_n_a.png,I,m,981,4,2,1993.4000000003725,481305.1999999997,8030,NNB,A,2
3,test,1,1.0,2-Back,1,z,Fri May 09 2025 13:31:33 GMT-0500 (Central Daylight Time),485448.1000000001,047_o_f_n_a.png,I,z,1126,5,2,2143.7000000001863,483304.3999999999,8030,NNB,A,3
4,test,1,0.0,2-Back,1,m,Fri May 09 2025 13:31:33 GMT-0500 (Central Daylight Time),487680.3999999999,063_y_f_n_a.png,I,m,1208,6,2,2226.2000000001863,485454.1999999997,8030,NNB,A,4
4,test,1,0.0,2-Back,0,m,Fri May 09 2025 13:31:33 GMT-0500 (Central Daylight Time),489663.1000000001,058_m_m_n_a.png,I,z,960,7,2,1976.5,487686.6000000001,8030,NNB,A,5
5,test,1,1.0,2-Back,1,z,Fri May 09 2025 13:31:33 GMT-0500 (Central Daylight Time),492429.1000000001,063_y_f_n_a.png,I,z,1737,8,2,2760.100000000093,489669.0,8030,NNB,A,6
6,test,1,0.0,2-Back,1,m,Fri May 09 2025 13:31:33 GMT-0500 (Central Daylight Time),494844.7999999998,008_y_m_n_a.png,I,m,1387,9,2,2409.5,492435.2999999998,8030,NNB,A,7
7,test,1,0.0,2-Back,1,m,Fri May 09 2025 13:31:33 GMT-0500 (Central Daylight Time),496777.6000000001,044_o_f_n_a.png,I,m,915,10,2,1926.6000000000931,494851.0,8030,NNB,A,8
8,test,1,1.0,2-Back,1,z,Fri May 09 2025 13:31:33 GMT-0500 (Central Daylight Time),498927.0,008_y_m_n_a.png,I,z,1126,11,2,2143.7000000001863,496783.2999999998,8030,NNB,A,9
9,test,1,0.0,2-Back,1,m,Fri May 09 2025 13:31:33 GMT-0500 (Central Daylight Time),500859.7999999998,043_m_f_n_a.png,I,m,905,12,2,1926.5,498933.2999999998,8030,NNB,A,10
9,test,1,0.0,2-Back,0,m,Fri May 09 2025 13:31:33 GMT-0500 (Central Daylight Time),503892.3999999999,043_m_f_n_a.png,I,None,2015,13,2,3026.2999999998137,500866.1000000001,8030,NNB,A,11
10,test,1,0.0,2-Back,1,m,Fri May 09 2025 13:31:33 GMT-0500 (Central Daylight Time),505809.1999999997,046_o_m_n_a.png,I,m,884,14,2,1911.0,503898.1999999997,8030,NNB,A,12
11,test,1,0.0,2-Back,1,m,Fri May 09 2025 13:31:33 GMT-0500 (Central Daylight Time),507774.1999999997,044_o_f_n_a.png,I,m,936,15,2,1958.6999999997206,505815.5,8030,NNB,A,13
12,test,1,1.0,2-Back,1,z,Fri May 09 2025 13:31:33 GMT-0500 (Central Daylight Time),509590.2999999998,046_o_m_n_a.png,I,z,786,16,2,1810.0,507780.2999999998,8030,NNB,A,14
13,test,1,0.0,2-Back,1,m,Fri May 09 2025 13:31:33 GMT-0500 (Central Daylight Time),511573.0,050_m_f_n_a.png,I,m,962,17,2,1976.7000000001863,509596.2999999998,8030,NNB,A,15
14,test,1,0.0,2-Back,1,m,Fri May 09 2025 13:31:33 GMT-0500 (Central Daylight Time),513955.5,045_m_m_n_a.png,I,m,1363,18,2,2376.600000000093,511578.8999999999,8030,NNB,A,16
0,test,2,0.0,2-Back,,,Fri May 09 2025 13:31:33 GMT-0500 (Central Daylight Time),513955.5,045_m_m_n_a.png,I,space,3941,1,2,2376.600000000093,511578.8999999999,8030,NNB,A,0
0,test,2,0.0,2-Back,,,Fri May 09 2025 13:31:33 GMT-0500 (Central Daylight Time),513955.5,010_y_f_n_a.png,I,space,3941,2,2,2376.600000000093,511578.8999999999,8030,NNB,A,0
1,test,2,1.0,2-Back,1,z,Fri May 09 2025 13:31:33 GMT-0500 (Central Daylight Time),525018.6000000001,045_m_m_n_a.png,I,z,998,3,2,2009.9000000003725,523008.6999999997,8030,NNB,A,1
2,test,2,0.0,2-Back,1,m,Fri May 09 2025 13:31:33 GMT-0500 (Central Daylight Time),526818.2999999998,050_m_f_n_a.png,I,m,773,4,2,1793.7999999998137,525024.5,8030,NNB,A,2
2,test,2,0.0,2-Back,0,m,Fri May 09 2025 13:31:33 GMT-0500 (Central Daylight Time),529033.8999999999,010_y_f_n_a.png,I,z,1202,5,2,2209.600000000093,526824.2999999998,8030,NNB,A,3
3,test,2,0.0,2-Back,1,m,Fri May 09 2025 13:31:33 GMT-0500 (Central Daylight Time),530783.1999999997,046_o_m_n_a.png,I,m,718,6,2,1743.1999999997206,529040.0,8030,NNB,A,4
4,test,2,0.0,2-Back,1,m,Fri May 09 2025 13:31:33 GMT-0500 (Central Daylight Time),532733.1000000001,063_y_f_n_a.png,I,m,928,7,2,1943.1000000000931,530790.0,8030,NNB,A,5
5,test,2,1.0,2-Back,1,z,Fri May 09 2025 13:31:33 GMT-0500 (Central Daylight Time),534815.6000000001,046_o_m_n_a.png,I,z,1059,8,2,2076.100000000093,532739.5,8030,NNB,A,6
6,test,2,0.0,2-Back,1,m,Fri May 09 2025 13:31:33 GMT-0500 (Central Daylight Time),536914.8999999999,008_y_m_n_a.png,I,m,1073,9,2,2093.2999999998137,534821.6000000001,8030,NNB,A,7
7,test,2,0.0,2-Back,1,m,Fri May 09 2025 13:31:33 GMT-0500 (Central Daylight Time),539430.8999999999,008_y_m_n_a.png,I,m,1493,10,2,2509.5,536921.3999999999,8030,NNB,A,8
8,test,2,0.0,2-Back,1,m,Fri May 09 2025 13:31:33 GMT-0500 (Central Daylight Time),541663.3999999999,043_m_f_n_a.png,I,m,1201,11,2,2226.2999999998137,539437.1000000001,8030,NNB,A,9
9,test,2,0.0,2-Back,1,m,Fri May 09 2025 13:31:33 GMT-0500 (Central Daylight Time),543846.1000000001,010_y_f_n_a.png,I,m,1161,12,2,2176.2000000001863,541669.8999999999,8030,NNB,A,10
9,test,2,1.0,2-Back,0,z,Fri May 09 2025 13:31:33 GMT-0500 (Central Daylight Time),546046.5,043_m_f_n_a.png,I,m,1178,13,2,2194.5,543852.0,8030,NNB,A,11
10,test,2,0.0,2-Back,1,m,Fri May 09 2025 13:31:33 GMT-0500 (Central Daylight Time),547928.1000000001,053_o_m_n_a.png,I,m,851,14,2,1875.6000000000931,546052.5,8030,NNB,A,12
11,test,2,0.0,2-Back,1,m,Fri May 09 2025 13:31:33 GMT-0500 (Central Daylight Time),550410.7999999998,053_o_m_n_a.png,I,m,1456,15,2,2476.6999999997206,547934.1000000001,8030,NNB,A,13
12,test,2,0.0,2-Back,1,m,Fri May 09 2025 13:31:33 GMT-0500 (Central Daylight Time),552743.3999999999,044_o_f_n_a.png,I,m,1199,16,2,2326.7000000001863,550416.6999999997,8030,NNB,A,14
13,test,2,0.0,2-Back,1,m,Fri May 09 2025 13:31:33 GMT-0500 (Central Daylight Time),555076.0,058_m_m_n_a.png,I,m,1313,17,2,2326.5,552749.5,8030,NNB,A,15
14,test,2,1.0,2-Back,1,z,Fri May 09 2025 13:31:33 GMT-0500 (Central Daylight Time),557025.6000000001,044_o_f_n_a.png,I,z,932,18,2,1943.7000000001863,555081.8999999999,8030,NNB,A,16
0,test,3,1.0,2-Back,,,Fri May 09 2025 13:31:33 GMT-0500 (Central Daylight Time),557025.6000000001,041_y_m_n_a.png,I,space,2495,1,2,1943.7000000001863,555081.8999999999,8030,NNB,A,0
0,test,3,1.0,2-Back,,,Fri May 09 2025 13:31:33 GMT-0500 (Central Daylight Time),557025.6000000001,041_y_m_n_a.png,I,space,2495,2,2,1943.7000000001863,555081.8999999999,8030,NNB,A,0
1,test,3,0.0,2-Back,1,m,Fri May 09 2025 13:31:33 GMT-0500 (Central Daylight Time),566405.7999999998,044_o_f_n_a.png,I,m,794,3,2,1808.8999999999069,564596.8999999999,8030,NNB,A,1
2,test,3,0.0,2-Back,1,m,Fri May 09 2025 13:31:33 GMT-0500 (Central Daylight Time),568222.0,045_m_m_n_a.png,I,m,786,4,2,1809.8000000002794,566412.1999999997,8030,NNB,A,2
3,test,3,1.0,2-Back,1,z,Fri May 09 2025 13:31:33 GMT-0500 (Central Daylight Time),570321.3999999999,044_o_f_n_a.png,I,z,1066,5,2,2093.100000000093,568228.2999999998,8030,NNB,A,3
4,test,3,0.0,2-Back,1,m,Fri May 09 2025 13:31:33 GMT-0500 (Central Daylight Time),572155.6999999997,008_y_m_n_a.png,I,m,815,6,2,1828.0999999996275,570327.6000000001,8030,NNB,A,4
5,test,3,0.0,2-Back,1,m,Fri May 09 2025 13:31:33 GMT-0500 (Central Daylight Time),573753.6999999997,045_m_m_n_a.png,I,m,574,7,2,1591.7999999998137,572161.8999999999,8030,NNB,A,5
5,test,3,1.0,2-Back,0,z,Fri May 09 2025 13:31:33 GMT-0500 (Central Daylight Time),576202.5,008_y_m_n_a.png,I,m,1423,8,2,2442.399999999907,573760.1000000001,8030,NNB,A,6
6,test,3,0.0,2-Back,1,m,Fri May 09 2025 13:31:33 GMT-0500 (Central Daylight Time),578068.6999999997,010_y_f_n_a.png,I,m,845,9,2,1859.2999999998137,576209.3999999999,8030,NNB,A,7
7,test,3,0.0,2-Back,1,m,Fri May 09 2025 13:31:33 GMT-0500 (Central Daylight Time),580068.1999999997,058_m_m_n_a.png,I,m,971,10,2,1993.0,578075.1999999997,8030,NNB,A,8
8,test,3,1.0,2-Back,1,z,Fri May 09 2025 13:31:33 GMT-0500 (Central Daylight Time),581751.0,010_y_f_n_a.png,I,z,652,11,2,1676.8999999999069,580074.1000000001,8030,NNB,A,9
9,test,3,1.0,2-Back,1,z,Fri May 09 2025 13:31:33 GMT-0500 (Central Daylight Time),583900.1999999997,058_m_m_n_a.png,I,z,1121,12,2,2142.899999999907,581757.2999999998,8030,NNB,A,10
10,test,3,0.0,2-Back,1,m,Fri May 09 2025 13:31:33 GMT-0500 (Central Daylight Time),586283.0,044_o_f_n_a.png,I,m,1364,13,2,2376.899999999907,583906.1000000001,8030,NNB,A,11
11,test,3,0.0,2-Back,1,m,Fri May 09 2025 13:31:33 GMT-0500 (Central Daylight Time),588765.2999999998,050_m_f_n_a.png,I,m,1454,14,2,2476.1999999997206,586289.1000000001,8030,NNB,A,12
12,test,3,0.0,2-Back,1,m,Fri May 09 2025 13:31:33 GMT-0500 (Central Daylight Time),590748.2999999998,046_o_m_n_a.png,I,m,963,15,2,1976.8999999999069,588771.3999999999,8030,NNB,A,13
13,test,3,1.0,2-Back,1,z,Fri May 09 2025 13:31:33 GMT-0500 (Central Daylight Time),592497.6000000001,050_m_f_n_a.png,I,z,732,16,2,1743.6000000000931,590754.0,8030,NNB,A,14
14,test,3,0.0,2-Back,1,m,Fri May 09 2025 13:31:33 GMT-0500 (Central Daylight Time),594463.1999999997,047_o_f_n_a.png,I,m,935,17,2,1959.7999999998137,592503.3999999999,8030,NNB,A,15
15,test,3,0.0,2-Back,1,m,Fri May 09 2025 13:31:33 GMT-0500 (Central Daylight Time),596596.3999999999,047_o_f_n_a.png,I,m,1106,18,2,2127.0,594469.3999999999,8030,NNB,A,16
0,test,4,0.0,2-Back,,,Fri May 09 2025 13:31:33 GMT-0500 (Central Daylight Time),596596.3999999999,053_o_m_n_a.png,I,space,2188,1,2,2127.0,594469.3999999999,8030,NNB,A,0
0,test,4,0.0,2-Back,,,Fri May 09 2025 13:31:33 GMT-0500 (Central Daylight Time),596596.3999999999,063_y_f_n_a.png,I,space,2188,2,2,2127.0,594469.3999999999,8030,NNB,A,0
1,test,4,1.0,2-Back,1,z,Fri May 09 2025 13:31:33 GMT-0500 (Central Daylight Time),606060.1000000001,053_o_m_n_a.png,I,z,1121,3,2,2142.9000000003725,603917.1999999997,8030,NNB,A,1
2,test,4,1.0,2-Back,1,z,Fri May 09 2025 13:31:33 GMT-0500 (Central Daylight Time),608059.2999999998,063_y_f_n_a.png,I,z,972,4,2,1993.3999999999069,606065.8999999999,8030,NNB,A,2
3,test,4,0.0,2-Back,1,m,Fri May 09 2025 13:31:33 GMT-0500 (Central Daylight Time),609975.2999999998,044_o_f_n_a.png,I,m,893,5,2,1909.7999999998137,608065.5,8030,NNB,A,3
4,test,4,0.0,2-Back,1,m,Fri May 09 2025 13:31:33 GMT-0500 (Central Daylight Time),612392.6000000001,044_o_f_n_a.png,I,m,1385,6,2,2411.3000000002794,609981.2999999998,8030,NNB,A,4
5,test,4,0.0,2-Back,1,m,Fri May 09 2025 13:31:33 GMT-0500 (Central Daylight Time),614340.6999999997,043_m_f_n_a.png,I,m,921,7,2,1941.5999999996275,612399.1000000001,8030,NNB,A,5
6,test,4,0.0,2-Back,1,m,Fri May 09 2025 13:31:33 GMT-0500 (Central Daylight Time),616256.7999999998,008_y_m_n_a.png,I,m,884,8,2,1909.8999999999069,614346.8999999999,8030,NNB,A,6
7,test,4,1.0,2-Back,1,z,Fri May 09 2025 13:31:33 GMT-0500 (Central Daylight Time),618505.8999999999,043_m_f_n_a.png,I,z,1231,9,2,2243.0,616262.8999999999,8030,NNB,A,7
8,test,4,0.0,2-Back,1,m,Fri May 09 2025 13:31:33 GMT-0500 (Central Daylight Time),620555.3999999999,058_m_m_n_a.png,I,m,1022,10,2,2043.8999999999069,618511.5,8030,NNB,A,8
9,test,4,0.0,2-Back,1,m,Fri May 09 2025 13:31:33 GMT-0500 (Central Daylight Time),623304.5,008_y_m_n_a.png,I,m,1725,11,2,2742.600000000093,620561.8999999999,8030,NNB,A,9
10,test,4,0.0,2-Back,1,m,Fri May 09 2025 13:31:33 GMT-0500 (Central Daylight Time),625470.6000000001,047_o_f_n_a.png,I,m,1136,12,2,2159.5,623311.1000000001,8030,NNB,A,10
11,test,4,0.0,2-Back,1,m,Fri May 09 2025 13:31:33 GMT-0500 (Central Daylight Time),627536.8999999999,041_y_m_n_a.png,I,m,1034,13,2,2060.2000000001863,625476.6999999997,8030,NNB,A,11
11,test,4,1.0,2-Back,0,z,Fri May 09 2025 13:31:33 GMT-0500 (Central Daylight Time),629919.2999999998,047_o_f_n_a.png,I,m,1360,14,2,2376.399999999907,627542.8999999999,8030,NNB,A,12
11,test,4,1.0,2-Back,0,z,Fri May 09 2025 13:31:33 GMT-0500 (Central Daylight Time),631918.5,041_y_m_n_a.png,I,m,978,15,2,1993.2000000001863,629925.2999999998,8030,NNB,A,13
12,test,4,0.0,2-Back,1,m,Fri May 09 2025 13:31:33 GMT-0500 (Central Daylight Time),633951.1000000001,045_m_m_n_a.png,I,m,1002,16,2,2026.0,631925.1000000001,8030,NNB,A,14
13,test,4,0.0,2-Back,1,m,Fri May 09 2025 13:31:33 GMT-0500 (Central Daylight Time),636150.6999999997,050_m_f_n_a.png,I,m,1177,17,2,2193.2999999998137,633957.3999999999,8030,NNB,A,15
14,test,4,1.0,2-Back,1,z,Fri May 09 2025 13:31:33 GMT-0500 (Central Daylight Time),638000.0,045_m_m_n_a.png,I,z,818,18,2,1843.3999999999069,636156.6000000001,8030,NNB,A,16
0,test,5,1.0,2-Back,,,Fri May 09 2025 13:31:33 GMT-0500 (Central Daylight Time),638000.0,041_y_m_n_a.png,I,space,3184,1,2,1843.3999999999069,636156.6000000001,8030,NNB,A,0
0,test,5,1.0,2-Back,,,Fri May 09 2025 13:31:33 GMT-0500 (Central Daylight Time),638000.0,050_m_f_n_a.png,I,space,3184,2,2,1843.3999999999069,636156.6000000001,8030,NNB,A,0
1,test,5,1.0,2-Back,1,z,Fri May 09 2025 13:31:33 GMT-0500 (Central Daylight Time),648030.3999999999,041_y_m_n_a.png,I,z,753,3,2,1777.3999999999069,646253.0,8030,NNB,A,1
2,test,5,1.0,2-Back,1,z,Fri May 09 2025 13:31:33 GMT-0500 (Central Daylight Time),650046.5,050_m_f_n_a.png,I,z,986,4,2,2010.1000000000931,648036.3999999999,8030,NNB,A,2
3,test,5,0.0,2-Back,1,m,Fri May 09 2025 13:31:33 GMT-0500 (Central Daylight Time),651979.0,047_o_f_n_a.png,I,m,906,5,2,1926.0,650053.0,8030,NNB,A,3
3,test,5,0.0,2-Back,0,m,Fri May 09 2025 13:31:33 GMT-0500 (Central Daylight Time),653911.6999999997,041_y_m_n_a.png,I,z,901,6,2,1926.2999999998137,651985.3999999999,8030,NNB,A,4
4,test,5,0.0,2-Back,1,m,Fri May 09 2025 13:31:33 GMT-0500 (Central Daylight Time),655827.8999999999,010_y_f_n_a.png,I,m,888,7,2,1910.2000000001863,653917.6999999997,8030,NNB,A,5
4,test,5,0.0,2-Back,0,m,Fri May 09 2025 13:31:33 GMT-0500 (Central Daylight Time),657927.1000000001,047_o_f_n_a.png,I,z,1068,8,2,2093.100000000093,655834.0,8030,NNB,A,6
5,test,5,1.0,2-Back,1,z,Fri May 09 2025 13:31:33 GMT-0500 (Central Daylight Time),659993.1000000001,010_y_f_n_a.png,I,z,1033,9,2,2059.3000000002794,657933.7999999998,8030,NNB,A,7
6,test,5,0.0,2-Back,1,m,Fri May 09 2025 13:31:33 GMT-0500 (Central Daylight Time),661925.7999999998,046_o_m_n_a.png,I,m,903,10,2,1925.1999999997206,660000.6000000001,8030,NNB,A,8
7,test,5,0.0,2-Back,1,m,Fri May 09 2025 13:31:33 GMT-0500 (Central Daylight Time),663808.3999999999,043_m_f_n_a.png,I,m,851,11,2,1876.0,661932.3999999999,8030,NNB,A,9
8,test,5,0.0,2-Back,1,m,Fri May 09 2025 13:31:33 GMT-0500 (Central Daylight Time),666041.3999999999,058_m_m_n_a.png,I,m,1215,12,2,2227.100000000093,663814.2999999998,8030,NNB,A,10
8,test,5,0.0,2-Back,0,m,Fri May 09 2025 13:31:33 GMT-0500 (Central Daylight Time),668107.1999999997,046_o_m_n_a.png,I,z,1039,13,2,2060.0,666047.1999999997,8030,NNB,A,11
9,test,5,1.0,2-Back,1,z,Fri May 09 2025 13:31:33 GMT-0500 (Central Daylight Time),670473.6000000001,058_m_m_n_a.png,I,z,1319,14,2,2359.8000000002794,668113.7999999998,8030,NNB,A,12
10,test,5,0.0,2-Back,1,m,Fri May 09 2025 13:31:33 GMT-0500 (Central Daylight Time),672439.3999999999,063_y_f_n_a.png,I,m,943,15,2,1959.6000000000931,670479.7999999998,8030,NNB,A,13
11,test,5,0.0,2-Back,1,m,Fri May 09 2025 13:31:33 GMT-0500 (Central Daylight Time),674421.8999999999,053_o_m_n_a.png,I,m,961,16,2,1976.7000000001863,672445.1999999997,8030,NNB,A,14
12,test,5,0.0,2-Back,1,m,Fri May 09 2025 13:31:33 GMT-0500 (Central Daylight Time),676404.6999999997,043_m_f_n_a.png,I,m,962,17,2,1976.8999999999069,674427.7999999998,8030,NNB,A,15
12,test,5,1.0,2-Back,0,z,Fri May 09 2025 13:31:33 GMT-0500 (Central Daylight Time),678604.0,053_o_m_n_a.png,I,m,1172,18,2,2193.3000000002794,676410.6999999997,8030,NNB,A,16
