acc_sum,block,block_c,block_cond,con_img,correct,correct_response,datetime,endtime,face,jitter,line,project,response,response_time,row_sel,session_number,start_end,starttime,subject_id,task,task_vers,trial
1,prac,1,A,haborder.png,1,m,Fri Jul 18 2025 11:44:39 GMT-0500 (Central Daylight Time),38902.799999952316,CFD-BF-028-020-HC.jpg,2000,solid,I,m,1120,5,3,3918.0,34984.799999952316,8011,ATS,A,1
2,prac,1,A,haborder.png,1,z,Fri Jul 18 2025 11:44:39 GMT-0500 (Central Daylight Time),41316.5,CFD-WF-019-015-A.jpg,1000,solid,I,z,621,12,3,6331.700000047684,34984.799999952316,8011,ATS,A,2
3,prac,1,A,haborder.png,1,m,Fri Jul 18 2025 11:44:39 GMT-0500 (Central Daylight Time),44249.299999952316,CFD-WF-017-016-HC.jpg,1500,solid,I,m,641,11,3,9264.5,34984.799999952316,8011,ATS,A,3
4,prac,1,A,haborder.png,1,z,Fri Jul 18 2025 11:44:39 GMT-0500 (Central Daylight Time),46817.200000047684,CFD-BF-039-039-A.jpg,1200,solid,I,z,590,6,3,11832.400000095367,34984.799999952316,8011,ATS,A,4
5,prac,1,A,haborder.png,1,m,Fri Jul 18 2025 11:44:39 GMT-0500 (Central Daylight Time),50046.700000047684,CFD-WM-006-013-HC.jpg,1700,solid,I,m,716,9,3,15061.900000095367,34984.799999952316,8011,ATS,A,5
6,prac,1,A,haborder.png,1,z,Fri Jul 18 2025 11:44:39 GMT-0500 (Central Daylight Time),53164.0,CFD-BM-005-010-A.jpg,1600,solid,I,z,717,2,3,18179.200000047684,34984.799999952316,8011,ATS,A,6
7,prac,1,A,haborder.png,1,z,Fri Jul 18 2025 11:44:39 GMT-0500 (Central Daylight Time),55597.200000047684,CFD-BF-023-013-A.jpg,1000,solid,I,z,619,4,3,20612.400000095367,34984.799999952316,8011,ATS,A,7
8,prac,1,A,haborder.png,1,z,Fri Jul 18 2025 11:44:39 GMT-0500 (Central Daylight Time),59028.200000047684,CFD-WM-013-015-A.jpg,1900,solid,I,z,732,8,3,24043.400000095367,34984.799999952316,8011,ATS,A,8
9,prac,1,A,haborder.png,1,m,Fri Jul 18 2025 11:44:39 GMT-0500 (Central Daylight Time),62360.39999997616,CFD-BM-017-052-HC.jpg,1700,solid,I,m,840,1,3,27375.600000023842,34984.799999952316,8011,ATS,A,9
10,prac,1,A,haborder.png,1,m,Fri Jul 18 2025 11:44:39 GMT-0500 (Central Daylight Time),65293.0,CFD-WM-004-005-HC.jpg,1400,solid,I,m,745,7,3,30308.200000047684,34984.799999952316,8011,ATS,A,10
11,prac,1,A,haborder.png,1,z,Fri Jul 18 2025 11:44:39 GMT-0500 (Central Daylight Time),68424.29999995232,CFD-WF-003-014-A.jpg,1600,solid,I,z,719,10,3,33439.5,34984.799999952316,8011,ATS,A,11
12,prac,1,A,haborder.png,1,m,Fri Jul 18 2025 11:44:39 GMT-0500 (Central Daylight Time),71507.5,CFD-BM-029-026-HC.jpg,1500,solid,I,m,789,3,3,36522.700000047684,34984.799999952316,8011,ATS,A,12
1,prac,1,B,mfborder.png,1,m,Fri Jul 18 2025 11:44:39 GMT-0500 (Central Daylight Time),85551.70000004768,CFD-WM-019-013-A.jpg,1200,dash,I,m,1000,6,3,2998.5,82553.20000004768,8011,ATS,A,1
2,prac,1,B,mfborder.png,1,m,Fri Jul 18 2025 11:44:39 GMT-0500 (Central Daylight Time),88684.79999995232,CFD-WM-006-013-HC.jpg,1600,dash,I,m,737,10,3,6131.599999904633,82553.20000004768,8011,ATS,A,2
3,prac,1,B,mfborder.png,1,z,Fri Jul 18 2025 11:44:39 GMT-0500 (Central Daylight Time),91467.60000002384,CFD-BF-023-013-A.jpg,1000,dash,I,z,987,4,3,8914.399999976158,82553.20000004768,8011,ATS,A,3
4,prac,1,B,mfborder.png,1,z,Fri Jul 18 2025 11:44:39 GMT-0500 (Central Daylight Time),94432.79999995232,CFD-WF-003-014-A.jpg,1500,dash,I,z,675,11,3,11879.599999904633,82553.20000004768,8011,ATS,A,4
5,prac,1,B,mfborder.png,1,m,Fri Jul 18 2025 11:44:39 GMT-0500 (Central Daylight Time),97366.5,CFD-WM-013-015-A.jpg,1700,dash,I,m,460,9,3,14813.299999952316,82553.20000004768,8011,ATS,A,5
6,prac,1,B,mfborder.png,1,z,Fri Jul 18 2025 11:44:39 GMT-0500 (Central Daylight Time),101098.39999997616,CFD-BF-010-005-HC.jpg,1500,dash,I,z,1432,3,3,18545.199999928474,82553.20000004768,8011,ATS,A,6
7,prac,1,B,mfborder.png,1,z,Fri Jul 18 2025 11:44:39 GMT-0500 (Central Daylight Time),104179.10000002384,CFD-BF-028-020-HC.jpg,1400,dash,I,z,888,7,3,21625.899999976158,82553.20000004768,8011,ATS,A,7
8,prac,1,B,mfborder.png,1,m,Fri Jul 18 2025 11:44:39 GMT-0500 (Central Daylight Time),107245.89999997616,CFD-BM-010-019-A.jpg,1600,dash,I,m,696,2,3,24692.699999928474,82553.20000004768,8011,ATS,A,8
9,prac,1,B,mfborder.png,1,m,Fri Jul 18 2025 11:44:39 GMT-0500 (Central Daylight Time),110510.89999997616,CFD-BM-005-010-A.jpg,2000,dash,I,m,482,5,3,27957.699999928474,82553.20000004768,8011,ATS,A,9
10,prac,1,B,mfborder.png,1,m,Fri Jul 18 2025 11:44:39 GMT-0500 (Central Daylight Time),113559.89999997616,CFD-BM-029-026-HC.jpg,1700,dash,I,m,551,1,3,31006.699999928474,82553.20000004768,8011,ATS,A,10
11,prac,1,B,mfborder.png,1,z,Fri Jul 18 2025 11:44:39 GMT-0500 (Central Daylight Time),116976.60000002384,CFD-WF-002-008-HC.jpg,1900,dash,I,z,743,8,3,34423.39999997616,82553.20000004768,8011,ATS,A,11
12,prac,1,B,mfborder.png,1,z,Fri Jul 18 2025 11:44:39 GMT-0500 (Central Daylight Time),119589.20000004768,CFD-WF-017-016-HC.jpg,1000,dash,I,z,825,12,3,37036.0,82553.20000004768,8011,ATS,A,12
1,test,1,A,haborder.png,1,m,Fri Jul 18 2025 11:44:39 GMT-0500 (Central Daylight Time),131537.29999995232,CFD-BF-028-020-HC.jpg,2000,solid,I,m,807,5,3,2832.7999999523163,128704.5,8011,ATS,A,1
2,test,1,A,haborder.png,1,m,Fri Jul 18 2025 11:44:39 GMT-0500 (Central Daylight Time),134403.5,CFD-BF-028-020-HC.jpg,2000,solid,I,m,832,5,3,5699.0,128704.5,8011,ATS,A,2
3,test,1,A,haborder.png,1,z,Fri Jul 18 2025 11:44:39 GMT-0500 (Central Daylight Time),136270.29999995232,CFD-BF-039-039-A.jpg,1200,solid,I,z,637,6,3,7565.799999952316,128704.5,8011,ATS,A,3
3,test,1,A,haborder.png,0,z,Fri Jul 18 2025 11:44:39 GMT-0500 (Central Daylight Time),138833.79999995232,CFD-WM-013-015-A.jpg,1900,solid,I,m,640,8,3,10129.299999952316,128704.5,8011,ATS,A,4
4,test,1,A,haborder.png,1,m,Fri Jul 18 2025 11:44:39 GMT-0500 (Central Daylight Time),141167.29999995232,CFD-WM-006-013-HC.jpg,1700,solid,I,m,609,9,3,12462.799999952316,128704.5,8011,ATS,A,5
5,test,1,A,haborder.png,1,z,Fri Jul 18 2025 11:44:39 GMT-0500 (Central Daylight Time),143566.5,CFD-WM-013-015-A.jpg,1900,solid,I,z,479,8,3,14862.0,128704.5,8011,ATS,A,6
6,test,1,A,haborder.png,1,m,Fri Jul 18 2025 11:44:39 GMT-0500 (Central Daylight Time),145800.89999997616,CFD-WF-017-016-HC.jpg,1500,solid,I,m,702,11,3,17096.399999976158,128704.5,8011,ATS,A,7
7,test,1,A,haborder.png,1,m,Fri Jul 18 2025 11:44:39 GMT-0500 (Central Daylight Time),147965.29999995232,CFD-WF-017-016-HC.jpg,1500,solid,I,m,648,11,3,19260.799999952316,128704.5,8011,ATS,A,8
8,test,1,A,haborder.png,1,m,Fri Jul 18 2025 11:44:39 GMT-0500 (Central Daylight Time),150564.5,CFD-WM-006-013-HC.jpg,1700,solid,I,m,870,9,3,21860.0,128704.5,8011,ATS,A,9
9,test,1,A,haborder.png,1,z,Fri Jul 18 2025 11:44:39 GMT-0500 (Central Daylight Time),153012.89999997616,CFD-WF-003-014-A.jpg,1600,solid,I,z,820,10,3,24308.399999976158,128704.5,8011,ATS,A,10
10,test,1,A,haborder.png,1,m,Fri Jul 18 2025 11:44:39 GMT-0500 (Central Daylight Time),156079.29999995232,CFD-BM-017-052-HC.jpg,1700,solid,I,m,1334,1,3,27374.799999952316,128704.5,8011,ATS,A,11
11,test,1,A,haborder.png,1,z,Fri Jul 18 2025 11:44:39 GMT-0500 (Central Daylight Time),158311.89999997616,CFD-BF-023-013-A.jpg,1000,solid,I,z,1211,4,3,29607.399999976158,128704.5,8011,ATS,A,12
12,test,1,A,haborder.png,1,z,Fri Jul 18 2025 11:44:39 GMT-0500 (Central Daylight Time),160144.60000002384,CFD-BF-039-039-A.jpg,1200,solid,I,z,598,6,3,31440.100000023842,128704.5,8011,ATS,A,13
13,test,1,A,haborder.png,1,z,Fri Jul 18 2025 11:44:39 GMT-0500 (Central Daylight Time),161802.20000004768,CFD-BF-023-013-A.jpg,1000,solid,I,z,617,4,3,33097.700000047684,128704.5,8011,ATS,A,14
14,test,1,A,haborder.png,1,m,Fri Jul 18 2025 11:44:39 GMT-0500 (Central Daylight Time),164160.70000004768,CFD-BM-029-026-HC.jpg,1500,solid,I,m,832,3,3,35456.200000047684,128704.5,8011,ATS,A,15
15,test,1,A,haborder.png,1,z,Fri Jul 18 2025 11:44:39 GMT-0500 (Central Daylight Time),166526.70000004768,CFD-BM-005-010-A.jpg,1600,solid,I,z,735,2,3,37822.200000047684,128704.5,8011,ATS,A,16
16,test,1,A,haborder.png,1,z,Fri Jul 18 2025 11:44:39 GMT-0500 (Central Daylight Time),168276.5,CFD-WF-019-015-A.jpg,1000,solid,I,z,717,12,3,39572.0,128704.5,8011,ATS,A,17
17,test,1,A,haborder.png,1,z,Fri Jul 18 2025 11:44:39 GMT-0500 (Central Daylight Time),170665.5,CFD-BM-005-010-A.jpg,1600,solid,I,z,749,2,3,41961.0,128704.5,8011,ATS,A,18
18,test,1,A,haborder.png,1,m,Fri Jul 18 2025 11:44:39 GMT-0500 (Central Daylight Time),172874.5,CFD-WM-004-005-HC.jpg,1400,solid,I,m,791,7,3,44170.0,128704.5,8011,ATS,A,19
19,test,1,A,haborder.png,1,m,Fri Jul 18 2025 11:44:39 GMT-0500 (Central Daylight Time),175257.89999997616,CFD-BM-017-052-HC.jpg,1700,solid,I,m,650,1,3,46553.39999997616,128704.5,8011,ATS,A,20
20,test,1,A,haborder.png,1,m,Fri Jul 18 2025 11:44:39 GMT-0500 (Central Daylight Time),177507.60000002384,CFD-BM-029-026-HC.jpg,1500,solid,I,m,718,3,3,48803.10000002384,128704.5,8011,ATS,A,21
21,test,1,A,haborder.png,1,z,Fri Jul 18 2025 11:44:39 GMT-0500 (Central Daylight Time),179289.29999995232,CFD-WF-019-015-A.jpg,1000,solid,I,z,750,12,3,50584.799999952316,128704.5,8011,ATS,A,22
22,test,1,A,haborder.png,1,z,Fri Jul 18 2025 11:44:39 GMT-0500 (Central Daylight Time),181622.10000002384,CFD-WF-003-014-A.jpg,1600,solid,I,z,704,10,3,52917.60000002384,128704.5,8011,ATS,A,23
23,test,1,A,haborder.png,1,m,Fri Jul 18 2025 11:44:39 GMT-0500 (Central Daylight Time),183637.79999995232,CFD-WM-004-005-HC.jpg,1400,solid,I,m,587,7,3,54933.299999952316,128704.5,8011,ATS,A,24
1,test,1,B,mfborder.png,1,z,Fri Jul 18 2025 11:44:39 GMT-0500 (Central Daylight Time),189787.10000002384,CFD-BF-028-020-HC.jpg,1400,dash,I,z,1060,7,3,2500.8000000715256,187286.29999995232,8011,ATS,A,1
2,test,1,B,mfborder.png,1,z,Fri Jul 18 2025 11:44:39 GMT-0500 (Central Daylight Time),191918.5,CFD-BF-010-005-HC.jpg,1500,dash,I,z,602,3,3,4632.200000047684,187286.29999995232,8011,ATS,A,2
3,test,1,B,mfborder.png,1,z,Fri Jul 18 2025 11:44:39 GMT-0500 (Central Daylight Time),193567.89999997616,CFD-WF-017-016-HC.jpg,1000,dash,I,z,627,12,3,6281.600000023842,187286.29999995232,8011,ATS,A,3
4,test,1,B,mfborder.png,1,z,Fri Jul 18 2025 11:44:39 GMT-0500 (Central Daylight Time),195149.60000002384,CFD-BF-023-013-A.jpg,1000,dash,I,z,563,4,3,7863.300000071526,187286.29999995232,8011,ATS,A,4
5,test,1,B,mfborder.png,1,z,Fri Jul 18 2025 11:44:39 GMT-0500 (Central Daylight Time),197250.29999995232,CFD-BF-028-020-HC.jpg,1400,dash,I,z,668,7,3,9964.0,187286.29999995232,8011,ATS,A,5
6,test,1,B,mfborder.png,1,m,Fri Jul 18 2025 11:44:39 GMT-0500 (Central Daylight Time),199316.0,CFD-BM-010-019-A.jpg,1600,dash,I,m,438,2,3,12029.700000047684,187286.29999995232,8011,ATS,A,6
7,test,1,B,mfborder.png,1,z,Fri Jul 18 2025 11:44:39 GMT-0500 (Central Daylight Time),200949.89999997616,CFD-BF-023-013-A.jpg,1000,dash,I,z,616,4,3,13663.600000023842,187286.29999995232,8011,ATS,A,7
8,test,1,B,mfborder.png,1,z,Fri Jul 18 2025 11:44:39 GMT-0500 (Central Daylight Time),203014.29999995232,CFD-WF-003-014-A.jpg,1500,dash,I,z,535,11,3,15728.0,187286.29999995232,8011,ATS,A,8
9,test,1,B,mfborder.png,1,z,Fri Jul 18 2025 11:44:39 GMT-0500 (Central Daylight Time),205113.60000002384,CFD-BF-010-005-HC.jpg,1500,dash,I,z,573,3,3,17827.300000071526,187286.29999995232,8011,ATS,A,9
10,test,1,B,mfborder.png,1,m,Fri Jul 18 2025 11:44:39 GMT-0500 (Central Daylight Time),207264.20000004768,CFD-BM-010-019-A.jpg,1600,dash,I,m,526,2,3,19977.900000095367,187286.29999995232,8011,ATS,A,10
11,test,1,B,mfborder.png,1,m,Fri Jul 18 2025 11:44:39 GMT-0500 (Central Daylight Time),209147.29999995232,CFD-WM-019-013-A.jpg,1200,dash,I,m,650,6,3,21861.0,187286.29999995232,8011,ATS,A,11
12,test,1,B,mfborder.png,1,m,Fri Jul 18 2025 11:44:39 GMT-0500 (Central Daylight Time),211462.39999997616,CFD-WM-006-013-HC.jpg,1600,dash,I,m,678,10,3,24176.100000023842,187286.29999995232,8011,ATS,A,12
13,test,1,B,mfborder.png,1,z,Fri Jul 18 2025 11:44:39 GMT-0500 (Central Daylight Time),214129.0,CFD-WF-002-008-HC.jpg,1900,dash,I,z,744,8,3,26842.700000047684,187286.29999995232,8011,ATS,A,13
14,test,1,B,mfborder.png,1,z,Fri Jul 18 2025 11:44:39 GMT-0500 (Central Daylight Time),216511.10000002384,CFD-WF-002-008-HC.jpg,1900,dash,I,z,461,8,3,29224.800000071526,187286.29999995232,8011,ATS,A,14
15,test,1,B,mfborder.png,1,m,Fri Jul 18 2025 11:44:39 GMT-0500 (Central Daylight Time),219159.0,CFD-BM-005-010-A.jpg,2000,dash,I,m,631,5,3,31872.700000047684,187286.29999995232,8011,ATS,A,15
16,test,1,B,mfborder.png,1,z,Fri Jul 18 2025 11:44:39 GMT-0500 (Central Daylight Time),221228.20000004768,CFD-WF-003-014-A.jpg,1500,dash,I,z,542,11,3,33941.90000009537,187286.29999995232,8011,ATS,A,16
17,test,1,B,mfborder.png,1,m,Fri Jul 18 2025 11:44:39 GMT-0500 (Central Daylight Time),223591.39999997616,CFD-BM-029-026-HC.jpg,1700,dash,I,m,636,1,3,36305.10000002384,187286.29999995232,8011,ATS,A,17
18,test,1,B,mfborder.png,1,z,Fri Jul 18 2025 11:44:39 GMT-0500 (Central Daylight Time),225191.20000004768,CFD-WF-017-016-HC.jpg,1000,dash,I,z,577,12,3,37904.90000009537,187286.29999995232,8011,ATS,A,18
19,test,1,B,mfborder.png,1,m,Fri Jul 18 2025 11:44:39 GMT-0500 (Central Daylight Time),227589.20000004768,CFD-WM-006-013-HC.jpg,1600,dash,I,m,778,10,3,40302.90000009537,187286.29999995232,8011,ATS,A,19
20,test,1,B,mfborder.png,1,m,Fri Jul 18 2025 11:44:39 GMT-0500 (Central Daylight Time),230139.79999995232,CFD-BM-029-026-HC.jpg,1700,dash,I,m,823,1,3,42853.5,187286.29999995232,8011,ATS,A,20
21,test,1,B,mfborder.png,1,m,Fri Jul 18 2025 11:44:39 GMT-0500 (Central Daylight Time),231922.29999995232,CFD-WM-019-013-A.jpg,1200,dash,I,m,550,6,3,44636.0,187286.29999995232,8011,ATS,A,21
22,test,1,B,mfborder.png,1,m,Fri Jul 18 2025 11:44:39 GMT-0500 (Central Daylight Time),234502.20000004768,CFD-WM-013-015-A.jpg,1700,dash,I,m,860,9,3,47215.90000009537,187286.29999995232,8011,ATS,A,22
23,test,1,B,mfborder.png,1,m,Fri Jul 18 2025 11:44:39 GMT-0500 (Central Daylight Time),236726.79999995232,CFD-WM-013-015-A.jpg,1700,dash,I,m,484,9,3,49440.5,187286.29999995232,8011,ATS,A,23
24,test,1,B,mfborder.png,1,m,Fri Jul 18 2025 11:44:39 GMT-0500 (Central Daylight Time),239336.79999995232,CFD-BM-005-010-A.jpg,2000,dash,I,m,584,5,3,52050.5,187286.29999995232,8011,ATS,A,24
0,prac,1,C,mfborder.png,0,z,Fri Jul 18 2025 11:44:39 GMT-0500 (Central Daylight Time),264929.39999997616,CFD-WF-019-015-A.jpg,1500,solid,I,None,1516,2,3,3799.100000023842,261130.29999995232,8011,ATS,A,1
1,prac,1,C,haborder.png,1,m,Fri Jul 18 2025 11:44:39 GMT-0500 (Central Daylight Time),268511.7999999523,CFD-BM-029-026-HC.jpg,1500,solid,I,m,1308,10,3,7381.5,261130.29999995232,8011,ATS,A,2
2,prac,1,C,mfborder.png,1,m,Fri Jul 18 2025 11:44:39 GMT-0500 (Central Daylight Time),272043.2000000477,CFD-BM-017-052-HC.jpg,2000,solid,I,m,737,4,3,10912.900000095367,261130.29999995232,8011,ATS,A,3
3,prac,1,C,haborder.png,1,m,Fri Jul 18 2025 11:44:39 GMT-0500 (Central Daylight Time),275326.39999997616,CFD-WM-004-005-HC.jpg,1400,solid,I,m,1099,12,3,14196.100000023842,261130.29999995232,8011,ATS,A,4
4,prac,1,C,haborder.png,1,z,Fri Jul 18 2025 11:44:39 GMT-0500 (Central Daylight Time),278674.2999999523,CFD-BF-039-039-A.jpg,1700,solid,I,z,854,8,3,17544.0,261130.29999995232,8011,ATS,A,5
5,prac,1,C,mfborder.png,1,z,Fri Jul 18 2025 11:44:39 GMT-0500 (Central Daylight Time),281441.60000002384,CFD-BF-028-020-HC.jpg,1000,dash,I,z,992,3,3,20311.300000071526,261130.29999995232,8011,ATS,A,6
5,prac,1,C,haborder.png,0,z,Fri Jul 18 2025 11:44:39 GMT-0500 (Central Daylight Time),285339.5,CFD-BF-023-013-A.jpg,1900,dash,I,m,1189,7,3,24209.200000047684,261130.29999995232,8011,ATS,A,7
6,prac,1,C,haborder.png,1,z,Fri Jul 18 2025 11:44:39 GMT-0500 (Central Daylight Time),288688.7999999523,CFD-WF-003-014-A.jpg,1600,dash,I,z,967,9,3,27558.5,261130.29999995232,8011,ATS,A,8
7,prac,1,C,mfborder.png,1,m,Fri Jul 18 2025 11:44:39 GMT-0500 (Central Daylight Time),292054.7999999523,CFD-BM-005-010-A.jpg,1200,dash,I,m,1393,5,3,30924.5,261130.29999995232,8011,ATS,A,9
7,prac,1,C,mfborder.png,0,z,Fri Jul 18 2025 11:44:39 GMT-0500 (Central Daylight Time),295969.39999997616,CFD-WF-017-016-HC.jpg,1600,dash,I,None,1517,1,3,34839.10000002384,261130.29999995232,8011,ATS,A,10
7,prac,1,C,mfborder.png,0,m,Fri Jul 18 2025 11:44:39 GMT-0500 (Central Daylight Time),299953.0,CFD-WM-013-015-A.jpg,1700,solid,I,None,1515,6,3,38822.700000047684,261130.29999995232,8011,ATS,A,11
8,prac,1,C,haborder.png,1,m,Fri Jul 18 2025 11:44:39 GMT-0500 (Central Daylight Time),302600.2999999523,CFD-WM-004-005-HC.jpg,1000,dash,I,m,859,11,3,41470.0,261130.29999995232,8011,ATS,A,12
1,test,1,C,mfborder.png,1,m,Fri Jul 18 2025 11:44:39 GMT-0500 (Central Daylight Time),315144.89999997616,CFD-WM-006-013-HC.jpg,1000,dash,I,m,1167,4,3,2198.100000023842,312946.7999999523,8011,ATS,A,1
2,test,1,C,haborder.png,1,m,Fri Jul 18 2025 11:44:39 GMT-0500 (Central Daylight Time),317579.0,CFD-WF-002-008-HC.jpg,1500,solid,I,m,901,11,3,4632.200000047684,312946.7999999523,8011,ATS,A,2
3,test,1,C,mfborder.png,1,m,Fri Jul 18 2025 11:44:39 GMT-0500 (Central Daylight Time),319594.7999999523,CFD-BM-029-026-HC.jpg,1200,dash,I,m,784,6,3,6648.0,312946.7999999523,8011,ATS,A,3
3,test,1,C,mfborder.png,0,z,Fri Jul 18 2025 11:44:39 GMT-0500 (Central Daylight Time),322627.5,CFD-WF-003-014-A.jpg,1500,dash,I,None,1516,3,3,9680.700000047684,312946.7999999523,8011,ATS,A,4
4,test,1,C,haborder.png,1,m,Fri Jul 18 2025 11:44:39 GMT-0500 (Central Daylight Time),324625.89999997616,CFD-WF-017-016-HC.jpg,1000,solid,I,m,975,12,3,11679.100000023842,312946.7999999523,8011,ATS,A,5
5,test,1,C,haborder.png,1,z,Fri Jul 18 2025 11:44:39 GMT-0500 (Central Daylight Time),327508.7000000477,CFD-BM-005-010-A.jpg,1900,solid,I,z,952,8,3,14561.900000095367,312946.7999999523,8011,ATS,A,6
6,test,1,C,haborder.png,1,m,Fri Jul 18 2025 11:44:39 GMT-0500 (Central Daylight Time),330057.2000000477,CFD-BF-028-020-HC.jpg,1600,solid,I,m,925,10,3,17110.400000095367,312946.7999999523,8011,ATS,A,7
7,test,1,C,haborder.png,1,z,Fri Jul 18 2025 11:44:39 GMT-0500 (Central Daylight Time),332141.0,CFD-WM-013-015-A.jpg,1400,solid,I,z,648,7,3,19194.200000047684,312946.7999999523,8011,ATS,A,8
8,test,1,C,haborder.png,1,z,Fri Jul 18 2025 11:44:39 GMT-0500 (Central Daylight Time),334740.2999999523,CFD-BM-010-019-A.jpg,1700,solid,I,z,869,9,3,21793.5,312946.7999999523,8011,ATS,A,9
9,test,1,C,haborder.png,1,z,Fri Jul 18 2025 11:44:39 GMT-0500 (Central Daylight Time),336955.7000000477,CFD-WM-013-015-A.jpg,1400,solid,I,z,783,7,3,24008.900000095367,312946.7999999523,8011,ATS,A,10
9,test,1,C,mfborder.png,0,m,Fri Jul 18 2025 11:44:39 GMT-0500 (Central Daylight Time),339272.0,CFD-WM-006-013-HC.jpg,1000,dash,I,z,1286,4,3,26325.200000047684,312946.7999999523,8011,ATS,A,11
10,test,1,C,mfborder.png,1,m,Fri Jul 18 2025 11:44:39 GMT-0500 (Central Daylight Time),342503.39999997616,CFD-WM-019-013-A.jpg,2000,dash,I,m,1196,5,3,29556.600000023842,312946.7999999523,8011,ATS,A,12
11,test,1,C,haborder.png,1,m,Fri Jul 18 2025 11:44:39 GMT-0500 (Central Daylight Time),345087.7999999523,CFD-BF-028-020-HC.jpg,1600,solid,I,m,963,10,3,32141.0,312946.7999999523,8011,ATS,A,13
12,test,1,C,haborder.png,1,m,Fri Jul 18 2025 11:44:39 GMT-0500 (Central Daylight Time),347784.2999999523,CFD-WF-002-008-HC.jpg,1500,solid,I,m,1167,11,3,34837.5,312946.7999999523,8011,ATS,A,14
12,test,1,C,haborder.png,0,z,Fri Jul 18 2025 11:44:39 GMT-0500 (Central Daylight Time),350916.7000000477,CFD-BM-005-010-A.jpg,1900,solid,I,m,1203,8,3,37969.90000009537,312946.7999999523,8011,ATS,A,15
13,test,1,C,mfborder.png,1,z,Fri Jul 18 2025 11:44:39 GMT-0500 (Central Daylight Time),353635.2000000477,CFD-WF-003-014-A.jpg,1500,dash,I,z,1210,3,3,40688.40000009537,312946.7999999523,8011,ATS,A,16
13,test,1,C,haborder.png,0,m,Fri Jul 18 2025 11:44:39 GMT-0500 (Central Daylight Time),356165.7999999523,CFD-WF-017-016-HC.jpg,1000,solid,I,None,1516,12,3,43219.0,312946.7999999523,8011,ATS,A,17
14,test,1,C,mfborder.png,1,z,Fri Jul 18 2025 11:44:39 GMT-0500 (Central Daylight Time),358780.89999997616,CFD-BF-010-005-HC.jpg,1700,dash,I,z,896,1,3,45834.10000002384,312946.7999999523,8011,ATS,A,18
15,test,1,C,mfborder.png,1,z,Fri Jul 18 2025 11:44:39 GMT-0500 (Central Daylight Time),361497.39999997616,CFD-BF-023-013-A.jpg,1600,dash,I,z,1091,2,3,48550.60000002384,312946.7999999523,8011,ATS,A,19
16,test,1,C,mfborder.png,1,z,Fri Jul 18 2025 11:44:39 GMT-0500 (Central Daylight Time),364330.2999999523,CFD-BF-010-005-HC.jpg,1700,dash,I,z,1101,1,3,51383.5,312946.7999999523,8011,ATS,A,20
17,test,1,C,haborder.png,1,z,Fri Jul 18 2025 11:44:39 GMT-0500 (Central Daylight Time),366795.7000000477,CFD-BM-010-019-A.jpg,1700,solid,I,z,739,9,3,53848.90000009537,312946.7999999523,8011,ATS,A,21
18,test,1,C,mfborder.png,1,m,Fri Jul 18 2025 11:44:39 GMT-0500 (Central Daylight Time),369294.5,CFD-BM-029-026-HC.jpg,1200,dash,I,m,1277,6,3,56347.700000047684,312946.7999999523,8011,ATS,A,22
19,test,1,C,mfborder.png,1,z,Fri Jul 18 2025 11:44:39 GMT-0500 (Central Daylight Time),371694.10000002384,CFD-BF-023-013-A.jpg,1600,dash,I,z,771,2,3,58747.300000071526,312946.7999999523,8011,ATS,A,23
19,test,1,C,mfborder.png,0,m,Fri Jul 18 2025 11:44:39 GMT-0500 (Central Daylight Time),374377.2999999523,CFD-WM-019-013-A.jpg,2000,dash,I,z,652,5,3,61430.5,312946.7999999523,8011,ATS,A,24
1,test,2,C,haborder.png,1,z,Fri Jul 18 2025 11:44:39 GMT-0500 (Central Daylight Time),378459.0,CFD-WF-003-014-A.jpg,1700,solid,I,z,1359,9,3,3098.7000000476837,375360.2999999523,8011,ATS,A,1
2,test,2,C,mfborder.png,1,z,Fri Jul 18 2025 11:44:39 GMT-0500 (Central Daylight Time),381173.7000000477,CFD-BF-028-020-HC.jpg,1500,dash,I,z,1192,3,3,5813.400000095367,375360.2999999523,8011,ATS,A,2
3,test,2,C,mfborder.png,1,z,Fri Jul 18 2025 11:44:39 GMT-0500 (Central Daylight Time),384140.60000002384,CFD-WF-019-015-A.jpg,1600,dash,I,z,1333,2,3,8780.300000071526,375360.2999999523,8011,ATS,A,3
4,test,2,C,mfborder.png,1,z,Fri Jul 18 2025 11:44:39 GMT-0500 (Central Daylight Time),386572.7000000477,CFD-WF-017-016-HC.jpg,1700,dash,I,z,700,1,3,11212.400000095367,375360.2999999523,8011,ATS,A,4
5,test,2,C,haborder.png,1,z,Fri Jul 18 2025 11:44:39 GMT-0500 (Central Daylight Time),389321.7000000477,CFD-WF-003-014-A.jpg,1700,solid,I,z,1017,9,3,13961.400000095367,375360.2999999523,8011,ATS,A,5
6,test,2,C,haborder.png,1,m,Fri Jul 18 2025 11:44:39 GMT-0500 (Central Daylight Time),391804.60000002384,CFD-BM-029-026-HC.jpg,1600,solid,I,m,852,10,3,16444.300000071526,375360.2999999523,8011,ATS,A,6
7,test,2,C,mfborder.png,1,m,Fri Jul 18 2025 11:44:39 GMT-0500 (Central Daylight Time),394520.60000002384,CFD-WM-013-015-A.jpg,1200,dash,I,m,1483,6,3,19160.300000071526,375360.2999999523,8011,ATS,A,7
8,test,2,C,mfborder.png,1,m,Fri Jul 18 2025 11:44:39 GMT-0500 (Central Daylight Time),396569.89999997616,CFD-BM-017-052-HC.jpg,1000,dash,I,m,1020,4,3,21209.600000023842,375360.2999999523,8011,ATS,A,8
9,test,2,C,mfborder.png,1,m,Fri Jul 18 2025 11:44:39 GMT-0500 (Central Daylight Time),399385.2000000477,CFD-BM-005-010-A.jpg,2000,dash,I,m,782,5,3,24024.900000095367,375360.2999999523,8011,ATS,A,9
10,test,2,C,haborder.png,1,m,Fri Jul 18 2025 11:44:39 GMT-0500 (Central Daylight Time),402167.60000002384,CFD-WM-004-005-HC.jpg,1500,solid,I,m,1244,11,3,26807.300000071526,375360.2999999523,8011,ATS,A,10
11,test,2,C,haborder.png,1,z,Fri Jul 18 2025 11:44:39 GMT-0500 (Central Daylight Time),404834.60000002384,CFD-BF-039-039-A.jpg,1900,solid,I,z,741,8,3,29474.300000071526,375360.2999999523,8011,ATS,A,11
12,test,2,C,mfborder.png,1,m,Fri Jul 18 2025 11:44:39 GMT-0500 (Central Daylight Time),407916.5,CFD-BM-005-010-A.jpg,2000,dash,I,m,1051,5,3,32556.200000047684,375360.2999999523,8011,ATS,A,12
13,test,2,C,haborder.png,1,z,Fri Jul 18 2025 11:44:39 GMT-0500 (Central Daylight Time),410499.7000000477,CFD-BF-023-013-A.jpg,1400,solid,I,z,1151,7,3,35139.40000009537,375360.2999999523,8011,ATS,A,13
14,test,2,C,haborder.png,1,m,Fri Jul 18 2025 11:44:39 GMT-0500 (Central Daylight Time),412232.39999997616,CFD-WM-004-005-HC.jpg,1000,solid,I,m,711,12,3,36872.10000002384,375360.2999999523,8011,ATS,A,14
15,test,2,C,mfborder.png,1,z,Fri Jul 18 2025 11:44:39 GMT-0500 (Central Daylight Time),414830.7000000477,CFD-WF-017-016-HC.jpg,1700,dash,I,z,876,1,3,39470.40000009537,375360.2999999523,8011,ATS,A,15
16,test,2,C,haborder.png,1,z,Fri Jul 18 2025 11:44:39 GMT-0500 (Central Daylight Time),417013.39999997616,CFD-BF-023-013-A.jpg,1400,solid,I,z,762,7,3,41653.10000002384,375360.2999999523,8011,ATS,A,16
17,test,2,C,mfborder.png,1,m,Fri Jul 18 2025 11:44:39 GMT-0500 (Central Daylight Time),419196.89999997616,CFD-BM-017-052-HC.jpg,1000,dash,I,m,1150,4,3,43836.60000002384,375360.2999999523,8011,ATS,A,17
18,test,2,C,haborder.png,1,m,Fri Jul 18 2025 11:44:39 GMT-0500 (Central Daylight Time),421529.39999997616,CFD-WM-004-005-HC.jpg,1500,solid,I,m,810,11,3,46169.10000002384,375360.2999999523,8011,ATS,A,18
19,test,2,C,mfborder.png,1,z,Fri Jul 18 2025 11:44:39 GMT-0500 (Central Daylight Time),423794.2999999523,CFD-BF-028-020-HC.jpg,1500,dash,I,z,740,3,3,48434.0,375360.2999999523,8011,ATS,A,19
20,test,2,C,mfborder.png,1,z,Fri Jul 18 2025 11:44:39 GMT-0500 (Central Daylight Time),426160.0,CFD-WF-019-015-A.jpg,1600,dash,I,z,744,2,3,50799.700000047684,375360.2999999523,8011,ATS,A,20
21,test,2,C,haborder.png,1,m,Fri Jul 18 2025 11:44:39 GMT-0500 (Central Daylight Time),427843.7999999523,CFD-WM-004-005-HC.jpg,1000,solid,I,m,655,12,3,52483.5,375360.2999999523,8011,ATS,A,21
22,test,2,C,haborder.png,1,z,Fri Jul 18 2025 11:44:39 GMT-0500 (Central Daylight Time),430609.2999999523,CFD-BF-039-039-A.jpg,1900,solid,I,z,834,8,3,55249.0,375360.2999999523,8011,ATS,A,22
23,test,2,C,mfborder.png,1,m,Fri Jul 18 2025 11:44:39 GMT-0500 (Central Daylight Time),432925.10000002384,CFD-WM-013-015-A.jpg,1200,dash,I,m,1084,6,3,57564.800000071526,375360.2999999523,8011,ATS,A,23
24,test,2,C,haborder.png,1,m,Fri Jul 18 2025 11:44:39 GMT-0500 (Central Daylight Time),435556.0,CFD-BM-029-026-HC.jpg,1600,solid,I,m,1005,10,3,60195.700000047684,375360.2999999523,8011,ATS,A,24
0,test,3,C,mfborder.png,0,m,Fri Jul 18 2025 11:44:39 GMT-0500 (Central Daylight Time),439171.0,CFD-BM-029-026-HC.jpg,1200,dash,I,None,1505,6,3,2730.899999976158,436440.10000002384,8011,ATS,A,1
1,test,3,C,haborder.png,1,m,Fri Jul 18 2025 11:44:39 GMT-0500 (Central Daylight Time),441822.5,CFD-BF-028-020-HC.jpg,1600,solid,I,m,1012,10,3,5382.399999976158,436440.10000002384,8011,ATS,A,2
2,test,3,C,haborder.png,1,m,Fri Jul 18 2025 11:44:39 GMT-0500 (Central Daylight Time),444038.5,CFD-WF-002-008-HC.jpg,1500,solid,I,m,699,11,3,7598.399999976158,436440.10000002384,8011,ATS,A,3
3,test,3,C,haborder.png,1,z,Fri Jul 18 2025 11:44:39 GMT-0500 (Central Daylight Time),446239.10000002384,CFD-WM-013-015-A.jpg,1400,solid,I,z,784,7,3,9799.0,436440.10000002384,8011,ATS,A,4
4,test,3,C,mfborder.png,1,m,Fri Jul 18 2025 11:44:39 GMT-0500 (Central Daylight Time),448187.5,CFD-WM-006-013-HC.jpg,1000,dash,I,m,923,4,3,11747.399999976158,436440.10000002384,8011,ATS,A,5
5,test,3,C,haborder.png,1,m,Fri Jul 18 2025 11:44:39 GMT-0500 (Central Daylight Time),450220.89999997616,CFD-WF-017-016-HC.jpg,1000,solid,I,m,1008,12,3,13780.799999952316,436440.10000002384,8011,ATS,A,6
5,test,3,C,mfborder.png,0,m,Fri Jul 18 2025 11:44:39 GMT-0500 (Central Daylight Time),453069.2999999523,CFD-WM-019-013-A.jpg,2000,dash,I,z,818,5,3,16629.199999928474,436440.10000002384,8011,ATS,A,7
6,test,3,C,haborder.png,1,m,Fri Jul 18 2025 11:44:39 GMT-0500 (Central Daylight Time),454717.5,CFD-WF-017-016-HC.jpg,1000,solid,I,m,620,12,3,18277.399999976158,436440.10000002384,8011,ATS,A,8
7,test,3,C,mfborder.png,1,z,Fri Jul 18 2025 11:44:39 GMT-0500 (Central Daylight Time),457200.39999997616,CFD-BF-010-005-HC.jpg,1700,dash,I,z,749,1,3,20760.299999952316,436440.10000002384,8011,ATS,A,9
7,test,3,C,haborder.png,0,z,Fri Jul 18 2025 11:44:39 GMT-0500 (Central Daylight Time),460016.7000000477,CFD-BM-005-010-A.jpg,1900,solid,I,m,884,8,3,23576.600000023842,436440.10000002384,8011,ATS,A,10
7,test,3,C,mfborder.png,0,m,Fri Jul 18 2025 11:44:39 GMT-0500 (Central Daylight Time),462539.2999999523,CFD-WM-006-013-HC.jpg,1000,dash,I,None,1503,4,3,26099.199999928474,436440.10000002384,8011,ATS,A,11
8,test,3,C,mfborder.png,1,z,Fri Jul 18 2025 11:44:39 GMT-0500 (Central Daylight Time),465165.10000002384,CFD-BF-010-005-HC.jpg,1700,dash,I,z,905,1,3,28725.0,436440.10000002384,8011,ATS,A,12
9,test,3,C,mfborder.png,1,m,Fri Jul 18 2025 11:44:39 GMT-0500 (Central Daylight Time),467364.39999997616,CFD-BM-029-026-HC.jpg,1200,dash,I,m,967,6,3,30924.299999952316,436440.10000002384,8011,ATS,A,13
10,test,3,C,mfborder.png,1,z,Fri Jul 18 2025 11:44:39 GMT-0500 (Central Daylight Time),470262.2000000477,CFD-BF-023-013-A.jpg,1600,dash,I,z,1267,2,3,33822.10000002384,436440.10000002384,8011,ATS,A,14
11,test,3,C,haborder.png,1,z,Fri Jul 18 2025 11:44:39 GMT-0500 (Central Daylight Time),472596.10000002384,CFD-WM-013-015-A.jpg,1400,solid,I,z,907,7,3,36156.0,436440.10000002384,8011,ATS,A,15
12,test,3,C,mfborder.png,1,m,Fri Jul 18 2025 11:44:39 GMT-0500 (Central Daylight Time),475761.60000002384,CFD-WM-019-013-A.jpg,2000,dash,I,m,1133,5,3,39321.5,436440.10000002384,8011,ATS,A,16
13,test,3,C,haborder.png,1,m,Fri Jul 18 2025 11:44:39 GMT-0500 (Central Daylight Time),477977.0,CFD-WF-002-008-HC.jpg,1500,solid,I,m,693,11,3,41536.89999997616,436440.10000002384,8011,ATS,A,17
14,test,3,C,haborder.png,1,z,Fri Jul 18 2025 11:44:39 GMT-0500 (Central Daylight Time),480476.5,CFD-BM-010-019-A.jpg,1700,solid,I,z,780,9,3,44036.39999997616,436440.10000002384,8011,ATS,A,18
15,test,3,C,haborder.png,1,z,Fri Jul 18 2025 11:44:39 GMT-0500 (Central Daylight Time),483225.7000000477,CFD-BM-005-010-A.jpg,1900,solid,I,z,817,8,3,46785.60000002384,436440.10000002384,8011,ATS,A,19
16,test,3,C,haborder.png,1,m,Fri Jul 18 2025 11:44:39 GMT-0500 (Central Daylight Time),485607.60000002384,CFD-BF-028-020-HC.jpg,1600,solid,I,m,753,10,3,49167.5,436440.10000002384,8011,ATS,A,20
17,test,3,C,mfborder.png,1,z,Fri Jul 18 2025 11:44:39 GMT-0500 (Central Daylight Time),488107.2999999523,CFD-WF-003-014-A.jpg,1500,dash,I,z,969,3,3,51667.199999928474,436440.10000002384,8011,ATS,A,21
18,test,3,C,haborder.png,1,z,Fri Jul 18 2025 11:44:39 GMT-0500 (Central Daylight Time),490723.2999999523,CFD-BM-010-019-A.jpg,1700,solid,I,z,891,9,3,54283.199999928474,436440.10000002384,8011,ATS,A,22
19,test,3,C,mfborder.png,1,z,Fri Jul 18 2025 11:44:39 GMT-0500 (Central Daylight Time),493773.2999999523,CFD-BF-023-013-A.jpg,1600,dash,I,z,1421,2,3,57333.199999928474,436440.10000002384,8011,ATS,A,23
20,test,3,C,mfborder.png,1,z,Fri Jul 18 2025 11:44:39 GMT-0500 (Central Daylight Time),496020.2999999523,CFD-WF-003-014-A.jpg,1500,dash,I,z,711,3,3,59580.199999928474,436440.10000002384,8011,ATS,A,24
1,test,4,C,mfborder.png,1,z,Fri Jul 18 2025 11:44:39 GMT-0500 (Central Daylight Time),499170.60000002384,CFD-BF-028-020-HC.jpg,1500,dash,I,z,841,3,3,2365.600000023842,496805.0,8011,ATS,A,1
2,test,4,C,mfborder.png,1,m,Fri Jul 18 2025 11:44:39 GMT-0500 (Central Daylight Time),502052.10000002384,CFD-BM-005-010-A.jpg,2000,dash,I,m,854,5,3,5247.100000023842,496805.0,8011,ATS,A,2
3,test,4,C,mfborder.png,1,z,Fri Jul 18 2025 11:44:39 GMT-0500 (Central Daylight Time),504569.10000002384,CFD-WF-017-016-HC.jpg,1700,dash,I,z,794,1,3,7764.100000023842,496805.0,8011,ATS,A,3
3,test,4,C,haborder.png,0,z,Fri Jul 18 2025 11:44:39 GMT-0500 (Central Daylight Time),507801.2000000477,CFD-WF-003-014-A.jpg,1700,solid,I,None,1515,9,3,10996.200000047684,496805.0,8011,ATS,A,4
4,test,4,C,haborder.png,1,z,Fri Jul 18 2025 11:44:39 GMT-0500 (Central Daylight Time),509853.0,CFD-BF-023-013-A.jpg,1400,solid,I,z,623,7,3,13048.0,496805.0,8011,ATS,A,5
5,test,4,C,haborder.png,1,m,Fri Jul 18 2025 11:44:39 GMT-0500 (Central Daylight Time),511483.5,CFD-WM-004-005-HC.jpg,1000,solid,I,m,600,12,3,14678.5,496805.0,8011,ATS,A,6
6,test,4,C,mfborder.png,1,m,Fri Jul 18 2025 11:44:39 GMT-0500 (Central Daylight Time),513781.89999997616,CFD-WM-013-015-A.jpg,1200,dash,I,m,1069,6,3,16976.899999976158,496805.0,8011,ATS,A,7
7,test,4,C,haborder.png,1,z,Fri Jul 18 2025 11:44:39 GMT-0500 (Central Daylight Time),516197.89999997616,CFD-WF-003-014-A.jpg,1700,solid,I,z,695,9,3,19392.899999976158,496805.0,8011,ATS,A,8
8,test,4,C,mfborder.png,1,z,Fri Jul 18 2025 11:44:39 GMT-0500 (Central Daylight Time),518531.0,CFD-WF-019-015-A.jpg,1600,dash,I,z,701,2,3,21726.0,496805.0,8011,ATS,A,9
9,test,4,C,mfborder.png,1,z,Fri Jul 18 2025 11:44:39 GMT-0500 (Central Daylight Time),520747.7000000477,CFD-WF-019-015-A.jpg,1600,dash,I,z,589,2,3,23942.700000047684,496805.0,8011,ATS,A,10
10,test,4,C,haborder.png,1,m,Fri Jul 18 2025 11:44:39 GMT-0500 (Central Daylight Time),523145.2999999523,CFD-BM-029-026-HC.jpg,1600,solid,I,m,773,10,3,26340.299999952316,496805.0,8011,ATS,A,11
11,test,4,C,haborder.png,1,z,Fri Jul 18 2025 11:44:39 GMT-0500 (Central Daylight Time),525278.0,CFD-BF-023-013-A.jpg,1400,solid,I,z,711,7,3,28473.0,496805.0,8011,ATS,A,12
11,test,4,C,mfborder.png,0,m,Fri Jul 18 2025 11:44:39 GMT-0500 (Central Daylight Time),528011.6000000238,CFD-WM-013-015-A.jpg,1200,dash,I,None,1515,6,3,31206.600000023842,496805.0,8011,ATS,A,13
12,test,4,C,mfborder.png,1,m,Fri Jul 18 2025 11:44:39 GMT-0500 (Central Daylight Time),529727.2999999523,CFD-BM-017-052-HC.jpg,1000,dash,I,m,683,4,3,32922.299999952316,496805.0,8011,ATS,A,14
13,test,4,C,mfborder.png,1,m,Fri Jul 18 2025 11:44:39 GMT-0500 (Central Daylight Time),532509.1000000238,CFD-BM-005-010-A.jpg,2000,dash,I,m,761,5,3,35704.10000002384,496805.0,8011,ATS,A,15
14,test,4,C,haborder.png,1,m,Fri Jul 18 2025 11:44:39 GMT-0500 (Central Daylight Time),534692.1000000238,CFD-WM-004-005-HC.jpg,1500,solid,I,m,655,11,3,37887.10000002384,496805.0,8011,ATS,A,16
15,test,4,C,haborder.png,1,z,Fri Jul 18 2025 11:44:39 GMT-0500 (Central Daylight Time),537840.7999999523,CFD-BF-039-039-A.jpg,1900,solid,I,z,1218,8,3,41035.799999952316,496805.0,8011,ATS,A,17
16,test,4,C,haborder.png,1,m,Fri Jul 18 2025 11:44:39 GMT-0500 (Central Daylight Time),539924.2999999523,CFD-WM-004-005-HC.jpg,1500,solid,I,m,564,11,3,43119.299999952316,496805.0,8011,ATS,A,18
17,test,4,C,haborder.png,1,m,Fri Jul 18 2025 11:44:39 GMT-0500 (Central Daylight Time),542423.6000000238,CFD-BM-029-026-HC.jpg,1600,solid,I,m,878,10,3,45618.60000002384,496805.0,8011,ATS,A,19
18,test,4,C,haborder.png,1,z,Fri Jul 18 2025 11:44:39 GMT-0500 (Central Daylight Time),545071.8999999762,CFD-BF-039-039-A.jpg,1900,solid,I,z,726,8,3,48266.89999997616,496805.0,8011,ATS,A,20
19,test,4,C,mfborder.png,1,z,Fri Jul 18 2025 11:44:39 GMT-0500 (Central Daylight Time),547403.7000000477,CFD-BF-028-020-HC.jpg,1500,dash,I,z,804,3,3,50598.700000047684,496805.0,8011,ATS,A,21
20,test,4,C,mfborder.png,1,m,Fri Jul 18 2025 11:44:39 GMT-0500 (Central Daylight Time),549204.1000000238,CFD-BM-017-052-HC.jpg,1000,dash,I,m,763,4,3,52399.10000002384,496805.0,8011,ATS,A,22
21,test,4,C,haborder.png,1,m,Fri Jul 18 2025 11:44:39 GMT-0500 (Central Daylight Time),550821.3999999762,CFD-WM-004-005-HC.jpg,1000,solid,I,m,600,12,3,54016.39999997616,496805.0,8011,ATS,A,23
22,test,4,C,mfborder.png,1,z,Fri Jul 18 2025 11:44:39 GMT-0500 (Central Daylight Time),553269.7999999523,CFD-WF-017-016-HC.jpg,1700,dash,I,z,732,1,3,56464.799999952316,496805.0,8011,ATS,A,24
