acc_sum,block_c,block_dur,condition,correct,correct_response,countdown,datetime,endtime,project,response,response_time,response_time_test1_response,response_time_test2_response,row_sel,same,session_number,start_end,starttime,stim1,stim2,subject_id,task,task_vers,time_test1,time_test2,trial
1,1,0.0,prac,1,m,30000.0,Mon Jan 12 2026 13:05:11 GMT-0600 (Central Standard Time),45094.0,O,m,4170,,,3,no,1,5694.5,39399.5,QHZXPC,QHZWPC,7726,LC,C,,,1
1,1,0.0,prac,0,z,30000.0,Mon Jan 12 2026 13:05:11 GMT-0600 (Central Standard Time),50224.800000190735,O,m,3599,,,6,yes,1,5125.900000095367,45098.90000009537,CSDBFPHXZ,CSDBFPHXZ,7726,LC,C,,,2
2,1,0.0,prac,1,m,30000.0,Mon Jan 12 2026 13:05:11 GMT-0600 (Central Standard Time),55341.0,O,m,3588,,,5,no,1,5111.5,50229.5,LNDPRSKQB,LNDPRSJQB,7726,LC,C,,,3
3,1,0.0,prac,1,z,30000.0,Mon Jan 12 2026 13:05:11 GMT-0600 (Central Standard Time),60222.0,O,z,3343,,,2,yes,1,4875.5,55346.5,NBGFSM,NBGFSM,7726,LC,C,,,4
4,1,0.0,prac,1,z,30000.0,Mon Jan 12 2026 13:05:11 GMT-0600 (Central Standard Time),64160.200000047684,O,z,2416,,,4,yes,1,3934.399999856949,60225.800000190735,RSM,RSM,7726,LC,C,,,5
5,1,0.0,prac,1,m,30000.0,Mon Jan 12 2026 13:05:11 GMT-0600 (Central Standard Time),67120.70000004768,O,m,1430,,,1,no,1,2957.399999856949,64163.300000190735,RNV,FNV,7726,LC,C,,,6
1,1,2.132999897003174,test,1,m,27867.000102996826,Mon Jan 12 2026 13:05:11 GMT-0600 (Central Standard Time),74450.80000019073,O,m,2129,2129,,1,no,1,2130.300000190735,72320.5,HCF,RCF,7726,LC,C,69957,,1
2,1,4.081999778747559,test,1,m,25918.00022125244,Mon Jan 12 2026 13:05:11 GMT-0600 (Central Standard Time),76400.10000014305,O,m,1932,1932,,2,no,1,1946.7999999523163,74453.30000019073,QTPRJX,QTPNJX,7726,LC,C,72090,,2
3,1,8.197999954223633,test,1,m,21802.000045776367,Mon Jan 12 2026 13:05:11 GMT-0600 (Central Standard Time),80516.10000014305,O,m,4110,4110,,3,no,1,4113.100000143051,76403.0,MZDYGVGKQ,MZDYGLBKQ,7726,LC,C,74040,,3
4,1,9.615000009536743,test,1,m,20384.999990463257,Mon Jan 12 2026 13:05:11 GMT-0600 (Central Standard Time),81932.20000004768,O,m,1403,1403,,4,no,1,1413.7999999523163,80518.40000009537,FQTNMK,JQTNMK,7726,LC,C,78155,,4
5,1,12.346999883651733,test,1,z,17653.000116348267,Mon Jan 12 2026 13:05:11 GMT-0600 (Central Standard Time),84664.20000004768,O,z,2724,2724,,5,yes,1,2729.7999999523163,81934.40000009537,CLJ,CLJ,7726,LC,C,79571,,5
6,1,16.02999997138977,test,1,m,13970.00002861023,Mon Jan 12 2026 13:05:11 GMT-0600 (Central Standard Time),88347.20000004768,O,m,3662,3662,,6,no,1,3679.7999999523163,84667.40000009537,JGDMNSVPW,JGZMNSVPW,7726,LC,C,82304,,6
7,1,21.15999984741211,test,1,z,8840.00015258789,Mon Jan 12 2026 13:05:11 GMT-0600 (Central Standard Time),93478.10000014305,O,z,5117,5117,,7,yes,1,5128.5,88349.60000014305,FPTVHKCBJ,FPTVHKCBJ,7726,LC,C,85986,,7
8,1,23.47599983215332,test,1,m,6524.00016784668,Mon Jan 12 2026 13:05:11 GMT-0600 (Central Standard Time),95793.30000019073,O,m,2297,2297,,8,no,1,2312.800000190735,93480.5,XRPZBS,ZRPBDH,7726,LC,C,91117,,8
9,1,24.90999984741211,test,1,m,5090.000152587891,Mon Jan 12 2026 13:05:11 GMT-0600 (Central Standard Time),97228.0,O,m,1422,1422,,9,no,1,1432.0,95796.0,ZSQ,ZSP,7726,LC,C,93432,,9
10,1,28.20799994468689,test,1,z,1792.0000553131104,Mon Jan 12 2026 13:05:11 GMT-0600 (Central Standard Time),100525.30000019073,O,z,3281,3281,,10,yes,1,3293.300000190735,97232.0,MPZRXL,MPZRXL,7726,LC,C,94869,,10
11,1,29.557999849319458,test,1,m,442.000150680542,Mon Jan 12 2026 13:05:11 GMT-0600 (Central Standard Time),101875.90000009537,O,m,1338,1338,,11,no,1,1348.4000000953674,100527.5,KJH,KRH,7726,LC,C,98164,,11
11,1,30.006999969482422,test,0,z,-6.999969482421875,Mon Jan 12 2026 13:05:11 GMT-0600 (Central Standard Time),102325.10000014305,O,None,445,445,,12,yes,1,445.60000014305115,101879.5,SMNHVTFCB,SMNHVTFCB,7726,LC,C,99516,,12
1,2,4.615999937057495,test,1,z,25384.000062942505,Mon Jan 12 2026 13:05:11 GMT-0600 (Central Standard Time),112588.90000009537,O,z,4611,,4611.0,1,yes,1,10709.400000095367,101879.5,PRDBZTYFN,PRDBZTYFN,7726,LC,C,,105611.0,1
2,2,8.164999961853027,test,1,m,21835.000038146973,Mon Jan 12 2026 13:05:11 GMT-0600 (Central Standard Time),116137.90000009537,O,m,3546,,3546.0,2,no,1,14258.400000095367,101879.5,NCWJDZ,NCMJDZ,7726,LC,C,,110228.0,2
3,2,9.728999853134155,test,1,m,20271.000146865845,Mon Jan 12 2026 13:05:11 GMT-0600 (Central Standard Time),117702.0,O,m,1550,,1550.0,3,no,1,15822.5,101879.5,KHW,KBW,7726,LC,C,,113776.0,3
4,2,11.42799997329712,test,1,m,18572.00002670288,Mon Jan 12 2026 13:05:11 GMT-0600 (Central Standard Time),119401.20000004768,O,m,1689,,1689.0,4,no,1,17521.700000047684,101879.5,ZRBGMF,ZRBCMF,7726,LC,C,,115341.0,4
5,2,12.579999923706055,test,1,m,17420.000076293945,Mon Jan 12 2026 13:05:11 GMT-0600 (Central Standard Time),120552.5,O,m,1142,,1142.0,5,no,1,18673.0,101879.5,BTH,BYH,7726,LC,C,,117040.0,5
6,2,17.096999883651733,test,1,z,12903.000116348267,Mon Jan 12 2026 13:05:11 GMT-0600 (Central Standard Time),125069.90000009537,O,z,4511,,4511.0,6,yes,1,23190.400000095367,101879.5,XWKQRYCNZ,XWKQRYCNZ,7726,LC,C,,118192.0,6
6,2,20.3439998626709,test,0,z,9656.000137329102,Mon Jan 12 2026 13:05:11 GMT-0600 (Central Standard Time),128317.20000004768,O,m,3233,,3233.0,7,yes,1,26437.700000047684,101879.5,HNPDLK,HNPDLK,7726,LC,C,,122709.0,7
7,2,26.32699990272522,test,1,m,3673.0000972747803,Mon Jan 12 2026 13:05:11 GMT-0600 (Central Standard Time),134299.30000019073,O,m,5969,,5969.0,8,no,1,32419.800000190735,101879.5,WMQTRSGLZ,WMQTRZGLZ,7726,LC,C,,125958.0,8
8,2,27.759999990463257,test,1,z,2240.000009536743,Mon Jan 12 2026 13:05:11 GMT-0600 (Central Standard Time),135732.30000019073,O,z,1429,,1429.0,9,yes,1,33852.800000190735,101879.5,JPN,JPN,7726,LC,C,,131938.0,9
9,2,29.057999849319458,test,1,m,942.000150680542,Mon Jan 12 2026 13:05:11 GMT-0600 (Central Standard Time),137030.30000019073,O,m,1291,,1291.0,10,no,1,35150.800000190735,101879.5,QLXSVT,QLNSVT,7726,LC,C,,133371.0,10
9,2,30.007999897003174,test,0,z,-7.999897003173828,Mon Jan 12 2026 13:05:11 GMT-0600 (Central Standard Time),137980.40000009537,O,None,947,,947.0,11,yes,1,36100.90000009537,101879.5,YXHKZVFPB,YXHKZVFPD,7726,LC,C,,134669.0,11
