block_c,block_dur,condition,countdown,datetime,endtime,list,multichar_response,project,response,response_time,session_number,start_end,starttime,subject_id,task,task_vers,trial
,,,,Tue Sep 30 2025 11:01:16 GMT-0500 (Central Daylight Time),,,,O,space,2140,1,,,7220,WL,B,
prac,,0,,Tue Sep 30 2025 11:01:16 GMT-0500 (Central Daylight Time),,NA,b,O,b,1483,1,,,7220,WL,B,1.0
prac,,0,,Tue Sep 30 2025 11:01:16 GMT-0500 (Central Daylight Time),,NA,bo,O,o,847,1,,,7220,WL,B,1.0
prac,,0,,Tue Sep 30 2025 11:01:16 GMT-0500 (Central Daylight Time),,NA,boo,O,o,117,1,,,7220,WL,B,1.0
prac,,0,,Tue Sep 30 2025 11:01:16 GMT-0500 (Central Daylight Time),,NA,boos,O,s,129,1,,,7220,WL,B,1.0
prac,,0,,Tue Sep 30 2025 11:01:16 GMT-0500 (Central Daylight Time),,NA,boost,O,t,234,1,,,7220,WL,B,1.0
prac,,0,,Tue Sep 30 2025 11:01:16 GMT-0500 (Central Daylight Time),,NA,boostenter,O,enter,136,1,,,7220,WL,B,1.0
1,3.9820001125335693,learn,56017.99988746643,Tue Sep 30 2025 11:01:16 GMT-0500 (Central Daylight Time),132978.10000002384,A,s,O,s,3970,1,3982.100000023842,128996.0,7220,WL,B,1.0
1,4.117000102996826,learn,55882.999897003174,Tue Sep 30 2025 11:01:16 GMT-0500 (Central Daylight Time),133112.80000001192,A,st,O,t,122,1,4116.800000011921,128996.0,7220,WL,B,1.0
1,4.233999967575073,learn,55766.00003242493,Tue Sep 30 2025 11:01:16 GMT-0500 (Central Daylight Time),133229.69999998808,A,str,O,r,108,1,4233.699999988079,128996.0,7220,WL,B,1.0
1,4.498000144958496,learn,55501.999855041504,Tue Sep 30 2025 11:01:16 GMT-0500 (Central Daylight Time),133494.19999998808,A,stre,O,e,254,1,4498.199999988079,128996.0,7220,WL,B,1.0
1,4.682000160217285,learn,55317.999839782715,Tue Sep 30 2025 11:01:16 GMT-0500 (Central Daylight Time),133677.80000001192,A,stree,O,e,167,1,4681.800000011921,128996.0,7220,WL,B,1.0
1,5.2799999713897705,learn,54720.00002861023,Tue Sep 30 2025 11:01:16 GMT-0500 (Central Daylight Time),134276.19999998808,A,street,O,t,589,1,5280.199999988079,128996.0,7220,WL,B,1.0
1,5.865999937057495,learn,54134.000062942505,Tue Sep 30 2025 11:01:16 GMT-0500 (Central Daylight Time),134861.60000002384,A,streetenter,O,enter,578,1,5865.600000023842,128996.0,7220,WL,B,1.0
1,7.230000019073486,learn,52769.999980926514,Tue Sep 30 2025 11:01:16 GMT-0500 (Central Daylight Time),136226.39999997616,A,g,O,g,1342,1,1364.3999999761581,134862.0,7220,WL,B,2.0
1,7.315999984741211,learn,52684.00001525879,Tue Sep 30 2025 11:01:16 GMT-0500 (Central Daylight Time),136312.10000002384,A,gr,O,r,72,1,1450.1000000238419,134862.0,7220,WL,B,2.0
1,7.578999996185303,learn,52421.0000038147,Tue Sep 30 2025 11:01:16 GMT-0500 (Central Daylight Time),136575.30000001192,A,gra,O,a,241,1,1713.300000011921,134862.0,7220,WL,B,2.0
1,7.814000129699707,learn,52185.99987030029,Tue Sep 30 2025 11:01:16 GMT-0500 (Central Daylight Time),136810.0,A,gras,O,s,222,1,1948.0,134862.0,7220,WL,B,2.0
1,7.965000152587891,learn,52034.99984741211,Tue Sep 30 2025 11:01:16 GMT-0500 (Central Daylight Time),136960.80000001192,A,grass,O,s,138,1,2098.800000011921,134862.0,7220,WL,B,2.0
1,8.098000049591064,learn,51901.999950408936,Tue Sep 30 2025 11:01:16 GMT-0500 (Central Daylight Time),137093.89999997616,A,grassenter,O,enter,123,1,2231.899999976158,134862.0,7220,WL,B,2.0
1,10.29699993133545,learn,49703.00006866455,Tue Sep 30 2025 11:01:16 GMT-0500 (Central Daylight Time),139292.89999997616,A,w,O,w,2184,1,2198.599999964237,137094.30000001192,7220,WL,B,3.0
1,10.364000082015991,learn,49635.99991798401,Tue Sep 30 2025 11:01:16 GMT-0500 (Central Daylight Time),139360.0,A,wi,O,i,54,1,2265.699999988079,137094.30000001192,7220,WL,B,3.0
1,10.61300015449524,learn,49386.99984550476,Tue Sep 30 2025 11:01:16 GMT-0500 (Central Daylight Time),139608.89999997616,A,win,O,n,229,1,2514.599999964237,137094.30000001192,7220,WL,B,3.0
1,10.913000106811523,learn,49086.99989318848,Tue Sep 30 2025 11:01:16 GMT-0500 (Central Daylight Time),139909.30000001192,A,wind,O,d,282,1,2815.0,137094.30000001192,7220,WL,B,3.0
1,11.080000162124634,learn,48919.999837875366,Tue Sep 30 2025 11:01:16 GMT-0500 (Central Daylight Time),140076.5,A,windo,O,o,148,1,2982.199999988079,137094.30000001192,7220,WL,B,3.0
1,11.330000162124634,learn,48669.999837875366,Tue Sep 30 2025 11:01:16 GMT-0500 (Central Daylight Time),140325.80000001192,A,window,O,w,232,1,3231.5,137094.30000001192,7220,WL,B,3.0
1,11.44700002670288,learn,48552.99997329712,Tue Sep 30 2025 11:01:16 GMT-0500 (Central Daylight Time),140443.39999997616,A,windowenter,O,enter,97,1,3349.099999964237,137094.30000001192,7220,WL,B,3.0
1,12.88100004196167,learn,47118.99995803833,Tue Sep 30 2025 11:01:16 GMT-0500 (Central Daylight Time),141877.19999998808,A,a,O,a,1412,1,1433.3999999761581,140443.80000001192,7220,WL,B,4.0
1,13.361999988555908,learn,46638.00001144409,Tue Sep 30 2025 11:01:16 GMT-0500 (Central Daylight Time),142358.10000002384,A,ar,O,r,471,1,1914.300000011921,140443.80000001192,7220,WL,B,4.0
1,13.722000122070312,learn,46277.99987792969,Tue Sep 30 2025 11:01:16 GMT-0500 (Central Daylight Time),142718.39999997616,A,arm,O,m,355,1,2274.599999964237,140443.80000001192,7220,WL,B,4.0
1,14.028000116348267,learn,45971.99988365173,Tue Sep 30 2025 11:01:16 GMT-0500 (Central Daylight Time),143023.89999997616,A,armenter,O,enter,295,1,2580.099999964237,140443.80000001192,7220,WL,B,4.0
1,14.99399995803833,learn,45006.00004196167,Tue Sep 30 2025 11:01:16 GMT-0500 (Central Daylight Time),143990.0,A,f,O,f,949,1,965.8000000119209,143024.19999998808,7220,WL,B,5.0
1,15.077000141143799,learn,44922.9998588562,Tue Sep 30 2025 11:01:16 GMT-0500 (Central Daylight Time),144072.89999997616,A,fi,O,i,71,1,1048.699999988079,143024.19999998808,7220,WL,B,5.0
1,15.311000108718872,learn,44688.99989128113,Tue Sep 30 2025 11:01:16 GMT-0500 (Central Daylight Time),144306.69999998808,A,fir,O,r,220,1,1282.5,143024.19999998808,7220,WL,B,5.0
1,15.480999946594238,learn,44519.00005340576,Tue Sep 30 2025 11:01:16 GMT-0500 (Central Daylight Time),144477.19999998808,A,fire,O,e,149,1,1453.0,143024.19999998808,7220,WL,B,5.0
1,15.545000076293945,learn,44454.999923706055,Tue Sep 30 2025 11:01:16 GMT-0500 (Central Daylight Time),144540.89999997616,A,fireenter,O,enter,54,1,1516.699999988079,143024.19999998808,7220,WL,B,5.0
1,19.460999965667725,learn,40539.000034332275,Tue Sep 30 2025 11:01:16 GMT-0500 (Central Daylight Time),148457.0,A,g,O,g,3904,1,3915.800000011921,144541.19999998808,7220,WL,B,6.0
1,19.710999965667725,learn,40289.000034332275,Tue Sep 30 2025 11:01:16 GMT-0500 (Central Daylight Time),148707.19999998808,A,gr,O,r,229,1,4166.0,144541.19999998808,7220,WL,B,6.0
1,20.044000148773193,learn,39955.99985122681,Tue Sep 30 2025 11:01:16 GMT-0500 (Central Daylight Time),149039.89999997616,A,gra,O,a,322,1,4498.699999988079,144541.19999998808,7220,WL,B,6.0
1,20.259000062942505,learn,39740.999937057495,Tue Sep 30 2025 11:01:16 GMT-0500 (Central Daylight Time),149255.39999997616,A,gras,O,s,205,1,4714.199999988079,144541.19999998808,7220,WL,B,6.0
1,20.394999980926514,learn,39605.000019073486,Tue Sep 30 2025 11:01:16 GMT-0500 (Central Daylight Time),149390.80000001192,A,grass,O,s,129,1,4849.600000023842,144541.19999998808,7220,WL,B,6.0
1,20.526999950408936,learn,39473.000049591064,Tue Sep 30 2025 11:01:16 GMT-0500 (Central Daylight Time),149523.10000002384,A,grassenter,O,enter,118,1,4981.900000035763,144541.19999998808,7220,WL,B,6.0
1,31.77300000190735,learn,28226.99999809265,Tue Sep 30 2025 11:01:16 GMT-0500 (Central Daylight Time),160768.60000002384,A,enter,O,enter,11234,1,11245.200000047684,149523.39999997616,7220,WL,B,7.0
1,32.555999994277954,learn,27444.000005722046,Tue Sep 30 2025 11:01:16 GMT-0500 (Central Daylight Time),161551.69999998808,A,enter,O,enter,763,1,782.8000000119209,160768.89999997616,7220,WL,B,8.0
1,33.138999938964844,learn,26861.000061035156,Tue Sep 30 2025 11:01:16 GMT-0500 (Central Daylight Time),162135.39999997616,A,enter,O,enter,573,1,583.3999999761581,161552.0,7220,WL,B,9.0
1,33.60599994659424,learn,26394.00005340576,Tue Sep 30 2025 11:01:16 GMT-0500 (Central Daylight Time),162602.10000002384,A,enter,O,enter,453,1,466.30000001192093,162135.80000001192,7220,WL,B,10.0
1,33.99000000953674,learn,26009.999990463257,Tue Sep 30 2025 11:01:16 GMT-0500 (Central Daylight Time),162986.19999998808,A,enter,O,enter,366,1,383.80000001192093,162602.39999997616,7220,WL,B,11.0
1,34.27300000190735,learn,25726.99999809265,Tue Sep 30 2025 11:01:16 GMT-0500 (Central Daylight Time),163268.60000002384,A,enter,O,enter,268,1,282.2000000476837,162986.39999997616,7220,WL,B,12.0
1,34.473000049591064,learn,25526.999950408936,Tue Sep 30 2025 11:01:16 GMT-0500 (Central Daylight Time),163468.60000002384,A,enter,O,enter,185,1,199.70000004768372,163268.89999997616,7220,WL,B,13.0
1,34.7720000743866,learn,25227.999925613403,Tue Sep 30 2025 11:01:16 GMT-0500 (Central Daylight Time),163767.89999997616,A,enter,O,enter,280,1,299.0,163468.89999997616,7220,WL,B,14.0
1,35.223000049591064,learn,24776.999950408936,Tue Sep 30 2025 11:01:16 GMT-0500 (Central Daylight Time),164218.60000002384,A,enter,O,enter,430,1,450.4000000357628,163768.19999998808,7220,WL,B,15.0
2,1.0120000839233398,learn,58987.99991607666,Tue Sep 30 2025 11:01:16 GMT-0500 (Central Daylight Time),232429.80000001192,A,c,O,c,1005,1,1012.1999999880791,231417.60000002384,7220,WL,B,1.0
2,1.1440000534057617,learn,58855.99994659424,Tue Sep 30 2025 11:01:16 GMT-0500 (Central Daylight Time),232561.19999998808,A,cl,O,l,120,1,1143.5999999642372,231417.60000002384,7220,WL,B,1.0
2,1.2960000038146973,learn,58703.9999961853,Tue Sep 30 2025 11:01:16 GMT-0500 (Central Daylight Time),232713.69999998808,A,clo,O,o,140,1,1296.0999999642372,231417.60000002384,7220,WL,B,1.0
2,1.5959999561309814,learn,58404.00004386902,Tue Sep 30 2025 11:01:16 GMT-0500 (Central Daylight Time),233013.39999997616,A,cloc,O,c,284,1,1595.7999999523163,231417.60000002384,7220,WL,B,1.0
2,1.7290000915527344,learn,58270.999908447266,Tue Sep 30 2025 11:01:16 GMT-0500 (Central Daylight Time),233145.80000001192,A,clock,O,k,120,1,1728.199999988079,231417.60000002384,7220,WL,B,1.0
2,2.694999933242798,learn,57305.0000667572,Tue Sep 30 2025 11:01:16 GMT-0500 (Central Daylight Time),234112.30000001192,A,clockenter,O,enter,955,1,2694.699999988079,231417.60000002384,7220,WL,B,1.0
2,3.74399995803833,learn,56256.00004196167,Tue Sep 30 2025 11:01:16 GMT-0500 (Central Daylight Time),235161.10000002384,A,s,O,s,1039,1,1048.6000000238419,234112.5,7220,WL,B,2.0
2,3.9100000858306885,learn,56089.99991416931,Tue Sep 30 2025 11:01:16 GMT-0500 (Central Daylight Time),235327.10000002384,A,st,O,t,149,1,1214.6000000238419,234112.5,7220,WL,B,2.0
2,4.061000108718872,learn,55938.99989128113,Tue Sep 30 2025 11:01:16 GMT-0500 (Central Daylight Time),235478.39999997616,A,str,O,r,136,1,1365.8999999761581,234112.5,7220,WL,B,2.0
2,4.261000156402588,learn,55738.99984359741,Tue Sep 30 2025 11:01:16 GMT-0500 (Central Daylight Time),235678.19999998808,A,stre,O,e,191,1,1565.699999988079,234112.5,7220,WL,B,2.0
2,4.4100000858306885,learn,55589.99991416931,Tue Sep 30 2025 11:01:16 GMT-0500 (Central Daylight Time),235827.60000002384,A,stree,O,e,136,1,1715.1000000238419,234112.5,7220,WL,B,2.0
2,4.960999965667725,learn,55039.000034332275,Tue Sep 30 2025 11:01:16 GMT-0500 (Central Daylight Time),236378.30000001192,A,street,O,t,532,1,2265.800000011921,234112.5,7220,WL,B,2.0
2,5.361999988555908,learn,54638.00001144409,Tue Sep 30 2025 11:01:16 GMT-0500 (Central Daylight Time),236779.69999998808,A,streetg,O,g,380,1,2667.199999988079,234112.5,7220,WL,B,2.0
2,5.477999925613403,learn,54522.0000743866,Tue Sep 30 2025 11:01:16 GMT-0500 (Central Daylight Time),236895.80000001192,A,streetgr,O,r,98,1,2783.300000011921,234112.5,7220,WL,B,2.0
2,5.861000061035156,learn,54138.999938964844,Tue Sep 30 2025 11:01:16 GMT-0500 (Central Daylight Time),237278.69999998808,A,streetgra,O,a,373,1,3166.199999988079,234112.5,7220,WL,B,2.0
2,6.144000053405762,learn,53855.99994659424,Tue Sep 30 2025 11:01:16 GMT-0500 (Central Daylight Time),237561.5,A,streetgras,O,s,270,1,3449.0,234112.5,7220,WL,B,2.0
2,6.294000148773193,learn,53705.99985122681,Tue Sep 30 2025 11:01:16 GMT-0500 (Central Daylight Time),237711.10000002384,A,streetgrass,O,s,141,1,3598.600000023842,234112.5,7220,WL,B,2.0
2,7.161999940872192,learn,52838.00005912781,Tue Sep 30 2025 11:01:16 GMT-0500 (Central Daylight Time),238579.69999998808,A,streetgrassw,O,w,854,1,4467.199999988079,234112.5,7220,WL,B,2.0
2,7.245000123977661,learn,52754.99987602234,Tue Sep 30 2025 11:01:16 GMT-0500 (Central Daylight Time),238662.60000002384,A,streetgrasswi,O,i,67,1,4550.100000023842,234112.5,7220,WL,B,2.0
2,7.493000030517578,learn,52506.99996948242,Tue Sep 30 2025 11:01:16 GMT-0500 (Central Daylight Time),238910.39999997616,A,streetgrasswin,O,n,239,1,4797.899999976158,234112.5,7220,WL,B,2.0
2,7.8440001010894775,learn,52155.99989891052,Tue Sep 30 2025 11:01:16 GMT-0500 (Central Daylight Time),239261.10000002384,A,streetgrasswind,O,d,346,1,5148.600000023842,234112.5,7220,WL,B,2.0
2,7.943000078201294,learn,52056.999921798706,Tue Sep 30 2025 11:01:16 GMT-0500 (Central Daylight Time),239360.69999998808,A,streetgrasswindo,O,o,90,1,5248.199999988079,234112.5,7220,WL,B,2.0
2,8.331000089645386,learn,51668.999910354614,Tue Sep 30 2025 11:01:16 GMT-0500 (Central Daylight Time),239748.30000001192,A,streetgrasswindow,O,w,366,1,5635.800000011921,234112.5,7220,WL,B,2.0
2,8.7260000705719,learn,51273.9999294281,Tue Sep 30 2025 11:01:16 GMT-0500 (Central Daylight Time),240143.60000002384,A,streetgrasswindowd,O,d,378,1,6031.100000023842,234112.5,7220,WL,B,2.0
2,8.926000118255615,learn,51073.999881744385,Tue Sep 30 2025 11:01:16 GMT-0500 (Central Daylight Time),240343.30000001192,A,streetgrasswindowdo,O,o,183,1,6230.800000011921,234112.5,7220,WL,B,2.0
2,9.075999975204468,learn,50924.00002479553,Tue Sep 30 2025 11:01:16 GMT-0500 (Central Daylight Time),240493.69999998808,A,streetgrasswindowdoo,O,o,135,1,6381.199999988079,234112.5,7220,WL,B,2.0
2,9.192000150680542,learn,50807.99984931946,Tue Sep 30 2025 11:01:16 GMT-0500 (Central Daylight Time),240609.60000002384,A,streetgrasswindowdoor,O,r,112,1,6497.100000023842,234112.5,7220,WL,B,2.0
2,9.910000085830688,learn,50089.99991416931,Tue Sep 30 2025 11:01:16 GMT-0500 (Central Daylight Time),241327.69999998808,A,streetgrasswindowdoo,O,backspace,708,1,7215.199999988079,234112.5,7220,WL,B,2.0
2,11.45799994468689,learn,48542.00005531311,Tue Sep 30 2025 11:01:16 GMT-0500 (Central Daylight Time),242875.89999997616,A,streetgrasswindowdoodelete,O,delete,1528,1,8763.399999976158,234112.5,7220,WL,B,2.0
2,12.758000135421753,learn,47241.99986457825,Tue Sep 30 2025 11:01:16 GMT-0500 (Central Daylight Time),244175.80000001192,A,streetgrasswindowdoodelet,O,backspace,1291,1,10063.300000011921,234112.5,7220,WL,B,2.0
2,13.042999982833862,learn,46957.00001716614,Tue Sep 30 2025 11:01:16 GMT-0500 (Central Daylight Time),244460.30000001192,A,streetgrasswindowdoodele,O,backspace,271,1,10347.800000011921,234112.5,7220,WL,B,2.0
2,13.240999937057495,learn,46759.000062942505,Tue Sep 30 2025 11:01:16 GMT-0500 (Central Daylight Time),244658.5,A,streetgrasswindowdoodel,O,backspace,186,1,10546.0,234112.5,7220,WL,B,2.0
2,13.424999952316284,learn,46575.000047683716,Tue Sep 30 2025 11:01:16 GMT-0500 (Central Daylight Time),244842.19999998808,A,streetgrasswindowdoode,O,backspace,165,1,10729.699999988079,234112.5,7220,WL,B,2.0
2,13.592000007629395,learn,46407.999992370605,Tue Sep 30 2025 11:01:16 GMT-0500 (Central Daylight Time),245009.0,A,streetgrasswindowdood,O,backspace,146,1,10896.5,234112.5,7220,WL,B,2.0
2,13.758000135421753,learn,46241.99986457825,Tue Sep 30 2025 11:01:16 GMT-0500 (Central Daylight Time),245175.60000002384,A,streetgrasswindowdoo,O,backspace,147,1,11063.100000023842,234112.5,7220,WL,B,2.0
2,13.924000024795532,learn,46075.99997520447,Tue Sep 30 2025 11:01:16 GMT-0500 (Central Daylight Time),245341.69999998808,A,streetgrasswindowdo,O,backspace,151,1,11229.199999988079,234112.5,7220,WL,B,2.0
2,14.092000007629395,learn,45907.999992370605,Tue Sep 30 2025 11:01:16 GMT-0500 (Central Daylight Time),245509.69999998808,A,streetgrasswindowd,O,backspace,153,1,11397.199999988079,234112.5,7220,WL,B,2.0
2,14.275000095367432,learn,45724.99990463257,Tue Sep 30 2025 11:01:16 GMT-0500 (Central Daylight Time),245692.30000001192,A,streetgrasswindow,O,backspace,176,1,11579.800000011921,234112.5,7220,WL,B,2.0
2,14.45799994468689,learn,45542.00005531311,Tue Sep 30 2025 11:01:16 GMT-0500 (Central Daylight Time),245875.19999998808,A,streetgrasswindo,O,backspace,169,1,11762.699999988079,234112.5,7220,WL,B,2.0
2,14.625,learn,45375.0,Tue Sep 30 2025 11:01:16 GMT-0500 (Central Daylight Time),246042.10000002384,A,streetgrasswind,O,backspace,153,1,11929.600000023842,234112.5,7220,WL,B,2.0
2,14.809000015258789,learn,45190.99998474121,Tue Sep 30 2025 11:01:16 GMT-0500 (Central Daylight Time),246226.80000001192,A,streetgrasswin,O,backspace,172,1,12114.300000011921,234112.5,7220,WL,B,2.0
2,14.992000102996826,learn,45007.999897003174,Tue Sep 30 2025 11:01:16 GMT-0500 (Central Daylight Time),246409.80000001192,A,streetgrasswi,O,backspace,163,1,12297.300000011921,234112.5,7220,WL,B,2.0
2,15.17300009727478,learn,44826.99990272522,Tue Sep 30 2025 11:01:16 GMT-0500 (Central Daylight Time),246590.69999998808,A,streetgrassw,O,backspace,162,1,12478.199999988079,234112.5,7220,WL,B,2.0
2,15.35700011253357,learn,44642.99988746643,Tue Sep 30 2025 11:01:16 GMT-0500 (Central Daylight Time),246774.69999998808,A,streetgrass,O,backspace,168,1,12662.199999988079,234112.5,7220,WL,B,2.0
2,15.523000001907349,learn,44476.99999809265,Tue Sep 30 2025 11:01:16 GMT-0500 (Central Daylight Time),246940.80000001192,A,streetgras,O,backspace,159,1,12828.300000011921,234112.5,7220,WL,B,2.0
2,15.707000017166138,learn,44292.99998283386,Tue Sep 30 2025 11:01:16 GMT-0500 (Central Daylight Time),247124.60000002384,A,streetgra,O,backspace,170,1,13012.100000023842,234112.5,7220,WL,B,2.0
2,15.874000072479248,learn,44125.99992752075,Tue Sep 30 2025 11:01:16 GMT-0500 (Central Daylight Time),247291.30000001192,A,streetgr,O,backspace,153,1,13178.800000011921,234112.5,7220,WL,B,2.0
2,16.055999994277954,learn,43944.000005722046,Tue Sep 30 2025 11:01:16 GMT-0500 (Central Daylight Time),247473.69999998808,A,streetg,O,backspace,171,1,13361.199999988079,234112.5,7220,WL,B,2.0
2,16.243000030517578,learn,43756.99996948242,Tue Sep 30 2025 11:01:16 GMT-0500 (Central Daylight Time),247660.5,A,street,O,backspace,183,1,13548.0,234112.5,7220,WL,B,2.0
2,17.09000015258789,learn,42909.99984741211,Tue Sep 30 2025 11:01:16 GMT-0500 (Central Daylight Time),248507.60000002384,A,streetenter,O,enter,843,1,14395.100000023842,234112.5,7220,WL,B,2.0
2,18.141000032424927,learn,41858.99996757507,Tue Sep 30 2025 11:01:16 GMT-0500 (Central Daylight Time),249557.89999997616,A,g,O,g,1035,1,1050.0999999642372,248507.80000001192,7220,WL,B,3.0
2,18.206000089645386,learn,41793.999910354614,Tue Sep 30 2025 11:01:16 GMT-0500 (Central Daylight Time),249623.39999997616,A,gr,O,r,56,1,1115.5999999642372,248507.80000001192,7220,WL,B,3.0
2,18.44000005722046,learn,41559.99994277954,Tue Sep 30 2025 11:01:16 GMT-0500 (Central Daylight Time),249857.69999998808,A,gra,O,a,223,1,1349.8999999761581,248507.80000001192,7220,WL,B,3.0
2,18.657000064849854,learn,41342.99993515015,Tue Sep 30 2025 11:01:16 GMT-0500 (Central Daylight Time),250074.69999998808,A,gras,O,s,197,1,1566.8999999761581,248507.80000001192,7220,WL,B,3.0
2,18.805999994277954,learn,41194.000005722046,Tue Sep 30 2025 11:01:16 GMT-0500 (Central Daylight Time),250223.80000001192,A,grass,O,s,130,1,1716.0,248507.80000001192,7220,WL,B,3.0
2,18.888999938964844,learn,41111.000061035156,Tue Sep 30 2025 11:01:16 GMT-0500 (Central Daylight Time),250306.69999998808,A,grassenter,O,enter,69,1,1798.8999999761581,248507.80000001192,7220,WL,B,3.0
2,19.69099998474121,learn,40309.00001525879,Tue Sep 30 2025 11:01:16 GMT-0500 (Central Daylight Time),251108.19999998808,A,w,O,w,780,1,801.3000000119209,250306.89999997616,7220,WL,B,4.0
2,19.77300000190735,learn,40226.99999809265,Tue Sep 30 2025 11:01:16 GMT-0500 (Central Daylight Time),251190.0,A,wi,O,i,72,1,883.1000000238419,250306.89999997616,7220,WL,B,4.0
2,19.973000049591064,learn,40026.999950408936,Tue Sep 30 2025 11:01:16 GMT-0500 (Central Daylight Time),251390.5,A,win,O,n,183,1,1083.6000000238419,250306.89999997616,7220,WL,B,4.0
2,20.33899998664856,learn,39661.00001335144,Tue Sep 30 2025 11:01:16 GMT-0500 (Central Daylight Time),251756.60000002384,A,wind,O,d,348,1,1449.7000000476837,250306.89999997616,7220,WL,B,4.0
2,20.439000129699707,learn,39560.99987030029,Tue Sep 30 2025 11:01:16 GMT-0500 (Central Daylight Time),251856.80000001192,A,windo,O,o,79,1,1549.9000000357628,250306.89999997616,7220,WL,B,4.0
2,20.689000129699707,learn,39310.99987030029,Tue Sep 30 2025 11:01:16 GMT-0500 (Central Daylight Time),252106.69999998808,A,window,O,w,236,1,1799.800000011921,250306.89999997616,7220,WL,B,4.0
2,20.82200002670288,learn,39177.99997329712,Tue Sep 30 2025 11:01:16 GMT-0500 (Central Daylight Time),252239.19999998808,A,windowenter,O,enter,112,1,1932.300000011921,250306.89999997616,7220,WL,B,4.0
2,21.90499997138977,learn,38095.00002861023,Tue Sep 30 2025 11:01:16 GMT-0500 (Central Daylight Time),253322.60000002384,A,d,O,d,1064,1,1083.1000000238419,252239.5,7220,WL,B,5.0
2,22.189000129699707,learn,37810.99987030029,Tue Sep 30 2025 11:01:16 GMT-0500 (Central Daylight Time),253606.19999998808,A,do,O,o,273,1,1366.699999988079,252239.5,7220,WL,B,5.0
2,22.34000015258789,learn,37659.99984741211,Tue Sep 30 2025 11:01:16 GMT-0500 (Central Daylight Time),253757.5,A,doo,O,o,134,1,1518.0,252239.5,7220,WL,B,5.0
2,22.47099995613098,learn,37529.00004386902,Tue Sep 30 2025 11:01:16 GMT-0500 (Central Daylight Time),253888.80000001192,A,door,O,r,105,1,1649.300000011921,252239.5,7220,WL,B,5.0
2,23.204999923706055,learn,36795.000076293945,Tue Sep 30 2025 11:01:16 GMT-0500 (Central Daylight Time),254622.0,A,doo,O,backspace,725,1,2382.5,252239.5,7220,WL,B,5.0
2,24.253999948501587,learn,35746.00005149841,Tue Sep 30 2025 11:01:16 GMT-0500 (Central Daylight Time),255671.39999997616,A,door,O,r,1038,1,3431.899999976158,252239.5,7220,WL,B,5.0
2,24.37000012397766,learn,35629.99987602234,Tue Sep 30 2025 11:01:16 GMT-0500 (Central Daylight Time),255787.60000002384,A,doorenter,O,enter,101,1,3548.100000023842,252239.5,7220,WL,B,5.0
2,26.503999948501587,learn,33496.00005149841,Tue Sep 30 2025 11:01:16 GMT-0500 (Central Daylight Time),257921.30000001192,A,w,O,w,2115,1,2133.400000035763,255787.89999997616,7220,WL,B,6.0
2,26.587000131607056,learn,33412.999868392944,Tue Sep 30 2025 11:01:16 GMT-0500 (Central Daylight Time),258004.10000002384,A,wi,O,i,74,1,2216.2000000476837,255787.89999997616,7220,WL,B,6.0
2,27.021000146865845,learn,32978.999853134155,Tue Sep 30 2025 11:01:16 GMT-0500 (Central Daylight Time),258438.10000002384,A,wif,O,f,416,1,2650.2000000476837,255787.89999997616,7220,WL,B,6.0
2,27.319999933242798,learn,32680.000066757202,Tue Sep 30 2025 11:01:16 GMT-0500 (Central Daylight Time),258737.5,A,wife,O,e,276,1,2949.600000023842,255787.89999997616,7220,WL,B,6.0
2,27.42199993133545,learn,32578.00006866455,Tue Sep 30 2025 11:01:16 GMT-0500 (Central Daylight Time),258839.0,A,wifeenter,O,enter,83,1,3051.100000023842,255787.89999997616,7220,WL,B,6.0
2,28.337000131607056,learn,31662.999868392944,Tue Sep 30 2025 11:01:16 GMT-0500 (Central Daylight Time),259754.10000002384,A,s,O,s,902,1,914.8000000119209,258839.30000001192,7220,WL,B,7.0
2,28.421000003814697,learn,31578.999996185303,Tue Sep 30 2025 11:01:16 GMT-0500 (Central Daylight Time),259838.0,A,sk,O,k,75,1,998.6999999880791,258839.30000001192,7220,WL,B,7.0
2,28.585999965667725,learn,31414.000034332275,Tue Sep 30 2025 11:01:16 GMT-0500 (Central Daylight Time),260003.19999998808,A,ski,O,i,149,1,1163.8999999761581,258839.30000001192,7220,WL,B,7.0
2,28.82100009918213,learn,31178.99990081787,Tue Sep 30 2025 11:01:16 GMT-0500 (Central Daylight Time),260238.10000002384,A,skin,O,n,217,1,1398.800000011921,258839.30000001192,7220,WL,B,7.0
2,29.170000076293945,learn,30829.999923706055,Tue Sep 30 2025 11:01:16 GMT-0500 (Central Daylight Time),260587.5,A,skinenter,O,enter,333,1,1748.199999988079,258839.30000001192,7220,WL,B,7.0
2,41.450000047683716,learn,18549.999952316284,Tue Sep 30 2025 11:01:16 GMT-0500 (Central Daylight Time),272867.39999997616,A,p,O,p,12275,1,12279.599999964237,260587.80000001192,7220,WL,B,8.0
2,41.56599998474121,learn,18434.00001525879,Tue Sep 30 2025 11:01:16 GMT-0500 (Central Daylight Time),272983.60000002384,A,pa,O,a,93,1,12395.800000011921,260587.80000001192,7220,WL,B,8.0
2,41.99900007247925,learn,18000.999927520752,Tue Sep 30 2025 11:01:16 GMT-0500 (Central Daylight Time),273416.1999999881,A,par,O,r,410,1,12828.399999976158,260587.80000001192,7220,WL,B,8.0
2,42.10000014305115,learn,17899.999856948853,Tue Sep 30 2025 11:01:16 GMT-0500 (Central Daylight Time),273517.89999997616,A,park,O,k,94,1,12930.099999964237,260587.80000001192,7220,WL,B,8.0
2,42.282999992370605,learn,17717.000007629395,Tue Sep 30 2025 11:01:16 GMT-0500 (Central Daylight Time),273700.0,A,parkenter,O,enter,164,1,13112.199999988079,260587.80000001192,7220,WL,B,8.0
2,44.432000160217285,learn,15567.999839782715,Tue Sep 30 2025 11:01:16 GMT-0500 (Central Daylight Time),275848.89999997616,A,enter,O,enter,2137,1,2148.599999964237,273700.3000000119,7220,WL,B,9.0
2,44.66499996185303,learn,15335.000038146973,Tue Sep 30 2025 11:01:16 GMT-0500 (Central Daylight Time),276082.60000002384,A,enter,O,enter,213,1,233.4000000357628,275849.1999999881,7220,WL,B,10.0
2,44.83200001716614,learn,15167.999982833862,Tue Sep 30 2025 11:01:16 GMT-0500 (Central Daylight Time),276249.0,A,enter,O,enter,147,1,166.10000002384186,276082.89999997616,7220,WL,B,11.0
2,45.02999997138977,learn,14970.00002861023,Tue Sep 30 2025 11:01:16 GMT-0500 (Central Daylight Time),276447.89999997616,A,enter,O,enter,188,1,198.5999999642372,276249.3000000119,7220,WL,B,12.0
2,45.24900007247925,learn,14750.999927520752,Tue Sep 30 2025 11:01:16 GMT-0500 (Central Daylight Time),276665.89999997616,A,enter,O,enter,205,1,217.69999998807907,276448.1999999881,7220,WL,B,13.0
2,45.46500015258789,learn,14534.99984741211,Tue Sep 30 2025 11:01:16 GMT-0500 (Central Daylight Time),276882.1999999881,A,enter,O,enter,196,1,215.89999997615814,276666.3000000119,7220,WL,B,14.0
2,45.94799995422363,learn,14052.000045776367,Tue Sep 30 2025 11:01:16 GMT-0500 (Central Daylight Time),277365.60000002384,A,enter,O,enter,467,1,483.10000002384186,276882.5,7220,WL,B,15.0
3,1.8840000629425049,learn,58115.999937057495,Tue Sep 30 2025 11:01:16 GMT-0500 (Central Daylight Time),345810.5,A,c,O,c,1872,1,1883.8999999761581,343926.60000002384,7220,WL,B,1.0
3,1.9530000686645508,learn,58046.99993133545,Tue Sep 30 2025 11:01:16 GMT-0500 (Central Daylight Time),345879.1999999881,A,cl,O,l,58,1,1952.5999999642372,343926.60000002384,7220,WL,B,1.0
3,2.1500000953674316,learn,57849.99990463257,Tue Sep 30 2025 11:01:16 GMT-0500 (Central Daylight Time),346076.89999997616,A,clo,O,o,179,1,2150.2999999523163,343926.60000002384,7220,WL,B,1.0
3,2.6010000705718994,learn,57398.9999294281,Tue Sep 30 2025 11:01:16 GMT-0500 (Central Daylight Time),346527.6999999881,A,cloc,O,c,432,1,2601.099999964237,343926.60000002384,7220,WL,B,1.0
3,2.6670000553131104,learn,57332.99994468689,Tue Sep 30 2025 11:01:16 GMT-0500 (Central Daylight Time),346593.60000002384,A,clock,O,k,44,1,2667.0,343926.60000002384,7220,WL,B,1.0
3,3.25,learn,56750.0,Tue Sep 30 2025 11:01:16 GMT-0500 (Central Daylight Time),347176.8000000119,A,clockenter,O,enter,564,1,3250.199999988079,343926.60000002384,7220,WL,B,1.0
3,6.401000022888184,learn,53598.99997711182,Tue Sep 30 2025 11:01:16 GMT-0500 (Central Daylight Time),350327.39999997616,A,p,O,p,3140,1,3150.2999999523163,347177.10000002384,7220,WL,B,2.0
3,6.766000032424927,learn,53233.99996757507,Tue Sep 30 2025 11:01:16 GMT-0500 (Central Daylight Time),350692.10000002384,A,pu,O,u,346,1,3515.0,347177.10000002384,7220,WL,B,2.0
3,7.033999919891357,learn,52966.00008010864,Tue Sep 30 2025 11:01:16 GMT-0500 (Central Daylight Time),350960.60000002384,A,pup,O,p,258,1,3783.5,347177.10000002384,7220,WL,B,2.0
3,7.33299994468689,learn,52667.00005531311,Tue Sep 30 2025 11:01:16 GMT-0500 (Central Daylight Time),351259.1999999881,A,pupi,O,i,286,1,4082.099999964237,347177.10000002384,7220,WL,B,2.0
3,7.615000009536743,learn,52384.99999046326,Tue Sep 30 2025 11:01:16 GMT-0500 (Central Daylight Time),351541.8000000119,A,pupil,O,l,279,1,4364.699999988079,347177.10000002384,7220,WL,B,2.0
3,7.88100004196167,learn,52118.99995803833,Tue Sep 30 2025 11:01:16 GMT-0500 (Central Daylight Time),351807.60000002384,A,pupilenter,O,enter,248,1,4630.5,347177.10000002384,7220,WL,B,2.0
3,9.115000009536743,learn,50884.99999046326,Tue Sep 30 2025 11:01:16 GMT-0500 (Central Daylight Time),353041.10000002384,A,s,O,s,1222,1,1233.2000000476837,351807.89999997616,7220,WL,B,3.0
3,9.282999992370605,learn,50717.000007629395,Tue Sep 30 2025 11:01:16 GMT-0500 (Central Daylight Time),353209.6999999881,A,st,O,t,164,1,1401.800000011921,351807.89999997616,7220,WL,B,3.0
3,9.431999921798706,learn,50568.000078201294,Tue Sep 30 2025 11:01:16 GMT-0500 (Central Daylight Time),353358.10000002384,A,str,O,r,140,1,1550.2000000476837,351807.89999997616,7220,WL,B,3.0
3,9.648000001907349,learn,50351.99999809265,Tue Sep 30 2025 11:01:16 GMT-0500 (Central Daylight Time),353574.60000002384,A,stre,O,e,207,1,1766.7000000476837,351807.89999997616,7220,WL,B,3.0
3,9.79699993133545,learn,50203.00006866455,Tue Sep 30 2025 11:01:16 GMT-0500 (Central Daylight Time),353723.8000000119,A,stree,O,e,144,1,1915.9000000357628,351807.89999997616,7220,WL,B,3.0
3,10.013999938964844,learn,49986.000061035156,Tue Sep 30 2025 11:01:16 GMT-0500 (Central Daylight Time),353940.6999999881,A,street,O,t,213,1,2132.800000011921,351807.89999997616,7220,WL,B,3.0
3,10.414000034332275,learn,49585.999965667725,Tue Sep 30 2025 11:01:16 GMT-0500 (Central Daylight Time),354340.89999997616,A,streetg,O,g,386,1,2533.0,351807.89999997616,7220,WL,B,3.0
3,10.579999923706055,learn,49420.000076293945,Tue Sep 30 2025 11:01:16 GMT-0500 (Central Daylight Time),354506.89999997616,A,streetgr,O,r,163,1,2699.0,351807.89999997616,7220,WL,B,3.0
3,11.180000066757202,learn,48819.9999332428,Tue Sep 30 2025 11:01:16 GMT-0500 (Central Daylight Time),355106.6999999881,A,streetg,O,backspace,587,1,3298.800000011921,351807.89999997616,7220,WL,B,3.0
3,11.379999876022339,learn,48620.00012397766,Tue Sep 30 2025 11:01:16 GMT-0500 (Central Daylight Time),355307.0,A,street,O,backspace,181,1,3499.100000023842,351807.89999997616,7220,WL,B,3.0
3,11.565000057220459,learn,48434.99994277954,Tue Sep 30 2025 11:01:16 GMT-0500 (Central Daylight Time),355491.60000002384,A,stree,O,backspace,171,1,3683.7000000476837,351807.89999997616,7220,WL,B,3.0
3,12.581000089645386,learn,47418.999910354614,Tue Sep 30 2025 11:01:16 GMT-0500 (Central Daylight Time),356507.5,A,street,O,t,1002,1,4699.600000023842,351807.89999997616,7220,WL,B,3.0
3,12.763000011444092,learn,47236.99998855591,Tue Sep 30 2025 11:01:16 GMT-0500 (Central Daylight Time),356689.8000000119,A,streetenter,O,enter,163,1,4881.900000035763,351807.89999997616,7220,WL,B,3.0
3,13.500999927520752,learn,46499.00007247925,Tue Sep 30 2025 11:01:16 GMT-0500 (Central Daylight Time),357428.10000002384,A,g,O,g,723,1,738.0,356690.10000002384,7220,WL,B,4.0
3,13.713000059127808,learn,46286.99994087219,Tue Sep 30 2025 11:01:16 GMT-0500 (Central Daylight Time),357639.1999999881,A,gr,O,r,194,1,949.0999999642372,356690.10000002384,7220,WL,B,4.0
3,13.928999900817871,learn,46071.00009918213,Tue Sep 30 2025 11:01:16 GMT-0500 (Central Daylight Time),357855.6999999881,A,gra,O,a,198,1,1165.5999999642372,356690.10000002384,7220,WL,B,4.0
3,14.162999868392944,learn,45837.000131607056,Tue Sep 30 2025 11:01:16 GMT-0500 (Central Daylight Time),358089.60000002384,A,gras,O,s,222,1,1399.5,356690.10000002384,7220,WL,B,4.0
3,14.313999891281128,learn,45686.00010871887,Tue Sep 30 2025 11:01:16 GMT-0500 (Central Daylight Time),358240.3000000119,A,grass,O,s,133,1,1550.199999988079,356690.10000002384,7220,WL,B,4.0
3,14.411999940872192,learn,45588.00005912781,Tue Sep 30 2025 11:01:16 GMT-0500 (Central Daylight Time),358338.5,A,grassenter,O,enter,87,1,1648.3999999761581,356690.10000002384,7220,WL,B,4.0
3,15.779000043869019,learn,44220.99995613098,Tue Sep 30 2025 11:01:16 GMT-0500 (Central Daylight Time),359705.60000002384,A,d,O,d,1354,1,1366.9000000357628,358338.6999999881,7220,WL,B,5.0
3,15.977999925613403,learn,44022.0000743866,Tue Sep 30 2025 11:01:16 GMT-0500 (Central Daylight Time),359905.0,A,do,O,o,189,1,1566.300000011921,358338.6999999881,7220,WL,B,5.0
3,16.128999948501587,learn,43871.00005149841,Tue Sep 30 2025 11:01:16 GMT-0500 (Central Daylight Time),360055.8000000119,A,doo,O,o,133,1,1717.1000000238419,358338.6999999881,7220,WL,B,5.0
3,16.365000009536743,learn,43634.99999046326,Tue Sep 30 2025 11:01:16 GMT-0500 (Central Daylight Time),360291.6999999881,A,door,O,r,222,1,1953.0,358338.6999999881,7220,WL,B,5.0
3,16.513000011444092,learn,43486.99998855591,Tue Sep 30 2025 11:01:16 GMT-0500 (Central Daylight Time),360439.8000000119,A,doorenter,O,enter,138,1,2101.100000023842,358338.6999999881,7220,WL,B,5.0
3,16.912999868392944,learn,43087.000131607056,Tue Sep 30 2025 11:01:16 GMT-0500 (Central Daylight Time),360839.39999997616,A,w,O,w,380,1,399.39999997615814,360440.0,7220,WL,B,6.0
3,17.045000076293945,learn,42954.999923706055,Tue Sep 30 2025 11:01:16 GMT-0500 (Central Daylight Time),360971.5,A,wi,O,i,127,1,531.5,360440.0,7220,WL,B,6.0
3,17.328999996185303,learn,42671.0000038147,Tue Sep 30 2025 11:01:16 GMT-0500 (Central Daylight Time),361256.0,A,win,O,n,275,1,816.0,360440.0,7220,WL,B,6.0
3,17.730000019073486,learn,42269.999980926514,Tue Sep 30 2025 11:01:16 GMT-0500 (Central Daylight Time),361657.10000002384,A,wind,O,d,383,1,1217.1000000238419,360440.0,7220,WL,B,6.0
3,17.812000036239624,learn,42187.999963760376,Tue Sep 30 2025 11:01:16 GMT-0500 (Central Daylight Time),361738.1999999881,A,windo,O,o,77,1,1298.199999988079,360440.0,7220,WL,B,6.0
3,18.046000003814697,learn,41953.9999961853,Tue Sep 30 2025 11:01:16 GMT-0500 (Central Daylight Time),361972.6999999881,A,window,O,w,230,1,1532.699999988079,360440.0,7220,WL,B,6.0
3,18.17799997329712,learn,41822.00002670288,Tue Sep 30 2025 11:01:16 GMT-0500 (Central Daylight Time),362104.60000002384,A,windowenter,O,enter,111,1,1664.6000000238419,360440.0,7220,WL,B,6.0
3,21.66100001335144,learn,38338.99998664856,Tue Sep 30 2025 11:01:16 GMT-0500 (Central Daylight Time),365587.1999999881,A,g,O,g,3462,1,3482.300000011921,362104.89999997616,7220,WL,B,7.0
3,21.759999990463257,learn,38240.00000953674,Tue Sep 30 2025 11:01:16 GMT-0500 (Central Daylight Time),365687.0,A,gr,O,r,92,1,3582.100000023842,362104.89999997616,7220,WL,B,7.0
3,21.979000091552734,learn,38020.999908447266,Tue Sep 30 2025 11:01:16 GMT-0500 (Central Daylight Time),365905.6999999881,A,gra,O,a,214,1,3800.800000011921,362104.89999997616,7220,WL,B,7.0
3,22.19599986076355,learn,37804.00013923645,Tue Sep 30 2025 11:01:16 GMT-0500 (Central Daylight Time),366122.60000002384,A,gras,O,s,204,1,4017.7000000476837,362104.89999997616,7220,WL,B,7.0
3,22.3439998626709,learn,37656.0001373291,Tue Sep 30 2025 11:01:16 GMT-0500 (Central Daylight Time),366270.6999999881,A,grass,O,s,130,1,4165.800000011921,362104.89999997616,7220,WL,B,7.0
3,22.5939998626709,learn,37406.0001373291,Tue Sep 30 2025 11:01:16 GMT-0500 (Central Daylight Time),366520.39999997616,A,grassenter,O,enter,238,1,4415.5,362104.89999997616,7220,WL,B,7.0
3,23.045000076293945,learn,36954.999923706055,Tue Sep 30 2025 11:01:16 GMT-0500 (Central Daylight Time),366971.5,A,f,O,f,447,1,450.89999997615814,366520.60000002384,7220,WL,B,8.0
3,23.210000038146973,learn,36789.99996185303,Tue Sep 30 2025 11:01:16 GMT-0500 (Central Daylight Time),367136.5,A,fi,O,i,146,1,615.8999999761581,366520.60000002384,7220,WL,B,8.0
3,23.39400005340576,learn,36605.99994659424,Tue Sep 30 2025 11:01:16 GMT-0500 (Central Daylight Time),367321.1999999881,A,fir,O,r,165,1,800.5999999642372,366520.60000002384,7220,WL,B,8.0
3,23.57699990272522,learn,36423.00009727478,Tue Sep 30 2025 11:01:16 GMT-0500 (Central Daylight Time),367503.10000002384,A,fire,O,e,163,1,982.5,366520.60000002384,7220,WL,B,8.0
3,23.675999879837036,learn,36324.000120162964,Tue Sep 30 2025 11:01:16 GMT-0500 (Central Daylight Time),367602.6999999881,A,fireenter,O,enter,85,1,1082.0999999642372,366520.60000002384,7220,WL,B,8.0
3,26.24399995803833,learn,33756.00004196167,Tue Sep 30 2025 11:01:16 GMT-0500 (Central Daylight Time),370170.60000002384,A,a,O,a,2547,1,2567.600000023842,367603.0,7220,WL,B,9.0
3,26.759000062942505,learn,33240.999937057495,Tue Sep 30 2025 11:01:16 GMT-0500 (Central Daylight Time),370685.39999997616,A,ar,O,r,506,1,3082.399999976158,367603.0,7220,WL,B,9.0
3,27.22499990463257,learn,32775.00009536743,Tue Sep 30 2025 11:01:16 GMT-0500 (Central Daylight Time),371151.5,A,arm,O,m,450,1,3548.5,367603.0,7220,WL,B,9.0
3,27.943000078201294,learn,32056.999921798706,Tue Sep 30 2025 11:01:16 GMT-0500 (Central Daylight Time),371869.89999997616,A,armenter,O,enter,708,1,4266.899999976158,367603.0,7220,WL,B,9.0
3,37.09500002861023,learn,22904.99997138977,Tue Sep 30 2025 11:01:16 GMT-0500 (Central Daylight Time),381022.0,A,enter,O,enter,9130,1,9151.800000011921,371870.1999999881,7220,WL,B,10.0
3,37.32299995422363,learn,22677.000045776367,Tue Sep 30 2025 11:01:16 GMT-0500 (Central Daylight Time),381249.10000002384,A,enter,O,enter,217,1,226.9000000357628,381022.1999999881,7220,WL,B,11.0
3,37.53999996185303,learn,22460.000038146973,Tue Sep 30 2025 11:01:16 GMT-0500 (Central Daylight Time),381467.0,A,enter,O,enter,197,1,217.5,381249.5,7220,WL,B,12.0
3,37.73900008201599,learn,22260.99991798401,Tue Sep 30 2025 11:01:16 GMT-0500 (Central Daylight Time),381665.1999999881,A,enter,O,enter,179,1,197.89999997615814,381467.3000000119,7220,WL,B,13.0
3,38.08899998664856,learn,21911.00001335144,Tue Sep 30 2025 11:01:16 GMT-0500 (Central Daylight Time),382015.1999999881,A,enter,O,enter,332,1,349.69999998807907,381665.5,7220,WL,B,14.0
3,38.57099986076355,learn,21429.00013923645,Tue Sep 30 2025 11:01:16 GMT-0500 (Central Daylight Time),382497.3000000119,A,enter,O,enter,470,1,481.80000001192093,382015.5,7220,WL,B,15.0
4,1.3020000457763672,learn,58697.99995422363,Tue Sep 30 2025 11:01:16 GMT-0500 (Central Daylight Time),448962.10000002384,A,s,O,s,1283,1,1301.800000011921,447660.3000000119,7220,WL,B,1.0
4,1.3999998569488525,learn,58600.00014305115,Tue Sep 30 2025 11:01:16 GMT-0500 (Central Daylight Time),449059.8000000119,A,st,O,t,78,1,1399.5,447660.3000000119,7220,WL,B,1.0
4,1.5360000133514404,learn,58463.99998664856,Tue Sep 30 2025 11:01:16 GMT-0500 (Central Daylight Time),449195.6999999881,A,sta,O,a,121,1,1535.3999999761581,447660.3000000119,7220,WL,B,1.0
4,1.6499998569488525,learn,58350.00014305115,Tue Sep 30 2025 11:01:16 GMT-0500 (Central Daylight Time),449310.0,A,star,O,r,103,1,1649.699999988079,447660.3000000119,7220,WL,B,1.0
4,2.7679998874664307,learn,57232.00011253357,Tue Sep 30 2025 11:01:16 GMT-0500 (Central Daylight Time),450427.8000000119,A,starenter,O,enter,1103,1,2767.5,447660.3000000119,7220,WL,B,1.0
4,3.500999927520752,learn,56499.00007247925,Tue Sep 30 2025 11:01:16 GMT-0500 (Central Daylight Time),451161.1999999881,A,l,O,l,714,1,733.0999999642372,450428.10000002384,7220,WL,B,2.0
4,3.7339999675750732,learn,56266.00003242493,Tue Sep 30 2025 11:01:16 GMT-0500 (Central Daylight Time),451394.0,A,li,O,i,220,1,965.8999999761581,450428.10000002384,7220,WL,B,2.0
4,3.8899998664855957,learn,56110.000133514404,Tue Sep 30 2025 11:01:16 GMT-0500 (Central Daylight Time),451549.60000002384,A,lig,O,g,138,1,1121.5,450428.10000002384,7220,WL,B,2.0
4,4.0,learn,56000.0,Tue Sep 30 2025 11:01:16 GMT-0500 (Central Daylight Time),451659.89999997616,A,ligh,O,h,105,1,1231.7999999523163,450428.10000002384,7220,WL,B,2.0
4,4.121000051498413,learn,55878.99994850159,Tue Sep 30 2025 11:01:16 GMT-0500 (Central Daylight Time),451780.8000000119,A,light,O,t,97,1,1352.699999988079,450428.10000002384,7220,WL,B,2.0
4,4.733000040054321,learn,55266.99995994568,Tue Sep 30 2025 11:01:16 GMT-0500 (Central Daylight Time),452392.60000002384,A,lightenter,O,enter,593,1,1964.5,450428.10000002384,7220,WL,B,2.0
4,5.382999897003174,learn,54617.000102996826,Tue Sep 30 2025 11:01:16 GMT-0500 (Central Daylight Time),453043.10000002384,A,c,O,c,631,1,650.3000000119209,452392.8000000119,7220,WL,B,3.0
4,5.483000040054321,learn,54516.99995994568,Tue Sep 30 2025 11:01:16 GMT-0500 (Central Daylight Time),453142.39999997616,A,ci,O,i,92,1,749.5999999642372,452392.8000000119,7220,WL,B,3.0
4,5.7149999141693115,learn,54285.00008583069,Tue Sep 30 2025 11:01:16 GMT-0500 (Central Daylight Time),453375.1999999881,A,cit,O,t,222,1,982.3999999761581,452392.8000000119,7220,WL,B,3.0
4,5.83299994468689,learn,54167.00005531311,Tue Sep 30 2025 11:01:16 GMT-0500 (Central Daylight Time),453493.0,A,city,O,y,103,1,1100.199999988079,452392.8000000119,7220,WL,B,3.0
4,6.049999952316284,learn,53950.000047683716,Tue Sep 30 2025 11:01:16 GMT-0500 (Central Daylight Time),453709.39999997616,A,cityenter,O,enter,207,1,1316.5999999642372,452392.8000000119,7220,WL,B,3.0
4,6.417999982833862,learn,53582.00001716614,Tue Sep 30 2025 11:01:16 GMT-0500 (Central Daylight Time),454077.5,A,c,O,c,361,1,367.80000001192093,453709.6999999881,7220,WL,B,4.0
4,6.665999889373779,learn,53334.00011062622,Tue Sep 30 2025 11:01:16 GMT-0500 (Central Daylight Time),454325.60000002384,A,ca,O,a,240,1,615.9000000357628,453709.6999999881,7220,WL,B,4.0
4,7.082000017166138,learn,52917.99998283386,Tue Sep 30 2025 11:01:16 GMT-0500 (Central Daylight Time),454741.8000000119,A,cab,O,b,408,1,1032.1000000238419,453709.6999999881,7220,WL,B,4.0
4,7.2829999923706055,learn,52717.000007629395,Tue Sep 30 2025 11:01:16 GMT-0500 (Central Daylight Time),454943.10000002384,A,cabi,O,i,192,1,1233.4000000357628,453709.6999999881,7220,WL,B,4.0
4,7.516000032424927,learn,52483.99996757507,Tue Sep 30 2025 11:01:16 GMT-0500 (Central Daylight Time),455175.3000000119,A,cabin,O,n,223,1,1465.6000000238419,453709.6999999881,7220,WL,B,4.0
4,8.598000049591064,learn,51401.999950408936,Tue Sep 30 2025 11:01:16 GMT-0500 (Central Daylight Time),456258.1999999881,A,cabi,O,backspace,1061,1,2548.5,453709.6999999881,7220,WL,B,4.0
4,9.697999954223633,learn,50302.00004577637,Tue Sep 30 2025 11:01:16 GMT-0500 (Central Daylight Time),457358.0,A,cabin,O,n,1082,1,3648.300000011921,453709.6999999881,7220,WL,B,4.0
4,9.832000017166138,learn,50167.99998283386,Tue Sep 30 2025 11:01:16 GMT-0500 (Central Daylight Time),457491.3000000119,A,cabinenter,O,enter,127,1,3781.600000023842,453709.6999999881,7220,WL,B,4.0
4,10.297999858856201,learn,49702.0001411438,Tue Sep 30 2025 11:01:16 GMT-0500 (Central Daylight Time),457957.89999997616,A,l,O,l,450,1,466.2999999523163,457491.60000002384,7220,WL,B,5.0
4,10.513999938964844,learn,49486.000061035156,Tue Sep 30 2025 11:01:16 GMT-0500 (Central Daylight Time),458174.3000000119,A,la,O,a,207,1,682.6999999880791,457491.60000002384,7220,WL,B,5.0
4,10.898000001907349,learn,49101.99999809265,Tue Sep 30 2025 11:01:16 GMT-0500 (Central Daylight Time),458557.60000002384,A,lak,O,k,374,1,1066.0,457491.60000002384,7220,WL,B,5.0
4,11.014999866485596,learn,48985.000133514404,Tue Sep 30 2025 11:01:16 GMT-0500 (Central Daylight Time),458675.1999999881,A,lake,O,e,97,1,1183.5999999642372,457491.60000002384,7220,WL,B,5.0
4,11.431999921798706,learn,48568.000078201294,Tue Sep 30 2025 11:01:16 GMT-0500 (Central Daylight Time),459092.0,A,lakep,O,p,393,1,1600.3999999761581,457491.60000002384,7220,WL,B,5.0
4,11.63100004196167,learn,48368.99995803833,Tue Sep 30 2025 11:01:16 GMT-0500 (Central Daylight Time),459290.39999997616,A,lakepi,O,i,184,1,1798.7999999523163,457491.60000002384,7220,WL,B,5.0
4,11.947999954223633,learn,48052.00004577637,Tue Sep 30 2025 11:01:16 GMT-0500 (Central Daylight Time),459607.5,A,lakepip,O,p,309,1,2115.899999976158,457491.60000002384,7220,WL,B,5.0
4,12.082000017166138,learn,47917.99998283386,Tue Sep 30 2025 11:01:16 GMT-0500 (Central Daylight Time),459742.10000002384,A,lakepipe,O,e,127,1,2250.5,457491.60000002384,7220,WL,B,5.0
4,12.662999868392944,learn,47337.000131607056,Tue Sep 30 2025 11:01:16 GMT-0500 (Central Daylight Time),460322.6999999881,A,lakepip,O,backspace,568,1,2831.099999964237,457491.60000002384,7220,WL,B,5.0
4,12.879999876022339,learn,47120.00012397766,Tue Sep 30 2025 11:01:16 GMT-0500 (Central Daylight Time),460540.10000002384,A,lakepi,O,backspace,212,1,3048.5,457491.60000002384,7220,WL,B,5.0
4,13.098000049591064,learn,46901.999950408936,Tue Sep 30 2025 11:01:16 GMT-0500 (Central Daylight Time),460757.6999999881,A,lakep,O,backspace,203,1,3266.099999964237,457491.60000002384,7220,WL,B,5.0
4,13.281999826431274,learn,46718.000173568726,Tue Sep 30 2025 11:01:16 GMT-0500 (Central Daylight Time),460941.89999997616,A,lake,O,backspace,181,1,3450.2999999523163,457491.60000002384,7220,WL,B,5.0
4,13.730999946594238,learn,46269.00005340576,Tue Sep 30 2025 11:01:16 GMT-0500 (Central Daylight Time),461390.60000002384,A,lakeenter,O,enter,431,1,3899.0,457491.60000002384,7220,WL,B,5.0
4,14.52999997138977,learn,45470.00002861023,Tue Sep 30 2025 11:01:16 GMT-0500 (Central Daylight Time),462190.0,A,p,O,p,782,1,799.1999999880791,461390.8000000119,7220,WL,B,6.0
4,14.714999914169312,learn,45285.00008583069,Tue Sep 30 2025 11:01:16 GMT-0500 (Central Daylight Time),462374.60000002384,A,pi,O,i,168,1,983.8000000119209,461390.8000000119,7220,WL,B,6.0
4,14.961999893188477,learn,45038.00010681152,Tue Sep 30 2025 11:01:16 GMT-0500 (Central Daylight Time),462621.89999997616,A,pip,O,p,239,1,1231.0999999642372,461390.8000000119,7220,WL,B,6.0
4,15.662999868392944,learn,44337.000131607056,Tue Sep 30 2025 11:01:16 GMT-0500 (Central Daylight Time),463322.6999999881,A,pipe,O,e,688,1,1931.8999999761581,461390.8000000119,7220,WL,B,6.0
4,15.928999900817871,learn,44071.00009918213,Tue Sep 30 2025 11:01:16 GMT-0500 (Central Daylight Time),463588.6999999881,A,pipeenter,O,enter,259,1,2197.899999976158,461390.8000000119,7220,WL,B,6.0
4,16.662999868392944,learn,43337.000131607056,Tue Sep 30 2025 11:01:16 GMT-0500 (Central Daylight Time),464322.5,A,p,O,p,714,1,733.6000000238419,463588.89999997616,7220,WL,B,7.0
4,17.02999997138977,learn,42970.00002861023,Tue Sep 30 2025 11:01:16 GMT-0500 (Central Daylight Time),464689.39999997616,A,pu,O,u,356,1,1100.5,463588.89999997616,7220,WL,B,7.0
4,17.860999822616577,learn,42139.00017738342,Tue Sep 30 2025 11:01:16 GMT-0500 (Central Daylight Time),465521.3000000119,A,pup,O,p,820,1,1932.4000000357628,463588.89999997616,7220,WL,B,7.0
4,18.111999988555908,learn,41888.00001144409,Tue Sep 30 2025 11:01:16 GMT-0500 (Central Daylight Time),465772.10000002384,A,pupi,O,i,229,1,2183.2000000476837,463588.89999997616,7220,WL,B,7.0
4,18.2979998588562,learn,41702.0001411438,Tue Sep 30 2025 11:01:16 GMT-0500 (Central Daylight Time),465957.60000002384,A,pupil,O,l,180,1,2368.7000000476837,463588.89999997616,7220,WL,B,7.0
4,18.54699993133545,learn,41453.00006866455,Tue Sep 30 2025 11:01:16 GMT-0500 (Central Daylight Time),466206.1999999881,A,pupilenter,O,enter,230,1,2617.300000011921,463588.89999997616,7220,WL,B,7.0
4,20.77999997138977,learn,39220.00002861023,Tue Sep 30 2025 11:01:16 GMT-0500 (Central Daylight Time),468439.39999997616,A,s,O,s,2224,1,2232.899999976158,466206.5,7220,WL,B,8.0
4,20.92899990081787,learn,39071.00009918213,Tue Sep 30 2025 11:01:16 GMT-0500 (Central Daylight Time),468588.3000000119,A,st,O,t,142,1,2381.800000011921,466206.5,7220,WL,B,8.0
4,21.111999988555908,learn,38888.00001144409,Tue Sep 30 2025 11:01:16 GMT-0500 (Central Daylight Time),468772.0,A,str,O,r,171,1,2565.5,466206.5,7220,WL,B,8.0
4,21.32799983024597,learn,38672.00016975403,Tue Sep 30 2025 11:01:16 GMT-0500 (Central Daylight Time),468987.8000000119,A,stre,O,e,201,1,2781.300000011921,466206.5,7220,WL,B,8.0
4,21.49399995803833,learn,38506.00004196167,Tue Sep 30 2025 11:01:16 GMT-0500 (Central Daylight Time),469153.39999997616,A,stree,O,e,146,1,2946.899999976158,466206.5,7220,WL,B,8.0
4,21.628000020980835,learn,38371.999979019165,Tue Sep 30 2025 11:01:16 GMT-0500 (Central Daylight Time),469287.60000002384,A,street,O,t,115,1,3081.100000023842,466206.5,7220,WL,B,8.0
4,22.360999822616577,learn,37639.00017738342,Tue Sep 30 2025 11:01:16 GMT-0500 (Central Daylight Time),470020.6999999881,A,streetenter,O,enter,711,1,3814.199999988079,466206.5,7220,WL,B,8.0
4,23.194999933242798,learn,36805.0000667572,Tue Sep 30 2025 11:01:16 GMT-0500 (Central Daylight Time),470854.39999997616,A,g,O,g,825,1,833.3999999761581,470021.0,7220,WL,B,9.0
4,23.276999950408936,learn,36723.000049591064,Tue Sep 30 2025 11:01:16 GMT-0500 (Central Daylight Time),470936.60000002384,A,gr,O,r,61,1,915.6000000238419,470021.0,7220,WL,B,9.0
4,23.527999877929688,learn,36472.00012207031,Tue Sep 30 2025 11:01:16 GMT-0500 (Central Daylight Time),471187.6999999881,A,gra,O,a,233,1,1166.699999988079,470021.0,7220,WL,B,9.0
4,23.744999885559082,learn,36255.00011444092,Tue Sep 30 2025 11:01:16 GMT-0500 (Central Daylight Time),471404.5,A,gras,O,s,201,1,1383.5,470021.0,7220,WL,B,9.0
4,23.895999908447266,learn,36104.000091552734,Tue Sep 30 2025 11:01:16 GMT-0500 (Central Daylight Time),471555.8000000119,A,grass,O,s,128,1,1534.800000011921,470021.0,7220,WL,B,9.0
4,23.960999965667725,learn,36039.000034332275,Tue Sep 30 2025 11:01:16 GMT-0500 (Central Daylight Time),471620.39999997616,A,grassenter,O,enter,59,1,1599.3999999761581,470021.0,7220,WL,B,9.0
4,24.64299988746643,learn,35357.00011253357,Tue Sep 30 2025 11:01:16 GMT-0500 (Central Daylight Time),472303.10000002384,A,d,O,d,664,1,682.4000000357628,471620.6999999881,7220,WL,B,10.0
4,24.876999855041504,learn,35123.000144958496,Tue Sep 30 2025 11:01:16 GMT-0500 (Central Daylight Time),472537.10000002384,A,do,O,o,223,1,916.4000000357628,471620.6999999881,7220,WL,B,10.0
4,25.026999950408936,learn,34973.000049591064,Tue Sep 30 2025 11:01:16 GMT-0500 (Central Daylight Time),472686.5,A,doo,O,o,132,1,1065.800000011921,471620.6999999881,7220,WL,B,10.0
4,25.108999967575073,learn,34891.00003242493,Tue Sep 30 2025 11:01:16 GMT-0500 (Central Daylight Time),472768.60000002384,A,door,O,r,61,1,1147.9000000357628,471620.6999999881,7220,WL,B,10.0
4,26.043999910354614,learn,33956.000089645386,Tue Sep 30 2025 11:01:16 GMT-0500 (Central Daylight Time),473704.1999999881,A,doo,O,backspace,924,1,2083.5,471620.6999999881,7220,WL,B,10.0
4,26.325999975204468,learn,33674.00002479553,Tue Sep 30 2025 11:01:16 GMT-0500 (Central Daylight Time),473985.89999997616,A,dooenter,O,enter,267,1,2365.199999988079,471620.6999999881,7220,WL,B,10.0
4,29.177000045776367,learn,30822.999954223633,Tue Sep 30 2025 11:01:16 GMT-0500 (Central Daylight Time),476836.3000000119,A,a,O,a,2832,1,2850.199999988079,473986.10000002384,7220,WL,B,11.0
4,29.825000047683716,learn,30174.999952316284,Tue Sep 30 2025 11:01:16 GMT-0500 (Central Daylight Time),477484.60000002384,A,ar,O,r,642,1,3498.5,473986.10000002384,7220,WL,B,11.0
4,30.090999841690063,learn,29909.000158309937,Tue Sep 30 2025 11:01:16 GMT-0500 (Central Daylight Time),477751.1999999881,A,arm,O,m,258,1,3765.099999964237,473986.10000002384,7220,WL,B,11.0
4,31.608999967575073,learn,28391.000032424927,Tue Sep 30 2025 11:01:16 GMT-0500 (Central Daylight Time),479268.5,A,armenter,O,enter,1504,1,5282.399999976158,473986.10000002384,7220,WL,B,11.0
4,35.00600004196167,learn,24993.99995803833,Tue Sep 30 2025 11:01:16 GMT-0500 (Central Daylight Time),482666.1999999881,A,w,O,w,3385,1,3397.399999976158,479268.8000000119,7220,WL,B,12.0
4,35.57200002670288,learn,24427.99997329712,Tue Sep 30 2025 11:01:16 GMT-0500 (Central Daylight Time),483231.8000000119,A,wi,O,i,546,1,3963.0,479268.8000000119,7220,WL,B,12.0
4,35.889999866485596,learn,24110.000133514404,Tue Sep 30 2025 11:01:16 GMT-0500 (Central Daylight Time),483550.0,A,wif,O,f,311,1,4281.199999988079,479268.8000000119,7220,WL,B,12.0
4,36.10599994659424,learn,23894.00005340576,Tue Sep 30 2025 11:01:16 GMT-0500 (Central Daylight Time),483766.0,A,wife,O,e,208,1,4497.199999988079,479268.8000000119,7220,WL,B,12.0
4,36.75600004196167,learn,23243.99995803833,Tue Sep 30 2025 11:01:16 GMT-0500 (Central Daylight Time),484416.0,A,wifeenter,O,enter,639,1,5147.199999988079,479268.8000000119,7220,WL,B,12.0
4,45.169999837875366,learn,14830.000162124634,Tue Sep 30 2025 11:01:16 GMT-0500 (Central Daylight Time),492829.8000000119,A,enter,O,enter,8399,1,8413.600000023842,484416.1999999881,7220,WL,B,13.0
4,45.419999837875366,learn,14580.000162124634,Tue Sep 30 2025 11:01:16 GMT-0500 (Central Daylight Time),493080.0,A,enter,O,enter,231,1,249.80000001192093,492830.1999999881,7220,WL,B,14.0
4,45.61999988555908,learn,14380.000114440918,Tue Sep 30 2025 11:01:16 GMT-0500 (Central Daylight Time),493279.60000002384,A,enter,O,enter,181,1,199.30000001192093,493080.3000000119,7220,WL,B,15.0
5,1.1000001430511475,learn,60000.0,Tue Sep 30 2025 11:01:16 GMT-0500 (Central Daylight Time),560041.3999999762,A,c,O,c,1087,1,1099.8999999761581,558941.5,7220,WL,B,1.0
5,1.3510000705718994,learn,60000.0,Tue Sep 30 2025 11:01:16 GMT-0500 (Central Daylight Time),560291.5,A,ca,O,a,235,1,1350.0,558941.5,7220,WL,B,1.0
5,1.6510000228881836,learn,60000.0,Tue Sep 30 2025 11:01:16 GMT-0500 (Central Daylight Time),560591.3999999762,A,cab,O,b,291,1,1649.8999999761581,558941.5,7220,WL,B,1.0
5,1.9179999828338623,learn,60000.0,Tue Sep 30 2025 11:01:16 GMT-0500 (Central Daylight Time),560858.5,A,cabi,O,i,255,1,1917.0,558941.5,7220,WL,B,1.0
5,2.184000015258789,learn,60000.0,Tue Sep 30 2025 11:01:16 GMT-0500 (Central Daylight Time),561125.1000000238,A,cabin,O,n,252,1,2183.600000023842,558941.5,7220,WL,B,1.0
5,2.4010000228881836,learn,60000.0,Tue Sep 30 2025 11:01:16 GMT-0500 (Central Daylight Time),561341.3999999762,A,cabinenter,O,enter,201,1,2399.899999976158,558941.5,7220,WL,B,1.0
5,3.067000150680542,learn,60000.0,Tue Sep 30 2025 11:01:16 GMT-0500 (Central Daylight Time),562007.8999999762,A,l,O,l,656,1,666.1999999880791,561341.6999999881,7220,WL,B,2.0
5,3.9190001487731934,learn,60000.0,Tue Sep 30 2025 11:01:16 GMT-0500 (Central Daylight Time),562859.8000000119,A,la,O,a,829,1,1518.1000000238419,561341.6999999881,7220,WL,B,2.0
5,4.200000047683716,learn,60000.0,Tue Sep 30 2025 11:01:16 GMT-0500 (Central Daylight Time),563141.0,A,lak,O,k,265,1,1799.300000011921,561341.6999999881,7220,WL,B,2.0
5,4.318000078201294,learn,60000.0,Tue Sep 30 2025 11:01:16 GMT-0500 (Central Daylight Time),563258.5,A,lake,O,e,105,1,1916.800000011921,561341.6999999881,7220,WL,B,2.0
5,4.453999996185303,learn,60000.0,Tue Sep 30 2025 11:01:16 GMT-0500 (Central Daylight Time),563395.1999999881,A,lakeenter,O,enter,123,1,2053.5,561341.6999999881,7220,WL,B,2.0
5,5.016000032424927,learn,60000.0,Tue Sep 30 2025 11:01:16 GMT-0500 (Central Daylight Time),563956.8999999762,A,f,O,f,547,1,561.5,563395.3999999762,7220,WL,B,3.0
5,5.151000022888184,learn,60000.0,Tue Sep 30 2025 11:01:16 GMT-0500 (Central Daylight Time),564091.6999999881,A,fi,O,i,115,1,696.3000000119209,563395.3999999762,7220,WL,B,3.0
5,5.367000102996826,learn,60000.0,Tue Sep 30 2025 11:01:16 GMT-0500 (Central Daylight Time),564308.3000000119,A,fir,O,r,196,1,912.9000000357628,563395.3999999762,7220,WL,B,3.0
5,5.815999984741211,learn,60000.0,Tue Sep 30 2025 11:01:16 GMT-0500 (Central Daylight Time),564757.1000000238,A,fire,O,e,430,1,1361.7000000476837,563395.3999999762,7220,WL,B,3.0
5,5.999000072479248,learn,60000.0,Tue Sep 30 2025 11:01:16 GMT-0500 (Central Daylight Time),564940.1999999881,A,fireenter,O,enter,177,1,1544.800000011921,563395.3999999762,7220,WL,B,3.0
5,6.7850000858306885,learn,60000.0,Tue Sep 30 2025 11:01:16 GMT-0500 (Central Daylight Time),565726.3000000119,A,s,O,s,770,1,785.9000000357628,564940.3999999762,7220,WL,B,4.0
5,7.052999973297119,learn,60000.0,Tue Sep 30 2025 11:01:16 GMT-0500 (Central Daylight Time),565993.8000000119,A,sk,O,k,263,1,1053.4000000357628,564940.3999999762,7220,WL,B,4.0
5,7.249000072479248,learn,60000.0,Tue Sep 30 2025 11:01:16 GMT-0500 (Central Daylight Time),566189.8000000119,A,ski,O,i,189,1,1249.4000000357628,564940.3999999762,7220,WL,B,4.0
5,7.465000152587891,learn,60000.0,Tue Sep 30 2025 11:01:16 GMT-0500 (Central Daylight Time),566406.3000000119,A,skin,O,n,200,1,1465.9000000357628,564940.3999999762,7220,WL,B,4.0
5,7.914999961853027,learn,60000.0,Tue Sep 30 2025 11:01:16 GMT-0500 (Central Daylight Time),566855.6000000238,A,skinenter,O,enter,431,1,1915.2000000476837,564940.3999999762,7220,WL,B,4.0
5,8.697999954223633,learn,60000.0,Tue Sep 30 2025 11:01:16 GMT-0500 (Central Daylight Time),567639.3999999762,A,p,O,p,767,1,783.5999999642372,566855.8000000119,7220,WL,B,5.0
5,8.881999969482422,learn,60000.0,Tue Sep 30 2025 11:01:16 GMT-0500 (Central Daylight Time),567823.0,A,pi,O,i,174,1,967.1999999880791,566855.8000000119,7220,WL,B,5.0
5,9.098000049591064,learn,60000.0,Tue Sep 30 2025 11:01:16 GMT-0500 (Central Daylight Time),568039.3000000119,A,pip,O,p,207,1,1183.5,566855.8000000119,7220,WL,B,5.0
5,9.315000057220459,learn,60000.0,Tue Sep 30 2025 11:01:16 GMT-0500 (Central Daylight Time),568256.3999999762,A,pipe,O,e,207,1,1400.5999999642372,566855.8000000119,7220,WL,B,5.0
5,9.447999954223633,learn,60000.0,Tue Sep 30 2025 11:01:16 GMT-0500 (Central Daylight Time),568388.6999999881,A,pipeenter,O,enter,116,1,1532.8999999761581,566855.8000000119,7220,WL,B,5.0
5,10.648000001907349,learn,60000.0,Tue Sep 30 2025 11:01:16 GMT-0500 (Central Daylight Time),569588.8999999762,A,w,O,w,1185,1,1200.0,568388.8999999762,7220,WL,B,6.0
5,10.765000104904175,learn,60000.0,Tue Sep 30 2025 11:01:16 GMT-0500 (Central Daylight Time),569705.3999999762,A,wi,O,i,96,1,1316.5,568388.8999999762,7220,WL,B,6.0
5,10.98200011253357,learn,60000.0,Tue Sep 30 2025 11:01:16 GMT-0500 (Central Daylight Time),569923.3999999762,A,wif,O,f,194,1,1534.5,568388.8999999762,7220,WL,B,6.0
5,11.197999954223633,learn,60000.0,Tue Sep 30 2025 11:01:16 GMT-0500 (Central Daylight Time),570138.5,A,wife,O,e,202,1,1749.6000000238419,568388.8999999762,7220,WL,B,6.0
5,11.27999997138977,learn,60000.0,Tue Sep 30 2025 11:01:16 GMT-0500 (Central Daylight Time),570220.8000000119,A,wifeenter,O,enter,67,1,1831.9000000357628,568388.8999999762,7220,WL,B,6.0
5,12.75,learn,60000.0,Tue Sep 30 2025 11:01:16 GMT-0500 (Central Daylight Time),571691.1999999881,A,g,O,g,1457,1,1470.199999988079,570221.0,7220,WL,B,7.0
5,12.829999923706055,learn,60000.0,Tue Sep 30 2025 11:01:16 GMT-0500 (Central Daylight Time),571771.3000000119,A,gr,O,r,66,1,1550.300000011921,570221.0,7220,WL,B,7.0
5,13.098999977111816,learn,60000.0,Tue Sep 30 2025 11:01:16 GMT-0500 (Central Daylight Time),572040.1000000238,A,gra,O,a,251,1,1819.1000000238419,570221.0,7220,WL,B,7.0
5,13.314000129699707,learn,60000.0,Tue Sep 30 2025 11:01:16 GMT-0500 (Central Daylight Time),572254.3999999762,A,gras,O,s,198,1,2033.3999999761581,570221.0,7220,WL,B,7.0
5,13.447999954223633,learn,60000.0,Tue Sep 30 2025 11:01:16 GMT-0500 (Central Daylight Time),572388.3999999762,A,grass,O,s,112,1,2167.399999976158,570221.0,7220,WL,B,7.0
5,13.54699993133545,learn,60000.0,Tue Sep 30 2025 11:01:16 GMT-0500 (Central Daylight Time),572488.1999999881,A,grassenter,O,enter,88,1,2267.199999988079,570221.0,7220,WL,B,7.0
5,16.430000066757202,learn,60000.0,Tue Sep 30 2025 11:01:16 GMT-0500 (Central Daylight Time),575370.8999999762,A,d,O,d,2868,1,2882.599999964237,572488.3000000119,7220,WL,B,8.0
5,16.64800000190735,learn,60000.0,Tue Sep 30 2025 11:01:16 GMT-0500 (Central Daylight Time),575589.3000000119,A,do,O,o,194,1,3101.0,572488.3000000119,7220,WL,B,8.0
5,16.77999997138977,learn,60000.0,Tue Sep 30 2025 11:01:16 GMT-0500 (Central Daylight Time),575720.6000000238,A,doo,O,o,112,1,3232.300000011921,572488.3000000119,7220,WL,B,8.0
5,16.911999940872192,learn,60000.0,Tue Sep 30 2025 11:01:16 GMT-0500 (Central Daylight Time),575853.3000000119,A,door,O,r,116,1,3365.0,572488.3000000119,7220,WL,B,8.0
5,17.062000036239624,learn,60000.0,Tue Sep 30 2025 11:01:16 GMT-0500 (Central Daylight Time),576003.1000000238,A,doorenter,O,enter,131,1,3514.800000011921,572488.3000000119,7220,WL,B,8.0
5,17.42900013923645,learn,60000.0,Tue Sep 30 2025 11:01:16 GMT-0500 (Central Daylight Time),576369.6999999881,A,a,O,a,346,1,366.30000001192093,576003.3999999762,7220,WL,B,9.0
5,17.911999940872192,learn,60000.0,Tue Sep 30 2025 11:01:16 GMT-0500 (Central Daylight Time),576852.5,A,ar,O,r,467,1,849.1000000238419,576003.3999999762,7220,WL,B,9.0
5,18.111999988555908,learn,60000.0,Tue Sep 30 2025 11:01:16 GMT-0500 (Central Daylight Time),577052.8999999762,A,arm,O,m,185,1,1049.5,576003.3999999762,7220,WL,B,9.0
5,19.17900013923645,learn,60000.0,Tue Sep 30 2025 11:01:16 GMT-0500 (Central Daylight Time),578119.5,A,armenter,O,enter,1057,1,2116.100000023842,576003.3999999762,7220,WL,B,9.0
5,22.278000116348267,learn,60000.0,Tue Sep 30 2025 11:01:16 GMT-0500 (Central Daylight Time),581218.6000000238,A,w,O,w,3085,1,3098.800000011921,578119.8000000119,7220,WL,B,10.0
5,22.361000061035156,learn,60000.0,Tue Sep 30 2025 11:01:16 GMT-0500 (Central Daylight Time),581301.5,A,wi,O,i,75,1,3181.699999988079,578119.8000000119,7220,WL,B,10.0
5,22.611000061035156,learn,60000.0,Tue Sep 30 2025 11:01:16 GMT-0500 (Central Daylight Time),581551.8999999762,A,win,O,n,230,1,3432.099999964237,578119.8000000119,7220,WL,B,10.0
5,23.044000148773193,learn,60000.0,Tue Sep 30 2025 11:01:16 GMT-0500 (Central Daylight Time),581984.6999999881,A,wind,O,d,413,1,3864.899999976158,578119.8000000119,7220,WL,B,10.0
5,23.110000133514404,learn,60000.0,Tue Sep 30 2025 11:01:16 GMT-0500 (Central Daylight Time),582050.6999999881,A,windo,O,o,51,1,3930.899999976158,578119.8000000119,7220,WL,B,10.0
5,23.460999965667725,learn,60000.0,Tue Sep 30 2025 11:01:16 GMT-0500 (Central Daylight Time),582401.8999999762,A,window,O,w,333,1,4282.099999964237,578119.8000000119,7220,WL,B,10.0
5,23.542999982833862,learn,60000.0,Tue Sep 30 2025 11:01:16 GMT-0500 (Central Daylight Time),582483.5,A,windowenter,O,enter,67,1,4363.699999988079,578119.8000000119,7220,WL,B,10.0
5,27.243000030517578,learn,60000.0,Tue Sep 30 2025 11:01:16 GMT-0500 (Central Daylight Time),586183.8999999762,A,g,O,g,3690,1,3700.099999964237,582483.8000000119,7220,WL,B,11.0
5,27.39400005340576,learn,60000.0,Tue Sep 30 2025 11:01:16 GMT-0500 (Central Daylight Time),586334.5,A,gr,O,r,135,1,3850.699999988079,582483.8000000119,7220,WL,B,11.0
5,27.759999990463257,learn,60000.0,Tue Sep 30 2025 11:01:16 GMT-0500 (Central Daylight Time),586700.6000000238,A,gra,O,a,351,1,4216.800000011921,582483.8000000119,7220,WL,B,11.0
5,28.044000148773193,learn,60000.0,Tue Sep 30 2025 11:01:16 GMT-0500 (Central Daylight Time),586985.0,A,gras,O,s,266,1,4501.199999988079,582483.8000000119,7220,WL,B,11.0
5,28.259999990463257,learn,60000.0,Tue Sep 30 2025 11:01:16 GMT-0500 (Central Daylight Time),587200.5,A,grass,O,s,204,1,4716.699999988079,582483.8000000119,7220,WL,B,11.0
5,28.361000061035156,learn,60000.0,Tue Sep 30 2025 11:01:16 GMT-0500 (Central Daylight Time),587302.3000000119,A,grassenter,O,enter,98,1,4818.5,582483.8000000119,7220,WL,B,11.0
5,28.99399995803833,learn,60000.0,Tue Sep 30 2025 11:01:16 GMT-0500 (Central Daylight Time),587934.5,A,p,O,p,623,1,631.8999999761581,587302.6000000238,7220,WL,B,12.0
5,29.30900001525879,learn,60000.0,Tue Sep 30 2025 11:01:16 GMT-0500 (Central Daylight Time),588250.1000000238,A,pu,O,u,295,1,947.5,587302.6000000238,7220,WL,B,12.0
5,29.608999967575073,learn,60000.0,Tue Sep 30 2025 11:01:16 GMT-0500 (Central Daylight Time),588550.1000000238,A,pup,O,p,282,1,1247.5,587302.6000000238,7220,WL,B,12.0
5,29.861000061035156,learn,60000.0,Tue Sep 30 2025 11:01:16 GMT-0500 (Central Daylight Time),588801.6999999881,A,pupi,O,i,232,1,1499.0999999642372,587302.6000000238,7220,WL,B,12.0
5,30.042999982833862,learn,60000.0,Tue Sep 30 2025 11:01:16 GMT-0500 (Central Daylight Time),588983.6999999881,A,pupil,O,l,173,1,1681.0999999642372,587302.6000000238,7220,WL,B,12.0
5,30.409000158309937,learn,60000.0,Tue Sep 30 2025 11:01:16 GMT-0500 (Central Daylight Time),589350.0,A,pupilenter,O,enter,348,1,2047.3999999761581,587302.6000000238,7220,WL,B,12.0
5,35.65700006484985,learn,60000.0,Tue Sep 30 2025 11:01:16 GMT-0500 (Central Daylight Time),594598.0,A,enter,O,enter,5232,1,5247.800000011921,589350.1999999881,7220,WL,B,13.0
5,35.85599994659424,learn,60000.0,Tue Sep 30 2025 11:01:16 GMT-0500 (Central Daylight Time),594797.0,A,enter,O,enter,185,1,198.89999997615814,594598.1000000238,7220,WL,B,14.0
5,36.25699996948242,learn,60000.0,Tue Sep 30 2025 11:01:16 GMT-0500 (Central Daylight Time),595197.5,A,enter,O,enter,384,1,400.10000002384186,594797.3999999762,7220,WL,B,15.0
6,1.9840002059936523,distr,58015.99979400635,Tue Sep 30 2025 11:01:16 GMT-0500 (Central Daylight Time),665475.0,B,d,O,d,1972,1,1984.199999988079,663490.8000000119,7220,WL,B,1.0
6,2.2009999752044678,distr,57799.00002479553,Tue Sep 30 2025 11:01:16 GMT-0500 (Central Daylight Time),665692.1999999881,B,dr,O,r,197,1,2201.399999976158,663490.8000000119,7220,WL,B,1.0
6,2.384999990463257,distr,57615.00000953674,Tue Sep 30 2025 11:01:16 GMT-0500 (Central Daylight Time),665875.8000000119,B,dre,O,e,162,1,2385.0,663490.8000000119,7220,WL,B,1.0
6,2.6500000953674316,distr,57349.99990463257,Tue Sep 30 2025 11:01:16 GMT-0500 (Central Daylight Time),666141.3999999762,B,dres,O,s,249,1,2650.599999964237,663490.8000000119,7220,WL,B,1.0
6,2.817000150680542,distr,57182.99984931946,Tue Sep 30 2025 11:01:16 GMT-0500 (Central Daylight Time),666308.1000000238,B,dress,O,s,147,1,2817.300000011921,663490.8000000119,7220,WL,B,1.0
6,3.133000135421753,distr,56866.99986457825,Tue Sep 30 2025 11:01:16 GMT-0500 (Central Daylight Time),666624.1000000238,B,dresss,O,s,304,1,3133.300000011921,663490.8000000119,7220,WL,B,1.0
6,3.6000001430511475,distr,56399.99985694885,Tue Sep 30 2025 11:01:16 GMT-0500 (Central Daylight Time),667090.6999999881,B,dress,O,backspace,446,1,3599.899999976158,663490.8000000119,7220,WL,B,1.0
6,4.381999969482422,distr,55618.00003051758,Tue Sep 30 2025 11:01:16 GMT-0500 (Central Daylight Time),667873.5,B,dressenter,O,enter,772,1,4382.699999988079,663490.8000000119,7220,WL,B,1.0
6,5.166000127792358,distr,54833.99987220764,Tue Sep 30 2025 11:01:16 GMT-0500 (Central Daylight Time),668656.8000000119,B,s,O,s,764,1,783.1000000238419,667873.6999999881,7220,WL,B,2.0
6,5.64900016784668,distr,54350.99983215332,Tue Sep 30 2025 11:01:16 GMT-0500 (Central Daylight Time),669140.3999999762,B,st,O,t,466,1,1266.699999988079,667873.6999999881,7220,WL,B,2.0
6,6.232000112533569,distr,53767.99988746643,Tue Sep 30 2025 11:01:16 GMT-0500 (Central Daylight Time),669723.1999999881,B,ste,O,e,564,1,1849.5,667873.6999999881,7220,WL,B,2.0
6,6.549000024795532,distr,53450.99997520447,Tue Sep 30 2025 11:01:16 GMT-0500 (Central Daylight Time),670040.1000000238,B,stea,O,a,298,1,2166.400000035763,667873.6999999881,7220,WL,B,2.0
6,6.63100004196167,distr,53368.99995803833,Tue Sep 30 2025 11:01:16 GMT-0500 (Central Daylight Time),670122.3000000119,B,steam,O,m,66,1,2248.600000023842,667873.6999999881,7220,WL,B,2.0
6,6.866000175476074,distr,53133.999824523926,Tue Sep 30 2025 11:01:16 GMT-0500 (Central Daylight Time),670357.1999999881,B,steamenter,O,enter,230,1,2483.5,667873.6999999881,7220,WL,B,2.0
6,7.199000120162964,distr,52800.999879837036,Tue Sep 30 2025 11:01:16 GMT-0500 (Central Daylight Time),670689.6999999881,B,c,O,c,312,1,332.19999998807907,670357.5,7220,WL,B,3.0
6,7.300000190734863,distr,52699.99980926514,Tue Sep 30 2025 11:01:16 GMT-0500 (Central Daylight Time),670790.8000000119,B,co,O,o,92,1,433.30000001192093,670357.5,7220,WL,B,3.0
6,9.098000049591064,distr,50901.999950408936,Tue Sep 30 2025 11:01:16 GMT-0500 (Central Daylight Time),672588.8000000119,B,coi,O,i,1782,1,2231.300000011921,670357.5,7220,WL,B,3.0
6,9.233000040054321,distr,50766.99995994568,Tue Sep 30 2025 11:01:16 GMT-0500 (Central Daylight Time),672723.8999999762,B,coin,O,n,121,1,2366.399999976158,670357.5,7220,WL,B,3.0
6,9.416000127792358,distr,50583.99987220764,Tue Sep 30 2025 11:01:16 GMT-0500 (Central Daylight Time),672907.5,B,coinenter,O,enter,167,1,2550.0,670357.5,7220,WL,B,3.0
6,9.833000183105469,distr,50166.99981689453,Tue Sep 30 2025 11:01:16 GMT-0500 (Central Daylight Time),673323.8999999762,B,r,O,r,395,1,416.19999998807907,672907.6999999881,7220,WL,B,4.0
6,9.94700002670288,distr,50052.99997329712,Tue Sep 30 2025 11:01:16 GMT-0500 (Central Daylight Time),673438.3999999762,B,ro,O,o,98,1,530.6999999880791,672907.6999999881,7220,WL,B,4.0
6,10.64900016784668,distr,49350.99983215332,Tue Sep 30 2025 11:01:16 GMT-0500 (Central Daylight Time),674139.8999999762,B,roc,O,c,685,1,1232.199999988079,672907.6999999881,7220,WL,B,4.0
6,10.71399998664856,distr,49286.00001335144,Tue Sep 30 2025 11:01:16 GMT-0500 (Central Daylight Time),674204.8999999762,B,rock,O,k,56,1,1297.199999988079,672907.6999999881,7220,WL,B,4.0
6,10.88100004196167,distr,49118.99995803833,Tue Sep 30 2025 11:01:16 GMT-0500 (Central Daylight Time),674372.1999999881,B,rockenter,O,enter,151,1,1464.5,672907.6999999881,7220,WL,B,4.0
6,15.36300015449524,distr,44636.99984550476,Tue Sep 30 2025 11:01:16 GMT-0500 (Central Daylight Time),678853.6999999881,B,d,O,d,4474,1,4481.300000011921,674372.3999999762,7220,WL,B,5.0
6,15.563000202178955,distr,44436.999797821045,Tue Sep 30 2025 11:01:16 GMT-0500 (Central Daylight Time),679054.1999999881,B,dr,O,r,192,1,4681.800000011921,674372.3999999762,7220,WL,B,5.0
6,15.746000051498413,distr,44253.99994850159,Tue Sep 30 2025 11:01:16 GMT-0500 (Central Daylight Time),679236.8000000119,B,dre,O,e,168,1,4864.400000035763,674372.3999999762,7220,WL,B,5.0
6,15.979000091552734,distr,44020.999908447266,Tue Sep 30 2025 11:01:16 GMT-0500 (Central Daylight Time),679469.8999999762,B,dres,O,s,218,1,5097.5,674372.3999999762,7220,WL,B,5.0
6,16.129000186920166,distr,43870.999813079834,Tue Sep 30 2025 11:01:16 GMT-0500 (Central Daylight Time),679619.8000000119,B,dress,O,s,136,1,5247.400000035763,674372.3999999762,7220,WL,B,5.0
6,16.34600019454956,distr,43653.99980545044,Tue Sep 30 2025 11:01:16 GMT-0500 (Central Daylight Time),679837.1000000238,B,dressenter,O,enter,210,1,5464.700000047684,674372.3999999762,7220,WL,B,5.0
6,21.99400019645691,distr,38005.99980354309,Tue Sep 30 2025 11:01:16 GMT-0500 (Central Daylight Time),685484.6000000238,B,enter,O,enter,5640,1,5647.300000011921,679837.3000000119,7220,WL,B,6.0
6,22.496000051498413,distr,37503.99994850159,Tue Sep 30 2025 11:01:16 GMT-0500 (Central Daylight Time),685987.0,B,enter,O,enter,482,1,502.19999998807907,685484.8000000119,7220,WL,B,7.0
6,22.74400019645691,distr,37255.99980354309,Tue Sep 30 2025 11:01:16 GMT-0500 (Central Daylight Time),686235.1999999881,B,enter,O,enter,234,1,247.89999997615814,685987.3000000119,7220,WL,B,8.0
6,22.926000118255615,distr,37073.999881744385,Tue Sep 30 2025 11:01:16 GMT-0500 (Central Daylight Time),686417.5,B,enter,O,enter,170,1,182.10000002384186,686235.3999999762,7220,WL,B,9.0
6,23.092000007629395,distr,36907.999992370605,Tue Sep 30 2025 11:01:16 GMT-0500 (Central Daylight Time),686583.3999999762,B,enter,O,enter,155,1,165.69999998807907,686417.6999999881,7220,WL,B,10.0
6,23.24400019645691,distr,36755.99980354309,Tue Sep 30 2025 11:01:16 GMT-0500 (Central Daylight Time),686734.8000000119,B,enter,O,enter,143,1,151.19999998807907,686583.6000000238,7220,WL,B,11.0
6,23.419000148773193,distr,36580.99985122681,Tue Sep 30 2025 11:01:16 GMT-0500 (Central Daylight Time),686910.1999999881,B,enter,O,enter,158,1,175.0,686735.1999999881,7220,WL,B,12.0
6,23.598999977111816,distr,36401.00002288818,Tue Sep 30 2025 11:01:16 GMT-0500 (Central Daylight Time),687089.6000000238,B,enter,O,enter,171,1,179.20000004768372,686910.3999999762,7220,WL,B,13.0
6,23.926000118255615,distr,36073.999881744385,Tue Sep 30 2025 11:01:16 GMT-0500 (Central Daylight Time),687417.3000000119,B,enter,O,enter,317,1,327.5,687089.8000000119,7220,WL,B,14.0
6,24.493000030517578,distr,35506.99996948242,Tue Sep 30 2025 11:01:16 GMT-0500 (Central Daylight Time),687984.3000000119,B,enter,O,enter,549,1,566.8000000119209,687417.5,7220,WL,B,15.0
7,7.585000038146973,immed,52414.99996185303,Tue Sep 30 2025 11:01:16 GMT-0500 (Central Daylight Time),702299.6999999881,A,s,O,s,7570,1,7584.300000011921,694715.3999999762,7220,WL,B,1.0
7,7.697000026702881,immed,52302.99997329712,Tue Sep 30 2025 11:01:16 GMT-0500 (Central Daylight Time),702412.3999999762,A,st,O,t,96,1,7697.0,694715.3999999762,7220,WL,B,1.0
7,7.865000009536743,immed,52134.99999046326,Tue Sep 30 2025 11:01:16 GMT-0500 (Central Daylight Time),702580.3999999762,A,str,O,r,164,1,7865.0,694715.3999999762,7220,WL,B,1.0
7,8.065000057220459,immed,51934.99994277954,Tue Sep 30 2025 11:01:16 GMT-0500 (Central Daylight Time),702780.5,A,stre,O,e,195,1,8065.100000023842,694715.3999999762,7220,WL,B,1.0
7,8.214000225067139,immed,51785.99977493286,Tue Sep 30 2025 11:01:16 GMT-0500 (Central Daylight Time),702929.1999999881,A,stree,O,e,129,1,8213.800000011921,694715.3999999762,7220,WL,B,1.0
7,8.332000017166138,immed,51667.99998283386,Tue Sep 30 2025 11:01:16 GMT-0500 (Central Daylight Time),703046.6999999881,A,street,O,t,101,1,8331.300000011921,694715.3999999762,7220,WL,B,1.0
7,8.764000177383423,immed,51235.99982261658,Tue Sep 30 2025 11:01:16 GMT-0500 (Central Daylight Time),703478.6000000238,A,streetenter,O,enter,413,1,8763.200000047684,694715.3999999762,7220,WL,B,1.0
7,9.614000082015991,immed,50385.99991798401,Tue Sep 30 2025 11:01:16 GMT-0500 (Central Daylight Time),704328.8999999762,A,w,O,w,838,1,850.0999999642372,703478.8000000119,7220,WL,B,2.0
7,9.69700002670288,immed,50302.99997329712,Tue Sep 30 2025 11:01:16 GMT-0500 (Central Daylight Time),704411.8999999762,A,wi,O,i,68,1,933.0999999642372,703478.8000000119,7220,WL,B,2.0
7,9.913000106811523,immed,50086.99989318848,Tue Sep 30 2025 11:01:16 GMT-0500 (Central Daylight Time),704628.3999999762,A,win,O,n,208,1,1149.5999999642372,703478.8000000119,7220,WL,B,2.0
7,10.414000034332275,immed,49585.999965667725,Tue Sep 30 2025 11:01:16 GMT-0500 (Central Daylight Time),705128.8000000119,A,wind,O,d,481,1,1650.0,703478.8000000119,7220,WL,B,2.0
7,10.496000051498413,immed,49503.99994850159,Tue Sep 30 2025 11:01:16 GMT-0500 (Central Daylight Time),705211.3999999762,A,windo,O,o,78,1,1732.5999999642372,703478.8000000119,7220,WL,B,2.0
7,11.047000169754028,immed,48952.99983024597,Tue Sep 30 2025 11:01:16 GMT-0500 (Central Daylight Time),705761.6000000238,A,window,O,w,546,1,2282.800000011921,703478.8000000119,7220,WL,B,2.0
7,11.764000177383423,immed,48235.99982261658,Tue Sep 30 2025 11:01:16 GMT-0500 (Central Daylight Time),706478.8999999762,A,windowenter,O,enter,701,1,3000.099999964237,703478.8000000119,7220,WL,B,2.0
7,12.313000202178955,immed,47686.999797821045,Tue Sep 30 2025 11:01:16 GMT-0500 (Central Daylight Time),707027.8000000119,A,g,O,g,535,1,548.6999999880791,706479.1000000238,7220,WL,B,3.0
7,12.514000177383423,immed,47485.99982261658,Tue Sep 30 2025 11:01:16 GMT-0500 (Central Daylight Time),707228.6999999881,A,gr,O,r,187,1,749.5999999642372,706479.1000000238,7220,WL,B,3.0
7,12.730000019073486,immed,47269.999980926514,Tue Sep 30 2025 11:01:16 GMT-0500 (Central Daylight Time),707444.6000000238,A,gra,O,a,210,1,965.5,706479.1000000238,7220,WL,B,3.0
7,12.962000131607056,immed,47037.999868392944,Tue Sep 30 2025 11:01:16 GMT-0500 (Central Daylight Time),707677.3999999762,A,gras,O,s,226,1,1198.2999999523163,706479.1000000238,7220,WL,B,3.0
7,13.13100004196167,immed,46868.99995803833,Tue Sep 30 2025 11:01:16 GMT-0500 (Central Daylight Time),707845.6000000238,A,grass,O,s,153,1,1366.5,706479.1000000238,7220,WL,B,3.0
7,13.195000171661377,immed,46804.99982833862,Tue Sep 30 2025 11:01:16 GMT-0500 (Central Daylight Time),707910.1999999881,A,grassenter,O,enter,56,1,1431.0999999642372,706479.1000000238,7220,WL,B,3.0
7,13.797000169754028,immed,46202.99983024597,Tue Sep 30 2025 11:01:16 GMT-0500 (Central Daylight Time),708512.1999999881,A,d,O,d,591,1,601.8000000119209,707910.3999999762,7220,WL,B,4.0
7,14.029000043869019,immed,45970.99995613098,Tue Sep 30 2025 11:01:16 GMT-0500 (Central Daylight Time),708744.1000000238,A,do,O,o,213,1,833.7000000476837,707910.3999999762,7220,WL,B,4.0
7,14.180999994277954,immed,45819.000005722046,Tue Sep 30 2025 11:01:16 GMT-0500 (Central Daylight Time),708896.3999999762,A,doo,O,o,133,1,986.0,707910.3999999762,7220,WL,B,4.0
7,14.362000226974487,immed,45637.99977302551,Tue Sep 30 2025 11:01:16 GMT-0500 (Central Daylight Time),709077.1999999881,A,door,O,r,173,1,1166.800000011921,707910.3999999762,7220,WL,B,4.0
7,14.563000202178955,immed,45436.999797821045,Tue Sep 30 2025 11:01:16 GMT-0500 (Central Daylight Time),709277.8999999762,A,doorenter,O,enter,185,1,1367.5,707910.3999999762,7220,WL,B,4.0
7,16.84500002861023,immed,43154.99997138977,Tue Sep 30 2025 11:01:16 GMT-0500 (Central Daylight Time),711559.6999999881,A,w,O,w,2272,1,2281.599999964237,709278.1000000238,7220,WL,B,5.0
7,16.94600009918213,immed,43053.99990081787,Tue Sep 30 2025 11:01:16 GMT-0500 (Central Daylight Time),711660.6999999881,A,wi,O,i,85,1,2382.599999964237,709278.1000000238,7220,WL,B,5.0
7,17.228000164031982,immed,42771.99983596802,Tue Sep 30 2025 11:01:16 GMT-0500 (Central Daylight Time),711942.6000000238,A,wif,O,f,264,1,2664.5,709278.1000000238,7220,WL,B,5.0
7,17.4280002117157,immed,42571.9997882843,Tue Sep 30 2025 11:01:16 GMT-0500 (Central Daylight Time),712143.3000000119,A,wife,O,e,190,1,2865.199999988079,709278.1000000238,7220,WL,B,5.0
7,17.49500012397766,immed,42504.99987602234,Tue Sep 30 2025 11:01:16 GMT-0500 (Central Daylight Time),712209.6000000238,A,wifeenter,O,enter,46,1,2931.5,709278.1000000238,7220,WL,B,5.0
7,23.14400005340576,immed,36855.99994659424,Tue Sep 30 2025 11:01:16 GMT-0500 (Central Daylight Time),717858.6000000238,A,f,O,f,5638,1,5648.700000047684,712209.8999999762,7220,WL,B,6.0
7,23.259000062942505,immed,36740.999937057495,Tue Sep 30 2025 11:01:16 GMT-0500 (Central Daylight Time),717974.3999999762,A,fi,O,i,100,1,5764.5,712209.8999999762,7220,WL,B,6.0
7,23.443000078201294,immed,36556.999921798706,Tue Sep 30 2025 11:01:16 GMT-0500 (Central Daylight Time),718158.1999999881,A,fir,O,r,166,1,5948.300000011921,712209.8999999762,7220,WL,B,6.0
7,23.609000205993652,immed,36390.99979400635,Tue Sep 30 2025 11:01:16 GMT-0500 (Central Daylight Time),718324.1000000238,A,fire,O,e,152,1,6114.200000047684,712209.8999999762,7220,WL,B,6.0
7,23.692000150680542,immed,36307.99984931946,Tue Sep 30 2025 11:01:16 GMT-0500 (Central Daylight Time),718407.1000000238,A,fireenter,O,enter,73,1,6197.200000047684,712209.8999999762,7220,WL,B,6.0
7,25.659000158309937,immed,34340.99984169006,Tue Sep 30 2025 11:01:16 GMT-0500 (Central Daylight Time),720373.6999999881,A,p,O,p,1959,1,1966.300000011921,718407.3999999762,7220,WL,B,7.0
7,26.16000008583069,immed,33839.99991416931,Tue Sep 30 2025 11:01:16 GMT-0500 (Central Daylight Time),720875.0,A,pu,O,u,489,1,2467.600000023842,718407.3999999762,7220,WL,B,7.0
7,26.625,immed,33375.0,Tue Sep 30 2025 11:01:16 GMT-0500 (Central Daylight Time),721340.0,A,pup,O,p,450,1,2932.600000023842,718407.3999999762,7220,WL,B,7.0
7,26.841000080108643,immed,33158.99991989136,Tue Sep 30 2025 11:01:16 GMT-0500 (Central Daylight Time),721556.1000000238,A,pupi,O,i,201,1,3148.7000000476837,718407.3999999762,7220,WL,B,7.0
7,27.061000108718872,immed,32938.99989128113,Tue Sep 30 2025 11:01:16 GMT-0500 (Central Daylight Time),721776.1000000238,A,pupil,O,l,203,1,3368.7000000476837,718407.3999999762,7220,WL,B,7.0
7,27.27500009536743,immed,32724.99990463257,Tue Sep 30 2025 11:01:16 GMT-0500 (Central Daylight Time),721990.1000000238,A,pupilenter,O,enter,204,1,3582.7000000476837,718407.3999999762,7220,WL,B,7.0
7,33.34100008010864,immed,26658.999919891357,Tue Sep 30 2025 11:01:16 GMT-0500 (Central Daylight Time),728056.0,A,a,O,a,6054,1,6065.600000023842,721990.3999999762,7220,WL,B,8.0
7,33.757000207901,immed,26242.999792099,Tue Sep 30 2025 11:01:16 GMT-0500 (Central Daylight Time),728471.6000000238,A,ar,O,r,407,1,6481.200000047684,721990.3999999762,7220,WL,B,8.0
7,34.22200012207031,immed,25777.999877929688,Tue Sep 30 2025 11:01:16 GMT-0500 (Central Daylight Time),728937.3999999762,A,arm,O,m,454,1,6947.0,721990.3999999762,7220,WL,B,8.0
7,34.875,immed,25125.0,Tue Sep 30 2025 11:01:16 GMT-0500 (Central Daylight Time),729589.6999999881,A,armenter,O,enter,645,1,7599.300000011921,721990.3999999762,7220,WL,B,8.0
7,48.718000173568726,immed,11281.999826431274,Tue Sep 30 2025 11:01:16 GMT-0500 (Central Daylight Time),743433.1999999881,A,enter,O,enter,13832,1,13843.199999988079,729590.0,7220,WL,B,9.0
7,48.93500018119812,immed,11064.99981880188,Tue Sep 30 2025 11:01:16 GMT-0500 (Central Daylight Time),743649.8000000119,A,enter,O,enter,197,1,216.4000000357628,743433.3999999762,7220,WL,B,10.0
7,49.08500003814697,immed,10914.999961853027,Tue Sep 30 2025 11:01:16 GMT-0500 (Central Daylight Time),743800.0,A,enter,O,enter,142,1,150.0,743650.0,7220,WL,B,11.0
7,49.26800012588501,immed,10731.99987411499,Tue Sep 30 2025 11:01:16 GMT-0500 (Central Daylight Time),743983.1999999881,A,enter,O,enter,164,1,182.89999997615814,743800.3000000119,7220,WL,B,12.0
7,49.43500018119812,immed,10564.99981880188,Tue Sep 30 2025 11:01:16 GMT-0500 (Central Daylight Time),744149.8999999762,A,enter,O,enter,158,1,166.39999997615814,743983.5,7220,WL,B,13.0
7,49.81600022315979,immed,10183.99977684021,Tue Sep 30 2025 11:01:16 GMT-0500 (Central Daylight Time),744531.5,A,enter,O,enter,375,1,381.30000001192093,744150.1999999881,7220,WL,B,14.0
7,50.26800012588501,immed,9731.99987411499,Tue Sep 30 2025 11:01:16 GMT-0500 (Central Daylight Time),744983.0,A,enter,O,enter,434,1,451.30000001192093,744531.6999999881,7220,WL,B,15.0
