acc_sum,block,block_c,change,condition,correct,correct_response,datetime,endtime,face,project,response,response_time,row_sel,session_number,start_end,starttime,subject_id,task,task_vers,trial
0,prac,1,,1-Back,,,Tue Feb 03 2026 16:16:39 GMT-0600 (Central Standard Time),,093_m_f_n_a.png,I,space,3213,1,,,,9999,NNB,C,0
1,prac,1,0.0,1-Back,1.0,m,Tue Feb 03 2026 16:16:39 GMT-0600 (Central Standard Time),152916.69999980927,098_y_f_n_a.png,I,m,803,2,,1657.3999996185303,151259.30000019073,9999,NNB,C,1
1,prac,1,1.0,1-Back,0.0,z,Tue Feb 03 2026 16:16:39 GMT-0600 (Central Standard Time),155698.09999990463,098_y_f_n_a.png,I,None,2007,3,,2772.699999809265,152925.40000009537,9999,NNB,C,2
1,prac,1,0.0,1-Back,0.0,m,Tue Feb 03 2026 16:16:39 GMT-0600 (Central Standard Time),157416.09999990463,059_o_m_n_a.png,I,z,853,4,,1709.7999997138977,155706.30000019073,9999,NNB,C,3
2,prac,1,0.0,1-Back,1.0,m,Tue Feb 03 2026 16:16:39 GMT-0600 (Central Standard Time),159865.5,092_m_m_n_a.png,I,m,1607,5,,2440.800000190735,157424.69999980927,9999,NNB,C,4
3,prac,1,1.0,1-Back,1.0,z,Tue Feb 03 2026 16:16:39 GMT-0600 (Central Standard Time),161447.5,092_m_m_n_a.png,I,z,813,6,,1573.6999998092651,159873.80000019073,9999,NNB,C,5
4,prac,1,0.0,1-Back,1.0,m,Tue Feb 03 2026 16:16:39 GMT-0600 (Central Standard Time),163097.30000019073,130_o_f_n_a.png,I,m,802,7,,1640.8000001907349,161456.5,9999,NNB,C,6
5,prac,1,0.0,1-Back,1.0,m,Tue Feb 03 2026 16:16:39 GMT-0600 (Central Standard Time),165396.30000019073,082_m_m_n_a.png,I,m,1442,8,,2290.9000000953674,163105.40000009537,9999,NNB,C,7
6,prac,1,0.0,1-Back,1.0,m,Tue Feb 03 2026 16:16:39 GMT-0600 (Central Standard Time),166895.19999980927,093_m_f_n_a.png,I,m,723,9,,1489.7999997138977,165405.40000009537,9999,NNB,C,8
7,prac,1,1.0,1-Back,1.0,z,Tue Feb 03 2026 16:16:39 GMT-0600 (Central Standard Time),168178.19999980927,093_m_f_n_a.png,I,z,494,10,,1273.6999998092651,166904.5,9999,NNB,C,9
8,prac,1,0.0,1-Back,1.0,m,Tue Feb 03 2026 16:16:39 GMT-0600 (Central Standard Time),169676.40000009537,059_o_m_n_a.png,I,m,709,11,,1490.8000001907349,168185.59999990463,9999,NNB,C,10
9,prac,1,0.0,1-Back,1.0,m,Tue Feb 03 2026 16:16:39 GMT-0600 (Central Standard Time),171477.30000019073,028_y_f_n_a.png,I,m,955,12,,1792.6000003814697,169684.69999980927,9999,NNB,C,11
0,test,1,0.0,1-Back,,,Tue Feb 03 2026 16:16:39 GMT-0600 (Central Standard Time),171477.30000019073,098_y_f_n_a.png,I,space,1604,1,,1792.6000003814697,169684.69999980927,9999,NNB,C,0
1,test,1,0.0,1-Back,1.0,m,Tue Feb 03 2026 16:16:39 GMT-0600 (Central Standard Time),181973.80000019073,006_m_f_n_a.png,I,m,759,2,,1776.9000000953674,180196.90000009537,9999,NNB,C,1
2,test,1,0.0,1-Back,1.0,m,Tue Feb 03 2026 16:16:39 GMT-0600 (Central Standard Time),183722.90000009537,028_y_f_n_a.png,I,m,720,3,,1741.4000000953674,181981.5,9999,NNB,C,2
3,test,1,1.0,1-Back,1.0,z,Tue Feb 03 2026 16:16:39 GMT-0600 (Central Standard Time),185189.0,028_y_f_n_a.png,I,z,436,4,,1459.3000001907349,183729.69999980927,9999,NNB,C,3
4,test,1,0.0,1-Back,1.0,m,Tue Feb 03 2026 16:16:39 GMT-0600 (Central Standard Time),186921.0,006_m_f_n_a.png,I,m,705,5,,1725.0,185196.0,9999,NNB,C,4
5,test,1,0.0,1-Back,1.0,m,Tue Feb 03 2026 16:16:39 GMT-0600 (Central Standard Time),188587.80000019073,059_o_m_n_a.png,I,m,645,6,,1661.8000001907349,186926.0,9999,NNB,C,5
6,test,1,1.0,1-Back,1.0,z,Tue Feb 03 2026 16:16:39 GMT-0600 (Central Standard Time),190038.5,059_o_m_n_a.png,I,z,418,7,,1443.9000000953674,188594.59999990463,9999,NNB,C,6
7,test,1,0.0,1-Back,1.0,m,Tue Feb 03 2026 16:16:39 GMT-0600 (Central Standard Time),191703.69999980927,092_m_m_n_a.png,I,m,641,8,,1661.6999998092651,190042.0,9999,NNB,C,7
8,test,1,0.0,1-Back,1.0,m,Tue Feb 03 2026 16:16:39 GMT-0600 (Central Standard Time),193536.09999990463,130_o_f_n_a.png,I,m,806,9,,1826.7999997138977,191709.30000019073,9999,NNB,C,8
9,test,1,0.0,1-Back,1.0,m,Tue Feb 03 2026 16:16:39 GMT-0600 (Central Standard Time),195485.69999980927,092_m_m_n_a.png,I,m,917,10,,1942.2999997138977,193543.40000009537,9999,NNB,C,9
10,test,1,0.0,1-Back,1.0,m,Tue Feb 03 2026 16:16:39 GMT-0600 (Central Standard Time),197051.80000019073,057_y_m_n_a.png,I,m,534,11,,1559.1000003814697,195492.69999980927,9999,NNB,C,10
11,test,1,1.0,1-Back,1.0,z,Tue Feb 03 2026 16:16:39 GMT-0600 (Central Standard Time),198484.09999990463,057_y_m_n_a.png,I,z,412,12,,1428.0999999046326,197056.0,9999,NNB,C,11
12,test,1,0.0,1-Back,1.0,m,Tue Feb 03 2026 16:16:39 GMT-0600 (Central Standard Time),200152.5,030_o_f_n_a.png,I,m,632,13,,1660.4000000953674,198492.09999990463,9999,NNB,C,12
13,test,1,1.0,1-Back,1.0,z,Tue Feb 03 2026 16:16:39 GMT-0600 (Central Standard Time),201820.19999980927,030_o_f_n_a.png,I,z,640,14,,1660.5999999046326,200159.59999990463,9999,NNB,C,13
14,test,1,0.0,1-Back,1.0,m,Tue Feb 03 2026 16:16:39 GMT-0600 (Central Standard Time),203517.5,031_y_m_n_a.png,I,m,669,15,,1692.5999999046326,201824.90000009537,9999,NNB,C,14
15,test,1,0.0,1-Back,1.0,m,Tue Feb 03 2026 16:16:39 GMT-0600 (Central Standard Time),205099.09999990463,093_m_f_n_a.png,I,m,552,16,,1573.4000000953674,203525.69999980927,9999,NNB,C,15
16,test,1,0.0,1-Back,1.0,m,Tue Feb 03 2026 16:16:39 GMT-0600 (Central Standard Time),206631.59999990463,146_o_m_n_a.png,I,m,506,17,,1525.7999997138977,205105.80000019073,9999,NNB,C,16
17,test,1,0.0,1-Back,1.0,m,Tue Feb 03 2026 16:16:39 GMT-0600 (Central Standard Time),208681.5,093_m_f_n_a.png,I,m,1020,18,,2043.0999999046326,206638.40000009537,9999,NNB,C,17
0,test,2,0.0,1-Back,,,Tue Feb 03 2026 16:16:39 GMT-0600 (Central Standard Time),208681.5,092_m_m_n_a.png,I,space,1677,1,,2043.0999999046326,206638.40000009537,9999,NNB,C,0
1,test,2,0.0,1-Back,1.0,m,Tue Feb 03 2026 16:16:39 GMT-0600 (Central Standard Time),214063.40000009537,006_m_f_n_a.png,I,m,664,2,,1675.3000001907349,212388.09999990463,9999,NNB,C,1
1,test,2,1.0,1-Back,0.0,z,Tue Feb 03 2026 16:16:39 GMT-0600 (Central Standard Time),215679.59999990463,006_m_f_n_a.png,I,m,598,3,,1610.5,214069.09999990463,9999,NNB,C,2
2,test,2,0.0,1-Back,1.0,m,Tue Feb 03 2026 16:16:39 GMT-0600 (Central Standard Time),217261.90000009537,092_m_m_n_a.png,I,m,559,4,,1578.8000001907349,215683.09999990463,9999,NNB,C,3
3,test,2,0.0,1-Back,1.0,m,Tue Feb 03 2026 16:16:39 GMT-0600 (Central Standard Time),218761.80000019073,057_y_m_n_a.png,I,m,471,5,,1491.8000001907349,217270.0,9999,NNB,C,4
4,test,2,0.0,1-Back,1.0,m,Tue Feb 03 2026 16:16:39 GMT-0600 (Central Standard Time),220245.0,098_y_f_n_a.png,I,m,461,6,,1476.0,218769.0,9999,NNB,C,5
5,test,2,1.0,1-Back,1.0,z,Tue Feb 03 2026 16:16:39 GMT-0600 (Central Standard Time),221977.5,098_y_f_n_a.png,I,z,699,7,,1726.0999999046326,220251.40000009537,9999,NNB,C,6
6,test,2,0.0,1-Back,1.0,m,Tue Feb 03 2026 16:16:39 GMT-0600 (Central Standard Time),223659.19999980927,057_y_m_n_a.png,I,m,651,8,,1674.7999997138977,221984.40000009537,9999,NNB,C,7
7,test,2,0.0,1-Back,1.0,m,Tue Feb 03 2026 16:16:39 GMT-0600 (Central Standard Time),226041.69999980927,030_o_f_n_a.png,I,m,1362,9,,2375.8999996185303,223665.80000019073,9999,NNB,C,8
8,test,2,0.0,1-Back,1.0,m,Tue Feb 03 2026 16:16:39 GMT-0600 (Central Standard Time),227509.19999980927,082_m_m_n_a.png,I,m,438,10,,1460.5,226048.69999980927,9999,NNB,C,9
8,test,2,1.0,1-Back,0.0,z,Tue Feb 03 2026 16:16:39 GMT-0600 (Central Standard Time),228992.0,082_m_m_n_a.png,I,m,450,11,,1476.9000000953674,227515.09999990463,9999,NNB,C,10
9,test,2,0.0,1-Back,1.0,m,Tue Feb 03 2026 16:16:39 GMT-0600 (Central Standard Time),230457.59999990463,030_o_f_n_a.png,I,m,438,12,,1458.0,228999.59999990463,9999,NNB,C,11
10,test,2,0.0,1-Back,1.0,m,Tue Feb 03 2026 16:16:39 GMT-0600 (Central Standard Time),232058.19999980927,130_o_f_n_a.png,I,m,582,13,,1596.6999998092651,230461.5,9999,NNB,C,12
11,test,2,0.0,1-Back,1.0,m,Tue Feb 03 2026 16:16:39 GMT-0600 (Central Standard Time),233590.0,059_o_m_n_a.png,I,m,509,14,,1525.8000001907349,232064.19999980927,9999,NNB,C,13
12,test,2,0.0,1-Back,1.0,m,Tue Feb 03 2026 16:16:39 GMT-0600 (Central Standard Time),235057.19999980927,146_o_m_n_a.png,I,m,449,15,,1457.5,233599.69999980927,9999,NNB,C,14
13,test,2,1.0,1-Back,1.0,z,Tue Feb 03 2026 16:16:39 GMT-0600 (Central Standard Time),236590.5,146_o_m_n_a.png,I,z,503,16,,1526.9000000953674,235063.59999990463,9999,NNB,C,15
14,test,2,0.0,1-Back,1.0,m,Tue Feb 03 2026 16:16:39 GMT-0600 (Central Standard Time),238238.59999990463,031_y_m_n_a.png,I,m,632,17,,1641.1999998092651,236597.40000009537,9999,NNB,C,16
15,test,2,1.0,1-Back,1.0,z,Tue Feb 03 2026 16:16:39 GMT-0600 (Central Standard Time),239991.09999990463,031_y_m_n_a.png,I,z,720,18,,1746.9000000953674,238244.19999980927,9999,NNB,C,17
0,test,3,1.0,1-Back,,,Tue Feb 03 2026 16:16:39 GMT-0600 (Central Standard Time),239991.09999990463,028_y_f_n_a.png,I,space,1095,1,,1746.9000000953674,238244.19999980927,9999,NNB,C,0
1,test,3,0.0,1-Back,1.0,m,Tue Feb 03 2026 16:16:39 GMT-0600 (Central Standard Time),244836.5,146_o_m_n_a.png,I,m,636,1,,1658.0,243178.5,9999,NNB,C,1
2,test,3,1.0,1-Back,1.0,z,Tue Feb 03 2026 16:16:39 GMT-0600 (Central Standard Time),246452.69999980927,146_o_m_n_a.png,I,z,592,1,,1610.1999998092651,244842.5,9999,NNB,C,2
3,test,3,0.0,1-Back,1.0,m,Tue Feb 03 2026 16:16:39 GMT-0600 (Central Standard Time),248119.40000009537,093_m_f_n_a.png,I,m,649,1,,1660.3000001907349,246459.09999990463,9999,NNB,C,3
4,test,3,1.0,1-Back,1.0,z,Tue Feb 03 2026 16:16:39 GMT-0600 (Central Standard Time),249801.69999980927,093_m_f_n_a.png,I,z,655,1,,1674.5,248127.19999980927,9999,NNB,C,4
5,test,3,0.0,1-Back,1.0,m,Tue Feb 03 2026 16:16:39 GMT-0600 (Central Standard Time),251535.80000019073,030_o_f_n_a.png,I,m,707,1,,1727.8000001907349,249808.0,9999,NNB,C,5
6,test,3,0.0,1-Back,1.0,m,Tue Feb 03 2026 16:16:39 GMT-0600 (Central Standard Time),253083.80000019073,057_y_m_n_a.png,I,m,518,1,,1540.8000001907349,251543.0,9999,NNB,C,6
7,test,3,0.0,1-Back,1.0,m,Tue Feb 03 2026 16:16:39 GMT-0600 (Central Standard Time),254533.80000019073,030_o_f_n_a.png,I,m,418,1,,1444.0,253089.80000019073,9999,NNB,C,7
8,test,3,0.0,1-Back,1.0,m,Tue Feb 03 2026 16:16:39 GMT-0600 (Central Standard Time),256250.09999990463,031_y_m_n_a.png,I,m,688,1,,1709.0,254541.09999990463,9999,NNB,C,8
9,test,3,1.0,1-Back,1.0,z,Tue Feb 03 2026 16:16:39 GMT-0600 (Central Standard Time),257751.09999990463,031_y_m_n_a.png,I,z,476,1,,1494.9000000953674,256256.19999980927,9999,NNB,C,9
10,test,3,0.0,1-Back,1.0,m,Tue Feb 03 2026 16:16:39 GMT-0600 (Central Standard Time),259348.40000009537,006_m_f_n_a.png,I,m,568,1,,1591.9000000953674,257756.5,9999,NNB,C,10
11,test,3,0.0,1-Back,1.0,m,Tue Feb 03 2026 16:16:39 GMT-0600 (Central Standard Time),260964.5,098_y_f_n_a.png,I,m,584,1,,1611.4000000953674,259353.09999990463,9999,NNB,C,11
12,test,3,1.0,1-Back,1.0,z,Tue Feb 03 2026 16:16:39 GMT-0600 (Central Standard Time),262330.90000009537,098_y_f_n_a.png,I,z,347,1,,1360.7000002861023,260970.19999980927,9999,NNB,C,12
13,test,3,0.0,1-Back,1.0,m,Tue Feb 03 2026 16:16:39 GMT-0600 (Central Standard Time),264180.19999980927,006_m_f_n_a.png,I,m,818,1,,1842.0,262338.19999980927,9999,NNB,C,13
14,test,3,0.0,1-Back,1.0,m,Tue Feb 03 2026 16:16:39 GMT-0600 (Central Standard Time),265913.19999980927,092_m_m_n_a.png,I,m,715,1,,1726.5,264186.69999980927,9999,NNB,C,14
15,test,3,1.0,1-Back,1.0,z,Tue Feb 03 2026 16:16:39 GMT-0600 (Central Standard Time),267279.0,092_m_m_n_a.png,I,z,333,1,,1362.0999999046326,265916.90000009537,9999,NNB,C,15
16,test,3,0.0,1-Back,1.0,m,Tue Feb 03 2026 16:16:39 GMT-0600 (Central Standard Time),268896.19999980927,130_o_f_n_a.png,I,m,592,1,,1611.2999997138977,267284.90000009537,9999,NNB,C,16
17,test,3,1.0,1-Back,1.0,z,Tue Feb 03 2026 16:16:39 GMT-0600 (Central Standard Time),270529.30000019073,130_o_f_n_a.png,I,z,616,1,,1626.9000000953674,268902.40000009537,9999,NNB,C,17
0,test,4,1.0,1-Back,,,Tue Feb 03 2026 16:16:39 GMT-0600 (Central Standard Time),270529.30000019073,093_m_f_n_a.png,I,space,1701,1,,1626.9000000953674,268902.40000009537,9999,NNB,C,0
1,test,4,0.0,1-Back,1.0,m,Tue Feb 03 2026 16:16:39 GMT-0600 (Central Standard Time),275877.19999980927,146_o_m_n_a.png,I,m,527,2,,1544.3999996185303,274332.80000019073,9999,NNB,C,1
2,test,4,0.0,1-Back,1.0,m,Tue Feb 03 2026 16:16:39 GMT-0600 (Central Standard Time),277308.90000009537,093_m_f_n_a.png,I,m,410,3,,1425.5999999046326,275883.30000019073,9999,NNB,C,2
3,test,4,0.0,1-Back,1.0,m,Tue Feb 03 2026 16:16:39 GMT-0600 (Central Standard Time),278758.90000009537,030_o_f_n_a.png,I,m,417,4,,1443.3000001907349,277315.59999990463,9999,NNB,C,3
4,test,4,1.0,1-Back,1.0,z,Tue Feb 03 2026 16:16:39 GMT-0600 (Central Standard Time),280226.09999990463,030_o_f_n_a.png,I,z,439,5,,1462.7999997138977,278763.30000019073,9999,NNB,C,4
5,test,4,0.0,1-Back,1.0,m,Tue Feb 03 2026 16:16:39 GMT-0600 (Central Standard Time),281792.40000009537,098_y_f_n_a.png,I,m,550,6,,1561.0999999046326,280231.30000019073,9999,NNB,C,5
6,test,4,0.0,1-Back,1.0,m,Tue Feb 03 2026 16:16:39 GMT-0600 (Central Standard Time),283258.30000019073,057_y_m_n_a.png,I,m,439,7,,1459.6000003814697,281798.69999980927,9999,NNB,C,6
7,test,4,1.0,1-Back,1.0,z,Tue Feb 03 2026 16:16:39 GMT-0600 (Central Standard Time),284624.5,057_y_m_n_a.png,I,z,350,8,,1362.3000001907349,283262.19999980927,9999,NNB,C,7
8,test,4,0.0,1-Back,1.0,m,Tue Feb 03 2026 16:16:39 GMT-0600 (Central Standard Time),286226.0,098_y_f_n_a.png,I,m,568,9,,1598.5999999046326,284627.40000009537,9999,NNB,C,8
9,test,4,0.0,1-Back,1.0,m,Tue Feb 03 2026 16:16:39 GMT-0600 (Central Standard Time),288006.0,082_m_m_n_a.png,I,m,759,10,,1773.6999998092651,286232.30000019073,9999,NNB,C,9
10,test,4,1.0,1-Back,1.0,z,Tue Feb 03 2026 16:16:39 GMT-0600 (Central Standard Time),289557.09999990463,082_m_m_n_a.png,I,z,529,11,,1545.2999997138977,288011.80000019073,9999,NNB,C,10
11,test,4,0.0,1-Back,1.0,m,Tue Feb 03 2026 16:16:39 GMT-0600 (Central Standard Time),291071.0,130_o_f_n_a.png,I,m,492,12,,1507.0,289564.0,9999,NNB,C,11
12,test,4,0.0,1-Back,1.0,m,Tue Feb 03 2026 16:16:39 GMT-0600 (Central Standard Time),292587.90000009537,059_o_m_n_a.png,I,m,486,13,,1511.3000001907349,291076.59999990463,9999,NNB,C,12
13,test,4,0.0,1-Back,1.0,m,Tue Feb 03 2026 16:16:39 GMT-0600 (Central Standard Time),294188.30000019073,130_o_f_n_a.png,I,m,569,14,,1594.3000001907349,292594.0,9999,NNB,C,13
14,test,4,0.0,1-Back,1.0,m,Tue Feb 03 2026 16:16:39 GMT-0600 (Central Standard Time),295653.69999980927,028_y_f_n_a.png,I,m,435,15,,1457.6999998092651,294196.0,9999,NNB,C,14
14,test,4,1.0,1-Back,0.0,z,Tue Feb 03 2026 16:16:39 GMT-0600 (Central Standard Time),297318.90000009537,028_y_f_n_a.png,I,m,633,16,,1657.0999999046326,295661.80000019073,9999,NNB,C,15
15,test,4,0.0,1-Back,1.0,m,Tue Feb 03 2026 16:16:39 GMT-0600 (Central Standard Time),298837.80000019073,006_m_f_n_a.png,I,m,495,17,,1513.8000001907349,297324.0,9999,NNB,C,16
15,test,4,1.0,1-Back,0.0,z,Tue Feb 03 2026 16:16:39 GMT-0600 (Central Standard Time),300618.19999980927,006_m_f_n_a.png,I,m,755,18,,1777.0999999046326,298841.09999990463,9999,NNB,C,17
0,test,5,1.0,1-Back,,,Tue Feb 03 2026 16:16:39 GMT-0600 (Central Standard Time),300618.19999980927,059_o_m_n_a.png,I,space,756,1,,1777.0999999046326,298841.09999990463,9999,NNB,C,0
1,test,5,1.0,1-Back,1.0,z,Tue Feb 03 2026 16:16:39 GMT-0600 (Central Standard Time),304818.80000019073,059_o_m_n_a.png,I,z,383,2,,1414.0,303404.80000019073,9999,NNB,C,1
2,test,5,0.0,1-Back,1.0,m,Tue Feb 03 2026 16:16:39 GMT-0600 (Central Standard Time),306235.5,098_y_f_n_a.png,I,m,397,3,,1412.5,304823.0,9999,NNB,C,2
3,test,5,0.0,1-Back,1.0,m,Tue Feb 03 2026 16:16:39 GMT-0600 (Central Standard Time),307768.09999990463,057_y_m_n_a.png,I,m,509,4,,1526.7999997138977,306241.30000019073,9999,NNB,C,3
4,test,5,0.0,1-Back,1.0,m,Tue Feb 03 2026 16:16:39 GMT-0600 (Central Standard Time),309133.30000019073,098_y_f_n_a.png,I,m,338,5,,1360.0,307773.30000019073,9999,NNB,C,4
5,test,5,0.0,1-Back,1.0,m,Tue Feb 03 2026 16:16:39 GMT-0600 (Central Standard Time),310650.0,092_m_m_n_a.png,I,m,483,6,,1511.8000001907349,309138.19999980927,9999,NNB,C,5
6,test,5,1.0,1-Back,1.0,z,Tue Feb 03 2026 16:16:39 GMT-0600 (Central Standard Time),311981.40000009537,092_m_m_n_a.png,I,z,308,7,,1321.9000000953674,310659.5,9999,NNB,C,6
7,test,5,0.0,1-Back,1.0,m,Tue Feb 03 2026 16:16:39 GMT-0600 (Central Standard Time),313465.30000019073,028_y_f_n_a.png,I,m,454,8,,1479.3000001907349,311986.0,9999,NNB,C,7
8,test,5,0.0,1-Back,1.0,m,Tue Feb 03 2026 16:16:39 GMT-0600 (Central Standard Time),314882.40000009537,031_y_m_n_a.png,I,m,385,9,,1412.3000001907349,313470.09999990463,9999,NNB,C,8
9,test,5,0.0,1-Back,1.0,m,Tue Feb 03 2026 16:16:39 GMT-0600 (Central Standard Time),316316.30000019073,028_y_f_n_a.png,I,m,404,10,,1429.5,314886.80000019073,9999,NNB,C,9
10,test,5,0.0,1-Back,1.0,m,Tue Feb 03 2026 16:16:39 GMT-0600 (Central Standard Time),317848.90000009537,130_o_f_n_a.png,I,m,519,11,,1529.0999999046326,316319.80000019073,9999,NNB,C,10
11,test,5,1.0,1-Back,1.0,z,Tue Feb 03 2026 16:16:39 GMT-0600 (Central Standard Time),319530.0,130_o_f_n_a.png,I,z,656,12,,1675.8000001907349,317854.19999980927,9999,NNB,C,11
12,test,5,0.0,1-Back,1.0,m,Tue Feb 03 2026 16:16:39 GMT-0600 (Central Standard Time),321015.90000009537,146_o_m_n_a.png,I,m,460,13,,1480.7000002861023,319535.19999980927,9999,NNB,C,12
13,test,5,0.0,1-Back,1.0,m,Tue Feb 03 2026 16:16:39 GMT-0600 (Central Standard Time),322446.40000009537,093_m_f_n_a.png,I,m,408,14,,1425.7000002861023,321020.69999980927,9999,NNB,C,13
14,test,5,1.0,1-Back,1.0,z,Tue Feb 03 2026 16:16:39 GMT-0600 (Central Standard Time),323962.59999990463,093_m_f_n_a.png,I,z,499,15,,1508.6999998092651,322453.90000009537,9999,NNB,C,14
15,test,5,0.0,1-Back,1.0,m,Tue Feb 03 2026 16:16:39 GMT-0600 (Central Standard Time),325594.59999990463,146_o_m_n_a.png,I,m,605,16,,1626.2999997138977,323968.30000019073,9999,NNB,C,15
16,test,5,0.0,1-Back,1.0,m,Tue Feb 03 2026 16:16:39 GMT-0600 (Central Standard Time),327110.09999990463,006_m_f_n_a.png,I,m,491,17,,1508.5,325601.59999990463,9999,NNB,C,16
17,test,5,0.0,1-Back,1.0,m,Tue Feb 03 2026 16:16:39 GMT-0600 (Central Standard Time),328560.0,082_m_m_n_a.png,I,m,424,18,,1445.4000000953674,327114.59999990463,9999,NNB,C,17
0,prac,1,0.0,2-Back,,,Tue Feb 03 2026 16:16:39 GMT-0600 (Central Standard Time),328560.0,031_y_m_n_a.png,I,space,2406,1,,1445.4000000953674,327114.59999990463,9999,NNB,C,0
0,prac,1,0.0,2-Back,,,Tue Feb 03 2026 16:16:39 GMT-0600 (Central Standard Time),328560.0,006_m_f_n_a.png,I,space,2406,2,,1445.4000000953674,327114.59999990463,9999,NNB,C,0
1,prac,1,1.0,2-Back,1.0,m,Tue Feb 03 2026 16:16:39 GMT-0600 (Central Standard Time),411334.69999980927,146_o_m_n_a.png,I,m,830,3,,1689.0,409645.69999980927,9999,NNB,C,1
2,prac,1,0.0,2-Back,1.0,m,Tue Feb 03 2026 16:16:39 GMT-0600 (Central Standard Time),412884.5,130_o_f_n_a.png,I,m,685,4,,1542.6999998092651,411341.80000019073,9999,NNB,C,2
3,prac,1,0.0,2-Back,1.0,z,Tue Feb 03 2026 16:16:39 GMT-0600 (Central Standard Time),414516.80000019073,146_o_m_n_a.png,I,z,865,5,,1622.9000000953674,412893.90000009537,9999,NNB,C,3
4,prac,1,1.0,2-Back,1.0,z,Tue Feb 03 2026 16:16:39 GMT-0600 (Central Standard Time),416331.69999980927,130_o_f_n_a.png,I,z,1025,6,,1806.1999998092651,414525.5,9999,NNB,C,4
5,prac,1,0.0,2-Back,1.0,m,Tue Feb 03 2026 16:16:39 GMT-0600 (Central Standard Time),417932.5,082_m_m_n_a.png,I,m,811,7,,1593.0,416339.5,9999,NNB,C,5
6,prac,1,0.0,2-Back,1.0,m,Tue Feb 03 2026 16:16:39 GMT-0600 (Central Standard Time),419597.5,059_o_m_n_a.png,I,m,802,8,,1656.5999999046326,417940.90000009537,9999,NNB,C,6
7,prac,1,0.0,2-Back,1.0,m,Tue Feb 03 2026 16:16:39 GMT-0600 (Central Standard Time),421463.90000009537,028_y_f_n_a.png,I,m,1018,9,,1859.0999999046326,419604.80000019073,9999,NNB,C,7
8,prac,1,1.0,2-Back,1.0,z,Tue Feb 03 2026 16:16:39 GMT-0600 (Central Standard Time),422946.80000019073,059_o_m_n_a.png,I,z,717,10,,1474.0,421472.80000019073,9999,NNB,C,8
9,prac,1,0.0,2-Back,1.0,m,Tue Feb 03 2026 16:16:39 GMT-0600 (Central Standard Time),424729.5,098_y_f_n_a.png,I,m,938,11,,1774.9000000953674,422954.59999990463,9999,NNB,C,9
10,prac,1,0.0,2-Back,1.0,m,Tue Feb 03 2026 16:16:39 GMT-0600 (Central Standard Time),426329.69999980927,082_m_m_n_a.png,I,m,817,12,,1593.6999998092651,424736.0,9999,NNB,C,10
0,test,1,0.0,2-Back,,,Tue Feb 03 2026 16:16:39 GMT-0600 (Central Standard Time),426329.69999980927,057_y_m_n_a.png,I,space,1740,1,,1593.6999998092651,424736.0,9999,NNB,C,0
0,test,1,0.0,2-Back,,,Tue Feb 03 2026 16:16:39 GMT-0600 (Central Standard Time),426329.69999980927,057_y_m_n_a.png,I,space,1740,2,,1593.6999998092651,424736.0,9999,NNB,C,0
1,test,1,0.0,2-Back,1.0,m,Tue Feb 03 2026 16:16:39 GMT-0600 (Central Standard Time),441907.30000019073,130_o_f_n_a.png,I,m,804,3,,1825.8000001907349,440081.5,9999,NNB,C,1
2,test,1,0.0,2-Back,1.0,m,Tue Feb 03 2026 16:16:39 GMT-0600 (Central Standard Time),443690.19999980927,092_m_m_n_a.png,I,m,749,4,,1776.5,441913.69999980927,9999,NNB,C,2
3,test,1,1.0,2-Back,1.0,z,Tue Feb 03 2026 16:16:39 GMT-0600 (Central Standard Time),445289.80000019073,130_o_f_n_a.png,I,z,572,5,,1593.2000002861023,443696.59999990463,9999,NNB,C,3
4,test,1,0.0,2-Back,1.0,m,Tue Feb 03 2026 16:16:39 GMT-0600 (Central Standard Time),447021.5,098_y_f_n_a.png,I,m,708,6,,1725.5,445296.0,9999,NNB,C,4
4,test,1,0.0,2-Back,0.0,m,Tue Feb 03 2026 16:16:39 GMT-0600 (Central Standard Time),448838.09999990463,092_m_m_n_a.png,I,z,793,7,,1813.9000000953674,447024.19999980927,9999,NNB,C,5
5,test,1,1.0,2-Back,1.0,z,Tue Feb 03 2026 16:16:39 GMT-0600 (Central Standard Time),451286.90000009537,098_y_f_n_a.png,I,z,1423,8,,2446.0,448840.90000009537,9999,NNB,C,6
6,test,1,0.0,2-Back,1.0,m,Tue Feb 03 2026 16:16:39 GMT-0600 (Central Standard Time),453237.30000019073,031_y_m_n_a.png,I,m,919,9,,1947.6000003814697,451289.69999980927,9999,NNB,C,7
6,test,1,0.0,2-Back,0.0,m,Tue Feb 03 2026 16:16:39 GMT-0600 (Central Standard Time),456253.90000009537,030_o_f_n_a.png,I,None,2002,10,,3012.9000000953674,453241.0,9999,NNB,C,8
7,test,1,1.0,2-Back,1.0,z,Tue Feb 03 2026 16:16:39 GMT-0600 (Central Standard Time),458468.5,031_y_m_n_a.png,I,z,1186,11,,2208.199999809265,456260.30000019073,9999,NNB,C,9
8,test,1,0.0,2-Back,1.0,m,Tue Feb 03 2026 16:16:39 GMT-0600 (Central Standard Time),460151.40000009537,006_m_f_n_a.png,I,m,657,12,,1674.2000002861023,458477.19999980927,9999,NNB,C,10
9,test,1,0.0,2-Back,1.0,m,Tue Feb 03 2026 16:16:39 GMT-0600 (Central Standard Time),462366.30000019073,006_m_f_n_a.png,I,m,1190,13,,2206.300000190735,460160.0,9999,NNB,C,11
10,test,1,0.0,2-Back,1.0,m,Tue Feb 03 2026 16:16:39 GMT-0600 (Central Standard Time),464783.30000019073,146_o_m_n_a.png,I,m,1383,14,,2411.0,462372.30000019073,9999,NNB,C,12
11,test,1,0.0,2-Back,1.0,m,Tue Feb 03 2026 16:16:39 GMT-0600 (Central Standard Time),466517.09999990463,030_o_f_n_a.png,I,m,711,15,,1724.2999997138977,464792.80000019073,9999,NNB,C,13
11,test,1,1.0,2-Back,0.0,z,Tue Feb 03 2026 16:16:39 GMT-0600 (Central Standard Time),468617.30000019073,146_o_m_n_a.png,I,m,1072,16,,2092.1000003814697,466525.19999980927,9999,NNB,C,14
11,test,1,0.0,2-Back,0.0,m,Tue Feb 03 2026 16:16:39 GMT-0600 (Central Standard Time),471648.09999990463,093_m_f_n_a.png,I,None,2015,17,,3022.4000000953674,468625.69999980927,9999,NNB,C,15
12,test,1,0.0,2-Back,1.0,m,Tue Feb 03 2026 16:16:39 GMT-0600 (Central Standard Time),473480.30000019073,082_m_m_n_a.png,I,m,816,18,,1824.2000002861023,471656.09999990463,9999,NNB,C,16
0,test,2,0.0,2-Back,,,Tue Feb 03 2026 16:16:39 GMT-0600 (Central Standard Time),473480.30000019073,082_m_m_n_a.png,I,space,1279,1,,1824.2000002861023,471656.09999990463,9999,NNB,C,0
0,test,2,0.0,2-Back,,,Tue Feb 03 2026 16:16:39 GMT-0600 (Central Standard Time),473480.30000019073,028_y_f_n_a.png,I,space,1279,2,,1824.2000002861023,471656.09999990463,9999,NNB,C,0
0,test,2,1.0,2-Back,0.0,z,Tue Feb 03 2026 16:16:39 GMT-0600 (Central Standard Time),482911.69999980927,082_m_m_n_a.png,I,None,2018,3,,3025.699999809265,479886.0,9999,NNB,C,1
1,test,2,0.0,2-Back,1.0,m,Tue Feb 03 2026 16:16:39 GMT-0600 (Central Standard Time),484843.30000019073,093_m_f_n_a.png,I,m,912,4,,1923.8000001907349,482919.5,9999,NNB,C,2
2,test,2,0.0,2-Back,1.0,m,Tue Feb 03 2026 16:16:39 GMT-0600 (Central Standard Time),487076.19999980927,028_y_f_n_a.png,I,m,1211,5,,2225.8999996185303,484850.30000019073,9999,NNB,C,3
3,test,2,0.0,2-Back,1.0,m,Tue Feb 03 2026 16:16:39 GMT-0600 (Central Standard Time),488960.59999990463,146_o_m_n_a.png,I,m,858,6,,1878.2999997138977,487082.30000019073,9999,NNB,C,4
4,test,2,0.0,2-Back,1.0,m,Tue Feb 03 2026 16:16:39 GMT-0600 (Central Standard Time),490624.19999980927,098_y_f_n_a.png,I,m,638,7,,1655.3999996185303,488968.80000019073,9999,NNB,C,5
5,test,2,1.0,2-Back,1.0,z,Tue Feb 03 2026 16:16:39 GMT-0600 (Central Standard Time),492290.80000019073,146_o_m_n_a.png,I,z,645,8,,1660.4000000953674,490630.40000009537,9999,NNB,C,6
6,test,2,0.0,2-Back,1.0,m,Tue Feb 03 2026 16:16:39 GMT-0600 (Central Standard Time),494192.40000009537,031_y_m_n_a.png,I,m,869,9,,1893.9000000953674,492298.5,9999,NNB,C,7
7,test,2,0.0,2-Back,1.0,m,Tue Feb 03 2026 16:16:39 GMT-0600 (Central Standard Time),496057.59999990463,031_y_m_n_a.png,I,m,835,10,,1858.0,494199.59999990463,9999,NNB,C,8
8,test,2,0.0,2-Back,1.0,m,Tue Feb 03 2026 16:16:39 GMT-0600 (Central Standard Time),498338.0,006_m_f_n_a.png,I,m,1262,11,,2273.300000190735,496064.69999980927,9999,NNB,C,9
9,test,2,0.0,2-Back,1.0,m,Tue Feb 03 2026 16:16:39 GMT-0600 (Central Standard Time),500640.80000019073,028_y_f_n_a.png,I,m,1285,12,,2296.1000003814697,498344.69999980927,9999,NNB,C,10
10,test,2,1.0,2-Back,1.0,z,Tue Feb 03 2026 16:16:39 GMT-0600 (Central Standard Time),502338.5,006_m_f_n_a.png,I,z,671,13,,1691.0,500647.5,9999,NNB,C,11
11,test,2,0.0,2-Back,1.0,m,Tue Feb 03 2026 16:16:39 GMT-0600 (Central Standard Time),504404.09999990463,059_o_m_n_a.png,I,m,1036,14,,2062.2999997138977,502341.80000019073,9999,NNB,C,12
12,test,2,0.0,2-Back,1.0,m,Tue Feb 03 2026 16:16:39 GMT-0600 (Central Standard Time),506586.5,059_o_m_n_a.png,I,m,1152,15,,2178.5999999046326,504407.90000009537,9999,NNB,C,13
13,test,2,0.0,2-Back,1.0,m,Tue Feb 03 2026 16:16:39 GMT-0600 (Central Standard Time),508367.69999980927,030_o_f_n_a.png,I,m,764,16,,1777.2999997138977,506590.40000009537,9999,NNB,C,14
14,test,2,0.0,2-Back,1.0,m,Tue Feb 03 2026 16:16:39 GMT-0600 (Central Standard Time),510218.09999990463,092_m_m_n_a.png,I,m,820,17,,1847.5999999046326,508370.5,9999,NNB,C,15
15,test,2,1.0,2-Back,1.0,z,Tue Feb 03 2026 16:16:39 GMT-0600 (Central Standard Time),511968.69999980927,030_o_f_n_a.png,I,z,731,18,,1748.0999999046326,510220.59999990463,9999,NNB,C,16
0,test,3,1.0,2-Back,,,Tue Feb 03 2026 16:16:39 GMT-0600 (Central Standard Time),511968.69999980927,057_y_m_n_a.png,I,space,878,1,,1748.0999999046326,510220.59999990463,9999,NNB,C,0
0,test,3,1.0,2-Back,,,Tue Feb 03 2026 16:16:39 GMT-0600 (Central Standard Time),511968.69999980927,057_y_m_n_a.png,I,space,878,2,,1748.0999999046326,510220.59999990463,9999,NNB,C,0
1,test,3,0.0,2-Back,1.0,m,Tue Feb 03 2026 16:16:39 GMT-0600 (Central Standard Time),519832.69999980927,030_o_f_n_a.png,I,m,834,3,,1857.7999997138977,517974.90000009537,9999,NNB,C,1
2,test,3,0.0,2-Back,1.0,m,Tue Feb 03 2026 16:16:39 GMT-0600 (Central Standard Time),521515.30000019073,082_m_m_n_a.png,I,m,663,4,,1673.2000002861023,519842.09999990463,9999,NNB,C,2
3,test,3,1.0,2-Back,1.0,z,Tue Feb 03 2026 16:16:39 GMT-0600 (Central Standard Time),523048.69999980927,030_o_f_n_a.png,I,z,509,5,,1526.3999996185303,521522.30000019073,9999,NNB,C,3
4,test,3,0.0,2-Back,1.0,m,Tue Feb 03 2026 16:16:39 GMT-0600 (Central Standard Time),524597.1999998093,031_y_m_n_a.png,I,m,526,6,,1538.5,523058.69999980927,9999,NNB,C,4
4,test,3,0.0,2-Back,0.0,m,Tue Feb 03 2026 16:16:39 GMT-0600 (Central Standard Time),526263.0999999046,082_m_m_n_a.png,I,z,640,7,,1661.7999997138977,524601.3000001907,9999,NNB,C,5
4,test,3,1.0,2-Back,0.0,z,Tue Feb 03 2026 16:16:39 GMT-0600 (Central Standard Time),527863.6999998093,031_y_m_n_a.png,I,m,574,8,,1597.2999997138977,526266.4000000954,9999,NNB,C,6
5,test,3,0.0,2-Back,1.0,m,Tue Feb 03 2026 16:16:39 GMT-0600 (Central Standard Time),529995.9000000954,028_y_f_n_a.png,I,m,1101,9,,2125.0,527870.9000000954,9999,NNB,C,7
5,test,3,0.0,2-Back,0.0,m,Tue Feb 03 2026 16:16:39 GMT-0600 (Central Standard Time),532295.6999998093,092_m_m_n_a.png,I,z,1278,10,,2295.199999809265,530000.5,9999,NNB,C,8
6,test,3,1.0,2-Back,1.0,z,Tue Feb 03 2026 16:16:39 GMT-0600 (Central Standard Time),534344.0,028_y_f_n_a.png,I,z,1033,11,,2041.4000000953674,532302.5999999046,9999,NNB,C,9
7,test,3,1.0,2-Back,1.0,z,Tue Feb 03 2026 16:16:39 GMT-0600 (Central Standard Time),536077.5999999046,092_m_m_n_a.png,I,z,711,12,,1728.1999998092651,534349.4000000954,9999,NNB,C,10
8,test,3,0.0,2-Back,1.0,m,Tue Feb 03 2026 16:16:39 GMT-0600 (Central Standard Time),537843.5999999046,030_o_f_n_a.png,I,m,744,13,,1761.5,536082.0999999046,9999,NNB,C,11
9,test,3,0.0,2-Back,1.0,m,Tue Feb 03 2026 16:16:39 GMT-0600 (Central Standard Time),539475.5,093_m_f_n_a.png,I,m,611,14,,1627.0,537848.5,9999,NNB,C,12
10,test,3,0.0,2-Back,1.0,m,Tue Feb 03 2026 16:16:39 GMT-0600 (Central Standard Time),541359.1999998093,146_o_m_n_a.png,I,m,852,15,,1878.3999996185303,539480.8000001907,9999,NNB,C,13
11,test,3,1.0,2-Back,1.0,z,Tue Feb 03 2026 16:16:39 GMT-0600 (Central Standard Time),542892.3000001907,093_m_f_n_a.png,I,z,503,16,,1524.4000000953674,541367.9000000954,9999,NNB,C,14
12,test,3,0.0,2-Back,1.0,m,Tue Feb 03 2026 16:16:39 GMT-0600 (Central Standard Time),544708.3000001907,130_o_f_n_a.png,I,m,795,17,,1811.0,542897.3000001907,9999,NNB,C,15
13,test,3,0.0,2-Back,1.0,m,Tue Feb 03 2026 16:16:39 GMT-0600 (Central Standard Time),546373.5,130_o_f_n_a.png,I,m,643,18,,1658.8000001907349,544714.6999998093,9999,NNB,C,16
0,test,4,0.0,2-Back,,,Tue Feb 03 2026 16:16:39 GMT-0600 (Central Standard Time),546373.5,059_o_m_n_a.png,I,space,969,1,,1658.8000001907349,544714.6999998093,9999,NNB,C,0
0,test,4,0.0,2-Back,,,Tue Feb 03 2026 16:16:39 GMT-0600 (Central Standard Time),546373.5,098_y_f_n_a.png,I,space,969,2,,1658.8000001907349,544714.6999998093,9999,NNB,C,0
1,test,4,1.0,2-Back,1.0,z,Tue Feb 03 2026 16:16:39 GMT-0600 (Central Standard Time),554273.1999998093,059_o_m_n_a.png,I,z,707,3,,1730.5999999046326,552542.5999999046,9999,NNB,C,1
2,test,4,1.0,2-Back,1.0,z,Tue Feb 03 2026 16:16:39 GMT-0600 (Central Standard Time),555789.0,098_y_f_n_a.png,I,z,495,4,,1512.1999998092651,554276.8000001907,9999,NNB,C,2
3,test,4,0.0,2-Back,1.0,m,Tue Feb 03 2026 16:16:39 GMT-0600 (Central Standard Time),557803.5,030_o_f_n_a.png,I,m,993,5,,2008.0,555795.5,9999,NNB,C,3
4,test,4,0.0,2-Back,1.0,m,Tue Feb 03 2026 16:16:39 GMT-0600 (Central Standard Time),559369.4000000954,030_o_f_n_a.png,I,m,546,6,,1561.0,557808.4000000954,9999,NNB,C,4
5,test,4,0.0,2-Back,1.0,m,Tue Feb 03 2026 16:16:39 GMT-0600 (Central Standard Time),561418.9000000954,006_m_f_n_a.png,I,m,1019,7,,2043.0999999046326,559375.8000001907,9999,NNB,C,5
6,test,4,0.0,2-Back,1.0,m,Tue Feb 03 2026 16:16:39 GMT-0600 (Central Standard Time),563051.0999999046,031_y_m_n_a.png,I,m,602,8,,1625.0,561426.0999999046,9999,NNB,C,6
7,test,4,1.0,2-Back,1.0,z,Tue Feb 03 2026 16:16:39 GMT-0600 (Central Standard Time),564734.9000000954,006_m_f_n_a.png,I,z,666,9,,1676.5,563058.4000000954,9999,NNB,C,7
8,test,4,0.0,2-Back,1.0,m,Tue Feb 03 2026 16:16:39 GMT-0600 (Central Standard Time),566302.8000001907,092_m_m_n_a.png,I,m,536,10,,1562.0,564740.8000001907,9999,NNB,C,8
8,test,4,0.0,2-Back,0.0,m,Tue Feb 03 2026 16:16:39 GMT-0600 (Central Standard Time),568833.4000000954,031_y_m_n_a.png,I,z,1515,11,,2523.2000002861023,566310.1999998093,9999,NNB,C,9
9,test,4,0.0,2-Back,1.0,m,Tue Feb 03 2026 16:16:39 GMT-0600 (Central Standard Time),570633.0,130_o_f_n_a.png,I,m,782,12,,1793.0,568840.0,9999,NNB,C,10
10,test,4,0.0,2-Back,1.0,m,Tue Feb 03 2026 16:16:39 GMT-0600 (Central Standard Time),572516.0999999046,057_y_m_n_a.png,I,m,862,13,,1878.1999998092651,570637.9000000954,9999,NNB,C,11
11,test,4,1.0,2-Back,1.0,z,Tue Feb 03 2026 16:16:39 GMT-0600 (Central Standard Time),574848.9000000954,130_o_f_n_a.png,I,z,1299,14,,2325.4000000953674,572523.5,9999,NNB,C,12
11,test,4,1.0,2-Back,0.0,z,Tue Feb 03 2026 16:16:39 GMT-0600 (Central Standard Time),576830.6999998093,057_y_m_n_a.png,I,m,958,15,,1973.1999998092651,574857.5,9999,NNB,C,13
12,test,4,0.0,2-Back,1.0,m,Tue Feb 03 2026 16:16:39 GMT-0600 (Central Standard Time),578812.3000001907,082_m_m_n_a.png,I,m,950,16,,1975.4000000953674,576836.9000000954,9999,NNB,C,14
13,test,4,0.0,2-Back,1.0,m,Tue Feb 03 2026 16:16:39 GMT-0600 (Central Standard Time),580596.0,093_m_f_n_a.png,I,m,755,17,,1779.5999999046326,578816.4000000954,9999,NNB,C,15
14,test,4,1.0,2-Back,1.0,z,Tue Feb 03 2026 16:16:39 GMT-0600 (Central Standard Time),582161.8000001907,082_m_m_n_a.png,I,z,534,18,,1561.8000001907349,580600.0,9999,NNB,C,16
0,test,5,1.0,2-Back,,,Tue Feb 03 2026 16:16:39 GMT-0600 (Central Standard Time),582161.8000001907,057_y_m_n_a.png,I,space,845,1,,1561.8000001907349,580600.0,9999,NNB,C,0
0,test,5,1.0,2-Back,,,Tue Feb 03 2026 16:16:39 GMT-0600 (Central Standard Time),582161.8000001907,093_m_f_n_a.png,I,space,845,2,,1561.8000001907349,580600.0,9999,NNB,C,0
0,test,5,1.0,2-Back,0.0,z,Tue Feb 03 2026 16:16:39 GMT-0600 (Central Standard Time),591093.4000000954,057_y_m_n_a.png,I,None,2016,3,,3023.800000190735,588069.5999999046,9999,NNB,C,1
0,test,5,1.0,2-Back,0.0,z,Tue Feb 03 2026 16:16:39 GMT-0600 (Central Standard Time),592642.4000000954,093_m_f_n_a.png,I,m,529,4,,1543.3000001907349,591099.0999999046,9999,NNB,C,2
1,test,5,0.0,2-Back,1.0,m,Tue Feb 03 2026 16:16:39 GMT-0600 (Central Standard Time),594291.0,130_o_f_n_a.png,I,m,619,5,,1645.4000000953674,592645.5999999046,9999,NNB,C,3
1,test,5,0.0,2-Back,0.0,m,Tue Feb 03 2026 16:16:39 GMT-0600 (Central Standard Time),596307.6999998093,057_y_m_n_a.png,I,z,987,6,,2010.5999999046326,594297.0999999046,9999,NNB,C,4
2,test,5,0.0,2-Back,1.0,m,Tue Feb 03 2026 16:16:39 GMT-0600 (Central Standard Time),597874.0,028_y_f_n_a.png,I,m,546,7,,1557.8000001907349,596316.1999998093,9999,NNB,C,5
2,test,5,0.0,2-Back,0.0,m,Tue Feb 03 2026 16:16:39 GMT-0600 (Central Standard Time),599808.4000000954,130_o_f_n_a.png,I,z,907,8,,1930.2000002861023,597878.1999998093,9999,NNB,C,6
2,test,5,1.0,2-Back,0.0,z,Tue Feb 03 2026 16:16:39 GMT-0600 (Central Standard Time),601324.3000001907,028_y_f_n_a.png,I,m,486,9,,1509.1000003814697,599815.1999998093,9999,NNB,C,7
3,test,5,0.0,2-Back,1.0,m,Tue Feb 03 2026 16:16:39 GMT-0600 (Central Standard Time),603256.0,146_o_m_n_a.png,I,m,916,10,,1928.1999998092651,601327.8000001907,9999,NNB,C,8
4,test,5,0.0,2-Back,1.0,m,Tue Feb 03 2026 16:16:39 GMT-0600 (Central Standard Time),604855.4000000954,006_m_f_n_a.png,I,m,578,11,,1593.5,603261.9000000954,9999,NNB,C,9
5,test,5,0.0,2-Back,1.0,m,Tue Feb 03 2026 16:16:39 GMT-0600 (Central Standard Time),606604.3000001907,092_m_m_n_a.png,I,m,727,12,,1743.2000002861023,604861.0999999046,9999,NNB,C,10
6,test,5,0.0,2-Back,1.0,m,Tue Feb 03 2026 16:16:39 GMT-0600 (Central Standard Time),608273.1999998093,146_o_m_n_a.png,I,m,640,13,,1665.0,606608.1999998093,9999,NNB,C,11
7,test,5,1.0,2-Back,1.0,z,Tue Feb 03 2026 16:16:39 GMT-0600 (Central Standard Time),610839.6999998093,092_m_m_n_a.png,I,z,1548,14,,2559.199999809265,608280.5,9999,NNB,C,12
8,test,5,0.0,2-Back,1.0,m,Tue Feb 03 2026 16:16:39 GMT-0600 (Central Standard Time),612853.5,098_y_f_n_a.png,I,m,994,15,,2009.0999999046326,610844.4000000954,9999,NNB,C,13
9,test,5,0.0,2-Back,1.0,m,Tue Feb 03 2026 16:16:39 GMT-0600 (Central Standard Time),614687.1999998093,059_o_m_n_a.png,I,m,803,16,,1828.2999997138977,612858.9000000954,9999,NNB,C,14
10,test,5,0.0,2-Back,1.0,m,Tue Feb 03 2026 16:16:39 GMT-0600 (Central Standard Time),616535.6999998093,006_m_f_n_a.png,I,m,816,17,,1845.0999999046326,614690.5999999046,9999,NNB,C,15
10,test,5,1.0,2-Back,0.0,z,Tue Feb 03 2026 16:16:39 GMT-0600 (Central Standard Time),618351.3000001907,059_o_m_n_a.png,I,m,789,18,,1807.7000002861023,616543.5999999046,9999,NNB,C,16
