acc_sum,block,block_c,block_cond,con_img,correct,correct_response,datetime,endtime,face,jitter,line,project,response,response_time,row_sel,session_number,start_end,starttime,subject_id,task,task_vers,trial
1,prac,1,A,haborder.png,1,z,Fri Mar 13 2026 09:05:08 GMT-0500 (Central Daylight Time),95192.29999995232,CFD-WF-023-013-A.jpg,1000,solid,I,z,832,12,2,2616.0,92576.29999995232,8080,ATS,C,1
2,prac,1,A,haborder.png,1,m,Fri Mar 13 2026 09:05:08 GMT-0500 (Central Daylight Time),98307.69999998808,CFD-BM-034-035-HC.jpg,1700,solid,I,m,619,1,2,5731.400000035763,92576.29999995232,8080,ATS,C,2
3,prac,1,A,haborder.png,1,m,Fri Mar 13 2026 09:05:08 GMT-0500 (Central Daylight Time),101023.69999998808,CFD-WM-028-005-HC.jpg,1400,solid,I,m,525,7,2,8447.400000035763,92576.29999995232,8080,ATS,C,3
4,prac,1,A,haborder.png,1,z,Fri Mar 13 2026 09:05:08 GMT-0500 (Central Daylight Time),103391.29999995232,CFD-BF-031-020-A.jpg,1000,solid,I,z,593,4,2,10815.0,92576.29999995232,8080,ATS,C,4
5,prac,1,A,haborder.png,1,z,Fri Mar 13 2026 09:05:08 GMT-0500 (Central Daylight Time),106421.89999997616,CFD-BM-043-014-A.jpg,1600,solid,I,z,643,2,2,13845.600000023842,92576.29999995232,8080,ATS,C,5
6,prac,1,A,haborder.png,1,m,Fri Mar 13 2026 09:05:08 GMT-0500 (Central Daylight Time),109205.59999996424,CFD-BM-022-004-HC.jpg,1500,solid,I,m,486,3,2,16629.30000001192,92576.29999995232,8080,ATS,C,6
7,prac,1,A,haborder.png,1,m,Fri Mar 13 2026 09:05:08 GMT-0500 (Central Daylight Time),112687.89999997616,CFD-BF-019-004-HC.jpg,2000,solid,I,m,692,5,2,20111.600000023842,92576.29999995232,8080,ATS,C,7
8,prac,1,A,haborder.png,1,z,Fri Mar 13 2026 09:05:08 GMT-0500 (Central Daylight Time),115252.59999996424,CFD-BF-002-018-A.jpg,1200,solid,I,z,570,6,2,22676.30000001192,92576.29999995232,8080,ATS,C,8
9,prac,1,A,haborder.png,1,m,Fri Mar 13 2026 09:05:08 GMT-0500 (Central Daylight Time),118101.59999996424,CFD-WF-013-009-HC.jpg,1500,solid,I,m,552,11,2,25525.30000001192,92576.29999995232,8080,ATS,C,9
10,prac,1,A,haborder.png,1,m,Fri Mar 13 2026 09:05:08 GMT-0500 (Central Daylight Time),121134.0,CFD-WM-035-036-HC.jpg,1700,solid,I,m,543,9,2,28557.700000047684,92576.29999995232,8080,ATS,C,10
11,prac,1,A,haborder.png,1,z,Fri Mar 13 2026 09:05:08 GMT-0500 (Central Daylight Time),124116.5,CFD-WF-037-016-A.jpg,1600,solid,I,z,595,10,2,31540.200000047684,92576.29999995232,8080,ATS,C,11
12,prac,1,A,haborder.png,1,z,Fri Mar 13 2026 09:05:08 GMT-0500 (Central Daylight Time),127598.89999997616,CFD-WM-036-018-A.jpg,1900,solid,I,z,792,8,2,35022.60000002384,92576.29999995232,8080,ATS,C,12
1,prac,1,B,mfborder.png,1,z,Fri Mar 13 2026 09:05:08 GMT-0500 (Central Daylight Time),165736.69999998808,CFD-WF-001-010-HC.jpg,1900,8,I,z,465,dash,2,3149.100000023842,162587.59999996424,8080,ATS,C,1
2,prac,1,B,mfborder.png,1,m,Fri Mar 13 2026 09:05:08 GMT-0500 (Central Daylight Time),168269.29999995232,CFD-WM-034-040-A.jpg,1200,6,I,m,535,dash,2,5681.699999988079,162587.59999996424,8080,ATS,C,2
3,prac,1,B,mfborder.png,1,z,Fri Mar 13 2026 09:05:08 GMT-0500 (Central Daylight Time),170585.5,CFD-BF-031-020-A.jpg,1000,4,I,z,531,dash,2,7997.900000035763,162587.59999996424,8080,ATS,C,3
4,prac,1,B,mfborder.png,1,m,Fri Mar 13 2026 09:05:08 GMT-0500 (Central Daylight Time),173600.89999997616,CFD-BM-022-004-HC.jpg,1700,1,I,m,531,dash,2,11013.300000011921,162587.59999996424,8080,ATS,C,4
5,prac,1,B,mfborder.png,1,m,Fri Mar 13 2026 09:05:08 GMT-0500 (Central Daylight Time),176883.19999998808,CFD-BM-043-014-A.jpg,2000,5,I,m,496,dash,2,14295.600000023842,162587.59999996424,8080,ATS,C,5
6,prac,1,B,mfborder.png,1,z,Fri Mar 13 2026 09:05:08 GMT-0500 (Central Daylight Time),179748.89999997616,CFD-BF-042-031-HC.jpg,1500,3,I,z,569,dash,2,17161.30000001192,162587.59999996424,8080,ATS,C,6
7,prac,1,B,mfborder.png,1,m,Fri Mar 13 2026 09:05:08 GMT-0500 (Central Daylight Time),182998.0,CFD-WM-036-018-A.jpg,1700,9,I,m,758,dash,2,20410.400000035763,162587.59999996424,8080,ATS,C,7
8,prac,1,B,mfborder.png,1,m,Fri Mar 13 2026 09:05:08 GMT-0500 (Central Daylight Time),186013.89999997616,CFD-WM-035-036-HC.jpg,1600,10,I,m,627,dash,2,23426.30000001192,162587.59999996424,8080,ATS,C,8
8,prac,1,B,mfborder.png,0,m,Fri Mar 13 2026 09:05:08 GMT-0500 (Central Daylight Time),189179.39999997616,CFD-BM-021-026-A.jpg,1600,2,I,z,770,dash,2,26591.80000001192,162587.59999996424,8080,ATS,C,9
9,prac,1,B,mfborder.png,1,z,Fri Mar 13 2026 09:05:08 GMT-0500 (Central Daylight Time),191979.79999995232,CFD-BF-019-004-HC.jpg,1400,7,I,z,605,dash,2,29392.19999998808,162587.59999996424,8080,ATS,C,10
10,prac,1,B,mfborder.png,1,z,Fri Mar 13 2026 09:05:08 GMT-0500 (Central Daylight Time),195312.0,CFD-WF-037-016-A.jpg,1500,11,I,z,1034,dash,2,32724.400000035763,162587.59999996424,8080,ATS,C,11
11,prac,1,B,mfborder.png,1,z,Fri Mar 13 2026 09:05:08 GMT-0500 (Central Daylight Time),197776.79999995232,CFD-WF-013-009-HC.jpg,1000,12,I,z,681,dash,2,35189.19999998808,162587.59999996424,8080,ATS,C,12
1,test,1,A,haborder.png,1,z,Fri Mar 13 2026 09:05:08 GMT-0500 (Central Daylight Time),216803.89999997616,CFD-WF-023-013-A.jpg,1000,solid,I,z,555,12,2,1582.6000000238419,215221.29999995232,8080,ATS,C,1
2,test,1,A,haborder.png,1,m,Fri Mar 13 2026 09:05:08 GMT-0500 (Central Daylight Time),218953.19999998808,CFD-WF-013-009-HC.jpg,1500,solid,I,m,632,11,2,3731.900000035763,215221.29999995232,8080,ATS,C,2
2,test,1,A,haborder.png,0,z,Fri Mar 13 2026 09:05:08 GMT-0500 (Central Daylight Time),221187.5,CFD-BM-043-014-A.jpg,1600,solid,I,m,600,2,2,5966.200000047684,215221.29999995232,8080,ATS,C,3
3,test,1,A,haborder.png,1,z,Fri Mar 13 2026 09:05:08 GMT-0500 (Central Daylight Time),223352.0,CFD-BF-002-018-A.jpg,1200,solid,I,z,933,6,2,8130.700000047684,215221.29999995232,8080,ATS,C,4
4,test,1,A,haborder.png,1,m,Fri Mar 13 2026 09:05:08 GMT-0500 (Central Daylight Time),226017.89999997616,CFD-BF-019-004-HC.jpg,2000,solid,I,m,650,5,2,10796.600000023842,215221.29999995232,8080,ATS,C,5
5,test,1,A,haborder.png,1,m,Fri Mar 13 2026 09:05:08 GMT-0500 (Central Daylight Time),228167.29999995232,CFD-WF-013-009-HC.jpg,1500,solid,I,m,617,11,2,12946.0,215221.29999995232,8080,ATS,C,6
6,test,1,A,haborder.png,1,m,Fri Mar 13 2026 09:05:08 GMT-0500 (Central Daylight Time),230483.19999998808,CFD-WM-035-036-HC.jpg,1700,solid,I,m,589,9,2,15261.900000035763,215221.29999995232,8080,ATS,C,7
7,test,1,A,haborder.png,1,z,Fri Mar 13 2026 09:05:08 GMT-0500 (Central Daylight Time),232215.89999997616,CFD-BF-002-018-A.jpg,1200,solid,I,z,500,6,2,16994.600000023842,215221.29999995232,8080,ATS,C,8
8,test,1,A,haborder.png,1,z,Fri Mar 13 2026 09:05:08 GMT-0500 (Central Daylight Time),234631.79999995232,CFD-BM-043-014-A.jpg,1600,solid,I,z,793,2,2,19410.5,215221.29999995232,8080,ATS,C,9
9,test,1,A,haborder.png,1,m,Fri Mar 13 2026 09:05:08 GMT-0500 (Central Daylight Time),236899.0,CFD-BM-022-004-HC.jpg,1500,solid,I,m,741,3,2,21677.700000047684,215221.29999995232,8080,ATS,C,10
10,test,1,A,haborder.png,1,z,Fri Mar 13 2026 09:05:08 GMT-0500 (Central Daylight Time),239480.29999995232,CFD-WM-036-018-A.jpg,1900,solid,I,z,658,8,2,24259.0,215221.29999995232,8080,ATS,C,11
11,test,1,A,haborder.png,1,m,Fri Mar 13 2026 09:05:08 GMT-0500 (Central Daylight Time),241496.5,CFD-WM-028-005-HC.jpg,1400,solid,I,m,592,7,2,26275.200000047684,215221.29999995232,8080,ATS,C,12
12,test,1,A,haborder.png,1,z,Fri Mar 13 2026 09:05:08 GMT-0500 (Central Daylight Time),244145.39999997616,CFD-WM-036-018-A.jpg,1900,solid,I,z,732,8,2,28924.100000023842,215221.29999995232,8080,ATS,C,13
13,test,1,A,haborder.png,1,m,Fri Mar 13 2026 09:05:08 GMT-0500 (Central Daylight Time),246961.19999998808,CFD-BF-019-004-HC.jpg,2000,solid,I,m,799,5,2,31739.900000035763,215221.29999995232,8080,ATS,C,14
14,test,1,A,haborder.png,1,z,Fri Mar 13 2026 09:05:08 GMT-0500 (Central Daylight Time),248544.19999998808,CFD-BF-031-020-A.jpg,1000,solid,I,z,551,4,2,33322.90000003576,215221.29999995232,8080,ATS,C,15
15,test,1,A,haborder.png,1,m,Fri Mar 13 2026 09:05:08 GMT-0500 (Central Daylight Time),250993.5,CFD-BM-034-035-HC.jpg,1700,solid,I,m,716,1,2,35772.200000047684,215221.29999995232,8080,ATS,C,16
16,test,1,A,haborder.png,1,z,Fri Mar 13 2026 09:05:08 GMT-0500 (Central Daylight Time),253159.29999995232,CFD-WF-037-016-A.jpg,1600,solid,I,z,543,10,2,37938.0,215221.29999995232,8080,ATS,C,17
17,test,1,A,haborder.png,1,m,Fri Mar 13 2026 09:05:08 GMT-0500 (Central Daylight Time),255243.09999996424,CFD-WM-028-005-HC.jpg,1400,solid,I,m,665,7,2,40021.80000001192,215221.29999995232,8080,ATS,C,18
18,test,1,A,haborder.png,1,m,Fri Mar 13 2026 09:05:08 GMT-0500 (Central Daylight Time),257308.0,CFD-BM-022-004-HC.jpg,1500,solid,I,m,546,3,2,42086.700000047684,215221.29999995232,8080,ATS,C,19
19,test,1,A,haborder.png,1,m,Fri Mar 13 2026 09:05:08 GMT-0500 (Central Daylight Time),259590.69999998808,CFD-BM-034-035-HC.jpg,1700,solid,I,m,552,1,2,44369.40000003576,215221.29999995232,8080,ATS,C,20
20,test,1,A,haborder.png,1,z,Fri Mar 13 2026 09:05:08 GMT-0500 (Central Daylight Time),261723.39999997616,CFD-WF-037-016-A.jpg,1600,solid,I,z,514,10,2,46502.10000002384,215221.29999995232,8080,ATS,C,21
21,test,1,A,haborder.png,1,z,Fri Mar 13 2026 09:05:08 GMT-0500 (Central Daylight Time),263289.6999999881,CFD-WF-023-013-A.jpg,1000,solid,I,z,533,12,2,48068.40000003576,215221.29999995232,8080,ATS,C,22
22,test,1,A,haborder.png,1,z,Fri Mar 13 2026 09:05:08 GMT-0500 (Central Daylight Time),264889.09999996424,CFD-BF-031-020-A.jpg,1000,solid,I,z,583,4,2,49667.80000001192,215221.29999995232,8080,ATS,C,23
23,test,1,A,haborder.png,1,m,Fri Mar 13 2026 09:05:08 GMT-0500 (Central Daylight Time),267088.5,CFD-WM-035-036-HC.jpg,1700,solid,I,m,467,9,2,51867.200000047684,215221.29999995232,8080,ATS,C,24
1,test,1,B,mfborder.png,1,m,Fri Mar 13 2026 09:05:08 GMT-0500 (Central Daylight Time),286182.2999999523,CFD-WM-035-036-HC.jpg,1600,dash,I,m,486,10,2,2115.099999964237,284067.1999999881,8080,ATS,C,1
2,test,1,B,mfborder.png,1,z,Fri Mar 13 2026 09:05:08 GMT-0500 (Central Daylight Time),287815.09999996424,CFD-WF-013-009-HC.jpg,1000,dash,I,z,602,12,2,3747.899999976158,284067.1999999881,8080,ATS,C,2
3,test,1,B,mfborder.png,1,z,Fri Mar 13 2026 09:05:08 GMT-0500 (Central Daylight Time),289764.6999999881,CFD-BF-019-004-HC.jpg,1400,dash,I,z,529,7,2,5697.5,284067.1999999881,8080,ATS,C,3
4,test,1,B,mfborder.png,1,m,Fri Mar 13 2026 09:05:08 GMT-0500 (Central Daylight Time),292063.6999999881,CFD-WM-036-018-A.jpg,1700,dash,I,m,566,9,2,7996.5,284067.1999999881,8080,ATS,C,4
5,test,1,B,mfborder.png,1,z,Fri Mar 13 2026 09:05:08 GMT-0500 (Central Daylight Time),294096.59999996424,CFD-WF-037-016-A.jpg,1500,dash,I,z,500,11,2,10029.399999976158,284067.1999999881,8080,ATS,C,5
6,test,1,B,mfborder.png,1,m,Fri Mar 13 2026 09:05:08 GMT-0500 (Central Daylight Time),295962.7999999523,CFD-WM-034-040-A.jpg,1200,dash,I,m,647,6,2,11895.599999964237,284067.1999999881,8080,ATS,C,6
7,test,1,B,mfborder.png,1,z,Fri Mar 13 2026 09:05:08 GMT-0500 (Central Daylight Time),298145.1999999881,CFD-WF-037-016-A.jpg,1500,dash,I,z,666,11,2,14078.0,284067.1999999881,8080,ATS,C,7
8,test,1,B,mfborder.png,1,m,Fri Mar 13 2026 09:05:08 GMT-0500 (Central Daylight Time),299845.09999996424,CFD-WM-034-040-A.jpg,1200,dash,I,m,471,6,2,15777.899999976158,284067.1999999881,8080,ATS,C,8
9,test,1,B,mfborder.png,1,m,Fri Mar 13 2026 09:05:08 GMT-0500 (Central Daylight Time),302177.0,CFD-WM-036-018-A.jpg,1700,dash,I,m,616,9,2,18109.80000001192,284067.1999999881,8080,ATS,C,9
10,test,1,B,mfborder.png,1,m,Fri Mar 13 2026 09:05:08 GMT-0500 (Central Daylight Time),304693.39999997616,CFD-BM-043-014-A.jpg,2000,dash,I,m,495,5,2,20626.19999998808,284067.1999999881,8080,ATS,C,10
11,test,1,B,mfborder.png,1,z,Fri Mar 13 2026 09:05:08 GMT-0500 (Central Daylight Time),306776.1999999881,CFD-BF-042-031-HC.jpg,1500,dash,I,z,559,3,2,22709.0,284067.1999999881,8080,ATS,C,11
12,test,1,B,mfborder.png,1,m,Fri Mar 13 2026 09:05:08 GMT-0500 (Central Daylight Time),308958.59999996424,CFD-BM-022-004-HC.jpg,1700,dash,I,m,453,1,2,24891.399999976158,284067.1999999881,8080,ATS,C,12
13,test,1,B,mfborder.png,1,m,Fri Mar 13 2026 09:05:08 GMT-0500 (Central Daylight Time),311157.7999999523,CFD-BM-021-026-A.jpg,1600,dash,I,m,570,2,2,27090.599999964237,284067.1999999881,8080,ATS,C,13
14,test,1,B,mfborder.png,1,m,Fri Mar 13 2026 09:05:08 GMT-0500 (Central Daylight Time),313357.2999999523,CFD-BM-021-026-A.jpg,1600,dash,I,m,578,2,2,29290.099999964237,284067.1999999881,8080,ATS,C,14
15,test,1,B,mfborder.png,1,z,Fri Mar 13 2026 09:05:08 GMT-0500 (Central Daylight Time),315350.09999996424,CFD-BF-031-020-A.jpg,1000,dash,I,z,976,4,2,31282.899999976158,284067.1999999881,8080,ATS,C,15
16,test,1,B,mfborder.png,1,z,Fri Mar 13 2026 09:05:08 GMT-0500 (Central Daylight Time),316939.59999996424,CFD-BF-031-020-A.jpg,1000,dash,I,z,581,4,2,32872.39999997616,284067.1999999881,8080,ATS,C,16
17,test,1,B,mfborder.png,1,z,Fri Mar 13 2026 09:05:08 GMT-0500 (Central Daylight Time),318555.59999996424,CFD-WF-013-009-HC.jpg,1000,dash,I,z,588,12,2,34488.39999997616,284067.1999999881,8080,ATS,C,17
18,test,1,B,mfborder.png,1,m,Fri Mar 13 2026 09:05:08 GMT-0500 (Central Daylight Time),320721.5,CFD-WM-035-036-HC.jpg,1600,dash,I,m,541,10,2,36654.30000001192,284067.1999999881,8080,ATS,C,18
19,test,1,B,mfborder.png,1,z,Fri Mar 13 2026 09:05:08 GMT-0500 (Central Daylight Time),323254.0,CFD-WF-001-010-HC.jpg,1900,dash,I,z,603,8,2,39186.80000001192,284067.1999999881,8080,ATS,C,19
20,test,1,B,mfborder.png,1,m,Fri Mar 13 2026 09:05:08 GMT-0500 (Central Daylight Time),326119.7999999523,CFD-BM-043-014-A.jpg,2000,dash,I,m,843,5,2,42052.59999996424,284067.1999999881,8080,ATS,C,20
21,test,1,B,mfborder.png,1,z,Fri Mar 13 2026 09:05:08 GMT-0500 (Central Daylight Time),328136.0,CFD-BF-019-004-HC.jpg,1400,dash,I,z,592,7,2,44068.80000001192,284067.1999999881,8080,ATS,C,21
22,test,1,B,mfborder.png,1,z,Fri Mar 13 2026 09:05:08 GMT-0500 (Central Daylight Time),330635.1999999881,CFD-WF-001-010-HC.jpg,1900,dash,I,z,581,8,2,46568.0,284067.1999999881,8080,ATS,C,22
23,test,1,B,mfborder.png,1,z,Fri Mar 13 2026 09:05:08 GMT-0500 (Central Daylight Time),332751.2999999523,CFD-BF-042-031-HC.jpg,1500,dash,I,z,585,3,2,48684.09999996424,284067.1999999881,8080,ATS,C,23
24,test,1,B,mfborder.png,1,m,Fri Mar 13 2026 09:05:08 GMT-0500 (Central Daylight Time),334950.5,CFD-BM-022-004-HC.jpg,1700,dash,I,m,477,1,2,50883.30000001192,284067.1999999881,8080,ATS,C,24
0,prac,1,C,mfborder.png,0,z,Fri Mar 13 2026 09:05:08 GMT-0500 (Central Daylight Time),389866.6999999881,CFD-BF-019-004-HC.jpg,1000,dash,I,None,1515,1,2,3298.699999988079,386568.0,8080,ATS,C,1
0,prac,1,C,mfborder.png,0,z,Fri Mar 13 2026 09:05:08 GMT-0500 (Central Daylight Time),393065.5,CFD-WF-023-013-A.jpg,1500,solid,I,m,906,1,2,6497.5,386568.0,8080,ATS,C,2
1,prac,1,C,mfborder.png,1,m,Fri Mar 13 2026 09:05:08 GMT-0500 (Central Daylight Time),396381.59999996424,CFD-WM-036-018-A.jpg,1700,solid,I,m,827,1,2,9813.599999964237,386568.0,8080,ATS,C,3
1,prac,1,C,haborder.png,0,m,Fri Mar 13 2026 09:05:08 GMT-0500 (Central Daylight Time),399647.0,CFD-BM-022-004-HC.jpg,1500,solid,I,z,967,1,2,13079.0,386568.0,8080,ATS,C,4
2,prac,1,C,haborder.png,1,z,Fri Mar 13 2026 09:05:08 GMT-0500 (Central Daylight Time),403146.1999999881,CFD-BF-031-020-A.jpg,1900,dash,I,z,814,1,2,16578.19999998808,386568.0,8080,ATS,C,5
3,prac,1,C,mfborder.png,1,m,Fri Mar 13 2026 09:05:08 GMT-0500 (Central Daylight Time),405828.2999999523,CFD-BM-043-014-A.jpg,1200,dash,I,m,694,1,2,19260.299999952316,386568.0,8080,ATS,C,6
4,prac,1,C,haborder.png,1,m,Fri Mar 13 2026 09:05:08 GMT-0500 (Central Daylight Time),408344.39999997616,CFD-WM-028-005-HC.jpg,1000,dash,I,m,724,1,2,21776.399999976158,386568.0,8080,ATS,C,7
4,prac,1,C,haborder.png,0,z,Fri Mar 13 2026 09:05:08 GMT-0500 (Central Daylight Time),411560.5,CFD-BF-002-018-A.jpg,1700,solid,I,m,732,1,2,24992.5,386568.0,8080,ATS,C,8
4,prac,1,C,mfborder.png,0,z,Fri Mar 13 2026 09:05:08 GMT-0500 (Central Daylight Time),414659.1999999881,CFD-WF-013-009-HC.jpg,1600,dash,I,m,713,1,2,28091.19999998808,386568.0,8080,ATS,C,9
5,prac,1,C,haborder.png,1,z,Fri Mar 13 2026 09:05:08 GMT-0500 (Central Daylight Time),417758.09999996424,CFD-WF-037-016-A.jpg,1600,dash,I,z,702,1,2,31190.099999964237,386568.0,8080,ATS,C,10
6,prac,1,C,haborder.png,1,m,Fri Mar 13 2026 09:05:08 GMT-0500 (Central Daylight Time),420624.89999997616,CFD-WM-028-005-HC.jpg,1400,solid,I,m,691,1,2,34056.89999997616,386568.0,8080,ATS,C,11
7,prac,1,C,mfborder.png,1,m,Fri Mar 13 2026 09:05:08 GMT-0500 (Central Daylight Time),424089.09999996424,CFD-BM-034-035-HC.jpg,2000,solid,I,m,673,1,2,37521.09999996424,386568.0,8080,ATS,C,12
0,test,1,C,haborder.png,0,m,Fri Mar 13 2026 09:05:08 GMT-0500 (Central Daylight Time),448715.0,CFD-WF-001-010-HC.jpg,1500,solid,I,z,1023,11,2,2548.600000023842,446166.39999997616,8080,ATS,C,1
1,test,1,C,mfborder.png,1,z,Fri Mar 13 2026 09:05:08 GMT-0500 (Central Daylight Time),451247.39999997616,CFD-BF-031-020-A.jpg,1600,dash,I,z,902,2,2,5081.0,446166.39999997616,8080,ATS,C,2
2,test,1,C,mfborder.png,1,m,Fri Mar 13 2026 09:05:08 GMT-0500 (Central Daylight Time),454146.6999999881,CFD-WM-034-040-A.jpg,2000,dash,I,m,881,5,2,7980.300000011921,446166.39999997616,8080,ATS,C,3
3,test,1,C,mfborder.png,1,m,Fri Mar 13 2026 09:05:08 GMT-0500 (Central Daylight Time),457295.7999999523,CFD-WM-034-040-A.jpg,2000,dash,I,m,1126,5,2,11129.399999976158,446166.39999997616,8080,ATS,C,4
4,test,1,C,mfborder.png,1,z,Fri Mar 13 2026 09:05:08 GMT-0500 (Central Daylight Time),460094.6999999881,CFD-BF-042-031-HC.jpg,1700,dash,I,z,1077,1,2,13928.300000011921,446166.39999997616,8080,ATS,C,5
4,test,1,C,haborder.png,0,z,Fri Mar 13 2026 09:05:08 GMT-0500 (Central Daylight Time),463160.6999999881,CFD-BM-021-026-A.jpg,1700,solid,I,m,1334,9,2,16994.30000001192,446166.39999997616,8080,ATS,C,6
4,test,1,C,haborder.png,0,m,Fri Mar 13 2026 09:05:08 GMT-0500 (Central Daylight Time),465476.39999997616,CFD-BF-019-004-HC.jpg,1600,solid,I,z,688,10,2,19310.0,446166.39999997616,8080,ATS,C,7
4,test,1,C,mfborder.png,0,m,Fri Mar 13 2026 09:05:08 GMT-0500 (Central Daylight Time),467325.5,CFD-WM-035-036-HC.jpg,1000,dash,I,z,820,4,2,21159.100000023842,446166.39999997616,8080,ATS,C,8
4,test,1,C,haborder.png,0,m,Fri Mar 13 2026 09:05:08 GMT-0500 (Central Daylight Time),470324.89999997616,CFD-WF-001-010-HC.jpg,1500,solid,I,z,1479,11,2,24158.5,446166.39999997616,8080,ATS,C,9
5,test,1,C,haborder.png,1,m,Fri Mar 13 2026 09:05:08 GMT-0500 (Central Daylight Time),472657.1999999881,CFD-WF-013-009-HC.jpg,1000,solid,I,m,1316,12,2,26490.80000001192,446166.39999997616,8080,ATS,C,10
6,test,1,C,mfborder.png,1,m,Fri Mar 13 2026 09:05:08 GMT-0500 (Central Daylight Time),475123.39999997616,CFD-BM-022-004-HC.jpg,1200,dash,I,m,1247,6,2,28957.0,446166.39999997616,8080,ATS,C,11
6,test,1,C,haborder.png,0,z,Fri Mar 13 2026 09:05:08 GMT-0500 (Central Daylight Time),478372.09999996424,CFD-BM-043-014-A.jpg,1900,solid,I,m,1321,8,2,32205.69999998808,446166.39999997616,8080,ATS,C,12
6,test,1,C,mfborder.png,0,z,Fri Mar 13 2026 09:05:08 GMT-0500 (Central Daylight Time),481404.89999997616,CFD-WF-037-016-A.jpg,1500,dash,I,None,1516,3,2,35238.5,446166.39999997616,8080,ATS,C,13
7,test,1,C,mfborder.png,1,z,Fri Mar 13 2026 09:05:08 GMT-0500 (Central Daylight Time),484053.7999999523,CFD-BF-042-031-HC.jpg,1700,dash,I,z,920,1,2,37887.39999997616,446166.39999997616,8080,ATS,C,14
7,test,1,C,haborder.png,0,z,Fri Mar 13 2026 09:05:08 GMT-0500 (Central Daylight Time),486436.59999996424,CFD-WM-036-018-A.jpg,1400,solid,I,m,962,7,2,40270.19999998808,446166.39999997616,8080,ATS,C,15
7,test,1,C,haborder.png,0,m,Fri Mar 13 2026 09:05:08 GMT-0500 (Central Daylight Time),489002.39999997616,CFD-BF-019-004-HC.jpg,1600,solid,I,z,933,10,2,42836.0,446166.39999997616,8080,ATS,C,16
8,test,1,C,haborder.png,1,z,Fri Mar 13 2026 09:05:08 GMT-0500 (Central Daylight Time),492251.39999997616,CFD-BM-043-014-A.jpg,1900,solid,I,z,1322,8,2,46085.0,446166.39999997616,8080,ATS,C,17
9,test,1,C,haborder.png,1,z,Fri Mar 13 2026 09:05:08 GMT-0500 (Central Daylight Time),494751.89999997616,CFD-BM-021-026-A.jpg,1700,solid,I,z,778,9,2,48585.5,446166.39999997616,8080,ATS,C,18
10,test,1,C,mfborder.png,1,z,Fri Mar 13 2026 09:05:08 GMT-0500 (Central Daylight Time),497651.0,CFD-BF-031-020-A.jpg,1600,dash,I,z,1282,2,2,51484.60000002384,446166.39999997616,8080,ATS,C,19
11,test,1,C,mfborder.png,1,z,Fri Mar 13 2026 09:05:08 GMT-0500 (Central Daylight Time),500498.89999997616,CFD-WF-037-016-A.jpg,1500,dash,I,z,1324,3,2,54332.5,446166.39999997616,8080,ATS,C,20
11,test,1,C,haborder.png,0,m,Fri Mar 13 2026 09:05:08 GMT-0500 (Central Daylight Time),503031.2999999523,CFD-WF-013-009-HC.jpg,1000,solid,I,None,1516,12,2,56864.89999997616,446166.39999997616,8080,ATS,C,21
11,test,1,C,mfborder.png,0,m,Fri Mar 13 2026 09:05:08 GMT-0500 (Central Daylight Time),505563.89999997616,CFD-WM-035-036-HC.jpg,1000,dash,I,None,1516,4,2,59397.5,446166.39999997616,8080,ATS,C,22
11,test,1,C,haborder.png,0,z,Fri Mar 13 2026 09:05:08 GMT-0500 (Central Daylight Time),508495.89999997616,CFD-WM-036-018-A.jpg,1400,solid,I,None,1516,7,2,62329.5,446166.39999997616,8080,ATS,C,23
12,test,1,C,mfborder.png,1,m,Fri Mar 13 2026 09:05:08 GMT-0500 (Central Daylight Time),510395.59999996424,CFD-BM-022-004-HC.jpg,1200,dash,I,m,672,6,2,64229.19999998808,446166.39999997616,8080,ATS,C,24
0,test,2,C,haborder.png,0,m,Fri Mar 13 2026 09:05:08 GMT-0500 (Central Daylight Time),517077.09999996424,CFD-BM-022-004-HC.jpg,1600,solid,I,None,1516,10,2,3132.5,513944.59999996424,8080,ATS,C,1
1,test,2,C,mfborder.png,1,m,Fri Mar 13 2026 09:05:08 GMT-0500 (Central Daylight Time),518876.0,CFD-BM-034-035-HC.jpg,1000,dash,I,m,779,4,2,4931.400000035763,513944.59999996424,8080,ATS,C,2
1,test,2,C,mfborder.png,0,z,Fri Mar 13 2026 09:05:08 GMT-0500 (Central Daylight Time),521492.2999999523,CFD-WF-013-009-HC.jpg,1700,dash,I,m,896,1,2,7547.699999988079,513944.59999996424,8080,ATS,C,3
1,test,2,C,mfborder.png,0,m,Fri Mar 13 2026 09:05:08 GMT-0500 (Central Daylight Time),523658.09999996424,CFD-WM-036-018-A.jpg,1200,dash,I,z,940,6,2,9713.5,513944.59999996424,8080,ATS,C,4
2,test,2,C,mfborder.png,1,z,Fri Mar 13 2026 09:05:08 GMT-0500 (Central Daylight Time),526274.2999999523,CFD-WF-023-013-A.jpg,1600,dash,I,z,999,2,2,12329.699999988079,513944.59999996424,8080,ATS,C,5
3,test,2,C,mfborder.png,1,z,Fri Mar 13 2026 09:05:08 GMT-0500 (Central Daylight Time),528506.7999999523,CFD-BF-019-004-HC.jpg,1500,dash,I,z,715,3,2,14562.199999988079,513944.59999996424,8080,ATS,C,6
4,test,2,C,haborder.png,1,z,Fri Mar 13 2026 09:05:08 GMT-0500 (Central Daylight Time),531705.7999999523,CFD-WF-037-016-A.jpg,1700,solid,I,z,1474,9,2,17761.19999998808,513944.59999996424,8080,ATS,C,7
5,test,2,C,mfborder.png,1,m,Fri Mar 13 2026 09:05:08 GMT-0500 (Central Daylight Time),534705.7999999523,CFD-BM-043-014-A.jpg,2000,dash,I,m,967,5,2,20761.19999998808,513944.59999996424,8080,ATS,C,8
6,test,2,C,mfborder.png,1,m,Fri Mar 13 2026 09:05:08 GMT-0500 (Central Daylight Time),537320.7999999523,CFD-WM-036-018-A.jpg,1200,dash,I,m,1384,6,2,23376.19999998808,513944.59999996424,8080,ATS,C,9
6,test,2,C,haborder.png,0,m,Fri Mar 13 2026 09:05:08 GMT-0500 (Central Daylight Time),540053.1999999881,CFD-WM-028-005-HC.jpg,1500,solid,I,z,1204,11,2,26108.600000023842,513944.59999996424,8080,ATS,C,10
7,test,2,C,haborder.png,1,m,Fri Mar 13 2026 09:05:08 GMT-0500 (Central Daylight Time),542585.5,CFD-WM-028-005-HC.jpg,1500,solid,I,m,1016,11,2,28640.900000035763,513944.59999996424,8080,ATS,C,11
8,test,2,C,haborder.png,1,m,Fri Mar 13 2026 09:05:08 GMT-0500 (Central Daylight Time),544385.0,CFD-WM-028-005-HC.jpg,1000,solid,I,m,783,12,2,30440.400000035763,513944.59999996424,8080,ATS,C,12
9,test,2,C,haborder.png,1,z,Fri Mar 13 2026 09:05:08 GMT-0500 (Central Daylight Time),547584.0,CFD-BF-002-018-A.jpg,1900,solid,I,z,1276,8,2,33639.40000003576,513944.59999996424,8080,ATS,C,13
10,test,2,C,haborder.png,1,z,Fri Mar 13 2026 09:05:08 GMT-0500 (Central Daylight Time),550433.5999999642,CFD-BF-031-020-A.jpg,1400,solid,I,z,1417,7,2,36489.0,513944.59999996424,8080,ATS,C,14
11,test,2,C,mfborder.png,1,z,Fri Mar 13 2026 09:05:08 GMT-0500 (Central Daylight Time),553182.3999999762,CFD-BF-019-004-HC.jpg,1500,dash,I,z,1219,3,2,39237.80000001192,513944.59999996424,8080,ATS,C,15
12,test,2,C,mfborder.png,1,m,Fri Mar 13 2026 09:05:08 GMT-0500 (Central Daylight Time),555115.0999999642,CFD-BM-034-035-HC.jpg,1000,dash,I,m,906,4,2,41170.5,513944.59999996424,8080,ATS,C,16
13,test,2,C,mfborder.png,1,m,Fri Mar 13 2026 09:05:08 GMT-0500 (Central Daylight Time),558463.7999999523,CFD-BM-043-014-A.jpg,2000,dash,I,m,1326,5,2,44519.19999998808,513944.59999996424,8080,ATS,C,17
13,test,2,C,haborder.png,0,m,Fri Mar 13 2026 09:05:08 GMT-0500 (Central Daylight Time),560996.5999999642,CFD-WM-028-005-HC.jpg,1000,solid,I,None,1515,12,2,47052.0,513944.59999996424,8080,ATS,C,18
13,test,2,C,mfborder.png,0,z,Fri Mar 13 2026 09:05:08 GMT-0500 (Central Daylight Time),564029.0,CFD-WF-023-013-A.jpg,1600,dash,I,m,1413,2,2,50084.40000003576,513944.59999996424,8080,ATS,C,19
14,test,2,C,haborder.png,1,z,Fri Mar 13 2026 09:05:08 GMT-0500 (Central Daylight Time),567011.2999999523,CFD-WF-037-016-A.jpg,1700,solid,I,z,1264,9,2,53066.69999998808,513944.59999996424,8080,ATS,C,20
15,test,2,C,haborder.png,1,z,Fri Mar 13 2026 09:05:08 GMT-0500 (Central Daylight Time),569877.0999999642,CFD-BF-002-018-A.jpg,1900,solid,I,z,936,8,2,55932.5,513944.59999996424,8080,ATS,C,21
16,test,2,C,haborder.png,1,z,Fri Mar 13 2026 09:05:08 GMT-0500 (Central Daylight Time),572143.0,CFD-BF-031-020-A.jpg,1400,solid,I,z,843,7,2,58198.40000003576,513944.59999996424,8080,ATS,C,22
17,test,2,C,mfborder.png,1,z,Fri Mar 13 2026 09:05:08 GMT-0500 (Central Daylight Time),574611.5,CFD-WF-013-009-HC.jpg,1700,dash,I,z,742,1,2,60666.90000003576,513944.59999996424,8080,ATS,C,23
17,test,2,C,haborder.png,0,m,Fri Mar 13 2026 09:05:08 GMT-0500 (Central Daylight Time),577741.0,CFD-BM-022-004-HC.jpg,1600,solid,I,None,1516,10,2,63796.40000003576,513944.59999996424,8080,ATS,C,24
1,test,3,C,haborder.png,1,m,Fri Mar 13 2026 09:05:08 GMT-0500 (Central Daylight Time),582606.5999999642,CFD-WF-013-009-HC.jpg,1000,solid,I,m,1410,12,2,2432.699999988079,580173.8999999762,8080,ATS,C,1
2,test,3,C,mfborder.png,1,z,Fri Mar 13 2026 09:05:08 GMT-0500 (Central Daylight Time),585338.6999999881,CFD-BF-042-031-HC.jpg,1700,dash,I,z,1014,1,2,5164.800000011921,580173.8999999762,8080,ATS,C,2
2,test,3,C,haborder.png,0,m,Fri Mar 13 2026 09:05:08 GMT-0500 (Central Daylight Time),587821.5,CFD-BF-019-004-HC.jpg,1600,solid,I,z,853,10,2,7647.600000023842,580173.8999999762,8080,ATS,C,3
3,test,3,C,mfborder.png,1,m,Fri Mar 13 2026 09:05:08 GMT-0500 (Central Daylight Time),590037.5999999642,CFD-BM-022-004-HC.jpg,1200,dash,I,m,987,6,2,9863.699999988079,580173.8999999762,8080,ATS,C,4
4,test,3,C,haborder.png,1,z,Fri Mar 13 2026 09:05:08 GMT-0500 (Central Daylight Time),592553.0999999642,CFD-WM-036-018-A.jpg,1400,solid,I,z,1092,7,2,12379.199999988079,580173.8999999762,8080,ATS,C,5
5,test,3,C,mfborder.png,1,z,Fri Mar 13 2026 09:05:08 GMT-0500 (Central Daylight Time),595169.0,CFD-BF-042-031-HC.jpg,1700,dash,I,z,891,1,2,14995.100000023842,580173.8999999762,8080,ATS,C,6
5,test,3,C,haborder.png,0,z,Fri Mar 13 2026 09:05:08 GMT-0500 (Central Daylight Time),597685.0999999642,CFD-BM-021-026-A.jpg,1700,solid,I,m,795,9,2,17511.19999998808,580173.8999999762,8080,ATS,C,7
6,test,3,C,haborder.png,1,z,Fri Mar 13 2026 09:05:08 GMT-0500 (Central Daylight Time),600434.3999999762,CFD-BM-043-014-A.jpg,1900,solid,I,z,823,8,2,20260.5,580173.8999999762,8080,ATS,C,8
7,test,3,C,mfborder.png,1,z,Fri Mar 13 2026 09:05:08 GMT-0500 (Central Daylight Time),603350.0999999642,CFD-WF-037-016-A.jpg,1500,dash,I,z,1395,3,2,23176.19999998808,580173.8999999762,8080,ATS,C,9
7,test,3,C,haborder.png,0,z,Fri Mar 13 2026 09:05:08 GMT-0500 (Central Daylight Time),606132.3999999762,CFD-BM-021-026-A.jpg,1700,solid,I,m,1055,9,2,25958.5,580173.8999999762,8080,ATS,C,10
8,test,3,C,mfborder.png,1,m,Fri Mar 13 2026 09:05:08 GMT-0500 (Central Daylight Time),608998.0999999642,CFD-WM-034-040-A.jpg,2000,dash,I,m,844,5,2,28824.19999998808,580173.8999999762,8080,ATS,C,11
9,test,3,C,mfborder.png,1,z,Fri Mar 13 2026 09:05:08 GMT-0500 (Central Daylight Time),611447.5999999642,CFD-BF-031-020-A.jpg,1600,dash,I,z,827,2,2,31273.69999998808,580173.8999999762,8080,ATS,C,12
10,test,3,C,haborder.png,1,m,Fri Mar 13 2026 09:05:08 GMT-0500 (Central Daylight Time),613430.5,CFD-WF-013-009-HC.jpg,1000,solid,I,m,954,12,2,33256.60000002384,580173.8999999762,8080,ATS,C,13
11,test,3,C,mfborder.png,1,m,Fri Mar 13 2026 09:05:08 GMT-0500 (Central Daylight Time),616679.1999999881,CFD-WM-034-040-A.jpg,2000,dash,I,m,1218,5,2,36505.30000001192,580173.8999999762,8080,ATS,C,14
11,test,3,C,haborder.png,0,m,Fri Mar 13 2026 09:05:08 GMT-0500 (Central Daylight Time),618945.0,CFD-WF-001-010-HC.jpg,1500,solid,I,z,742,11,2,38771.10000002384,580173.8999999762,8080,ATS,C,15
11,test,3,C,haborder.png,0,m,Fri Mar 13 2026 09:05:08 GMT-0500 (Central Daylight Time),621672.1999999881,CFD-BF-019-004-HC.jpg,1600,solid,I,z,964,10,2,41498.30000001192,580173.8999999762,8080,ATS,C,16
11,test,3,C,haborder.png,0,z,Fri Mar 13 2026 09:05:08 GMT-0500 (Central Daylight Time),624460.2999999523,CFD-BM-043-014-A.jpg,1900,solid,I,m,880,8,2,44286.39999997616,580173.8999999762,8080,ATS,C,17
12,test,3,C,mfborder.png,1,m,Fri Mar 13 2026 09:05:08 GMT-0500 (Central Daylight Time),626726.0999999642,CFD-BM-022-004-HC.jpg,1200,dash,I,m,1035,6,2,46552.19999998808,580173.8999999762,8080,ATS,C,18
13,test,3,C,mfborder.png,1,m,Fri Mar 13 2026 09:05:08 GMT-0500 (Central Daylight Time),628842.2999999523,CFD-WM-035-036-HC.jpg,1000,dash,I,m,1090,4,2,48668.39999997616,580173.8999999762,8080,ATS,C,19
14,test,3,C,mfborder.png,1,m,Fri Mar 13 2026 09:05:08 GMT-0500 (Central Daylight Time),630625.0999999642,CFD-WM-035-036-HC.jpg,1000,dash,I,m,758,4,2,50451.19999998808,580173.8999999762,8080,ATS,C,20
14,test,3,C,haborder.png,0,m,Fri Mar 13 2026 09:05:08 GMT-0500 (Central Daylight Time),633390.5,CFD-WF-001-010-HC.jpg,1500,solid,I,z,1245,11,2,53216.60000002384,580173.8999999762,8080,ATS,C,21
15,test,3,C,mfborder.png,1,z,Fri Mar 13 2026 09:05:08 GMT-0500 (Central Daylight Time),636256.3999999762,CFD-WF-037-016-A.jpg,1500,dash,I,z,1334,3,2,56082.5,580173.8999999762,8080,ATS,C,22
16,test,3,C,mfborder.png,1,z,Fri Mar 13 2026 09:05:08 GMT-0500 (Central Daylight Time),638622.3999999762,CFD-BF-031-020-A.jpg,1600,dash,I,z,736,2,2,58448.5,580173.8999999762,8080,ATS,C,23
16,test,3,C,haborder.png,0,z,Fri Mar 13 2026 09:05:08 GMT-0500 (Central Daylight Time),640921.6999999881,CFD-WM-036-018-A.jpg,1400,solid,I,m,866,7,2,60747.80000001192,580173.8999999762,8080,ATS,C,24
0,test,4,C,mfborder.png,0,m,Fri Mar 13 2026 09:05:08 GMT-0500 (Central Daylight Time),650185.0,CFD-BM-043-014-A.jpg,2000,dash,I,z,1391,5,2,3415.5,646769.5,8080,ATS,C,1
0,test,4,C,haborder.png,0,z,Fri Mar 13 2026 09:05:08 GMT-0500 (Central Daylight Time),653117.7999999523,CFD-BF-031-020-A.jpg,1400,solid,I,None,1517,7,2,6348.299999952316,646769.5,8080,ATS,C,2
1,test,4,C,haborder.png,1,z,Fri Mar 13 2026 09:05:08 GMT-0500 (Central Daylight Time),655966.3999999762,CFD-BF-002-018-A.jpg,1900,solid,I,z,919,8,2,9196.899999976158,646769.5,8080,ATS,C,3
2,test,4,C,haborder.png,1,m,Fri Mar 13 2026 09:05:08 GMT-0500 (Central Daylight Time),658216.0999999642,CFD-WM-028-005-HC.jpg,1000,solid,I,m,1217,12,2,11446.599999964237,646769.5,8080,ATS,C,4
3,test,4,C,haborder.png,1,z,Fri Mar 13 2026 09:05:08 GMT-0500 (Central Daylight Time),660848.5999999642,CFD-WF-037-016-A.jpg,1700,solid,I,z,901,9,2,14079.099999964237,646769.5,8080,ATS,C,5
4,test,4,C,mfborder.png,1,z,Fri Mar 13 2026 09:05:08 GMT-0500 (Central Daylight Time),663497.6999999881,CFD-WF-023-013-A.jpg,1600,dash,I,z,1024,2,2,16728.19999998808,646769.5,8080,ATS,C,6
5,test,4,C,mfborder.png,1,z,Fri Mar 13 2026 09:05:08 GMT-0500 (Central Daylight Time),665746.8999999762,CFD-WF-023-013-A.jpg,1600,dash,I,z,623,2,2,18977.399999976158,646769.5,8080,ATS,C,7
5,test,4,C,haborder.png,0,m,Fri Mar 13 2026 09:05:08 GMT-0500 (Central Daylight Time),668880.5999999642,CFD-BM-022-004-HC.jpg,1600,solid,I,None,1517,10,2,22111.099999964237,646769.5,8080,ATS,C,8
5,test,4,C,mfborder.png,0,m,Fri Mar 13 2026 09:05:08 GMT-0500 (Central Daylight Time),672178.2999999523,CFD-BM-043-014-A.jpg,2000,dash,I,z,1273,5,2,25408.799999952316,646769.5,8080,ATS,C,9
6,test,4,C,mfborder.png,1,m,Fri Mar 13 2026 09:05:08 GMT-0500 (Central Daylight Time),673979.0999999642,CFD-WM-036-018-A.jpg,1200,dash,I,m,574,6,2,27209.599999964237,646769.5,8080,ATS,C,10
7,test,4,C,haborder.png,1,z,Fri Mar 13 2026 09:05:08 GMT-0500 (Central Daylight Time),676427.0999999642,CFD-WF-037-016-A.jpg,1700,solid,I,z,724,9,2,29657.599999964237,646769.5,8080,ATS,C,11
8,test,4,C,haborder.png,1,m,Fri Mar 13 2026 09:05:08 GMT-0500 (Central Daylight Time),679209.5999999642,CFD-BM-022-004-HC.jpg,1600,solid,I,m,1158,10,2,32440.099999964237,646769.5,8080,ATS,C,12
9,test,4,C,mfborder.png,1,z,Fri Mar 13 2026 09:05:08 GMT-0500 (Central Daylight Time),681792.0,CFD-BF-019-004-HC.jpg,1500,dash,I,z,1051,3,2,35022.5,646769.5,8080,ATS,C,13
9,test,4,C,haborder.png,0,z,Fri Mar 13 2026 09:05:08 GMT-0500 (Central Daylight Time),684724.5,CFD-BF-031-020-A.jpg,1400,solid,I,None,1515,7,2,37955.0,646769.5,8080,ATS,C,14
10,test,4,C,haborder.png,1,z,Fri Mar 13 2026 09:05:08 GMT-0500 (Central Daylight Time),687373.6999999881,CFD-BF-002-018-A.jpg,1900,solid,I,z,721,8,2,40604.19999998808,646769.5,8080,ATS,C,15
10,test,4,C,mfborder.png,0,z,Fri Mar 13 2026 09:05:08 GMT-0500 (Central Daylight Time),689756.1999999881,CFD-WF-013-009-HC.jpg,1700,dash,I,m,663,1,2,42986.69999998808,646769.5,8080,ATS,C,16
10,test,4,C,mfborder.png,0,z,Fri Mar 13 2026 09:05:08 GMT-0500 (Central Daylight Time),692203.0,CFD-BF-019-004-HC.jpg,1500,dash,I,m,930,3,2,45433.5,646769.5,8080,ATS,C,17
11,test,4,C,haborder.png,1,m,Fri Mar 13 2026 09:05:08 GMT-0500 (Central Daylight Time),694787.7999999523,CFD-WM-028-005-HC.jpg,1500,solid,I,m,1064,11,2,48018.299999952316,646769.5,8080,ATS,C,18
11,test,4,C,mfborder.png,0,z,Fri Mar 13 2026 09:05:08 GMT-0500 (Central Daylight Time),697220.5,CFD-WF-013-009-HC.jpg,1700,dash,I,m,712,1,2,50451.0,646769.5,8080,ATS,C,19
12,test,4,C,haborder.png,1,m,Fri Mar 13 2026 09:05:08 GMT-0500 (Central Daylight Time),698903.5,CFD-WM-028-005-HC.jpg,1000,solid,I,m,652,12,2,52134.0,646769.5,8080,ATS,C,20
13,test,4,C,mfborder.png,1,m,Fri Mar 13 2026 09:05:08 GMT-0500 (Central Daylight Time),701019.3999999762,CFD-WM-036-018-A.jpg,1200,dash,I,m,897,6,2,54249.89999997616,646769.5,8080,ATS,C,21
14,test,4,C,mfborder.png,1,m,Fri Mar 13 2026 09:05:08 GMT-0500 (Central Daylight Time),703001.7999999523,CFD-BM-034-035-HC.jpg,1000,dash,I,m,950,4,2,56232.299999952316,646769.5,8080,ATS,C,22
15,test,4,C,mfborder.png,1,m,Fri Mar 13 2026 09:05:08 GMT-0500 (Central Daylight Time),704601.5999999642,CFD-BM-034-035-HC.jpg,1000,dash,I,m,582,4,2,57832.09999996424,646769.5,8080,ATS,C,23
15,test,4,C,haborder.png,0,m,Fri Mar 13 2026 09:05:08 GMT-0500 (Central Daylight Time),707017.5,CFD-WM-028-005-HC.jpg,1500,solid,I,z,884,11,2,60248.0,646769.5,8080,ATS,C,24
