acc_sum,block,block_c,change,condition,correct,correct_response,datetime,endtime,face,project,response,response_time,row_sel,session_number,start_end,starttime,subject_id,task,task_vers,trial
0,prac,1,,1-Back,,,Fri Jan 09 2026 10:02:04 GMT-0600 (Central Standard Time),,005_o_f_d_a.png,O,space,8634,1,1,,,7727,VNB,B,0
1,prac,1,0.0,1-Back,1.0,m,Fri Jan 09 2026 10:02:04 GMT-0600 (Central Standard Time),171667.40000009537,020_y_f_n_a.png,O,m,1088,2,1,1908.6000001430511,169758.79999995232,7727,VNB,B,1
2,prac,1,0.0,1-Back,1.0,m,Fri Jan 09 2026 10:02:04 GMT-0600 (Central Standard Time),173864.5,007_m_m_h_a.png,O,m,1331,3,1,2185.399999856949,171679.10000014305,7727,VNB,B,2
3,prac,1,0.0,1-Back,1.0,m,Fri Jan 09 2026 10:02:04 GMT-0600 (Central Standard Time),175584.0,016_y_m_d_a.png,O,m,858,4,1,1708.5999999046326,173875.40000009537,7727,VNB,B,3
4,prac,1,0.0,1-Back,1.0,m,Fri Jan 09 2026 10:02:04 GMT-0600 (Central Standard Time),177730.79999995232,005_o_f_n_a.png,O,m,1307,5,1,2139.399999856949,175591.40000009537,7727,VNB,B,4
4,prac,1,1.0,1-Back,0.0,z,Fri Jan 09 2026 10:02:04 GMT-0600 (Central Standard Time),180146.5,016_y_m_n_a.png,O,m,1562,6,1,2400.7000000476837,177745.79999995232,7727,VNB,B,5
5,prac,1,0.0,1-Back,1.0,m,Fri Jan 09 2026 10:02:04 GMT-0600 (Central Standard Time),182478.20000004768,004_o_m_h_a.png,O,m,1477,7,1,2322.0,180156.20000004768,7727,VNB,B,6
6,prac,1,0.0,1-Back,1.0,m,Fri Jan 09 2026 10:02:04 GMT-0600 (Central Standard Time),184862.29999995232,011_m_f_d_a.png,O,m,1534,8,1,2377.7999999523163,182484.5,7727,VNB,B,7
7,prac,1,1.0,1-Back,1.0,z,Fri Jan 09 2026 10:02:04 GMT-0600 (Central Standard Time),186536.20000004768,020_y_f_d_a.png,O,z,830,9,1,1665.0999999046326,184871.10000014305,7727,VNB,B,8
8,prac,1,0.0,1-Back,1.0,m,Fri Jan 09 2026 10:02:04 GMT-0600 (Central Standard Time),188843.10000014305,007_m_m_n_a.png,O,m,1413,10,1,2300.4000000953674,186542.70000004768,7727,VNB,B,9
9,prac,1,0.0,1-Back,1.0,m,Fri Jan 09 2026 10:02:04 GMT-0600 (Central Standard Time),191294.29999995232,005_o_f_h_a.png,O,m,1608,11,1,2442.899999856949,188851.40000009537,7727,VNB,B,10
10,prac,1,0.0,1-Back,1.0,m,Fri Jan 09 2026 10:02:04 GMT-0600 (Central Standard Time),194141.10000014305,016_y_m_d_a.png,O,m,1981,12,1,2837.2000000476837,191303.90000009537,7727,VNB,B,11
0,test,1,0.0,1-Back,,,Fri Jan 09 2026 10:02:04 GMT-0600 (Central Standard Time),194141.10000014305,020_y_f_d_a.png,O,space,11456,1,1,2837.2000000476837,191303.90000009537,7727,VNB,B,0
1,test,1,0.0,1-Back,1.0,m,Fri Jan 09 2026 10:02:04 GMT-0600 (Central Standard Time),218817.40000009537,011_m_f_n_a.png,O,m,1275,2,1,2296.2999999523163,216521.10000014305,7727,VNB,B,1
1,test,1,0.0,1-Back,0.0,m,Fri Jan 09 2026 10:02:04 GMT-0600 (Central Standard Time),221435.79999995232,004_o_m_h_a.png,O,z,1602,3,1,2611.199999809265,218824.60000014305,7727,VNB,B,2
2,test,1,1.0,1-Back,1.0,z,Fri Jan 09 2026 10:02:04 GMT-0600 (Central Standard Time),223282.20000004768,007_m_m_h_a.png,O,z,832,4,1,1840.5,221441.70000004768,7727,VNB,B,3
3,test,1,0.0,1-Back,1.0,m,Fri Jan 09 2026 10:02:04 GMT-0600 (Central Standard Time),225149.60000014305,005_o_f_n_a.png,O,m,846,5,1,1859.8000001907349,223289.79999995232,7727,VNB,B,4
4,test,1,0.0,1-Back,1.0,m,Fri Jan 09 2026 10:02:04 GMT-0600 (Central Standard Time),227632.0,016_y_m_d_a.png,O,m,1451,6,1,2477.2000000476837,225154.79999995232,7727,VNB,B,5
5,test,1,1.0,1-Back,1.0,z,Fri Jan 09 2026 10:02:04 GMT-0600 (Central Standard Time),230230.90000009537,011_m_f_d_a.png,O,z,1576,7,1,2590.7999999523163,227640.10000014305,7727,VNB,B,6
6,test,1,0.0,1-Back,1.0,m,Fri Jan 09 2026 10:02:04 GMT-0600 (Central Standard Time),232779.90000009537,020_y_f_h_a.png,O,m,1530,8,1,2542.7000000476837,230237.20000004768,7727,VNB,B,7
7,test,1,0.0,1-Back,1.0,m,Fri Jan 09 2026 10:02:04 GMT-0600 (Central Standard Time),235444.79999995232,004_o_m_n_a.png,O,m,1638,9,1,2658.7999999523163,232786.0,7727,VNB,B,8
8,test,1,0.0,1-Back,1.0,m,Fri Jan 09 2026 10:02:04 GMT-0600 (Central Standard Time),237327.60000014305,016_y_m_h_a.png,O,m,850,10,1,1875.2000000476837,235452.40000009537,7727,VNB,B,9
9,test,1,0.0,1-Back,1.0,m,Fri Jan 09 2026 10:02:04 GMT-0600 (Central Standard Time),239560.10000014305,004_o_m_d_a.png,O,m,1200,11,1,2225.800000190735,237334.29999995232,7727,VNB,B,10
10,test,1,1.0,1-Back,1.0,z,Fri Jan 09 2026 10:02:04 GMT-0600 (Central Standard Time),241527.0,005_o_f_d_a.png,O,z,935,12,1,1959.5999999046326,239567.40000009537,7727,VNB,B,11
11,test,1,0.0,1-Back,1.0,m,Fri Jan 09 2026 10:02:04 GMT-0600 (Central Standard Time),243875.20000004768,007_m_m_n_a.png,O,m,1321,13,1,2338.7999999523163,241536.40000009537,7727,VNB,B,12
12,test,1,1.0,1-Back,1.0,z,Fri Jan 09 2026 10:02:04 GMT-0600 (Central Standard Time),246191.10000014305,020_y_f_n_a.png,O,z,1284,14,1,2307.2000000476837,243883.90000009537,7727,VNB,B,13
13,test,1,0.0,1-Back,1.0,m,Fri Jan 09 2026 10:02:04 GMT-0600 (Central Standard Time),248108.0,011_m_f_h_a.png,O,m,897,15,1,1910.2999999523163,246197.70000004768,7727,VNB,B,14
14,test,1,0.0,1-Back,1.0,m,Fri Jan 09 2026 10:02:04 GMT-0600 (Central Standard Time),250373.60000014305,007_m_m_d_a.png,O,m,1244,16,1,2257.7000000476837,248115.90000009537,7727,VNB,B,15
15,test,1,0.0,1-Back,1.0,m,Fri Jan 09 2026 10:02:04 GMT-0600 (Central Standard Time),252423.29999995232,016_y_m_n_a.png,O,m,1027,17,1,2042.8999998569489,250380.40000009537,7727,VNB,B,16
16,test,1,0.0,1-Back,1.0,m,Fri Jan 09 2026 10:02:04 GMT-0600 (Central Standard Time),254638.79999995232,005_o_f_h_a.png,O,m,1193,18,1,2208.399999856949,252430.40000009537,7727,VNB,B,17
0,test,2,0.0,1-Back,,,Fri Jan 09 2026 10:02:04 GMT-0600 (Central Standard Time),254638.79999995232,016_y_m_n_a.png,O,space,3457,1,1,2208.399999856949,252430.40000009537,7727,VNB,B,0
1,test,2,0.0,1-Back,1.0,m,Fri Jan 09 2026 10:02:04 GMT-0600 (Central Standard Time),262219.7000000477,020_y_f_h_a.png,O,m,1079,2,1,2089.4000000953674,260130.29999995232,7727,VNB,B,1
2,test,2,1.0,1-Back,1.0,m,Fri Jan 09 2026 10:02:04 GMT-0600 (Central Standard Time),264285.40000009537,004_o_m_n_a.png,O,m,1045,3,1,2058.5,262226.90000009537,7727,VNB,B,2
3,test,2,0.0,1-Back,1.0,m,Fri Jan 09 2026 10:02:04 GMT-0600 (Central Standard Time),266501.5,011_m_f_d_a.png,O,m,1185,4,1,2209.0,264292.5,7727,VNB,B,3
3,test,2,0.0,1-Back,0.0,z,Fri Jan 09 2026 10:02:04 GMT-0600 (Central Standard Time),268800.7000000477,007_m_m_d_a.png,O,m,1279,5,1,2292.5,266508.2000000477,7727,VNB,B,4
4,test,2,0.0,1-Back,1.0,m,Fri Jan 09 2026 10:02:04 GMT-0600 (Central Standard Time),271017.90000009537,016_y_m_h_a.png,O,m,1200,6,1,2210.5,268807.40000009537,7727,VNB,B,5
5,test,2,1.0,1-Back,1.0,z,Fri Jan 09 2026 10:02:04 GMT-0600 (Central Standard Time),273099.2999999523,005_o_f_h_a.png,O,z,1066,7,1,2072.5999999046326,271026.7000000477,7727,VNB,B,6
6,test,2,0.0,1-Back,1.0,m,Fri Jan 09 2026 10:02:04 GMT-0600 (Central Standard Time),275515.2999999523,011_m_f_n_a.png,O,m,1388,8,1,2408.399999856949,273106.90000009537,7727,VNB,B,7
7,test,2,0.0,1-Back,1.0,m,Fri Jan 09 2026 10:02:04 GMT-0600 (Central Standard Time),277748.60000014305,020_y_f_d_a.png,O,m,1204,9,1,2226.300000190735,275522.2999999523,7727,VNB,B,8
8,test,2,0.0,1-Back,1.0,m,Fri Jan 09 2026 10:02:04 GMT-0600 (Central Standard Time),279914.2999999523,007_m_m_n_a.png,O,m,1138,10,1,2158.0999999046326,277756.2000000477,7727,VNB,B,9
9,test,2,1.0,1-Back,1.0,m,Fri Jan 09 2026 10:02:04 GMT-0600 (Central Standard Time),282013.10000014305,011_m_f_h_a.png,O,m,1076,11,1,2091.4000000953674,279921.7000000477,7727,VNB,B,10
10,test,2,0.0,1-Back,1.0,z,Fri Jan 09 2026 10:02:04 GMT-0600 (Central Standard Time),284012.2999999523,004_o_m_h_a.png,O,z,971,12,1,1992.2999999523163,282020.0,7727,VNB,B,11
11,test,2,0.0,1-Back,1.0,m,Fri Jan 09 2026 10:02:04 GMT-0600 (Central Standard Time),285779.7000000477,016_y_m_d_a.png,O,m,744,13,1,1764.0,284015.7000000477,7727,VNB,B,12
12,test,2,0.0,1-Back,1.0,m,Fri Jan 09 2026 10:02:04 GMT-0600 (Central Standard Time),287961.0,005_o_f_n_a.png,O,m,1165,14,1,2176.5,285784.5,7727,VNB,B,13
13,test,2,0.0,1-Back,1.0,z,Fri Jan 09 2026 10:02:04 GMT-0600 (Central Standard Time),290843.40000009537,020_y_f_n_a.png,O,z,1854,15,1,2878.5,287964.90000009537,7727,VNB,B,14
14,test,2,1.0,1-Back,1.0,m,Fri Jan 09 2026 10:02:04 GMT-0600 (Central Standard Time),292744.7000000477,007_m_m_h_a.png,O,m,883,16,1,1893.9000000953674,290850.7999999523,7727,VNB,B,15
15,test,2,0.0,1-Back,1.0,m,Fri Jan 09 2026 10:02:04 GMT-0600 (Central Standard Time),295175.7999999523,005_o_f_d_a.png,O,m,1415,17,1,2426.5999999046326,292749.2000000477,7727,VNB,B,16
15,test,2,1.0,1-Back,0.0,z,Fri Jan 09 2026 10:02:04 GMT-0600 (Central Standard Time),298209.0,004_o_m_d_a.png,O,None,2017,18,1,3030.0,295179.0,7727,VNB,B,17
0,test,3,1.0,1-Back,,,Fri Jan 09 2026 10:02:04 GMT-0600 (Central Standard Time),298209.0,005_o_f_h_a.png,O,space,8911,1,1,3030.0,295179.0,7727,VNB,B,0
0,test,3,0.0,1-Back,0.0,m,Fri Jan 09 2026 10:02:04 GMT-0600 (Central Standard Time),311387.10000014305,011_m_f_d_a.png,O,z,1138,2,1,2158.2000000476837,309228.90000009537,7727,VNB,B,1
0,test,3,1.0,1-Back,0.0,m,Fri Jan 09 2026 10:02:04 GMT-0600 (Central Standard Time),314420.2000000477,007_m_m_n_a.png,O,None,2016,3,1,3024.2999999523163,311395.90000009537,7727,VNB,B,2
0,test,3,0.0,1-Back,0.0,z,Fri Jan 09 2026 10:02:04 GMT-0600 (Central Standard Time),316819.40000009537,005_o_f_n_a.png,O,m,1380,4,1,2392.600000143051,314426.7999999523,7727,VNB,B,3
1,test,3,1.0,1-Back,1.0,m,Fri Jan 09 2026 10:02:04 GMT-0600 (Central Standard Time),319335.90000009537,004_o_m_d_a.png,O,m,1501,5,1,2506.600000143051,316829.2999999523,7727,VNB,B,4
2,test,3,0.0,1-Back,1.0,m,Fri Jan 09 2026 10:02:04 GMT-0600 (Central Standard Time),321167.90000009537,020_y_f_h_a.png,O,m,800,6,1,1826.5,319341.40000009537,7727,VNB,B,5
2,test,3,0.0,1-Back,0.0,z,Fri Jan 09 2026 10:02:04 GMT-0600 (Central Standard Time),323500.5,016_y_m_h_a.png,O,m,1301,7,1,2327.7000000476837,321172.7999999523,7727,VNB,B,6
3,test,3,0.0,1-Back,1.0,m,Fri Jan 09 2026 10:02:04 GMT-0600 (Central Standard Time),325748.7999999523,011_m_f_n_a.png,O,m,1227,8,1,2244.399999856949,323504.40000009537,7727,VNB,B,7
4,test,3,0.0,1-Back,1.0,m,Fri Jan 09 2026 10:02:04 GMT-0600 (Central Standard Time),327665.2000000477,020_y_f_d_a.png,O,m,887,9,1,1908.7000000476837,325756.5,7727,VNB,B,8
5,test,3,1.0,1-Back,1.0,m,Fri Jan 09 2026 10:02:04 GMT-0600 (Central Standard Time),329897.2999999523,004_o_m_n_a.png,O,m,1205,10,1,2225.5999999046326,327671.7000000477,7727,VNB,B,9
6,test,3,0.0,1-Back,1.0,m,Fri Jan 09 2026 10:02:04 GMT-0600 (Central Standard Time),332363.0,007_m_m_h_a.png,O,m,1436,11,1,2462.2999999523163,329900.7000000477,7727,VNB,B,10
7,test,3,0.0,1-Back,1.0,z,Fri Jan 09 2026 10:02:04 GMT-0600 (Central Standard Time),334097.7999999523,011_m_f_h_a.png,O,z,716,12,1,1728.3999998569489,332369.40000009537,7727,VNB,B,11
8,test,3,1.0,1-Back,1.0,m,Fri Jan 09 2026 10:02:04 GMT-0600 (Central Standard Time),335929.60000014305,005_o_f_d_a.png,O,m,814,13,1,1822.7000000476837,334106.90000009537,7727,VNB,B,12
8,test,3,0.0,1-Back,0.0,z,Fri Jan 09 2026 10:02:04 GMT-0600 (Central Standard Time),338012.7000000477,007_m_m_d_a.png,O,m,1054,14,1,2074.7999999523163,335937.90000009537,7727,VNB,B,13
9,test,3,0.0,1-Back,1.0,m,Fri Jan 09 2026 10:02:04 GMT-0600 (Central Standard Time),340862.2000000477,016_y_m_n_a.png,O,m,1819,15,1,2844.4000000953674,338017.7999999523,7727,VNB,B,14
10,test,3,1.0,1-Back,1.0,m,Fri Jan 09 2026 10:02:04 GMT-0600 (Central Standard Time),342810.5,004_o_m_h_a.png,O,m,931,16,1,1943.8999998569489,340866.60000014305,7727,VNB,B,15
11,test,3,0.0,1-Back,1.0,m,Fri Jan 09 2026 10:02:04 GMT-0600 (Central Standard Time),344843.10000014305,016_y_m_d_a.png,O,m,1012,17,1,2026.2000000476837,342816.90000009537,7727,VNB,B,16
12,test,3,1.0,1-Back,1.0,m,Fri Jan 09 2026 10:02:04 GMT-0600 (Central Standard Time),346810.0,020_y_f_n_a.png,O,m,948,18,1,1958.8999998569489,344851.10000014305,7727,VNB,B,17
0,test,4,1.0,1-Back,,,Fri Jan 09 2026 10:02:04 GMT-0600 (Central Standard Time),346810.0,007_m_m_d_a.png,O,space,3326,1,1,1958.8999998569489,344851.10000014305,7727,VNB,B,0
1,test,4,0.0,1-Back,1.0,z,Fri Jan 09 2026 10:02:04 GMT-0600 (Central Standard Time),355040.40000009537,004_o_m_d_a.png,O,z,1859,2,1,2878.4000000953674,352162.0,7727,VNB,B,1
2,test,4,0.0,1-Back,1.0,m,Fri Jan 09 2026 10:02:04 GMT-0600 (Central Standard Time),356822.90000009537,016_y_m_h_a.png,O,m,758,3,1,1773.4000000953674,355049.5,7727,VNB,B,2
3,test,4,0.0,1-Back,1.0,m,Fri Jan 09 2026 10:02:04 GMT-0600 (Central Standard Time),358889.7000000477,011_m_f_n_a.png,O,m,1040,4,1,2058.5,356831.2000000477,7727,VNB,B,3
4,test,4,1.0,1-Back,1.0,m,Fri Jan 09 2026 10:02:04 GMT-0600 (Central Standard Time),361205.2999999523,005_o_f_h_a.png,O,m,1285,5,1,2308.0999999046326,358897.2000000477,7727,VNB,B,4
5,test,4,0.0,1-Back,1.0,m,Fri Jan 09 2026 10:02:04 GMT-0600 (Central Standard Time),363137.90000009537,007_m_m_n_a.png,O,m,907,6,1,1924.2999999523163,361213.60000014305,7727,VNB,B,5
6,test,4,0.0,1-Back,1.0,m,Fri Jan 09 2026 10:02:04 GMT-0600 (Central Standard Time),365187.0,016_y_m_d_a.png,O,m,1017,7,1,2043.8999998569489,363143.10000014305,7727,VNB,B,6
7,test,4,1.0,1-Back,1.0,z,Fri Jan 09 2026 10:02:04 GMT-0600 (Central Standard Time),367420.10000014305,020_y_f_d_a.png,O,z,1214,8,1,2227.4000000953674,365192.7000000477,7727,VNB,B,7
8,test,4,0.0,1-Back,1.0,m,Fri Jan 09 2026 10:02:04 GMT-0600 (Central Standard Time),369352.7999999523,011_m_f_h_a.png,O,m,914,9,1,1928.7999999523163,367424.0,7727,VNB,B,8
9,test,4,0.0,1-Back,1.0,z,Fri Jan 09 2026 10:02:04 GMT-0600 (Central Standard Time),371568.7999999523,004_o_m_h_a.png,O,z,1191,10,1,2203.5999999046326,369365.2000000477,7727,VNB,B,9
10,test,4,1.0,1-Back,1.0,m,Fri Jan 09 2026 10:02:04 GMT-0600 (Central Standard Time),373485.2000000477,005_o_f_n_a.png,O,m,887,11,1,1907.5999999046326,371577.60000014305,7727,VNB,B,10
11,test,4,0.0,1-Back,1.0,m,Fri Jan 09 2026 10:02:04 GMT-0600 (Central Standard Time),375884.90000009537,011_m_f_d_a.png,O,m,1381,12,1,2395.100000143051,373489.7999999523,7727,VNB,B,11
12,test,4,0.0,1-Back,1.0,m,Fri Jan 09 2026 10:02:04 GMT-0600 (Central Standard Time),377850.60000014305,020_y_f_n_a.png,O,m,933,13,1,1959.6000001430511,375891.0,7727,VNB,B,12
13,test,4,0.0,1-Back,1.0,m,Fri Jan 09 2026 10:02:04 GMT-0600 (Central Standard Time),379916.10000014305,005_o_f_d_a.png,O,m,1033,14,1,2058.800000190735,377857.2999999523,7727,VNB,B,13
14,test,4,0.0,1-Back,1.0,m,Fri Jan 09 2026 10:02:04 GMT-0600 (Central Standard Time),382664.2999999523,020_y_f_h_a.png,O,m,1717,15,1,2742.7999999523163,379921.5,7727,VNB,B,14
14,test,4,1.0,1-Back,0.0,z,Fri Jan 09 2026 10:02:04 GMT-0600 (Central Standard Time),385415.7000000477,007_m_m_h_a.png,O,m,1718,16,1,2737.7000000476837,382678.0,7727,VNB,B,15
15,test,4,0.0,1-Back,1.0,m,Fri Jan 09 2026 10:02:04 GMT-0600 (Central Standard Time),387329.60000014305,004_o_m_n_a.png,O,m,892,17,1,1904.6000001430511,385425.0,7727,VNB,B,16
15,test,4,1.0,1-Back,0.0,z,Fri Jan 09 2026 10:02:04 GMT-0600 (Central Standard Time),389163.10000014305,016_y_m_n_a.png,O,m,806,18,1,1826.4000000953674,387336.7000000477,7727,VNB,B,17
0,test,5,1.0,1-Back,,,Fri Jan 09 2026 10:02:04 GMT-0600 (Central Standard Time),389163.10000014305,004_o_m_n_a.png,O,space,4076,1,1,1826.4000000953674,387336.7000000477,7727,VNB,B,0
1,test,5,1.0,1-Back,1.0,m,Fri Jan 09 2026 10:02:04 GMT-0600 (Central Standard Time),398276.5,005_o_f_h_a.png,O,m,1994,2,1,3008.2000000476837,395268.2999999523,7727,VNB,B,1
2,test,5,0.0,1-Back,1.0,m,Fri Jan 09 2026 10:02:04 GMT-0600 (Central Standard Time),400042.2000000477,016_y_m_d_a.png,O,m,739,3,1,1759.2000000476837,398283.0,7727,VNB,B,2
3,test,5,0.0,1-Back,1.0,z,Fri Jan 09 2026 10:02:04 GMT-0600 (Central Standard Time),401891.7999999523,004_o_m_d_a.png,O,z,829,4,1,1842.7999999523163,400049.0,7727,VNB,B,3
4,test,5,0.0,1-Back,1.0,m,Fri Jan 09 2026 10:02:04 GMT-0600 (Central Standard Time),403809.10000014305,011_m_f_h_a.png,O,m,901,5,1,1906.7000000476837,401902.40000009537,7727,VNB,B,4
5,test,5,0.0,1-Back,1.0,m,Fri Jan 09 2026 10:02:04 GMT-0600 (Central Standard Time),405573.40000009537,020_y_f_n_a.png,O,m,735,6,1,1756.2000000476837,403817.2000000477,7727,VNB,B,5
6,test,5,1.0,1-Back,1.0,z,Fri Jan 09 2026 10:02:04 GMT-0600 (Central Standard Time),407690.0,005_o_f_n_a.png,O,z,1099,7,1,2109.899999856949,405580.10000014305,7727,VNB,B,6
7,test,5,0.0,1-Back,1.0,m,Fri Jan 09 2026 10:02:04 GMT-0600 (Central Standard Time),409839.7000000477,011_m_f_d_a.png,O,m,1125,8,1,2144.2999999523163,407695.40000009537,7727,VNB,B,7
8,test,5,0.0,1-Back,1.0,m,Fri Jan 09 2026 10:02:04 GMT-0600 (Central Standard Time),411856.7000000477,016_y_m_h_a.png,O,m,980,9,1,2009.2999999523163,409847.40000009537,7727,VNB,B,8
9,test,5,0.0,1-Back,1.0,m,Fri Jan 09 2026 10:02:04 GMT-0600 (Central Standard Time),413589.2999999523,020_y_f_d_a.png,O,m,705,10,1,1725.0,411864.2999999523,7727,VNB,B,9
10,test,5,0.0,1-Back,1.0,m,Fri Jan 09 2026 10:02:04 GMT-0600 (Central Standard Time),415338.0,007_m_m_n_a.png,O,m,731,11,1,1741.8999998569489,413596.10000014305,7727,VNB,B,10
10,test,5,1.0,1-Back,0.0,z,Fri Jan 09 2026 10:02:04 GMT-0600 (Central Standard Time),417203.40000009537,011_m_f_n_a.png,O,m,839,12,1,1857.5,415345.90000009537,7727,VNB,B,11
11,test,5,0.0,1-Back,1.0,m,Fri Jan 09 2026 10:02:04 GMT-0600 (Central Standard Time),419937.60000014305,004_o_m_h_a.png,O,m,1704,13,1,2730.7000000476837,417206.90000009537,7727,VNB,B,12
12,test,5,0.0,1-Back,1.0,z,Fri Jan 09 2026 10:02:04 GMT-0600 (Central Standard Time),422157.10000014305,007_m_m_h_a.png,O,z,1190,14,1,2214.300000190735,419942.7999999523,7727,VNB,B,13
13,test,5,1.0,1-Back,1.0,m,Fri Jan 09 2026 10:02:04 GMT-0600 (Central Standard Time),423935.60000014305,005_o_f_d_a.png,O,m,760,15,1,1775.6000001430511,422160.0,7727,VNB,B,14
14,test,5,0.0,1-Back,1.0,m,Fri Jan 09 2026 10:02:04 GMT-0600 (Central Standard Time),426018.7000000477,016_y_m_n_a.png,O,m,1064,16,1,2076.7000000476837,423942.0,7727,VNB,B,15
15,test,5,0.0,1-Back,1.0,m,Fri Jan 09 2026 10:02:04 GMT-0600 (Central Standard Time),428232.60000014305,020_y_f_h_a.png,O,m,1189,17,1,2208.5,426024.10000014305,7727,VNB,B,16
16,test,5,0.0,1-Back,1.0,m,Fri Jan 09 2026 10:02:04 GMT-0600 (Central Standard Time),430183.7999999523,007_m_m_d_a.png,O,m,926,18,1,1947.0,428236.7999999523,7727,VNB,B,17
0,prac,1,0.0,2-Back,,,Fri Jan 09 2026 10:02:04 GMT-0600 (Central Standard Time),430183.7999999523,011_m_f_n_a.png,O,space,8090,1,1,1947.0,428236.7999999523,7727,VNB,B,0
0,prac,1,0.0,2-Back,,,Fri Jan 09 2026 10:02:04 GMT-0600 (Central Standard Time),430183.7999999523,005_o_f_h_a.png,O,space,8090,2,1,1947.0,428236.7999999523,7727,VNB,B,0
1,prac,1,0.0,2-Back,1.0,m,Fri Jan 09 2026 10:02:04 GMT-0600 (Central Standard Time),546079.7000000477,004_o_m_d_a.png,O,m,1840,3,1,2672.4000000953674,543407.2999999523,7727,VNB,B,1
1,prac,1,1.0,2-Back,0.0,z,Fri Jan 09 2026 10:02:04 GMT-0600 (Central Standard Time),548930.0,007_m_m_h_a.png,O,None,2007,4,1,2840.399999856949,546089.600000143,7727,VNB,B,2
1,prac,1,0.0,2-Back,0.0,m,Fri Jan 09 2026 10:02:04 GMT-0600 (Central Standard Time),551778.4000000954,020_y_f_n_a.png,O,None,2003,5,1,2837.600000143051,548940.7999999523,7727,VNB,B,3
2,prac,1,1.0,2-Back,1.0,z,Fri Jan 09 2026 10:02:04 GMT-0600 (Central Standard Time),554075.2999999523,004_o_m_h_a.png,O,z,1508,6,1,2287.5,551787.7999999523,7727,VNB,B,4
2,prac,1,1.0,2-Back,0.0,z,Fri Jan 09 2026 10:02:04 GMT-0600 (Central Standard Time),556526.0,016_y_m_n_a.png,O,m,1580,7,1,2446.5999999046326,554079.4000000954,7727,VNB,B,5
3,prac,1,0.0,2-Back,1.0,m,Fri Jan 09 2026 10:02:04 GMT-0600 (Central Standard Time),558843.7000000477,011_m_f_d_a.png,O,m,1470,8,1,2310.2000000476837,556533.5,7727,VNB,B,6
4,prac,1,0.0,2-Back,1.0,m,Fri Jan 09 2026 10:02:04 GMT-0600 (Central Standard Time),560923.7999999523,005_o_f_d_a.png,O,m,1214,9,1,2071.0,558852.7999999523,7727,VNB,B,7
4,prac,1,0.0,2-Back,0.0,m,Fri Jan 09 2026 10:02:04 GMT-0600 (Central Standard Time),563506.0,007_m_m_h_a.png,O,z,1794,10,1,2572.2999999523163,560933.7000000477,7727,VNB,B,8
4,prac,1,1.0,2-Back,0.0,z,Fri Jan 09 2026 10:02:04 GMT-0600 (Central Standard Time),566124.2000000477,020_y_f_d_a.png,O,m,1726,11,1,2608.7999999523163,563515.4000000954,7727,VNB,B,9
4,prac,1,0.0,2-Back,0.0,m,Fri Jan 09 2026 10:02:04 GMT-0600 (Central Standard Time),568973.0,004_o_m_n_a.png,O,None,2008,12,1,2840.5999999046326,566132.4000000954,7727,VNB,B,10
0,prac,2,0.0,2-Back,,,Fri Jan 09 2026 10:02:04 GMT-0600 (Central Standard Time),568973.0,011_m_f_n_a.png,O,a,12247,1,1,2840.5999999046326,566132.4000000954,7727,VNB,B,0
0,prac,2,0.0,2-Back,,,Fri Jan 09 2026 10:02:04 GMT-0600 (Central Standard Time),568973.0,005_o_f_h_a.png,O,a,12247,2,1,2840.5999999046326,566132.4000000954,7727,VNB,B,0
1,prac,2,0.0,2-Back,1.0,m,Fri Jan 09 2026 10:02:04 GMT-0600 (Central Standard Time),588699.7000000477,004_o_m_d_a.png,O,m,1440,3,1,2275.7000000476837,586424.0,7727,VNB,B,1
2,prac,2,1.0,2-Back,1.0,z,Fri Jan 09 2026 10:02:04 GMT-0600 (Central Standard Time),590882.0,007_m_m_h_a.png,O,z,1403,4,1,2173.5,588708.5,7727,VNB,B,2
3,prac,2,0.0,2-Back,1.0,m,Fri Jan 09 2026 10:02:04 GMT-0600 (Central Standard Time),592950.2999999523,020_y_f_n_a.png,O,m,1225,5,1,2057.5999999046326,590892.7000000477,7727,VNB,B,3
4,prac,2,1.0,2-Back,1.0,z,Fri Jan 09 2026 10:02:04 GMT-0600 (Central Standard Time),594513.7000000477,004_o_m_h_a.png,O,z,714,6,1,1553.7999999523163,592959.9000000954,7727,VNB,B,4
5,prac,2,1.0,2-Back,1.0,z,Fri Jan 09 2026 10:02:04 GMT-0600 (Central Standard Time),597064.2000000477,016_y_m_n_a.png,O,z,1686,7,1,2541.9000000953674,594522.2999999523,7727,VNB,B,5
6,prac,2,0.0,2-Back,1.0,m,Fri Jan 09 2026 10:02:04 GMT-0600 (Central Standard Time),599146.7000000477,011_m_f_d_a.png,O,m,1229,8,1,2073.9000000953674,597072.7999999523,7727,VNB,B,6
6,prac,2,0.0,2-Back,0.0,m,Fri Jan 09 2026 10:02:04 GMT-0600 (Central Standard Time),602011.2999999523,005_o_f_d_a.png,O,None,2005,9,1,2856.7999999523163,599154.5,7727,VNB,B,7
6,prac,2,0.0,2-Back,0.0,m,Fri Jan 09 2026 10:02:04 GMT-0600 (Central Standard Time),603960.7000000477,007_m_m_h_a.png,O,z,1170,10,1,1936.2000000476837,602024.5,7727,VNB,B,8
6,prac,2,1.0,2-Back,0.0,z,Fri Jan 09 2026 10:02:04 GMT-0600 (Central Standard Time),606012.0,020_y_f_d_a.png,O,m,1191,11,1,2039.3999998569489,603972.600000143,7727,VNB,B,9
6,prac,2,0.0,2-Back,0.0,m,Fri Jan 09 2026 10:02:04 GMT-0600 (Central Standard Time),608247.2000000477,004_o_m_n_a.png,O,z,1399,12,1,2222.4000000953674,606024.7999999523,7727,VNB,B,10
0,test,1,0.0,2-Back,,,Fri Jan 09 2026 10:02:04 GMT-0600 (Central Standard Time),608247.2000000477,016_y_m_h_a.png,O,space,13443,1,1,2222.4000000953674,606024.7999999523,7727,VNB,B,0
0,test,1,0.0,2-Back,,,Fri Jan 09 2026 10:02:04 GMT-0600 (Central Standard Time),608247.2000000477,005_o_f_n_a.png,O,space,13443,2,1,2222.4000000953674,606024.7999999523,7727,VNB,B,0
1,test,1,0.0,2-Back,1.0,z,Fri Jan 09 2026 10:02:04 GMT-0600 (Central Standard Time),636950.5,004_o_m_h_a.png,O,z,1160,3,1,2175.399999856949,634775.100000143,7727,VNB,B,1
2,test,1,0.0,2-Back,1.0,m,Fri Jan 09 2026 10:02:04 GMT-0600 (Central Standard Time),639199.7999999523,011_m_f_d_a.png,O,m,1225,4,1,2242.0999999046326,636957.7000000477,7727,VNB,B,2
3,test,1,1.0,2-Back,1.0,m,Fri Jan 09 2026 10:02:04 GMT-0600 (Central Standard Time),641965.4000000954,016_y_m_n_a.png,O,m,1743,5,1,2757.5,639207.9000000954,7727,VNB,B,3
4,test,1,0.0,2-Back,1.0,z,Fri Jan 09 2026 10:02:04 GMT-0600 (Central Standard Time),644181.5,020_y_f_d_a.png,O,z,1194,6,1,2209.0,641972.5,7727,VNB,B,4
5,test,1,0.0,2-Back,1.0,m,Fri Jan 09 2026 10:02:04 GMT-0600 (Central Standard Time),646496.2000000477,007_m_m_h_a.png,O,m,1289,7,1,2306.7000000476837,644189.5,7727,VNB,B,5
5,test,1,1.0,2-Back,0.0,m,Fri Jan 09 2026 10:02:04 GMT-0600 (Central Standard Time),649112.7000000477,020_y_f_n_a.png,O,z,1582,8,1,2611.0999999046326,646501.600000143,7727,VNB,B,6
5,test,1,0.0,2-Back,0.0,z,Fri Jan 09 2026 10:02:04 GMT-0600 (Central Standard Time),651229.2000000477,005_o_f_h_a.png,O,m,1086,9,1,2111.7000000476837,649117.5,7727,VNB,B,7
6,test,1,0.0,2-Back,1.0,m,Fri Jan 09 2026 10:02:04 GMT-0600 (Central Standard Time),653262.2000000477,004_o_m_d_a.png,O,m,1010,10,1,2024.7000000476837,651237.5,7727,VNB,B,8
7,test,1,1.0,2-Back,1.0,m,Fri Jan 09 2026 10:02:04 GMT-0600 (Central Standard Time),655894.7000000477,007_m_m_d_a.png,O,m,1608,11,1,2624.7999999523163,653269.9000000954,7727,VNB,B,9
7,test,1,0.0,2-Back,0.0,m,Fri Jan 09 2026 10:02:04 GMT-0600 (Central Standard Time),658543.100000143,011_m_f_n_a.png,O,z,1617,12,1,2639.600000143051,655903.5,7727,VNB,B,10
7,test,1,0.0,2-Back,0.0,m,Fri Jan 09 2026 10:02:04 GMT-0600 (Central Standard Time),661594.0,020_y_f_h_a.png,O,None,2018,13,1,3044.7000000476837,658549.2999999523,7727,VNB,B,11
8,test,1,0.0,2-Back,1.0,z,Fri Jan 09 2026 10:02:04 GMT-0600 (Central Standard Time),664107.5,007_m_m_n_a.png,O,z,1495,14,1,2508.2000000476837,661599.2999999523,7727,VNB,B,12
9,test,1,0.0,2-Back,1.0,m,Fri Jan 09 2026 10:02:04 GMT-0600 (Central Standard Time),666125.2000000477,016_y_m_d_a.png,O,m,995,15,1,2011.4000000953674,664113.7999999523,7727,VNB,B,13
9,test,1,1.0,2-Back,0.0,m,Fri Jan 09 2026 10:02:04 GMT-0600 (Central Standard Time),668356.9000000954,011_m_f_h_a.png,O,z,1201,16,1,2227.0,666129.9000000954,7727,VNB,B,14
9,test,1,0.0,2-Back,0.0,z,Fri Jan 09 2026 10:02:04 GMT-0600 (Central Standard Time),670275.5,005_o_f_d_a.png,O,m,902,17,1,1915.8999998569489,668359.600000143,7727,VNB,B,15
10,test,1,0.0,2-Back,1.0,m,Fri Jan 09 2026 10:02:04 GMT-0600 (Central Standard Time),672788.600000143,004_o_m_n_a.png,O,m,1494,18,1,2509.2000000476837,670279.4000000954,7727,VNB,B,16
0,test,2,0.0,2-Back,,,Fri Jan 09 2026 10:02:04 GMT-0600 (Central Standard Time),672788.600000143,007_m_m_h_a.png,O,space,3251,1,1,2509.2000000476837,670279.4000000954,7727,VNB,B,0
0,test,2,0.0,2-Back,,,Fri Jan 09 2026 10:02:04 GMT-0600 (Central Standard Time),672788.600000143,020_y_f_n_a.png,O,space,3251,2,1,2509.2000000476837,670279.4000000954,7727,VNB,B,0
1,test,2,1.0,2-Back,1.0,z,Fri Jan 09 2026 10:02:04 GMT-0600 (Central Standard Time),683201.4000000954,005_o_f_h_a.png,O,z,947,3,1,1957.2000000476837,681244.2000000477,7727,VNB,B,1
2,test,2,0.0,2-Back,1.0,m,Fri Jan 09 2026 10:02:04 GMT-0600 (Central Standard Time),685218.2000000477,004_o_m_d_a.png,O,m,998,4,1,2003.0,683215.2000000477,7727,VNB,B,2
3,test,2,0.0,2-Back,1.0,m,Fri Jan 09 2026 10:02:04 GMT-0600 (Central Standard Time),687684.4000000954,011_m_f_d_a.png,O,m,1436,5,1,2460.2999999523163,685224.100000143,7727,VNB,B,3
3,test,2,0.0,2-Back,0.0,m,Fri Jan 09 2026 10:02:04 GMT-0600 (Central Standard Time),689849.0,016_y_m_h_a.png,O,z,1138,6,1,2157.7999999523163,687691.2000000477,7727,VNB,B,4
4,test,2,0.0,2-Back,1.0,m,Fri Jan 09 2026 10:02:04 GMT-0600 (Central Standard Time),691733.0,005_o_f_n_a.png,O,m,854,7,1,1879.0999999046326,689853.9000000954,7727,VNB,B,5
5,test,2,1.0,2-Back,1.0,z,Fri Jan 09 2026 10:02:04 GMT-0600 (Central Standard Time),693800.0,004_o_m_h_a.png,O,z,1050,8,1,2062.0999999046326,691737.9000000954,7727,VNB,B,6
6,test,2,0.0,2-Back,1.0,m,Fri Jan 09 2026 10:02:04 GMT-0600 (Central Standard Time),695864.9000000954,020_y_f_d_a.png,O,m,1040,9,1,2060.7999999523163,693804.100000143,7727,VNB,B,7
7,test,2,0.0,2-Back,1.0,m,Fri Jan 09 2026 10:02:04 GMT-0600 (Central Standard Time),698248.0,016_y_m_d_a.png,O,m,1349,10,1,2378.7999999523163,695869.2000000477,7727,VNB,B,8
8,test,2,0.0,2-Back,1.0,m,Fri Jan 09 2026 10:02:04 GMT-0600 (Central Standard Time),700696.7000000477,007_m_m_n_a.png,O,m,1423,11,1,2441.5999999046326,698255.100000143,7727,VNB,B,9
9,test,2,0.0,2-Back,1.0,m,Fri Jan 09 2026 10:02:04 GMT-0600 (Central Standard Time),703248.5,011_m_f_h_a.png,O,m,1533,12,1,2547.5999999046326,700700.9000000954,7727,VNB,B,10
10,test,2,1.0,2-Back,1.0,z,Fri Jan 09 2026 10:02:04 GMT-0600 (Central Standard Time),705429.2999999523,004_o_m_n_a.png,O,z,1162,13,1,2175.0,703254.2999999523,7727,VNB,B,11
11,test,2,0.0,2-Back,1.0,m,Fri Jan 09 2026 10:02:04 GMT-0600 (Central Standard Time),707577.9000000954,005_o_f_d_a.png,O,m,1123,14,1,2143.2000000476837,705434.7000000477,7727,VNB,B,12
11,test,2,0.0,2-Back,0.0,m,Fri Jan 09 2026 10:02:04 GMT-0600 (Central Standard Time),709577.2999999523,020_y_f_h_a.png,O,z,972,15,1,1994.7999999523163,707582.5,7727,VNB,B,13
11,test,2,0.0,2-Back,0.0,z,Fri Jan 09 2026 10:02:04 GMT-0600 (Central Standard Time),711575.9000000954,007_m_m_d_a.png,O,m,963,16,1,1993.4000000953674,709582.5,7727,VNB,B,14
12,test,2,0.0,2-Back,1.0,m,Fri Jan 09 2026 10:02:04 GMT-0600 (Central Standard Time),713627.100000143,016_y_m_n_a.png,O,m,1031,17,1,2044.1000001430511,711583.0,7727,VNB,B,15
12,test,2,1.0,2-Back,0.0,m,Fri Jan 09 2026 10:02:04 GMT-0600 (Central Standard Time),715909.0,011_m_f_n_a.png,O,z,1262,18,1,2275.7000000476837,713633.2999999523,7727,VNB,B,16
0,test,3,1.0,2-Back,,,Fri Jan 09 2026 10:02:04 GMT-0600 (Central Standard Time),715909.0,004_o_m_n_a.png,O,space,2586,1,1,2275.7000000476837,713633.2999999523,7727,VNB,B,0
0,test,3,1.0,2-Back,,,Fri Jan 09 2026 10:02:04 GMT-0600 (Central Standard Time),715909.0,005_o_f_d_a.png,O,space,2586,2,1,2275.7000000476837,713633.2999999523,7727,VNB,B,0
1,test,3,0.0,2-Back,1.0,m,Fri Jan 09 2026 10:02:04 GMT-0600 (Central Standard Time),725773.0,020_y_f_h_a.png,O,m,1186,3,1,2211.399999856949,723561.600000143,7727,VNB,B,1
2,test,3,0.0,2-Back,1.0,z,Fri Jan 09 2026 10:02:04 GMT-0600 (Central Standard Time),727976.5,011_m_f_d_a.png,O,z,1187,4,1,2197.0,725779.5,7727,VNB,B,2
3,test,3,1.0,2-Back,1.0,m,Fri Jan 09 2026 10:02:04 GMT-0600 (Central Standard Time),729804.5,016_y_m_n_a.png,O,m,812,5,1,1821.7999999523163,727982.7000000477,7727,VNB,B,3
3,test,3,0.0,2-Back,0.0,m,Fri Jan 09 2026 10:02:04 GMT-0600 (Central Standard Time),731821.2000000477,004_o_m_h_a.png,O,z,995,6,1,2011.2000000476837,729810.0,7727,VNB,B,4
3,test,3,0.0,2-Back,0.0,z,Fri Jan 09 2026 10:02:04 GMT-0600 (Central Standard Time),734019.2999999523,020_y_f_n_a.png,O,m,1180,7,1,2191.2999999523163,731828.0,7727,VNB,B,5
4,test,3,1.0,2-Back,1.0,m,Fri Jan 09 2026 10:02:04 GMT-0600 (Central Standard Time),736252.9000000954,007_m_m_d_a.png,O,m,1205,8,1,2226.7000000476837,734026.2000000477,7727,VNB,B,6
4,test,3,0.0,2-Back,0.0,m,Fri Jan 09 2026 10:02:04 GMT-0600 (Central Standard Time),738367.7999999523,016_y_m_d_a.png,O,z,1085,9,1,2107.699999809265,736260.100000143,7727,VNB,B,7
4,test,3,0.0,2-Back,0.0,m,Fri Jan 09 2026 10:02:04 GMT-0600 (Central Standard Time),740666.600000143,005_o_f_h_a.png,O,z,1270,10,1,2290.5,738376.100000143,7727,VNB,B,8
5,test,3,1.0,2-Back,1.0,m,Fri Jan 09 2026 10:02:04 GMT-0600 (Central Standard Time),742400.2999999523,011_m_f_n_a.png,O,m,701,11,1,1726.5999999046326,740673.7000000477,7727,VNB,B,9
6,test,3,1.0,2-Back,1.0,z,Fri Jan 09 2026 10:02:04 GMT-0600 (Central Standard Time),743984.600000143,007_m_m_h_a.png,O,z,552,12,1,1577.9000000953674,742406.7000000477,7727,VNB,B,10
7,test,3,0.0,2-Back,1.0,m,Fri Jan 09 2026 10:02:04 GMT-0600 (Central Standard Time),745984.2000000477,020_y_f_d_a.png,O,m,984,13,1,1993.2000000476837,743991.0,7727,VNB,B,11
8,test,3,0.0,2-Back,1.0,m,Fri Jan 09 2026 10:02:04 GMT-0600 (Central Standard Time),748231.0,005_o_f_n_a.png,O,m,1218,14,1,2240.7999999523163,745990.2000000477,7727,VNB,B,12
9,test,3,0.0,2-Back,1.0,z,Fri Jan 09 2026 10:02:04 GMT-0600 (Central Standard Time),750546.7999999523,004_o_m_d_a.png,O,z,1297,15,1,2307.5,748239.2999999523,7727,VNB,B,13
10,test,3,1.0,2-Back,1.0,m,Fri Jan 09 2026 10:02:04 GMT-0600 (Central Standard Time),752779.5,011_m_f_h_a.png,O,m,1202,16,1,2224.399999856949,750555.100000143,7727,VNB,B,14
11,test,3,0.0,2-Back,1.0,m,Fri Jan 09 2026 10:02:04 GMT-0600 (Central Standard Time),755329.100000143,007_m_m_n_a.png,O,m,1523,17,1,2546.600000143051,752782.5,7727,VNB,B,15
12,test,3,0.0,2-Back,1.0,z,Fri Jan 09 2026 10:02:04 GMT-0600 (Central Standard Time),756861.100000143,016_y_m_h_a.png,O,z,509,18,1,1525.5,755335.600000143,7727,VNB,B,16
0,test,4,0.0,2-Back,,,Fri Jan 09 2026 10:02:04 GMT-0600 (Central Standard Time),756861.100000143,011_m_f_n_a.png,O,space,2492,1,1,1525.5,755335.600000143,7727,VNB,B,0
0,test,4,0.0,2-Back,,,Fri Jan 09 2026 10:02:04 GMT-0600 (Central Standard Time),756861.100000143,004_o_m_n_a.png,O,space,2492,2,1,1525.5,755335.600000143,7727,VNB,B,0
1,test,4,1.0,2-Back,1.0,m,Fri Jan 09 2026 10:02:04 GMT-0600 (Central Standard Time),766778.7999999523,016_y_m_h_a.png,O,m,1195,3,1,2213.899999856949,764564.9000000954,7727,VNB,B,1
2,test,4,1.0,2-Back,1.0,m,Fri Jan 09 2026 10:02:04 GMT-0600 (Central Standard Time),768941.600000143,005_o_f_d_a.png,O,m,1134,4,1,2156.2000000476837,766785.4000000954,7727,VNB,B,2
3,test,4,0.0,2-Back,1.0,z,Fri Jan 09 2026 10:02:04 GMT-0600 (Central Standard Time),770858.600000143,004_o_m_h_a.png,O,z,901,5,1,1911.4000000953674,768947.2000000477,7727,VNB,B,3
4,test,4,0.0,2-Back,1.0,m,Fri Jan 09 2026 10:02:04 GMT-0600 (Central Standard Time),773390.9000000954,007_m_m_n_a.png,O,m,1510,6,1,2526.2000000476837,770864.7000000477,7727,VNB,B,4
5,test,4,0.0,2-Back,1.0,m,Fri Jan 09 2026 10:02:04 GMT-0600 (Central Standard Time),775780.7999999523,011_m_f_d_a.png,O,m,1360,7,1,2382.0,773398.7999999523,7727,VNB,B,5
6,test,4,0.0,2-Back,1.0,z,Fri Jan 09 2026 10:02:04 GMT-0600 (Central Standard Time),778305.100000143,020_y_f_n_a.png,O,z,1516,8,1,2521.300000190735,775783.7999999523,7727,VNB,B,6
6,test,4,1.0,2-Back,0.0,m,Fri Jan 09 2026 10:02:04 GMT-0600 (Central Standard Time),781072.100000143,005_o_f_h_a.png,O,z,1749,9,1,2761.100000143051,778311.0,7727,VNB,B,7
6,test,4,0.0,2-Back,0.0,m,Fri Jan 09 2026 10:02:04 GMT-0600 (Central Standard Time),783404.0,007_m_m_h_a.png,O,z,1311,10,1,2326.0999999046326,781077.9000000954,7727,VNB,B,8
7,test,4,0.0,2-Back,1.0,m,Fri Jan 09 2026 10:02:04 GMT-0600 (Central Standard Time),785386.2999999523,020_y_f_d_a.png,O,m,956,11,1,1975.0999999046326,783411.2000000477,7727,VNB,B,9
7,test,4,0.0,2-Back,0.0,m,Fri Jan 09 2026 10:02:04 GMT-0600 (Central Standard Time),787586.600000143,016_y_m_n_a.png,O,z,1174,12,1,2194.4000000953674,785392.2000000477,7727,VNB,B,10
8,test,4,0.0,2-Back,1.0,z,Fri Jan 09 2026 10:02:04 GMT-0600 (Central Standard Time),789884.0,004_o_m_d_a.png,O,z,1277,13,1,2290.899999856949,787593.100000143,7727,VNB,B,11
9,test,4,1.0,2-Back,1.0,m,Fri Jan 09 2026 10:02:04 GMT-0600 (Central Standard Time),791800.2000000477,011_m_f_h_a.png,O,m,888,14,1,1909.7000000476837,789890.5,7727,VNB,B,12
9,test,4,1.0,2-Back,0.0,m,Fri Jan 09 2026 10:02:04 GMT-0600 (Central Standard Time),794318.7000000477,020_y_f_h_a.png,O,z,1486,15,1,2515.2000000476837,791803.5,7727,VNB,B,13
10,test,4,0.0,2-Back,1.0,m,Fri Jan 09 2026 10:02:04 GMT-0600 (Central Standard Time),796315.600000143,005_o_f_n_a.png,O,m,969,16,1,1990.3000001907349,794325.2999999523,7727,VNB,B,14
11,test,4,0.0,2-Back,1.0,m,Fri Jan 09 2026 10:02:04 GMT-0600 (Central Standard Time),798883.7999999523,016_y_m_d_a.png,O,m,1540,17,1,2559.899999856949,796323.9000000954,7727,VNB,B,15
11,test,4,1.0,2-Back,0.0,m,Fri Jan 09 2026 10:02:04 GMT-0600 (Central Standard Time),800882.4000000954,007_m_m_d_a.png,O,z,972,18,1,1992.1000001430511,798890.2999999523,7727,VNB,B,16
0,test,5,1.0,2-Back,,,Fri Jan 09 2026 10:02:04 GMT-0600 (Central Standard Time),800882.4000000954,020_y_f_d_a.png,O,space,3484,1,1,1992.1000001430511,798890.2999999523,7727,VNB,B,0
0,test,5,1.0,2-Back,,,Fri Jan 09 2026 10:02:04 GMT-0600 (Central Standard Time),800882.4000000954,005_o_f_h_a.png,O,space,3484,2,1,1992.1000001430511,798890.2999999523,7727,VNB,B,0
1,test,5,1.0,2-Back,1.0,z,Fri Jan 09 2026 10:02:04 GMT-0600 (Central Standard Time),812511.600000143,004_o_m_d_a.png,O,z,1917,3,1,2943.2000000476837,809568.4000000954,7727,VNB,B,1
2,test,5,1.0,2-Back,1.0,m,Fri Jan 09 2026 10:02:04 GMT-0600 (Central Standard Time),814693.5,011_m_f_n_a.png,O,m,1160,4,1,2175.5999999046326,812517.9000000954,7727,VNB,B,2
2,test,5,0.0,2-Back,0.0,m,Fri Jan 09 2026 10:02:04 GMT-0600 (Central Standard Time),816410.7000000477,007_m_m_h_a.png,O,z,699,5,1,1712.7000000476837,814698.0,7727,VNB,B,3
2,test,5,0.0,2-Back,0.0,z,Fri Jan 09 2026 10:02:04 GMT-0600 (Central Standard Time),818376.100000143,020_y_f_n_a.png,O,m,933,6,1,1960.3000001907349,816415.7999999523,7727,VNB,B,4
2,test,5,0.0,2-Back,0.0,m,Fri Jan 09 2026 10:02:04 GMT-0600 (Central Standard Time),820425.2999999523,005_o_f_d_a.png,O,z,1032,7,1,2043.5,818381.7999999523,7727,VNB,B,5
2,test,5,0.0,2-Back,0.0,m,Fri Jan 09 2026 10:02:04 GMT-0600 (Central Standard Time),822324.9000000954,004_o_m_h_a.png,O,z,883,8,1,1892.0,820432.9000000954,7727,VNB,B,6
2,test,5,1.0,2-Back,0.0,z,Fri Jan 09 2026 10:02:04 GMT-0600 (Central Standard Time),823908.100000143,011_m_f_d_a.png,O,m,556,9,1,1577.0,822331.100000143,7727,VNB,B,7
3,test,5,0.0,2-Back,1.0,m,Fri Jan 09 2026 10:02:04 GMT-0600 (Central Standard Time),825807.7000000477,016_y_m_n_a.png,O,m,868,10,1,1896.0,823911.7000000477,7727,VNB,B,8
4,test,5,0.0,2-Back,1.0,m,Fri Jan 09 2026 10:02:04 GMT-0600 (Central Standard Time),827921.9000000954,007_m_m_n_a.png,O,m,1088,11,1,2108.100000143051,825813.7999999523,7727,VNB,B,9
4,test,5,0.0,2-Back,0.0,m,Fri Jan 09 2026 10:02:04 GMT-0600 (Central Standard Time),829675.7999999523,020_y_f_h_a.png,O,z,732,12,1,1749.6999998092651,827926.100000143,7727,VNB,B,10
5,test,5,0.0,2-Back,1.0,m,Fri Jan 09 2026 10:02:04 GMT-0600 (Central Standard Time),831771.9000000954,016_y_m_d_a.png,O,m,1071,13,1,2091.2000000476837,829680.7000000477,7727,VNB,B,11
6,test,5,1.0,2-Back,1.0,z,Fri Jan 09 2026 10:02:04 GMT-0600 (Central Standard Time),833489.5,011_m_f_h_a.png,O,z,686,14,1,1711.7000000476837,831777.7999999523,7727,VNB,B,12
6,test,5,0.0,2-Back,0.0,m,Fri Jan 09 2026 10:02:04 GMT-0600 (Central Standard Time),836520.5,004_o_m_n_a.png,O,None,2016,15,1,3023.7000000476837,833496.7999999523,7727,VNB,B,13
6,test,5,0.0,2-Back,0.0,m,Fri Jan 09 2026 10:02:04 GMT-0600 (Central Standard Time),838936.2999999523,007_m_m_d_a.png,O,z,1393,16,1,2409.699999809265,836526.600000143,7727,VNB,B,14
6,test,5,0.0,2-Back,0.0,z,Fri Jan 09 2026 10:02:04 GMT-0600 (Central Standard Time),840785.9000000954,005_o_f_n_a.png,O,m,823,17,1,1837.1000001430511,838948.7999999523,7727,VNB,B,15
6,test,5,1.0,2-Back,0.0,m,Fri Jan 09 2026 10:02:04 GMT-0600 (Central Standard Time),842905.9000000954,016_y_m_h_a.png,O,z,1103,18,1,2111.7000000476837,840794.2000000477,7727,VNB,B,16
