acc_sum,block,block_c,change,condition,correct,correct_response,datetime,endtime,face,project,response,response_time,row_sel,session_number,start_end,starttime,subject_id,task,task_vers,trial
0,prac,1,,1-Back,,,Fri Aug 29 2025 14:06:59 GMT-0500 (Central Daylight Time),,012_o_f_d_a.png,O,space,15724,1,1,,,7218,VNB,C,0
1,prac,1,0.0,1-Back,1.0,m,Fri Aug 29 2025 14:06:59 GMT-0500 (Central Daylight Time),160997.70000004768,022_y_f_n_a.png,O,m,1906,2,1,2751.4000000953674,158246.29999995232,7218,VNB,C,1
1,prac,1,0.0,1-Back,0.0,m,Fri Aug 29 2025 14:06:59 GMT-0500 (Central Daylight Time),163860.5,014_m_m_h_a.png,O,None,2015,3,1,2851.5999999046326,161008.90000009537,7218,VNB,C,2
1,prac,1,0.0,1-Back,0.0,m,Fri Aug 29 2025 14:06:59 GMT-0500 (Central Daylight Time),166713.40000009537,025_y_m_d_a.png,O,None,2007,4,1,2840.2000000476837,163873.20000004768,7218,VNB,C,3
1,prac,1,0.0,1-Back,0.0,m,Fri Aug 29 2025 14:06:59 GMT-0500 (Central Daylight Time),169578.5,012_o_f_n_a.png,O,None,2004,5,1,2856.0,166722.5,7218,VNB,C,4
2,prac,1,1.0,1-Back,1.0,z,Fri Aug 29 2025 14:06:59 GMT-0500 (Central Daylight Time),171824.90000009537,025_y_m_n_a.png,O,z,1379,6,1,2234.9000000953674,169590.0,7218,VNB,C,5
3,prac,1,0.0,1-Back,1.0,m,Fri Aug 29 2025 14:06:59 GMT-0500 (Central Daylight Time),174139.09999990463,015_o_m_h_a.png,O,m,1447,7,1,2306.899999856949,171832.20000004768,7218,VNB,C,6
3,prac,1,0.0,1-Back,0.0,m,Fri Aug 29 2025 14:06:59 GMT-0500 (Central Daylight Time),176161.90000009537,019_m_f_d_a.png,O,z,1141,8,1,2015.9000000953674,174146.0,7218,VNB,C,7
3,prac,1,1.0,1-Back,0.0,z,Fri Aug 29 2025 14:06:59 GMT-0500 (Central Daylight Time),178090.29999995232,022_y_f_d_a.png,O,m,1057,9,1,1923.3999998569489,176166.90000009537,7218,VNB,C,8
3,prac,1,0.0,1-Back,0.0,m,Fri Aug 29 2025 14:06:59 GMT-0500 (Central Daylight Time),180921.5,014_m_m_n_a.png,O,z,1975,10,1,2823.5,178098.0,7218,VNB,C,9
4,prac,1,0.0,1-Back,1.0,m,Fri Aug 29 2025 14:06:59 GMT-0500 (Central Daylight Time),183505.40000009537,012_o_f_h_a.png,O,m,1715,11,1,2578.600000143051,180926.79999995232,7218,VNB,C,10
5,prac,1,0.0,1-Back,1.0,m,Fri Aug 29 2025 14:06:59 GMT-0500 (Central Daylight Time),185838.5,025_y_m_d_a.png,O,m,1485,12,1,2323.0999999046326,183515.40000009537,7218,VNB,C,11
0,prac,2,0.0,1-Back,,,Fri Aug 29 2025 14:06:59 GMT-0500 (Central Daylight Time),185838.5,012_o_f_d_a.png,O,a,3693,1,1,2323.0999999046326,183515.40000009537,7218,VNB,C,0
1,prac,2,0.0,1-Back,1.0,m,Fri Aug 29 2025 14:06:59 GMT-0500 (Central Daylight Time),194385.5,022_y_f_n_a.png,O,m,916,2,1,1786.5999999046326,192598.90000009537,7218,VNB,C,1
2,prac,2,0.0,1-Back,1.0,m,Fri Aug 29 2025 14:06:59 GMT-0500 (Central Daylight Time),197168.79999995232,014_m_m_h_a.png,O,m,1939,3,1,2772.399999856949,194396.40000009537,7218,VNB,C,2
3,prac,2,0.0,1-Back,1.0,m,Fri Aug 29 2025 14:06:59 GMT-0500 (Central Daylight Time),199133.29999995232,025_y_m_d_a.png,O,m,1181,4,1,1954.2000000476837,197179.09999990463,7218,VNB,C,3
4,prac,2,0.0,1-Back,1.0,m,Fri Aug 29 2025 14:06:59 GMT-0500 (Central Daylight Time),201316.5,012_o_f_n_a.png,O,m,1318,5,1,2171.9000000953674,199144.59999990463,7218,VNB,C,4
5,prac,2,1.0,1-Back,1.0,z,Fri Aug 29 2025 14:06:59 GMT-0500 (Central Daylight Time),203432.0,025_y_m_n_a.png,O,z,1254,6,1,2106.9000000953674,201325.09999990463,7218,VNB,C,5
6,prac,2,0.0,1-Back,1.0,m,Fri Aug 29 2025 14:06:59 GMT-0500 (Central Daylight Time),205666.0,015_o_m_h_a.png,O,m,1352,7,1,2223.7000000476837,203442.29999995232,7218,VNB,C,6
6,prac,2,0.0,1-Back,0.0,m,Fri Aug 29 2025 14:06:59 GMT-0500 (Central Daylight Time),207664.79999995232,019_m_f_d_a.png,O,z,1116,8,1,1987.2999999523163,205677.5,7218,VNB,C,7
6,prac,2,1.0,1-Back,0.0,z,Fri Aug 29 2025 14:06:59 GMT-0500 (Central Daylight Time),209613.09999990463,022_y_f_d_a.png,O,m,1070,9,1,1939.2999999523163,207673.79999995232,7218,VNB,C,8
6,prac,2,0.0,1-Back,0.0,m,Fri Aug 29 2025 14:06:59 GMT-0500 (Central Daylight Time),212162.79999995232,014_m_m_n_a.png,O,z,1699,10,1,2539.899999856949,209622.90000009537,7218,VNB,C,9
6,prac,2,0.0,1-Back,0.0,m,Fri Aug 29 2025 14:06:59 GMT-0500 (Central Daylight Time),215027.40000009537,012_o_f_h_a.png,O,None,2004,11,1,2853.9000000953674,212173.5,7218,VNB,C,10
6,prac,2,0.0,1-Back,0.0,m,Fri Aug 29 2025 14:06:59 GMT-0500 (Central Daylight Time),217726.70000004768,025_y_m_d_a.png,O,z,1845,12,1,2689.5,215037.20000004768,7218,VNB,C,11
0,prac,3,0.0,1-Back,,,Fri Aug 29 2025 14:06:59 GMT-0500 (Central Daylight Time),217726.70000004768,012_o_f_d_a.png,O,a,6499,1,1,2689.5,215037.20000004768,7218,VNB,C,0
1,prac,3,0.0,1-Back,1.0,m,Fri Aug 29 2025 14:06:59 GMT-0500 (Central Daylight Time),228456.70000004768,022_y_f_n_a.png,O,m,306,2,1,1171.0,227285.70000004768,7218,VNB,C,1
1,prac,3,0.0,1-Back,0.0,m,Fri Aug 29 2025 14:06:59 GMT-0500 (Central Daylight Time),231306.70000004768,014_m_m_h_a.png,O,None,2016,3,1,2840.4000000953674,228466.29999995232,7218,VNB,C,2
2,prac,3,0.0,1-Back,1.0,m,Fri Aug 29 2025 14:06:59 GMT-0500 (Central Daylight Time),232623.20000004768,025_y_m_d_a.png,O,m,546,4,1,1305.4000000953674,231317.79999995232,7218,VNB,C,3
3,prac,3,0.0,1-Back,1.0,m,Fri Aug 29 2025 14:06:59 GMT-0500 (Central Daylight Time),234738.29999995232,012_o_f_n_a.png,O,m,1232,5,1,2103.7999999523163,232634.5,7218,VNB,C,4
3,prac,3,1.0,1-Back,0.0,z,Fri Aug 29 2025 14:06:59 GMT-0500 (Central Daylight Time),237103.29999995232,025_y_m_n_a.png,O,m,1513,6,1,2355.399999856949,234747.90000009537,7218,VNB,C,5
3,prac,3,0.0,1-Back,0.0,m,Fri Aug 29 2025 14:06:59 GMT-0500 (Central Daylight Time),239069.59999990463,015_o_m_h_a.png,O,z,1085,7,1,1962.0999999046326,237107.5,7218,VNB,C,6
4,prac,3,0.0,1-Back,1.0,m,Fri Aug 29 2025 14:06:59 GMT-0500 (Central Daylight Time),241086.79999995232,019_m_f_d_a.png,O,m,1143,8,1,2006.0999999046326,239080.70000004768,7218,VNB,C,7
4,prac,3,1.0,1-Back,0.0,z,Fri Aug 29 2025 14:06:59 GMT-0500 (Central Daylight Time),243268.70000004768,022_y_f_d_a.png,O,m,1301,9,1,2171.9000000953674,241096.79999995232,7218,VNB,C,8
4,prac,3,0.0,1-Back,0.0,m,Fri Aug 29 2025 14:06:59 GMT-0500 (Central Daylight Time),245402.79999995232,014_m_m_n_a.png,O,z,1284,10,1,2123.0,243279.79999995232,7218,VNB,C,9
5,prac,3,0.0,1-Back,1.0,m,Fri Aug 29 2025 14:06:59 GMT-0500 (Central Daylight Time),247402.29999995232,012_o_f_h_a.png,O,m,1120,11,1,1990.0999999046326,245412.20000004768,7218,VNB,C,10
6,prac,3,0.0,1-Back,1.0,m,Fri Aug 29 2025 14:06:59 GMT-0500 (Central Daylight Time),249166.90000009537,025_y_m_d_a.png,O,m,901,12,1,1753.5,247413.40000009537,7218,VNB,C,11
0,test,1,0.0,1-Back,,,Fri Aug 29 2025 14:06:59 GMT-0500 (Central Daylight Time),249166.90000009537,022_y_f_d_a.png,O,space,9250,1,1,1753.5,247413.40000009537,7218,VNB,C,0
1,test,1,0.0,1-Back,1.0,m,Fri Aug 29 2025 14:06:59 GMT-0500 (Central Daylight Time),270693.7000000477,019_m_f_n_a.png,O,m,786,2,1,1805.7000000476837,268888.0,7218,VNB,C,1
1,test,1,0.0,1-Back,0.0,m,Fri Aug 29 2025 14:06:59 GMT-0500 (Central Daylight Time),272709.7000000477,015_o_m_h_a.png,O,z,986,3,1,2007.9000000953674,270701.7999999523,7218,VNB,C,2
2,test,1,1.0,1-Back,1.0,z,Fri Aug 29 2025 14:06:59 GMT-0500 (Central Daylight Time),274976.7999999523,014_m_m_h_a.png,O,z,1244,4,1,2255.2000000476837,272721.59999990463,7218,VNB,C,3
3,test,1,0.0,1-Back,1.0,m,Fri Aug 29 2025 14:06:59 GMT-0500 (Central Daylight Time),277141.90000009537,012_o_f_n_a.png,O,m,1143,5,1,2161.5,274980.40000009537,7218,VNB,C,4
4,test,1,0.0,1-Back,1.0,m,Fri Aug 29 2025 14:06:59 GMT-0500 (Central Daylight Time),279273.40000009537,025_y_m_d_a.png,O,m,1105,6,1,2122.0,277151.40000009537,7218,VNB,C,5
5,test,1,1.0,1-Back,1.0,z,Fri Aug 29 2025 14:06:59 GMT-0500 (Central Daylight Time),281756.7000000477,019_m_f_d_a.png,O,z,1463,7,1,2477.100000143051,279279.59999990463,7218,VNB,C,6
6,test,1,0.0,1-Back,1.0,m,Fri Aug 29 2025 14:06:59 GMT-0500 (Central Daylight Time),283723.5,022_y_f_h_a.png,O,m,938,8,1,1958.5,281765.0,7218,VNB,C,7
6,test,1,0.0,1-Back,0.0,m,Fri Aug 29 2025 14:06:59 GMT-0500 (Central Daylight Time),286138.7000000477,015_o_m_n_a.png,O,z,1398,9,1,2406.7999999523163,283731.90000009537,7218,VNB,C,8
7,test,1,0.0,1-Back,1.0,m,Fri Aug 29 2025 14:06:59 GMT-0500 (Central Daylight Time),288888.40000009537,025_y_m_h_a.png,O,m,1724,10,1,2736.800000190735,286151.59999990463,7218,VNB,C,9
8,test,1,0.0,1-Back,1.0,m,Fri Aug 29 2025 14:06:59 GMT-0500 (Central Daylight Time),291004.40000009537,015_o_m_d_a.png,O,m,1096,11,1,2108.300000190735,288896.09999990463,7218,VNB,C,10
8,test,1,1.0,1-Back,0.0,z,Fri Aug 29 2025 14:06:59 GMT-0500 (Central Daylight Time),293520.09999990463,012_o_f_d_a.png,O,m,1483,12,1,2506.0999999046326,291014.0,7218,VNB,C,11
8,test,1,0.0,1-Back,0.0,m,Fri Aug 29 2025 14:06:59 GMT-0500 (Central Daylight Time),295851.7000000477,014_m_m_n_a.png,O,z,1310,13,1,2323.5,293528.2000000477,7218,VNB,C,12
8,test,1,1.0,1-Back,0.0,z,Fri Aug 29 2025 14:06:59 GMT-0500 (Central Daylight Time),297668.7000000477,022_y_f_n_a.png,O,m,788,14,1,1814.1000001430511,295854.59999990463,7218,VNB,C,13
9,test,1,0.0,1-Back,1.0,m,Fri Aug 29 2025 14:06:59 GMT-0500 (Central Daylight Time),299751.40000009537,019_m_f_h_a.png,O,m,1061,15,1,2073.800000190735,297677.59999990463,7218,VNB,C,14
9,test,1,0.0,1-Back,0.0,m,Fri Aug 29 2025 14:06:59 GMT-0500 (Central Daylight Time),301999.0,014_m_m_d_a.png,O,z,1223,16,1,2236.4000000953674,299762.59999990463,7218,VNB,C,15
10,test,1,0.0,1-Back,1.0,m,Fri Aug 29 2025 14:06:59 GMT-0500 (Central Daylight Time),304066.5,025_y_m_n_a.png,O,m,1033,17,1,2059.4000000953674,302007.09999990463,7218,VNB,C,16
11,test,1,0.0,1-Back,1.0,m,Fri Aug 29 2025 14:06:59 GMT-0500 (Central Daylight Time),306382.59999990463,012_o_f_h_a.png,O,m,1294,18,1,2307.2999999523163,304075.2999999523,7218,VNB,C,17
0,test,2,0.0,1-Back,,,Fri Aug 29 2025 14:06:59 GMT-0500 (Central Daylight Time),306382.59999990463,025_y_m_n_a.png,O,space,2201,1,1,2307.2999999523163,304075.2999999523,7218,VNB,C,0
0,test,2,0.0,1-Back,0.0,m,Fri Aug 29 2025 14:06:59 GMT-0500 (Central Daylight Time),312481.59999990463,022_y_f_h_a.png,O,z,833,2,1,1856.6999998092651,310624.90000009537,7218,VNB,C,1
1,test,2,1.0,1-Back,1.0,m,Fri Aug 29 2025 14:06:59 GMT-0500 (Central Daylight Time),314564.09999990463,015_o_m_n_a.png,O,m,1056,3,1,2071.0999999046326,312493.0,7218,VNB,C,2
2,test,2,0.0,1-Back,1.0,m,Fri Aug 29 2025 14:06:59 GMT-0500 (Central Daylight Time),316795.90000009537,019_m_f_d_a.png,O,m,1204,4,1,2223.300000190735,314572.59999990463,7218,VNB,C,3
3,test,2,0.0,1-Back,1.0,z,Fri Aug 29 2025 14:06:59 GMT-0500 (Central Daylight Time),319178.7000000477,014_m_m_d_a.png,O,z,1365,5,1,2374.9000000953674,316803.7999999523,7218,VNB,C,4
4,test,2,0.0,1-Back,1.0,m,Fri Aug 29 2025 14:06:59 GMT-0500 (Central Daylight Time),321676.7999999523,025_y_m_h_a.png,O,m,1479,6,1,2490.7000000476837,319186.09999990463,7218,VNB,C,5
5,test,2,1.0,1-Back,1.0,z,Fri Aug 29 2025 14:06:59 GMT-0500 (Central Daylight Time),323893.2999999523,012_o_f_h_a.png,O,z,1186,7,1,2207.0,321686.2999999523,7218,VNB,C,6
6,test,2,0.0,1-Back,1.0,m,Fri Aug 29 2025 14:06:59 GMT-0500 (Central Daylight Time),325876.59999990463,019_m_f_n_a.png,O,m,951,8,1,1973.5,323903.09999990463,7218,VNB,C,7
6,test,2,0.0,1-Back,0.0,m,Fri Aug 29 2025 14:06:59 GMT-0500 (Central Daylight Time),327875.7999999523,022_y_f_d_a.png,O,z,979,9,1,1992.0,325883.7999999523,7218,VNB,C,8
7,test,2,0.0,1-Back,1.0,m,Fri Aug 29 2025 14:06:59 GMT-0500 (Central Daylight Time),329976.7999999523,014_m_m_n_a.png,O,m,1085,10,1,2091.2000000476837,327885.59999990463,7218,VNB,C,9
7,test,2,1.0,1-Back,0.0,m,Fri Aug 29 2025 14:06:59 GMT-0500 (Central Daylight Time),332373.90000009537,019_m_f_h_a.png,O,z,1368,11,1,2389.9000000953674,329984.0,7218,VNB,C,10
8,test,2,0.0,1-Back,1.0,z,Fri Aug 29 2025 14:06:59 GMT-0500 (Central Daylight Time),334455.7999999523,015_o_m_h_a.png,O,z,1064,12,1,2075.2999999523163,332380.5,7218,VNB,C,11
9,test,2,0.0,1-Back,1.0,m,Fri Aug 29 2025 14:06:59 GMT-0500 (Central Daylight Time),336473.7999999523,025_y_m_d_a.png,O,m,990,13,1,2011.2000000476837,334462.59999990463,7218,VNB,C,12
9,test,2,0.0,1-Back,0.0,m,Fri Aug 29 2025 14:06:59 GMT-0500 (Central Daylight Time),339054.59999990463,012_o_f_n_a.png,O,z,1561,14,1,2572.699999809265,336481.90000009537,7218,VNB,C,13
9,test,2,0.0,1-Back,0.0,z,Fri Aug 29 2025 14:06:59 GMT-0500 (Central Daylight Time),341254.5,022_y_f_n_a.png,O,m,1176,15,1,2191.2000000476837,339063.2999999523,7218,VNB,C,14
9,test,2,1.0,1-Back,0.0,m,Fri Aug 29 2025 14:06:59 GMT-0500 (Central Daylight Time),344154.0,014_m_m_h_a.png,O,z,1868,16,1,2888.7999999523163,341265.2000000477,7218,VNB,C,15
10,test,2,0.0,1-Back,1.0,m,Fri Aug 29 2025 14:06:59 GMT-0500 (Central Daylight Time),346137.0,012_o_f_d_a.png,O,m,951,17,1,1973.0,344164.0,7218,VNB,C,16
10,test,2,1.0,1-Back,0.0,z,Fri Aug 29 2025 14:06:59 GMT-0500 (Central Daylight Time),348418.0,015_o_m_d_a.png,O,m,1256,18,1,2270.7000000476837,346147.2999999523,7218,VNB,C,17
0,test,3,1.0,1-Back,,,Fri Aug 29 2025 14:06:59 GMT-0500 (Central Daylight Time),348418.0,012_o_f_h_a.png,O,space,3167,1,1,2270.7000000476837,346147.2999999523,7218,VNB,C,0
1,test,3,0.0,1-Back,1.0,m,Fri Aug 29 2025 14:06:59 GMT-0500 (Central Daylight Time),355466.40000009537,019_m_f_d_a.png,O,m,735,2,1,1759.7000000476837,353706.7000000477,7218,VNB,C,1
1,test,3,1.0,1-Back,0.0,m,Fri Aug 29 2025 14:06:59 GMT-0500 (Central Daylight Time),357315.40000009537,014_m_m_n_a.png,O,z,829,3,1,1841.1000001430511,355474.2999999523,7218,VNB,C,2
2,test,3,0.0,1-Back,1.0,z,Fri Aug 29 2025 14:06:59 GMT-0500 (Central Daylight Time),359381.09999990463,012_o_f_n_a.png,O,z,1037,4,1,2060.699999809265,357320.40000009537,7218,VNB,C,3
3,test,3,1.0,1-Back,1.0,m,Fri Aug 29 2025 14:06:59 GMT-0500 (Central Daylight Time),361397.09999990463,015_o_m_d_a.png,O,m,992,5,1,2006.3999998569489,359390.7000000477,7218,VNB,C,4
3,test,3,0.0,1-Back,0.0,m,Fri Aug 29 2025 14:06:59 GMT-0500 (Central Daylight Time),363513.40000009537,022_y_f_h_a.png,O,z,1084,6,1,2106.100000143051,361407.2999999523,7218,VNB,C,5
4,test,3,0.0,1-Back,1.0,z,Fri Aug 29 2025 14:06:59 GMT-0500 (Central Daylight Time),365497.5,025_y_m_h_a.png,O,z,949,7,1,1975.0,363522.5,7218,VNB,C,6
5,test,3,0.0,1-Back,1.0,m,Fri Aug 29 2025 14:06:59 GMT-0500 (Central Daylight Time),367546.7000000477,019_m_f_n_a.png,O,m,1018,8,1,2041.0,365505.7000000477,7218,VNB,C,7
5,test,3,0.0,1-Back,0.0,m,Fri Aug 29 2025 14:06:59 GMT-0500 (Central Daylight Time),370277.2000000477,022_y_f_d_a.png,O,z,1709,9,1,2722.7000000476837,367554.5,7218,VNB,C,8
6,test,3,1.0,1-Back,1.0,m,Fri Aug 29 2025 14:06:59 GMT-0500 (Central Daylight Time),373043.59999990463,015_o_m_n_a.png,O,m,1738,10,1,2757.2999999523163,370286.2999999523,7218,VNB,C,9
6,test,3,0.0,1-Back,0.0,m,Fri Aug 29 2025 14:06:59 GMT-0500 (Central Daylight Time),375660.09999990463,014_m_m_h_a.png,O,z,1598,11,1,2609.0,373051.09999990463,7218,VNB,C,10
6,test,3,0.0,1-Back,0.0,z,Fri Aug 29 2025 14:06:59 GMT-0500 (Central Daylight Time),377943.2999999523,019_m_f_h_a.png,O,m,1261,12,1,2275.0,375668.2999999523,7218,VNB,C,11
6,test,3,1.0,1-Back,0.0,m,Fri Aug 29 2025 14:06:59 GMT-0500 (Central Daylight Time),380776.09999990463,012_o_f_d_a.png,O,z,1801,13,1,2824.699999809265,377951.40000009537,7218,VNB,C,12
7,test,3,0.0,1-Back,1.0,z,Fri Aug 29 2025 14:06:59 GMT-0500 (Central Daylight Time),383107.59999990463,014_m_m_d_a.png,O,z,1306,14,1,2322.699999809265,380784.90000009537,7218,VNB,C,13
8,test,3,0.0,1-Back,1.0,m,Fri Aug 29 2025 14:06:59 GMT-0500 (Central Daylight Time),385423.90000009537,025_y_m_n_a.png,O,m,1292,15,1,2307.9000000953674,383116.0,7218,VNB,C,14
8,test,3,1.0,1-Back,0.0,m,Fri Aug 29 2025 14:06:59 GMT-0500 (Central Daylight Time),387740.2000000477,015_o_m_h_a.png,O,z,1288,16,1,2307.2999999523163,385432.90000009537,7218,VNB,C,15
9,test,3,0.0,1-Back,1.0,m,Fri Aug 29 2025 14:06:59 GMT-0500 (Central Daylight Time),390254.7999999523,025_y_m_d_a.png,O,m,1484,17,1,2505.399999856949,387749.40000009537,7218,VNB,C,16
10,test,3,1.0,1-Back,1.0,m,Fri Aug 29 2025 14:06:59 GMT-0500 (Central Daylight Time),393238.40000009537,022_y_f_n_a.png,O,m,1961,18,1,2974.300000190735,390264.09999990463,7218,VNB,C,17
0,test,4,1.0,1-Back,,,Fri Aug 29 2025 14:06:59 GMT-0500 (Central Daylight Time),393238.40000009537,014_m_m_d_a.png,O,space,2123,1,1,2974.300000190735,390264.09999990463,7218,VNB,C,0
0,test,4,0.0,1-Back,0.0,z,Fri Aug 29 2025 14:06:59 GMT-0500 (Central Daylight Time),399420.7999999523,015_o_m_d_a.png,O,m,1006,2,1,2020.8999998569489,397399.90000009537,7218,VNB,C,1
0,test,4,0.0,1-Back,0.0,m,Fri Aug 29 2025 14:06:59 GMT-0500 (Central Daylight Time),402267.59999990463,025_y_m_h_a.png,O,z,1827,3,1,2840.7999999523163,399426.7999999523,7218,VNB,C,2
0,test,4,0.0,1-Back,0.0,m,Fri Aug 29 2025 14:06:59 GMT-0500 (Central Daylight Time),405300.90000009537,019_m_f_n_a.png,O,None,2017,4,1,3023.7000000476837,402277.2000000477,7218,VNB,C,3
0,test,4,1.0,1-Back,0.0,m,Fri Aug 29 2025 14:06:59 GMT-0500 (Central Daylight Time),407717.5,012_o_f_h_a.png,O,z,1397,5,1,2408.0,405309.5,7218,VNB,C,4
1,test,4,0.0,1-Back,1.0,m,Fri Aug 29 2025 14:06:59 GMT-0500 (Central Daylight Time),409667.5,014_m_m_n_a.png,O,m,934,6,1,1941.7999999523163,407725.7000000477,7218,VNB,C,5
1,test,4,0.0,1-Back,0.0,m,Fri Aug 29 2025 14:06:59 GMT-0500 (Central Daylight Time),412699.0,025_y_m_d_a.png,O,None,2016,7,1,3020.2999999523163,409678.7000000477,7218,VNB,C,6
2,test,4,1.0,1-Back,1.0,z,Fri Aug 29 2025 14:06:59 GMT-0500 (Central Daylight Time),415163.90000009537,022_y_f_d_a.png,O,z,1440,8,1,2458.5,412705.40000009537,7218,VNB,C,7
2,test,4,0.0,1-Back,0.0,m,Fri Aug 29 2025 14:06:59 GMT-0500 (Central Daylight Time),418196.09999990463,019_m_f_h_a.png,O,None,2015,9,1,3024.699999809265,415171.40000009537,7218,VNB,C,8
3,test,4,0.0,1-Back,1.0,z,Fri Aug 29 2025 14:06:59 GMT-0500 (Central Daylight Time),420128.5,015_o_m_h_a.png,O,z,907,10,1,1924.7999999523163,418203.7000000477,7218,VNB,C,9
4,test,4,1.0,1-Back,1.0,m,Fri Aug 29 2025 14:06:59 GMT-0500 (Central Daylight Time),422244.40000009537,012_o_f_n_a.png,O,m,1086,11,1,2107.300000190735,420137.09999990463,7218,VNB,C,10
4,test,4,0.0,1-Back,0.0,m,Fri Aug 29 2025 14:06:59 GMT-0500 (Central Daylight Time),424378.09999990463,019_m_f_d_a.png,O,z,1115,12,1,2129.899999856949,422248.2000000477,7218,VNB,C,11
5,test,4,0.0,1-Back,1.0,m,Fri Aug 29 2025 14:06:59 GMT-0500 (Central Daylight Time),426944.59999990463,022_y_f_n_a.png,O,m,1533,13,1,2560.699999809265,424383.90000009537,7218,VNB,C,12
5,test,4,0.0,1-Back,0.0,m,Fri Aug 29 2025 14:06:59 GMT-0500 (Central Daylight Time),429360.2999999523,012_o_f_d_a.png,O,z,1386,14,1,2406.7999999523163,426953.5,7218,VNB,C,13
5,test,4,0.0,1-Back,0.0,m,Fri Aug 29 2025 14:06:59 GMT-0500 (Central Daylight Time),432394.0,022_y_f_h_a.png,O,None,2017,15,1,3029.7000000476837,429364.2999999523,7218,VNB,C,14
5,test,4,1.0,1-Back,0.0,z,Fri Aug 29 2025 14:06:59 GMT-0500 (Central Daylight Time),435423.90000009537,014_m_m_h_a.png,O,m,1992,16,1,3012.9000000953674,432411.0,7218,VNB,C,15
5,test,4,0.0,1-Back,0.0,m,Fri Aug 29 2025 14:06:59 GMT-0500 (Central Daylight Time),438457.59999990463,015_o_m_n_a.png,O,None,2015,17,1,3026.199999809265,435431.40000009537,7218,VNB,C,16
6,test,4,1.0,1-Back,1.0,z,Fri Aug 29 2025 14:06:59 GMT-0500 (Central Daylight Time),440691.7000000477,025_y_m_n_a.png,O,z,1207,18,1,2226.0,438465.7000000477,7218,VNB,C,17
0,test,5,1.0,1-Back,,,Fri Aug 29 2025 14:06:59 GMT-0500 (Central Daylight Time),440691.7000000477,015_o_m_n_a.png,O,space,3357,1,1,2226.0,438465.7000000477,7218,VNB,C,0
1,test,5,1.0,1-Back,1.0,m,Fri Aug 29 2025 14:06:59 GMT-0500 (Central Daylight Time),448353.59999990463,012_o_f_h_a.png,O,m,1256,2,1,2273.699999809265,446079.90000009537,7218,VNB,C,1
1,test,5,0.0,1-Back,0.0,m,Fri Aug 29 2025 14:06:59 GMT-0500 (Central Daylight Time),450802.09999990463,025_y_m_d_a.png,O,z,1429,3,1,2442.399999856949,448359.7000000477,7218,VNB,C,2
2,test,5,0.0,1-Back,1.0,z,Fri Aug 29 2025 14:06:59 GMT-0500 (Central Daylight Time),453337.2000000477,015_o_m_d_a.png,O,z,1503,4,1,2528.100000143051,450809.09999990463,7218,VNB,C,3
3,test,5,0.0,1-Back,1.0,m,Fri Aug 29 2025 14:06:59 GMT-0500 (Central Daylight Time),455467.59999990463,019_m_f_h_a.png,O,m,1109,5,1,2120.899999856949,453346.7000000477,7218,VNB,C,4
3,test,5,0.0,1-Back,0.0,m,Fri Aug 29 2025 14:06:59 GMT-0500 (Central Daylight Time),457600.59999990463,022_y_f_n_a.png,O,z,1102,6,1,2123.699999809265,455476.90000009537,7218,VNB,C,5
4,test,5,1.0,1-Back,1.0,z,Fri Aug 29 2025 14:06:59 GMT-0500 (Central Daylight Time),460433.59999990463,012_o_f_n_a.png,O,z,1806,7,1,2824.899999856949,457608.7000000477,7218,VNB,C,6
5,test,5,0.0,1-Back,1.0,m,Fri Aug 29 2025 14:06:59 GMT-0500 (Central Daylight Time),462481.90000009537,019_m_f_d_a.png,O,m,1024,8,1,2040.8000001907349,460441.09999990463,7218,VNB,C,7
5,test,5,0.0,1-Back,0.0,m,Fri Aug 29 2025 14:06:59 GMT-0500 (Central Daylight Time),464914.40000009537,025_y_m_h_a.png,O,z,1414,9,1,2425.300000190735,462489.09999990463,7218,VNB,C,8
6,test,5,0.0,1-Back,1.0,m,Fri Aug 29 2025 14:06:59 GMT-0500 (Central Daylight Time),466883.2999999523,022_y_f_d_a.png,O,m,941,10,1,1960.7999999523163,464922.5,7218,VNB,C,9
7,test,5,0.0,1-Back,1.0,m,Fri Aug 29 2025 14:06:59 GMT-0500 (Central Daylight Time),469882.7999999523,014_m_m_n_a.png,O,m,1976,11,1,2989.0,466893.7999999523,7218,VNB,C,10
8,test,5,1.0,1-Back,1.0,z,Fri Aug 29 2025 14:06:59 GMT-0500 (Central Daylight Time),471997.2000000477,019_m_f_n_a.png,O,z,1096,12,1,2105.2000000476837,469892.0,7218,VNB,C,11
9,test,5,0.0,1-Back,1.0,m,Fri Aug 29 2025 14:06:59 GMT-0500 (Central Daylight Time),474496.0,015_o_m_h_a.png,O,m,1471,13,1,2492.5999999046326,472003.40000009537,7218,VNB,C,12
10,test,5,0.0,1-Back,1.0,z,Fri Aug 29 2025 14:06:59 GMT-0500 (Central Daylight Time),477210.7999999523,014_m_m_h_a.png,O,z,1697,14,1,2707.2000000476837,474503.59999990463,7218,VNB,C,13
11,test,5,1.0,1-Back,1.0,m,Fri Aug 29 2025 14:06:59 GMT-0500 (Central Daylight Time),479376.09999990463,012_o_f_d_a.png,O,m,1136,15,1,2157.199999809265,477218.90000009537,7218,VNB,C,14
11,test,5,0.0,1-Back,0.0,m,Fri Aug 29 2025 14:06:59 GMT-0500 (Central Daylight Time),481776.7999999523,025_y_m_n_a.png,O,z,1375,16,1,2392.2000000476837,479384.59999990463,7218,VNB,C,15
11,test,5,0.0,1-Back,0.0,m,Fri Aug 29 2025 14:06:59 GMT-0500 (Central Daylight Time),484809.40000009537,022_y_f_h_a.png,O,None,2016,17,1,3019.300000190735,481790.09999990463,7218,VNB,C,16
11,test,5,0.0,1-Back,0.0,m,Fri Aug 29 2025 14:06:59 GMT-0500 (Central Daylight Time),487174.90000009537,014_m_m_d_a.png,O,z,1337,18,1,2356.9000000953674,484818.0,7218,VNB,C,17
0,prac,1,0.0,2-Back,,,Fri Aug 29 2025 14:06:59 GMT-0500 (Central Daylight Time),487174.90000009537,019_m_f_n_a.png,O,space,8758,1,1,2356.9000000953674,484818.0,7218,VNB,C,0
0,prac,1,0.0,2-Back,,,Fri Aug 29 2025 14:06:59 GMT-0500 (Central Daylight Time),487174.90000009537,012_o_f_h_a.png,O,space,8758,2,1,2356.9000000953674,484818.0,7218,VNB,C,0
1,prac,1,0.0,2-Back,1.0,m,Fri Aug 29 2025 14:06:59 GMT-0500 (Central Daylight Time),606919.9000000954,015_o_m_d_a.png,O,m,1698,3,1,2571.600000143051,604348.2999999523,7218,VNB,C,1
1,prac,1,1.0,2-Back,0.0,z,Fri Aug 29 2025 14:06:59 GMT-0500 (Central Daylight Time),609769.4000000954,014_m_m_h_a.png,O,None,2001,4,1,2839.5,606929.9000000954,7218,VNB,C,2
2,prac,1,0.0,2-Back,1.0,m,Fri Aug 29 2025 14:06:59 GMT-0500 (Central Daylight Time),611969.7000000477,022_y_f_n_a.png,O,m,1321,5,1,2186.9000000953674,609782.7999999523,7218,VNB,C,3
3,prac,1,1.0,2-Back,1.0,z,Fri Aug 29 2025 14:06:59 GMT-0500 (Central Daylight Time),614318.0,015_o_m_h_a.png,O,z,1473,6,1,2336.5999999046326,611981.4000000954,7218,VNB,C,4
3,prac,1,1.0,2-Back,0.0,z,Fri Aug 29 2025 14:06:59 GMT-0500 (Central Daylight Time),616300.7000000477,025_y_m_n_a.png,O,m,1122,7,1,1972.7000000476837,614328.0,7218,VNB,C,5
3,prac,1,0.0,2-Back,0.0,m,Fri Aug 29 2025 14:06:59 GMT-0500 (Central Daylight Time),618500.2000000477,019_m_f_d_a.png,O,z,1331,8,1,2190.5,616309.7000000477,7218,VNB,C,6
3,prac,1,0.0,2-Back,0.0,m,Fri Aug 29 2025 14:06:59 GMT-0500 (Central Daylight Time),620780.7000000477,012_o_f_d_a.png,O,z,1417,9,1,2273.600000143051,618507.0999999046,7218,VNB,C,7
4,prac,1,0.0,2-Back,1.0,m,Fri Aug 29 2025 14:06:59 GMT-0500 (Central Daylight Time),622882.2999999523,014_m_m_h_a.png,O,m,1310,10,1,2091.899999856949,620790.4000000954,7218,VNB,C,8
4,prac,1,1.0,2-Back,0.0,z,Fri Aug 29 2025 14:06:59 GMT-0500 (Central Daylight Time),624919.7000000477,022_y_f_d_a.png,O,m,1166,11,1,2026.4000000953674,622893.2999999523,7218,VNB,C,9
4,prac,1,0.0,2-Back,0.0,m,Fri Aug 29 2025 14:06:59 GMT-0500 (Central Daylight Time),627280.5,015_o_m_n_a.png,O,z,1462,12,1,2341.0999999046326,624939.4000000954,7218,VNB,C,10
0,prac,2,0.0,2-Back,,,Fri Aug 29 2025 14:06:59 GMT-0500 (Central Daylight Time),627280.5,019_m_f_n_a.png,O,a,5587,1,1,2341.0999999046326,624939.4000000954,7218,VNB,C,0
0,prac,2,0.0,2-Back,,,Fri Aug 29 2025 14:06:59 GMT-0500 (Central Daylight Time),627280.5,012_o_f_h_a.png,O,a,5587,2,1,2341.0999999046326,624939.4000000954,7218,VNB,C,0
0,prac,2,0.0,2-Back,0.0,m,Fri Aug 29 2025 14:06:59 GMT-0500 (Central Daylight Time),640209.7999999523,015_o_m_d_a.png,O,z,1256,3,1,2104.7000000476837,638105.0999999046,7218,VNB,C,1
0,prac,2,1.0,2-Back,0.0,z,Fri Aug 29 2025 14:06:59 GMT-0500 (Central Daylight Time),642992.2000000477,014_m_m_h_a.png,O,None,2010,4,1,2776.4000000953674,640215.7999999523,7218,VNB,C,2
0,prac,2,0.0,2-Back,0.0,m,Fri Aug 29 2025 14:06:59 GMT-0500 (Central Daylight Time),645057.9000000954,022_y_f_n_a.png,O,z,1215,5,1,2054.9000000953674,643003.0,7218,VNB,C,3
0,prac,2,1.0,2-Back,0.0,z,Fri Aug 29 2025 14:06:59 GMT-0500 (Central Daylight Time),647191.0999999046,015_o_m_h_a.png,O,m,1268,6,1,2124.5999999046326,645066.5,7218,VNB,C,4
1,prac,2,1.0,2-Back,1.0,z,Fri Aug 29 2025 14:06:59 GMT-0500 (Central Daylight Time),649423.4000000954,025_y_m_n_a.png,O,z,1374,7,1,2216.9000000953674,647206.5,7218,VNB,C,5
2,prac,2,0.0,2-Back,1.0,m,Fri Aug 29 2025 14:06:59 GMT-0500 (Central Daylight Time),651473.2999999523,019_m_f_d_a.png,O,m,1176,8,1,2041.7000000476837,649431.5999999046,7218,VNB,C,6
2,prac,2,0.0,2-Back,0.0,m,Fri Aug 29 2025 14:06:59 GMT-0500 (Central Daylight Time),653771.7000000477,012_o_f_d_a.png,O,z,1425,9,1,2286.7000000476837,651485.0,7218,VNB,C,7
3,prac,2,0.0,2-Back,1.0,m,Fri Aug 29 2025 14:06:59 GMT-0500 (Central Daylight Time),655421.2999999523,014_m_m_h_a.png,O,m,869,10,1,1642.0,653779.2999999523,7218,VNB,C,8
4,prac,2,1.0,2-Back,1.0,z,Fri Aug 29 2025 14:06:59 GMT-0500 (Central Daylight Time),657355.4000000954,022_y_f_d_a.png,O,z,1055,11,1,1923.5,655431.9000000954,7218,VNB,C,9
5,prac,2,0.0,2-Back,1.0,m,Fri Aug 29 2025 14:06:59 GMT-0500 (Central Daylight Time),659237.0,015_o_m_n_a.png,O,m,1010,12,1,1870.5999999046326,657366.4000000954,7218,VNB,C,10
0,test,1,0.0,2-Back,,,Fri Aug 29 2025 14:06:59 GMT-0500 (Central Daylight Time),659237.0,025_y_m_h_a.png,O,space,9560,1,1,1870.5999999046326,657366.4000000954,7218,VNB,C,0
0,test,1,0.0,2-Back,,,Fri Aug 29 2025 14:06:59 GMT-0500 (Central Daylight Time),659237.0,012_o_f_n_a.png,O,space,9560,2,1,1870.5999999046326,657366.4000000954,7218,VNB,C,0
0,test,1,0.0,2-Back,0.0,z,Fri Aug 29 2025 14:06:59 GMT-0500 (Central Daylight Time),686328.7000000477,015_o_m_h_a.png,O,m,908,3,1,1928.5,684400.2000000477,7218,VNB,C,1
0,test,1,0.0,2-Back,0.0,m,Fri Aug 29 2025 14:06:59 GMT-0500 (Central Daylight Time),689344.7999999523,019_m_f_d_a.png,O,None,2001,4,1,3006.7000000476837,686338.0999999046,7218,VNB,C,2
1,test,1,1.0,2-Back,1.0,m,Fri Aug 29 2025 14:06:59 GMT-0500 (Central Daylight Time),691577.0,025_y_m_n_a.png,O,m,1201,5,1,2223.0,689354.0,7218,VNB,C,3
2,test,1,0.0,2-Back,1.0,z,Fri Aug 29 2025 14:06:59 GMT-0500 (Central Daylight Time),693642.7000000477,022_y_f_d_a.png,O,z,1048,6,1,2057.0,691585.7000000477,7218,VNB,C,4
3,test,1,0.0,2-Back,1.0,m,Fri Aug 29 2025 14:06:59 GMT-0500 (Central Daylight Time),695790.9000000954,014_m_m_h_a.png,O,m,1118,7,1,2139.2000000476837,693651.7000000477,7218,VNB,C,5
3,test,1,1.0,2-Back,0.0,m,Fri Aug 29 2025 14:06:59 GMT-0500 (Central Daylight Time),697973.4000000954,022_y_f_n_a.png,O,z,1162,8,1,2175.5,695797.9000000954,7218,VNB,C,6
4,test,1,0.0,2-Back,1.0,z,Fri Aug 29 2025 14:06:59 GMT-0500 (Central Daylight Time),700172.5999999046,012_o_f_h_a.png,O,z,1170,9,1,2191.2999999523163,697981.2999999523,7218,VNB,C,7
5,test,1,0.0,2-Back,1.0,m,Fri Aug 29 2025 14:06:59 GMT-0500 (Central Daylight Time),702522.7000000477,015_o_m_d_a.png,O,m,1319,10,1,2342.7000000476837,700180.0,7218,VNB,C,8
5,test,1,1.0,2-Back,0.0,m,Fri Aug 29 2025 14:06:59 GMT-0500 (Central Daylight Time),704289.4000000954,014_m_m_d_a.png,O,z,743,11,1,1759.1000001430511,702530.2999999523,7218,VNB,C,9
5,test,1,0.0,2-Back,0.0,m,Fri Aug 29 2025 14:06:59 GMT-0500 (Central Daylight Time),706721.7000000477,019_m_f_n_a.png,O,z,1401,12,1,2422.0,704299.7000000477,7218,VNB,C,10
6,test,1,0.0,2-Back,1.0,m,Fri Aug 29 2025 14:06:59 GMT-0500 (Central Daylight Time),708937.0,022_y_f_h_a.png,O,m,1184,13,1,2206.0999999046326,706730.9000000954,7218,VNB,C,11
7,test,1,0.0,2-Back,1.0,z,Fri Aug 29 2025 14:06:59 GMT-0500 (Central Daylight Time),710885.9000000954,014_m_m_n_a.png,O,z,919,14,1,1941.4000000953674,708944.5,7218,VNB,C,12
7,test,1,0.0,2-Back,0.0,m,Fri Aug 29 2025 14:06:59 GMT-0500 (Central Daylight Time),713035.0999999046,025_y_m_d_a.png,O,z,1121,15,1,2140.0999999046326,710895.0,7218,VNB,C,13
8,test,1,1.0,2-Back,1.0,m,Fri Aug 29 2025 14:06:59 GMT-0500 (Central Daylight Time),715168.0,019_m_f_h_a.png,O,m,1101,16,1,2124.7999999523163,713043.2000000477,7218,VNB,C,14
9,test,1,0.0,2-Back,1.0,z,Fri Aug 29 2025 14:06:59 GMT-0500 (Central Daylight Time),717350.7999999523,012_o_f_d_a.png,O,z,1160,17,1,2174.2000000476837,715176.5999999046,7218,VNB,C,15
10,test,1,0.0,2-Back,1.0,m,Fri Aug 29 2025 14:06:59 GMT-0500 (Central Daylight Time),719732.9000000954,015_o_m_n_a.png,O,m,1352,18,1,2374.9000000953674,717358.0,7218,VNB,C,16
0,test,2,0.0,2-Back,,,Fri Aug 29 2025 14:06:59 GMT-0500 (Central Daylight Time),719732.9000000954,014_m_m_h_a.png,O,space,2019,1,1,2374.9000000953674,717358.0,7218,VNB,C,0
0,test,2,0.0,2-Back,,,Fri Aug 29 2025 14:06:59 GMT-0500 (Central Daylight Time),719732.9000000954,022_y_f_n_a.png,O,space,2019,2,1,2374.9000000953674,717358.0,7218,VNB,C,0
1,test,2,1.0,2-Back,1.0,z,Fri Aug 29 2025 14:06:59 GMT-0500 (Central Daylight Time),728881.2999999523,012_o_f_h_a.png,O,z,885,3,1,1909.3999998569489,726971.9000000954,7218,VNB,C,1
1,test,2,0.0,2-Back,0.0,m,Fri Aug 29 2025 14:06:59 GMT-0500 (Central Daylight Time),731911.9000000954,015_o_m_d_a.png,O,None,2015,4,1,3023.100000143051,728888.7999999523,7218,VNB,C,2
2,test,2,0.0,2-Back,1.0,m,Fri Aug 29 2025 14:06:59 GMT-0500 (Central Daylight Time),734346.0,019_m_f_d_a.png,O,m,1405,5,1,2429.0,731917.0,7218,VNB,C,3
2,test,2,0.0,2-Back,0.0,m,Fri Aug 29 2025 14:06:59 GMT-0500 (Central Daylight Time),737362.4000000954,025_y_m_h_a.png,O,None,2001,6,1,3007.2000000476837,734355.2000000477,7218,VNB,C,4
2,test,2,0.0,2-Back,0.0,m,Fri Aug 29 2025 14:06:59 GMT-0500 (Central Daylight Time),739410.2000000477,012_o_f_n_a.png,O,z,1016,7,1,2040.7999999523163,737369.4000000954,7218,VNB,C,5
3,test,2,1.0,2-Back,1.0,z,Fri Aug 29 2025 14:06:59 GMT-0500 (Central Daylight Time),741344.5,015_o_m_h_a.png,O,z,903,8,1,1924.2000000476837,739420.2999999523,7218,VNB,C,6
4,test,2,0.0,2-Back,1.0,m,Fri Aug 29 2025 14:06:59 GMT-0500 (Central Daylight Time),743393.2000000477,022_y_f_d_a.png,O,m,1018,9,1,2038.6000001430511,741354.5999999046,7218,VNB,C,7
4,test,2,0.0,2-Back,0.0,m,Fri Aug 29 2025 14:06:59 GMT-0500 (Central Daylight Time),745292.2999999523,025_y_m_d_a.png,O,z,869,10,1,1890.2999999523163,743402.0,7218,VNB,C,8
5,test,2,0.0,2-Back,1.0,m,Fri Aug 29 2025 14:06:59 GMT-0500 (Central Daylight Time),747692.5999999046,014_m_m_n_a.png,O,m,1371,11,1,2392.7999999523163,745299.7999999523,7218,VNB,C,9
5,test,2,0.0,2-Back,0.0,m,Fri Aug 29 2025 14:06:59 GMT-0500 (Central Daylight Time),749325.0,019_m_f_h_a.png,O,z,604,12,1,1624.0,747701.0,7218,VNB,C,10
5,test,2,1.0,2-Back,0.0,z,Fri Aug 29 2025 14:06:59 GMT-0500 (Central Daylight Time),751241.0999999046,015_o_m_n_a.png,O,m,891,13,1,1907.0,749334.0999999046,7218,VNB,C,11
5,test,2,0.0,2-Back,0.0,m,Fri Aug 29 2025 14:06:59 GMT-0500 (Central Daylight Time),753023.4000000954,012_o_f_d_a.png,O,z,760,14,1,1778.0,751245.4000000954,7218,VNB,C,12
6,test,2,0.0,2-Back,1.0,m,Fri Aug 29 2025 14:06:59 GMT-0500 (Central Daylight Time),754655.2999999523,022_y_f_h_a.png,O,m,598,15,1,1623.3999998569489,753031.9000000954,7218,VNB,C,13
7,test,2,0.0,2-Back,1.0,z,Fri Aug 29 2025 14:06:59 GMT-0500 (Central Daylight Time),756155.4000000954,014_m_m_d_a.png,O,z,483,16,1,1490.0,754665.4000000954,7218,VNB,C,14
8,test,2,0.0,2-Back,1.0,m,Fri Aug 29 2025 14:06:59 GMT-0500 (Central Daylight Time),758073.9000000954,025_y_m_n_a.png,O,m,902,17,1,1913.0,756160.9000000954,7218,VNB,C,15
8,test,2,1.0,2-Back,0.0,m,Fri Aug 29 2025 14:06:59 GMT-0500 (Central Daylight Time),759605.5999999046,019_m_f_n_a.png,O,z,505,18,1,1523.6999998092651,758081.9000000954,7218,VNB,C,16
0,test,3,1.0,2-Back,,,Fri Aug 29 2025 14:06:59 GMT-0500 (Central Daylight Time),759605.5999999046,015_o_m_n_a.png,O,space,1787,1,1,1523.6999998092651,758081.9000000954,7218,VNB,C,0
0,test,3,1.0,2-Back,,,Fri Aug 29 2025 14:06:59 GMT-0500 (Central Daylight Time),759605.5999999046,012_o_f_d_a.png,O,space,1787,2,1,1523.6999998092651,758081.9000000954,7218,VNB,C,0
0,test,3,0.0,2-Back,0.0,m,Fri Aug 29 2025 14:06:59 GMT-0500 (Central Daylight Time),769117.7000000477,022_y_f_h_a.png,O,z,1634,3,1,2654.9000000953674,766462.7999999523,7218,VNB,C,1
0,test,3,0.0,2-Back,0.0,z,Fri Aug 29 2025 14:06:59 GMT-0500 (Central Daylight Time),771166.5,019_m_f_d_a.png,O,m,1025,4,1,2038.0999999046326,769128.4000000954,7218,VNB,C,2
0,test,3,1.0,2-Back,0.0,m,Fri Aug 29 2025 14:06:59 GMT-0500 (Central Daylight Time),773617.0,025_y_m_n_a.png,O,z,1416,5,1,2442.7999999523163,771174.2000000477,7218,VNB,C,3
1,test,3,0.0,2-Back,1.0,m,Fri Aug 29 2025 14:06:59 GMT-0500 (Central Daylight Time),775600.0999999046,015_o_m_h_a.png,O,m,948,6,1,1973.0999999046326,773627.0,7218,VNB,C,4
2,test,3,0.0,2-Back,1.0,z,Fri Aug 29 2025 14:06:59 GMT-0500 (Central Daylight Time),777264.0999999046,022_y_f_n_a.png,O,z,641,7,1,1655.7999999523163,775608.2999999523,7218,VNB,C,5
2,test,3,1.0,2-Back,0.0,m,Fri Aug 29 2025 14:06:59 GMT-0500 (Central Daylight Time),779915.5999999046,014_m_m_d_a.png,O,z,1631,8,1,2648.7999999523163,777266.7999999523,7218,VNB,C,6
3,test,3,0.0,2-Back,1.0,m,Fri Aug 29 2025 14:06:59 GMT-0500 (Central Daylight Time),782563.7000000477,025_y_m_d_a.png,O,m,1621,9,1,2639.5,779924.2000000477,7218,VNB,C,7
3,test,3,0.0,2-Back,0.0,m,Fri Aug 29 2025 14:06:59 GMT-0500 (Central Daylight Time),784580.4000000954,012_o_f_h_a.png,O,z,1000,10,1,2007.3000001907349,782573.0999999046,7218,VNB,C,8
4,test,3,1.0,2-Back,1.0,m,Fri Aug 29 2025 14:06:59 GMT-0500 (Central Daylight Time),786945.5999999046,019_m_f_n_a.png,O,m,1342,11,1,2357.199999809265,784588.4000000954,7218,VNB,C,9
5,test,3,1.0,2-Back,1.0,z,Fri Aug 29 2025 14:06:59 GMT-0500 (Central Daylight Time),789077.7999999523,014_m_m_h_a.png,O,z,1104,12,1,2124.399999856949,786953.4000000954,7218,VNB,C,10
6,test,3,0.0,2-Back,1.0,m,Fri Aug 29 2025 14:06:59 GMT-0500 (Central Daylight Time),790945.5,022_y_f_d_a.png,O,m,835,13,1,1857.5,789088.0,7218,VNB,C,11
6,test,3,0.0,2-Back,0.0,m,Fri Aug 29 2025 14:06:59 GMT-0500 (Central Daylight Time),792876.5,012_o_f_n_a.png,O,z,908,14,1,1922.9000000953674,790953.5999999046,7218,VNB,C,12
7,test,3,0.0,2-Back,1.0,z,Fri Aug 29 2025 14:06:59 GMT-0500 (Central Daylight Time),794841.7999999523,015_o_m_d_a.png,O,z,937,15,1,1957.2000000476837,792884.5999999046,7218,VNB,C,13
7,test,3,1.0,2-Back,0.0,m,Fri Aug 29 2025 14:06:59 GMT-0500 (Central Daylight Time),797342.5999999046,019_m_f_h_a.png,O,z,1468,16,1,2497.0,794845.5999999046,7218,VNB,C,14
8,test,3,0.0,2-Back,1.0,m,Fri Aug 29 2025 14:06:59 GMT-0500 (Central Daylight Time),799825.2000000477,014_m_m_n_a.png,O,m,1453,17,1,2475.100000143051,797350.0999999046,7218,VNB,C,15
9,test,3,0.0,2-Back,1.0,z,Fri Aug 29 2025 14:06:59 GMT-0500 (Central Daylight Time),802625.7000000477,025_y_m_h_a.png,O,z,1774,18,1,2791.4000000953674,799834.2999999523,7218,VNB,C,16
0,test,4,0.0,2-Back,,,Fri Aug 29 2025 14:06:59 GMT-0500 (Central Daylight Time),802625.7000000477,019_m_f_n_a.png,O,space,1823,1,1,2791.4000000953674,799834.2999999523,7218,VNB,C,0
0,test,4,0.0,2-Back,,,Fri Aug 29 2025 14:06:59 GMT-0500 (Central Daylight Time),802625.7000000477,015_o_m_n_a.png,O,space,1823,2,1,2791.4000000953674,799834.2999999523,7218,VNB,C,0
0,test,4,1.0,2-Back,0.0,m,Fri Aug 29 2025 14:06:59 GMT-0500 (Central Daylight Time),811921.9000000954,025_y_m_h_a.png,O,z,1217,3,1,2240.100000143051,809681.7999999523,7218,VNB,C,1
1,test,4,1.0,2-Back,1.0,m,Fri Aug 29 2025 14:06:59 GMT-0500 (Central Daylight Time),814937.7000000477,012_o_f_d_a.png,O,m,1992,4,1,3006.2000000476837,811931.5,7218,VNB,C,2
2,test,4,0.0,2-Back,1.0,z,Fri Aug 29 2025 14:06:59 GMT-0500 (Central Daylight Time),817085.5,015_o_m_h_a.png,O,z,1118,5,1,2138.4000000953674,814947.0999999046,7218,VNB,C,3
3,test,4,0.0,2-Back,1.0,m,Fri Aug 29 2025 14:06:59 GMT-0500 (Central Daylight Time),819385.2000000477,014_m_m_n_a.png,O,m,1269,6,1,2292.7999999523163,817092.4000000954,7218,VNB,C,4
3,test,4,0.0,2-Back,0.0,m,Fri Aug 29 2025 14:06:59 GMT-0500 (Central Daylight Time),821417.7000000477,019_m_f_d_a.png,O,z,999,7,1,2022.6000001430511,819395.0999999046,7218,VNB,C,5
3,test,4,0.0,2-Back,0.0,z,Fri Aug 29 2025 14:06:59 GMT-0500 (Central Daylight Time),824284.2000000477,022_y_f_n_a.png,O,m,1832,8,1,2861.5,821422.7000000477,7218,VNB,C,6
3,test,4,1.0,2-Back,0.0,m,Fri Aug 29 2025 14:06:59 GMT-0500 (Central Daylight Time),826265.9000000954,012_o_f_h_a.png,O,z,955,9,1,1971.9000000953674,824294.0,7218,VNB,C,7
4,test,4,0.0,2-Back,1.0,m,Fri Aug 29 2025 14:06:59 GMT-0500 (Central Daylight Time),828282.7000000477,014_m_m_h_a.png,O,m,990,10,1,2006.9000000953674,826275.7999999523,7218,VNB,C,8
4,test,4,0.0,2-Back,0.0,m,Fri Aug 29 2025 14:06:59 GMT-0500 (Central Daylight Time),830497.5,022_y_f_d_a.png,O,z,1188,11,1,2205.9000000953674,828291.5999999046,7218,VNB,C,9
5,test,4,0.0,2-Back,1.0,m,Fri Aug 29 2025 14:06:59 GMT-0500 (Central Daylight Time),832615.2000000477,025_y_m_n_a.png,O,m,1093,12,1,2114.100000143051,830501.0999999046,7218,VNB,C,10
6,test,4,0.0,2-Back,1.0,z,Fri Aug 29 2025 14:06:59 GMT-0500 (Central Daylight Time),834480.4000000954,015_o_m_d_a.png,O,z,842,13,1,1859.5,832620.9000000954,7218,VNB,C,11
7,test,4,1.0,2-Back,1.0,m,Fri Aug 29 2025 14:06:59 GMT-0500 (Central Daylight Time),836547.7999999523,019_m_f_h_a.png,O,m,1038,14,1,2059.7999999523163,834488.0,7218,VNB,C,12
7,test,4,1.0,2-Back,0.0,m,Fri Aug 29 2025 14:06:59 GMT-0500 (Central Daylight Time),838196.2000000477,022_y_f_h_a.png,O,z,629,15,1,1639.2000000476837,836557.0,7218,VNB,C,13
8,test,4,0.0,2-Back,1.0,m,Fri Aug 29 2025 14:06:59 GMT-0500 (Central Daylight Time),840296.7000000477,012_o_f_n_a.png,O,m,1073,16,1,2090.9000000953674,838205.7999999523,7218,VNB,C,14
8,test,4,0.0,2-Back,0.0,m,Fri Aug 29 2025 14:06:59 GMT-0500 (Central Daylight Time),842277.7999999523,025_y_m_d_a.png,O,z,962,17,1,1974.5999999046326,840303.2000000477,7218,VNB,C,15
8,test,4,1.0,2-Back,0.0,m,Fri Aug 29 2025 14:06:59 GMT-0500 (Central Daylight Time),844178.5999999046,014_m_m_d_a.png,O,z,873,18,1,1891.0,842287.5999999046,7218,VNB,C,16
0,test,5,1.0,2-Back,,,Fri Aug 29 2025 14:06:59 GMT-0500 (Central Daylight Time),844178.5999999046,022_y_f_d_a.png,O,space,1693,1,1,1891.0,842287.5999999046,7218,VNB,C,0
0,test,5,1.0,2-Back,,,Fri Aug 29 2025 14:06:59 GMT-0500 (Central Daylight Time),844178.5999999046,012_o_f_h_a.png,O,space,1693,2,1,1891.0,842287.5999999046,7218,VNB,C,0
1,test,5,1.0,2-Back,1.0,z,Fri Aug 29 2025 14:06:59 GMT-0500 (Central Daylight Time),852623.7000000477,015_o_m_d_a.png,O,z,498,3,1,1520.2000000476837,851103.5,7218,VNB,C,1
2,test,5,1.0,2-Back,1.0,m,Fri Aug 29 2025 14:06:59 GMT-0500 (Central Daylight Time),854491.2999999523,019_m_f_n_a.png,O,m,849,4,1,1859.7000000476837,852631.5999999046,7218,VNB,C,2
2,test,5,0.0,2-Back,0.0,m,Fri Aug 29 2025 14:06:59 GMT-0500 (Central Daylight Time),856490.5,014_m_m_h_a.png,O,z,966,5,1,1990.2999999523163,854500.2000000477,7218,VNB,C,3
2,test,5,0.0,2-Back,0.0,z,Fri Aug 29 2025 14:06:59 GMT-0500 (Central Daylight Time),858689.7999999523,022_y_f_n_a.png,O,m,1167,6,1,2190.7000000476837,856499.0999999046,7218,VNB,C,4
2,test,5,0.0,2-Back,0.0,m,Fri Aug 29 2025 14:06:59 GMT-0500 (Central Daylight Time),860737.2000000477,012_o_f_d_a.png,O,z,1029,7,1,2037.6000001430511,858699.5999999046,7218,VNB,C,5
2,test,5,0.0,2-Back,0.0,m,Fri Aug 29 2025 14:06:59 GMT-0500 (Central Daylight Time),862922.0999999046,015_o_m_h_a.png,O,z,1152,8,1,2180.2999999523163,860741.7999999523,7218,VNB,C,6
2,test,5,1.0,2-Back,0.0,z,Fri Aug 29 2025 14:06:59 GMT-0500 (Central Daylight Time),864955.2999999523,019_m_f_d_a.png,O,m,1004,9,1,2024.5,862930.7999999523,7218,VNB,C,7
2,test,5,0.0,2-Back,0.0,m,Fri Aug 29 2025 14:06:59 GMT-0500 (Central Daylight Time),866953.7999999523,025_y_m_n_a.png,O,z,967,10,1,1989.7999999523163,864964.0,7218,VNB,C,8
3,test,5,0.0,2-Back,1.0,m,Fri Aug 29 2025 14:06:59 GMT-0500 (Central Daylight Time),869137.0999999046,014_m_m_n_a.png,O,m,1152,11,1,2175.0999999046326,866962.0,7218,VNB,C,9
3,test,5,0.0,2-Back,0.0,m,Fri Aug 29 2025 14:06:59 GMT-0500 (Central Daylight Time),871135.5999999046,022_y_f_h_a.png,O,z,975,12,1,1988.6999998092651,869146.9000000954,7218,VNB,C,10
4,test,5,0.0,2-Back,1.0,m,Fri Aug 29 2025 14:06:59 GMT-0500 (Central Daylight Time),873169.0,025_y_m_d_a.png,O,m,1008,13,1,2024.0999999046326,871144.9000000954,7218,VNB,C,11
5,test,5,1.0,2-Back,1.0,z,Fri Aug 29 2025 14:06:59 GMT-0500 (Central Daylight Time),875218.0999999046,019_m_f_h_a.png,O,z,1022,14,1,2038.1999998092651,873179.9000000954,7218,VNB,C,12
6,test,5,0.0,2-Back,1.0,m,Fri Aug 29 2025 14:06:59 GMT-0500 (Central Daylight Time),877233.7999999523,015_o_m_n_a.png,O,m,989,15,1,2008.2999999523163,875225.5,7218,VNB,C,13
6,test,5,0.0,2-Back,0.0,m,Fri Aug 29 2025 14:06:59 GMT-0500 (Central Daylight Time),879349.0,014_m_m_d_a.png,O,z,1093,16,1,2108.0999999046326,877240.9000000954,7218,VNB,C,14
6,test,5,0.0,2-Back,0.0,z,Fri Aug 29 2025 14:06:59 GMT-0500 (Central Daylight Time),881982.2999999523,012_o_f_n_a.png,O,m,1603,17,1,2624.899999856949,879357.4000000954,7218,VNB,C,15
6,test,5,1.0,2-Back,0.0,m,Fri Aug 29 2025 14:06:59 GMT-0500 (Central Daylight Time),883933.7000000477,025_y_m_h_a.png,O,z,917,18,1,1941.5,881992.2000000477,7218,VNB,C,16
