Q,Q1,Q2,Q3,Q4,acc_sum,block,block_c,correct,correct_response,datetime,endtime,project,response,response_time,row_sel,session_number,squiggle1,squiggle1x,squiggle1y,squiggle2,squiggle2x,squiggle2y,squiggle3,squiggle3x,squiggle3y,squiggle4,squiggle4x,squiggle4y,start_end,starttime,subject_id,target_congruent,task,task_vers,testsquiggle,testsquigglex,testsquiggley,time_practice_delay,time_practice_fixation,time_practice_stimuli,time_practice_study,time_test_delay,time_test_fixation,time_test_stimuli,time_test_study,trial
1,1,0,0,0,1,prac,1,1,z,Wed Oct 29 2025 12:11:18 GMT-0500 (Central Daylight Time),170779.29999995232,O,z,1648,1,1,116.bmp,-120,-120,117.bmp,120,-120,118.bmp,-120,120,119.bmp,120,120,10473.799999952316,160305.5,7703,yes,SM,A,116.bmp,-120,-120,164346,158319,166361,160328,,,,,1
3,0,0,1,0,1,prac,1,0,m,Wed Oct 29 2025 12:11:18 GMT-0500 (Central Daylight Time),180976.0,O,z,1367,2,1,120.bmp,-120,-120,121.bmp,120,-120,122.bmp,-120,120,123.bmp,120,120,10189.400000095367,170786.59999990463,7703,no,SM,A,123.bmp,-120,120,174823,168800,176841,170808,,,,,2
4,0,0,0,1,1,prac,1,0,m,Wed Oct 29 2025 12:11:18 GMT-0500 (Central Daylight Time),191788.29999995232,O,None,2001,3,1,124.bmp,-120,-120,125.bmp,120,-120,126.bmp,-120,120,127.bmp,120,120,10808.599999904633,180979.70000004768,7703,no,SM,A,124.bmp,120,120,185020,178993,187035,181006,,,,,3
2,0,1,0,0,2,prac,1,1,z,Wed Oct 29 2025 12:11:18 GMT-0500 (Central Daylight Time),202351.5,O,z,1743,4,1,128.bmp,-120,-120,129.bmp,120,-120,130.bmp,-120,120,131.bmp,120,120,10555.799999952316,191795.70000004768,7703,yes,SM,A,129.bmp,120,-120,195834,189809,197848,191818,,,,,4
3,0,0,1,0,3,prac,1,1,z,Wed Oct 29 2025 12:11:18 GMT-0500 (Central Daylight Time),212333.70000004768,O,z,1170,5,1,132.bmp,-120,-120,133.bmp,120,-120,134.bmp,-120,120,135.bmp,120,120,9978.600000143051,202355.09999990463,7703,yes,SM,A,134.bmp,-120,120,206396,200368,208397,202382,,,,,5
1,1,0,0,0,3,prac,1,0,m,Wed Oct 29 2025 12:11:18 GMT-0500 (Central Daylight Time),222329.90000009537,O,z,1162,6,1,136.bmp,-120,-120,137.bmp,120,-120,138.bmp,-120,120,139.bmp,120,120,9990.5,212339.40000009537,7703,no,SM,A,139.bmp,-120,-120,216377,210353,218398,212362,,,,,6
2,0,1,0,0,3,prac,1,0,m,Wed Oct 29 2025 12:11:18 GMT-0500 (Central Daylight Time),233158.40000009537,O,None,2016,7,1,140.bmp,-120,-120,141.bmp,120,-120,142.bmp,-120,120,143.bmp,120,120,10823.700000047684,222334.70000004768,7703,no,SM,A,140.bmp,120,-120,226373,220348,228390,222359,,,,,7
4,0,0,0,1,3,prac,1,0,z,Wed Oct 29 2025 12:11:18 GMT-0500 (Central Daylight Time),243924.0,O,m,1939,8,1,144.bmp,-120,-120,145.bmp,120,-120,146.bmp,-120,120,147.bmp,120,120,10760.5,233163.5,7703,yes,SM,A,147.bmp,120,120,237204,231177,239221,233188,,,,,8
4,0,0,0,1,1,test,1,1,m,Wed Oct 29 2025 12:11:18 GMT-0500 (Central Daylight Time),260017.20000004768,O,m,1401,1,1,148.bmp,-120,-120,149.bmp,120,-120,150.bmp,-120,120,143.bmp,120,120,9458.0,250559.20000004768,7703,no,SM,A,150.bmp,120,120,237204,231177,239221,233188,254598.0,248572.0,256615.0,250583.0,1
2,0,1,0,0,1,test,1,0,m,Wed Oct 29 2025 12:11:18 GMT-0500 (Central Daylight Time),270083.5,O,None,2018,2,1,101.bmp,-120,-120,102.bmp,120,-120,103.bmp,-120,120,104.bmp,120,120,10060.799999952316,260022.70000004768,7703,no,SM,A,103.bmp,120,-120,237204,231177,239221,233188,264061.0,258036.0,266078.0,260046.0,2
1,1,0,0,0,2,test,1,1,z,Wed Oct 29 2025 12:11:18 GMT-0500 (Central Daylight Time),279661.2000000477,O,z,1521,3,1,105.bmp,-120,-120,106.bmp,120,-120,107.bmp,-120,120,108.bmp,120,120,9573.200000047684,270088.0,7703,yes,SM,A,105.bmp,-120,-120,237204,231177,239221,233188,274125.0,268101.0,276142.0,270110.0,3
3,0,0,1,0,2,test,1,0,m,Wed Oct 29 2025 12:11:18 GMT-0500 (Central Daylight Time),289040.5,O,z,1342,4,1,109.bmp,-120,-120,110.bmp,120,-120,111.bmp,-120,120,112.bmp,120,120,9374.799999952316,279665.7000000477,7703,no,SM,A,109.bmp,-120,120,237204,231177,239221,233188,283691.0,277679.0,285705.0,279690.0,4
2,0,1,0,0,3,test,1,1,z,Wed Oct 29 2025 12:11:18 GMT-0500 (Central Daylight Time),298787.90000009537,O,z,1689,5,1,113.bmp,-120,-120,114.bmp,120,-120,115.bmp,-120,120,116.bmp,120,120,9744.5,289043.40000009537,7703,yes,SM,A,114.bmp,120,-120,237204,231177,239221,233188,293086.0,287057.0,295102.0,289073.0,5
3,0,0,1,0,4,test,1,1,z,Wed Oct 29 2025 12:11:18 GMT-0500 (Central Daylight Time),307985.0,O,z,1136,6,1,117.bmp,-120,-120,118.bmp,120,-120,119.bmp,-120,120,120.bmp,120,120,9193.0,298792.0,7703,yes,SM,A,119.bmp,-120,120,237204,231177,239221,233188,302832.0,296805.0,304848.0,298818.0,6
4,0,0,0,1,5,test,1,1,z,Wed Oct 29 2025 12:11:18 GMT-0500 (Central Daylight Time),317897.7999999523,O,z,1857,7,1,121.bmp,-120,-120,122.bmp,120,-120,123.bmp,-120,120,124.bmp,120,120,9909.599999904633,307988.2000000477,7703,yes,SM,A,124.bmp,120,120,237204,231177,239221,233188,312030.0,306001.0,314046.0,308015.0,7
2,0,1,0,0,6,test,1,1,m,Wed Oct 29 2025 12:11:18 GMT-0500 (Central Daylight Time),327510.90000009537,O,m,1558,8,1,125.bmp,-120,-120,126.bmp,120,-120,127.bmp,-120,120,128.bmp,120,120,9610.400000095367,317900.5,7703,no,SM,A,125.bmp,120,-120,237204,231177,239221,233188,321943.0,315914.0,323960.0,317929.0,8
3,0,0,1,0,7,test,1,1,m,Wed Oct 29 2025 12:11:18 GMT-0500 (Central Daylight Time),337358.40000009537,O,m,1793,9,1,129.bmp,-120,-120,130.bmp,120,-120,131.bmp,-120,120,132.bmp,120,120,9845.5,327512.90000009537,7703,no,SM,A,130.bmp,-120,120,237204,231177,239221,233188,331558.0,325526.0,333573.0,327542.0,9
4,0,0,0,1,8,test,1,1,z,Wed Oct 29 2025 12:11:18 GMT-0500 (Central Daylight Time),346707.2999999523,O,z,1292,10,1,137.bmp,-120,-120,138.bmp,120,-120,139.bmp,-120,120,140.bmp,120,120,9346.599999904633,337360.7000000477,7703,yes,SM,A,140.bmp,120,120,237204,231177,239221,233188,341404.0,335374.0,343420.0,337387.0,10
3,0,0,1,0,9,test,1,1,z,Wed Oct 29 2025 12:11:18 GMT-0500 (Central Daylight Time),356135.5,O,z,1367,11,1,133.bmp,-120,-120,134.bmp,120,-120,135.bmp,-120,120,136.bmp,120,120,9424.299999952316,346711.2000000477,7703,yes,SM,A,135.bmp,-120,120,237204,231177,239221,233188,350751.0,344724.0,352768.0,346737.0,11
2,0,1,0,0,10,test,1,1,m,Wed Oct 29 2025 12:11:18 GMT-0500 (Central Daylight Time),366083.2000000477,O,m,1907,12,1,141.bmp,-120,-120,142.bmp,120,-120,143.bmp,-120,120,144.bmp,120,120,9944.200000047684,356139.0,7703,no,SM,A,141.bmp,120,-120,237204,231177,239221,233188,360179.0,354152.0,362180.0,356165.0,12
3,0,0,1,0,10,test,1,0,m,Wed Oct 29 2025 12:11:18 GMT-0500 (Central Daylight Time),375564.2999999523,O,z,1431,13,1,145.bmp,-120,-120,146.bmp,120,-120,147.bmp,-120,120,148.bmp,120,120,9475.799999952316,366088.5,7703,no,SM,A,146.bmp,-120,120,237204,231177,239221,233188,370128.0,364102.0,372144.0,366112.0,13
1,1,0,0,0,10,test,1,0,z,Wed Oct 29 2025 12:11:18 GMT-0500 (Central Daylight Time),385531.2000000477,O,m,1920,14,1,149.bmp,-120,-120,150.bmp,120,-120,104.bmp,-120,120,101.bmp,120,120,9962.200000047684,375569.0,7703,yes,SM,A,149.bmp,-120,-120,237204,231177,239221,233188,379608.0,373582.0,381624.0,375592.0,14
4,0,0,0,1,10,test,1,0,m,Wed Oct 29 2025 12:11:18 GMT-0500 (Central Daylight Time),395191.0,O,z,1603,15,1,110.bmp,-120,-120,111.bmp,120,-120,112.bmp,-120,120,113.bmp,120,120,9656.099999904633,385534.90000009537,7703,no,SM,A,111.bmp,120,120,237204,231177,239221,233188,389572.0,383548.0,391588.0,385556.0,15
1,1,0,0,0,11,test,1,1,m,Wed Oct 29 2025 12:11:18 GMT-0500 (Central Daylight Time),405054.2000000477,O,m,1804,16,1,102.bmp,-120,-120,103.bmp,120,-120,104.bmp,-120,120,105.bmp,120,120,9859.700000047684,395194.5,7703,no,SM,A,105.bmp,-120,-120,237204,231177,239221,233188,399237.0,393208.0,401251.0,395221.0,16
3,0,0,1,0,11,test,1,0,m,Wed Oct 29 2025 12:11:18 GMT-0500 (Central Daylight Time),415119.09999990463,O,None,2016,17,1,122.bmp,-120,-120,123.bmp,120,-120,124.bmp,-120,120,125.bmp,120,120,10062.0,405057.09999990463,7703,no,SM,A,122.bmp,-120,120,237204,231177,239221,233188,409099.0,403070.0,411115.0,405083.0,17
1,1,0,0,0,12,test,1,1,z,Wed Oct 29 2025 12:11:18 GMT-0500 (Central Daylight Time),424948.09999990463,O,z,1772,18,1,106.bmp,-120,-120,107.bmp,120,-120,108.bmp,-120,120,109.bmp,120,120,9823.399999856949,415124.7000000477,7703,yes,SM,A,106.bmp,-120,-120,237204,231177,239221,233188,419162.0,413138.0,421179.0,415147.0,18
2,0,1,0,0,12,test,1,0,z,Wed Oct 29 2025 12:11:18 GMT-0500 (Central Daylight Time),434995.7999999523,O,None,2007,19,1,126.bmp,-120,-120,127.bmp,120,-120,128.bmp,-120,120,129.bmp,120,120,10039.099999904633,424956.7000000477,7703,yes,SM,A,127.bmp,120,-120,237204,231177,239221,233188,428993.0,422971.0,431002.0,424979.0,19
3,0,0,1,0,13,test,1,1,z,Wed Oct 29 2025 12:11:18 GMT-0500 (Central Daylight Time),444375.0,O,z,1326,20,1,130.bmp,-120,-120,131.bmp,120,-120,132.bmp,-120,120,133.bmp,120,120,9374.700000047684,435000.2999999523,7703,yes,SM,A,132.bmp,-120,120,237204,231177,239221,233188,439040.0,433014.0,441056.0,435025.0,20
1,1,0,0,0,13,test,1,0,m,Wed Oct 29 2025 12:11:18 GMT-0500 (Central Daylight Time),453939.7999999523,O,z,1515,21,1,114.bmp,-120,-120,115.bmp,120,-120,116.bmp,-120,120,117.bmp,120,120,9561.299999952316,444378.5,7703,no,SM,A,116.bmp,-120,-120,237204,231177,239221,233188,448419.0,442392.0,450435.0,444406.0,21
4,0,0,0,1,13,test,1,0,z,Wed Oct 29 2025 12:11:18 GMT-0500 (Central Daylight Time),463918.5,O,m,1928,22,1,118.bmp,-120,-120,119.bmp,120,-120,120.bmp,-120,120,121.bmp,120,120,9976.400000095367,453942.09999990463,7703,yes,SM,A,121.bmp,120,120,237204,231177,239221,233188,457983.0,451955.0,459998.0,453967.0,22
1,1,0,0,0,13,test,1,0,m,Wed Oct 29 2025 12:11:18 GMT-0500 (Central Daylight Time),473682.09999990463,O,z,1708,23,1,134.bmp,-120,-120,135.bmp,120,-120,136.bmp,-120,120,137.bmp,120,120,9758.899999856949,463923.2000000477,7703,no,SM,A,137.bmp,-120,-120,237204,231177,239221,233188,467964.0,461937.0,469979.0,463947.0,23
2,0,1,0,0,13,test,1,0,z,Wed Oct 29 2025 12:11:18 GMT-0500 (Central Daylight Time),483745.2999999523,O,None,2015,24,1,142.bmp,-120,-120,143.bmp,120,-120,144.bmp,-120,120,145.bmp,120,120,10059.0,473686.2999999523,7703,yes,SM,A,143.bmp,120,-120,237204,231177,239221,233188,477725.0,471699.0,479743.0,473710.0,24
4,0,0,0,1,14,test,1,1,m,Wed Oct 29 2025 12:11:18 GMT-0500 (Central Daylight Time),493362.5,O,m,1561,25,1,146.bmp,-120,-120,147.bmp,120,-120,148.bmp,-120,120,149.bmp,120,120,9615.200000047684,483747.2999999523,7703,no,SM,A,148.bmp,120,120,237204,231177,239221,233188,487790.0,481760.0,489806.0,483775.0,25
1,1,0,0,0,14,test,1,0,z,Wed Oct 29 2025 12:11:18 GMT-0500 (Central Daylight Time),503422.0,O,None,2013,26,1,138.bmp,-120,-120,139.bmp,120,-120,140.bmp,-120,120,141.bmp,120,120,10056.099999904633,493365.90000009537,7703,yes,SM,A,138.bmp,-120,-120,237204,231177,239221,233188,497404.0,491379.0,499422.0,493388.0,26
4,0,0,0,1,14,test,1,0,z,Wed Oct 29 2025 12:11:18 GMT-0500 (Central Daylight Time),513487.09999990463,O,None,2016,27,1,150.bmp,-120,-120,111.bmp,120,-120,101.bmp,-120,120,102.bmp,120,120,10062.0,503425.09999990463,7703,yes,SM,A,102.bmp,120,120,237204,231177,239221,233188,507467.0,501438.0,509484.0,503452.0,27
3,0,0,1,0,15,test,1,1,m,Wed Oct 29 2025 12:11:18 GMT-0500 (Central Daylight Time),523416.2999999523,O,m,1866,28,1,103.bmp,-120,-120,104.bmp,120,-120,105.bmp,-120,120,106.bmp,120,120,9924.299999952316,513492.0,7703,no,SM,A,103.bmp,-120,120,237204,231177,239221,233188,517530.0,511505.0,519549.0,513517.0,28
2,0,1,0,0,16,test,1,1,z,Wed Oct 29 2025 12:11:18 GMT-0500 (Central Daylight Time),533096.4000000954,O,z,1625,29,1,107.bmp,-120,-120,108.bmp,120,-120,109.bmp,-120,120,110.bmp,120,120,9676.5,523419.90000009537,7703,yes,SM,A,108.bmp,120,-120,237204,231177,239221,233188,527462.0,521433.0,529477.0,523446.0,29
3,0,0,1,0,17,test,1,1,z,Wed Oct 29 2025 12:11:18 GMT-0500 (Central Daylight Time),541845.0,O,z,700,30,1,111.bmp,-120,-120,112.bmp,120,-120,113.bmp,-120,120,114.bmp,120,120,8746.400000095367,533098.5999999046,7703,yes,SM,A,113.bmp,-120,120,237204,231177,239221,233188,537142.0,531112.0,539158.0,533125.0,30
1,1,0,0,0,17,test,1,0,z,Wed Oct 29 2025 12:11:18 GMT-0500 (Central Daylight Time),551909.5999999046,O,None,2015,31,1,115.bmp,-120,-120,116.bmp,120,-120,117.bmp,-120,120,118.bmp,120,120,10058.299999952316,541851.2999999523,7703,yes,SM,A,115.bmp,-120,-120,237204,231177,239221,233188,545889.0,539864.0,547907.0,541874.0,31
2,0,1,0,0,18,test,1,1,m,Wed Oct 29 2025 12:11:18 GMT-0500 (Central Daylight Time),561055.5999999046,O,m,1095,32,1,119.bmp,-120,-120,120.bmp,120,-120,121.bmp,-120,120,122.bmp,120,120,9142.0,551913.5999999046,7703,no,SM,A,119.bmp,120,-120,237204,231177,239221,233188,555952.0,549927.0,557968.0,551937.0,32
4,0,0,0,1,18,test,1,0,z,Wed Oct 29 2025 12:11:18 GMT-0500 (Central Daylight Time),570534.5999999046,O,m,1418,33,1,131.bmp,-120,-120,132.bmp,120,-120,133.bmp,-120,120,134.bmp,120,120,9476.199999809265,561058.4000000954,7703,yes,SM,A,134.bmp,120,120,237204,231177,239221,233188,565099.0,559072.0,567116.0,561082.0,33
2,0,1,0,0,19,test,1,1,z,Wed Oct 29 2025 12:11:18 GMT-0500 (Central Daylight Time),579816.5,O,z,1217,34,1,123.bmp,-120,-120,124.bmp,120,-120,125.bmp,-120,120,126.bmp,120,120,9278.700000047684,570537.7999999523,7703,yes,SM,A,124.bmp,120,-120,237204,231177,239221,233188,574579.0,568551.0,576598.0,570564.0,34
4,0,0,0,1,20,test,1,1,m,Wed Oct 29 2025 12:11:18 GMT-0500 (Central Daylight Time),589795.5,O,m,1932,35,1,127.bmp,-120,-120,128.bmp,120,-120,129.bmp,-120,120,130.bmp,120,120,9973.5,579822.0,7703,no,SM,A,129.bmp,120,120,237204,231177,239221,233188,583860.0,577835.0,585876.0,579845.0,35
3,0,0,1,0,21,test,1,1,m,Wed Oct 29 2025 12:11:18 GMT-0500 (Central Daylight Time),599774.7000000477,O,m,1940,36,1,135.bmp,-120,-120,136.bmp,120,-120,137.bmp,-120,120,138.bmp,120,120,9974.100000143051,589800.5999999046,7703,no,SM,A,135.bmp,-120,120,237204,231177,239221,233188,593840.0,587814.0,595843.0,589827.0,36
1,1,0,0,0,22,test,1,1,m,Wed Oct 29 2025 12:11:18 GMT-0500 (Central Daylight Time),609722.5,O,m,1904,37,1,139.bmp,-120,-120,140.bmp,120,-120,141.bmp,-120,120,142.bmp,120,120,9944.099999904633,599778.4000000954,7703,no,SM,A,140.bmp,-120,-120,237204,231177,239221,233188,603821.0,597792.0,605822.0,599805.0,37
2,0,1,0,0,23,test,1,1,m,Wed Oct 29 2025 12:11:18 GMT-0500 (Central Daylight Time),619751.5,O,m,1968,38,1,143.bmp,-120,-120,144.bmp,120,-120,145.bmp,-120,120,146.bmp,120,120,10025.200000047684,609726.2999999523,7703,no,SM,A,145.bmp,120,-120,237204,231177,239221,233188,613769.0,607739.0,615783.0,609752.0,38
4,0,0,0,1,23,test,1,0,z,Wed Oct 29 2025 12:11:18 GMT-0500 (Central Daylight Time),629465.7000000477,O,m,1658,39,1,147.bmp,-120,-120,148.bmp,120,-120,149.bmp,-120,120,150.bmp,120,120,9710.200000047684,619755.5,7703,yes,SM,A,150.bmp,120,120,237204,231177,239221,233188,623797.0,617769.0,625813.0,619783.0,39
3,0,0,1,0,23,test,1,0,m,Wed Oct 29 2025 12:11:18 GMT-0500 (Central Daylight Time),638880.0,O,z,1351,40,1,104.bmp,-120,-120,105.bmp,120,-120,106.bmp,-120,120,107.bmp,120,120,9409.200000047684,629470.7999999523,7703,no,SM,A,105.bmp,-120,120,237204,231177,239221,233188,633511.0,627484.0,635527.0,629495.0,40
1,1,0,0,0,24,test,1,1,z,Wed Oct 29 2025 12:11:18 GMT-0500 (Central Daylight Time),648276.2999999523,O,z,1345,41,1,108.bmp,-120,-120,109.bmp,120,-120,110.bmp,-120,120,111.bmp,120,120,9390.399999856949,638885.9000000954,7703,yes,SM,A,108.bmp,-120,-120,237204,231177,239221,233188,642925.0,636899.0,644941.0,638909.0,41
4,0,0,0,1,24,test,1,0,z,Wed Oct 29 2025 12:11:18 GMT-0500 (Central Daylight Time),657990.5,O,m,1655,42,1,112.bmp,-120,-120,113.bmp,120,-120,114.bmp,-120,120,115.bmp,120,120,9711.700000047684,648278.7999999523,7703,yes,SM,A,115.bmp,120,120,237204,231177,239221,233188,652320.0,646292.0,654337.0,648307.0,42
1,1,0,0,0,25,test,1,1,z,Wed Oct 29 2025 12:11:18 GMT-0500 (Central Daylight Time),667286.7000000477,O,z,1242,43,1,116.bmp,-120,-120,117.bmp,120,-120,118.bmp,-120,120,119.bmp,120,120,9290.900000095367,657995.7999999523,7703,yes,SM,A,116.bmp,-120,-120,237204,231177,239221,233188,662035.0,656009.0,664052.0,658020.0,43
4,0,0,0,1,26,test,1,1,m,Wed Oct 29 2025 12:11:18 GMT-0500 (Central Daylight Time),676702.0,O,m,1370,44,1,104.bmp,-120,-120,101.bmp,120,-120,102.bmp,-120,120,103.bmp,120,120,9412.700000047684,667289.2999999523,7703,no,SM,A,104.bmp,120,120,237204,231177,239221,233188,671318.0,665302.0,673333.0,667316.0,44
1,1,0,0,0,27,test,1,1,m,Wed Oct 29 2025 12:11:18 GMT-0500 (Central Daylight Time),686298.0,O,m,1534,45,1,128.bmp,-120,-120,129.bmp,120,-120,130.bmp,-120,120,131.bmp,120,120,9593.400000095367,676704.5999999046,7703,no,SM,A,131.bmp,-120,-120,237204,231177,239221,233188,680746.0,674718.0,682761.0,676731.0,45
1,1,0,0,0,28,test,1,1,m,Wed Oct 29 2025 12:11:18 GMT-0500 (Central Daylight Time),695945.2000000477,O,m,1600,46,1,120.bmp,-120,-120,121.bmp,120,-120,122.bmp,-120,120,123.bmp,120,120,9645.0,686300.2000000477,7703,no,SM,A,121.bmp,-120,-120,237204,231177,239221,233188,690330.0,684313.0,692342.0,686327.0,46
3,0,0,1,0,28,test,1,0,z,Wed Oct 29 2025 12:11:18 GMT-0500 (Central Daylight Time),705475.2000000477,O,m,1473,47,1,124.bmp,-120,-120,125.bmp,120,-120,126.bmp,-120,120,127.bmp,120,120,9527.0,695948.2000000477,7703,yes,SM,A,126.bmp,-120,120,237204,231177,239221,233188,699990.0,693962.0,702006.0,695975.0,47
3,0,0,1,0,29,test,1,1,z,Wed Oct 29 2025 12:11:18 GMT-0500 (Central Daylight Time),715488.5999999046,O,z,1959,48,1,140.bmp,-120,-120,141.bmp,120,-120,142.bmp,-120,120,143.bmp,120,120,10011.399999856949,705477.2000000477,7703,yes,SM,A,142.bmp,-120,120,237204,231177,239221,233188,709521.0,703490.0,711536.0,705505.0,48
2,0,1,0,0,29,test,1,0,z,Wed Oct 29 2025 12:11:18 GMT-0500 (Central Daylight Time),724751.7999999523,O,m,1210,49,1,136.bmp,-120,-120,137.bmp,120,-120,138.bmp,-120,120,139.bmp,120,120,9259.599999904633,715492.2000000477,7703,yes,SM,A,137.bmp,120,-120,237204,231177,239221,233188,719533.0,713506.0,721549.0,715520.0,49
3,0,0,1,0,29,test,1,0,m,Wed Oct 29 2025 12:11:18 GMT-0500 (Central Daylight Time),734015.2000000477,O,z,1210,50,1,132.bmp,-120,-120,133.bmp,120,-120,134.bmp,-120,120,135.bmp,120,120,9256.900000095367,724758.2999999523,7703,no,SM,A,132.bmp,-120,120,237204,231177,239221,233188,728798.0,722772.0,730813.0,724782.0,50
2,0,1,0,0,29,test,1,0,z,Wed Oct 29 2025 12:11:18 GMT-0500 (Central Daylight Time),743912.9000000954,O,m,1834,51,1,144.bmp,-120,-120,145.bmp,120,-120,146.bmp,-120,120,147.bmp,120,120,9894.800000190735,734018.0999999046,7703,yes,SM,A,145.bmp,120,-120,237204,231177,239221,233188,738060.0,732031.0,740076.0,734045.0,51
4,0,0,0,1,29,test,1,0,m,Wed Oct 29 2025 12:11:18 GMT-0500 (Central Daylight Time),753476.4000000954,O,z,1515,52,1,148.bmp,-120,-120,149.bmp,120,-120,150.bmp,-120,120,131.bmp,120,120,9559.800000190735,743916.5999999046,7703,no,SM,A,148.bmp,120,120,237204,231177,239221,233188,747957.0,741930.0,749974.0,743942.0,52
3,0,0,1,0,30,test,1,1,z,Wed Oct 29 2025 12:11:18 GMT-0500 (Central Daylight Time),762956.4000000954,O,z,1429,53,1,101.bmp,-120,-120,102.bmp,120,-120,103.bmp,-120,120,104.bmp,120,120,9477.100000143051,753479.2999999523,7703,yes,SM,A,103.bmp,-120,120,237204,231177,239221,233188,757521.0,751493.0,759537.0,753506.0,53
1,1,0,0,0,31,test,1,1,m,Wed Oct 29 2025 12:11:18 GMT-0500 (Central Daylight Time),772838.0,O,m,1829,54,1,105.bmp,-120,-120,106.bmp,120,-120,107.bmp,-120,120,108.bmp,120,120,9879.200000047684,762958.7999999523,7703,no,SM,A,107.bmp,-120,-120,237204,231177,239221,233188,767002.0,760972.0,769018.0,762986.0,54
4,0,0,0,1,31,test,1,0,z,Wed Oct 29 2025 12:11:18 GMT-0500 (Central Daylight Time),782885.2999999523,O,None,2001,55,1,109.bmp,-120,-120,110.bmp,120,-120,111.bmp,-120,120,112.bmp,120,120,10039.899999856949,772845.4000000954,7703,yes,SM,A,112.bmp,120,120,237204,231177,239221,233188,776882.0,770859.0,778897.0,772868.0,55
2,0,1,0,0,32,test,1,1,m,Wed Oct 29 2025 12:11:18 GMT-0500 (Central Daylight Time),792514.4000000954,O,m,1581,56,1,113.bmp,-120,-120,114.bmp,120,-120,115.bmp,-120,120,116.bmp,120,120,9626.400000095367,782888.0,7703,no,SM,A,113.bmp,120,-120,237204,231177,239221,233188,786930.0,780901.0,788946.0,782914.0,56
4,0,0,0,1,32,test,1,0,m,Wed Oct 29 2025 12:11:18 GMT-0500 (Central Daylight Time),802029.7000000477,O,z,1467,57,1,117.bmp,-120,-120,118.bmp,120,-120,119.bmp,-120,120,120.bmp,120,120,9512.400000095367,792517.2999999523,7703,no,SM,A,118.bmp,120,120,237204,231177,239221,233188,796559.0,790531.0,798574.0,792544.0,57
3,0,0,1,0,33,test,1,1,z,Wed Oct 29 2025 12:11:18 GMT-0500 (Central Daylight Time),811391.4000000954,O,z,1300,58,1,121.bmp,-120,-120,122.bmp,120,-120,123.bmp,-120,120,124.bmp,120,120,9358.600000143051,802032.7999999523,7703,yes,SM,A,123.bmp,-120,120,237204,231177,239221,233188,806073.0,800046.0,808091.0,802057.0,58
2,0,1,0,0,33,test,1,0,m,Wed Oct 29 2025 12:11:18 GMT-0500 (Central Daylight Time),820971.5999999046,O,z,1522,59,1,125.bmp,-120,-120,126.bmp,120,-120,127.bmp,-120,120,128.bmp,120,120,9575.399999856949,811396.2000000477,7703,no,SM,A,128.bmp,120,-120,237204,231177,239221,233188,815436.0,809410.0,817453.0,811422.0,59
1,1,0,0,0,34,test,1,1,z,Wed Oct 29 2025 12:11:18 GMT-0500 (Central Daylight Time),830068.7000000477,O,z,1038,60,1,129.bmp,-120,-120,130.bmp,120,-120,131.bmp,-120,120,132.bmp,120,120,9093.100000143051,820975.5999999046,7703,yes,SM,A,129.bmp,-120,-120,237204,231177,239221,233188,825017.0,818989.0,827033.0,821001.0,60
2,0,1,0,0,35,test,1,1,z,Wed Oct 29 2025 12:11:18 GMT-0500 (Central Daylight Time),839233.2000000477,O,z,1102,61,1,133.bmp,-120,-120,134.bmp,120,-120,135.bmp,-120,120,136.bmp,120,120,9160.0,830073.2000000477,7703,yes,SM,A,134.bmp,120,-120,237204,231177,239221,233188,834114.0,828086.0,836129.0,830098.0,61
4,0,0,0,1,35,test,1,0,z,Wed Oct 29 2025 12:11:18 GMT-0500 (Central Daylight Time),849296.5999999046,O,None,2017,62,1,141.bmp,-120,-120,142.bmp,120,-120,143.bmp,-120,120,144.bmp,120,120,10059.599999904633,839237.0,7703,yes,SM,A,144.bmp,120,120,237204,231177,239221,233188,843277.0,837251.0,845293.0,839262.0,62
1,1,0,0,0,35,test,1,0,m,Wed Oct 29 2025 12:11:18 GMT-0500 (Central Daylight Time),858460.4000000954,O,z,1120,63,1,145.bmp,-120,-120,146.bmp,120,-120,147.bmp,-120,120,148.bmp,120,120,9160.200000047684,849300.2000000477,7703,no,SM,A,145.bmp,-120,120,237204,231177,239221,233188,853340.0,847313.0,855343.0,849326.0,63
2,0,1,0,0,36,test,1,1,z,Wed Oct 29 2025 12:11:18 GMT-0500 (Central Daylight Time),867789.9000000954,O,z,1292,64,1,149.bmp,-120,-120,150.bmp,120,-120,112.bmp,-120,120,101.bmp,120,120,9324.0,858465.9000000954,7703,yes,SM,A,150.bmp,120,-120,237204,231177,239221,233188,862504.0,856479.0,864507.0,858491.0,64
4,0,0,0,1,37,test,1,1,m,Wed Oct 29 2025 12:11:18 GMT-0500 (Central Daylight Time),877339.5999999046,O,m,1484,65,1,102.bmp,-120,-120,103.bmp,120,-120,104.bmp,-120,120,105.bmp,120,120,9546.099999904633,867793.5,7703,no,SM,A,104.bmp,120,120,237204,231177,239221,233188,871835.0,865807.0,873851.0,867820.0,65
3,0,0,1,0,38,test,1,1,m,Wed Oct 29 2025 12:11:18 GMT-0500 (Central Daylight Time),887067.5,O,m,1671,66,1,106.bmp,-120,-120,107.bmp,120,-120,108.bmp,-120,120,109.bmp,120,120,9723.900000095367,877343.5999999046,7703,no,SM,A,109.bmp,-120,120,237204,231177,239221,233188,881382.0,875357.0,883399.0,877366.0,66
2,0,1,0,0,39,test,1,1,m,Wed Oct 29 2025 12:11:18 GMT-0500 (Central Daylight Time),896514.0,O,m,1413,67,1,137.bmp,-120,-120,138.bmp,120,-120,139.bmp,-120,120,140.bmp,120,120,9441.900000095367,887072.0999999046,7703,no,SM,A,139.bmp,120,-120,237204,231177,239221,233188,891112.0,885085.0,893113.0,887097.0,67
3,0,0,1,0,39,test,1,0,z,Wed Oct 29 2025 12:11:18 GMT-0500 (Central Daylight Time),906561.2000000477,O,m,1993,68,1,110.bmp,-120,-120,111.bmp,120,-120,112.bmp,-120,120,113.bmp,120,120,10044.400000095367,896516.7999999523,7703,yes,SM,A,112.bmp,-120,120,237204,231177,239221,233188,900559.0,894530.0,902574.0,896546.0,68
1,1,0,0,0,40,test,1,1,m,Wed Oct 29 2025 12:11:18 GMT-0500 (Central Daylight Time),916108.7999999523,O,m,1497,69,1,114.bmp,-120,-120,115.bmp,120,-120,116.bmp,-120,120,117.bmp,120,120,9545.599999904633,906563.2000000477,7703,no,SM,A,115.bmp,-120,-120,237204,231177,239221,233188,910606.0,904576.0,912623.0,906590.0,69
2,0,1,0,0,40,test,1,0,m,Wed Oct 29 2025 12:11:18 GMT-0500 (Central Daylight Time),925621.9000000954,O,z,1454,70,1,118.bmp,-120,-120,119.bmp,120,-120,120.bmp,-120,120,121.bmp,120,120,9507.100000143051,916114.7999999523,7703,no,SM,A,120.bmp,120,-120,237204,231177,239221,233188,920152.0,914128.0,922169.0,916138.0,70
4,0,0,0,1,40,test,1,0,z,Wed Oct 29 2025 12:11:18 GMT-0500 (Central Daylight Time),935667.2999999523,O,None,2014,71,1,122.bmp,-120,-120,123.bmp,120,-120,124.bmp,-120,120,125.bmp,120,120,10037.5,925629.7999999523,7703,yes,SM,A,125.bmp,120,120,237204,231177,239221,233188,929652.0,923643.0,931666.0,925651.0,71
1,1,0,0,0,41,test,1,1,z,Wed Oct 29 2025 12:11:18 GMT-0500 (Central Daylight Time),945031.5,O,z,1301,72,1,126.bmp,-120,-120,127.bmp,120,-120,128.bmp,-120,120,129.bmp,120,120,9361.599999904633,935669.9000000954,7703,yes,SM,A,126.bmp,-120,-120,237204,231177,239221,233188,939712.0,933683.0,941729.0,935699.0,72
2,0,1,0,0,42,test,1,1,z,Wed Oct 29 2025 12:11:18 GMT-0500 (Central Daylight Time),954429.4000000954,O,z,1347,73,1,130.bmp,-120,-120,131.bmp,120,-120,132.bmp,-120,120,133.bmp,120,120,9393.300000190735,945036.0999999046,7703,yes,SM,A,131.bmp,120,-120,237204,231177,239221,233188,949077.0,943049.0,951092.0,945062.0,73
4,0,0,0,1,43,test,1,1,m,Wed Oct 29 2025 12:11:18 GMT-0500 (Central Daylight Time),963927.7999999523,O,m,1438,74,1,134.bmp,-120,-120,135.bmp,120,-120,136.bmp,-120,120,137.bmp,120,120,9496.200000047684,954431.5999999046,7703,no,SM,A,136.bmp,120,120,237204,231177,239221,233188,958474.0,952445.0,960489.0,954460.0,74
2,0,1,0,0,43,test,1,0,m,Wed Oct 29 2025 12:11:18 GMT-0500 (Central Daylight Time),973990.2999999523,O,None,2016,75,1,138.bmp,-120,-120,139.bmp,120,-120,140.bmp,-120,120,141.bmp,120,120,10059.399999856949,963930.9000000954,7703,no,SM,A,141.bmp,120,-120,237204,231177,239221,233188,967970.0,961944.0,969987.0,963955.0,75
1,1,0,0,0,44,test,1,1,z,Wed Oct 29 2025 12:11:18 GMT-0500 (Central Daylight Time),983253.2999999523,O,z,1205,76,1,142.bmp,-120,-120,143.bmp,120,-120,144.bmp,-120,120,145.bmp,120,120,9258.099999904633,973995.2000000477,7703,yes,SM,A,142.bmp,-120,-120,237204,231177,239221,233188,978035.0,972009.0,980050.0,974019.0,76
3,0,0,1,0,44,test,1,0,z,Wed Oct 29 2025 12:11:18 GMT-0500 (Central Daylight Time),993149.9000000954,O,m,1835,77,1,150.bmp,-120,-120,111.bmp,120,-120,101.bmp,-120,120,102.bmp,120,120,9891.700000047684,983258.2000000477,7703,yes,SM,A,101.bmp,-120,120,237204,231177,239221,233188,987298.0,981271.0,989316.0,983283.0,77
1,1,0,0,0,45,test,1,1,m,Wed Oct 29 2025 12:11:18 GMT-0500 (Central Daylight Time),1003080.2999999523,O,m,1876,78,1,146.bmp,-120,-120,147.bmp,120,-120,148.bmp,-120,120,149.bmp,120,120,9924.899999856949,993155.4000000954,7703,no,SM,A,147.bmp,-120,-120,237204,231177,239221,233188,997197.0,991169.0,999210.0,993180.0,78
4,0,0,0,1,45,test,1,0,m,Wed Oct 29 2025 12:11:18 GMT-0500 (Central Daylight Time),1012794.7999999523,O,z,1657,79,1,107.bmp,-120,-120,108.bmp,120,-120,109.bmp,-120,120,110.bmp,120,120,9705.700000047684,1003089.0999999046,7703,no,SM,A,107.bmp,120,120,237204,231177,239221,233188,1007125.0,1001103.0,1009142.0,1003109.0,79
3,0,0,1,0,45,test,1,0,m,Wed Oct 29 2025 12:11:18 GMT-0500 (Central Daylight Time),1022840.2999999523,O,None,2014,80,1,103.bmp,-120,-120,104.bmp,120,-120,105.bmp,-120,120,106.bmp,120,120,10041.799999952316,1012798.5,7703,no,SM,A,106.bmp,-120,120,237204,231177,239221,233188,1016826.0,1010812.0,1018839.0,1012824.0,80
