block_c,block_dur,condition,countdown,datetime,endtime,list,multichar_response,project,response,response_time,session_number,start_end,starttime,subject_id,task,task_vers,trial
,,,,Wed May 06 2026 11:31:28 GMT-0500 (Central Daylight Time),,,,O,space,526,1,,,7798,WL,C,
prac,,0,,Wed May 06 2026 11:31:28 GMT-0500 (Central Daylight Time),,NA,b,O,b,3085,1,,,7798,WL,C,1.0
prac,,0,,Wed May 06 2026 11:31:28 GMT-0500 (Central Daylight Time),,NA,bo,O,o,197,1,,,7798,WL,C,1.0
prac,,0,,Wed May 06 2026 11:31:28 GMT-0500 (Central Daylight Time),,NA,boo,O,o,180,1,,,7798,WL,C,1.0
prac,,0,,Wed May 06 2026 11:31:28 GMT-0500 (Central Daylight Time),,NA,boos,O,s,1292,1,,,7798,WL,C,1.0
prac,,0,,Wed May 06 2026 11:31:28 GMT-0500 (Central Daylight Time),,NA,boost,O,t,517,1,,,7798,WL,C,1.0
prac,,0,,Wed May 06 2026 11:31:28 GMT-0500 (Central Daylight Time),,NA,boostenter,O,enter,4056,1,,,7798,WL,C,1.0
1,2.4159998893737793,learn,57584.00011062622,Wed May 06 2026 11:31:28 GMT-0500 (Central Daylight Time),188126.8999999985,A,t,O,t,2405,1,2415.8000000044703,185711.09999999404,7798,WL,C,1.0
1,2.615999937057495,learn,57384.000062942505,Wed May 06 2026 11:31:28 GMT-0500 (Central Daylight Time),188326.5,A,to,O,o,183,1,2615.4000000059605,185711.09999999404,7798,WL,C,1.0
1,3.6659998893737793,learn,56334.00011062622,Wed May 06 2026 11:31:28 GMT-0500 (Central Daylight Time),189376.8999999985,A,tow,O,w,1026,1,3665.8000000044703,185711.09999999404,7798,WL,C,1.0
1,3.931999921798706,learn,56068.000078201294,Wed May 06 2026 11:31:28 GMT-0500 (Central Daylight Time),189643.0,A,towe,O,e,247,1,3931.9000000059605,185711.09999999404,7798,WL,C,1.0
1,4.197999954223633,learn,55802.00004577637,Wed May 06 2026 11:31:28 GMT-0500 (Central Daylight Time),189909.19999999553,A,tower,O,r,252,1,4198.10000000149,185711.09999999404,7798,WL,C,1.0
1,15.34500002861023,learn,44654.99997138977,Wed May 06 2026 11:31:28 GMT-0500 (Central Daylight Time),201055.79999999702,A,towerenter,O,enter,11124,1,15344.70000000298,185711.09999999404,7798,WL,C,1.0
1,17.32699990272522,learn,42673.00009727478,Wed May 06 2026 11:31:28 GMT-0500 (Central Daylight Time),203038.09999999404,A,b,O,b,1972,1,1981.7999999970198,201056.29999999702,7798,WL,C,2.0
1,17.527999877929688,learn,42472.00012207031,Wed May 06 2026 11:31:28 GMT-0500 (Central Daylight Time),203238.59999999404,A,bo,O,o,178,1,2182.2999999970198,201056.29999999702,7798,WL,C,2.0
1,18.062000036239624,learn,41937.999963760376,Wed May 06 2026 11:31:28 GMT-0500 (Central Daylight Time),203772.5,A,boy,O,y,514,1,2716.2000000029802,201056.29999999702,7798,WL,C,2.0
1,19.07699990272522,learn,40923.00009727478,Wed May 06 2026 11:31:28 GMT-0500 (Central Daylight Time),204787.79999999702,A,boyenter,O,enter,996,1,3731.5,201056.29999999702,7798,WL,C,2.0
1,23.608999967575073,learn,36391.00003242493,Wed May 06 2026 11:31:28 GMT-0500 (Central Daylight Time),209320.0,A,w,O,w,4519,1,4531.80000000447,204788.19999999553,7798,WL,C,3.0
1,25.276000022888184,learn,34723.99997711182,Wed May 06 2026 11:31:28 GMT-0500 (Central Daylight Time),210986.5,A,wh,O,h,1650,1,6198.30000000447,204788.19999999553,7798,WL,C,3.0
1,26.340999841690063,learn,33659.00015830994,Wed May 06 2026 11:31:28 GMT-0500 (Central Daylight Time),212052.5,A,whe,O,e,1052,1,7264.30000000447,204788.19999999553,7798,WL,C,3.0
1,26.85800004005432,learn,33141.99995994568,Wed May 06 2026 11:31:28 GMT-0500 (Central Daylight Time),212568.8999999985,A,whea,O,a,500,1,7780.70000000298,204788.19999999553,7798,WL,C,3.0
1,27.424999952316284,learn,32575.000047683716,Wed May 06 2026 11:31:28 GMT-0500 (Central Daylight Time),213135.59999999404,A,wheat,O,t,544,1,8347.39999999851,204788.19999999553,7798,WL,C,3.0
1,28.2739999294281,learn,31726.0000705719,Wed May 06 2026 11:31:28 GMT-0500 (Central Daylight Time),213985.0,A,wheatenter,O,enter,834,1,9196.80000000447,204788.19999999553,7798,WL,C,3.0
1,30.322999954223633,learn,29677.000045776367,Wed May 06 2026 11:31:28 GMT-0500 (Central Daylight Time),216033.69999999553,A,f,O,f,2032,1,2048.39999999851,213985.29999999702,7798,WL,C,4.0
1,30.52300000190735,learn,29476.99999809265,Wed May 06 2026 11:31:28 GMT-0500 (Central Daylight Time),216233.8999999985,A,fl,O,l,194,1,2248.60000000149,213985.29999999702,7798,WL,C,4.0
1,31.122999906539917,learn,28877.000093460083,Wed May 06 2026 11:31:28 GMT-0500 (Central Daylight Time),216833.69999999553,A,fla,O,a,595,1,2848.39999999851,213985.29999999702,7798,WL,C,4.0
1,31.68999981880188,learn,28310.00018119812,Wed May 06 2026 11:31:28 GMT-0500 (Central Daylight Time),217400.79999999702,A,flag,O,g,545,1,3415.5,213985.29999999702,7798,WL,C,4.0
1,32.90599989891052,learn,27094.000101089478,Wed May 06 2026 11:31:28 GMT-0500 (Central Daylight Time),218616.8999999985,A,flagenter,O,enter,1198,1,4631.60000000149,213985.29999999702,7798,WL,C,4.0
1,36.555999994277954,learn,23444.000005722046,Wed May 06 2026 11:31:28 GMT-0500 (Central Daylight Time),222266.5,A,c,O,c,3634,1,3649.10000000149,218617.3999999985,7798,WL,C,5.0
1,36.75399994850159,learn,23246.000051498413,Wed May 06 2026 11:31:28 GMT-0500 (Central Daylight Time),222465.19999999553,A,co,O,o,186,1,3847.7999999970198,218617.3999999985,7798,WL,C,5.0
1,37.23799991607666,learn,22762.00008392334,Wed May 06 2026 11:31:28 GMT-0500 (Central Daylight Time),222948.59999999404,A,cor,O,r,473,1,4331.19999999553,218617.3999999985,7798,WL,C,5.0
1,37.75499987602234,learn,22245.00012397766,Wed May 06 2026 11:31:28 GMT-0500 (Central Daylight Time),223466.3999999985,A,corn,O,n,501,1,4849.0,218617.3999999985,7798,WL,C,5.0
1,38.454999923706055,learn,21545.000076293945,Wed May 06 2026 11:31:28 GMT-0500 (Central Daylight Time),224165.3999999985,A,cornenter,O,enter,689,1,5548.0,218617.3999999985,7798,WL,C,5.0
1,58.514999866485596,learn,1485.0001335144043,Wed May 06 2026 11:31:28 GMT-0500 (Central Daylight Time),244226.0,A,f,O,f,20046,1,20060.20000000298,224165.79999999702,7798,WL,C,6.0
1,58.664000034332275,learn,1335.9999656677246,Wed May 06 2026 11:31:28 GMT-0500 (Central Daylight Time),244375.5,A,fl,O,l,137,1,20209.70000000298,224165.79999999702,7798,WL,C,6.0
1,59.69799995422363,learn,302.0000457763672,Wed May 06 2026 11:31:28 GMT-0500 (Central Daylight Time),245409.29999999702,A,fla,O,a,1019,1,21243.5,224165.79999999702,7798,WL,C,6.0
1,60.01300001144409,learn,-13.000011444091797,Wed May 06 2026 11:31:28 GMT-0500 (Central Daylight Time),245724.79999999702,A,flaNone,O,None,310,1,21559.0,224165.79999999702,7798,WL,C,6.0
2,3.5149998664855957,learn,56485.000133514404,Wed May 06 2026 11:31:28 GMT-0500 (Central Daylight Time),323549.8999999985,A,t,O,t,3492,1,3515.2000000029802,320034.69999999553,7798,WL,C,1.0
2,3.683000087738037,learn,56316.99991226196,Wed May 06 2026 11:31:28 GMT-0500 (Central Daylight Time),323717.3999999985,A,to,O,o,155,1,3682.7000000029802,320034.69999999553,7798,WL,C,1.0
2,3.7990000247955322,learn,56200.99997520447,Wed May 06 2026 11:31:28 GMT-0500 (Central Daylight Time),323833.5,A,tow,O,w,100,1,3798.8000000044703,320034.69999999553,7798,WL,C,1.0
2,4.0320000648498535,learn,55967.99993515015,Wed May 06 2026 11:31:28 GMT-0500 (Central Daylight Time),324066.3999999985,A,towe,O,e,215,1,4031.7000000029802,320034.69999999553,7798,WL,C,1.0
2,4.249000072479248,learn,55750.99992752075,Wed May 06 2026 11:31:28 GMT-0500 (Central Daylight Time),324283.19999999553,A,tower,O,r,199,1,4248.5,320034.69999999553,7798,WL,C,1.0
2,5.966000080108643,learn,54033.99991989136,Wed May 06 2026 11:31:28 GMT-0500 (Central Daylight Time),326000.19999999553,A,towerenter,O,enter,1699,1,5965.5,320034.69999999553,7798,WL,C,1.0
2,7.1519999504089355,learn,52848.000049591064,Wed May 06 2026 11:31:28 GMT-0500 (Central Daylight Time),327186.59999999404,A,w,O,w,1180,1,1186.0,326000.59999999404,7798,WL,C,2.0
2,7.332000017166138,learn,52667.99998283386,Wed May 06 2026 11:31:28 GMT-0500 (Central Daylight Time),327366.19999999553,A,wh,O,h,168,1,1365.6000000014901,326000.59999999404,7798,WL,C,2.0
2,7.614000082015991,learn,52385.99991798401,Wed May 06 2026 11:31:28 GMT-0500 (Central Daylight Time),327648.8999999985,A,whe,O,e,260,1,1648.3000000044703,326000.59999999404,7798,WL,C,2.0
2,8.247999906539917,learn,51752.00009346008,Wed May 06 2026 11:31:28 GMT-0500 (Central Daylight Time),328282.799999997,A,whet,O,t,612,1,2282.2000000029802,326000.59999999404,7798,WL,C,2.0
2,10.263999938964844,learn,49736.000061035156,Wed May 06 2026 11:31:28 GMT-0500 (Central Daylight Time),330298.8999999985,A,whe,O,backspace,1992,1,4298.30000000447,326000.59999999404,7798,WL,C,2.0
2,10.595999956130981,learn,49404.00004386902,Wed May 06 2026 11:31:28 GMT-0500 (Central Daylight Time),330631.0,A,wh,O,backspace,319,1,4630.4000000059605,326000.59999999404,7798,WL,C,2.0
2,11.828999996185303,learn,48171.0000038147,Wed May 06 2026 11:31:28 GMT-0500 (Central Daylight Time),331864.0,A,whe,O,e,1211,1,5863.4000000059605,326000.59999999404,7798,WL,C,2.0
2,12.395999908447266,learn,47604.000091552734,Wed May 06 2026 11:31:28 GMT-0500 (Central Daylight Time),332430.5,A,whea,O,a,546,1,6429.9000000059605,326000.59999999404,7798,WL,C,2.0
2,12.812000036239624,learn,47187.999963760376,Wed May 06 2026 11:31:28 GMT-0500 (Central Daylight Time),332847.0,A,wheat,O,t,403,1,6846.4000000059605,326000.59999999404,7798,WL,C,2.0
2,13.479000091552734,learn,46520.999908447266,Wed May 06 2026 11:31:28 GMT-0500 (Central Daylight Time),333513.69999999553,A,wheatenter,O,enter,645,1,7513.10000000149,326000.59999999404,7798,WL,C,2.0
2,14.678999900817871,learn,45321.00009918213,Wed May 06 2026 11:31:28 GMT-0500 (Central Daylight Time),334713.299999997,A,s,O,s,1179,1,1199.2999999970198,333514.0,7798,WL,C,3.0
2,14.878999948501587,learn,45121.00005149841,Wed May 06 2026 11:31:28 GMT-0500 (Central Daylight Time),334913.8999999985,A,su,O,u,183,1,1399.8999999985099,333514.0,7798,WL,C,3.0
2,15.093999862670898,learn,44906.0001373291,Wed May 06 2026 11:31:28 GMT-0500 (Central Daylight Time),335129.0,A,sug,O,g,199,1,1615.0,333514.0,7798,WL,C,3.0
2,15.411999940872192,learn,44588.00005912781,Wed May 06 2026 11:31:28 GMT-0500 (Central Daylight Time),335446.299999997,A,suga,O,a,297,1,1932.2999999970198,333514.0,7798,WL,C,3.0
2,15.66100001335144,learn,44338.99998664856,Wed May 06 2026 11:31:28 GMT-0500 (Central Daylight Time),335696.09999999404,A,sugar,O,r,234,1,2182.0999999940395,333514.0,7798,WL,C,3.0
2,16.26099991798401,learn,43739.00008201599,Wed May 06 2026 11:31:28 GMT-0500 (Central Daylight Time),336295.8999999985,A,sugarenter,O,enter,578,1,2781.89999999851,333514.0,7798,WL,C,3.0
2,17.694999933242798,learn,42305.0000667572,Wed May 06 2026 11:31:28 GMT-0500 (Central Daylight Time),337729.8999999985,A,c,O,c,1421,1,1433.7000000029802,336296.19999999553,7798,WL,C,4.0
2,17.812999963760376,learn,42187.000036239624,Wed May 06 2026 11:31:28 GMT-0500 (Central Daylight Time),337847.5,A,co,O,o,97,1,1551.3000000044703,336296.19999999553,7798,WL,C,4.0
2,17.97699999809265,learn,42023.00000190735,Wed May 06 2026 11:31:28 GMT-0500 (Central Daylight Time),338011.799999997,A,cor,O,r,154,1,1715.6000000014901,336296.19999999553,7798,WL,C,4.0
2,18.194999933242798,learn,41805.0000667572,Wed May 06 2026 11:31:28 GMT-0500 (Central Daylight Time),338229.3999999985,A,corn,O,n,200,1,1933.2000000029802,336296.19999999553,7798,WL,C,4.0
2,19.14299988746643,learn,40857.00011253357,Wed May 06 2026 11:31:28 GMT-0500 (Central Daylight Time),339178.0,A,cornenter,O,enter,933,1,2881.8000000044703,336296.19999999553,7798,WL,C,4.0
2,20.543999910354614,learn,39456.000089645386,Wed May 06 2026 11:31:28 GMT-0500 (Central Daylight Time),340578.8999999985,A,f,O,f,1386,1,1400.6000000014901,339178.299999997,7798,WL,C,5.0
2,20.80999994277954,learn,39190.00005722046,Wed May 06 2026 11:31:28 GMT-0500 (Central Daylight Time),340844.799999997,A,fl,O,l,255,1,1666.5,339178.299999997,7798,WL,C,5.0
2,20.944000005722046,learn,39055.999994277954,Wed May 06 2026 11:31:28 GMT-0500 (Central Daylight Time),340979.19999999553,A,fla,O,a,119,1,1800.8999999985099,339178.299999997,7798,WL,C,5.0
2,21.542999982833862,learn,38457.00001716614,Wed May 06 2026 11:31:28 GMT-0500 (Central Daylight Time),341577.799999997,A,flag,O,g,584,1,2399.5,339178.299999997,7798,WL,C,5.0
2,22.39199995994568,learn,37608.00004005432,Wed May 06 2026 11:31:28 GMT-0500 (Central Daylight Time),342426.69999999553,A,flagenter,O,enter,839,1,3248.39999999851,339178.299999997,7798,WL,C,5.0
2,23.4760000705719,learn,36523.9999294281,Wed May 06 2026 11:31:28 GMT-0500 (Central Daylight Time),343510.69999999553,A,b,O,b,1074,1,1083.6999999955297,342427.0,7798,WL,C,6.0
2,23.625999927520752,learn,36374.00007247925,Wed May 06 2026 11:31:28 GMT-0500 (Central Daylight Time),343660.799999997,A,bo,O,o,133,1,1233.7999999970198,342427.0,7798,WL,C,6.0
2,23.960999965667725,learn,36039.000034332275,Wed May 06 2026 11:31:28 GMT-0500 (Central Daylight Time),343995.59999999404,A,boy,O,y,313,1,1568.5999999940395,342427.0,7798,WL,C,6.0
2,24.625,learn,35375.0,Wed May 06 2026 11:31:28 GMT-0500 (Central Daylight Time),344659.59999999404,A,boyenter,O,enter,656,1,2232.5999999940395,342427.0,7798,WL,C,6.0
2,27.358999967575073,learn,32641.000032424927,Wed May 06 2026 11:31:28 GMT-0500 (Central Daylight Time),347393.299999997,A,c,O,c,2719,1,2733.39999999851,344659.8999999985,7798,WL,C,7.0
2,27.625,learn,32375.0,Wed May 06 2026 11:31:28 GMT-0500 (Central Daylight Time),347660.09999999404,A,ca,O,a,262,1,3000.1999999955297,344659.8999999985,7798,WL,C,7.0
2,27.907999992370605,learn,32092.000007629395,Wed May 06 2026 11:31:28 GMT-0500 (Central Daylight Time),347942.59999999404,A,cat,O,t,264,1,3282.6999999955297,344659.8999999985,7798,WL,C,7.0
2,28.125,learn,31875.0,Wed May 06 2026 11:31:28 GMT-0500 (Central Daylight Time),348159.69999999553,A,catt,O,t,204,1,3499.7999999970198,344659.8999999985,7798,WL,C,7.0
2,28.33999991416931,learn,31660.00008583069,Wed May 06 2026 11:31:28 GMT-0500 (Central Daylight Time),348375.0,A,cattl,O,l,204,1,3715.10000000149,344659.8999999985,7798,WL,C,7.0
2,28.490999937057495,learn,31509.000062942505,Wed May 06 2026 11:31:28 GMT-0500 (Central Daylight Time),348525.8999999985,A,cattle,O,e,141,1,3866.0,344659.8999999985,7798,WL,C,7.0
2,30.02500009536743,learn,29974.99990463257,Wed May 06 2026 11:31:28 GMT-0500 (Central Daylight Time),350059.69999999553,A,cattleenter,O,enter,1514,1,5399.79999999702,344659.8999999985,7798,WL,C,7.0
2,60.014999866485596,learn,-14.999866485595703,Wed May 06 2026 11:31:28 GMT-0500 (Central Daylight Time),380050.19999999553,A,None,O,None,29985,1,29990.19999999553,350060.0,7798,WL,C,8.0
3,1.9019999504089355,learn,58098.000049591064,Wed May 06 2026 11:31:28 GMT-0500 (Central Daylight Time),456477.3999999985,A,q,O,q,1890,1,1901.3999999985099,454576.0,7798,WL,C,1.0
3,2.184000015258789,learn,57815.99998474121,Wed May 06 2026 11:31:28 GMT-0500 (Central Daylight Time),456759.5,A,qu,O,u,262,1,2183.5,454576.0,7798,WL,C,1.0
3,2.6689999103546143,learn,57331.000089645386,Wed May 06 2026 11:31:28 GMT-0500 (Central Daylight Time),457244.299999997,A,que,O,e,469,1,2668.2999999970198,454576.0,7798,WL,C,1.0
3,3.2309999465942383,learn,56769.00005340576,Wed May 06 2026 11:31:28 GMT-0500 (Central Daylight Time),457806.0,A,quee,O,e,549,1,3230.0,454576.0,7798,WL,C,1.0
3,3.4830000400543213,learn,56516.99995994568,Wed May 06 2026 11:31:28 GMT-0500 (Central Daylight Time),458058.299999997,A,queen,O,n,234,1,3482.2999999970198,454576.0,7798,WL,C,1.0
3,4.999000072479248,learn,55000.99992752075,Wed May 06 2026 11:31:28 GMT-0500 (Central Daylight Time),459574.0,A,queenenter,O,enter,1503,1,4998.0,454576.0,7798,WL,C,1.0
3,6.065000057220459,learn,53934.99994277954,Wed May 06 2026 11:31:28 GMT-0500 (Central Daylight Time),460640.5,A,t,O,t,1060,1,1066.2000000029802,459574.299999997,7798,WL,C,2.0
3,6.164000034332275,learn,53835.999965667725,Wed May 06 2026 11:31:28 GMT-0500 (Central Daylight Time),460739.5,A,to,O,o,92,1,1165.2000000029802,459574.299999997,7798,WL,C,2.0
3,6.265000104904175,learn,53734.999895095825,Wed May 06 2026 11:31:28 GMT-0500 (Central Daylight Time),460840.5,A,tow,O,w,78,1,1266.2000000029802,459574.299999997,7798,WL,C,2.0
3,6.497999906539917,learn,53502.00009346008,Wed May 06 2026 11:31:28 GMT-0500 (Central Daylight Time),461073.69999999553,A,towe,O,e,211,1,1499.3999999985099,459574.299999997,7798,WL,C,2.0
3,6.681999921798706,learn,53318.000078201294,Wed May 06 2026 11:31:28 GMT-0500 (Central Daylight Time),461258.0,A,tower,O,r,162,1,1683.7000000029802,459574.299999997,7798,WL,C,2.0
3,9.280999898910522,learn,50719.00010108948,Wed May 06 2026 11:31:28 GMT-0500 (Central Daylight Time),463856.299999997,A,towerenter,O,enter,2586,1,4282.0,459574.299999997,7798,WL,C,2.0
3,11.496999979019165,learn,48503.000020980835,Wed May 06 2026 11:31:28 GMT-0500 (Central Daylight Time),466072.19999999553,A,s,O,s,2196,1,2215.60000000149,463856.59999999404,7798,WL,C,3.0
3,11.76200008392334,learn,48237.99991607666,Wed May 06 2026 11:31:28 GMT-0500 (Central Daylight Time),466337.799999997,A,su,O,u,243,1,2481.2000000029802,463856.59999999404,7798,WL,C,3.0
3,11.980000019073486,learn,48019.999980926514,Wed May 06 2026 11:31:28 GMT-0500 (Central Daylight Time),466555.59999999404,A,sug,O,g,208,1,2699.0,463856.59999999404,7798,WL,C,3.0
3,12.246999979019165,learn,47753.000020980835,Wed May 06 2026 11:31:28 GMT-0500 (Central Daylight Time),466822.19999999553,A,suga,O,a,255,1,2965.60000000149,463856.59999999404,7798,WL,C,3.0
3,12.463000059127808,learn,47536.99994087219,Wed May 06 2026 11:31:28 GMT-0500 (Central Daylight Time),467038.5,A,sugar,O,r,195,1,3181.9000000059605,463856.59999999404,7798,WL,C,3.0
3,13.428999900817871,learn,46571.00009918213,Wed May 06 2026 11:31:28 GMT-0500 (Central Daylight Time),468004.299999997,A,sugarenter,O,enter,954,1,4147.70000000298,463856.59999999404,7798,WL,C,3.0
3,14.84500002861023,learn,45154.99997138977,Wed May 06 2026 11:31:28 GMT-0500 (Central Daylight Time),469420.0,A,c,O,c,1398,1,1415.3000000044703,468004.69999999553,7798,WL,C,4.0
3,14.979000091552734,learn,45020.999908447266,Wed May 06 2026 11:31:28 GMT-0500 (Central Daylight Time),469554.5,A,co,O,o,113,1,1549.8000000044703,468004.69999999553,7798,WL,C,4.0
3,15.161999940872192,learn,44838.00005912781,Wed May 06 2026 11:31:28 GMT-0500 (Central Daylight Time),469737.299999997,A,cor,O,r,164,1,1732.6000000014901,468004.69999999553,7798,WL,C,4.0
3,15.378999948501587,learn,44621.00005149841,Wed May 06 2026 11:31:28 GMT-0500 (Central Daylight Time),469954.799999997,A,corn,O,n,199,1,1950.1000000014901,468004.69999999553,7798,WL,C,4.0
3,16.49399995803833,learn,43506.00004196167,Wed May 06 2026 11:31:28 GMT-0500 (Central Daylight Time),471069.59999999404,A,cornenter,O,enter,1101,1,3064.89999999851,468004.69999999553,7798,WL,C,4.0
3,17.328999996185303,learn,42671.0000038147,Wed May 06 2026 11:31:28 GMT-0500 (Central Daylight Time),471904.0,A,c,O,c,814,1,834.1000000014901,471069.8999999985,7798,WL,C,5.0
3,17.578999996185303,learn,42421.0000038147,Wed May 06 2026 11:31:28 GMT-0500 (Central Daylight Time),472154.59999999404,A,ca,O,a,227,1,1084.6999999955297,471069.8999999985,7798,WL,C,5.0
3,18.22699999809265,learn,41773.00000190735,Wed May 06 2026 11:31:28 GMT-0500 (Central Daylight Time),472802.5,A,cat,O,t,628,1,1732.6000000014901,471069.8999999985,7798,WL,C,5.0
3,18.41100001335144,learn,41588.99998664856,Wed May 06 2026 11:31:28 GMT-0500 (Central Daylight Time),472986.799999997,A,catt,O,t,178,1,1916.8999999985099,471069.8999999985,7798,WL,C,5.0
3,18.628000020980835,learn,41371.999979019165,Wed May 06 2026 11:31:28 GMT-0500 (Central Daylight Time),473203.09999999404,A,cattl,O,l,196,1,2133.1999999955297,471069.8999999985,7798,WL,C,5.0
3,18.792999982833862,learn,41207.00001716614,Wed May 06 2026 11:31:28 GMT-0500 (Central Daylight Time),473368.799999997,A,cattle,O,e,145,1,2298.89999999851,471069.8999999985,7798,WL,C,5.0
3,22.026999950408936,learn,37973.000049591064,Wed May 06 2026 11:31:28 GMT-0500 (Central Daylight Time),476602.5,A,cattleenter,O,enter,3212,1,5532.60000000149,471069.8999999985,7798,WL,C,5.0
3,24.742000102996826,learn,35257.999897003174,Wed May 06 2026 11:31:28 GMT-0500 (Central Daylight Time),479317.69999999553,A,f,O,f,2706,1,2715.0,476602.69999999553,7798,WL,C,6.0
3,24.85800004005432,learn,35141.99995994568,Wed May 06 2026 11:31:28 GMT-0500 (Central Daylight Time),479433.299999997,A,fl,O,l,95,1,2830.60000000149,476602.69999999553,7798,WL,C,6.0
3,24.993000030517578,learn,35006.99996948242,Wed May 06 2026 11:31:28 GMT-0500 (Central Daylight Time),479568.19999999553,A,fla,O,a,116,1,2965.5,476602.69999999553,7798,WL,C,6.0
3,25.259999990463257,learn,34740.00000953674,Wed May 06 2026 11:31:28 GMT-0500 (Central Daylight Time),479835.59999999404,A,flag,O,g,252,1,3232.89999999851,476602.69999999553,7798,WL,C,6.0
3,26.207000017166138,learn,33792.99998283386,Wed May 06 2026 11:31:28 GMT-0500 (Central Daylight Time),480783.19999999553,A,flagenter,O,enter,932,1,4180.5,476602.69999999553,7798,WL,C,6.0
3,31.622999906539917,learn,28377.000093460083,Wed May 06 2026 11:31:28 GMT-0500 (Central Daylight Time),486198.69999999553,A,s,O,s,5396,1,5415.19999999553,480783.5,7798,WL,C,7.0
3,31.874000072479248,learn,28125.999927520752,Wed May 06 2026 11:31:28 GMT-0500 (Central Daylight Time),486450.299999997,A,su,O,u,237,1,5666.79999999702,480783.5,7798,WL,C,7.0
3,32.03999996185303,learn,27960.000038146973,Wed May 06 2026 11:31:28 GMT-0500 (Central Daylight Time),486616.0,A,sug,O,g,145,1,5832.5,480783.5,7798,WL,C,7.0
3,32.206000089645386,learn,27793.999910354614,Wed May 06 2026 11:31:28 GMT-0500 (Central Daylight Time),486782.09999999404,A,sugg,O,g,155,1,5998.5999999940395,480783.5,7798,WL,C,7.0
3,32.456000089645386,learn,27543.999910354614,Wed May 06 2026 11:31:28 GMT-0500 (Central Daylight Time),487032.0,A,sugga,O,a,239,1,6248.5,480783.5,7798,WL,C,7.0
3,33.85599994659424,learn,26144.00005340576,Wed May 06 2026 11:31:28 GMT-0500 (Central Daylight Time),488432.19999999553,A,sugg,O,backspace,1395,1,7648.69999999553,480783.5,7798,WL,C,7.0
3,34.44000005722046,learn,25559.99994277954,Wed May 06 2026 11:31:28 GMT-0500 (Central Daylight Time),489015.3999999985,A,suggr,O,r,563,1,8231.89999999851,480783.5,7798,WL,C,7.0
3,36.40499997138977,learn,23595.00002861023,Wed May 06 2026 11:31:28 GMT-0500 (Central Daylight Time),490980.5,A,suggrh,O,h,1947,1,10197.0,480783.5,7798,WL,C,7.0
3,36.5550000667572,learn,23444.999933242798,Wed May 06 2026 11:31:28 GMT-0500 (Central Daylight Time),491131.09999999404,A,suggrho,O,o,147,1,10347.59999999404,480783.5,7798,WL,C,7.0
3,36.8050000667572,learn,23194.999933242798,Wed May 06 2026 11:31:28 GMT-0500 (Central Daylight Time),491380.3999999985,A,suggrhom,O,m,225,1,10596.89999999851,480783.5,7798,WL,C,7.0
3,37.08800005912781,learn,22911.999940872192,Wed May 06 2026 11:31:28 GMT-0500 (Central Daylight Time),491663.59999999404,A,suggrhome,O,e,263,1,10880.09999999404,480783.5,7798,WL,C,7.0
3,39.8199999332428,learn,20180.000066757202,Wed May 06 2026 11:31:28 GMT-0500 (Central Daylight Time),494395.799999997,A,suggrhom,O,backspace,2722,1,13612.29999999702,480783.5,7798,WL,C,7.0
3,40.05299997329712,learn,19947.00002670288,Wed May 06 2026 11:31:28 GMT-0500 (Central Daylight Time),494628.299999997,A,suggrho,O,backspace,225,1,13844.79999999702,480783.5,7798,WL,C,7.0
3,40.269999980926514,learn,19730.000019073486,Wed May 06 2026 11:31:28 GMT-0500 (Central Daylight Time),494845.19999999553,A,suggrh,O,backspace,210,1,14061.69999999553,480783.5,7798,WL,C,7.0
3,40.50399994850159,learn,19496.000051498413,Wed May 06 2026 11:31:28 GMT-0500 (Central Daylight Time),495079.3999999985,A,suggr,O,backspace,214,1,14295.89999999851,480783.5,7798,WL,C,7.0
3,41.28600001335144,learn,18713.99998664856,Wed May 06 2026 11:31:28 GMT-0500 (Central Daylight Time),495862.0,A,sugg,O,backspace,773,1,15078.5,480783.5,7798,WL,C,7.0
3,42.670000076293945,learn,17329.999923706055,Wed May 06 2026 11:31:28 GMT-0500 (Central Daylight Time),497245.69999999553,A,sug,O,backspace,1366,1,16462.19999999553,480783.5,7798,WL,C,7.0
3,43.71900010108948,learn,16280.999898910522,Wed May 06 2026 11:31:28 GMT-0500 (Central Daylight Time),498294.8999999985,A,suga,O,a,1029,1,17511.39999999851,480783.5,7798,WL,C,7.0
3,44.003000020980835,learn,15996.999979019165,Wed May 06 2026 11:31:28 GMT-0500 (Central Daylight Time),498578.59999999404,A,sugar,O,r,271,1,17795.09999999404,480783.5,7798,WL,C,7.0
3,44.50200009346008,learn,15497.999906539917,Wed May 06 2026 11:31:28 GMT-0500 (Central Daylight Time),499077.799999997,A,sugarenter,O,enter,488,1,18294.29999999702,480783.5,7798,WL,C,7.0
3,46.549999952316284,learn,13450.000047683716,Wed May 06 2026 11:31:28 GMT-0500 (Central Daylight Time),501126.0,A,h,O,h,2037,1,2047.9000000059605,499078.09999999404,7798,WL,C,8.0
3,46.76699995994568,learn,13233.000040054321,Wed May 06 2026 11:31:28 GMT-0500 (Central Daylight Time),501342.3999999985,A,ho,O,o,198,1,2264.3000000044703,499078.09999999404,7798,WL,C,8.0
3,46.98300004005432,learn,13016.999959945679,Wed May 06 2026 11:31:28 GMT-0500 (Central Daylight Time),501558.59999999404,A,hom,O,m,205,1,2480.5,499078.09999999404,7798,WL,C,8.0
3,47.23300004005432,learn,12766.999959945679,Wed May 06 2026 11:31:28 GMT-0500 (Central Daylight Time),501809.09999999404,A,home,O,e,230,1,2731.0,499078.09999999404,7798,WL,C,8.0
3,48.56699991226196,learn,11433.000087738037,Wed May 06 2026 11:31:28 GMT-0500 (Central Daylight Time),503143.0,A,homeenter,O,enter,1316,1,4064.9000000059605,499078.09999999404,7798,WL,C,8.0
3,53.59999990463257,learn,6400.000095367432,Wed May 06 2026 11:31:28 GMT-0500 (Central Daylight Time),508175.299999997,A,w,O,w,5013,1,5032.0,503143.299999997,7798,WL,C,9.0
3,53.83299994468689,learn,6167.00005531311,Wed May 06 2026 11:31:28 GMT-0500 (Central Daylight Time),508408.5,A,wh,O,h,211,1,5265.20000000298,503143.299999997,7798,WL,C,9.0
3,53.931999921798706,learn,6068.000078201294,Wed May 06 2026 11:31:28 GMT-0500 (Central Daylight Time),508507.799999997,A,whe,O,e,88,1,5364.5,503143.299999997,7798,WL,C,9.0
3,54.450000047683716,learn,5549.999952316284,Wed May 06 2026 11:31:28 GMT-0500 (Central Daylight Time),509025.59999999404,A,whea,O,a,511,1,5882.29999999702,503143.299999997,7798,WL,C,9.0
3,54.818000078201294,learn,5181.999921798706,Wed May 06 2026 11:31:28 GMT-0500 (Central Daylight Time),509394.0,A,wheat,O,t,346,1,6250.70000000298,503143.299999997,7798,WL,C,9.0
3,56.41499996185303,learn,3585.0000381469727,Wed May 06 2026 11:31:28 GMT-0500 (Central Daylight Time),510990.69999999553,A,wheatenter,O,enter,1578,1,7847.39999999851,503143.299999997,7798,WL,C,9.0
3,60.015000104904175,learn,-15.000104904174805,Wed May 06 2026 11:31:28 GMT-0500 (Central Daylight Time),514590.299999997,A,None,O,None,3594,1,3599.2000000029802,510991.09999999404,7798,WL,C,10.0
4,4.116000175476074,learn,55883.999824523926,Wed May 06 2026 11:31:28 GMT-0500 (Central Daylight Time),590433.299999997,A,s,O,s,4094,1,4115.5,586317.799999997,7798,WL,C,1.0
4,4.163000106811523,learn,55836.99989318848,Wed May 06 2026 11:31:28 GMT-0500 (Central Daylight Time),590480.5,A,sh,O,h,32,1,4162.70000000298,586317.799999997,7798,WL,C,1.0
4,4.332000017166138,learn,55667.99998283386,Wed May 06 2026 11:31:28 GMT-0500 (Central Daylight Time),590648.599999994,A,sho,O,o,156,1,4330.79999999702,586317.799999997,7798,WL,C,1.0
4,4.565999984741211,learn,55434.00001525879,Wed May 06 2026 11:31:28 GMT-0500 (Central Daylight Time),590883.0,A,shor,O,r,219,1,4565.20000000298,586317.799999997,7798,WL,C,1.0
4,4.831000089645386,learn,55168.999910354614,Wed May 06 2026 11:31:28 GMT-0500 (Central Daylight Time),591148.3999999985,A,shore,O,e,251,1,4830.60000000149,586317.799999997,7798,WL,C,1.0
4,5.965000152587891,learn,54034.99984741211,Wed May 06 2026 11:31:28 GMT-0500 (Central Daylight Time),592281.8999999985,A,shoreenter,O,enter,1117,1,5964.10000000149,586317.799999997,7798,WL,C,1.0
4,7.0320000648498535,learn,52967.99993515015,Wed May 06 2026 11:31:28 GMT-0500 (Central Daylight Time),593348.6999999955,A,b,O,b,1050,1,1066.6000000014901,592282.099999994,7798,WL,C,2.0
4,7.182000160217285,learn,52817.999839782715,Wed May 06 2026 11:31:28 GMT-0500 (Central Daylight Time),593499.0,A,bo,O,o,130,1,1216.9000000059605,592282.099999994,7798,WL,C,2.0
4,7.314000129699707,learn,52685.99987030029,Wed May 06 2026 11:31:28 GMT-0500 (Central Daylight Time),593630.6999999955,A,bod,O,d,122,1,1348.6000000014901,592282.099999994,7798,WL,C,2.0
4,7.713000059127808,learn,52286.99994087219,Wed May 06 2026 11:31:28 GMT-0500 (Central Daylight Time),594030.0,A,body,O,y,379,1,1747.9000000059605,592282.099999994,7798,WL,C,2.0
4,8.347000122070312,learn,51652.99987792969,Wed May 06 2026 11:31:28 GMT-0500 (Central Daylight Time),594664.099999994,A,bodyenter,O,enter,614,1,2382.0,592282.099999994,7798,WL,C,2.0
4,9.564000129699707,learn,50435.99987030029,Wed May 06 2026 11:31:28 GMT-0500 (Central Daylight Time),595880.6999999955,A,q,O,q,1205,1,1216.3999999985099,594664.299999997,7798,WL,C,3.0
4,9.712000131607056,learn,50287.999868392944,Wed May 06 2026 11:31:28 GMT-0500 (Central Daylight Time),596029.5,A,qu,O,u,138,1,1365.2000000029802,594664.299999997,7798,WL,C,3.0
4,9.86300015449524,learn,50136.99984550476,Wed May 06 2026 11:31:28 GMT-0500 (Central Daylight Time),596180.1999999955,A,que,O,e,146,1,1515.8999999985099,594664.299999997,7798,WL,C,3.0
4,10.646000146865845,learn,49353.999853134155,Wed May 06 2026 11:31:28 GMT-0500 (Central Daylight Time),596963.5,A,quee,O,e,768,1,2299.2000000029802,594664.299999997,7798,WL,C,3.0
4,10.84600019454956,learn,49153.99980545044,Wed May 06 2026 11:31:28 GMT-0500 (Central Daylight Time),597163.299999997,A,queen,O,n,185,1,2499.0,594664.299999997,7798,WL,C,3.0
4,11.646000146865845,learn,48353.999853134155,Wed May 06 2026 11:31:28 GMT-0500 (Central Daylight Time),597962.6999999955,A,queenenter,O,enter,778,1,3298.39999999851,594664.299999997,7798,WL,C,3.0
4,12.413000106811523,learn,47586.99989318848,Wed May 06 2026 11:31:28 GMT-0500 (Central Daylight Time),598730.1999999955,A,t,O,t,747,1,767.1999999955297,597963.0,7798,WL,C,4.0
4,12.529000043869019,learn,47470.99995613098,Wed May 06 2026 11:31:28 GMT-0500 (Central Daylight Time),598845.6999999955,A,to,O,o,97,1,882.6999999955297,597963.0,7798,WL,C,4.0
4,12.61300015449524,learn,47386.99984550476,Wed May 06 2026 11:31:28 GMT-0500 (Central Daylight Time),598929.599999994,A,tow,O,w,63,1,966.5999999940395,597963.0,7798,WL,C,4.0
4,12.812999963760376,learn,47187.000036239624,Wed May 06 2026 11:31:28 GMT-0500 (Central Daylight Time),599130.099999994,A,towe,O,e,178,1,1167.0999999940395,597963.0,7798,WL,C,4.0
4,13.029000043869019,learn,46970.99995613098,Wed May 06 2026 11:31:28 GMT-0500 (Central Daylight Time),599346.599999994,A,tower,O,r,196,1,1383.5999999940395,597963.0,7798,WL,C,4.0
4,14.34500002861023,learn,45654.99997138977,Wed May 06 2026 11:31:28 GMT-0500 (Central Daylight Time),600662.1999999955,A,towerenter,O,enter,1296,1,2699.1999999955297,597963.0,7798,WL,C,4.0
4,15.144000053405762,learn,44855.99994659424,Wed May 06 2026 11:31:28 GMT-0500 (Central Daylight Time),601461.6999999955,A,w,O,w,789,1,799.2999999970198,600662.3999999985,7798,WL,C,5.0
4,15.361000061035156,learn,44638.999938964844,Wed May 06 2026 11:31:28 GMT-0500 (Central Daylight Time),601678.1999999955,A,wh,O,h,204,1,1015.7999999970198,600662.3999999985,7798,WL,C,5.0
4,15.460999965667725,learn,44539.000034332275,Wed May 06 2026 11:31:28 GMT-0500 (Central Daylight Time),601778.299999997,A,whe,O,e,87,1,1115.8999999985099,600662.3999999985,7798,WL,C,5.0
4,15.794000148773193,learn,44205.99985122681,Wed May 06 2026 11:31:28 GMT-0500 (Central Daylight Time),602111.1999999955,A,whea,O,a,320,1,1448.7999999970198,600662.3999999985,7798,WL,C,5.0
4,16.49500012397766,learn,43504.99987602234,Wed May 06 2026 11:31:28 GMT-0500 (Central Daylight Time),602811.8999999985,A,wheat,O,t,682,1,2149.5,600662.3999999985,7798,WL,C,5.0
4,17.545000076293945,learn,42454.999923706055,Wed May 06 2026 11:31:28 GMT-0500 (Central Daylight Time),603861.8999999985,A,wheatenter,O,enter,1040,1,3199.5,600662.3999999985,7798,WL,C,5.0
4,18.06000018119812,learn,41939.99981880188,Wed May 06 2026 11:31:28 GMT-0500 (Central Daylight Time),604377.5,A,c,O,c,496,1,515.3000000044703,603862.1999999955,7798,WL,C,6.0
4,18.294000148773193,learn,41705.99985122681,Wed May 06 2026 11:31:28 GMT-0500 (Central Daylight Time),604611.599999994,A,co,O,o,218,1,749.3999999985099,603862.1999999955,7798,WL,C,6.0
4,18.49400019645691,learn,41505.99980354309,Wed May 06 2026 11:31:28 GMT-0500 (Central Daylight Time),604811.5,A,cor,O,r,180,1,949.3000000044703,603862.1999999955,7798,WL,C,6.0
4,18.7260000705719,learn,41273.9999294281,Wed May 06 2026 11:31:28 GMT-0500 (Central Daylight Time),605043.6999999955,A,corn,O,n,211,1,1181.5,603862.1999999955,7798,WL,C,6.0
4,20.2260000705719,learn,39773.9999294281,Wed May 06 2026 11:31:28 GMT-0500 (Central Daylight Time),606543.3999999985,A,cornenter,O,enter,1488,1,2681.2000000029802,603862.1999999955,7798,WL,C,6.0
4,21.527000188827515,learn,38472.999811172485,Wed May 06 2026 11:31:28 GMT-0500 (Central Daylight Time),607844.6999999955,A,c,O,c,1284,1,1301.1000000014901,606543.599999994,7798,WL,C,7.0
4,21.926000118255615,learn,38073.999881744385,Wed May 06 2026 11:31:28 GMT-0500 (Central Daylight Time),608243.6999999955,A,ct,O,t,377,1,1700.1000000014901,606543.599999994,7798,WL,C,7.0
4,22.20900011062622,learn,37790.99988937378,Wed May 06 2026 11:31:28 GMT-0500 (Central Daylight Time),608526.3999999985,A,ctt,O,t,262,1,1982.8000000044703,606543.599999994,7798,WL,C,7.0
4,23.444000005722046,learn,36555.999994277954,Wed May 06 2026 11:31:28 GMT-0500 (Central Daylight Time),609761.3999999985,A,ct,O,backspace,1232,1,3217.8000000044703,606543.599999994,7798,WL,C,7.0
4,23.66000008583069,learn,36339.99991416931,Wed May 06 2026 11:31:28 GMT-0500 (Central Daylight Time),609977.1999999955,A,c,O,backspace,201,1,3433.60000000149,606543.599999994,7798,WL,C,7.0
4,23.925000190734863,learn,36074.99980926514,Wed May 06 2026 11:31:28 GMT-0500 (Central Daylight Time),610242.5,A,,O,backspace,249,1,3698.9000000059605,606543.599999994,7798,WL,C,7.0
4,26.075000047683716,learn,33924.999952316284,Wed May 06 2026 11:31:28 GMT-0500 (Central Daylight Time),612392.5,A,c,O,c,2128,1,5848.9000000059605,606543.599999994,7798,WL,C,7.0
4,26.307000160217285,learn,33692.999839782715,Wed May 06 2026 11:31:28 GMT-0500 (Central Daylight Time),612624.799999997,A,ca,O,a,218,1,6081.20000000298,606543.599999994,7798,WL,C,7.0
4,26.508000135421753,learn,33491.99986457825,Wed May 06 2026 11:31:28 GMT-0500 (Central Daylight Time),612825.3999999985,A,cat,O,t,188,1,6281.80000000447,606543.599999994,7798,WL,C,7.0
4,26.743000030517578,learn,33256.99996948242,Wed May 06 2026 11:31:28 GMT-0500 (Central Daylight Time),613060.299999997,A,catt,O,t,216,1,6516.70000000298,606543.599999994,7798,WL,C,7.0
4,26.89199995994568,learn,33108.00004005432,Wed May 06 2026 11:31:28 GMT-0500 (Central Daylight Time),613209.0,A,cattl,O,l,137,1,6665.4000000059605,606543.599999994,7798,WL,C,7.0
4,27.058000087738037,learn,32941.99991226196,Wed May 06 2026 11:31:28 GMT-0500 (Central Daylight Time),613374.8999999985,A,cattle,O,e,147,1,6831.30000000447,606543.599999994,7798,WL,C,7.0
4,28.04200005531311,learn,31957.99994468689,Wed May 06 2026 11:31:28 GMT-0500 (Central Daylight Time),614359.299999997,A,cattleenter,O,enter,965,1,7815.70000000298,606543.599999994,7798,WL,C,7.0
4,29.606000185012817,learn,30393.999814987183,Wed May 06 2026 11:31:28 GMT-0500 (Central Daylight Time),615923.599999994,A,s,O,s,1555,1,1564.0,614359.599999994,7798,WL,C,8.0
4,29.874000072479248,learn,30125.999927520752,Wed May 06 2026 11:31:28 GMT-0500 (Central Daylight Time),616191.5,A,su,O,u,249,1,1831.9000000059605,614359.599999994,7798,WL,C,8.0
4,30.091000080108643,learn,29908.999919891357,Wed May 06 2026 11:31:28 GMT-0500 (Central Daylight Time),616408.599999994,A,sug,O,g,195,1,2049.0,614359.599999994,7798,WL,C,8.0
4,30.371999979019165,learn,29628.000020980835,Wed May 06 2026 11:31:28 GMT-0500 (Central Daylight Time),616689.8999999985,A,suga,O,a,267,1,2330.3000000044703,614359.599999994,7798,WL,C,8.0
4,30.939000129699707,learn,29060.999870300293,Wed May 06 2026 11:31:28 GMT-0500 (Central Daylight Time),617256.6999999955,A,sugar,O,r,555,1,2897.10000000149,614359.599999994,7798,WL,C,8.0
4,31.873000144958496,learn,28126.999855041504,Wed May 06 2026 11:31:28 GMT-0500 (Central Daylight Time),618189.8999999985,A,sugarenter,O,enter,923,1,3830.3000000044703,614359.599999994,7798,WL,C,8.0
4,37.77300000190735,learn,22226.99999809265,Wed May 06 2026 11:31:28 GMT-0500 (Central Daylight Time),624090.0,A,n,O,n,5879,1,5899.80000000447,618190.1999999955,7798,WL,C,9.0
4,38.021000146865845,learn,21978.999853134155,Wed May 06 2026 11:31:28 GMT-0500 (Central Daylight Time),624338.099999994,A,na,O,a,234,1,6147.89999999851,618190.1999999955,7798,WL,C,9.0
4,38.254000186920166,learn,21745.999813079834,Wed May 06 2026 11:31:28 GMT-0500 (Central Daylight Time),624571.5,A,nai,O,i,217,1,6381.30000000447,618190.1999999955,7798,WL,C,9.0
4,38.62100005149841,learn,21378.999948501587,Wed May 06 2026 11:31:28 GMT-0500 (Central Daylight Time),624938.0,A,nail,O,l,352,1,6747.80000000447,618190.1999999955,7798,WL,C,9.0
4,39.65400004386902,learn,20345.99995613098,Wed May 06 2026 11:31:28 GMT-0500 (Central Daylight Time),625971.799999997,A,nailenter,O,enter,1013,1,7781.60000000149,618190.1999999955,7798,WL,C,9.0
4,43.78600001335144,learn,16213.99998664856,Wed May 06 2026 11:31:28 GMT-0500 (Central Daylight Time),630103.099999994,A,c,O,c,4120,1,4130.89999999851,625972.1999999955,7798,WL,C,10.0
4,43.968000173568726,learn,16031.999826431274,Wed May 06 2026 11:31:28 GMT-0500 (Central Daylight Time),630285.599999994,A,co,O,o,173,1,4313.39999999851,625972.1999999955,7798,WL,C,10.0
4,44.18600010871887,learn,15813.999891281128,Wed May 06 2026 11:31:28 GMT-0500 (Central Daylight Time),630503.0,A,cor,O,r,205,1,4530.80000000447,625972.1999999955,7798,WL,C,10.0
4,44.41900014877319,learn,15580.999851226807,Wed May 06 2026 11:31:28 GMT-0500 (Central Daylight Time),630736.299999997,A,corn,O,n,222,1,4764.10000000149,625972.1999999955,7798,WL,C,10.0
4,44.968000173568726,learn,15031.999826431274,Wed May 06 2026 11:31:28 GMT-0500 (Central Daylight Time),631285.6999999955,A,cornenter,O,enter,530,1,5313.5,625972.1999999955,7798,WL,C,10.0
4,52.05000019073486,learn,7949.999809265137,Wed May 06 2026 11:31:28 GMT-0500 (Central Daylight Time),638367.0,A,q,O,q,7063,1,7081.10000000149,631285.8999999985,7798,WL,C,11.0
4,52.23399996757507,learn,7766.000032424927,Wed May 06 2026 11:31:28 GMT-0500 (Central Daylight Time),638551.1999999955,A,qu,O,u,173,1,7265.29999999702,631285.8999999985,7798,WL,C,11.0
4,52.43300008773804,learn,7566.999912261963,Wed May 06 2026 11:31:28 GMT-0500 (Central Daylight Time),638750.0,A,que,O,e,191,1,7464.10000000149,631285.8999999985,7798,WL,C,11.0
4,52.98300004005432,learn,7016.999959945679,Wed May 06 2026 11:31:28 GMT-0500 (Central Daylight Time),639300.0,A,quee,O,e,535,1,8014.10000000149,631285.8999999985,7798,WL,C,11.0
4,54.39900016784668,learn,5600.99983215332,Wed May 06 2026 11:31:28 GMT-0500 (Central Daylight Time),640716.3999999985,A,queen,O,n,1408,1,9430.5,631285.8999999985,7798,WL,C,11.0
4,55.348000049591064,learn,4651.999950408936,Wed May 06 2026 11:31:28 GMT-0500 (Central Daylight Time),641665.5,A,queenenter,O,enter,935,1,10379.60000000149,631285.8999999985,7798,WL,C,11.0
4,60.015000104904175,learn,-15.000104904174805,Wed May 06 2026 11:31:28 GMT-0500 (Central Daylight Time),646332.099999994,A,None,O,None,4662,1,4666.5,641665.599999994,7798,WL,C,12.0
5,2.1019999980926514,learn,60000.0,Wed May 06 2026 11:31:28 GMT-0500 (Central Daylight Time),726475.5,A,s,O,s,2081,1,2102.5,724373.0,7798,WL,C,1.0
5,2.3320000171661377,learn,60000.0,Wed May 06 2026 11:31:28 GMT-0500 (Central Daylight Time),726705.5,A,sj,O,j,218,1,2332.5,724373.0,7798,WL,C,1.0
5,3.0810000896453857,learn,60000.0,Wed May 06 2026 11:31:28 GMT-0500 (Central Daylight Time),727454.299999997,A,s,O,backspace,729,1,3081.2999999970198,724373.0,7798,WL,C,1.0
5,4.299999952316284,learn,60000.0,Wed May 06 2026 11:31:28 GMT-0500 (Central Daylight Time),728672.599999994,A,ss,O,s,1199,1,4299.5999999940395,724373.0,7798,WL,C,1.0
5,4.466000080108643,learn,60000.0,Wed May 06 2026 11:31:28 GMT-0500 (Central Daylight Time),728839.1999999955,A,ssh,O,h,153,1,4466.19999999553,724373.0,7798,WL,C,1.0
5,4.63100004196167,learn,60000.0,Wed May 06 2026 11:31:28 GMT-0500 (Central Daylight Time),729004.099999994,A,ssho,O,o,157,1,4631.0999999940395,724373.0,7798,WL,C,1.0
5,4.914999961853027,learn,60000.0,Wed May 06 2026 11:31:28 GMT-0500 (Central Daylight Time),729288.5,A,sshot,O,t,265,1,4915.5,724373.0,7798,WL,C,1.0
5,5.831000089645386,learn,60000.0,Wed May 06 2026 11:31:28 GMT-0500 (Central Daylight Time),730203.799999997,A,ssho,O,backspace,905,1,5830.79999999702,724373.0,7798,WL,C,1.0
5,6.348999977111816,learn,60000.0,Wed May 06 2026 11:31:28 GMT-0500 (Central Daylight Time),730722.3999999985,A,ssh,O,backspace,504,1,6349.39999999851,724373.0,7798,WL,C,1.0
5,6.664999961853027,learn,60000.0,Wed May 06 2026 11:31:28 GMT-0500 (Central Daylight Time),731037.599999994,A,ss,O,backspace,296,1,6664.5999999940395,724373.0,7798,WL,C,1.0
5,6.947999954223633,learn,60000.0,Wed May 06 2026 11:31:28 GMT-0500 (Central Daylight Time),731321.099999994,A,s,O,backspace,262,1,6948.0999999940395,724373.0,7798,WL,C,1.0
5,8.765000104904175,learn,60000.0,Wed May 06 2026 11:31:28 GMT-0500 (Central Daylight Time),733138.099999994,A,sh,O,h,1803,1,8765.09999999404,724373.0,7798,WL,C,1.0
5,8.930999994277954,learn,60000.0,Wed May 06 2026 11:31:28 GMT-0500 (Central Daylight Time),733304.099999994,A,sho,O,o,154,1,8931.09999999404,724373.0,7798,WL,C,1.0
5,9.130000114440918,learn,60000.0,Wed May 06 2026 11:31:28 GMT-0500 (Central Daylight Time),733502.6999999955,A,shor,O,r,179,1,9129.69999999553,724373.0,7798,WL,C,1.0
5,9.364000082015991,learn,60000.0,Wed May 06 2026 11:31:28 GMT-0500 (Central Daylight Time),733737.0,A,shore,O,e,229,1,9364.0,724373.0,7798,WL,C,1.0
5,10.829999923706055,learn,60000.0,Wed May 06 2026 11:31:28 GMT-0500 (Central Daylight Time),735203.3999999985,A,shoreenter,O,enter,1451,1,10830.39999999851,724373.0,7798,WL,C,1.0
5,11.814000129699707,learn,60000.0,Wed May 06 2026 11:31:28 GMT-0500 (Central Daylight Time),736186.6999999955,A,n,O,n,962,1,983.0,735203.6999999955,7798,WL,C,2.0
5,11.946000099182129,learn,60000.0,Wed May 06 2026 11:31:28 GMT-0500 (Central Daylight Time),736319.3999999985,A,na,O,a,112,1,1115.7000000029802,735203.6999999955,7798,WL,C,2.0
5,12.062999963760376,learn,60000.0,Wed May 06 2026 11:31:28 GMT-0500 (Central Daylight Time),736435.599999994,A,nai,O,i,106,1,1231.8999999985099,735203.6999999955,7798,WL,C,2.0
5,12.26200008392334,learn,60000.0,Wed May 06 2026 11:31:28 GMT-0500 (Central Daylight Time),736635.3999999985,A,nail,O,l,178,1,1431.7000000029802,735203.6999999955,7798,WL,C,2.0
5,12.878999948501587,learn,60000.0,Wed May 06 2026 11:31:28 GMT-0500 (Central Daylight Time),737252.099999994,A,nailenter,O,enter,600,1,2048.39999999851,735203.6999999955,7798,WL,C,2.0
5,13.678999900817871,learn,60000.0,Wed May 06 2026 11:31:28 GMT-0500 (Central Daylight Time),738051.8999999985,A,c,O,c,791,1,799.6000000014901,737252.299999997,7798,WL,C,3.0
5,13.829999923706055,learn,60000.0,Wed May 06 2026 11:31:28 GMT-0500 (Central Daylight Time),738202.6999999955,A,co,O,o,129,1,950.3999999985099,737252.299999997,7798,WL,C,3.0
5,14.09500002861023,learn,60000.0,Wed May 06 2026 11:31:28 GMT-0500 (Central Daylight Time),738467.6999999955,A,cor,O,r,247,1,1215.3999999985099,737252.299999997,7798,WL,C,3.0
5,14.278000116348267,learn,60000.0,Wed May 06 2026 11:31:28 GMT-0500 (Central Daylight Time),738651.5,A,corn,O,n,175,1,1399.2000000029802,737252.299999997,7798,WL,C,3.0
5,14.811000108718872,learn,60000.0,Wed May 06 2026 11:31:28 GMT-0500 (Central Daylight Time),739184.1999999955,A,cornenter,O,enter,518,1,1931.8999999985099,737252.299999997,7798,WL,C,3.0
5,15.295000076293945,learn,60000.0,Wed May 06 2026 11:31:28 GMT-0500 (Central Daylight Time),739668.1999999955,A,b,O,b,467,1,483.79999999701977,739184.3999999985,7798,WL,C,4.0
5,15.49399995803833,learn,60000.0,Wed May 06 2026 11:31:28 GMT-0500 (Central Daylight Time),739866.799999997,A,bo,O,o,189,1,682.3999999985099,739184.3999999985,7798,WL,C,4.0
5,15.67799997329712,learn,60000.0,Wed May 06 2026 11:31:28 GMT-0500 (Central Daylight Time),740051.299999997,A,bod,O,d,180,1,866.8999999985099,739184.3999999985,7798,WL,C,4.0
5,16.17899990081787,learn,60000.0,Wed May 06 2026 11:31:28 GMT-0500 (Central Daylight Time),740551.6999999955,A,body,O,y,489,1,1367.2999999970198,739184.3999999985,7798,WL,C,4.0
5,17.36299991607666,learn,60000.0,Wed May 06 2026 11:31:28 GMT-0500 (Central Daylight Time),741735.6999999955,A,bodyenter,O,enter,1169,1,2551.2999999970198,739184.3999999985,7798,WL,C,4.0
5,18.109999895095825,learn,60000.0,Wed May 06 2026 11:31:28 GMT-0500 (Central Daylight Time),742483.0,A,c,O,c,733,1,747.0,741736.0,7798,WL,C,5.0
5,18.861000061035156,learn,60000.0,Wed May 06 2026 11:31:28 GMT-0500 (Central Daylight Time),743233.6999999955,A,ct,O,t,729,1,1497.6999999955297,741736.0,7798,WL,C,5.0
5,20.176000118255615,learn,60000.0,Wed May 06 2026 11:31:28 GMT-0500 (Central Daylight Time),744549.599999994,A,c,O,backspace,1305,1,2813.5999999940395,741736.0,7798,WL,C,5.0
5,20.493000030517578,learn,60000.0,Wed May 06 2026 11:31:28 GMT-0500 (Central Daylight Time),744866.299999997,A,ca,O,a,301,1,3130.2999999970198,741736.0,7798,WL,C,5.0
5,21.05900001525879,learn,60000.0,Wed May 06 2026 11:31:28 GMT-0500 (Central Daylight Time),745431.799999997,A,cat,O,t,553,1,3695.7999999970198,741736.0,7798,WL,C,5.0
5,21.259999990463257,learn,60000.0,Wed May 06 2026 11:31:28 GMT-0500 (Central Daylight Time),745633.3999999985,A,catt,O,t,178,1,3897.39999999851,741736.0,7798,WL,C,5.0
5,21.55900001525879,learn,60000.0,Wed May 06 2026 11:31:28 GMT-0500 (Central Daylight Time),745932.299999997,A,catte,O,e,281,1,4196.29999999702,741736.0,7798,WL,C,5.0
5,22.22499990463257,learn,60000.0,Wed May 06 2026 11:31:28 GMT-0500 (Central Daylight Time),746598.0,A,catteenter,O,enter,653,1,4862.0,741736.0,7798,WL,C,5.0
5,23.575999975204468,learn,60000.0,Wed May 06 2026 11:31:28 GMT-0500 (Central Daylight Time),747949.299999997,A,e,O,e,1334,1,1351.1000000014901,746598.1999999955,7798,WL,C,6.0
5,24.02500009536743,learn,60000.0,Wed May 06 2026 11:31:28 GMT-0500 (Central Daylight Time),748397.6999999955,A,et,O,t,428,1,1799.5,746598.1999999955,7798,WL,C,6.0
5,24.66000008583069,learn,60000.0,Wed May 06 2026 11:31:28 GMT-0500 (Central Daylight Time),749032.5,A,ett,O,t,628,1,2434.3000000044703,746598.1999999955,7798,WL,C,6.0
5,25.10800004005432,learn,60000.0,Wed May 06 2026 11:31:28 GMT-0500 (Central Daylight Time),749481.0,A,ette,O,e,437,1,2882.8000000044703,746598.1999999955,7798,WL,C,6.0
5,26.556999921798706,learn,60000.0,Wed May 06 2026 11:31:28 GMT-0500 (Central Daylight Time),750930.3999999985,A,ett,O,backspace,1435,1,4332.20000000298,746598.1999999955,7798,WL,C,6.0
5,27.658999919891357,learn,60000.0,Wed May 06 2026 11:31:28 GMT-0500 (Central Daylight Time),752031.799999997,A,et,O,backspace,1083,1,5433.60000000149,746598.1999999955,7798,WL,C,6.0
5,27.907999992370605,learn,60000.0,Wed May 06 2026 11:31:28 GMT-0500 (Central Daylight Time),752280.6999999955,A,e,O,backspace,228,1,5682.5,746598.1999999955,7798,WL,C,6.0
5,28.16000008583069,learn,60000.0,Wed May 06 2026 11:31:28 GMT-0500 (Central Daylight Time),752532.799999997,A,,O,backspace,234,1,5934.60000000149,746598.1999999955,7798,WL,C,6.0
5,28.35800004005432,learn,60000.0,Wed May 06 2026 11:31:28 GMT-0500 (Central Daylight Time),752731.099999994,A,,O,backspace,178,1,6132.89999999851,746598.1999999955,7798,WL,C,6.0
5,29.140000104904175,learn,60000.0,Wed May 06 2026 11:31:28 GMT-0500 (Central Daylight Time),753513.0,A,l,O,l,769,1,6914.80000000447,746598.1999999955,7798,WL,C,6.0
5,29.407000064849854,learn,60000.0,Wed May 06 2026 11:31:28 GMT-0500 (Central Daylight Time),753780.299999997,A,le,O,e,251,1,7182.10000000149,746598.1999999955,7798,WL,C,6.0
5,29.822999954223633,learn,60000.0,Wed May 06 2026 11:31:28 GMT-0500 (Central Daylight Time),754196.6999999955,A,let,O,t,398,1,7598.5,746598.1999999955,7798,WL,C,6.0
5,30.006999969482422,learn,60000.0,Wed May 06 2026 11:31:28 GMT-0500 (Central Daylight Time),754379.599999994,A,lett,O,t,173,1,7781.39999999851,746598.1999999955,7798,WL,C,6.0
5,30.207000017166138,learn,60000.0,Wed May 06 2026 11:31:28 GMT-0500 (Central Daylight Time),754580.0,A,lette,O,e,191,1,7981.80000000447,746598.1999999955,7798,WL,C,6.0
5,30.44000005722046,learn,60000.0,Wed May 06 2026 11:31:28 GMT-0500 (Central Daylight Time),754813.3999999985,A,letter,O,r,222,1,8215.20000000298,746598.1999999955,7798,WL,C,6.0
5,30.789999961853027,learn,60000.0,Wed May 06 2026 11:31:28 GMT-0500 (Central Daylight Time),755162.599999994,A,letterenter,O,enter,336,1,8564.39999999851,746598.1999999955,7798,WL,C,6.0
5,32.140000104904175,learn,60000.0,Wed May 06 2026 11:31:28 GMT-0500 (Central Daylight Time),756513.099999994,A,q,O,q,1339,1,1350.1999999955297,755162.8999999985,7798,WL,C,7.0
5,32.65700006484985,learn,60000.0,Wed May 06 2026 11:31:28 GMT-0500 (Central Daylight Time),757030.299999997,A,qu,O,u,496,1,1867.3999999985099,755162.8999999985,7798,WL,C,7.0
5,33.00699996948242,learn,60000.0,Wed May 06 2026 11:31:28 GMT-0500 (Central Daylight Time),757380.1999999955,A,que,O,e,332,1,2217.2999999970198,755162.8999999985,7798,WL,C,7.0
5,34.92199993133545,learn,60000.0,Wed May 06 2026 11:31:28 GMT-0500 (Central Daylight Time),759295.0,A,quee,O,e,1896,1,4132.10000000149,755162.8999999985,7798,WL,C,7.0
5,35.15599989891052,learn,60000.0,Wed May 06 2026 11:31:28 GMT-0500 (Central Daylight Time),759528.799999997,A,queen,O,n,222,1,4365.89999999851,755162.8999999985,7798,WL,C,7.0
5,36.03699994087219,learn,60000.0,Wed May 06 2026 11:31:28 GMT-0500 (Central Daylight Time),760410.0,A,queenenter,O,enter,867,1,5247.10000000149,755162.8999999985,7798,WL,C,7.0
5,38.23799991607666,learn,60000.0,Wed May 06 2026 11:31:28 GMT-0500 (Central Daylight Time),762611.0,A,t,O,t,2196,1,2200.7000000029802,760410.299999997,7798,WL,C,8.0
5,38.38800001144409,learn,60000.0,Wed May 06 2026 11:31:28 GMT-0500 (Central Daylight Time),762761.0,A,to,O,o,130,1,2350.7000000029802,760410.299999997,7798,WL,C,8.0
5,38.48699998855591,learn,60000.0,Wed May 06 2026 11:31:28 GMT-0500 (Central Daylight Time),762860.299999997,A,tow,O,w,89,1,2450.0,760410.299999997,7798,WL,C,8.0
5,38.7039999961853,learn,60000.0,Wed May 06 2026 11:31:28 GMT-0500 (Central Daylight Time),763077.3999999985,A,towe,O,e,206,1,2667.10000000149,760410.299999997,7798,WL,C,8.0
5,38.9539999961853,learn,60000.0,Wed May 06 2026 11:31:28 GMT-0500 (Central Daylight Time),763327.299999997,A,tower,O,r,229,1,2917.0,760410.299999997,7798,WL,C,8.0
5,39.47099995613098,learn,60000.0,Wed May 06 2026 11:31:28 GMT-0500 (Central Daylight Time),763844.1999999955,A,towerenter,O,enter,500,1,3433.89999999851,760410.299999997,7798,WL,C,8.0
5,40.3199999332428,learn,60000.0,Wed May 06 2026 11:31:28 GMT-0500 (Central Daylight Time),764693.0,A,w,O,w,832,1,848.6000000014901,763844.3999999985,7798,WL,C,9.0
5,40.55299997329712,learn,60000.0,Wed May 06 2026 11:31:28 GMT-0500 (Central Daylight Time),764926.0,A,wh,O,h,220,1,1081.6000000014901,763844.3999999985,7798,WL,C,9.0
5,40.687000036239624,learn,60000.0,Wed May 06 2026 11:31:28 GMT-0500 (Central Daylight Time),765060.1999999955,A,whe,O,e,128,1,1215.7999999970198,763844.3999999985,7798,WL,C,9.0
5,40.97000002861023,learn,60000.0,Wed May 06 2026 11:31:28 GMT-0500 (Central Daylight Time),765343.099999994,A,whea,O,a,270,1,1498.6999999955297,763844.3999999985,7798,WL,C,9.0
5,41.604000091552734,learn,60000.0,Wed May 06 2026 11:31:28 GMT-0500 (Central Daylight Time),765976.8999999985,A,wheat,O,t,630,1,2132.5,763844.3999999985,7798,WL,C,9.0
5,42.68600010871887,learn,60000.0,Wed May 06 2026 11:31:28 GMT-0500 (Central Daylight Time),767058.8999999985,A,wheatenter,O,enter,1075,1,3214.5,763844.3999999985,7798,WL,C,9.0
5,53.18300008773804,learn,60000.0,Wed May 06 2026 11:31:28 GMT-0500 (Central Daylight Time),777555.799999997,A,b,O,b,10492,1,10496.70000000298,767059.099999994,7798,WL,C,10.0
5,53.31500005722046,learn,60000.0,Wed May 06 2026 11:31:28 GMT-0500 (Central Daylight Time),777688.5,A,bo,O,o,111,1,10629.40000000596,767059.099999994,7798,WL,C,10.0
5,53.615999937057495,learn,60000.0,Wed May 06 2026 11:31:28 GMT-0500 (Central Daylight Time),777988.799999997,A,bou,O,u,282,1,10929.70000000298,767059.099999994,7798,WL,C,10.0
5,55.717000007629395,learn,60000.0,Wed May 06 2026 11:31:28 GMT-0500 (Central Daylight Time),780089.799999997,A,bo,O,backspace,2088,1,13030.70000000298,767059.099999994,7798,WL,C,10.0
5,56.88599991798401,learn,60000.0,Wed May 06 2026 11:31:28 GMT-0500 (Central Daylight Time),781259.599999994,A,boy,O,y,1145,1,14200.5,767059.099999994,7798,WL,C,10.0
5,58.01300001144409,learn,60000.0,Wed May 06 2026 11:31:28 GMT-0500 (Central Daylight Time),782386.599999994,A,boyenter,O,enter,1120,1,15327.5,767059.099999994,7798,WL,C,10.0
5,62.3970000743866,learn,60000.0,Wed May 06 2026 11:31:28 GMT-0500 (Central Daylight Time),786770.099999994,A,n,O,n,4370,1,4383.29999999702,782386.799999997,7798,WL,C,11.0
6,3.4010000228881836,distr,56598.99997711182,Wed May 06 2026 11:31:28 GMT-0500 (Central Daylight Time),871011.5,B,f,O,f,3381,1,3400.7000000029802,867610.799999997,7798,WL,C,1.0
6,3.5310001373291016,distr,56468.9998626709,Wed May 06 2026 11:31:28 GMT-0500 (Central Daylight Time),871141.8999999985,B,fp,O,p,121,1,3531.10000000149,867610.799999997,7798,WL,C,1.0
6,3.9509999752044678,distr,56049.00002479553,Wed May 06 2026 11:31:28 GMT-0500 (Central Daylight Time),871561.6999999955,B,fpr,O,r,398,1,3950.89999999851,867610.799999997,7798,WL,C,1.0
6,4.230999946594238,distr,55769.00005340576,Wed May 06 2026 11:31:28 GMT-0500 (Central Daylight Time),871841.599999994,B,fpre,O,e,258,1,4230.79999999702,867610.799999997,7798,WL,C,1.0
6,4.515000104904175,distr,55484.999895095825,Wed May 06 2026 11:31:28 GMT-0500 (Central Daylight Time),872125.299999997,B,fpres,O,s,267,1,4514.5,867610.799999997,7798,WL,C,1.0
6,4.865000009536743,distr,55134.99999046326,Wed May 06 2026 11:31:28 GMT-0500 (Central Daylight Time),872475.599999994,B,fprest,O,t,334,1,4864.79999999702,867610.799999997,7798,WL,C,1.0
6,7.130000114440918,distr,52869.99988555908,Wed May 06 2026 11:31:28 GMT-0500 (Central Daylight Time),874741.0,B,fpres,O,backspace,2247,1,7130.20000000298,867610.799999997,7798,WL,C,1.0
6,7.398000001907349,distr,52601.99999809265,Wed May 06 2026 11:31:28 GMT-0500 (Central Daylight Time),875009.1999999955,B,fpre,O,backspace,254,1,7398.39999999851,867610.799999997,7798,WL,C,1.0
6,7.648000001907349,distr,52351.99999809265,Wed May 06 2026 11:31:28 GMT-0500 (Central Daylight Time),875258.8999999985,B,fpr,O,backspace,233,1,7648.10000000149,867610.799999997,7798,WL,C,1.0
6,7.849999904632568,distr,52150.00009536743,Wed May 06 2026 11:31:28 GMT-0500 (Central Daylight Time),875460.6999999955,B,fp,O,backspace,179,1,7849.89999999851,867610.799999997,7798,WL,C,1.0
6,8.065000057220459,distr,51934.99994277954,Wed May 06 2026 11:31:28 GMT-0500 (Central Daylight Time),875676.099999994,B,f,O,backspace,198,1,8065.29999999702,867610.799999997,7798,WL,C,1.0
6,8.29800009727478,distr,51701.99990272522,Wed May 06 2026 11:31:28 GMT-0500 (Central Daylight Time),875908.8999999985,B,,O,backspace,223,1,8298.10000000149,867610.799999997,7798,WL,C,1.0
6,8.52999997138977,distr,51470.00002861023,Wed May 06 2026 11:31:28 GMT-0500 (Central Daylight Time),876140.599999994,B,,O,backspace,222,1,8529.79999999702,867610.799999997,7798,WL,C,1.0
6,9.77999997138977,distr,50220.00002861023,Wed May 06 2026 11:31:28 GMT-0500 (Central Daylight Time),877390.5,B,f,O,f,1231,1,9779.70000000298,867610.799999997,7798,WL,C,1.0
6,10.04699993133545,distr,49953.00006866455,Wed May 06 2026 11:31:28 GMT-0500 (Central Daylight Time),877657.3999999985,B,fo,O,o,254,1,10046.60000000149,867610.799999997,7798,WL,C,1.0
6,10.229000091552734,distr,49770.999908447266,Wed May 06 2026 11:31:28 GMT-0500 (Central Daylight Time),877839.3999999985,B,for,O,r,176,1,10228.60000000149,867610.799999997,7798,WL,C,1.0
6,10.430999994277954,distr,49569.000005722046,Wed May 06 2026 11:31:28 GMT-0500 (Central Daylight Time),878041.599999994,B,fore,O,e,183,1,10430.79999999702,867610.799999997,7798,WL,C,1.0
6,10.696000099182129,distr,49303.99990081787,Wed May 06 2026 11:31:28 GMT-0500 (Central Daylight Time),878306.799999997,B,fores,O,s,246,1,10696.0,867610.799999997,7798,WL,C,1.0
6,11.015000104904175,distr,48984.999895095825,Wed May 06 2026 11:31:28 GMT-0500 (Central Daylight Time),878625.6999999955,B,forest,O,t,296,1,11014.89999999851,867610.799999997,7798,WL,C,1.0
6,12.345999956130981,distr,47654.00004386902,Wed May 06 2026 11:31:28 GMT-0500 (Central Daylight Time),879956.6999999955,B,forestenter,O,enter,1313,1,12345.89999999851,867610.799999997,7798,WL,C,1.0
6,14.76200008392334,distr,45237.99991607666,Wed May 06 2026 11:31:28 GMT-0500 (Central Daylight Time),882372.5,B,m,O,m,2399,1,2415.60000000149,879956.8999999985,7798,WL,C,2.0
6,14.979000091552734,distr,45020.999908447266,Wed May 06 2026 11:31:28 GMT-0500 (Central Daylight Time),882590.0,B,mo,O,o,195,1,2633.10000000149,879956.8999999985,7798,WL,C,2.0
6,15.194999933242798,distr,44805.0000667572,Wed May 06 2026 11:31:28 GMT-0500 (Central Daylight Time),882805.1999999955,B,mon,O,n,207,1,2848.2999999970198,879956.8999999985,7798,WL,C,2.0
6,15.463000059127808,distr,44536.99994087219,Wed May 06 2026 11:31:28 GMT-0500 (Central Daylight Time),883073.299999997,B,mone,O,e,256,1,3116.39999999851,879956.8999999985,7798,WL,C,2.0
6,15.878999948501587,distr,44121.00005149841,Wed May 06 2026 11:31:28 GMT-0500 (Central Daylight Time),883490.0,B,money,O,y,403,1,3533.10000000149,879956.8999999985,7798,WL,C,2.0
6,17.746000051498413,distr,42253.99994850159,Wed May 06 2026 11:31:28 GMT-0500 (Central Daylight Time),885356.3999999985,B,moneyenter,O,enter,1851,1,5399.5,879956.8999999985,7798,WL,C,2.0
6,51.43300008773804,distr,8566.999912261963,Wed May 06 2026 11:31:28 GMT-0500 (Central Daylight Time),919043.6999999955,B,v,O,v,33672,1,33687.0,885356.6999999955,7798,WL,C,3.0
6,51.66600012779236,distr,8333.999872207642,Wed May 06 2026 11:31:28 GMT-0500 (Central Daylight Time),919276.799999997,B,va,O,a,211,1,33920.10000000149,885356.6999999955,7798,WL,C,3.0
6,51.88300013542175,distr,8116.999864578247,Wed May 06 2026 11:31:28 GMT-0500 (Central Daylight Time),919494.1999999955,B,val,O,l,196,1,34137.5,885356.6999999955,7798,WL,C,3.0
6,52.09999990463257,distr,7900.000095367432,Wed May 06 2026 11:31:28 GMT-0500 (Central Daylight Time),919711.299999997,B,vall,O,l,205,1,34354.60000000149,885356.6999999955,7798,WL,C,3.0
6,52.348999977111816,distr,7651.000022888184,Wed May 06 2026 11:31:28 GMT-0500 (Central Daylight Time),919959.8999999985,B,valle,O,e,235,1,34603.20000000298,885356.6999999955,7798,WL,C,3.0
6,52.98300004005432,distr,7016.999959945679,Wed May 06 2026 11:31:28 GMT-0500 (Central Daylight Time),920593.6999999955,B,valley,O,y,611,1,35237.0,885356.6999999955,7798,WL,C,3.0
6,54.28200006484985,distr,5717.9999351501465,Wed May 06 2026 11:31:28 GMT-0500 (Central Daylight Time),921892.5,B,valleyenter,O,enter,1288,1,36535.80000000447,885356.6999999955,7798,WL,C,3.0
6,60.013999938964844,distr,-13.99993896484375,Wed May 06 2026 11:31:28 GMT-0500 (Central Daylight Time),927625.299999997,B,None,O,None,5728,1,5732.60000000149,921892.6999999955,7798,WL,C,4.0
7,1.4499998092651367,immed,58550.00019073486,Wed May 06 2026 11:31:28 GMT-0500 (Central Daylight Time),944852.1999999955,A,t,O,t,1441,1,1449.6999999955297,943402.5,7798,WL,C,1.0
7,1.6499998569488525,immed,58350.00014305115,Wed May 06 2026 11:31:28 GMT-0500 (Central Daylight Time),945052.099999994,A,to,O,o,192,1,1649.5999999940395,943402.5,7798,WL,C,1.0
7,1.75,immed,58250.0,Wed May 06 2026 11:31:28 GMT-0500 (Central Daylight Time),945152.1999999955,A,tow,O,w,76,1,1749.6999999955297,943402.5,7798,WL,C,1.0
7,4.098999977111816,immed,55901.00002288818,Wed May 06 2026 11:31:28 GMT-0500 (Central Daylight Time),947501.299999997,A,towe,O,e,2340,1,4098.79999999702,943402.5,7798,WL,C,1.0
7,4.365999937057495,immed,55634.000062942505,Wed May 06 2026 11:31:28 GMT-0500 (Central Daylight Time),947768.1999999955,A,tower,O,r,255,1,4365.69999999553,943402.5,7798,WL,C,1.0
7,4.866999864578247,immed,55133.00013542175,Wed May 06 2026 11:31:28 GMT-0500 (Central Daylight Time),948268.799999997,A,towerenter,O,enter,491,1,4866.29999999702,943402.5,7798,WL,C,1.0
7,6.081999778747559,immed,53918.00022125244,Wed May 06 2026 11:31:28 GMT-0500 (Central Daylight Time),949484.299999997,A,w,O,w,1198,1,1215.2999999970198,948269.0,7798,WL,C,2.0
7,6.31499981880188,immed,53685.00018119812,Wed May 06 2026 11:31:28 GMT-0500 (Central Daylight Time),949716.599999994,A,wh,O,h,216,1,1447.5999999940395,948269.0,7798,WL,C,2.0
7,6.4670000076293945,immed,53532.999992370605,Wed May 06 2026 11:31:28 GMT-0500 (Central Daylight Time),949868.799999997,A,whe,O,e,130,1,1599.7999999970198,948269.0,7798,WL,C,2.0
7,6.681999921798706,immed,53318.000078201294,Wed May 06 2026 11:31:28 GMT-0500 (Central Daylight Time),950084.099999994,A,whea,O,a,197,1,1815.0999999940395,948269.0,7798,WL,C,2.0
7,6.948999881744385,immed,53051.000118255615,Wed May 06 2026 11:31:28 GMT-0500 (Central Daylight Time),950350.599999994,A,wheat,O,t,255,1,2081.5999999940395,948269.0,7798,WL,C,2.0
7,8.414999961853027,immed,51585.00003814697,Wed May 06 2026 11:31:28 GMT-0500 (Central Daylight Time),951817.3999999985,A,wheatenter,O,enter,1445,1,3548.39999999851,948269.0,7798,WL,C,2.0
7,9.413999795913696,immed,50586.000204086304,Wed May 06 2026 11:31:28 GMT-0500 (Central Daylight Time),952815.6999999955,A,c,O,c,977,1,998.1000000014901,951817.599999994,7798,WL,C,3.0
7,9.563999891281128,immed,50436.00010871887,Wed May 06 2026 11:31:28 GMT-0500 (Central Daylight Time),952966.099999994,A,co,O,o,141,1,1148.5,951817.599999994,7798,WL,C,3.0
7,9.79699993133545,immed,50203.00006866455,Wed May 06 2026 11:31:28 GMT-0500 (Central Daylight Time),953198.6999999955,A,cor,O,r,212,1,1381.1000000014901,951817.599999994,7798,WL,C,3.0
7,10.1489999294281,immed,49851.0000705719,Wed May 06 2026 11:31:28 GMT-0500 (Central Daylight Time),953551.0,A,corn,O,n,345,1,1733.4000000059605,951817.599999994,7798,WL,C,3.0
7,10.914999961853027,immed,49085.00003814697,Wed May 06 2026 11:31:28 GMT-0500 (Central Daylight Time),954316.3999999985,A,cornenter,O,enter,755,1,2498.8000000044703,951817.599999994,7798,WL,C,3.0
7,12.629999876022339,immed,47370.00012397766,Wed May 06 2026 11:31:28 GMT-0500 (Central Daylight Time),956031.799999997,A,n,O,n,1703,1,1715.1000000014901,954316.6999999955,7798,WL,C,4.0
7,12.77999997138977,immed,47220.00002861023,Wed May 06 2026 11:31:28 GMT-0500 (Central Daylight Time),956182.099999994,A,na,O,a,140,1,1865.3999999985099,954316.6999999955,7798,WL,C,4.0
7,12.996999979019165,immed,47003.000020980835,Wed May 06 2026 11:31:28 GMT-0500 (Central Daylight Time),956398.5,A,nai,O,i,203,1,2081.8000000044703,954316.6999999955,7798,WL,C,4.0
7,13.312999963760376,immed,46687.000036239624,Wed May 06 2026 11:31:28 GMT-0500 (Central Daylight Time),956714.8999999985,A,nail,O,l,300,1,2398.2000000029802,954316.6999999955,7798,WL,C,4.0
7,13.962999820709229,immed,46037.00017929077,Wed May 06 2026 11:31:28 GMT-0500 (Central Daylight Time),957365.099999994,A,nailenter,O,enter,631,1,3048.39999999851,954316.6999999955,7798,WL,C,4.0
7,16.34599995613098,immed,43654.00004386902,Wed May 06 2026 11:31:28 GMT-0500 (Central Daylight Time),959748.3999999985,A,c,O,c,2362,1,2383.0,957365.3999999985,7798,WL,C,5.0
7,16.67899990081787,immed,43321.00009918213,Wed May 06 2026 11:31:28 GMT-0500 (Central Daylight Time),960081.0,A,ca,O,a,310,1,2715.60000000149,957365.3999999985,7798,WL,C,5.0
7,17.02899980545044,immed,42971.00019454956,Wed May 06 2026 11:31:28 GMT-0500 (Central Daylight Time),960431.099999994,A,cat,O,t,338,1,3065.6999999955297,957365.3999999985,7798,WL,C,5.0
7,17.229999780654907,immed,42770.00021934509,Wed May 06 2026 11:31:28 GMT-0500 (Central Daylight Time),960631.6999999955,A,catt,O,t,179,1,3266.2999999970198,957365.3999999985,7798,WL,C,5.0
7,17.411999940872192,immed,42588.00005912781,Wed May 06 2026 11:31:28 GMT-0500 (Central Daylight Time),960813.8999999985,A,cattl,O,l,171,1,3448.5,957365.3999999985,7798,WL,C,5.0
7,17.62999987602234,immed,42370.00012397766,Wed May 06 2026 11:31:28 GMT-0500 (Central Daylight Time),961032.0,A,cattle,O,e,197,1,3666.60000000149,957365.3999999985,7798,WL,C,5.0
7,18.80999994277954,immed,41190.00005722046,Wed May 06 2026 11:31:28 GMT-0500 (Central Daylight Time),962212.1999999955,A,cattleenter,O,enter,1172,1,4846.79999999702,957365.3999999985,7798,WL,C,5.0
7,24.79199981689453,immed,35208.00018310547,Wed May 06 2026 11:31:28 GMT-0500 (Central Daylight Time),968194.3999999985,A,w,O,w,5969,1,5982.0,962212.3999999985,7798,WL,C,6.0
7,25.042999982833862,immed,34957.00001716614,Wed May 06 2026 11:31:28 GMT-0500 (Central Daylight Time),968445.099999994,A,wh,O,h,232,1,6232.69999999553,962212.3999999985,7798,WL,C,6.0
7,25.209999799728394,immed,34790.00020027161,Wed May 06 2026 11:31:28 GMT-0500 (Central Daylight Time),968612.099999994,A,whe,O,e,163,1,6399.69999999553,962212.3999999985,7798,WL,C,6.0
7,25.442999839782715,immed,34557.000160217285,Wed May 06 2026 11:31:28 GMT-0500 (Central Daylight Time),968845.6999999955,A,whea,O,a,220,1,6633.29999999702,962212.3999999985,7798,WL,C,6.0
7,25.72599983215332,immed,34274.00016784668,Wed May 06 2026 11:31:28 GMT-0500 (Central Daylight Time),969128.1999999955,A,wheat,O,t,271,1,6915.79999999702,962212.3999999985,7798,WL,C,6.0
7,26.376999855041504,immed,33623.000144958496,Wed May 06 2026 11:31:28 GMT-0500 (Central Daylight Time),969779.1999999955,A,wheatenter,O,enter,634,1,7566.79999999702,962212.3999999985,7798,WL,C,6.0
7,38.67199993133545,immed,21328.00006866455,Wed May 06 2026 11:31:28 GMT-0500 (Central Daylight Time),982074.599999994,A,b,O,b,12276,1,12295.09999999404,969779.5,7798,WL,C,7.0
7,38.77199983596802,immed,21228.000164031982,Wed May 06 2026 11:31:28 GMT-0500 (Central Daylight Time),982173.8999999985,A,bo,O,o,79,1,12394.39999999851,969779.5,7798,WL,C,7.0
7,39.10599994659424,immed,20894.00005340576,Wed May 06 2026 11:31:28 GMT-0500 (Central Daylight Time),982509.099999994,A,boy,O,y,323,1,12729.59999999404,969779.5,7798,WL,C,7.0
7,39.638999938964844,immed,20361.000061035156,Wed May 06 2026 11:31:28 GMT-0500 (Central Daylight Time),983041.299999997,A,boyenter,O,enter,512,1,13261.79999999702,969779.5,7798,WL,C,7.0
7,60.014999866485596,immed,-14.999866485595703,Wed May 06 2026 11:31:28 GMT-0500 (Central Daylight Time),1003417.5,A,None,O,None,20370,1,20375.90000000596,983041.599999994,7798,WL,C,8.0
