acc_sum,block,block_c,condition,correct,correct_response,datetime,endtime,flanker,jitter,project,response,response_test_buffer_response,response_test_target_response,response_time,response_time_test_buffer_response,response_time_test_target_response,row_sel,session_number,start_end,starttime,subject_id,target,task,task_vers,time_test_buffer,time_test_buffer_response,time_test_constants,time_test_flanker,time_test_jitter,time_test_logger,time_test_target,time_test_target_response,time_test_variables,trial
0,prac,1,con,0,z,Thu Jul 10 2025 12:44:18 GMT-0400 (Eastern Daylight Time),206238.69999998808,rage,1000,I,None,,,1815,,,15,1,5074.4000000059605,201164.29999998212,9024,rage,AF,C,,,,,,,,,,1
1,prac,1,con,1,z,Thu Jul 10 2025 12:44:18 GMT-0400 (Eastern Daylight Time),209971.79999998212,elated,800,I,z,,,1626,,,9,1,3723.0,206248.79999998212,9024,elated,AF,C,,,,,,,,,,2
1,prac,1,inc,0,m,Thu Jul 10 2025 12:44:18 GMT-0400 (Eastern Daylight Time),213371.69999998808,hate,1100,I,z,,,984,,,4,1,3388.699999988079,209983.0,9024,film,AF,C,,,,,,,,,,3
2,prac,1,inc,1,m,Thu Jul 10 2025 12:44:18 GMT-0400 (Eastern Daylight Time),216188.40000000596,kind,900,I,m,,,600,,,2,1,2798.300000011921,213390.09999999404,9024,rock,AF,C,,,,,,,,,,4
2,prac,1,inc,0,m,Thu Jul 10 2025 12:44:18 GMT-0400 (Eastern Daylight Time),219538.29999998212,elated,900,I,z,,,1142,,,6,1,3340.5999999940395,216197.69999998808,9024,napkin,AF,C,,,,,,,,,,5
2,prac,1,inc,0,z,Thu Jul 10 2025 12:44:18 GMT-0400 (Eastern Daylight Time),222571.69999998808,window,1100,I,m,,,617,,,16,1,3019.9000000059605,219551.79999998212,9024,temper,AF,C,,,,,,,,,,6
2,prac,1,con,0,m,Thu Jul 10 2025 12:44:18 GMT-0400 (Eastern Daylight Time),225471.69999998808,remote,1000,I,z,,,594,,,7,1,2889.5,222582.19999998808,9024,remote,AF,C,,,,,,,,,,7
2,prac,1,inc,0,z,Thu Jul 10 2025 12:44:18 GMT-0400 (Eastern Daylight Time),228805.09999999404,napkin,1100,I,m,,,923,,,12,1,3323.800000011921,225481.29999998212,9024,friend,AF,C,,,,,,,,,,8
3,prac,1,con,1,m,Thu Jul 10 2025 12:44:18 GMT-0400 (Eastern Daylight Time),232121.69999998808,bell,1000,I,m,,,1002,,,3,1,3307.4000000059605,228814.29999998212,9024,bell,AF,C,,,,,,,,,,9
4,prac,1,inc,1,m,Thu Jul 10 2025 12:44:18 GMT-0400 (Eastern Daylight Time),235421.40000000596,brutal,1100,I,m,,,897,,,8,1,3287.800000011921,232133.59999999404,9024,window,AF,C,,,,,,,,,,10
5,prac,1,inc,1,z,Thu Jul 10 2025 12:44:18 GMT-0400 (Eastern Daylight Time),238421.69999998808,rock,900,I,z,,,789,,,10,1,2992.9000000059605,235428.79999998212,9024,kind,AF,C,,,,,,,,,,11
6,prac,1,con,1,m,Thu Jul 10 2025 12:44:18 GMT-0400 (Eastern Daylight Time),241338.09999999404,jacket,800,I,m,,,802,,,5,1,2906.5999999940395,238431.5,9024,jacket,AF,C,,,,,,,,,,12
6,prac,1,con,0,m,Thu Jul 10 2025 12:44:18 GMT-0400 (Eastern Daylight Time),244404.90000000596,step,800,I,z,,,958,,,1,1,3061.0,241343.90000000596,9024,step,AF,C,,,,,,,,,,13
7,prac,1,con,1,z,Thu Jul 10 2025 12:44:18 GMT-0400 (Eastern Daylight Time),247621.79999998212,brutal,800,I,z,,,1106,,,13,1,3208.2999999821186,244413.5,9024,brutal,AF,C,,,,,,,,,,14
8,prac,1,con,1,z,Thu Jul 10 2025 12:44:18 GMT-0400 (Eastern Daylight Time),250505.09999999404,love,1000,I,z,,,569,,,11,1,2873.300000011921,247631.79999998212,9024,love,AF,C,,,,,,,,,,15
9,prac,1,inc,1,z,Thu Jul 10 2025 12:44:18 GMT-0400 (Eastern Daylight Time),253505.09999999404,film,900,I,z,,,778,,,14,1,2983.9000000059605,250521.19999998808,9024,hate,AF,C,,,,,,,,,,16
1,prac,2,inc,1,z,Thu Jul 10 2025 12:44:18 GMT-0400 (Eastern Daylight Time),326305.09999999404,rock,900,I,z,,,812,,,10,1,3008.0,323297.09999999404,9024,kind,AF,C,,,,,,,,,,1
2,prac,2,con,1,z,Thu Jul 10 2025 12:44:18 GMT-0400 (Eastern Daylight Time),329154.7999999821,love,1000,I,z,,,542,,,11,1,2839.699999988079,326315.09999999404,9024,love,AF,C,,,,,,,,,,2
2,prac,2,con,0,m,Thu Jul 10 2025 12:44:18 GMT-0400 (Eastern Daylight Time),332021.40000000596,bell,1000,I,z,,,556,,,3,1,2860.2000000178814,329161.1999999881,9024,bell,AF,C,,,,,,,,,,3
2,prac,2,con,0,z,Thu Jul 10 2025 12:44:18 GMT-0400 (Eastern Daylight Time),334721.7999999821,brutal,800,I,m,,,594,,,13,1,2693.2999999821186,332028.5,9024,brutal,AF,C,,,,,,,,,,4
3,prac,2,con,1,z,Thu Jul 10 2025 12:44:18 GMT-0400 (Eastern Daylight Time),337505.09999999404,elated,800,I,z,,,677,,,9,1,2773.5999999940395,334731.5,9024,elated,AF,C,,,,,,,,,,5
4,prac,2,inc,1,m,Thu Jul 10 2025 12:44:18 GMT-0400 (Eastern Daylight Time),340421.5,kind,900,I,m,,,689,,,2,1,2901.2000000178814,337520.2999999821,9024,rock,AF,C,,,,,,,,,,6
5,prac,2,inc,1,m,Thu Jul 10 2025 12:44:18 GMT-0400 (Eastern Daylight Time),343388.1999999881,elated,900,I,m,,,749,,,6,1,2959.699999988079,340428.5,9024,napkin,AF,C,,,,,,,,,,7
6,prac,2,inc,1,z,Thu Jul 10 2025 12:44:18 GMT-0400 (Eastern Daylight Time),346255.1999999881,film,900,I,z,,,662,,,14,1,2862.0,343393.1999999881,9024,hate,AF,C,,,,,,,,,,8
6,prac,2,con,0,m,Thu Jul 10 2025 12:44:18 GMT-0400 (Eastern Daylight Time),349471.90000000596,step,800,I,z,,,1112,,,1,1,3207.600000023842,346264.2999999821,9024,step,AF,C,,,,,,,,,,9
7,prac,2,inc,1,z,Thu Jul 10 2025 12:44:18 GMT-0400 (Eastern Daylight Time),352604.6999999881,window,1100,I,z,,,731,,,16,1,3121.699999988079,349483.0,9024,temper,AF,C,,,,,,,,,,10
8,prac,2,con,1,z,Thu Jul 10 2025 12:44:18 GMT-0400 (Eastern Daylight Time),355955.09999999404,rage,1000,I,z,,,1042,,,15,1,3345.0999999940395,352610.0,9024,rage,AF,C,,,,,,,,,,11
9,prac,2,inc,1,z,Thu Jul 10 2025 12:44:18 GMT-0400 (Eastern Daylight Time),359071.6999999881,napkin,1100,I,z,,,713,,,12,1,3107.4000000059605,355964.2999999821,9024,friend,AF,C,,,,,,,,,,12
10,prac,2,inc,1,m,Thu Jul 10 2025 12:44:18 GMT-0400 (Eastern Daylight Time),362238.2999999821,brutal,1100,I,m,,,763,,,8,1,3156.5,359081.7999999821,9024,window,AF,C,,,,,,,,,,13
10,prac,2,con,0,m,Thu Jul 10 2025 12:44:18 GMT-0400 (Eastern Daylight Time),365471.7999999821,remote,1000,I,z,,,912,,,7,1,3217.5,362254.2999999821,9024,remote,AF,C,,,,,,,,,,14
11,prac,2,inc,1,m,Thu Jul 10 2025 12:44:18 GMT-0400 (Eastern Daylight Time),368738.40000000596,hate,1100,I,m,,,859,,,4,1,3258.0,365480.40000000596,9024,film,AF,C,,,,,,,,,,15
12,prac,2,con,1,m,Thu Jul 10 2025 12:44:18 GMT-0400 (Eastern Daylight Time),371588.6999999881,jacket,800,I,m,,,741,,,5,1,2835.699999988079,368753.0,9024,jacket,AF,C,,,,,,,,,,16
1,test,1,con,1,m,Thu Jul 10 2025 12:44:18 GMT-0400 (Eastern Daylight Time),392788.6999999881,jacket,1000,I,m,m,None,1460,1260.0,200.0,99,1,2995.199999988079,389793.5,9024,jacket,AF,C,387433,387433,385704,386717,385705,388700,387233,387233,388699,1
2,test,1,con,1,z,Thu Jul 10 2025 12:44:18 GMT-0400 (Eastern Daylight Time),394771.6999999881,friend,900,I,z,z,None,543,343.0,200.0,26,1,1969.4000000059605,392802.2999999821,9024,friend,AF,C,390333,390334,388713,389617,388714,390683,390133,390133,390683,2
3,test,1,inc,1,m,Thu Jul 10 2025 12:44:18 GMT-0400 (Eastern Daylight Time),397054.90000000596,friend,1100,I,m,m,None,631,432.0,199.0,128,1,2263.100000023842,394791.7999999821,9024,window,AF,C,392533,392533,390703,391817,390703,392966,392334,392334,392966,3
3,test,1,con,0,m,Thu Jul 10 2025 12:44:18 GMT-0400 (Eastern Daylight Time),399471.5,remote,900,I,z,z,None,980,780.0,200.0,114,1,2408.0,397063.5,9024,remote,AF,C,394600,394600,392975,393883,392975,395383,394399,394399,395382,4
4,test,1,inc,1,z,Thu Jul 10 2025 12:44:18 GMT-0400 (Eastern Daylight Time),401438.7999999821,step,800,I,z,z,None,631,432.0,199.0,21,1,1959.3999999761581,399479.40000000596,9024,love,AF,C,396917,396917,395390,396200,395391,397350,396717,396717,397350,5
5,test,1,con,1,z,Thu Jul 10 2025 12:44:18 GMT-0400 (Eastern Daylight Time),403655.1999999881,temper,800,I,z,z,None,856,657.0,199.0,57,1,2201.5999999940395,401453.59999999404,9024,temper,AF,C,398900,398900,397365,398183,397366,399566,398700,398700,399566,6
6,test,1,inc,1,m,Thu Jul 10 2025 12:44:18 GMT-0400 (Eastern Daylight Time),405738.40000000596,elated,800,I,m,m,None,736,537.0,199.0,117,1,2073.2000000178814,403665.1999999881,9024,remote,AF,C,401100,401100,399576,400383,399577,401649,400900,400900,401649,7
7,test,1,con,1,m,Thu Jul 10 2025 12:44:18 GMT-0400 (Eastern Daylight Time),408038.0,remote,1100,I,m,m,None,658,458.0,200.0,116,1,2290.800000011921,405747.1999999881,9024,remote,AF,C,403483,403483,401658,402766,401659,403949,403283,403283,403949,8
8,test,1,inc,1,z,Thu Jul 10 2025 12:44:18 GMT-0400 (Eastern Daylight Time),410271.59999999404,window,1100,I,z,z,None,598,398.0,200.0,32,1,2227.699999988079,408043.90000000596,9024,friend,AF,C,405783,405783,403955,405066,403955,406183,405583,405583,406183,9
8,test,1,con,0,z,Thu Jul 10 2025 12:44:18 GMT-0400 (Eastern Daylight Time),412471.5,elated,900,I,m,m,None,754,555.0,199.0,2,1,2190.9000000059605,410280.59999999404,9024,elated,AF,C,407817,407817,406192,407100,406192,408383,407617,407617,408383,10
8,test,1,inc,0,z,Thu Jul 10 2025 12:44:18 GMT-0400 (Eastern Daylight Time),414738.2999999821,napkin,900,I,m,m,None,826,627.0,199.0,6,1,2261.0,412477.2999999821,9024,elated,AF,C,410017,410017,408388,409300,408389,410649,409817,409817,410649,11
9,test,1,inc,1,z,Thu Jul 10 2025 12:44:18 GMT-0400 (Eastern Daylight Time),417138.1999999881,remote,1000,I,z,z,None,861,661.0,200.0,7,1,2394.4000000059605,414743.7999999821,9024,elated,AF,C,412383,412383,410655,411666,410655,413049,412183,412183,413049,12
10,test,1,con,1,z,Thu Jul 10 2025 12:44:18 GMT-0400 (Eastern Daylight Time),419755.09999999404,love,1100,I,z,z,None,970,770.0,200.0,20,1,2608.4000000059605,417146.6999999881,9024,love,AF,C,414883,414883,413058,414166,413058,415666,414683,414683,415666,13
11,test,1,con,1,m,Thu Jul 10 2025 12:44:18 GMT-0400 (Eastern Daylight Time),421904.6999999881,bell,800,I,m,m,None,811,612.0,199.0,81,1,2135.699999988079,419769.0,9024,bell,AF,C,417200,417200,415680,416483,415681,417816,417000,417000,417816,14
11,test,1,con,0,m,Thu Jul 10 2025 12:44:18 GMT-0400 (Eastern Daylight Time),424355.09999999404,film,800,I,z,z,None,1111,912.0,199.0,89,1,2445.4000000059605,421909.6999999881,9024,film,AF,C,419349,419349,417821,418633,417821,420266,419150,419150,420266,15
12,test,1,con,1,z,Thu Jul 10 2025 12:44:18 GMT-0400 (Eastern Daylight Time),426755.0,rage,900,I,z,z,None,961,761.0,200.0,50,1,2389.0999999940395,424365.90000000596,9024,rage,AF,C,421900,421900,420277,421183,420277,422666,421699,421699,422666,16
12,test,1,con,0,m,Thu Jul 10 2025 12:44:18 GMT-0400 (Eastern Daylight Time),428955.1999999881,step,1100,I,z,z,None,552,353.0,199.0,68,1,2185.699999988079,426769.5,9024,step,AF,C,424500,424500,422681,423783,422681,424866,424300,424300,424866,17
13,test,1,con,1,z,Thu Jul 10 2025 12:44:18 GMT-0400 (Eastern Daylight Time),430973.2999999821,rage,1000,I,z,z,None,499,300.0,199.0,51,1,2008.3999999761581,428964.90000000596,9024,rage,AF,C,426583,426584,424876,425883,424876,426884,426384,426384,426884,18
14,test,1,inc,1,m,Thu Jul 10 2025 12:44:18 GMT-0400 (Eastern Daylight Time),433204.90000000596,brutal,900,I,m,m,None,793,593.0,200.0,110,1,2226.4000000059605,430978.5,9024,napkin,AF,C,428516,428516,426890,427799,426890,429116,428316,428316,429116,19
15,test,1,inc,1,z,Thu Jul 10 2025 12:44:18 GMT-0400 (Eastern Daylight Time),435088.40000000596,jacket,800,I,z,z,None,546,346.0,200.0,29,1,1877.9000000059605,433210.5,9024,friend,AF,C,430651,430651,429122,429933,429122,430999,430449,430450,430999,20
16,test,1,con,1,m,Thu Jul 10 2025 12:44:18 GMT-0400 (Eastern Daylight Time),437421.2999999821,jacket,900,I,m,m,None,882,683.0,199.0,98,1,2323.899999976158,435097.40000000596,9024,jacket,AF,C,432633,432633,431008,431916,431009,433332,432433,432433,433332,21
17,test,1,inc,1,z,Thu Jul 10 2025 12:44:18 GMT-0400 (Eastern Daylight Time),439621.2999999821,rock,900,I,z,z,None,758,558.0,200.0,22,1,2194.399999976158,437426.90000000596,9024,love,AF,C,434966,434966,433338,434249,433338,435532,434766,434766,435532,22
18,test,1,inc,1,z,Thu Jul 10 2025 12:44:18 GMT-0400 (Eastern Daylight Time),442054.7999999821,jacket,800,I,z,z,None,1091,891.0,200.0,37,1,2428.399999976158,439626.40000000596,9024,brutal,AF,C,437066,437066,435537,436349,435538,437966,436866,436866,437966,23
19,test,1,con,1,m,Thu Jul 10 2025 12:44:18 GMT-0400 (Eastern Daylight Time),444105.0,jacket,800,I,m,m,None,703,504.0,199.0,97,1,2044.7000000178814,442060.2999999821,9024,jacket,AF,C,439500,439500,437971,438783,437972,440016,439300,439300,440016,24
20,test,1,con,1,z,Thu Jul 10 2025 12:44:18 GMT-0400 (Eastern Daylight Time),446105.09999999404,kind,900,I,z,z,None,554,355.0,199.0,10,1,1993.0999999940395,444112.0,9024,kind,AF,C,441650,441650,440023,440933,440023,442016,441450,441450,442016,25
21,test,1,con,1,z,Thu Jul 10 2025 12:44:18 GMT-0400 (Eastern Daylight Time),448221.59999999404,brutal,1000,I,z,z,None,566,367.0,199.0,35,1,2107.800000011921,446113.7999999821,9024,brutal,AF,C,443750,443750,442025,443033,442025,444133,443550,443550,444133,26
22,test,1,con,1,m,Thu Jul 10 2025 12:44:18 GMT-0400 (Eastern Daylight Time),450571.90000000596,window,1100,I,m,m,None,701,502.0,199.0,124,1,2345.100000023842,448226.7999999821,9024,window,AF,C,445967,445967,444138,445250,444138,446483,445767,445767,446483,27
22,test,1,con,0,m,Thu Jul 10 2025 12:44:18 GMT-0400 (Eastern Daylight Time),452438.59999999404,remote,800,I,z,z,None,507,307.0,200.0,113,1,1850.5999999940395,450588.0,9024,remote,AF,C,448034,448034,446499,447316,446500,448350,447833,447833,448350,28
23,test,1,con,1,m,Thu Jul 10 2025 12:44:18 GMT-0400 (Eastern Daylight Time),454721.6999999881,remote,1000,I,m,m,None,728,529.0,199.0,115,1,2267.0999999940395,452454.59999999404,9024,remote,AF,C,450100,450100,448366,449383,448366,450633,449900,449900,450633,29
23,test,1,con,0,m,Thu Jul 10 2025 12:44:18 GMT-0400 (Eastern Daylight Time),456938.40000000596,bell,1100,I,z,z,None,569,370.0,199.0,84,1,2207.2000000178814,454731.1999999881,9024,bell,AF,C,452466,452467,450642,451750,450643,452850,452267,452267,452849,30
24,test,1,con,1,z,Thu Jul 10 2025 12:44:18 GMT-0400 (Eastern Daylight Time),459038.0,love,900,I,z,z,None,665,465.0,200.0,18,1,2089.0999999940395,456948.90000000596,9024,love,AF,C,454483,454483,452860,453767,452860,454949,454283,454283,454949,31
24,test,1,con,0,m,Thu Jul 10 2025 12:44:18 GMT-0400 (Eastern Daylight Time),461171.7999999821,step,800,I,z,z,None,794,594.0,200.0,65,1,2125.899999976158,459045.90000000596,9024,step,AF,C,456483,456483,454957,455768,454957,457083,456283,456283,457083,32
25,test,1,inc,1,m,Thu Jul 10 2025 12:44:18 GMT-0400 (Eastern Daylight Time),463288.2999999821,brutal,900,I,m,m,None,671,472.0,199.0,102,1,2109.7999999821186,461178.5,9024,jacket,AF,C,458717,458717,457090,458000,457090,459199,458517,458517,459199,33
26,test,1,con,1,z,Thu Jul 10 2025 12:44:18 GMT-0400 (Eastern Daylight Time),465421.6999999881,friend,1100,I,z,z,None,483,284.0,199.0,28,1,2125.2999999821186,463296.40000000596,9024,friend,AF,C,461033,461033,459207,460317,459208,461333,460833,460833,461333,34
27,test,1,inc,1,m,Thu Jul 10 2025 12:44:18 GMT-0400 (Eastern Daylight Time),467738.09999999404,temper,1000,I,m,m,None,768,569.0,199.0,111,1,2303.9000000059605,465434.1999999881,9024,napkin,AF,C,463067,463067,461345,462350,461346,463649,462867,462867,463649,35
28,test,1,con,1,z,Thu Jul 10 2025 12:44:18 GMT-0400 (Eastern Daylight Time),470455.2999999821,kind,1000,I,z,z,None,1174,974.0,200.0,11,1,2710.899999976158,467744.40000000596,9024,kind,AF,C,465383,465383,463655,464666,463656,466366,465183,465183,466366,36
29,test,1,con,1,z,Thu Jul 10 2025 12:44:18 GMT-0400 (Eastern Daylight Time),472388.09999999404,brutal,800,I,z,z,None,591,392.0,199.0,33,1,1922.0999999940395,470466.0,9024,brutal,AF,C,467900,467900,466377,467183,466377,468299,467700,467700,468299,37
30,test,1,con,1,z,Thu Jul 10 2025 12:44:18 GMT-0400 (Eastern Daylight Time),474588.5,temper,1100,I,z,z,None,552,352.0,200.0,60,1,2193.9000000059605,472394.59999999404,9024,temper,AF,C,470133,470133,468306,469417,468306,470500,469933,469933,470499,38
30,test,1,inc,0,z,Thu Jul 10 2025 12:44:18 GMT-0400 (Eastern Daylight Time),477038.2999999821,window,1100,I,m,m,None,784,583.0,201.0,8,1,2434.2999999821186,474604.0,9024,elated,AF,C,472350,472350,470515,471633,470516,472950,472149,472149,472949,39
30,test,1,con,0,z,Thu Jul 10 2025 12:44:18 GMT-0400 (Eastern Daylight Time),479088.1999999881,elated,800,I,m,m,None,713,513.0,200.0,1,1,2040.4000000059605,477047.7999999821,9024,elated,AF,C,474483,474483,472959,473766,472959,474999,474283,474283,474999,40
31,test,1,inc,1,m,Thu Jul 10 2025 12:44:18 GMT-0400 (Eastern Daylight Time),481271.7999999821,elated,800,I,m,m,None,840,640.0,200.0,125,1,2178.0999999940395,479093.6999999881,9024,window,AF,C,476533,476533,475005,475817,475005,477183,476333,476333,477183,41
32,test,1,con,1,m,Thu Jul 10 2025 12:44:18 GMT-0400 (Eastern Daylight Time),483571.5,rock,800,I,m,m,None,959,759.0,200.0,73,1,2291.5,481280.0,9024,rock,AF,C,478717,478717,477191,478000,477191,479483,478516,478516,479483,42
33,test,1,inc,1,z,Thu Jul 10 2025 12:44:18 GMT-0400 (Eastern Daylight Time),485721.7999999821,rock,900,I,z,z,None,703,504.0,199.0,46,1,2142.0,483579.7999999821,9024,hate,AF,C,481117,481117,479491,480400,479491,481633,480917,480917,481633,43
34,test,1,inc,1,m,Thu Jul 10 2025 12:44:18 GMT-0400 (Eastern Daylight Time),488222.7999999821,friend,1100,I,m,m,None,867,667.0,200.0,120,1,2492.0,485730.7999999821,9024,remote,AF,C,483466,483466,481642,482750,481642,484134,483266,483266,484134,44
35,test,1,con,1,m,Thu Jul 10 2025 12:44:18 GMT-0400 (Eastern Daylight Time),490639.40000000596,napkin,1000,I,m,m,None,882,683.0,199.0,107,1,2409.600000023842,488229.7999999821,9024,napkin,AF,C,485866,485867,484141,485150,484141,486550,485667,485667,486550,45
36,test,1,inc,1,m,Thu Jul 10 2025 12:44:18 GMT-0400 (Eastern Daylight Time),493071.59999999404,kind,900,I,m,m,None,998,798.0,200.0,78,1,2424.800000011921,490646.7999999821,9024,rock,AF,C,488183,488183,486558,487466,486558,488983,487983,487983,488983,46
36,test,1,inc,0,m,Thu Jul 10 2025 12:44:18 GMT-0400 (Eastern Daylight Time),495755.1999999881,hate,1100,I,z,z,None,1036,836.0,200.0,72,1,2675.5999999940395,493079.59999999404,9024,step,AF,C,490817,490817,488991,490100,488991,491666,490616,490616,491666,47
37,test,1,inc,1,z,Thu Jul 10 2025 12:44:18 GMT-0400 (Eastern Daylight Time),498338.59999999404,remote,1000,I,z,z,None,1044,845.0,199.0,31,1,2574.199999988079,495764.40000000596,9024,friend,AF,C,493400,493400,491675,492683,491676,494250,493200,493200,494250,48
38,test,1,inc,1,z,Thu Jul 10 2025 12:44:18 GMT-0400 (Eastern Daylight Time),500871.90000000596,remote,1000,I,z,z,None,990,790.0,200.0,63,1,2522.7000000178814,498349.1999999881,9024,temper,AF,C,495983,495983,494260,495267,494261,496783,495783,495783,496783,49
39,test,1,inc,1,m,Thu Jul 10 2025 12:44:18 GMT-0400 (Eastern Daylight Time),503138.2999999821,temper,1000,I,m,m,None,727,528.0,199.0,119,1,2252.5,500885.7999999821,9024,remote,AF,C,498517,498517,496797,497800,496797,499049,498317,498317,499049,50
40,test,1,con,1,z,Thu Jul 10 2025 12:44:18 GMT-0400 (Eastern Daylight Time),505171.90000000596,rage,800,I,z,z,None,694,494.0,200.0,49,1,2026.0,503145.90000000596,9024,rage,AF,C,500583,500583,499057,499866,499057,501083,500383,500383,501083,51
41,test,1,inc,1,m,Thu Jul 10 2025 12:44:18 GMT-0400 (Eastern Daylight Time),507438.7999999821,temper,1000,I,m,m,None,731,532.0,199.0,127,1,2254.0,505184.7999999821,9024,window,AF,C,502817,502817,501096,502100,501097,503350,502617,502617,503350,52
42,test,1,inc,1,z,Thu Jul 10 2025 12:44:18 GMT-0400 (Eastern Daylight Time),510005.09999999404,rock,900,I,z,z,None,1126,926.0,200.0,14,1,2559.5,507445.59999999404,9024,kind,AF,C,504983,504983,503357,504267,503357,505916,504783,504783,505916,53
43,test,1,inc,1,z,Thu Jul 10 2025 12:44:18 GMT-0400 (Eastern Daylight Time),512255.40000000596,bell,1000,I,z,z,None,716,516.0,200.0,23,1,2242.100000023842,510013.2999999821,9024,love,AF,C,507650,507650,505924,506933,505925,508166,507450,507450,508166,54
44,test,1,con,1,z,Thu Jul 10 2025 12:44:18 GMT-0400 (Eastern Daylight Time),514721.90000000596,hate,1100,I,z,z,None,830,629.0,201.0,44,1,2460.4000000059605,512261.5,9024,hate,AF,C,510000,510000,508173,509283,508173,510633,509799,509799,510633,55
45,test,1,inc,1,z,Thu Jul 10 2025 12:44:18 GMT-0400 (Eastern Daylight Time),517071.59999999404,napkin,900,I,z,z,None,913,713.0,200.0,38,1,2340.9000000059605,514730.6999999881,9024,brutal,AF,C,512267,512267,510642,511550,510642,512983,512066,512066,512983,56
46,test,1,inc,1,z,Thu Jul 10 2025 12:44:18 GMT-0400 (Eastern Daylight Time),519405.2999999821,film,1100,I,z,z,None,683,484.0,199.0,16,1,2328.199999988079,517077.09999999404,9024,kind,AF,C,514817,514817,512988,514099,512988,515316,514617,514617,515316,57
47,test,1,con,1,z,Thu Jul 10 2025 12:44:18 GMT-0400 (Eastern Daylight Time),521688.5,brutal,1100,I,z,z,None,638,439.0,199.0,36,1,2273.9000000059605,519414.59999999404,9024,brutal,AF,C,517150,517150,515326,516433,515326,517600,516950,516950,517599,58
48,test,1,con,1,z,Thu Jul 10 2025 12:44:18 GMT-0400 (Eastern Daylight Time),524505.1999999881,elated,1100,I,z,z,None,1172,972.0,200.0,4,1,2808.9000000059605,521696.2999999821,9024,elated,AF,C,519433,519433,517607,518717,517608,520416,519233,519233,520416,59
49,test,1,inc,1,m,Thu Jul 10 2025 12:44:18 GMT-0400 (Eastern Daylight Time),527221.6999999881,kind,900,I,m,m,None,1272,1057.0,215.0,86,1,2706.699999988079,524515.0,9024,bell,AF,C,522067,522067,520426,521333,520426,523133,521851,521851,523133,60
50,test,1,con,1,z,Thu Jul 10 2025 12:44:18 GMT-0400 (Eastern Daylight Time),529471.5,hate,1000,I,z,z,None,712,513.0,199.0,43,1,2235.300000011921,527236.1999999881,9024,hate,AF,C,524867,524867,523147,524149,523148,525383,524666,524667,525383,61
51,test,1,inc,1,m,Thu Jul 10 2025 12:44:18 GMT-0400 (Eastern Daylight Time),531772.0,kind,900,I,m,m,None,852,653.0,199.0,94,1,2295.0,529477.0,9024,film,AF,C,527016,527016,525388,526299,525388,527683,526817,526817,527683,62
51,test,1,inc,0,m,Thu Jul 10 2025 12:44:18 GMT-0400 (Eastern Daylight Time),534088.5,rage,800,I,z,z,None,972,772.0,200.0,69,1,2308.0,531780.5,9024,step,AF,C,529217,529217,527692,528500,527692,530000,529016,529016,529999,63
51,test,1,inc,0,m,Thu Jul 10 2025 12:44:18 GMT-0400 (Eastern Daylight Time),536288.5,love,1000,I,z,z,None,663,463.0,200.0,71,1,2192.4000000059605,534096.099999994,9024,step,AF,C,531734,531734,530007,531016,530007,532200,531533,531533,532199,64
51,test,1,inc,0,m,Thu Jul 10 2025 12:44:18 GMT-0400 (Eastern Daylight Time),538404.900000006,kind,900,I,z,z,None,676,476.0,200.0,70,1,2108.2000000178814,536296.6999999881,9024,step,AF,C,533833,533833,532208,533116,532208,534316,533633,533633,534316,65
52,test,1,con,1,m,Thu Jul 10 2025 12:44:18 GMT-0400 (Eastern Daylight Time),540438.599999994,napkin,800,I,m,m,None,690,491.0,199.0,105,1,2028.5999999940395,538410.0,9024,napkin,AF,C,535850,535850,534321,535133,534321,536350,535650,535650,536350,66
52,test,1,con,0,m,Thu Jul 10 2025 12:44:18 GMT-0400 (Eastern Daylight Time),542571.6999999881,film,900,I,z,z,None,686,486.0,200.0,90,1,2123.9000000059605,540447.7999999821,9024,film,AF,C,537983,537983,536359,537267,536359,538483,537783,537783,538483,67
53,test,1,con,1,m,Thu Jul 10 2025 12:44:18 GMT-0400 (Eastern Daylight Time),544555.1999999881,window,800,I,m,m,None,634,435.0,199.0,121,1,1976.4000000059605,542578.7999999821,9024,window,AF,C,540017,540017,538490,539300,538490,540466,539817,539817,540466,68
54,test,1,inc,1,z,Thu Jul 10 2025 12:44:18 GMT-0400 (Eastern Daylight Time),546755.099999994,rock,900,I,z,z,None,760,561.0,199.0,54,1,2185.800000011921,544569.2999999821,9024,rage,AF,C,542100,542100,540480,541383,540481,542666,541900,541900,542666,69
55,test,1,con,1,z,Thu Jul 10 2025 12:44:18 GMT-0400 (Eastern Daylight Time),549004.900000006,friend,1000,I,z,z,None,700,500.0,200.0,27,1,2239.800000011921,546765.099999994,9024,friend,AF,C,544400,544400,542676,543683,542677,544916,544200,544200,544916,70
56,test,1,con,1,z,Thu Jul 10 2025 12:44:18 GMT-0400 (Eastern Daylight Time),551438.5,kind,1100,I,z,z,None,783,583.0,200.0,12,1,2426.0999999940395,549012.400000006,9024,kind,AF,C,546750,546750,544923,546033,544924,547350,546550,546550,547350,71
57,test,1,con,1,m,Thu Jul 10 2025 12:44:18 GMT-0400 (Eastern Daylight Time),553938.6999999881,rock,1000,I,m,m,None,962,762.0,200.0,75,1,2492.9000000059605,551445.7999999821,9024,rock,AF,C,549083,549083,547357,548367,547357,549850,548883,548883,549850,72
58,test,1,inc,1,z,Thu Jul 10 2025 12:44:18 GMT-0400 (Eastern Daylight Time),556238.7999999821,jacket,800,I,z,z,None,965,765.0,200.0,61,1,2289.7999999821186,553949.0,9024,temper,AF,C,551383,551384,549860,550667,549860,552150,551183,551183,552150,73
59,test,1,inc,1,z,Thu Jul 10 2025 12:44:18 GMT-0400 (Eastern Daylight Time),558222.0,napkin,900,I,z,z,None,534,334.0,200.0,30,1,1976.5,556245.5,9024,friend,AF,C,553783,553783,552157,553066,552157,554133,553583,553583,554133,74
60,test,1,inc,1,m,Thu Jul 10 2025 12:44:18 GMT-0400 (Eastern Daylight Time),560721.5,love,1000,I,m,m,None,944,744.0,200.0,87,1,2484.300000011921,558237.1999999881,9024,bell,AF,C,555883,555884,554148,555167,554149,556633,555683,555683,556633,75
61,test,1,inc,1,z,Thu Jul 10 2025 12:44:18 GMT-0400 (Eastern Daylight Time),562771.7999999821,step,800,I,z,z,None,710,511.0,199.0,53,1,2042.8999999761581,560728.900000006,9024,rage,AF,C,558166,558166,556640,557450,556640,558683,557967,557967,558683,76
62,test,1,con,1,z,Thu Jul 10 2025 12:44:18 GMT-0400 (Eastern Daylight Time),564988.2999999821,love,1000,I,z,z,None,669,469.0,200.0,19,1,2202.7999999821186,562785.5,9024,love,AF,C,560416,560416,558696,559700,558697,560899,560216,560216,560899,77
63,test,1,inc,1,m,Thu Jul 10 2025 12:44:18 GMT-0400 (Eastern Daylight Time),567405.400000006,hate,1100,I,m,m,None,767,567.0,200.0,88,1,2412.300000011921,564993.099999994,9024,bell,AF,C,562734,562734,560904,562016,560904,563316,562533,562533,563316,78
64,test,1,inc,1,m,Thu Jul 10 2025 12:44:18 GMT-0400 (Eastern Daylight Time),569621.7999999821,brutal,900,I,m,m,None,776,576.0,200.0,126,1,2202.5,567419.2999999821,9024,window,AF,C,564950,564950,563330,564234,563331,565533,564750,564750,565533,79
65,test,1,con,1,m,Thu Jul 10 2025 12:44:18 GMT-0400 (Eastern Daylight Time),572155.2999999821,window,1000,I,m,m,None,985,786.0,199.0,123,1,2521.0999999940395,569634.1999999881,9024,window,AF,C,567267,567267,565545,566550,565546,568066,567067,567067,568066,80
66,test,1,inc,1,z,Thu Jul 10 2025 12:44:18 GMT-0400 (Eastern Daylight Time),574721.900000006,bell,1000,I,z,z,None,1029,829.0,200.0,55,1,2556.800000011921,572165.099999994,9024,rage,AF,C,569800,569800,568076,569083,568076,570633,569600,569600,570633,81
67,test,1,inc,1,m,Thu Jul 10 2025 12:44:18 GMT-0400 (Eastern Daylight Time),576938.599999994,temper,1000,I,m,m,None,669,470.0,199.0,103,1,2207.199999988079,574731.400000006,9024,jacket,AF,C,572367,572367,570642,571650,570643,572850,572167,572167,572850,82
68,test,1,con,1,z,Thu Jul 10 2025 12:44:18 GMT-0400 (Eastern Daylight Time),578821.900000006,love,800,I,z,z,None,526,325.0,201.0,17,1,1867.7000000178814,576954.1999999881,9024,love,AF,C,574400,574400,572865,573683,572867,574733,574199,574199,574733,83
69,test,1,con,1,m,Thu Jul 10 2025 12:44:18 GMT-0400 (Eastern Daylight Time),580938.599999994,window,900,I,m,m,None,669,470.0,199.0,122,1,2107.5999999940395,578831.0,9024,window,AF,C,576367,576367,574742,575650,574742,576850,576167,576167,576850,84
70,test,1,inc,1,z,Thu Jul 10 2025 12:44:18 GMT-0400 (Eastern Daylight Time),582972.0,napkin,900,I,z,z,None,569,369.0,200.0,62,1,2017.9000000059605,580954.099999994,9024,temper,AF,C,578500,578500,576865,577783,576866,578883,578300,578300,578883,85
71,test,1,inc,1,z,Thu Jul 10 2025 12:44:18 GMT-0400 (Eastern Daylight Time),585355.0,film,1100,I,z,z,None,734,535.0,199.0,56,1,2375.2000000178814,582979.7999999821,9024,rage,AF,C,580717,580717,578891,580000,578891,581266,580517,580517,581266,86
72,test,1,con,1,m,Thu Jul 10 2025 12:44:18 GMT-0400 (Eastern Daylight Time),587638.599999994,jacket,1100,I,m,m,None,640,441.0,199.0,100,1,2278.300000011921,585360.2999999821,9024,jacket,AF,C,583100,583100,581271,582383,581272,583550,582900,582900,583550,87
73,test,1,con,1,z,Thu Jul 10 2025 12:44:18 GMT-0400 (Eastern Daylight Time),591121.900000006,rage,1100,I,z,z,None,1846,1646.0,200.0,52,1,3468.600000023842,587653.2999999821,9024,rage,AF,C,585383,585383,583564,584667,583565,587033,585183,585183,587033,88
74,test,1,inc,1,z,Thu Jul 10 2025 12:44:18 GMT-0400 (Eastern Daylight Time),593705.099999994,remote,1000,I,z,z,None,1037,838.0,199.0,39,1,2575.199999988079,591129.900000006,9024,brutal,AF,C,588766,588766,587041,588050,587041,589616,588567,588567,589616,89
74,test,1,inc,0,m,Thu Jul 10 2025 12:44:18 GMT-0400 (Eastern Daylight Time),596421.900000006,rage,800,I,z,z,None,1374,1175.0,199.0,85,1,2703.5,593718.400000006,9024,bell,AF,C,591150,591150,589629,590433,589630,592333,590949,590950,592333,90
74,test,1,con,0,m,Thu Jul 10 2025 12:44:18 GMT-0400 (Eastern Daylight Time),598638.6999999881,step,900,I,z,z,None,768,567.0,201.0,66,1,2209.0999999940395,596429.599999994,9024,step,AF,C,593967,593967,592341,593250,592341,594550,593766,593766,594550,91
75,test,1,con,1,m,Thu Jul 10 2025 12:44:18 GMT-0400 (Eastern Daylight Time),601038.900000006,rock,900,I,m,m,None,966,766.0,200.0,74,1,2392.100000023842,598646.7999999821,9024,rock,AF,C,596183,596183,594558,595467,594558,596950,595983,595983,596950,92
76,test,1,inc,1,m,Thu Jul 10 2025 12:44:18 GMT-0400 (Eastern Daylight Time),603205.2999999821,elated,800,I,m,m,None,825,625.0,200.0,109,1,2158.7999999821186,601046.5,9024,napkin,AF,C,598484,598484,596958,597767,596958,599116,598283,598283,599116,93
77,test,1,con,1,z,Thu Jul 10 2025 12:44:18 GMT-0400 (Eastern Daylight Time),605221.6999999881,hate,800,I,z,z,None,656,457.0,199.0,41,1,2000.199999988079,603221.5,9024,hate,AF,C,600667,600667,599132,599950,599133,601133,600467,600467,601133,94
78,test,1,con,1,m,Thu Jul 10 2025 12:44:18 GMT-0400 (Eastern Daylight Time),607455.0,napkin,900,I,m,m,None,797,598.0,199.0,106,1,2227.4000000059605,605227.599999994,9024,napkin,AF,C,602767,602767,601139,602050,601139,603366,602567,602567,603366,95
79,test,1,con,1,z,Thu Jul 10 2025 12:44:18 GMT-0400 (Eastern Daylight Time),609321.900000006,friend,800,I,z,z,None,521,321.0,200.0,25,1,1854.0,607467.900000006,9024,friend,AF,C,604900,604900,603379,604183,603380,605233,604700,604700,605233,96
80,test,1,inc,1,m,Thu Jul 10 2025 12:44:18 GMT-0400 (Eastern Daylight Time),611355.0,elated,800,I,m,m,None,685,486.0,199.0,101,1,2022.2000000178814,609332.7999999821,9024,jacket,AF,C,606767,606767,605244,606050,605244,607266,606567,606567,607266,97
81,test,1,inc,1,z,Thu Jul 10 2025 12:44:18 GMT-0400 (Eastern Daylight Time),613439.2999999821,step,800,I,z,z,None,749,550.0,199.0,13,1,2075.5,611363.7999999821,9024,kind,AF,C,608800,608800,607275,608083,607275,609350,608600,608600,609350,98
82,test,1,inc,1,m,Thu Jul 10 2025 12:44:18 GMT-0400 (Eastern Daylight Time),615905.1999999881,love,1000,I,m,m,None,913,713.0,200.0,95,1,2451.0999999940395,613454.099999994,9024,film,AF,C,611100,611100,609365,610383,609366,611816,610900,610900,611816,99
83,test,1,inc,1,m,Thu Jul 10 2025 12:44:18 GMT-0400 (Eastern Daylight Time),618638.099999994,hate,1100,I,m,m,None,1098,899.0,199.0,80,1,2723.5999999940395,615914.5,9024,rock,AF,C,613649,613649,611826,612933,611826,614549,613450,613450,614549,100
84,test,1,inc,1,z,Thu Jul 10 2025 12:44:18 GMT-0400 (Eastern Daylight Time),620788.599999994,bell,1000,I,z,z,None,609,409.0,200.0,47,1,2144.5999999940395,618644.0,9024,hate,AF,C,616284,616284,614555,615567,614555,616700,616083,616083,616700,101
85,test,1,inc,1,m,Thu Jul 10 2025 12:44:18 GMT-0400 (Eastern Daylight Time),623055.0,friend,1100,I,m,m,None,632,432.0,200.0,112,1,2256.300000011921,620798.6999999881,9024,napkin,AF,C,618533,618533,616710,617816,616710,618966,618333,618333,618966,102
86,test,1,inc,1,m,Thu Jul 10 2025 12:44:18 GMT-0400 (Eastern Daylight Time),625638.2999999821,friend,1100,I,m,m,None,942,742.0,200.0,104,1,2574.5,623063.7999999821,9024,jacket,AF,C,620800,620800,618975,620083,618975,621549,620600,620600,621549,103
87,test,1,con,1,z,Thu Jul 10 2025 12:44:18 GMT-0400 (Eastern Daylight Time),628238.5,temper,1000,I,z,z,None,1050,850.0,200.0,59,1,2594.9000000059605,625643.599999994,9024,temper,AF,C,623283,623283,621555,622567,621555,624150,623083,623083,624150,104
88,test,1,con,1,m,Thu Jul 10 2025 12:44:18 GMT-0400 (Eastern Daylight Time),630555.2999999821,bell,1000,I,m,m,None,770,570.0,200.0,83,1,2305.0999999940395,628250.1999999881,9024,bell,AF,C,625883,625883,624161,625167,624162,626466,625683,625683,626466,105
88,test,1,con,0,m,Thu Jul 10 2025 12:44:18 GMT-0400 (Eastern Daylight Time),633021.900000006,step,1000,I,z,z,None,917,717.0,200.0,67,1,2453.2000000178814,630568.6999999881,9024,step,AF,C,628200,628200,626480,627483,626480,628933,628000,628000,628933,106
89,test,1,inc,1,z,Thu Jul 10 2025 12:44:18 GMT-0400 (Eastern Daylight Time),635421.900000006,film,1100,I,z,z,None,750,550.0,200.0,48,1,2390.800000011921,633031.099999994,9024,hate,AF,C,630767,630767,628942,630050,628942,631333,630566,630566,631333,107
90,test,1,inc,1,z,Thu Jul 10 2025 12:44:18 GMT-0400 (Eastern Daylight Time),638055.2999999821,window,1100,I,z,z,None,989,790.0,199.0,40,1,2624.699999988079,635430.599999994,9024,brutal,AF,C,633167,633167,631342,632450,631342,633966,632967,632967,633966,108
91,test,1,inc,1,m,Thu Jul 10 2025 12:44:18 GMT-0400 (Eastern Daylight Time),640622.0,hate,1100,I,m,m,None,917,717.0,200.0,96,1,2558.2000000178814,638063.7999999821,9024,film,AF,C,635800,635800,633975,635083,633975,636533,635600,635600,636533,109
92,test,1,inc,1,z,Thu Jul 10 2025 12:44:18 GMT-0400 (Eastern Daylight Time),642971.599999994,bell,1000,I,z,z,None,800,601.0,199.0,15,1,2340.800000011921,640630.7999999821,9024,kind,AF,C,638266,638267,636542,637550,636542,638883,638067,638067,638883,110
93,test,1,con,1,m,Thu Jul 10 2025 12:44:18 GMT-0400 (Eastern Daylight Time),645238.5,film,1000,I,m,m,None,723,524.0,199.0,91,1,2259.0,642979.5,9024,film,AF,C,640617,640617,638891,639900,638891,641150,640417,640417,641150,111
94,test,1,inc,1,z,Thu Jul 10 2025 12:44:18 GMT-0400 (Eastern Daylight Time),647554.900000006,window,1100,I,z,z,None,678,478.0,200.0,64,1,2307.7000000178814,645247.1999999881,9024,temper,AF,C,642983,642983,641158,642267,641158,643466,642783,642783,643466,112
95,test,1,inc,1,z,Thu Jul 10 2025 12:44:18 GMT-0400 (Eastern Daylight Time),649638.2999999821,step,800,I,z,z,None,741,541.0,200.0,45,1,2077.0,647561.2999999821,9024,hate,AF,C,645000,645000,643472,644283,643473,645549,644800,644800,645549,113
96,test,1,con,1,m,Thu Jul 10 2025 12:44:18 GMT-0400 (Eastern Daylight Time),651905.2999999821,bell,900,I,m,m,None,830,630.0,200.0,82,1,2254.7999999821186,649650.5,9024,bell,AF,C,647183,647183,645562,646467,645562,647816,646983,646983,647816,114
97,test,1,inc,1,m,Thu Jul 10 2025 12:44:18 GMT-0400 (Eastern Daylight Time),654855.1999999881,brutal,900,I,m,m,None,1507,1307.0,200.0,118,1,2935.199999988079,651920.0,9024,remote,AF,C,649450,649450,647831,648733,647832,650766,649250,649250,650766,115
98,test,1,inc,1,z,Thu Jul 10 2025 12:44:18 GMT-0400 (Eastern Daylight Time),656971.7999999821,film,1100,I,z,z,None,468,269.0,199.0,24,1,2106.899999976158,654864.900000006,9024,love,AF,C,652600,652600,650776,651883,650776,652883,652400,652400,652883,116
99,test,1,con,1,m,Thu Jul 10 2025 12:44:18 GMT-0400 (Eastern Daylight Time),659538.5,rock,1100,I,m,m,None,927,728.0,199.0,76,1,2558.2000000178814,656980.2999999821,9024,rock,AF,C,654717,654717,652891,654000,652892,655450,654517,654517,655449,117
100,test,1,inc,1,m,Thu Jul 10 2025 12:44:18 GMT-0400 (Eastern Daylight Time),661788.6999999881,rage,800,I,m,m,None,902,702.0,200.0,93,1,2237.5999999940395,659551.099999994,9024,film,AF,C,656983,656983,655462,656267,655462,657700,656783,656783,657700,118
101,test,1,inc,1,m,Thu Jul 10 2025 12:44:18 GMT-0400 (Eastern Daylight Time),664239.1999999881,love,1000,I,m,m,None,916,716.0,200.0,79,1,2440.2999999821186,661798.900000006,9024,rock,AF,C,659433,659433,657710,658717,657710,660150,659233,659233,660150,119
102,test,1,con,1,z,Thu Jul 10 2025 12:44:18 GMT-0400 (Eastern Daylight Time),666338.5,temper,900,I,z,z,None,660,461.0,199.0,58,1,2091.800000011921,664246.6999999881,9024,temper,AF,C,661783,661784,660158,661067,660158,662250,661584,661584,662250,120
103,test,1,inc,1,z,Thu Jul 10 2025 12:44:18 GMT-0400 (Eastern Daylight Time),668438.7999999821,jacket,800,I,z,z,None,758,558.0,200.0,5,1,2088.899999976158,666349.900000006,9024,elated,AF,C,663783,663783,662261,663067,662261,664350,663583,663583,664350,121
104,test,1,con,1,z,Thu Jul 10 2025 12:44:18 GMT-0400 (Eastern Daylight Time),670621.900000006,elated,1000,I,z,z,None,634,434.0,200.0,3,1,2170.4000000059605,668451.5,9024,elated,AF,C,666083,666083,664363,665366,664363,666533,665883,665883,666533,122
105,test,1,con,1,z,Thu Jul 10 2025 12:44:18 GMT-0400 (Eastern Daylight Time),672505.400000006,kind,800,I,z,z,None,538,339.0,199.0,9,1,1875.9000000059605,670629.5,9024,kind,AF,C,668067,668067,666540,667350,666541,668417,667867,667867,668416,123
106,test,1,con,1,m,Thu Jul 10 2025 12:44:18 GMT-0400 (Eastern Daylight Time),674955.2999999821,film,1100,I,m,m,None,803,603.0,200.0,92,1,2441.0,672514.2999999821,9024,film,AF,C,670250,670250,668425,669533,668426,670866,670050,670050,670866,124
107,test,1,inc,1,m,Thu Jul 10 2025 12:44:18 GMT-0400 (Eastern Daylight Time),677471.599999994,rage,800,I,m,m,None,1180,980.0,200.0,77,1,2507.0999999940395,674964.5,9024,rock,AF,C,672400,672400,670876,671683,670876,673383,672200,672200,673383,125
108,test,1,con,1,z,Thu Jul 10 2025 12:44:18 GMT-0400 (Eastern Daylight Time),679488.5,brutal,900,I,z,z,None,579,380.0,199.0,34,1,2009.9000000059605,677478.599999994,9024,brutal,AF,C,675017,675017,673390,674300,673390,675400,674817,674817,675399,126
109,test,1,con,1,z,Thu Jul 10 2025 12:44:18 GMT-0400 (Eastern Daylight Time),681522.0,hate,900,I,z,z,None,596,396.0,200.0,42,1,2025.2000000178814,679496.7999999821,9024,hate,AF,C,677033,677033,675408,676317,675408,677433,676833,676833,677433,127
110,test,1,con,1,m,Thu Jul 10 2025 12:44:18 GMT-0400 (Eastern Daylight Time),683988.6999999881,napkin,1100,I,m,m,None,825,626.0,199.0,108,1,2456.0,681532.6999999881,9024,napkin,AF,C,679267,679267,677444,678550,677444,679900,679067,679067,679900,128
