block_c,block_dur,condition,countdown,datetime,endtime,list,multichar_response,project,response,response_time,session_number,start_end,starttime,subject_id,task,task_vers,trial
,,,,Mon Dec 15 2025 09:12:19 GMT-0600 (Central Standard Time),,,,I,space,425,2,,,8065,WL,B,
prac,,0,,Mon Dec 15 2025 09:12:19 GMT-0600 (Central Standard Time),,NA,b,I,b,4045,2,,,8065,WL,B,1.0
prac,,0,,Mon Dec 15 2025 09:12:19 GMT-0600 (Central Standard Time),,NA,bo,I,o,126,2,,,8065,WL,B,1.0
prac,,0,,Mon Dec 15 2025 09:12:19 GMT-0600 (Central Standard Time),,NA,boo,I,o,113,2,,,8065,WL,B,1.0
prac,,0,,Mon Dec 15 2025 09:12:19 GMT-0600 (Central Standard Time),,NA,booo,I,o,252,2,,,8065,WL,B,1.0
prac,,0,,Mon Dec 15 2025 09:12:19 GMT-0600 (Central Standard Time),,NA,boo,I,backspace,1410,2,,,8065,WL,B,1.0
prac,,0,,Mon Dec 15 2025 09:12:19 GMT-0600 (Central Standard Time),,NA,boos,I,s,161,2,,,8065,WL,B,1.0
prac,,0,,Mon Dec 15 2025 09:12:19 GMT-0600 (Central Standard Time),,NA,boost,I,t,610,2,,,8065,WL,B,1.0
prac,,0,,Mon Dec 15 2025 09:12:19 GMT-0600 (Central Standard Time),,NA,boostenter,I,enter,314,2,,,8065,WL,B,1.0
1,1.0329999923706055,learn,58967.000007629395,Mon Dec 15 2025 09:12:19 GMT-0600 (Central Standard Time),100930.5,A,s,I,s,1019,2,1032.5999999642372,99897.90000003576,8065,WL,B,1.0
1,2.2820000648498535,learn,57717.99993515015,Mon Dec 15 2025 09:12:19 GMT-0600 (Central Standard Time),102180.10000002384,A,st,I,t,1233,2,2282.199999988079,99897.90000003576,8065,WL,B,1.0
1,2.5989999771118164,learn,57401.00002288818,Mon Dec 15 2025 09:12:19 GMT-0600 (Central Standard Time),102496.5,A,str,I,r,297,2,2598.599999964237,99897.90000003576,8065,WL,B,1.0
1,3.0490000247955322,learn,56950.99997520447,Mon Dec 15 2025 09:12:19 GMT-0600 (Central Standard Time),102946.70000004768,A,stre,I,e,427,2,3048.800000011921,99897.90000003576,8065,WL,B,1.0
1,3.631999969482422,learn,56368.00003051758,Mon Dec 15 2025 09:12:19 GMT-0600 (Central Standard Time),103529.80000001192,A,stree,I,e,576,2,3631.899999976158,99897.90000003576,8065,WL,B,1.0
1,3.815000057220459,learn,56184.99994277954,Mon Dec 15 2025 09:12:19 GMT-0600 (Central Standard Time),103713.0,A,street,I,t,171,2,3815.099999964237,99897.90000003576,8065,WL,B,1.0
1,4.082000017166138,learn,55917.99998283386,Mon Dec 15 2025 09:12:19 GMT-0600 (Central Standard Time),103979.5,A,streetenter,I,enter,259,2,4081.599999964237,99897.90000003576,8065,WL,B,1.0
1,5.082000017166138,learn,54917.99998283386,Mon Dec 15 2025 09:12:19 GMT-0600 (Central Standard Time),104979.30000001192,A,g,I,g,985,2,999.0999999642372,103980.20000004768,8065,WL,B,2.0
1,5.447999954223633,learn,54552.00004577637,Mon Dec 15 2025 09:12:19 GMT-0600 (Central Standard Time),105346.0,A,gr,I,r,344,2,1365.7999999523163,103980.20000004768,8065,WL,B,2.0
1,5.881999969482422,learn,54118.00003051758,Mon Dec 15 2025 09:12:19 GMT-0600 (Central Standard Time),105779.90000003576,A,gra,I,a,426,2,1799.699999988079,103980.20000004768,8065,WL,B,2.0
1,5.947999954223633,learn,54052.00004577637,Mon Dec 15 2025 09:12:19 GMT-0600 (Central Standard Time),105845.80000001192,A,gras,I,s,48,2,1865.5999999642372,103980.20000004768,8065,WL,B,2.0
1,6.997999906539917,learn,53002.00009346008,Mon Dec 15 2025 09:12:19 GMT-0600 (Central Standard Time),106895.30000001192,A,grass,I,s,1031,2,2915.099999964237,103980.20000004768,8065,WL,B,2.0
1,7.299000024795532,learn,52700.99997520447,Mon Dec 15 2025 09:12:19 GMT-0600 (Central Standard Time),107196.30000001192,A,grassenter,I,enter,285,2,3216.099999964237,103980.20000004768,8065,WL,B,2.0
1,7.930999994277954,learn,52069.000005722046,Mon Dec 15 2025 09:12:19 GMT-0600 (Central Standard Time),107828.30000001192,A,d,I,d,623,2,631.5999999642372,107196.70000004768,8065,WL,B,3.0
1,8.114000082015991,learn,51885.99991798401,Mon Dec 15 2025 09:12:19 GMT-0600 (Central Standard Time),108011.80000001192,A,do,I,o,168,2,815.0999999642372,107196.70000004768,8065,WL,B,3.0
1,8.29699993133545,learn,51703.00006866455,Mon Dec 15 2025 09:12:19 GMT-0600 (Central Standard Time),108194.5,A,doo,I,o,176,2,997.7999999523163,107196.70000004768,8065,WL,B,3.0
1,8.591000080108643,learn,51408.99991989136,Mon Dec 15 2025 09:12:19 GMT-0600 (Central Standard Time),108489.10000002384,A,door,I,r,290,2,1292.3999999761581,107196.70000004768,8065,WL,B,3.0
1,8.813999891281128,learn,51186.00010871887,Mon Dec 15 2025 09:12:19 GMT-0600 (Central Standard Time),108711.60000002384,A,doorenter,I,enter,203,2,1514.8999999761581,107196.70000004768,8065,WL,B,3.0
1,9.329999923706055,learn,50670.000076293945,Mon Dec 15 2025 09:12:19 GMT-0600 (Central Standard Time),109227.80000001192,A,w,I,w,510,2,515.6999999880791,108712.10000002384,8065,WL,B,4.0
1,9.86299991607666,learn,50137.00008392334,Mon Dec 15 2025 09:12:19 GMT-0600 (Central Standard Time),109761.10000002384,A,wi,I,i,521,2,1049.0,108712.10000002384,8065,WL,B,4.0
1,10.079999923706055,learn,49920.000076293945,Mon Dec 15 2025 09:12:19 GMT-0600 (Central Standard Time),109977.5,A,win,I,n,195,2,1265.3999999761581,108712.10000002384,8065,WL,B,4.0
1,10.329999923706055,learn,49670.000076293945,Mon Dec 15 2025 09:12:19 GMT-0600 (Central Standard Time),110227.5,A,wind,I,d,234,2,1515.3999999761581,108712.10000002384,8065,WL,B,4.0
1,10.513000011444092,learn,49486.99998855591,Mon Dec 15 2025 09:12:19 GMT-0600 (Central Standard Time),110410.80000001192,A,windo,I,o,178,2,1698.699999988079,108712.10000002384,8065,WL,B,4.0
1,10.77999997138977,learn,49220.00002861023,Mon Dec 15 2025 09:12:19 GMT-0600 (Central Standard Time),110677.5,A,window,I,w,250,2,1965.3999999761581,108712.10000002384,8065,WL,B,4.0
1,11.04699993133545,learn,48953.00006866455,Mon Dec 15 2025 09:12:19 GMT-0600 (Central Standard Time),110944.70000004768,A,windowenter,I,enter,254,2,2232.600000023842,108712.10000002384,8065,WL,B,4.0
1,11.263000011444092,learn,48736.99998855591,Mon Dec 15 2025 09:12:19 GMT-0600 (Central Standard Time),111160.70000004768,A,w,I,w,204,2,215.70000004768372,110945.0,8065,WL,B,5.0
1,11.496000051498413,learn,48503.99994850159,Mon Dec 15 2025 09:12:19 GMT-0600 (Central Standard Time),111393.80000001192,A,wi,I,i,220,2,448.80000001192093,110945.0,8065,WL,B,5.0
1,11.812999963760376,learn,48187.000036239624,Mon Dec 15 2025 09:12:19 GMT-0600 (Central Standard Time),111710.5,A,wif,I,f,299,2,765.5,110945.0,8065,WL,B,5.0
1,11.946000099182129,learn,48053.99990081787,Mon Dec 15 2025 09:12:19 GMT-0600 (Central Standard Time),111843.70000004768,A,wife,I,e,126,2,898.7000000476837,110945.0,8065,WL,B,5.0
1,12.329999923706055,learn,47670.000076293945,Mon Dec 15 2025 09:12:19 GMT-0600 (Central Standard Time),112227.90000003576,A,wifeenter,I,enter,370,2,1282.9000000357628,110945.0,8065,WL,B,5.0
1,12.76200008392334,learn,47237.99991607666,Mon Dec 15 2025 09:12:19 GMT-0600 (Central Standard Time),112660.10000002384,A,c,I,c,425,2,431.80000001192093,112228.30000001192,8065,WL,B,6.0
1,12.996000051498413,learn,47003.99994850159,Mon Dec 15 2025 09:12:19 GMT-0600 (Central Standard Time),112893.40000003576,A,ci,I,i,225,2,665.1000000238419,112228.30000001192,8065,WL,B,6.0
1,13.27999997138977,learn,46720.00002861023,Mon Dec 15 2025 09:12:19 GMT-0600 (Central Standard Time),113177.80000001192,A,cit,I,t,271,2,949.5,112228.30000001192,8065,WL,B,6.0
1,13.394999980926514,learn,46605.000019073486,Mon Dec 15 2025 09:12:19 GMT-0600 (Central Standard Time),113293.20000004768,A,city,I,y,106,2,1064.9000000357628,112228.30000001192,8065,WL,B,6.0
1,13.812000036239624,learn,46187.999963760376,Mon Dec 15 2025 09:12:19 GMT-0600 (Central Standard Time),113709.80000001192,A,cityenter,I,enter,400,2,1481.5,112228.30000001192,8065,WL,B,6.0
1,14.67799997329712,learn,45322.00002670288,Mon Dec 15 2025 09:12:19 GMT-0600 (Central Standard Time),114576.20000004768,A,c,I,c,847,2,866.1000000238419,113710.10000002384,8065,WL,B,7.0
1,14.861999988555908,learn,45138.00001144409,Mon Dec 15 2025 09:12:19 GMT-0600 (Central Standard Time),114759.30000001192,A,ca,I,a,165,2,1049.199999988079,113710.10000002384,8065,WL,B,7.0
1,15.144999980926514,learn,44855.000019073486,Mon Dec 15 2025 09:12:19 GMT-0600 (Central Standard Time),115042.70000004768,A,cab,I,b,269,2,1332.6000000238419,113710.10000002384,8065,WL,B,7.0
1,15.378000020980835,learn,44621.999979019165,Mon Dec 15 2025 09:12:19 GMT-0600 (Central Standard Time),115275.80000001192,A,cabi,I,i,218,2,1565.699999988079,113710.10000002384,8065,WL,B,7.0
1,15.57800006866455,learn,44421.99993133545,Mon Dec 15 2025 09:12:19 GMT-0600 (Central Standard Time),115475.80000001192,A,cabin,I,n,194,2,1765.699999988079,113710.10000002384,8065,WL,B,7.0
1,15.793999910354614,learn,44206.000089645386,Mon Dec 15 2025 09:12:19 GMT-0600 (Central Standard Time),115692.20000004768,A,cabinenter,I,enter,200,2,1982.1000000238419,113710.10000002384,8065,WL,B,7.0
1,17.66100001335144,learn,42338.99998664856,Mon Dec 15 2025 09:12:19 GMT-0600 (Central Standard Time),117558.5,A,l,I,l,1856,2,1865.7999999523163,115692.70000004768,8065,WL,B,8.0
1,17.92799997329712,learn,42072.00002670288,Mon Dec 15 2025 09:12:19 GMT-0600 (Central Standard Time),117825.30000001192,A,la,I,a,246,2,2132.599999964237,115692.70000004768,8065,WL,B,8.0
1,18.062999963760376,learn,41937.000036239624,Mon Dec 15 2025 09:12:19 GMT-0600 (Central Standard Time),117960.40000003576,A,lak,I,k,115,2,2267.699999988079,115692.70000004768,8065,WL,B,8.0
1,18.358999967575073,learn,41641.00003242493,Mon Dec 15 2025 09:12:19 GMT-0600 (Central Standard Time),118258.0,A,lake,I,e,283,2,2565.2999999523163,115692.70000004768,8065,WL,B,8.0
1,18.625999927520752,learn,41374.00007247925,Mon Dec 15 2025 09:12:19 GMT-0600 (Central Standard Time),118525.10000002384,A,lakeenter,I,enter,251,2,2832.399999976158,115692.70000004768,8065,WL,B,8.0
1,22.625,learn,37375.0,Mon Dec 15 2025 09:12:19 GMT-0600 (Central Standard Time),122523.80000001192,A,a,I,a,3984,2,3998.399999976158,118525.40000003576,8065,WL,B,9.0
1,22.941999912261963,learn,37058.00008773804,Mon Dec 15 2025 09:12:19 GMT-0600 (Central Standard Time),122840.5,A,ar,I,r,305,2,4315.099999964237,118525.40000003576,8065,WL,B,9.0
1,23.20799994468689,learn,36792.00005531311,Mon Dec 15 2025 09:12:19 GMT-0600 (Central Standard Time),123107.0,A,arm,I,m,253,2,4581.599999964237,118525.40000003576,8065,WL,B,9.0
1,23.44099998474121,learn,36559.00001525879,Mon Dec 15 2025 09:12:19 GMT-0600 (Central Standard Time),123340.10000002384,A,armenter,I,enter,225,2,4814.699999988079,118525.40000003576,8065,WL,B,9.0
1,50.799999952316284,learn,9200.000047683716,Mon Dec 15 2025 09:12:19 GMT-0600 (Central Standard Time),150698.40000003576,A,enter,I,enter,27346,2,27357.900000035763,123340.5,8065,WL,B,10.0
1,51.615999937057495,learn,8384.000062942505,Mon Dec 15 2025 09:12:19 GMT-0600 (Central Standard Time),151514.80000001192,A,enter,I,enter,803,2,816.0,150698.80000001192,8065,WL,B,11.0
1,52.21499991416931,learn,7785.0000858306885,Mon Dec 15 2025 09:12:19 GMT-0600 (Central Standard Time),152114.40000003576,A,enter,I,enter,586,2,599.1000000238419,151515.30000001192,8065,WL,B,12.0
1,52.79900002479553,learn,7200.999975204468,Mon Dec 15 2025 09:12:19 GMT-0600 (Central Standard Time),152697.70000004768,A,enter,I,enter,563,2,583.0,152114.70000004768,8065,WL,B,13.0
1,53.181999921798706,learn,6818.000078201294,Mon Dec 15 2025 09:12:19 GMT-0600 (Central Standard Time),153080.80000001192,A,enter,I,enter,362,2,382.69999998807907,152698.10000002384,8065,WL,B,14.0
1,53.6489999294281,learn,6351.000070571899,Mon Dec 15 2025 09:12:19 GMT-0600 (Central Standard Time),153547.40000003576,A,enter,I,enter,452,2,466.10000002384186,153081.30000001192,8065,WL,B,15.0
2,0.9830000400543213,learn,59016.99995994568,Mon Dec 15 2025 09:12:19 GMT-0600 (Central Standard Time),229623.5,A,p,I,p,965,2,982.6999999880791,228640.80000001192,8065,WL,B,1.0
2,1.3670001029968262,learn,58632.999897003174,Mon Dec 15 2025 09:12:19 GMT-0600 (Central Standard Time),230006.60000002384,A,pi,I,i,364,2,1365.800000011921,228640.80000001192,8065,WL,B,1.0
2,1.6500000953674316,learn,58349.99990463257,Mon Dec 15 2025 09:12:19 GMT-0600 (Central Standard Time),230290.10000002384,A,pip,I,p,279,2,1649.300000011921,228640.80000001192,8065,WL,B,1.0
2,1.7829999923706055,learn,58217.000007629395,Mon Dec 15 2025 09:12:19 GMT-0600 (Central Standard Time),230423.5,A,pipe,I,e,124,2,1782.699999988079,228640.80000001192,8065,WL,B,1.0
2,2.433000087738037,learn,57566.99991226196,Mon Dec 15 2025 09:12:19 GMT-0600 (Central Standard Time),231073.20000004768,A,pipeenter,I,enter,630,2,2432.400000035763,228640.80000001192,8065,WL,B,1.0
2,2.9660000801086426,learn,57033.99991989136,Mon Dec 15 2025 09:12:19 GMT-0600 (Central Standard Time),231606.20000004768,A,s,I,s,516,2,532.6000000238419,231073.60000002384,8065,WL,B,2.0
2,3.0989999771118164,learn,56901.00002288818,Mon Dec 15 2025 09:12:19 GMT-0600 (Central Standard Time),231739.30000001192,A,sk,I,k,127,2,665.6999999880791,231073.60000002384,8065,WL,B,2.0
2,3.2990000247955322,learn,56700.99997520447,Mon Dec 15 2025 09:12:19 GMT-0600 (Central Standard Time),231939.40000003576,A,ski,I,i,186,2,865.8000000119209,231073.60000002384,8065,WL,B,2.0
2,3.5160000324249268,learn,56483.99996757507,Mon Dec 15 2025 09:12:19 GMT-0600 (Central Standard Time),232156.30000001192,A,skin,I,n,202,2,1082.699999988079,231073.60000002384,8065,WL,B,2.0
2,3.815999984741211,learn,56184.00001525879,Mon Dec 15 2025 09:12:19 GMT-0600 (Central Standard Time),232456.0,A,skinenter,I,enter,289,2,1382.3999999761581,231073.60000002384,8065,WL,B,2.0
2,4.148999929428101,learn,55851.0000705719,Mon Dec 15 2025 09:12:19 GMT-0600 (Central Standard Time),232789.30000001192,A,p,I,p,326,2,332.89999997615814,232456.40000003576,8065,WL,B,3.0
2,4.482000112533569,learn,55517.99988746643,Mon Dec 15 2025 09:12:19 GMT-0600 (Central Standard Time),233122.5,A,pu,I,u,328,2,666.0999999642372,232456.40000003576,8065,WL,B,3.0
2,4.832000017166138,learn,55167.99998283386,Mon Dec 15 2025 09:12:19 GMT-0600 (Central Standard Time),233472.40000003576,A,pup,I,p,330,2,1016.0,232456.40000003576,8065,WL,B,3.0
2,5.065000057220459,learn,54934.99994277954,Mon Dec 15 2025 09:12:19 GMT-0600 (Central Standard Time),233705.40000003576,A,pupi,I,i,213,2,1249.0,232456.40000003576,8065,WL,B,3.0
2,5.2820000648498535,learn,54717.99993515015,Mon Dec 15 2025 09:12:19 GMT-0600 (Central Standard Time),233922.20000004768,A,pupil,I,l,196,2,1465.800000011921,232456.40000003576,8065,WL,B,3.0
2,5.615000009536743,learn,54384.99999046326,Mon Dec 15 2025 09:12:19 GMT-0600 (Central Standard Time),234255.40000003576,A,pupilenter,I,enter,323,2,1799.0,232456.40000003576,8065,WL,B,3.0
2,5.948999881744385,learn,54051.000118255615,Mon Dec 15 2025 09:12:19 GMT-0600 (Central Standard Time),234588.70000004768,A,f,I,f,326,2,333.0,234255.70000004768,8065,WL,B,4.0
2,6.131999969482422,learn,53868.00003051758,Mon Dec 15 2025 09:12:19 GMT-0600 (Central Standard Time),234771.80000001192,A,fi,I,i,177,2,516.0999999642372,234255.70000004768,8065,WL,B,4.0
2,6.332000017166138,learn,53667.99998283386,Mon Dec 15 2025 09:12:19 GMT-0600 (Central Standard Time),234971.80000001192,A,fir,I,r,185,2,716.0999999642372,234255.70000004768,8065,WL,B,4.0
2,6.565000057220459,learn,53434.99994277954,Mon Dec 15 2025 09:12:19 GMT-0600 (Central Standard Time),235205.20000004768,A,fire,I,e,226,2,949.5,234255.70000004768,8065,WL,B,4.0
2,7.04800009727478,learn,52951.99990272522,Mon Dec 15 2025 09:12:19 GMT-0600 (Central Standard Time),235687.90000003576,A,fireenter,I,enter,471,2,1432.199999988079,234255.70000004768,8065,WL,B,4.0
2,7.364000082015991,learn,52635.99991798401,Mon Dec 15 2025 09:12:19 GMT-0600 (Central Standard Time),236004.40000003576,A,c,I,c,300,2,316.19999998807907,235688.20000004768,8065,WL,B,5.0
2,7.497999906539917,learn,52502.00009346008,Mon Dec 15 2025 09:12:19 GMT-0600 (Central Standard Time),236138.10000002384,A,cl,I,l,129,2,449.89999997615814,235688.20000004768,8065,WL,B,5.0
2,7.765000104904175,learn,52234.999895095825,Mon Dec 15 2025 09:12:19 GMT-0600 (Central Standard Time),236404.80000001192,A,clo,I,o,260,2,716.5999999642372,235688.20000004768,8065,WL,B,5.0
2,7.997999906539917,learn,52002.00009346008,Mon Dec 15 2025 09:12:19 GMT-0600 (Central Standard Time),236638.10000002384,A,cloc,I,c,216,2,949.8999999761581,235688.20000004768,8065,WL,B,5.0
2,8.148000001907349,learn,51851.99999809265,Mon Dec 15 2025 09:12:19 GMT-0600 (Central Standard Time),236787.90000003576,A,clock,I,k,143,2,1099.699999988079,235688.20000004768,8065,WL,B,5.0
2,8.414000034332275,learn,51585.999965667725,Mon Dec 15 2025 09:12:19 GMT-0600 (Central Standard Time),237054.40000003576,A,clockenter,I,enter,250,2,1366.199999988079,235688.20000004768,8065,WL,B,5.0
2,9.230999946594238,learn,50769.00005340576,Mon Dec 15 2025 09:12:19 GMT-0600 (Central Standard Time),237871.0,A,l,I,l,799,2,816.1999999880791,237054.80000001192,8065,WL,B,6.0
2,10.397000074386597,learn,49602.9999256134,Mon Dec 15 2025 09:12:19 GMT-0600 (Central Standard Time),239037.60000002384,A,la,I,a,1150,2,1982.800000011921,237054.80000001192,8065,WL,B,6.0
2,10.578999996185303,learn,49421.0000038147,Mon Dec 15 2025 09:12:19 GMT-0600 (Central Standard Time),239220.40000003576,A,lak,I,k,176,2,2165.600000023842,237054.80000001192,8065,WL,B,6.0
2,10.913000106811523,learn,49086.99989318848,Mon Dec 15 2025 09:12:19 GMT-0600 (Central Standard Time),239553.90000003576,A,lake,I,e,321,2,2499.100000023842,237054.80000001192,8065,WL,B,6.0
2,11.078999996185303,learn,48921.0000038147,Mon Dec 15 2025 09:12:19 GMT-0600 (Central Standard Time),239720.20000004768,A,lakeenter,I,enter,146,2,2665.400000035763,237054.80000001192,8065,WL,B,6.0
2,11.378999948501587,learn,48621.00005149841,Mon Dec 15 2025 09:12:19 GMT-0600 (Central Standard Time),240020.40000003576,A,c,I,c,293,2,299.69999998807907,239720.70000004768,8065,WL,B,7.0
2,11.546000003814697,learn,48453.9999961853,Mon Dec 15 2025 09:12:19 GMT-0600 (Central Standard Time),240186.60000002384,A,ca,I,a,161,2,465.89999997615814,239720.70000004768,8065,WL,B,7.0
2,11.828999996185303,learn,48171.0000038147,Mon Dec 15 2025 09:12:19 GMT-0600 (Central Standard Time),240470.10000002384,A,cab,I,b,267,2,749.3999999761581,239720.70000004768,8065,WL,B,7.0
2,12.078999996185303,learn,47921.0000038147,Mon Dec 15 2025 09:12:19 GMT-0600 (Central Standard Time),240720.10000002384,A,cabi,I,i,238,2,999.3999999761581,239720.70000004768,8065,WL,B,7.0
2,12.296000003814697,learn,47703.9999961853,Mon Dec 15 2025 09:12:19 GMT-0600 (Central Standard Time),240936.80000001192,A,cabin,I,n,206,2,1216.0999999642372,239720.70000004768,8065,WL,B,7.0
2,12.562000036239624,learn,47437.999963760376,Mon Dec 15 2025 09:12:19 GMT-0600 (Central Standard Time),241203.30000001192,A,cabinenter,I,enter,253,2,1482.5999999642372,239720.70000004768,8065,WL,B,7.0
2,13.144999980926514,learn,46855.000019073486,Mon Dec 15 2025 09:12:19 GMT-0600 (Central Standard Time),241786.60000002384,A,g,I,g,578,2,582.8000000119209,241203.80000001192,8065,WL,B,8.0
2,13.26200008392334,learn,46737.99991607666,Mon Dec 15 2025 09:12:19 GMT-0600 (Central Standard Time),241903.10000002384,A,gr,I,r,107,2,699.3000000119209,241203.80000001192,8065,WL,B,8.0
2,13.57800006866455,learn,46421.99993133545,Mon Dec 15 2025 09:12:19 GMT-0600 (Central Standard Time),242219.5,A,gra,I,a,310,2,1015.6999999880791,241203.80000001192,8065,WL,B,8.0
2,13.92799997329712,learn,46072.00002670288,Mon Dec 15 2025 09:12:19 GMT-0600 (Central Standard Time),242569.60000002384,A,gras,I,s,330,2,1365.800000011921,241203.80000001192,8065,WL,B,8.0
2,14.111999988555908,learn,45888.00001144409,Mon Dec 15 2025 09:12:19 GMT-0600 (Central Standard Time),242752.70000004768,A,grass,I,s,164,2,1548.9000000357628,241203.80000001192,8065,WL,B,8.0
2,14.312000036239624,learn,45687.999963760376,Mon Dec 15 2025 09:12:19 GMT-0600 (Central Standard Time),242952.70000004768,A,grassenter,I,enter,189,2,1748.9000000357628,241203.80000001192,8065,WL,B,8.0
2,14.545000076293945,learn,45454.999923706055,Mon Dec 15 2025 09:12:19 GMT-0600 (Central Standard Time),243185.70000004768,A,d,I,d,229,2,232.70000004768372,242953.0,8065,WL,B,9.0
2,14.778000116348267,learn,45221.99988365173,Mon Dec 15 2025 09:12:19 GMT-0600 (Central Standard Time),243418.90000003576,A,do,I,o,228,2,465.9000000357628,242953.0,8065,WL,B,9.0
2,14.960999965667725,learn,45039.000034332275,Mon Dec 15 2025 09:12:19 GMT-0600 (Central Standard Time),243602.5,A,doo,I,o,170,2,649.5,242953.0,8065,WL,B,9.0
2,15.260999917984009,learn,44739.00008201599,Mon Dec 15 2025 09:12:19 GMT-0600 (Central Standard Time),243902.5,A,door,I,r,289,2,949.5,242953.0,8065,WL,B,9.0
2,15.960999965667725,learn,44039.000034332275,Mon Dec 15 2025 09:12:19 GMT-0600 (Central Standard Time),244602.10000002384,A,doorenter,I,enter,687,2,1649.1000000238419,242953.0,8065,WL,B,9.0
2,16.41100001335144,learn,43588.99998664856,Mon Dec 15 2025 09:12:19 GMT-0600 (Central Standard Time),245052.10000002384,A,s,I,s,435,2,449.60000002384186,244602.5,8065,WL,B,10.0
2,16.811000108718872,learn,43188.99989128113,Mon Dec 15 2025 09:12:19 GMT-0600 (Central Standard Time),245452.10000002384,A,st,I,t,385,2,849.6000000238419,244602.5,8065,WL,B,10.0
2,17.111000061035156,learn,42888.999938964844,Mon Dec 15 2025 09:12:19 GMT-0600 (Central Standard Time),245752.0,A,str,I,r,290,2,1149.5,244602.5,8065,WL,B,10.0
2,17.39400005340576,learn,42605.99994659424,Mon Dec 15 2025 09:12:19 GMT-0600 (Central Standard Time),246035.20000004768,A,stre,I,e,269,2,1432.7000000476837,244602.5,8065,WL,B,10.0
2,17.57699990272522,learn,42423.00009727478,Mon Dec 15 2025 09:12:19 GMT-0600 (Central Standard Time),246218.40000003576,A,stree,I,e,178,2,1615.9000000357628,244602.5,8065,WL,B,10.0
2,17.844000101089478,learn,42155.99989891052,Mon Dec 15 2025 09:12:19 GMT-0600 (Central Standard Time),246484.80000001192,A,street,I,t,259,2,1882.300000011921,244602.5,8065,WL,B,10.0
2,18.07699990272522,learn,41923.00009727478,Mon Dec 15 2025 09:12:19 GMT-0600 (Central Standard Time),246718.30000001192,A,streetenter,I,enter,225,2,2115.800000011921,244602.5,8065,WL,B,10.0
2,18.64400005340576,learn,41355.99994659424,Mon Dec 15 2025 09:12:19 GMT-0600 (Central Standard Time),247284.90000003576,A,w,I,w,558,2,566.1000000238419,246718.80000001192,8065,WL,B,11.0
2,18.89400005340576,learn,41105.99994659424,Mon Dec 15 2025 09:12:19 GMT-0600 (Central Standard Time),247534.80000001192,A,wi,I,i,233,2,816.0,246718.80000001192,8065,WL,B,11.0
2,19.16000008583069,learn,40839.99991416931,Mon Dec 15 2025 09:12:19 GMT-0600 (Central Standard Time),247801.20000004768,A,wif,I,f,246,2,1082.4000000357628,246718.80000001192,8065,WL,B,11.0
2,19.292999982833862,learn,40707.00001716614,Mon Dec 15 2025 09:12:19 GMT-0600 (Central Standard Time),247934.40000003576,A,wife,I,e,116,2,1215.6000000238419,246718.80000001192,8065,WL,B,11.0
2,19.526999950408936,learn,40473.000049591064,Mon Dec 15 2025 09:12:19 GMT-0600 (Central Standard Time),248167.80000001192,A,wifeenter,I,enter,223,2,1449.0,246718.80000001192,8065,WL,B,11.0
2,19.842999935150146,learn,40157.00006484985,Mon Dec 15 2025 09:12:19 GMT-0600 (Central Standard Time),248484.40000003576,A,w,I,w,302,2,316.30000001192093,248168.10000002384,8065,WL,B,12.0
2,20.042999982833862,learn,39957.00001716614,Mon Dec 15 2025 09:12:19 GMT-0600 (Central Standard Time),248684.20000004768,A,wi,I,i,185,2,516.1000000238419,248168.10000002384,8065,WL,B,12.0
2,20.39299988746643,learn,39607.00011253357,Mon Dec 15 2025 09:12:19 GMT-0600 (Central Standard Time),249034.10000002384,A,win,I,n,329,2,866.0,248168.10000002384,8065,WL,B,12.0
2,20.625999927520752,learn,39374.00007247925,Mon Dec 15 2025 09:12:19 GMT-0600 (Central Standard Time),249267.30000001192,A,wind,I,d,219,2,1099.199999988079,248168.10000002384,8065,WL,B,12.0
2,20.91000008583069,learn,39089.99991416931,Mon Dec 15 2025 09:12:19 GMT-0600 (Central Standard Time),249550.70000004768,A,windo,I,o,265,2,1382.6000000238419,248168.10000002384,8065,WL,B,12.0
2,21.27900004386902,learn,38720.99995613098,Mon Dec 15 2025 09:12:19 GMT-0600 (Central Standard Time),249920.40000003576,A,window,I,w,219,2,1752.300000011921,248168.10000002384,8065,WL,B,12.0
2,21.397000074386597,learn,38602.9999256134,Mon Dec 15 2025 09:12:19 GMT-0600 (Central Standard Time),250037.60000002384,A,windowenter,I,enter,93,2,1869.5,248168.10000002384,8065,WL,B,12.0
2,22.70900011062622,learn,37290.99988937378,Mon Dec 15 2025 09:12:19 GMT-0600 (Central Standard Time),251350.30000001192,A,c,I,c,1304,2,1312.3999999761581,250037.90000003576,8065,WL,B,13.0
2,23.04200005531311,learn,36957.99994468689,Mon Dec 15 2025 09:12:19 GMT-0600 (Central Standard Time),251683.0,A,ci,I,i,318,2,1645.0999999642372,250037.90000003576,8065,WL,B,13.0
2,23.39199995994568,learn,36608.00004005432,Mon Dec 15 2025 09:12:19 GMT-0600 (Central Standard Time),252033.30000001192,A,cit,I,t,338,2,1995.3999999761581,250037.90000003576,8065,WL,B,13.0
2,23.52500009536743,learn,36474.99990463257,Mon Dec 15 2025 09:12:19 GMT-0600 (Central Standard Time),252166.40000003576,A,city,I,y,116,2,2128.5,250037.90000003576,8065,WL,B,13.0
2,23.841000080108643,learn,36158.99991989136,Mon Dec 15 2025 09:12:19 GMT-0600 (Central Standard Time),252482.60000002384,A,cityenter,I,enter,310,2,2444.699999988079,250037.90000003576,8065,WL,B,13.0
2,34.039000034332275,learn,25960.999965667725,Mon Dec 15 2025 09:12:19 GMT-0600 (Central Standard Time),262679.90000003576,A,a,I,a,10187,2,10197.100000023842,252482.80000001192,8065,WL,B,14.0
2,34.388999938964844,learn,25611.000061035156,Mon Dec 15 2025 09:12:19 GMT-0600 (Central Standard Time),263029.90000003576,A,ar,I,r,341,2,10547.100000023842,252482.80000001192,8065,WL,B,14.0
2,34.53800010681152,learn,25461.999893188477,Mon Dec 15 2025 09:12:19 GMT-0600 (Central Standard Time),263179.60000002384,A,arm,I,m,143,2,10696.800000011921,252482.80000001192,8065,WL,B,14.0
2,34.704999923706055,learn,25295.000076293945,Mon Dec 15 2025 09:12:19 GMT-0600 (Central Standard Time),263346.3000000119,A,armenter,I,enter,146,2,10863.5,252482.80000001192,8065,WL,B,14.0
2,38.28800010681152,learn,21711.999893188477,Mon Dec 15 2025 09:12:19 GMT-0600 (Central Standard Time),266928.90000003576,A,s,I,s,3563,2,3582.400000035763,263346.5,8065,WL,B,15.0
2,38.53800010681152,learn,21461.999893188477,Mon Dec 15 2025 09:12:19 GMT-0600 (Central Standard Time),267178.90000003576,A,st,I,t,237,2,3832.400000035763,263346.5,8065,WL,B,15.0
2,38.88700008392334,learn,21112.99991607666,Mon Dec 15 2025 09:12:19 GMT-0600 (Central Standard Time),267528.3000000119,A,sta,I,a,331,2,4181.800000011921,263346.5,8065,WL,B,15.0
2,39.420000076293945,learn,20579.999923706055,Mon Dec 15 2025 09:12:19 GMT-0600 (Central Standard Time),268061.5,A,star,I,r,517,2,4715.0,263346.5,8065,WL,B,15.0
2,39.687000036239624,learn,20312.999963760376,Mon Dec 15 2025 09:12:19 GMT-0600 (Central Standard Time),268328.2000000477,A,starenter,I,enter,248,2,4981.700000047684,263346.5,8065,WL,B,15.0
3,0.7999999523162842,learn,59200.000047683716,Mon Dec 15 2025 09:12:19 GMT-0600 (Central Standard Time),335973.60000002384,A,s,I,s,792,2,799.6999999880791,335173.90000003576,8065,WL,B,1.0
3,1.182999849319458,learn,58817.00015068054,Mon Dec 15 2025 09:12:19 GMT-0600 (Central Standard Time),336356.7000000477,A,st,I,t,365,2,1182.800000011921,335173.90000003576,8065,WL,B,1.0
3,1.4500000476837158,learn,58549.999952316284,Mon Dec 15 2025 09:12:19 GMT-0600 (Central Standard Time),336623.5,A,str,I,r,249,2,1449.5999999642372,335173.90000003576,8065,WL,B,1.0
3,1.7000000476837158,learn,58299.999952316284,Mon Dec 15 2025 09:12:19 GMT-0600 (Central Standard Time),336873.5,A,stre,I,e,238,2,1699.5999999642372,335173.90000003576,8065,WL,B,1.0
3,1.9159998893737793,learn,58084.00011062622,Mon Dec 15 2025 09:12:19 GMT-0600 (Central Standard Time),337090.0,A,stree,I,e,204,2,1916.0999999642372,335173.90000003576,8065,WL,B,1.0
3,2.132999897003174,learn,57867.000102996826,Mon Dec 15 2025 09:12:19 GMT-0600 (Central Standard Time),337306.40000003576,A,street,I,t,203,2,2132.5,335173.90000003576,8065,WL,B,1.0
3,2.450000047683716,learn,57549.999952316284,Mon Dec 15 2025 09:12:19 GMT-0600 (Central Standard Time),337623.2000000477,A,streetenter,I,enter,307,2,2449.300000011921,335173.90000003576,8065,WL,B,1.0
3,3.115999937057495,learn,56884.000062942505,Mon Dec 15 2025 09:12:19 GMT-0600 (Central Standard Time),338289.8000000119,A,g,I,g,646,2,666.1999999880791,337623.60000002384,8065,WL,B,2.0
3,3.2990000247955322,learn,56700.99997520447,Mon Dec 15 2025 09:12:19 GMT-0600 (Central Standard Time),338472.7000000477,A,gr,I,r,164,2,849.1000000238419,337623.60000002384,8065,WL,B,2.0
3,4.865999937057495,learn,55134.000062942505,Mon Dec 15 2025 09:12:19 GMT-0600 (Central Standard Time),340039.10000002384,A,gra,I,a,1549,2,2415.5,337623.60000002384,8065,WL,B,2.0
3,5.631999969482422,learn,54368.00003051758,Mon Dec 15 2025 09:12:19 GMT-0600 (Central Standard Time),340805.3000000119,A,gras,I,s,750,2,3181.699999988079,337623.60000002384,8065,WL,B,2.0
3,5.81499981880188,learn,54185.00018119812,Mon Dec 15 2025 09:12:19 GMT-0600 (Central Standard Time),340988.7000000477,A,grass,I,s,168,2,3365.100000023842,337623.60000002384,8065,WL,B,2.0
3,6.148000001907349,learn,53851.99999809265,Mon Dec 15 2025 09:12:19 GMT-0600 (Central Standard Time),341322.0,A,grassenter,I,enter,321,2,3698.399999976158,337623.60000002384,8065,WL,B,2.0
3,6.447999954223633,learn,53552.00004577637,Mon Dec 15 2025 09:12:19 GMT-0600 (Central Standard Time),341622.0,A,d,I,d,292,2,299.69999998807907,341322.3000000119,8065,WL,B,3.0
3,6.947999954223633,learn,53052.00004577637,Mon Dec 15 2025 09:12:19 GMT-0600 (Central Standard Time),342121.8000000119,A,do,I,o,487,2,799.5,341322.3000000119,8065,WL,B,3.0
3,7.164000034332275,learn,52835.999965667725,Mon Dec 15 2025 09:12:19 GMT-0600 (Central Standard Time),342338.0,A,doo,I,o,203,2,1015.6999999880791,341322.3000000119,8065,WL,B,3.0
3,7.648000001907349,learn,52351.99999809265,Mon Dec 15 2025 09:12:19 GMT-0600 (Central Standard Time),342821.60000002384,A,door,I,r,475,2,1499.300000011921,341322.3000000119,8065,WL,B,3.0
3,8.263999938964844,learn,51736.000061035156,Mon Dec 15 2025 09:12:19 GMT-0600 (Central Standard Time),343437.90000003576,A,doorenter,I,enter,600,2,2115.600000023842,341322.3000000119,8065,WL,B,3.0
3,10.080999851226807,learn,49919.00014877319,Mon Dec 15 2025 09:12:19 GMT-0600 (Central Standard Time),345254.10000002384,A,a,I,a,1800,2,1815.8999999761581,343438.2000000477,8065,WL,B,4.0
3,10.480000019073486,learn,49519.999980926514,Mon Dec 15 2025 09:12:19 GMT-0600 (Central Standard Time),345653.8000000119,A,ar,I,r,383,2,2215.599999964237,343438.2000000477,8065,WL,B,4.0
3,10.746999979019165,learn,49253.000020980835,Mon Dec 15 2025 09:12:19 GMT-0600 (Central Standard Time),345920.3000000119,A,arm,I,m,256,2,2482.099999964237,343438.2000000477,8065,WL,B,4.0
3,10.996999979019165,learn,49003.000020980835,Mon Dec 15 2025 09:12:19 GMT-0600 (Central Standard Time),346170.5,A,armenter,I,enter,245,2,2732.2999999523163,343438.2000000477,8065,WL,B,4.0
3,11.44700002670288,learn,48552.99997329712,Mon Dec 15 2025 09:12:19 GMT-0600 (Central Standard Time),346620.3000000119,A,s,I,s,443,2,449.5,346170.8000000119,8065,WL,B,5.0
3,11.86299991607666,learn,48137.00008392334,Mon Dec 15 2025 09:12:19 GMT-0600 (Central Standard Time),347036.8000000119,A,st,I,t,401,2,866.0,346170.8000000119,8065,WL,B,5.0
3,12.379999876022339,learn,47620.00012397766,Mon Dec 15 2025 09:12:19 GMT-0600 (Central Standard Time),347553.2000000477,A,sta,I,a,505,2,1382.4000000357628,346170.8000000119,8065,WL,B,5.0
3,12.746000051498413,learn,47253.99994850159,Mon Dec 15 2025 09:12:19 GMT-0600 (Central Standard Time),347919.90000003576,A,star,I,r,356,2,1749.1000000238419,346170.8000000119,8065,WL,B,5.0
3,13.828999996185303,learn,46171.0000038147,Mon Dec 15 2025 09:12:19 GMT-0600 (Central Standard Time),349002.90000003576,A,starenter,I,enter,1061,2,2832.100000023842,346170.8000000119,8065,WL,B,5.0
3,14.361999988555908,learn,45638.00001144409,Mon Dec 15 2025 09:12:19 GMT-0600 (Central Standard Time),349536.0,A,w,I,w,522,2,532.6999999880791,349003.3000000119,8065,WL,B,6.0
3,14.611999988555908,learn,45388.00001144409,Mon Dec 15 2025 09:12:19 GMT-0600 (Central Standard Time),349785.90000003576,A,wi,I,i,237,2,782.6000000238419,349003.3000000119,8065,WL,B,6.0
3,15.046000003814697,learn,44953.9999961853,Mon Dec 15 2025 09:12:19 GMT-0600 (Central Standard Time),350219.40000003576,A,wif,I,f,420,2,1216.1000000238419,349003.3000000119,8065,WL,B,6.0
3,15.228999853134155,learn,44771.000146865845,Mon Dec 15 2025 09:12:19 GMT-0600 (Central Standard Time),350402.40000003576,A,wife,I,e,177,2,1399.1000000238419,349003.3000000119,8065,WL,B,6.0
3,15.51199984550476,learn,44488.00015449524,Mon Dec 15 2025 09:12:19 GMT-0600 (Central Standard Time),350685.8000000119,A,wifeenter,I,enter,267,2,1682.5,349003.3000000119,8065,WL,B,6.0
3,16.194999933242798,learn,43805.0000667572,Mon Dec 15 2025 09:12:19 GMT-0600 (Central Standard Time),351368.8000000119,A,w,I,w,664,2,682.5999999642372,350686.2000000477,8065,WL,B,7.0
3,16.67799997329712,learn,43322.00002670288,Mon Dec 15 2025 09:12:19 GMT-0600 (Central Standard Time),351851.8000000119,A,wi,I,i,468,2,1165.5999999642372,350686.2000000477,8065,WL,B,7.0
3,17.227999925613403,learn,42772.0000743866,Mon Dec 15 2025 09:12:19 GMT-0600 (Central Standard Time),352401.8000000119,A,win,I,n,530,2,1715.5999999642372,350686.2000000477,8065,WL,B,7.0
3,17.51099991798401,learn,42489.00008201599,Mon Dec 15 2025 09:12:19 GMT-0600 (Central Standard Time),352685.0,A,wind,I,d,268,2,1998.7999999523163,350686.2000000477,8065,WL,B,7.0
3,17.76099991798401,learn,42239.00008201599,Mon Dec 15 2025 09:12:19 GMT-0600 (Central Standard Time),352934.90000003576,A,windo,I,o,232,2,2248.699999988079,350686.2000000477,8065,WL,B,7.0
3,18.110999822616577,learn,41889.00017738342,Mon Dec 15 2025 09:12:19 GMT-0600 (Central Standard Time),353284.7000000477,A,window,I,w,342,2,2598.5,350686.2000000477,8065,WL,B,7.0
3,18.310999870300293,learn,41689.00012969971,Mon Dec 15 2025 09:12:19 GMT-0600 (Central Standard Time),353484.90000003576,A,windowenter,I,enter,193,2,2798.699999988079,350686.2000000477,8065,WL,B,7.0
3,19.17799997329712,learn,40822.00002670288,Mon Dec 15 2025 09:12:19 GMT-0600 (Central Standard Time),354351.40000003576,A,c,I,c,848,2,866.1000000238419,353485.3000000119,8065,WL,B,8.0
3,19.444000005722046,learn,40555.999994277954,Mon Dec 15 2025 09:12:19 GMT-0600 (Central Standard Time),354617.8000000119,A,ci,I,i,254,2,1132.5,353485.3000000119,8065,WL,B,8.0
3,19.76099991798401,learn,40239.00008201599,Mon Dec 15 2025 09:12:19 GMT-0600 (Central Standard Time),354934.3000000119,A,cit,I,t,299,2,1449.0,353485.3000000119,8065,WL,B,8.0
3,19.944000005722046,learn,40055.999994277954,Mon Dec 15 2025 09:12:19 GMT-0600 (Central Standard Time),355117.60000002384,A,city,I,y,175,2,1632.300000011921,353485.3000000119,8065,WL,B,8.0
3,20.360999822616577,learn,39639.00017738342,Mon Dec 15 2025 09:12:19 GMT-0600 (Central Standard Time),355534.2000000477,A,cityenter,I,enter,400,2,2048.900000035763,353485.3000000119,8065,WL,B,8.0
3,20.90999984741211,learn,39090.00015258789,Mon Dec 15 2025 09:12:19 GMT-0600 (Central Standard Time),356084.10000002384,A,p,I,p,535,2,549.5,355534.60000002384,8065,WL,B,9.0
3,21.359999895095825,learn,38640.000104904175,Mon Dec 15 2025 09:12:19 GMT-0600 (Central Standard Time),356533.8000000119,A,pu,I,u,441,2,999.1999999880791,355534.60000002384,8065,WL,B,9.0
3,21.793999910354614,learn,38206.000089645386,Mon Dec 15 2025 09:12:19 GMT-0600 (Central Standard Time),356967.10000002384,A,pup,I,p,415,2,1432.5,355534.60000002384,8065,WL,B,9.0
3,22.092999935150146,learn,37907.00006484985,Mon Dec 15 2025 09:12:19 GMT-0600 (Central Standard Time),357266.8000000119,A,pupi,I,i,295,2,1732.199999988079,355534.60000002384,8065,WL,B,9.0
3,22.493000030517578,learn,37506.99996948242,Mon Dec 15 2025 09:12:19 GMT-0600 (Central Standard Time),357666.90000003576,A,pupil,I,l,395,2,2132.300000011921,355534.60000002384,8065,WL,B,9.0
3,22.692999839782715,learn,37307.000160217285,Mon Dec 15 2025 09:12:19 GMT-0600 (Central Standard Time),357866.8000000119,A,pupilenter,I,enter,195,2,2332.199999988079,355534.60000002384,8065,WL,B,9.0
3,24.608999967575073,learn,35391.00003242493,Mon Dec 15 2025 09:12:19 GMT-0600 (Central Standard Time),359782.8000000119,A,c,I,c,1906,2,1915.8999999761581,357866.90000003576,8065,WL,B,10.0
3,24.842000007629395,learn,35157.999992370605,Mon Dec 15 2025 09:12:19 GMT-0600 (Central Standard Time),360016.2000000477,A,ca,I,a,214,2,2149.300000011921,357866.90000003576,8065,WL,B,10.0
3,25.174999952316284,learn,34825.000047683716,Mon Dec 15 2025 09:12:19 GMT-0600 (Central Standard Time),360349.40000003576,A,cab,I,b,318,2,2482.5,357866.90000003576,8065,WL,B,10.0
3,25.524999856948853,learn,34475.00014305115,Mon Dec 15 2025 09:12:19 GMT-0600 (Central Standard Time),360699.3000000119,A,cabi,I,i,329,2,2832.399999976158,357866.90000003576,8065,WL,B,10.0
3,25.774999856948853,learn,34225.00014305115,Mon Dec 15 2025 09:12:19 GMT-0600 (Central Standard Time),360949.0,A,cabin,I,n,242,2,3082.099999964237,357866.90000003576,8065,WL,B,10.0
3,26.157999992370605,learn,33842.000007629395,Mon Dec 15 2025 09:12:19 GMT-0600 (Central Standard Time),361332.40000003576,A,cabinenter,I,enter,377,2,3465.5,357866.90000003576,8065,WL,B,10.0
3,27.007999897003174,learn,32992.000102996826,Mon Dec 15 2025 09:12:19 GMT-0600 (Central Standard Time),362182.2000000477,A,l,I,l,841,2,849.4000000357628,361332.8000000119,8065,WL,B,11.0
3,27.240999937057495,learn,32759.000062942505,Mon Dec 15 2025 09:12:19 GMT-0600 (Central Standard Time),362415.3000000119,A,la,I,a,215,2,1082.5,361332.8000000119,8065,WL,B,11.0
3,27.891000032424927,learn,32108.999967575073,Mon Dec 15 2025 09:12:19 GMT-0600 (Central Standard Time),363065.10000002384,A,lak,I,k,638,2,1732.300000011921,361332.8000000119,8065,WL,B,11.0
3,28.174000024795532,learn,31825.999975204468,Mon Dec 15 2025 09:12:19 GMT-0600 (Central Standard Time),363348.40000003576,A,lake,I,e,276,2,2015.6000000238419,361332.8000000119,8065,WL,B,11.0
3,29.04099988937378,learn,30959.00011062622,Mon Dec 15 2025 09:12:19 GMT-0600 (Central Standard Time),364214.7000000477,A,lakeenter,I,enter,848,2,2881.900000035763,361332.8000000119,8065,WL,B,11.0
3,33.68899989128113,learn,26311.000108718872,Mon Dec 15 2025 09:12:19 GMT-0600 (Central Standard Time),368863.5,A,s,I,s,4639,2,4648.5,364215.0,8065,WL,B,12.0
3,33.85599994659424,learn,26144.00005340576,Mon Dec 15 2025 09:12:19 GMT-0600 (Central Standard Time),369029.90000003576,A,sk,I,k,158,2,4814.900000035763,364215.0,8065,WL,B,12.0
3,34.08899998664856,learn,25911.00001335144,Mon Dec 15 2025 09:12:19 GMT-0600 (Central Standard Time),369263.3000000119,A,ski,I,i,215,2,5048.300000011921,364215.0,8065,WL,B,12.0
3,34.42199993133545,learn,25578.00006866455,Mon Dec 15 2025 09:12:19 GMT-0600 (Central Standard Time),369596.40000003576,A,skin,I,n,318,2,5381.400000035763,364215.0,8065,WL,B,12.0
3,34.805999994277954,learn,25194.000005722046,Mon Dec 15 2025 09:12:19 GMT-0600 (Central Standard Time),369979.7000000477,A,skinenter,I,enter,377,2,5764.700000047684,364215.0,8065,WL,B,12.0
3,35.15599989891052,learn,24844.000101089478,Mon Dec 15 2025 09:12:19 GMT-0600 (Central Standard Time),370330.0,A,f,I,f,329,2,349.89999997615814,369980.10000002384,8065,WL,B,13.0
3,35.33899998664856,learn,24661.00001335144,Mon Dec 15 2025 09:12:19 GMT-0600 (Central Standard Time),370512.8000000119,A,fi,I,i,172,2,532.6999999880791,369980.10000002384,8065,WL,B,13.0
3,35.55499982833862,learn,24445.000171661377,Mon Dec 15 2025 09:12:19 GMT-0600 (Central Standard Time),370729.5,A,fir,I,r,197,2,749.3999999761581,369980.10000002384,8065,WL,B,13.0
3,35.805999994277954,learn,24194.000005722046,Mon Dec 15 2025 09:12:19 GMT-0600 (Central Standard Time),370979.90000003576,A,fire,I,e,236,2,999.8000000119209,369980.10000002384,8065,WL,B,13.0
3,36.15499997138977,learn,23845.00002861023,Mon Dec 15 2025 09:12:19 GMT-0600 (Central Standard Time),371329.5,A,fireenter,I,enter,328,2,1349.3999999761581,369980.10000002384,8065,WL,B,13.0
3,36.98799991607666,learn,23012.00008392334,Mon Dec 15 2025 09:12:19 GMT-0600 (Central Standard Time),372162.40000003576,A,c,I,c,820,2,832.6000000238419,371329.8000000119,8065,WL,B,14.0
3,37.187999963760376,learn,22812.000036239624,Mon Dec 15 2025 09:12:19 GMT-0600 (Central Standard Time),372362.10000002384,A,cl,I,l,195,2,1032.300000011921,371329.8000000119,8065,WL,B,14.0
3,37.454999923706055,learn,22545.000076293945,Mon Dec 15 2025 09:12:19 GMT-0600 (Central Standard Time),372628.90000003576,A,clo,I,o,259,2,1299.1000000238419,371329.8000000119,8065,WL,B,14.0
3,37.687999963760376,learn,22312.000036239624,Mon Dec 15 2025 09:12:19 GMT-0600 (Central Standard Time),372862.10000002384,A,cloc,I,c,217,2,1532.300000011921,371329.8000000119,8065,WL,B,14.0
3,38.00399994850159,learn,21996.000051498413,Mon Dec 15 2025 09:12:19 GMT-0600 (Central Standard Time),373178.40000003576,A,clock,I,k,311,2,1848.6000000238419,371329.8000000119,8065,WL,B,14.0
3,38.603999853134155,learn,21396.000146865845,Mon Dec 15 2025 09:12:19 GMT-0600 (Central Standard Time),373778.5,A,clockenter,I,enter,587,2,2448.699999988079,371329.8000000119,8065,WL,B,14.0
3,48.60099983215332,learn,11399.00016784668,Mon Dec 15 2025 09:12:19 GMT-0600 (Central Standard Time),383775.40000003576,A,enter,I,enter,9987,2,9996.5,373778.90000003576,8065,WL,B,15.0
4,0.9000000953674316,learn,59099.99990463257,Mon Dec 15 2025 09:12:19 GMT-0600 (Central Standard Time),451204.3000000119,A,s,I,s,893,2,899.5,450304.8000000119,8065,WL,B,1.0
4,1.433000087738037,learn,58566.99991226196,Mon Dec 15 2025 09:12:19 GMT-0600 (Central Standard Time),451737.60000002384,A,st,I,t,520,2,1432.800000011921,450304.8000000119,8065,WL,B,1.0
4,1.8320000171661377,learn,58167.99998283386,Mon Dec 15 2025 09:12:19 GMT-0600 (Central Standard Time),452137.10000002384,A,str,I,r,380,2,1832.300000011921,450304.8000000119,8065,WL,B,1.0
4,2.0989999771118164,learn,57901.00002288818,Mon Dec 15 2025 09:12:19 GMT-0600 (Central Standard Time),452403.90000003576,A,stre,I,e,260,2,2099.100000023842,450304.8000000119,8065,WL,B,1.0
4,2.2660000324249268,learn,57733.99996757507,Mon Dec 15 2025 09:12:19 GMT-0600 (Central Standard Time),452570.5,A,stree,I,e,154,2,2265.699999988079,450304.8000000119,8065,WL,B,1.0
4,2.499000072479248,learn,57500.99992752075,Mon Dec 15 2025 09:12:19 GMT-0600 (Central Standard Time),452803.8000000119,A,street,I,t,219,2,2499.0,450304.8000000119,8065,WL,B,1.0
4,2.7990000247955322,learn,57200.99997520447,Mon Dec 15 2025 09:12:19 GMT-0600 (Central Standard Time),453103.8000000119,A,streetenter,I,enter,290,2,2799.0,450304.8000000119,8065,WL,B,1.0
4,3.449000120162964,learn,56550.999879837036,Mon Dec 15 2025 09:12:19 GMT-0600 (Central Standard Time),453753.8000000119,A,g,I,g,638,2,649.6999999880791,453104.10000002384,8065,WL,B,2.0
4,3.631999969482422,learn,56368.00003051758,Mon Dec 15 2025 09:12:19 GMT-0600 (Central Standard Time),453936.5,A,gr,I,r,172,2,832.3999999761581,453104.10000002384,8065,WL,B,2.0
4,4.315000057220459,learn,55684.99994277954,Mon Dec 15 2025 09:12:19 GMT-0600 (Central Standard Time),454619.7000000477,A,grs,I,s,677,2,1515.6000000238419,453104.10000002384,8065,WL,B,2.0
4,4.499000072479248,learn,55500.99992752075,Mon Dec 15 2025 09:12:19 GMT-0600 (Central Standard Time),454803.2000000477,A,grss,I,s,178,2,1699.1000000238419,453104.10000002384,8065,WL,B,2.0
4,4.748000144958496,learn,55251.999855041504,Mon Dec 15 2025 09:12:19 GMT-0600 (Central Standard Time),455052.8000000119,A,grssenter,I,enter,242,2,1948.699999988079,453104.10000002384,8065,WL,B,2.0
4,5.88100004196167,learn,54118.99995803833,Mon Dec 15 2025 09:12:19 GMT-0600 (Central Standard Time),456185.90000003576,A,d,I,d,1113,2,1132.699999988079,455053.2000000477,8065,WL,B,3.0
4,6.0980000495910645,learn,53901.999950408936,Mon Dec 15 2025 09:12:19 GMT-0600 (Central Standard Time),456402.5,A,do,I,o,211,2,1349.2999999523163,455053.2000000477,8065,WL,B,3.0
4,6.281000137329102,learn,53718.9998626709,Mon Dec 15 2025 09:12:19 GMT-0600 (Central Standard Time),456586.10000002384,A,doo,I,o,179,2,1532.8999999761581,455053.2000000477,8065,WL,B,3.0
4,6.564000129699707,learn,53435.99987030029,Mon Dec 15 2025 09:12:19 GMT-0600 (Central Standard Time),456869.0,A,door,I,r,275,2,1815.7999999523163,455053.2000000477,8065,WL,B,3.0
4,7.38100004196167,learn,52618.99995803833,Mon Dec 15 2025 09:12:19 GMT-0600 (Central Standard Time),457685.60000002384,A,doorenter,I,enter,808,2,2632.399999976158,455053.2000000477,8065,WL,B,3.0
4,8.94700002670288,learn,51052.99997329712,Mon Dec 15 2025 09:12:19 GMT-0600 (Central Standard Time),459251.7000000477,A,a,I,a,1552,2,1565.800000011921,457685.90000003576,8065,WL,B,4.0
4,9.230000019073486,learn,50769.999980926514,Mon Dec 15 2025 09:12:19 GMT-0600 (Central Standard Time),459535.0,A,ar,I,r,273,2,1849.0999999642372,457685.90000003576,8065,WL,B,4.0
4,9.46399998664856,learn,50536.00001335144,Mon Dec 15 2025 09:12:19 GMT-0600 (Central Standard Time),459768.3000000119,A,arm,I,m,215,2,2082.399999976158,457685.90000003576,8065,WL,B,4.0
4,10.246999979019165,learn,49753.000020980835,Mon Dec 15 2025 09:12:19 GMT-0600 (Central Standard Time),460551.40000003576,A,armenter,I,enter,766,2,2865.5,457685.90000003576,8065,WL,B,4.0
4,10.680000066757202,learn,49319.9999332428,Mon Dec 15 2025 09:12:19 GMT-0600 (Central Standard Time),460984.5,A,a,I,a,414,2,432.69999998807907,460551.8000000119,8065,WL,B,5.0
4,11.047000169754028,learn,48952.99983024597,Mon Dec 15 2025 09:12:19 GMT-0600 (Central Standard Time),461351.2000000477,A,at,I,t,357,2,799.4000000357628,460551.8000000119,8065,WL,B,5.0
4,11.641999959945679,learn,48358.00004005432,Mon Dec 15 2025 09:12:19 GMT-0600 (Central Standard Time),461946.40000003576,A,ata,I,a,590,2,1394.6000000238419,460551.8000000119,8065,WL,B,5.0
4,11.789000034332275,learn,48210.999965667725,Mon Dec 15 2025 09:12:19 GMT-0600 (Central Standard Time),462093.8000000119,A,atar,I,r,142,2,1542.0,460551.8000000119,8065,WL,B,5.0
4,12.628999948501587,learn,47371.00005149841,Mon Dec 15 2025 09:12:19 GMT-0600 (Central Standard Time),462933.60000002384,A,ata,I,backspace,830,2,2381.800000011921,460551.8000000119,8065,WL,B,5.0
4,13.496000051498413,learn,46503.99994850159,Mon Dec 15 2025 09:12:19 GMT-0600 (Central Standard Time),463800.3000000119,A,at,I,backspace,855,2,3248.5,460551.8000000119,8065,WL,B,5.0
4,13.729000091552734,learn,46270.999908447266,Mon Dec 15 2025 09:12:19 GMT-0600 (Central Standard Time),464033.60000002384,A,a,I,backspace,213,2,3481.800000011921,460551.8000000119,8065,WL,B,5.0
4,13.896000146865845,learn,46103.999853134155,Mon Dec 15 2025 09:12:19 GMT-0600 (Central Standard Time),464200.10000002384,A,,I,backspace,148,2,3648.300000011921,460551.8000000119,8065,WL,B,5.0
4,14.029000043869019,learn,45970.99995613098,Mon Dec 15 2025 09:12:19 GMT-0600 (Central Standard Time),464333.40000003576,A,,I,backspace,118,2,3781.600000023842,460551.8000000119,8065,WL,B,5.0
4,14.161999940872192,learn,45838.00005912781,Mon Dec 15 2025 09:12:19 GMT-0600 (Central Standard Time),464466.7000000477,A,s,I,s,120,2,3914.900000035763,460551.8000000119,8065,WL,B,5.0
4,14.59500002861023,learn,45404.99997138977,Mon Dec 15 2025 09:12:19 GMT-0600 (Central Standard Time),464899.90000003576,A,st,I,t,427,2,4348.100000023842,460551.8000000119,8065,WL,B,5.0
4,14.911999940872192,learn,45088.00005912781,Mon Dec 15 2025 09:12:19 GMT-0600 (Central Standard Time),465216.60000002384,A,sta,I,a,298,2,4664.800000011921,460551.8000000119,8065,WL,B,5.0
4,15.17799997329712,learn,44822.00002670288,Mon Dec 15 2025 09:12:19 GMT-0600 (Central Standard Time),465482.90000003576,A,star,I,r,253,2,4931.100000023842,460551.8000000119,8065,WL,B,5.0
4,15.745000123977661,learn,44254.99987602234,Mon Dec 15 2025 09:12:19 GMT-0600 (Central Standard Time),466049.60000002384,A,starenter,I,enter,547,2,5497.800000011921,460551.8000000119,8065,WL,B,5.0
4,16.528000116348267,learn,43471.99988365173,Mon Dec 15 2025 09:12:19 GMT-0600 (Central Standard Time),466832.7000000477,A,w,I,w,772,2,782.8000000119209,466049.90000003576,8065,WL,B,6.0
4,16.728000164031982,learn,43271.99983596802,Mon Dec 15 2025 09:12:19 GMT-0600 (Central Standard Time),467032.7000000477,A,wi,I,i,181,2,982.8000000119209,466049.90000003576,8065,WL,B,6.0
4,17.844000101089478,learn,42155.99989891052,Mon Dec 15 2025 09:12:19 GMT-0600 (Central Standard Time),468148.90000003576,A,wif,I,f,1101,2,2099.0,466049.90000003576,8065,WL,B,6.0
4,17.99399995803833,learn,42006.00004196167,Mon Dec 15 2025 09:12:19 GMT-0600 (Central Standard Time),468298.7000000477,A,wife,I,e,145,2,2248.800000011921,466049.90000003576,8065,WL,B,6.0
4,18.261000156402588,learn,41738.99984359741,Mon Dec 15 2025 09:12:19 GMT-0600 (Central Standard Time),468565.60000002384,A,wifeenter,I,enter,251,2,2515.699999988079,466049.90000003576,8065,WL,B,6.0
4,19.011000156402588,learn,40988.99984359741,Mon Dec 15 2025 09:12:19 GMT-0600 (Central Standard Time),469315.3000000119,A,w,I,w,737,2,749.3999999761581,468565.90000003576,8065,WL,B,7.0
4,19.177000045776367,learn,40822.99995422363,Mon Dec 15 2025 09:12:19 GMT-0600 (Central Standard Time),469481.90000003576,A,wi,I,i,154,2,916.0,468565.90000003576,8065,WL,B,7.0
4,19.444000005722046,learn,40555.999994277954,Mon Dec 15 2025 09:12:19 GMT-0600 (Central Standard Time),469748.5,A,win,I,n,252,2,1182.5999999642372,468565.90000003576,8065,WL,B,7.0
4,19.759999990463257,learn,40240.00000953674,Mon Dec 15 2025 09:12:19 GMT-0600 (Central Standard Time),470064.90000003576,A,wind,I,d,305,2,1499.0,468565.90000003576,8065,WL,B,7.0
4,20.193000078201294,learn,39806.999921798706,Mon Dec 15 2025 09:12:19 GMT-0600 (Central Standard Time),470498.10000002384,A,windo,I,o,428,2,1932.199999988079,468565.90000003576,8065,WL,B,7.0
4,20.41000008583069,learn,39589.99991416931,Mon Dec 15 2025 09:12:19 GMT-0600 (Central Standard Time),470714.8000000119,A,window,I,w,204,2,2148.899999976158,468565.90000003576,8065,WL,B,7.0
4,21.860000133514404,learn,38139.999866485596,Mon Dec 15 2025 09:12:19 GMT-0600 (Central Standard Time),472164.3000000119,A,windowenter,I,enter,1443,2,3598.399999976158,468565.90000003576,8065,WL,B,7.0
4,22.542999982833862,learn,37457.00001716614,Mon Dec 15 2025 09:12:19 GMT-0600 (Central Standard Time),472847.40000003576,A,c,I,c,673,2,683.0,472164.40000003576,8065,WL,B,8.0
4,22.759999990463257,learn,37240.00000953674,Mon Dec 15 2025 09:12:19 GMT-0600 (Central Standard Time),473064.2000000477,A,ca,I,a,206,2,899.8000000119209,472164.40000003576,8065,WL,B,8.0
4,23.693000078201294,learn,36306.999921798706,Mon Dec 15 2025 09:12:19 GMT-0600 (Central Standard Time),473997.3000000119,A,cab,I,b,917,2,1832.8999999761581,472164.40000003576,8065,WL,B,8.0
4,23.842000007629395,learn,36157.999992370605,Mon Dec 15 2025 09:12:19 GMT-0600 (Central Standard Time),474146.90000003576,A,cabi,I,i,136,2,1982.5,472164.40000003576,8065,WL,B,8.0
4,24.2260000705719,learn,35773.9999294281,Mon Dec 15 2025 09:12:19 GMT-0600 (Central Standard Time),474530.3000000119,A,cabin,I,n,362,2,2365.899999976158,472164.40000003576,8065,WL,B,8.0
4,24.509000062942505,learn,35490.999937057495,Mon Dec 15 2025 09:12:19 GMT-0600 (Central Standard Time),474813.5,A,cabinenter,I,enter,275,2,2649.099999964237,472164.40000003576,8065,WL,B,8.0
4,24.7260000705719,learn,35273.9999294281,Mon Dec 15 2025 09:12:19 GMT-0600 (Central Standard Time),475030.3000000119,A,c,I,c,200,2,216.5,474813.8000000119,8065,WL,B,9.0
4,24.924999952316284,learn,35075.000047683716,Mon Dec 15 2025 09:12:19 GMT-0600 (Central Standard Time),475230.10000002384,A,ci,I,i,191,2,416.30000001192093,474813.8000000119,8065,WL,B,9.0
4,25.174999952316284,learn,34825.000047683716,Mon Dec 15 2025 09:12:19 GMT-0600 (Central Standard Time),475480.0,A,cit,I,t,240,2,666.1999999880791,474813.8000000119,8065,WL,B,9.0
4,25.325000047683716,learn,34674.999952316284,Mon Dec 15 2025 09:12:19 GMT-0600 (Central Standard Time),475629.8000000119,A,city,I,y,143,2,816.0,474813.8000000119,8065,WL,B,9.0
4,25.725000143051147,learn,34274.99985694885,Mon Dec 15 2025 09:12:19 GMT-0600 (Central Standard Time),476029.40000003576,A,cityenter,I,enter,391,2,1215.6000000238419,474813.8000000119,8065,WL,B,9.0
4,26.14199995994568,learn,33858.00004005432,Mon Dec 15 2025 09:12:19 GMT-0600 (Central Standard Time),476446.2000000477,A,l,I,l,408,2,416.60000002384186,476029.60000002384,8065,WL,B,10.0
4,26.325000047683716,learn,33674.999952316284,Mon Dec 15 2025 09:12:19 GMT-0600 (Central Standard Time),476629.8000000119,A,la,I,a,167,2,600.1999999880791,476029.60000002384,8065,WL,B,10.0
4,26.52500009536743,learn,33474.99990463257,Mon Dec 15 2025 09:12:19 GMT-0600 (Central Standard Time),476829.5,A,lak,I,k,184,2,799.8999999761581,476029.60000002384,8065,WL,B,10.0
4,26.70799994468689,learn,33292.00005531311,Mon Dec 15 2025 09:12:19 GMT-0600 (Central Standard Time),477013.10000002384,A,lake,I,e,176,2,983.5,476029.60000002384,8065,WL,B,10.0
4,27.258000135421753,learn,32741.999864578247,Mon Dec 15 2025 09:12:19 GMT-0600 (Central Standard Time),477562.7000000477,A,lakeenter,I,enter,530,2,1533.1000000238419,476029.60000002384,8065,WL,B,10.0
4,28.008000135421753,learn,31991.999864578247,Mon Dec 15 2025 09:12:19 GMT-0600 (Central Standard Time),478312.5,A,p,I,p,739,2,749.5,477563.0,8065,WL,B,11.0
4,28.29100012779236,learn,31708.99987220764,Mon Dec 15 2025 09:12:19 GMT-0600 (Central Standard Time),478596.60000002384,A,pi,I,i,277,2,1033.6000000238419,477563.0,8065,WL,B,11.0
4,28.624000072479248,learn,31375.999927520752,Mon Dec 15 2025 09:12:19 GMT-0600 (Central Standard Time),478928.7000000477,A,pip,I,p,321,2,1365.7000000476837,477563.0,8065,WL,B,11.0
4,28.85700011253357,learn,31142.99988746643,Mon Dec 15 2025 09:12:19 GMT-0600 (Central Standard Time),479162.3000000119,A,pipe,I,e,213,2,1599.300000011921,477563.0,8065,WL,B,11.0
4,29.69000005722046,learn,30309.99994277954,Mon Dec 15 2025 09:12:19 GMT-0600 (Central Standard Time),479995.10000002384,A,pipeenter,I,enter,827,2,2432.100000023842,477563.0,8065,WL,B,11.0
4,33.00600004196167,learn,26993.99995803833,Mon Dec 15 2025 09:12:19 GMT-0600 (Central Standard Time),483310.90000003576,A,p,I,p,3306,2,3315.600000023842,479995.3000000119,8065,WL,B,12.0
4,33.371999979019165,learn,26628.000020980835,Mon Dec 15 2025 09:12:19 GMT-0600 (Central Standard Time),483677.40000003576,A,pu,I,u,350,2,3682.100000023842,479995.3000000119,8065,WL,B,12.0
4,33.855000019073486,learn,26144.999980926514,Mon Dec 15 2025 09:12:19 GMT-0600 (Central Standard Time),484160.60000002384,A,pup,I,p,472,2,4165.300000011921,479995.3000000119,8065,WL,B,12.0
4,34.138999938964844,learn,25861.000061035156,Mon Dec 15 2025 09:12:19 GMT-0600 (Central Standard Time),484443.90000003576,A,pupi,I,i,277,2,4448.600000023842,479995.3000000119,8065,WL,B,12.0
4,34.50600004196167,learn,25493.99995803833,Mon Dec 15 2025 09:12:19 GMT-0600 (Central Standard Time),484810.7000000477,A,pupil,I,l,345,2,4815.400000035763,479995.3000000119,8065,WL,B,12.0
4,34.90499997138977,learn,25095.00002861023,Mon Dec 15 2025 09:12:19 GMT-0600 (Central Standard Time),485210.2000000477,A,pupilenter,I,enter,380,2,5214.900000035763,479995.3000000119,8065,WL,B,12.0
4,36.271000146865845,learn,23728.999853134155,Mon Dec 15 2025 09:12:19 GMT-0600 (Central Standard Time),486576.5,A,s,I,s,1348,2,1366.0,485210.5,8065,WL,B,13.0
4,36.437999963760376,learn,23562.000036239624,Mon Dec 15 2025 09:12:19 GMT-0600 (Central Standard Time),486743.2000000477,A,sk,I,k,157,2,1532.7000000476837,485210.5,8065,WL,B,13.0
4,36.687999963760376,learn,23312.000036239624,Mon Dec 15 2025 09:12:19 GMT-0600 (Central Standard Time),486993.40000003576,A,ski,I,i,230,2,1782.9000000357628,485210.5,8065,WL,B,13.0
4,36.98800015449524,learn,23011.99984550476,Mon Dec 15 2025 09:12:19 GMT-0600 (Central Standard Time),487293.0,A,skin,I,n,284,2,2082.5,485210.5,8065,WL,B,13.0
4,37.28800010681152,learn,22711.999893188477,Mon Dec 15 2025 09:12:19 GMT-0600 (Central Standard Time),487592.8000000119,A,skinenter,I,enter,279,2,2382.300000011921,485210.5,8065,WL,B,13.0
4,38.104000091552734,learn,21895.999908447266,Mon Dec 15 2025 09:12:19 GMT-0600 (Central Standard Time),488409.40000003576,A,f,I,f,805,2,816.3000000119209,487593.10000002384,8065,WL,B,14.0
4,38.271000146865845,learn,21728.999853134155,Mon Dec 15 2025 09:12:19 GMT-0600 (Central Standard Time),488575.90000003576,A,fi,I,i,148,2,982.8000000119209,487593.10000002384,8065,WL,B,14.0
4,38.53699994087219,learn,21463.000059127808,Mon Dec 15 2025 09:12:19 GMT-0600 (Central Standard Time),488842.60000002384,A,fir,I,r,247,2,1249.5,487593.10000002384,8065,WL,B,14.0
4,38.6710000038147,learn,21328.999996185303,Mon Dec 15 2025 09:12:19 GMT-0600 (Central Standard Time),488975.7000000477,A,fire,I,e,123,2,1382.6000000238419,487593.10000002384,8065,WL,B,14.0
4,38.90400004386902,learn,21095.99995613098,Mon Dec 15 2025 09:12:19 GMT-0600 (Central Standard Time),489209.0,A,fireenter,I,enter,214,2,1615.8999999761581,487593.10000002384,8065,WL,B,14.0
4,43.96900010108948,learn,16030.999898910522,Mon Dec 15 2025 09:12:19 GMT-0600 (Central Standard Time),494274.2000000477,A,c,I,c,5045,2,5064.800000011921,489209.40000003576,8065,WL,B,15.0
4,44.11899995803833,learn,15881.00004196167,Mon Dec 15 2025 09:12:19 GMT-0600 (Central Standard Time),494424.5,A,cl,I,l,130,2,5215.099999964237,489209.40000003576,8065,WL,B,15.0
4,44.335999965667725,learn,15664.000034332275,Mon Dec 15 2025 09:12:19 GMT-0600 (Central Standard Time),494640.60000002384,A,clo,I,o,197,2,5431.199999988079,489209.40000003576,8065,WL,B,15.0
4,44.46900010108948,learn,15530.999898910522,Mon Dec 15 2025 09:12:19 GMT-0600 (Central Standard Time),494773.90000003576,A,cloc,I,c,116,2,5564.5,489209.40000003576,8065,WL,B,15.0
4,44.7020001411438,learn,15297.999858856201,Mon Dec 15 2025 09:12:19 GMT-0600 (Central Standard Time),495007.3000000119,A,clock,I,k,215,2,5797.899999976158,489209.40000003576,8065,WL,B,15.0
4,44.91900014877319,learn,15080.999851226807,Mon Dec 15 2025 09:12:19 GMT-0600 (Central Standard Time),495223.8000000119,A,clockenter,I,enter,206,2,6014.399999976158,489209.40000003576,8065,WL,B,15.0
5,1.0490000247955322,learn,60000.0,Mon Dec 15 2025 09:12:19 GMT-0600 (Central Standard Time),561320.2000000477,A,s,I,s,1039,2,1048.7000000476837,560271.5,8065,WL,B,1.0
5,1.38100004196167,learn,60000.0,Mon Dec 15 2025 09:12:19 GMT-0600 (Central Standard Time),561652.8000000119,A,st,I,t,324,2,1381.300000011921,560271.5,8065,WL,B,1.0
5,1.681999921798706,learn,60000.0,Mon Dec 15 2025 09:12:19 GMT-0600 (Central Standard Time),561953.1000000238,A,str,I,r,281,2,1681.6000000238419,560271.5,8065,WL,B,1.0
5,2.0309998989105225,learn,60000.0,Mon Dec 15 2025 09:12:19 GMT-0600 (Central Standard Time),562303.0,A,stre,I,e,340,2,2031.5,560271.5,8065,WL,B,1.0
5,2.2649998664855957,learn,60000.0,Mon Dec 15 2025 09:12:19 GMT-0600 (Central Standard Time),562536.3000000119,A,stree,I,e,214,2,2264.800000011921,560271.5,8065,WL,B,1.0
5,2.7309999465942383,learn,60000.0,Mon Dec 15 2025 09:12:19 GMT-0600 (Central Standard Time),563002.7000000477,A,street,I,t,453,2,2731.2000000476837,560271.5,8065,WL,B,1.0
5,3.0309998989105225,learn,60000.0,Mon Dec 15 2025 09:12:19 GMT-0600 (Central Standard Time),563302.6000000238,A,streetenter,I,enter,282,2,3031.100000023842,560271.5,8065,WL,B,1.0
5,3.7809998989105225,learn,60000.0,Mon Dec 15 2025 09:12:19 GMT-0600 (Central Standard Time),564052.3000000119,A,g,I,g,743,2,749.3000000119209,563303.0,8065,WL,B,2.0
5,3.9639999866485596,learn,60000.0,Mon Dec 15 2025 09:12:19 GMT-0600 (Central Standard Time),564235.7000000477,A,gr,I,r,169,2,932.7000000476837,563303.0,8065,WL,B,2.0
5,4.246999979019165,learn,60000.0,Mon Dec 15 2025 09:12:19 GMT-0600 (Central Standard Time),564519.0,A,gra,I,a,273,2,1216.0,563303.0,8065,WL,B,2.0
5,4.629999876022339,learn,60000.0,Mon Dec 15 2025 09:12:19 GMT-0600 (Central Standard Time),564901.8000000119,A,gras,I,s,367,2,1598.800000011921,563303.0,8065,WL,B,2.0
5,4.813999891281128,learn,60000.0,Mon Dec 15 2025 09:12:19 GMT-0600 (Central Standard Time),565085.3000000119,A,grass,I,s,176,2,1782.300000011921,563303.0,8065,WL,B,2.0
5,5.063999891281128,learn,60000.0,Mon Dec 15 2025 09:12:19 GMT-0600 (Central Standard Time),565335.2000000477,A,grassenter,I,enter,232,2,2032.2000000476837,563303.0,8065,WL,B,2.0
5,5.829999923706055,learn,60000.0,Mon Dec 15 2025 09:12:19 GMT-0600 (Central Standard Time),566101.5,A,d,I,d,759,2,766.0,565335.5,8065,WL,B,3.0
5,6.079999923706055,learn,60000.0,Mon Dec 15 2025 09:12:19 GMT-0600 (Central Standard Time),566351.7000000477,A,do,I,o,232,2,1016.2000000476837,565335.5,8065,WL,B,3.0
5,6.263000011444092,learn,60000.0,Mon Dec 15 2025 09:12:19 GMT-0600 (Central Standard Time),566534.8000000119,A,doo,I,o,166,2,1199.300000011921,565335.5,8065,WL,B,3.0
5,6.579999923706055,learn,60000.0,Mon Dec 15 2025 09:12:19 GMT-0600 (Central Standard Time),566851.1000000238,A,door,I,r,310,2,1515.6000000238419,565335.5,8065,WL,B,3.0
5,6.8459999561309814,learn,60000.0,Mon Dec 15 2025 09:12:19 GMT-0600 (Central Standard Time),567118.1000000238,A,doorenter,I,enter,250,2,1782.6000000238419,565335.5,8065,WL,B,3.0
5,7.129999876022339,learn,60000.0,Mon Dec 15 2025 09:12:19 GMT-0600 (Central Standard Time),567401.3000000119,A,a,I,a,271,2,282.80000001192093,567118.5,8065,WL,B,4.0
5,7.5299999713897705,learn,60000.0,Mon Dec 15 2025 09:12:19 GMT-0600 (Central Standard Time),567801.1000000238,A,ar,I,r,388,2,682.6000000238419,567118.5,8065,WL,B,4.0
5,7.86299991607666,learn,60000.0,Mon Dec 15 2025 09:12:19 GMT-0600 (Central Standard Time),568134.2000000477,A,arm,I,m,324,2,1015.7000000476837,567118.5,8065,WL,B,4.0
5,8.11299991607666,learn,60000.0,Mon Dec 15 2025 09:12:19 GMT-0600 (Central Standard Time),568384.1000000238,A,armenter,I,enter,239,2,1265.6000000238419,567118.5,8065,WL,B,4.0
5,8.44599986076355,learn,60000.0,Mon Dec 15 2025 09:12:19 GMT-0600 (Central Standard Time),568717.4000000358,A,s,I,s,326,2,333.10000002384186,568384.3000000119,8065,WL,B,5.0
5,8.779000043869019,learn,60000.0,Mon Dec 15 2025 09:12:19 GMT-0600 (Central Standard Time),569050.7000000477,A,st,I,t,328,2,666.4000000357628,568384.3000000119,8065,WL,B,5.0
5,9.161999940872192,learn,60000.0,Mon Dec 15 2025 09:12:19 GMT-0600 (Central Standard Time),569433.8000000119,A,sta,I,a,371,2,1049.5,568384.3000000119,8065,WL,B,5.0
5,9.44599986076355,learn,60000.0,Mon Dec 15 2025 09:12:19 GMT-0600 (Central Standard Time),569717.1000000238,A,star,I,r,276,2,1332.800000011921,568384.3000000119,8065,WL,B,5.0
5,10.279000043869019,learn,60000.0,Mon Dec 15 2025 09:12:19 GMT-0600 (Central Standard Time),570550.3000000119,A,starenter,I,enter,824,2,2166.0,568384.3000000119,8065,WL,B,5.0
5,10.911999940872192,learn,60000.0,Mon Dec 15 2025 09:12:19 GMT-0600 (Central Standard Time),571183.2000000477,A,w,I,w,615,2,632.6000000238419,570550.6000000238,8065,WL,B,6.0
5,11.144999980926514,learn,60000.0,Mon Dec 15 2025 09:12:19 GMT-0600 (Central Standard Time),571416.6000000238,A,wi,I,i,214,2,866.0,570550.6000000238,8065,WL,B,6.0
5,11.411999940872192,learn,60000.0,Mon Dec 15 2025 09:12:19 GMT-0600 (Central Standard Time),571683.1000000238,A,wif,I,f,261,2,1132.5,570550.6000000238,8065,WL,B,6.0
5,11.527999877929688,learn,60000.0,Mon Dec 15 2025 09:12:19 GMT-0600 (Central Standard Time),571799.9000000358,A,wife,I,e,98,2,1249.300000011921,570550.6000000238,8065,WL,B,6.0
5,11.777999877929688,learn,60000.0,Mon Dec 15 2025 09:12:19 GMT-0600 (Central Standard Time),572049.8000000119,A,wifeenter,I,enter,230,2,1499.199999988079,570550.6000000238,8065,WL,B,6.0
5,12.144999980926514,learn,60000.0,Mon Dec 15 2025 09:12:19 GMT-0600 (Central Standard Time),572416.3000000119,A,w,I,w,356,2,366.0,572050.3000000119,8065,WL,B,7.0
5,12.41100001335144,learn,60000.0,Mon Dec 15 2025 09:12:19 GMT-0600 (Central Standard Time),572682.8000000119,A,wi,I,i,253,2,632.5,572050.3000000119,8065,WL,B,7.0
5,12.793999910354614,learn,60000.0,Mon Dec 15 2025 09:12:19 GMT-0600 (Central Standard Time),573066.0,A,win,I,n,363,2,1015.6999999880791,572050.3000000119,8065,WL,B,7.0
5,13.027999877929688,learn,60000.0,Mon Dec 15 2025 09:12:19 GMT-0600 (Central Standard Time),573299.4000000358,A,wind,I,d,228,2,1249.1000000238419,572050.3000000119,8065,WL,B,7.0
5,13.343999862670898,learn,60000.0,Mon Dec 15 2025 09:12:19 GMT-0600 (Central Standard Time),573615.8000000119,A,windo,I,o,306,2,1565.5,572050.3000000119,8065,WL,B,7.0
5,13.760999917984009,learn,60000.0,Mon Dec 15 2025 09:12:19 GMT-0600 (Central Standard Time),574032.6000000238,A,window,I,w,406,2,1982.300000011921,572050.3000000119,8065,WL,B,7.0
5,14.010999917984009,learn,60000.0,Mon Dec 15 2025 09:12:19 GMT-0600 (Central Standard Time),574282.7000000477,A,windowenter,I,enter,229,2,2232.400000035763,572050.3000000119,8065,WL,B,7.0
5,14.776999950408936,learn,60000.0,Mon Dec 15 2025 09:12:19 GMT-0600 (Central Standard Time),575048.9000000358,A,c,I,c,747,2,765.9000000357628,574283.0,8065,WL,B,8.0
5,14.99399995803833,learn,60000.0,Mon Dec 15 2025 09:12:19 GMT-0600 (Central Standard Time),575265.4000000358,A,ci,I,i,205,2,982.4000000357628,574283.0,8065,WL,B,8.0
5,15.293999910354614,learn,60000.0,Mon Dec 15 2025 09:12:19 GMT-0600 (Central Standard Time),575565.5,A,cit,I,t,292,2,1282.5,574283.0,8065,WL,B,8.0
5,15.444999933242798,learn,60000.0,Mon Dec 15 2025 09:12:19 GMT-0600 (Central Standard Time),575716.2000000477,A,city,I,y,144,2,1433.2000000476837,574283.0,8065,WL,B,8.0
5,15.910000085830688,learn,60000.0,Mon Dec 15 2025 09:12:19 GMT-0600 (Central Standard Time),576181.7000000477,A,cityenter,I,enter,449,2,1898.7000000476837,574283.0,8065,WL,B,8.0
5,16.759999990463257,learn,60000.0,Mon Dec 15 2025 09:12:19 GMT-0600 (Central Standard Time),577031.8000000119,A,c,I,c,832,2,849.5999999642372,576182.2000000477,8065,WL,B,9.0
5,16.927000045776367,learn,60000.0,Mon Dec 15 2025 09:12:19 GMT-0600 (Central Standard Time),577198.2000000477,A,ca,I,a,157,2,1016.0,576182.2000000477,8065,WL,B,9.0
5,18.259000062942505,learn,60000.0,Mon Dec 15 2025 09:12:19 GMT-0600 (Central Standard Time),578530.8000000119,A,cab,I,b,1327,2,2348.599999964237,576182.2000000477,8065,WL,B,9.0
5,18.443000078201294,learn,60000.0,Mon Dec 15 2025 09:12:19 GMT-0600 (Central Standard Time),578714.3000000119,A,cabi,I,i,171,2,2532.099999964237,576182.2000000477,8065,WL,B,9.0
5,18.776000022888184,learn,60000.0,Mon Dec 15 2025 09:12:19 GMT-0600 (Central Standard Time),579047.5,A,cabin,I,n,315,2,2865.2999999523163,576182.2000000477,8065,WL,B,9.0
5,19.651000022888184,learn,60000.0,Mon Dec 15 2025 09:12:19 GMT-0600 (Central Standard Time),579922.3000000119,A,cabinenter,I,enter,726,2,3740.099999964237,576182.2000000477,8065,WL,B,9.0
5,20.45899987220764,learn,60000.0,Mon Dec 15 2025 09:12:19 GMT-0600 (Central Standard Time),580730.5,A,l,I,l,787,2,807.8999999761581,579922.6000000238,8065,WL,B,10.0
5,20.658999919891357,learn,60000.0,Mon Dec 15 2025 09:12:19 GMT-0600 (Central Standard Time),580930.3000000119,A,la,I,a,187,2,1007.6999999880791,579922.6000000238,8065,WL,B,10.0
5,20.842000007629395,learn,60000.0,Mon Dec 15 2025 09:12:19 GMT-0600 (Central Standard Time),581113.5,A,lak,I,k,171,2,1190.8999999761581,579922.6000000238,8065,WL,B,10.0
5,21.075000047683716,learn,60000.0,Mon Dec 15 2025 09:12:19 GMT-0600 (Central Standard Time),581346.8000000119,A,lake,I,e,220,2,1424.199999988079,579922.6000000238,8065,WL,B,10.0
5,21.89199995994568,learn,60000.0,Mon Dec 15 2025 09:12:19 GMT-0600 (Central Standard Time),582163.3000000119,A,lakeenter,I,enter,803,2,2240.699999988079,579922.6000000238,8065,WL,B,10.0
5,22.757999897003174,learn,60000.0,Mon Dec 15 2025 09:12:19 GMT-0600 (Central Standard Time),583029.8000000119,A,p,I,p,858,2,866.1999999880791,582163.6000000238,8065,WL,B,11.0
5,23.04099988937378,learn,60000.0,Mon Dec 15 2025 09:12:19 GMT-0600 (Central Standard Time),583313.0,A,pi,I,i,264,2,1149.3999999761581,582163.6000000238,8065,WL,B,11.0
5,23.323999881744385,learn,60000.0,Mon Dec 15 2025 09:12:19 GMT-0600 (Central Standard Time),583596.0,A,pip,I,p,268,2,1432.3999999761581,582163.6000000238,8065,WL,B,11.0
5,23.54099988937378,learn,60000.0,Mon Dec 15 2025 09:12:19 GMT-0600 (Central Standard Time),583812.5,A,pipe,I,e,200,2,1648.8999999761581,582163.6000000238,8065,WL,B,11.0
5,23.723999977111816,learn,60000.0,Mon Dec 15 2025 09:12:19 GMT-0600 (Central Standard Time),583995.9000000358,A,pipeenter,I,enter,177,2,1832.300000011921,582163.6000000238,8065,WL,B,11.0
5,24.35800004005432,learn,60000.0,Mon Dec 15 2025 09:12:19 GMT-0600 (Central Standard Time),584629.3000000119,A,p,I,p,617,2,633.0,583996.3000000119,8065,WL,B,12.0
5,24.907999992370605,learn,60000.0,Mon Dec 15 2025 09:12:19 GMT-0600 (Central Standard Time),585180.1000000238,A,pu,I,u,544,2,1183.800000011921,583996.3000000119,8065,WL,B,12.0
5,25.44099998474121,learn,60000.0,Mon Dec 15 2025 09:12:19 GMT-0600 (Central Standard Time),585712.1000000238,A,pup,I,p,513,2,1715.800000011921,583996.3000000119,8065,WL,B,12.0
5,25.723999977111816,learn,60000.0,Mon Dec 15 2025 09:12:19 GMT-0600 (Central Standard Time),585995.6000000238,A,pupi,I,i,269,2,1999.300000011921,583996.3000000119,8065,WL,B,12.0
5,26.60699987411499,learn,60000.0,Mon Dec 15 2025 09:12:19 GMT-0600 (Central Standard Time),586878.4000000358,A,pupil,I,l,866,2,2882.100000023842,583996.3000000119,8065,WL,B,12.0
5,26.806999921798706,learn,60000.0,Mon Dec 15 2025 09:12:19 GMT-0600 (Central Standard Time),587078.3000000119,A,pupilenter,I,enter,183,2,3082.0,583996.3000000119,8065,WL,B,12.0
5,27.5239999294281,learn,60000.0,Mon Dec 15 2025 09:12:19 GMT-0600 (Central Standard Time),587795.1000000238,A,c,I,c,703,2,716.3999999761581,587078.7000000477,8065,WL,B,13.0
5,27.706000089645386,learn,60000.0,Mon Dec 15 2025 09:12:19 GMT-0600 (Central Standard Time),587978.0,A,cl,I,l,178,2,899.2999999523163,587078.7000000477,8065,WL,B,13.0
5,27.973000049591064,learn,60000.0,Mon Dec 15 2025 09:12:19 GMT-0600 (Central Standard Time),588244.8000000119,A,clo,I,o,252,2,1166.0999999642372,587078.7000000477,8065,WL,B,13.0
5,28.25600004196167,learn,60000.0,Mon Dec 15 2025 09:12:19 GMT-0600 (Central Standard Time),588528.1000000238,A,cloc,I,c,265,2,1449.3999999761581,587078.7000000477,8065,WL,B,13.0
5,28.4229998588562,learn,60000.0,Mon Dec 15 2025 09:12:19 GMT-0600 (Central Standard Time),588694.5,A,clock,I,k,149,2,1615.7999999523163,587078.7000000477,8065,WL,B,13.0
5,28.872999906539917,learn,60000.0,Mon Dec 15 2025 09:12:19 GMT-0600 (Central Standard Time),589144.6000000238,A,clockenter,I,enter,439,2,2065.899999976158,587078.7000000477,8065,WL,B,13.0
5,29.723000049591064,learn,60000.0,Mon Dec 15 2025 09:12:19 GMT-0600 (Central Standard Time),589994.1000000238,A,f,I,f,845,2,849.1999999880791,589144.9000000358,8065,WL,B,14.0
5,29.92199993133545,learn,60000.0,Mon Dec 15 2025 09:12:19 GMT-0600 (Central Standard Time),590193.9000000358,A,fi,I,i,196,2,1049.0,589144.9000000358,8065,WL,B,14.0
5,30.23900008201599,learn,60000.0,Mon Dec 15 2025 09:12:19 GMT-0600 (Central Standard Time),590510.7000000477,A,fir,I,r,307,2,1365.800000011921,589144.9000000358,8065,WL,B,14.0
5,30.48900008201599,learn,60000.0,Mon Dec 15 2025 09:12:19 GMT-0600 (Central Standard Time),590760.5,A,fire,I,e,231,2,1615.5999999642372,589144.9000000358,8065,WL,B,14.0
5,30.789000034332275,learn,60000.0,Mon Dec 15 2025 09:12:19 GMT-0600 (Central Standard Time),591060.7000000477,A,fireenter,I,enter,285,2,1915.800000011921,589144.9000000358,8065,WL,B,14.0
5,31.48900008201599,learn,60000.0,Mon Dec 15 2025 09:12:19 GMT-0600 (Central Standard Time),591760.4000000358,A,s,I,s,689,2,699.5,591060.9000000358,8065,WL,B,15.0
5,31.73900008201599,learn,60000.0,Mon Dec 15 2025 09:12:19 GMT-0600 (Central Standard Time),592010.2000000477,A,sk,I,k,245,2,949.3000000119209,591060.9000000358,8065,WL,B,15.0
5,32.0220000743866,learn,60000.0,Mon Dec 15 2025 09:12:19 GMT-0600 (Central Standard Time),592293.6000000238,A,ski,I,i,267,2,1232.699999988079,591060.9000000358,8065,WL,B,15.0
5,32.47199988365173,learn,60000.0,Mon Dec 15 2025 09:12:19 GMT-0600 (Central Standard Time),592743.1000000238,A,skin,I,n,432,2,1682.199999988079,591060.9000000358,8065,WL,B,15.0
5,32.92199993133545,learn,60000.0,Mon Dec 15 2025 09:12:19 GMT-0600 (Central Standard Time),593193.3000000119,A,skinenter,I,enter,429,2,2132.399999976158,591060.9000000358,8065,WL,B,15.0
6,1.0340001583099365,distr,58965.99984169006,Mon Dec 15 2025 09:12:19 GMT-0600 (Central Standard Time),666603.7000000477,B,o,I,o,1020,2,1033.300000011921,665570.4000000358,8065,WL,B,1.0
6,1.183000087738037,distr,58816.99991226196,Mon Dec 15 2025 09:12:19 GMT-0600 (Central Standard Time),666753.4000000358,B,oc,I,c,129,2,1183.0,665570.4000000358,8065,WL,B,1.0
6,1.383000135421753,distr,58616.99986457825,Mon Dec 15 2025 09:12:19 GMT-0600 (Central Standard Time),666953.5,B,oce,I,e,188,2,1383.0999999642372,665570.4000000358,8065,WL,B,1.0
6,1.8000001907348633,distr,58199.99980926514,Mon Dec 15 2025 09:12:19 GMT-0600 (Central Standard Time),667370.2000000477,B,ocea,I,a,395,2,1799.800000011921,665570.4000000358,8065,WL,B,1.0
6,2.200000047683716,distr,57799.999952316284,Mon Dec 15 2025 09:12:19 GMT-0600 (Central Standard Time),667770.1000000238,B,ocean,I,n,387,2,2199.699999988079,665570.4000000358,8065,WL,B,1.0
6,2.5,distr,57500.0,Mon Dec 15 2025 09:12:19 GMT-0600 (Central Standard Time),668069.8000000119,B,oceanenter,I,enter,291,2,2499.399999976158,665570.4000000358,8065,WL,B,1.0
6,2.7160000801086426,distr,57283.99991989136,Mon Dec 15 2025 09:12:19 GMT-0600 (Central Standard Time),668286.2000000477,B,f,I,f,200,2,216.0,668070.2000000477,8065,WL,B,2.0
6,2.9000000953674316,distr,57099.99990463257,Mon Dec 15 2025 09:12:19 GMT-0600 (Central Standard Time),668469.6000000238,B,fr,I,r,167,2,399.39999997615814,668070.2000000477,8065,WL,B,2.0
6,3.0830001831054688,distr,56916.99981689453,Mon Dec 15 2025 09:12:19 GMT-0600 (Central Standard Time),668653.0,B,fri,I,i,168,2,582.7999999523163,668070.2000000477,8065,WL,B,2.0
6,3.2660000324249268,distr,56733.99996757507,Mon Dec 15 2025 09:12:19 GMT-0600 (Central Standard Time),668836.3000000119,B,frie,I,e,176,2,766.0999999642372,668070.2000000477,8065,WL,B,2.0
6,3.449000120162964,distr,56550.999879837036,Mon Dec 15 2025 09:12:19 GMT-0600 (Central Standard Time),669019.5,B,frien,I,n,169,2,949.2999999523163,668070.2000000477,8065,WL,B,2.0
6,3.6670000553131104,distr,56332.99994468689,Mon Dec 15 2025 09:12:19 GMT-0600 (Central Standard Time),669237.4000000358,B,friend,I,d,201,2,1167.199999988079,668070.2000000477,8065,WL,B,2.0
6,3.9160001277923584,distr,56083.99987220764,Mon Dec 15 2025 09:12:19 GMT-0600 (Central Standard Time),669486.2000000477,B,friendenter,I,enter,240,2,1416.0,668070.2000000477,8065,WL,B,2.0
6,6.565000057220459,distr,53434.99994277954,Mon Dec 15 2025 09:12:19 GMT-0600 (Central Standard Time),672135.2000000477,B,b,I,b,2639,2,2648.7000000476837,669486.5,8065,WL,B,3.0
6,6.732000112533569,distr,53267.99988746643,Mon Dec 15 2025 09:12:19 GMT-0600 (Central Standard Time),672301.6000000238,B,ba,I,a,158,2,2815.100000023842,669486.5,8065,WL,B,3.0
6,6.815000057220459,distr,53184.99994277954,Mon Dec 15 2025 09:12:19 GMT-0600 (Central Standard Time),672385.2000000477,B,bab,I,b,72,2,2898.7000000476837,669486.5,8065,WL,B,3.0
6,7.0980000495910645,distr,52901.999950408936,Mon Dec 15 2025 09:12:19 GMT-0600 (Central Standard Time),672668.2000000477,B,baby,I,y,276,2,3181.7000000476837,669486.5,8065,WL,B,3.0
6,7.648000001907349,distr,52351.99999809265,Mon Dec 15 2025 09:12:19 GMT-0600 (Central Standard Time),673218.2000000477,B,babyenter,I,enter,537,2,3731.7000000476837,669486.5,8065,WL,B,3.0
6,11.414000034332275,distr,48585.999965667725,Mon Dec 15 2025 09:12:19 GMT-0600 (Central Standard Time),676983.7000000477,B,s,I,s,3756,2,3765.2000000476837,673218.5,8065,WL,B,4.0
6,11.847000122070312,distr,48152.99987792969,Mon Dec 15 2025 09:12:19 GMT-0600 (Central Standard Time),677417.1000000238,B,st,I,t,413,2,4198.600000023842,673218.5,8065,WL,B,4.0
6,12.013000011444092,distr,47986.99998855591,Mon Dec 15 2025 09:12:19 GMT-0600 (Central Standard Time),677583.4000000358,B,sto,I,o,149,2,4364.900000035763,673218.5,8065,WL,B,4.0
6,12.213000059127808,distr,47786.99994087219,Mon Dec 15 2025 09:12:19 GMT-0600 (Central Standard Time),677783.1000000238,B,stor,I,r,190,2,4564.600000023842,673218.5,8065,WL,B,4.0
6,12.413000106811523,distr,47586.99989318848,Mon Dec 15 2025 09:12:19 GMT-0600 (Central Standard Time),677983.3000000119,B,storm,I,m,182,2,4764.800000011921,673218.5,8065,WL,B,4.0
6,12.630000114440918,distr,47369.99988555908,Mon Dec 15 2025 09:12:19 GMT-0600 (Central Standard Time),678200.1000000238,B,stormenter,I,enter,206,2,4981.600000023842,673218.5,8065,WL,B,4.0
6,14.813000202178955,distr,45186.999797821045,Mon Dec 15 2025 09:12:19 GMT-0600 (Central Standard Time),680383.0,B,enter,I,enter,2165,2,2182.5,678200.5,8065,WL,B,5.0
6,15.34600019454956,distr,44653.99980545044,Mon Dec 15 2025 09:12:19 GMT-0600 (Central Standard Time),680915.8000000119,B,enter,I,enter,519,2,532.5,680383.3000000119,8065,WL,B,6.0
6,15.562000036239624,distr,44437.999963760376,Mon Dec 15 2025 09:12:19 GMT-0600 (Central Standard Time),681132.3000000119,B,enter,I,enter,210,2,216.0999999642372,680916.2000000477,8065,WL,B,7.0
6,16.528000116348267,distr,43471.99988365173,Mon Dec 15 2025 09:12:19 GMT-0600 (Central Standard Time),682098.5,B,enter,I,enter,961,2,965.7999999523163,681132.7000000477,8065,WL,B,8.0
6,16.895000219345093,distr,43104.99978065491,Mon Dec 15 2025 09:12:19 GMT-0600 (Central Standard Time),682465.2000000477,B,enter,I,enter,347,2,366.4000000357628,682098.8000000119,8065,WL,B,9.0
6,17.128000020980835,distr,42871.999979019165,Mon Dec 15 2025 09:12:19 GMT-0600 (Central Standard Time),682698.5,B,enter,I,enter,220,2,233.0,682465.5,8065,WL,B,10.0
6,17.795000076293945,distr,42204.999923706055,Mon Dec 15 2025 09:12:19 GMT-0600 (Central Standard Time),683365.1000000238,B,enter,I,enter,659,2,666.1999999880791,682698.9000000358,8065,WL,B,11.0
6,18.028000116348267,distr,41971.99988365173,Mon Dec 15 2025 09:12:19 GMT-0600 (Central Standard Time),683598.5,B,enter,I,enter,224,2,233.0999999642372,683365.4000000358,8065,WL,B,12.0
6,18.461000204086304,distr,41538.999795913696,Mon Dec 15 2025 09:12:19 GMT-0600 (Central Standard Time),684031.3000000119,B,enter,I,enter,423,2,432.5,683598.8000000119,8065,WL,B,13.0
6,18.82800006866455,distr,41171.99993133545,Mon Dec 15 2025 09:12:19 GMT-0600 (Central Standard Time),684397.7000000477,B,enter,I,enter,359,2,366.10000002384186,684031.6000000238,8065,WL,B,14.0
6,19.545000076293945,distr,40454.999923706055,Mon Dec 15 2025 09:12:19 GMT-0600 (Central Standard Time),685115.4000000358,B,enter,I,enter,704,2,717.3000000119209,684398.1000000238,8065,WL,B,15.0
7,0.35000014305114746,immed,59649.99985694885,Mon Dec 15 2025 09:12:19 GMT-0600 (Central Standard Time),698826.8000000119,A,s,I,s,337,2,349.39999997615814,698477.4000000358,8065,WL,B,1.0
7,0.749000072479248,immed,59250.99992752075,Mon Dec 15 2025 09:12:19 GMT-0600 (Central Standard Time),699226.4000000358,A,st,I,t,394,2,749.0,698477.4000000358,8065,WL,B,1.0
7,1.0490000247955322,immed,58950.99997520447,Mon Dec 15 2025 09:12:19 GMT-0600 (Central Standard Time),699526.5,A,str,I,r,291,2,1049.0999999642372,698477.4000000358,8065,WL,B,1.0
7,1.3489999771118164,immed,58651.00002288818,Mon Dec 15 2025 09:12:19 GMT-0600 (Central Standard Time),699826.4000000358,A,stre,I,e,279,2,1349.0,698477.4000000358,8065,WL,B,1.0
7,1.4830000400543213,immed,58516.99995994568,Mon Dec 15 2025 09:12:19 GMT-0600 (Central Standard Time),699959.9000000358,A,stree,I,e,115,2,1482.5,698477.4000000358,8065,WL,B,1.0
7,1.7660000324249268,immed,58233.99996757507,Mon Dec 15 2025 09:12:19 GMT-0600 (Central Standard Time),700242.8000000119,A,street,I,t,278,2,1765.3999999761581,698477.4000000358,8065,WL,B,1.0
7,2.0160000324249268,immed,57983.99996757507,Mon Dec 15 2025 09:12:19 GMT-0600 (Central Standard Time),700493.2000000477,A,streetenter,I,enter,235,2,2015.800000011921,698477.4000000358,8065,WL,B,1.0
7,2.499000072479248,immed,57500.99992752075,Mon Dec 15 2025 09:12:19 GMT-0600 (Central Standard Time),700976.2000000477,A,d,I,d,472,2,482.7000000476837,700493.5,8065,WL,B,2.0
7,2.7820000648498535,immed,57217.99993515015,Mon Dec 15 2025 09:12:19 GMT-0600 (Central Standard Time),701259.0,A,do,I,o,277,2,765.5,700493.5,8065,WL,B,2.0
7,2.9670000076293945,immed,57032.999992370605,Mon Dec 15 2025 09:12:19 GMT-0600 (Central Standard Time),701444.0,A,doo,I,o,171,2,950.5,700493.5,8065,WL,B,2.0
7,3.182000160217285,immed,56817.999839782715,Mon Dec 15 2025 09:12:19 GMT-0600 (Central Standard Time),701659.3000000119,A,door,I,r,194,2,1165.800000011921,700493.5,8065,WL,B,2.0
7,3.365000009536743,immed,56634.99999046326,Mon Dec 15 2025 09:12:19 GMT-0600 (Central Standard Time),701842.3000000119,A,doorenter,I,enter,178,2,1348.800000011921,700493.5,8065,WL,B,2.0
7,3.549999952316284,immed,56450.000047683716,Mon Dec 15 2025 09:12:19 GMT-0600 (Central Standard Time),702027.0,A,g,I,g,162,2,184.5,701842.5,8065,WL,B,3.0
7,3.7320001125335693,immed,56267.99988746643,Mon Dec 15 2025 09:12:19 GMT-0600 (Central Standard Time),702209.3000000119,A,gr,I,r,162,2,366.80000001192093,701842.5,8065,WL,B,3.0
7,3.999000072479248,immed,56000.99992752075,Mon Dec 15 2025 09:12:19 GMT-0600 (Central Standard Time),702475.6000000238,A,gra,I,a,260,2,633.1000000238419,701842.5,8065,WL,B,3.0
7,4.332000017166138,immed,55667.99998283386,Mon Dec 15 2025 09:12:19 GMT-0600 (Central Standard Time),702808.9000000358,A,gras,I,s,322,2,966.4000000357628,701842.5,8065,WL,B,3.0
7,4.54800009727478,immed,55451.99990272522,Mon Dec 15 2025 09:12:19 GMT-0600 (Central Standard Time),703025.4000000358,A,grass,I,s,204,2,1182.9000000357628,701842.5,8065,WL,B,3.0
7,5.332000017166138,immed,54667.99998283386,Mon Dec 15 2025 09:12:19 GMT-0600 (Central Standard Time),703808.6000000238,A,grassenter,I,enter,772,2,1966.1000000238419,701842.5,8065,WL,B,3.0
7,6.531000137329102,immed,53468.9998626709,Mon Dec 15 2025 09:12:19 GMT-0600 (Central Standard Time),705008.3000000119,A,w,I,w,1190,2,1199.199999988079,703809.1000000238,8065,WL,B,4.0
7,6.680999994277954,immed,53319.000005722046,Mon Dec 15 2025 09:12:19 GMT-0600 (Central Standard Time),705158.4000000358,A,wi,I,i,133,2,1349.300000011921,703809.1000000238,8065,WL,B,4.0
7,7.031000137329102,immed,52968.9998626709,Mon Dec 15 2025 09:12:19 GMT-0600 (Central Standard Time),705507.8000000119,A,wif,I,f,343,2,1698.699999988079,703809.1000000238,8065,WL,B,4.0
7,7.180999994277954,immed,52819.000005722046,Mon Dec 15 2025 09:12:19 GMT-0600 (Central Standard Time),705657.9000000358,A,wife,I,e,136,2,1848.800000011921,703809.1000000238,8065,WL,B,4.0
7,7.581000089645386,immed,52418.999910354614,Mon Dec 15 2025 09:12:19 GMT-0600 (Central Standard Time),706057.9000000358,A,wifeenter,I,enter,395,2,2248.800000011921,703809.1000000238,8065,WL,B,4.0
7,7.815000057220459,immed,52184.99994277954,Mon Dec 15 2025 09:12:19 GMT-0600 (Central Standard Time),706292.0,A,w,I,w,228,2,233.79999995231628,706058.2000000477,8065,WL,B,5.0
7,7.996999979019165,immed,52003.000020980835,Mon Dec 15 2025 09:12:19 GMT-0600 (Central Standard Time),706474.3000000119,A,wi,I,i,161,2,416.0999999642372,706058.2000000477,8065,WL,B,5.0
7,8.314000129699707,immed,51685.99987030029,Mon Dec 15 2025 09:12:19 GMT-0600 (Central Standard Time),706791.2000000477,A,win,I,n,307,2,733.0,706058.2000000477,8065,WL,B,5.0
7,8.531000137329102,immed,51468.9998626709,Mon Dec 15 2025 09:12:19 GMT-0600 (Central Standard Time),707007.7000000477,A,wind,I,d,206,2,949.5,706058.2000000477,8065,WL,B,5.0
7,8.71399998664856,immed,51286.00001335144,Mon Dec 15 2025 09:12:19 GMT-0600 (Central Standard Time),707191.0,A,windo,I,o,166,2,1132.7999999523163,706058.2000000477,8065,WL,B,5.0
7,8.980000019073486,immed,51019.999980926514,Mon Dec 15 2025 09:12:19 GMT-0600 (Central Standard Time),707457.3000000119,A,window,I,w,246,2,1399.0999999642372,706058.2000000477,8065,WL,B,5.0
7,9.180999994277954,immed,50819.000005722046,Mon Dec 15 2025 09:12:19 GMT-0600 (Central Standard Time),707657.6000000238,A,windowenter,I,enter,188,2,1599.3999999761581,706058.2000000477,8065,WL,B,5.0
7,9.914000034332275,immed,50085.999965667725,Mon Dec 15 2025 09:12:19 GMT-0600 (Central Standard Time),708390.7000000477,A,p,I,p,724,2,732.8000000119209,707657.9000000358,8065,WL,B,6.0
7,10.312999963760376,immed,49687.000036239624,Mon Dec 15 2025 09:12:19 GMT-0600 (Central Standard Time),708790.2000000477,A,pu,I,u,383,2,1132.300000011921,707657.9000000358,8065,WL,B,6.0
7,10.696000099182129,immed,49303.99990081787,Mon Dec 15 2025 09:12:19 GMT-0600 (Central Standard Time),709173.6000000238,A,pup,I,p,367,2,1515.699999988079,707657.9000000358,8065,WL,B,6.0
7,10.946000099182129,immed,49053.99990081787,Mon Dec 15 2025 09:12:19 GMT-0600 (Central Standard Time),709423.3000000119,A,pupi,I,i,232,2,1765.3999999761581,707657.9000000358,8065,WL,B,6.0
7,11.296000003814697,immed,48703.9999961853,Mon Dec 15 2025 09:12:19 GMT-0600 (Central Standard Time),709773.3000000119,A,pupil,I,l,334,2,2115.399999976158,707657.9000000358,8065,WL,B,6.0
7,11.595999956130981,immed,48404.00004386902,Mon Dec 15 2025 09:12:19 GMT-0600 (Central Standard Time),710073.3000000119,A,pupilenter,I,enter,288,2,2415.399999976158,707657.9000000358,8065,WL,B,6.0
7,12.130000114440918,immed,47869.99988555908,Mon Dec 15 2025 09:12:19 GMT-0600 (Central Standard Time),710606.6000000238,A,p,I,p,524,2,533.1000000238419,710073.5,8065,WL,B,7.0
7,12.328999996185303,immed,47671.0000038147,Mon Dec 15 2025 09:12:19 GMT-0600 (Central Standard Time),710806.3000000119,A,pa,I,a,191,2,732.8000000119209,710073.5,8065,WL,B,7.0
7,12.861999988555908,immed,47138.00001144409,Mon Dec 15 2025 09:12:19 GMT-0600 (Central Standard Time),711339.3000000119,A,p,I,backspace,527,2,1265.800000011921,710073.5,8065,WL,B,7.0
7,13.078999996185303,immed,46921.0000038147,Mon Dec 15 2025 09:12:19 GMT-0600 (Central Standard Time),711556.1000000238,A,pi,I,i,210,2,1482.6000000238419,710073.5,8065,WL,B,7.0
7,13.378999948501587,immed,46621.00005149841,Mon Dec 15 2025 09:12:19 GMT-0600 (Central Standard Time),711856.2000000477,A,pip,I,p,289,2,1782.7000000476837,710073.5,8065,WL,B,7.0
7,13.995000123977661,immed,46004.99987602234,Mon Dec 15 2025 09:12:19 GMT-0600 (Central Standard Time),712472.4000000358,A,pipe,I,e,597,2,2398.900000035763,710073.5,8065,WL,B,7.0
7,14.245000123977661,immed,45754.99987602234,Mon Dec 15 2025 09:12:19 GMT-0600 (Central Standard Time),712722.5,A,pipeenter,I,enter,245,2,2649.0,710073.5,8065,WL,B,7.0
7,14.529000043869019,immed,45470.99995613098,Mon Dec 15 2025 09:12:19 GMT-0600 (Central Standard Time),713005.6000000238,A,c,I,c,267,2,282.80000001192093,712722.8000000119,8065,WL,B,8.0
7,14.712000131607056,immed,45287.999868392944,Mon Dec 15 2025 09:12:19 GMT-0600 (Central Standard Time),713189.1000000238,A,ca,I,a,168,2,466.30000001192093,712722.8000000119,8065,WL,B,8.0
7,15.045000076293945,immed,44954.999923706055,Mon Dec 15 2025 09:12:19 GMT-0600 (Central Standard Time),713522.2000000477,A,cab,I,b,320,2,799.4000000357628,712722.8000000119,8065,WL,B,8.0
7,15.312999963760376,immed,44687.000036239624,Mon Dec 15 2025 09:12:19 GMT-0600 (Central Standard Time),713789.9000000358,A,cabi,I,i,259,2,1067.1000000238419,712722.8000000119,8065,WL,B,8.0
7,15.529000043869019,immed,44470.99995613098,Mon Dec 15 2025 09:12:19 GMT-0600 (Central Standard Time),714005.5,A,cabin,I,n,200,2,1282.699999988079,712722.8000000119,8065,WL,B,8.0
7,15.92900013923645,immed,44070.99986076355,Mon Dec 15 2025 09:12:19 GMT-0600 (Central Standard Time),714405.6000000238,A,cabinenter,I,enter,385,2,1682.800000011921,712722.8000000119,8065,WL,B,8.0
7,16.17799997329712,immed,43822.00002670288,Mon Dec 15 2025 09:12:19 GMT-0600 (Central Standard Time),714655.1000000238,A,l,I,l,232,2,249.19999998807907,714405.9000000358,8065,WL,B,9.0
7,16.394999980926514,immed,43605.000019073486,Mon Dec 15 2025 09:12:19 GMT-0600 (Central Standard Time),714871.6000000238,A,la,I,a,206,2,465.69999998807907,714405.9000000358,8065,WL,B,9.0
7,16.59500002861023,immed,43404.99997138977,Mon Dec 15 2025 09:12:19 GMT-0600 (Central Standard Time),715071.8000000119,A,lak,I,k,190,2,665.8999999761581,714405.9000000358,8065,WL,B,9.0
7,16.811000108718872,immed,43188.99989128113,Mon Dec 15 2025 09:12:19 GMT-0600 (Central Standard Time),715288.2000000477,A,lake,I,e,206,2,882.3000000119209,714405.9000000358,8065,WL,B,9.0
7,17.061000108718872,immed,42938.99989128113,Mon Dec 15 2025 09:12:19 GMT-0600 (Central Standard Time),715538.4000000358,A,lakeenter,I,enter,237,2,1132.5,714405.9000000358,8065,WL,B,9.0
7,20.22699999809265,immed,39773.00000190735,Mon Dec 15 2025 09:12:19 GMT-0600 (Central Standard Time),718704.1000000238,A,c,I,c,3155,2,3165.300000011921,715538.8000000119,8065,WL,B,10.0
7,20.426000118255615,immed,39573.999881744385,Mon Dec 15 2025 09:12:19 GMT-0600 (Central Standard Time),718903.8000000119,A,cl,I,l,189,2,3365.0,715538.8000000119,8065,WL,B,10.0
7,20.677000045776367,immed,39322.99995422363,Mon Dec 15 2025 09:12:19 GMT-0600 (Central Standard Time),719153.9000000358,A,clo,I,o,230,2,3615.100000023842,715538.8000000119,8065,WL,B,10.0
7,20.80999994277954,immed,39190.00005722046,Mon Dec 15 2025 09:12:19 GMT-0600 (Central Standard Time),719287.1000000238,A,cloc,I,c,124,2,3748.300000011921,715538.8000000119,8065,WL,B,10.0
7,21.026999950408936,immed,38973.000049591064,Mon Dec 15 2025 09:12:19 GMT-0600 (Central Standard Time),719503.8000000119,A,clock,I,k,206,2,3965.0,715538.8000000119,8065,WL,B,10.0
7,21.243000030517578,immed,38756.99996948242,Mon Dec 15 2025 09:12:19 GMT-0600 (Central Standard Time),719720.4000000358,A,clockenter,I,enter,198,2,4181.600000023842,715538.8000000119,8065,WL,B,10.0
7,22.026000022888184,immed,37973.99997711182,Mon Dec 15 2025 09:12:19 GMT-0600 (Central Standard Time),720503.5,A,f,I,f,773,2,782.7999999523163,719720.7000000477,8065,WL,B,11.0
7,22.159000158309937,immed,37840.99984169006,Mon Dec 15 2025 09:12:19 GMT-0600 (Central Standard Time),720636.2000000477,A,fi,I,i,125,2,915.5,719720.7000000477,8065,WL,B,11.0
7,22.39300012588501,immed,37606.99987411499,Mon Dec 15 2025 09:12:19 GMT-0600 (Central Standard Time),720870.0,A,fir,I,r,224,2,1149.2999999523163,719720.7000000477,8065,WL,B,11.0
7,22.575999975204468,immed,37424.00002479553,Mon Dec 15 2025 09:12:19 GMT-0600 (Central Standard Time),721053.0,A,fire,I,e,175,2,1332.2999999523163,719720.7000000477,8065,WL,B,11.0
7,22.91700005531311,immed,37082.99994468689,Mon Dec 15 2025 09:12:19 GMT-0600 (Central Standard Time),721394.1000000238,A,fireenter,I,enter,190,2,1673.3999999761581,719720.7000000477,8065,WL,B,11.0
7,23.176000118255615,immed,36823.999881744385,Mon Dec 15 2025 09:12:19 GMT-0600 (Central Standard Time),721653.2000000477,A,s,I,s,243,2,258.80000001192093,721394.4000000358,8065,WL,B,12.0
7,23.592000007629395,immed,36407.999992370605,Mon Dec 15 2025 09:12:19 GMT-0600 (Central Standard Time),722069.3000000119,A,sk,I,k,408,2,674.8999999761581,721394.4000000358,8065,WL,B,12.0
7,23.825999975204468,immed,36174.00002479553,Mon Dec 15 2025 09:12:19 GMT-0600 (Central Standard Time),722302.8000000119,A,ski,I,i,224,2,908.3999999761581,721394.4000000358,8065,WL,B,12.0
7,24.159000158309937,immed,35840.99984169006,Mon Dec 15 2025 09:12:19 GMT-0600 (Central Standard Time),722636.0,A,skim,I,m,326,2,1241.5999999642372,721394.4000000358,8065,WL,B,12.0
7,24.375,immed,35625.0,Mon Dec 15 2025 09:12:19 GMT-0600 (Central Standard Time),722852.6000000238,A,skimenter,I,enter,209,2,1458.199999988079,721394.4000000358,8065,WL,B,12.0
7,24.674999952316284,immed,35325.000047683716,Mon Dec 15 2025 09:12:19 GMT-0600 (Central Standard Time),723152.8000000119,A,a,I,a,289,2,299.89999997615814,722852.9000000358,8065,WL,B,13.0
7,25.10800004005432,immed,34891.99995994568,Mon Dec 15 2025 09:12:19 GMT-0600 (Central Standard Time),723585.5,A,ar,I,r,413,2,732.5999999642372,722852.9000000358,8065,WL,B,13.0
7,25.325000047683716,immed,34674.999952316284,Mon Dec 15 2025 09:12:19 GMT-0600 (Central Standard Time),723802.2000000477,A,arm,I,m,212,2,949.3000000119209,722852.9000000358,8065,WL,B,13.0
7,25.54200005531311,immed,34457.99994468689,Mon Dec 15 2025 09:12:19 GMT-0600 (Central Standard Time),724019.1000000238,A,armenter,I,enter,203,2,1166.199999988079,722852.9000000358,8065,WL,B,13.0
7,26.008000135421753,immed,33991.99986457825,Mon Dec 15 2025 09:12:19 GMT-0600 (Central Standard Time),724485.3000000119,A,s,I,s,459,2,465.80000001192093,724019.5,8065,WL,B,14.0
7,26.725000143051147,immed,33274.99985694885,Mon Dec 15 2025 09:12:19 GMT-0600 (Central Standard Time),725201.8000000119,A,st,I,t,704,2,1182.300000011921,724019.5,8065,WL,B,14.0
7,27.04100012779236,immed,32958.99987220764,Mon Dec 15 2025 09:12:19 GMT-0600 (Central Standard Time),725518.6000000238,A,sta,I,a,300,2,1499.1000000238419,724019.5,8065,WL,B,14.0
7,27.490999937057495,immed,32509.000062942505,Mon Dec 15 2025 09:12:19 GMT-0600 (Central Standard Time),725968.4000000358,A,star,I,r,431,2,1948.9000000357628,724019.5,8065,WL,B,14.0
7,27.641000032424927,immed,32358.999967575073,Mon Dec 15 2025 09:12:19 GMT-0600 (Central Standard Time),726118.2000000477,A,starenter,I,enter,133,2,2098.7000000476837,724019.5,8065,WL,B,14.0
7,30.60700011253357,immed,29392.99988746643,Mon Dec 15 2025 09:12:19 GMT-0600 (Central Standard Time),729084.0,A,c,I,c,2951,2,2965.399999976158,726118.6000000238,8065,WL,B,15.0
7,30.756999969482422,immed,29243.000030517578,Mon Dec 15 2025 09:12:19 GMT-0600 (Central Standard Time),729234.0,A,ci,I,i,129,2,3115.399999976158,726118.6000000238,8065,WL,B,15.0
7,30.973000049591064,immed,29026.999950408936,Mon Dec 15 2025 09:12:19 GMT-0600 (Central Standard Time),729450.3000000119,A,cit,I,t,212,2,3331.699999988079,726118.6000000238,8065,WL,B,15.0
7,31.09000015258789,immed,28909.99984741211,Mon Dec 15 2025 09:12:19 GMT-0600 (Central Standard Time),729567.2000000477,A,city,I,y,107,2,3448.600000023842,726118.6000000238,8065,WL,B,15.0
7,31.322999954223633,immed,28677.000045776367,Mon Dec 15 2025 09:12:19 GMT-0600 (Central Standard Time),729800.5,A,cityenter,I,enter,222,2,3681.899999976158,726118.6000000238,8065,WL,B,15.0
