acc_sum,block_c,block_dur,condition,correct,correct_response,countdown,datetime,endtime,project,response,response_time,response_time_test1_response,response_time_test2_response,row_sel,same,session_number,start_end,starttime,stim1,stim2,subject_id,task,task_vers,time_test1,time_test2,trial
1,1,0.0,prac,1,m,30000.0,Mon May 04 2026 14:42:29 GMT-0400 (Eastern Daylight Time),36743.70000000112,I,m,1094,,,1,no,3,2625.0,34118.70000000112,RNV,FNV,9028,LC,A,,,1
2,1,0.0,prac,1,m,30000.0,Mon May 04 2026 14:42:29 GMT-0400 (Eastern Daylight Time),40626.800000000745,I,m,2339,,,3,no,3,3872.699999999255,36754.10000000149,QHZXPC,QHZWPC,9028,LC,A,,,2
3,1,0.0,prac,1,z,30000.0,Mon May 04 2026 14:42:29 GMT-0400 (Eastern Daylight Time),45576.60000000149,I,z,3410,,,6,yes,3,4941.300000000745,40635.300000000745,CSDBFPHXZ,CSDBFPHXZ,9028,LC,A,,,3
4,1,0.0,prac,1,m,30000.0,Mon May 04 2026 14:42:29 GMT-0400 (Eastern Daylight Time),48926.70000000112,I,m,1820,,,5,no,3,3341.4000000003725,45585.300000000745,LNDPRSKQB,LNDPRSJQB,9028,LC,A,,,4
5,1,0.0,prac,1,z,30000.0,Mon May 04 2026 14:42:29 GMT-0400 (Eastern Daylight Time),52693.40000000037,I,z,2227,,,2,yes,3,3755.9000000003725,48937.5,NBGFSM,NBGFSM,9028,LC,A,,,5
6,1,0.0,prac,1,z,30000.0,Mon May 04 2026 14:42:29 GMT-0400 (Eastern Daylight Time),55476.70000000112,I,z,1248,,,4,yes,3,2775.4000000003725,52701.300000000745,RSM,RSM,9028,LC,A,,,6
1,1,1.3340001106262207,test,1,m,28665.99988937378,Mon May 04 2026 14:42:29 GMT-0400 (Eastern Daylight Time),67393.70000000112,I,m,1315,1315,,1,no,3,1327.0,66066.70000000112,HCF,RCF,9028,LC,A,64323,,1
2,1,3.433000087738037,test,1,m,26566.999912261963,Mon May 04 2026 14:42:29 GMT-0400 (Eastern Daylight Time),69493.40000000037,I,m,2075,2075,,2,no,3,2090.9000000003725,67402.5,QTPRJX,QTPNJX,9028,LC,A,65659,,2
3,1,5.433000087738037,test,1,m,24566.999912261963,Mon May 04 2026 14:42:29 GMT-0400 (Eastern Daylight Time),71493.30000000075,I,m,1984,1984,,3,no,3,1991.9000000003725,69501.40000000037,MZDYGVGKQ,MZDYGLBKQ,9028,LC,A,67758,,3
4,1,6.75,test,1,m,23250.0,Mon May 04 2026 14:42:29 GMT-0400 (Eastern Daylight Time),72810.0,I,m,1303,1303,,4,no,3,1307.699999999255,71502.30000000075,FQTNMK,JQTNMK,9028,LC,A,69759,,4
5,1,8.16700005531311,test,1,z,21832.99994468689,Mon May 04 2026 14:42:29 GMT-0400 (Eastern Daylight Time),74226.70000000112,I,z,1397,1397,,5,yes,3,1410.800000000745,72815.90000000037,CLJ,CLJ,9028,LC,A,71073,,5
5,1,11.565999984741211,test,0,m,18434.00001525879,Mon May 04 2026 14:42:29 GMT-0400 (Eastern Daylight Time),77626.30000000075,I,z,3385,3385,,6,no,3,3391.300000000745,74235.0,JGDMNSVPW,JGZMNSVPW,9028,LC,A,72492,,6
5,1,14.016999959945679,test,0,z,15983.000040054321,Mon May 04 2026 14:42:29 GMT-0400 (Eastern Daylight Time),80076.80000000075,I,m,2431,2431,,7,yes,3,2446.199999999255,77630.60000000149,FPTVHKCBJ,FPTVHKCBJ,9028,LC,A,75887,,7
6,1,15.516999959945679,test,1,m,14483.000040054321,Mon May 04 2026 14:42:29 GMT-0400 (Eastern Daylight Time),81576.70000000112,I,m,1489,1489,,8,no,3,1492.5999999996275,80084.10000000149,XRPZBS,ZRPBDH,9028,LC,A,78341,,8
7,1,17.233999967575073,test,1,m,12766.000032424927,Mon May 04 2026 14:42:29 GMT-0400 (Eastern Daylight Time),83294.10000000149,I,m,1694,1694,,9,no,3,1710.6000000014901,81583.5,ZSQ,ZSP,9028,LC,A,79840,,9
8,1,19.700000047683716,test,1,z,10299.999952316284,Mon May 04 2026 14:42:29 GMT-0400 (Eastern Daylight Time),85760.10000000149,I,z,2449,2449,,10,yes,3,2459.2000000011176,83300.90000000037,MPZRXL,MPZRXL,9028,LC,A,81557,,10
9,1,20.98300004005432,test,1,m,9016.999959945679,Mon May 04 2026 14:42:29 GMT-0400 (Eastern Daylight Time),87043.40000000037,I,m,1262,1262,,11,no,3,1275.7999999988824,85767.60000000149,KJH,KRH,9028,LC,A,84024,,11
9,1,23.58299994468689,test,0,z,6417.00005531311,Mon May 04 2026 14:42:29 GMT-0400 (Eastern Daylight Time),89643.5,I,m,2579,2579,,12,yes,3,2592.89999999851,87050.60000000149,SMNHVTFCB,SMNHVTFCB,9028,LC,A,85307,,12
10,1,26.91700005531311,test,1,z,3082.9999446868896,Mon May 04 2026 14:42:29 GMT-0400 (Eastern Daylight Time),92976.70000000112,I,z,3315,3315,,13,yes,3,3326.2000000011176,89650.5,KJWTQF,KJWTQF,9028,LC,A,87907,,13
10,1,30.01699995994568,test,0,z,-16.99995994567871,Mon May 04 2026 14:42:29 GMT-0400 (Eastern Daylight Time),96076.80000000075,I,None,3093,3093,,14,yes,3,3094.0,92982.80000000075,CHDKQGLMB,CHDKQGLMB,9028,LC,A,91239,,14
0,2,2.4830000400543213,test,0,z,27516.99995994568,Mon May 04 2026 14:42:29 GMT-0400 (Eastern Daylight Time),104093.40000000037,I,m,2469,,2469.0,1,yes,3,11110.599999999627,92982.80000000075,PRDBZTYFN,PRDBZTYFN,9028,LC,A,,99873.0,1
1,2,4.233000040054321,test,1,m,25766.99995994568,Mon May 04 2026 14:42:29 GMT-0400 (Eastern Daylight Time),105843.40000000037,I,m,1729,,1729.0,2,no,3,12860.599999999627,92982.80000000075,NCWJDZ,NCMJDZ,9028,LC,A,,102357.0,2
2,2,5.567000150680542,test,1,m,24432.999849319458,Mon May 04 2026 14:42:29 GMT-0400 (Eastern Daylight Time),107176.70000000112,I,m,1315,,1315.0,3,no,3,14193.900000000373,92982.80000000075,KHW,KBW,9028,LC,A,,104107.0,3
2,2,7.633000135421753,test,0,m,22366.999864578247,Mon May 04 2026 14:42:29 GMT-0400 (Eastern Daylight Time),109243.30000000075,I,z,2045,,2045.0,4,no,3,16260.5,92982.80000000075,ZRBGMF,ZRBCMF,9028,LC,A,,105441.0,4
3,2,8.900000095367432,test,1,m,21099.99990463257,Mon May 04 2026 14:42:29 GMT-0400 (Eastern Daylight Time),110510.0,I,m,1243,,1243.0,5,no,3,17527.199999999255,92982.80000000075,BTH,BYH,9028,LC,A,,107507.0,5
4,2,12.817000150680542,test,1,z,17182.999849319458,Mon May 04 2026 14:42:29 GMT-0400 (Eastern Daylight Time),114426.60000000149,I,z,3904,,3904.0,6,yes,3,21443.800000000745,92982.80000000075,XWKQRYCNZ,XWKQRYCNZ,9028,LC,A,,108774.0,6
5,2,14.766999959945679,test,1,z,15233.000040054321,Mon May 04 2026 14:42:29 GMT-0400 (Eastern Daylight Time),116376.70000000112,I,z,1930,,1930.0,7,yes,3,23393.900000000373,92982.80000000075,HNPDLK,HNPDLK,9028,LC,A,,112692.0,7
6,2,18.549999952316284,test,1,m,11450.000047683716,Mon May 04 2026 14:42:29 GMT-0400 (Eastern Daylight Time),120159.90000000037,I,m,3774,,3774.0,8,no,3,27177.099999999627,92982.80000000075,WMQTRSGLZ,WMQTRZGLZ,9028,LC,A,,114640.0,8
7,2,19.817000150680542,test,1,z,10182.999849319458,Mon May 04 2026 14:42:29 GMT-0400 (Eastern Daylight Time),121426.70000000112,I,z,1254,,1254.0,9,yes,3,28443.900000000373,92982.80000000075,JPN,JPN,9028,LC,A,,118424.0,9
8,2,21.100000143051147,test,1,m,8899.999856948853,Mon May 04 2026 14:42:29 GMT-0400 (Eastern Daylight Time),122709.90000000037,I,m,1269,,1269.0,10,no,3,29727.099999999627,92982.80000000075,QLXSVT,QLNSVT,9028,LC,A,,119689.0,10
8,2,23.90000009536743,test,0,z,6099.999904632568,Mon May 04 2026 14:42:29 GMT-0400 (Eastern Daylight Time),125510.10000000149,I,m,2776,,2776.0,11,yes,3,32527.300000000745,92982.80000000075,YXHKZVFPB,YXHKZVFPD,9028,LC,A,,120974.0,11
9,2,25.15000009536743,test,1,z,4849.999904632568,Mon May 04 2026 14:42:29 GMT-0400 (Eastern Daylight Time),126759.90000000037,I,z,1238,,1238.0,12,yes,3,33777.09999999963,92982.80000000075,RJZ,RJZ,9028,LC,A,,123776.0,12
10,2,27.58299994468689,test,1,z,2417.0000553131104,Mon May 04 2026 14:42:29 GMT-0400 (Eastern Daylight Time),129193.30000000075,I,z,2414,,2414.0,13,yes,3,36210.5,92982.80000000075,CLNPZD,CLNPZD,9028,LC,A,,125024.0,13
10,2,30.01699995994568,test,0,m,-16.99995994567871,Mon May 04 2026 14:42:29 GMT-0400 (Eastern Daylight Time),131626.80000000075,I,None,2426,,2426.0,14,no,3,38644.0,92982.80000000075,DCBPFHXYJ,DCBPFHLYJ,9028,LC,A,,127457.0,14
