acc_sum,block,block_c,change,condition,correct,correct_response,datetime,endtime,face,project,response,response_time,row_sel,session_number,start_end,starttime,subject_id,task,task_vers,trial
0,prac,1,,1-Back,,,Wed Mar 11 2026 13:35:17 GMT-0500 (Central Daylight Time),,012_o_f_d_a.png,O,space,13133,1,1,,,7772,VNB,C,0
1,prac,1,0.0,1-Back,1.0,m,Wed Mar 11 2026 13:35:17 GMT-0500 (Central Daylight Time),174216.59999999404,022_y_f_n_a.png,O,m,873,2,1,1721.8999999910593,172494.70000000298,7772,VNB,C,1
1,prac,1,0.0,1-Back,0.0,m,Wed Mar 11 2026 13:35:17 GMT-0500 (Central Daylight Time),177065.0,014_m_m_h_a.png,O,None,2008,3,1,2844.0,174221.0,7772,VNB,C,2
1,prac,1,0.0,1-Back,0.0,m,Wed Mar 11 2026 13:35:17 GMT-0500 (Central Daylight Time),179729.39999999106,025_y_m_d_a.png,O,z,1792,4,1,2653.0999999940395,177076.29999999702,7772,VNB,C,3
2,prac,1,0.0,1-Back,1.0,m,Wed Mar 11 2026 13:35:17 GMT-0500 (Central Daylight Time),181879.39999999106,012_o_f_n_a.png,O,m,1284,5,1,2145.5,179733.89999999106,7772,VNB,C,4
2,prac,1,1.0,1-Back,0.0,z,Wed Mar 11 2026 13:35:17 GMT-0500 (Central Daylight Time),184043.89999999106,025_y_m_n_a.png,O,m,1302,6,1,2150.2999999970198,181893.59999999404,7772,VNB,C,5
3,prac,1,0.0,1-Back,1.0,m,Wed Mar 11 2026 13:35:17 GMT-0500 (Central Daylight Time),186261.79999999702,015_o_m_h_a.png,O,m,1371,7,1,2212.2000000029802,184049.59999999404,7772,VNB,C,6
3,prac,1,0.0,1-Back,0.0,m,Wed Mar 11 2026 13:35:17 GMT-0500 (Central Daylight Time),188244.79999999702,019_m_f_d_a.png,O,z,1125,8,1,1974.5,186270.29999999702,7772,VNB,C,7
4,prac,1,1.0,1-Back,1.0,z,Wed Mar 11 2026 13:35:17 GMT-0500 (Central Daylight Time),190594.5,022_y_f_d_a.png,O,z,1489,9,1,2345.5,188249.0,7772,VNB,C,8
5,prac,1,0.0,1-Back,1.0,m,Wed Mar 11 2026 13:35:17 GMT-0500 (Central Daylight Time),192459.79999999702,014_m_m_n_a.png,O,m,1019,10,1,1857.0,190602.79999999702,7772,VNB,C,9
6,prac,1,0.0,1-Back,1.0,m,Wed Mar 11 2026 13:35:17 GMT-0500 (Central Daylight Time),194460.0,012_o_f_h_a.png,O,m,1153,11,1,1995.4000000059605,192464.59999999404,7772,VNB,C,10
7,prac,1,0.0,1-Back,1.0,m,Wed Mar 11 2026 13:35:17 GMT-0500 (Central Daylight Time),196223.70000000298,025_y_m_d_a.png,O,m,915,12,1,1755.300000011921,194468.39999999106,7772,VNB,C,11
0,prac,2,0.0,1-Back,,,Wed Mar 11 2026 13:35:17 GMT-0500 (Central Daylight Time),196223.70000000298,012_o_f_d_a.png,O,a,9686,1,1,1755.300000011921,194468.39999999106,7772,VNB,C,0
1,prac,2,0.0,1-Back,1.0,m,Wed Mar 11 2026 13:35:17 GMT-0500 (Central Daylight Time),211287.0,022_y_f_n_a.png,O,m,1464,2,1,2322.5,208964.5,7772,VNB,C,1
2,prac,2,0.0,1-Back,1.0,m,Wed Mar 11 2026 13:35:17 GMT-0500 (Central Daylight Time),213886.39999999106,014_m_m_h_a.png,O,m,1768,3,1,2594.699999988079,211291.70000000298,7772,VNB,C,2
3,prac,2,0.0,1-Back,1.0,m,Wed Mar 11 2026 13:35:17 GMT-0500 (Central Daylight Time),216052.59999999404,025_y_m_d_a.png,O,m,1371,4,1,2156.5,213896.09999999404,7772,VNB,C,3
4,prac,2,0.0,1-Back,1.0,m,Wed Mar 11 2026 13:35:17 GMT-0500 (Central Daylight Time),217984.39999999106,012_o_f_n_a.png,O,m,1075,5,1,1927.3999999910593,216057.0,7772,VNB,C,4
4,prac,2,1.0,1-Back,0.0,z,Wed Mar 11 2026 13:35:17 GMT-0500 (Central Daylight Time),220149.79999999702,025_y_m_n_a.png,O,m,1310,6,1,2156.9000000059605,217992.89999999106,7772,VNB,C,5
5,prac,2,0.0,1-Back,1.0,m,Wed Mar 11 2026 13:35:17 GMT-0500 (Central Daylight Time),222232.09999999404,015_o_m_h_a.png,O,m,1208,7,1,2077.2999999970198,220154.79999999702,7772,VNB,C,6
6,prac,2,0.0,1-Back,1.0,m,Wed Mar 11 2026 13:35:17 GMT-0500 (Central Daylight Time),223882.89999999106,019_m_f_d_a.png,O,m,774,8,1,1640.2999999970198,222242.59999999404,7772,VNB,C,7
7,prac,2,1.0,1-Back,1.0,z,Wed Mar 11 2026 13:35:17 GMT-0500 (Central Daylight Time),225982.0,022_y_f_d_a.png,O,z,1252,9,1,2094.2000000029802,223887.79999999702,7772,VNB,C,8
8,prac,2,0.0,1-Back,1.0,m,Wed Mar 11 2026 13:35:17 GMT-0500 (Central Daylight Time),227713.79999999702,014_m_m_n_a.png,O,m,876,10,1,1721.2999999970198,225992.5,7772,VNB,C,9
8,prac,2,0.0,1-Back,0.0,m,Wed Mar 11 2026 13:35:17 GMT-0500 (Central Daylight Time),229529.09999999404,012_o_f_h_a.png,O,z,962,11,1,1811.0999999940395,227718.0,7772,VNB,C,10
9,prac,2,0.0,1-Back,1.0,m,Wed Mar 11 2026 13:35:17 GMT-0500 (Central Daylight Time),231914.39999999106,025_y_m_d_a.png,O,m,1533,12,1,2379.5999999940395,229534.79999999702,7772,VNB,C,11
0,test,1,0.0,1-Back,,,Wed Mar 11 2026 13:35:17 GMT-0500 (Central Daylight Time),231914.39999999106,022_y_f_d_a.png,O,space,13711,1,1,2379.5999999940395,229534.79999999702,7772,VNB,C,0
1,test,1,0.0,1-Back,1.0,m,Wed Mar 11 2026 13:35:17 GMT-0500 (Central Daylight Time),257771.09999999404,019_m_f_n_a.png,O,m,757,2,1,1773.7999999970198,255997.29999999702,7772,VNB,C,1
2,test,1,0.0,1-Back,1.0,m,Wed Mar 11 2026 13:35:17 GMT-0500 (Central Daylight Time),259638.5,015_o_m_h_a.png,O,m,848,3,1,1863.7999999970198,257774.70000000298,7772,VNB,C,2
3,test,1,1.0,1-Back,1.0,z,Wed Mar 11 2026 13:35:17 GMT-0500 (Central Daylight Time),261769.20000000298,014_m_m_h_a.png,O,z,1108,4,1,2120.2000000029802,259649.0,7772,VNB,C,3
4,test,1,0.0,1-Back,1.0,m,Wed Mar 11 2026 13:35:17 GMT-0500 (Central Daylight Time),263585.700000003,012_o_f_n_a.png,O,m,785,5,1,1812.5,261773.20000000298,7772,VNB,C,4
5,test,1,0.0,1-Back,1.0,m,Wed Mar 11 2026 13:35:17 GMT-0500 (Central Daylight Time),265501.200000003,025_y_m_d_a.png,O,m,887,6,1,1905.9000000059605,263595.299999997,7772,VNB,C,5
6,test,1,1.0,1-Back,1.0,z,Wed Mar 11 2026 13:35:17 GMT-0500 (Central Daylight Time),267533.299999997,019_m_f_d_a.png,O,z,1012,7,1,2029.2999999970198,265504.0,7772,VNB,C,6
7,test,1,0.0,1-Back,1.0,m,Wed Mar 11 2026 13:35:17 GMT-0500 (Central Daylight Time),269399.59999999404,022_y_f_h_a.png,O,m,844,8,1,1858.2000000029802,267541.39999999106,7772,VNB,C,7
8,test,1,0.0,1-Back,1.0,m,Wed Mar 11 2026 13:35:17 GMT-0500 (Central Daylight Time),271368.09999999404,015_o_m_n_a.png,O,m,936,9,1,1966.2999999970198,269401.799999997,7772,VNB,C,8
9,test,1,0.0,1-Back,1.0,m,Wed Mar 11 2026 13:35:17 GMT-0500 (Central Daylight Time),273267.299999997,025_y_m_h_a.png,O,m,881,10,1,1892.7999999970198,271374.5,7772,VNB,C,9
10,test,1,0.0,1-Back,1.0,m,Wed Mar 11 2026 13:35:17 GMT-0500 (Central Daylight Time),275115.799999997,015_o_m_d_a.png,O,m,822,11,1,1845.7999999970198,273270.0,7772,VNB,C,10
11,test,1,1.0,1-Back,1.0,z,Wed Mar 11 2026 13:35:17 GMT-0500 (Central Daylight Time),277180.89999999106,012_o_f_d_a.png,O,z,1046,12,1,2062.5,275118.39999999106,7772,VNB,C,11
12,test,1,0.0,1-Back,1.0,m,Wed Mar 11 2026 13:35:17 GMT-0500 (Central Daylight Time),279130.89999999106,014_m_m_n_a.png,O,m,924,13,1,1948.0999999940395,277182.799999997,7772,VNB,C,12
13,test,1,1.0,1-Back,1.0,z,Wed Mar 11 2026 13:35:17 GMT-0500 (Central Daylight Time),281346.700000003,022_y_f_n_a.png,O,z,1198,14,1,2211.0,279135.700000003,7772,VNB,C,13
14,test,1,0.0,1-Back,1.0,m,Wed Mar 11 2026 13:35:17 GMT-0500 (Central Daylight Time),283196.299999997,019_m_f_h_a.png,O,m,830,15,1,1846.5,281349.799999997,7772,VNB,C,14
15,test,1,0.0,1-Back,1.0,m,Wed Mar 11 2026 13:35:17 GMT-0500 (Central Daylight Time),284963.700000003,014_m_m_d_a.png,O,m,742,16,1,1756.6000000089407,283207.09999999404,7772,VNB,C,15
16,test,1,0.0,1-Back,1.0,m,Wed Mar 11 2026 13:35:17 GMT-0500 (Central Daylight Time),286778.5,025_y_m_n_a.png,O,m,783,17,1,1811.7999999970198,284966.700000003,7772,VNB,C,16
17,test,1,0.0,1-Back,1.0,m,Wed Mar 11 2026 13:35:17 GMT-0500 (Central Daylight Time),288777.799999997,012_o_f_h_a.png,O,m,967,18,1,1990.4000000059605,286787.39999999106,7772,VNB,C,17
0,test,2,0.0,1-Back,,,Wed Mar 11 2026 13:35:17 GMT-0500 (Central Daylight Time),288777.799999997,025_y_m_n_a.png,O,space,3592,1,1,1990.4000000059605,286787.39999999106,7772,VNB,C,0
1,test,2,0.0,1-Back,1.0,m,Wed Mar 11 2026 13:35:17 GMT-0500 (Central Daylight Time),296159.299999997,022_y_f_h_a.png,O,m,737,2,1,1762.7000000029802,294396.59999999404,7772,VNB,C,1
1,test,2,1.0,1-Back,0.0,m,Wed Mar 11 2026 13:35:17 GMT-0500 (Central Daylight Time),298125.200000003,015_o_m_n_a.png,O,z,941,3,1,1963.0,296162.200000003,7772,VNB,C,2
2,test,2,0.0,1-Back,1.0,m,Wed Mar 11 2026 13:35:17 GMT-0500 (Central Daylight Time),300007.59999999404,019_m_f_d_a.png,O,m,854,4,1,1873.0,298134.59999999404,7772,VNB,C,3
3,test,2,0.0,1-Back,1.0,z,Wed Mar 11 2026 13:35:17 GMT-0500 (Central Daylight Time),301990.39999999106,014_m_m_d_a.png,O,z,952,5,1,1978.8999999910593,300011.5,7772,VNB,C,4
4,test,2,0.0,1-Back,1.0,m,Wed Mar 11 2026 13:35:17 GMT-0500 (Central Daylight Time),304173.799999997,025_y_m_h_a.png,O,m,1156,6,1,2174.0999999940395,301999.700000003,7772,VNB,C,5
5,test,2,1.0,1-Back,1.0,z,Wed Mar 11 2026 13:35:17 GMT-0500 (Central Daylight Time),306191.09999999404,012_o_f_h_a.png,O,z,997,7,1,2014.8999999910593,304176.200000003,7772,VNB,C,6
6,test,2,0.0,1-Back,1.0,m,Wed Mar 11 2026 13:35:17 GMT-0500 (Central Daylight Time),308189.0,019_m_f_n_a.png,O,m,984,8,1,1995.2999999970198,306193.700000003,7772,VNB,C,7
6,test,2,0.0,1-Back,0.0,m,Wed Mar 11 2026 13:35:17 GMT-0500 (Central Daylight Time),310870.200000003,022_y_f_d_a.png,O,z,1662,9,1,2677.7000000029802,308192.5,7772,VNB,C,8
7,test,2,0.0,1-Back,1.0,m,Wed Mar 11 2026 13:35:17 GMT-0500 (Central Daylight Time),312920.09999999404,014_m_m_n_a.png,O,m,1019,10,1,2042.0,310878.09999999404,7772,VNB,C,9
8,test,2,1.0,1-Back,1.0,m,Wed Mar 11 2026 13:35:17 GMT-0500 (Central Daylight Time),314987.799999997,019_m_f_h_a.png,O,m,1050,11,1,2064.2000000029802,312923.59999999404,7772,VNB,C,10
9,test,2,0.0,1-Back,1.0,z,Wed Mar 11 2026 13:35:17 GMT-0500 (Central Daylight Time),316685.5,015_o_m_h_a.png,O,z,680,12,1,1683.7000000029802,315001.799999997,7772,VNB,C,11
10,test,2,0.0,1-Back,1.0,m,Wed Mar 11 2026 13:35:17 GMT-0500 (Central Daylight Time),318501.89999999106,025_y_m_d_a.png,O,m,788,13,1,1814.0,316687.89999999106,7772,VNB,C,12
11,test,2,0.0,1-Back,1.0,m,Wed Mar 11 2026 13:35:17 GMT-0500 (Central Daylight Time),320435.700000003,012_o_f_n_a.png,O,m,900,14,1,1925.9000000059605,318509.799999997,7772,VNB,C,13
12,test,2,0.0,1-Back,1.0,z,Wed Mar 11 2026 13:35:17 GMT-0500 (Central Daylight Time),322300.5,022_y_f_n_a.png,O,z,839,15,1,1860.9000000059605,320439.59999999404,7772,VNB,C,14
13,test,2,1.0,1-Back,1.0,m,Wed Mar 11 2026 13:35:17 GMT-0500 (Central Daylight Time),324118.09999999404,014_m_m_h_a.png,O,m,801,16,1,1807.0999999940395,322311.0,7772,VNB,C,15
14,test,2,0.0,1-Back,1.0,m,Wed Mar 11 2026 13:35:17 GMT-0500 (Central Daylight Time),325916.200000003,012_o_f_d_a.png,O,m,773,17,1,1794.2000000029802,324122.0,7772,VNB,C,16
15,test,2,1.0,1-Back,1.0,z,Wed Mar 11 2026 13:35:17 GMT-0500 (Central Daylight Time),328032.0,015_o_m_d_a.png,O,z,1086,18,1,2109.0,325923.0,7772,VNB,C,17
0,test,3,1.0,1-Back,,,Wed Mar 11 2026 13:35:17 GMT-0500 (Central Daylight Time),328032.0,012_o_f_h_a.png,O,space,3150,1,1,2109.0,325923.0,7772,VNB,C,0
1,test,3,0.0,1-Back,1.0,m,Wed Mar 11 2026 13:35:17 GMT-0500 (Central Daylight Time),335115.09999999404,019_m_f_d_a.png,O,m,793,2,1,1808.7000000029802,333306.39999999106,7772,VNB,C,1
2,test,3,1.0,1-Back,1.0,m,Wed Mar 11 2026 13:35:17 GMT-0500 (Central Daylight Time),337095.09999999404,014_m_m_n_a.png,O,m,951,3,1,1977.3999999910593,335117.700000003,7772,VNB,C,2
3,test,3,0.0,1-Back,1.0,z,Wed Mar 11 2026 13:35:17 GMT-0500 (Central Daylight Time),338994.299999997,012_o_f_n_a.png,O,z,872,4,1,1891.7000000029802,337102.59999999404,7772,VNB,C,3
4,test,3,1.0,1-Back,1.0,m,Wed Mar 11 2026 13:35:17 GMT-0500 (Central Daylight Time),341042.89999999106,015_o_m_d_a.png,O,m,1016,5,1,2047.0999999940395,338995.799999997,7772,VNB,C,4
5,test,3,0.0,1-Back,1.0,m,Wed Mar 11 2026 13:35:17 GMT-0500 (Central Daylight Time),343126.5,022_y_f_h_a.png,O,m,1058,6,1,2078.0,341048.5,7772,VNB,C,5
6,test,3,0.0,1-Back,1.0,z,Wed Mar 11 2026 13:35:17 GMT-0500 (Central Daylight Time),345028.0,025_y_m_h_a.png,O,z,884,7,1,1899.1000000089407,343128.89999999106,7772,VNB,C,6
7,test,3,0.0,1-Back,1.0,m,Wed Mar 11 2026 13:35:17 GMT-0500 (Central Daylight Time),346808.799999997,019_m_f_n_a.png,O,m,760,8,1,1776.2000000029802,345032.59999999404,7772,VNB,C,7
8,test,3,0.0,1-Back,1.0,m,Wed Mar 11 2026 13:35:17 GMT-0500 (Central Daylight Time),348641.89999999106,022_y_f_d_a.png,O,m,815,9,1,1830.8999999910593,346811.0,7772,VNB,C,8
9,test,3,1.0,1-Back,1.0,m,Wed Mar 11 2026 13:35:17 GMT-0500 (Central Daylight Time),350508.700000003,015_o_m_n_a.png,O,m,850,10,1,1859.6000000089407,348649.09999999404,7772,VNB,C,9
10,test,3,0.0,1-Back,1.0,m,Wed Mar 11 2026 13:35:17 GMT-0500 (Central Daylight Time),352440.799999997,014_m_m_h_a.png,O,m,910,11,1,1928.2000000029802,350512.59999999404,7772,VNB,C,10
11,test,3,0.0,1-Back,1.0,z,Wed Mar 11 2026 13:35:17 GMT-0500 (Central Daylight Time),354357.39999999106,019_m_f_h_a.png,O,z,889,12,1,1908.5999999940395,352448.799999997,7772,VNB,C,11
12,test,3,1.0,1-Back,1.0,m,Wed Mar 11 2026 13:35:17 GMT-0500 (Central Daylight Time),356205.0,012_o_f_d_a.png,O,m,819,13,1,1844.9000000059605,354360.09999999404,7772,VNB,C,12
13,test,3,0.0,1-Back,1.0,z,Wed Mar 11 2026 13:35:17 GMT-0500 (Central Daylight Time),358322.09999999404,014_m_m_d_a.png,O,z,1086,14,1,2108.8999999910593,356213.200000003,7772,VNB,C,13
14,test,3,0.0,1-Back,1.0,m,Wed Mar 11 2026 13:35:17 GMT-0500 (Central Daylight Time),360386.89999999106,025_y_m_n_a.png,O,m,1038,15,1,2060.0999999940395,358326.799999997,7772,VNB,C,14
15,test,3,1.0,1-Back,1.0,m,Wed Mar 11 2026 13:35:17 GMT-0500 (Central Daylight Time),362206.200000003,015_o_m_h_a.png,O,m,788,16,1,1813.2000000029802,360393.0,7772,VNB,C,15
16,test,3,0.0,1-Back,1.0,m,Wed Mar 11 2026 13:35:17 GMT-0500 (Central Daylight Time),363969.700000003,025_y_m_d_a.png,O,m,733,17,1,1755.6000000089407,362214.09999999404,7772,VNB,C,16
17,test,3,1.0,1-Back,1.0,m,Wed Mar 11 2026 13:35:17 GMT-0500 (Central Daylight Time),366102.799999997,022_y_f_n_a.png,O,m,1112,18,1,2126.2000000029802,363976.59999999404,7772,VNB,C,17
0,test,4,1.0,1-Back,,,Wed Mar 11 2026 13:35:17 GMT-0500 (Central Daylight Time),366102.799999997,014_m_m_d_a.png,O,space,2659,1,1,2126.2000000029802,363976.59999999404,7772,VNB,C,0
1,test,4,0.0,1-Back,1.0,z,Wed Mar 11 2026 13:35:17 GMT-0500 (Central Daylight Time),372767.299999997,015_o_m_d_a.png,O,z,952,2,1,1971.2999999970198,370796.0,7772,VNB,C,1
2,test,4,0.0,1-Back,1.0,m,Wed Mar 11 2026 13:35:17 GMT-0500 (Central Daylight Time),374533.5,025_y_m_h_a.png,O,m,747,3,1,1759.9000000059605,372773.59999999404,7772,VNB,C,2
3,test,4,0.0,1-Back,1.0,m,Wed Mar 11 2026 13:35:17 GMT-0500 (Central Daylight Time),376383.0,019_m_f_n_a.png,O,m,819,4,1,1841.6000000089407,374541.39999999106,7772,VNB,C,3
4,test,4,1.0,1-Back,1.0,m,Wed Mar 11 2026 13:35:17 GMT-0500 (Central Daylight Time),378233.09999999404,012_o_f_h_a.png,O,m,827,5,1,1846.5999999940395,376386.5,7772,VNB,C,4
5,test,4,0.0,1-Back,1.0,m,Wed Mar 11 2026 13:35:17 GMT-0500 (Central Daylight Time),380581.700000003,014_m_m_n_a.png,O,m,1328,6,1,2337.7000000029802,378244.0,7772,VNB,C,5
6,test,4,0.0,1-Back,1.0,m,Wed Mar 11 2026 13:35:17 GMT-0500 (Central Daylight Time),382397.700000003,025_y_m_d_a.png,O,m,786,7,1,1811.5,380586.200000003,7772,VNB,C,6
7,test,4,1.0,1-Back,1.0,z,Wed Mar 11 2026 13:35:17 GMT-0500 (Central Daylight Time),384196.799999997,022_y_f_d_a.png,O,z,772,8,1,1792.7000000029802,382404.09999999404,7772,VNB,C,7
8,test,4,0.0,1-Back,1.0,m,Wed Mar 11 2026 13:35:17 GMT-0500 (Central Daylight Time),386128.799999997,019_m_f_h_a.png,O,m,907,9,1,1930.4000000059605,384198.39999999106,7772,VNB,C,8
9,test,4,0.0,1-Back,1.0,z,Wed Mar 11 2026 13:35:17 GMT-0500 (Central Daylight Time),388062.89999999106,015_o_m_h_a.png,O,z,911,10,1,1924.199999988079,386138.700000003,7772,VNB,C,9
10,test,4,1.0,1-Back,1.0,m,Wed Mar 11 2026 13:35:17 GMT-0500 (Central Daylight Time),390045.5,012_o_f_n_a.png,O,m,964,11,1,1978.0,388067.5,7772,VNB,C,10
11,test,4,0.0,1-Back,1.0,m,Wed Mar 11 2026 13:35:17 GMT-0500 (Central Daylight Time),391895.59999999404,019_m_f_d_a.png,O,m,820,12,1,1841.5999999940395,390054.0,7772,VNB,C,11
12,test,4,0.0,1-Back,1.0,m,Wed Mar 11 2026 13:35:17 GMT-0500 (Central Daylight Time),393727.700000003,022_y_f_n_a.png,O,m,802,13,1,1829.5,391898.200000003,7772,VNB,C,12
13,test,4,0.0,1-Back,1.0,m,Wed Mar 11 2026 13:35:17 GMT-0500 (Central Daylight Time),396177.39999999106,012_o_f_d_a.png,O,m,1424,14,1,2441.699999988079,393735.700000003,7772,VNB,C,13
14,test,4,0.0,1-Back,1.0,m,Wed Mar 11 2026 13:35:17 GMT-0500 (Central Daylight Time),398110.09999999404,022_y_f_h_a.png,O,m,903,15,1,1929.8999999910593,396180.200000003,7772,VNB,C,14
15,test,4,1.0,1-Back,1.0,z,Wed Mar 11 2026 13:35:17 GMT-0500 (Central Daylight Time),400359.39999999106,014_m_m_h_a.png,O,z,1229,16,1,2238.0999999940395,398121.299999997,7772,VNB,C,15
16,test,4,0.0,1-Back,1.0,m,Wed Mar 11 2026 13:35:17 GMT-0500 (Central Daylight Time),402175.200000003,015_o_m_n_a.png,O,m,787,17,1,1812.800000011921,400362.39999999106,7772,VNB,C,16
17,test,4,1.0,1-Back,1.0,z,Wed Mar 11 2026 13:35:17 GMT-0500 (Central Daylight Time),404291.39999999106,025_y_m_n_a.png,O,z,1090,18,1,2108.5999999940395,402182.799999997,7772,VNB,C,17
0,test,5,1.0,1-Back,,,Wed Mar 11 2026 13:35:17 GMT-0500 (Central Daylight Time),404291.39999999106,015_o_m_n_a.png,O,space,5238,1,1,2108.5999999940395,402182.799999997,7772,VNB,C,0
1,test,5,1.0,1-Back,1.0,m,Wed Mar 11 2026 13:35:17 GMT-0500 (Central Daylight Time),413439.200000003,012_o_f_h_a.png,O,m,850,2,1,1879.7000000029802,411559.5,7772,VNB,C,1
2,test,5,0.0,1-Back,1.0,m,Wed Mar 11 2026 13:35:17 GMT-0500 (Central Daylight Time),415338.09999999404,025_y_m_d_a.png,O,m,876,3,1,1887.7999999970198,413450.299999997,7772,VNB,C,2
3,test,5,0.0,1-Back,1.0,z,Wed Mar 11 2026 13:35:17 GMT-0500 (Central Daylight Time),417470.39999999106,015_o_m_d_a.png,O,z,1104,4,1,2130.2999999970198,415340.09999999404,7772,VNB,C,3
4,test,5,0.0,1-Back,1.0,m,Wed Mar 11 2026 13:35:17 GMT-0500 (Central Daylight Time),419518.799999997,019_m_f_h_a.png,O,m,1019,5,1,2041.2000000029802,417477.59999999404,7772,VNB,C,4
5,test,5,0.0,1-Back,1.0,m,Wed Mar 11 2026 13:35:17 GMT-0500 (Central Daylight Time),421236.39999999106,022_y_f_n_a.png,O,m,690,6,1,1714.199999988079,419522.200000003,7772,VNB,C,5
6,test,5,1.0,1-Back,1.0,z,Wed Mar 11 2026 13:35:17 GMT-0500 (Central Daylight Time),423119.700000003,012_o_f_n_a.png,O,z,854,7,1,1874.300000011921,421245.39999999106,7772,VNB,C,6
7,test,5,0.0,1-Back,1.0,m,Wed Mar 11 2026 13:35:17 GMT-0500 (Central Daylight Time),424951.0,019_m_f_d_a.png,O,m,812,8,1,1829.0,423122.0,7772,VNB,C,7
8,test,5,0.0,1-Back,1.0,m,Wed Mar 11 2026 13:35:17 GMT-0500 (Central Daylight Time),426750.09999999404,025_y_m_h_a.png,O,m,778,9,1,1786.5,424963.59999999404,7772,VNB,C,8
9,test,5,0.0,1-Back,1.0,m,Wed Mar 11 2026 13:35:17 GMT-0500 (Central Daylight Time),428599.39999999106,022_y_f_d_a.png,O,m,828,10,1,1847.5999999940395,426751.799999997,7772,VNB,C,9
10,test,5,0.0,1-Back,1.0,m,Wed Mar 11 2026 13:35:17 GMT-0500 (Central Daylight Time),430933.299999997,014_m_m_n_a.png,O,m,1307,11,1,2326.2999999970198,428607.0,7772,VNB,C,10
11,test,5,1.0,1-Back,1.0,z,Wed Mar 11 2026 13:35:17 GMT-0500 (Central Daylight Time),432867.89999999106,019_m_f_n_a.png,O,z,907,12,1,1932.199999988079,430935.700000003,7772,VNB,C,11
12,test,5,0.0,1-Back,1.0,m,Wed Mar 11 2026 13:35:17 GMT-0500 (Central Daylight Time),434763.200000003,015_o_m_h_a.png,O,m,872,13,1,1888.4000000059605,432874.799999997,7772,VNB,C,12
13,test,5,0.0,1-Back,1.0,z,Wed Mar 11 2026 13:35:17 GMT-0500 (Central Daylight Time),436314.299999997,014_m_m_h_a.png,O,z,534,14,1,1549.4000000059605,434764.89999999106,7772,VNB,C,13
14,test,5,1.0,1-Back,1.0,m,Wed Mar 11 2026 13:35:17 GMT-0500 (Central Daylight Time),438031.5,012_o_f_d_a.png,O,m,697,15,1,1712.0,436319.5,7772,VNB,C,14
15,test,5,0.0,1-Back,1.0,m,Wed Mar 11 2026 13:35:17 GMT-0500 (Central Daylight Time),439896.5,025_y_m_n_a.png,O,m,843,16,1,1862.2000000029802,438034.299999997,7772,VNB,C,15
16,test,5,0.0,1-Back,1.0,m,Wed Mar 11 2026 13:35:17 GMT-0500 (Central Daylight Time),441829.799999997,022_y_f_h_a.png,O,m,915,17,1,1925.5999999940395,439904.200000003,7772,VNB,C,16
17,test,5,0.0,1-Back,1.0,m,Wed Mar 11 2026 13:35:17 GMT-0500 (Central Daylight Time),443728.39999999106,014_m_m_d_a.png,O,m,878,18,1,1896.2999999970198,441832.09999999404,7772,VNB,C,17
0,prac,1,0.0,2-Back,,,Wed Mar 11 2026 13:35:17 GMT-0500 (Central Daylight Time),443728.39999999106,019_m_f_n_a.png,O,space,8037,1,1,1896.2999999970198,441832.09999999404,7772,VNB,C,0
0,prac,1,0.0,2-Back,,,Wed Mar 11 2026 13:35:17 GMT-0500 (Central Daylight Time),443728.39999999106,012_o_f_h_a.png,O,space,8037,2,1,1896.2999999970198,441832.09999999404,7772,VNB,C,0
1,prac,1,0.0,2-Back,1.0,m,Wed Mar 11 2026 13:35:17 GMT-0500 (Central Daylight Time),559459.0,015_o_m_d_a.png,O,m,1342,3,1,2195.4000000059605,557263.599999994,7772,VNB,C,1
1,prac,1,1.0,2-Back,0.0,z,Wed Mar 11 2026 13:35:17 GMT-0500 (Central Daylight Time),562308.599999994,014_m_m_h_a.png,O,None,2002,4,1,2840.2000000029802,559468.3999999911,7772,VNB,C,2
1,prac,1,0.0,2-Back,0.0,m,Wed Mar 11 2026 13:35:17 GMT-0500 (Central Daylight Time),565172.0,022_y_f_n_a.png,O,None,2010,5,1,2858.6000000089407,562313.3999999911,7772,VNB,C,3
1,prac,1,1.0,2-Back,0.0,z,Wed Mar 11 2026 13:35:17 GMT-0500 (Central Daylight Time),567955.3999999911,015_o_m_h_a.png,O,None,2008,6,1,2775.0,565180.3999999911,7772,VNB,C,4
1,prac,1,1.0,2-Back,0.0,z,Wed Mar 11 2026 13:35:17 GMT-0500 (Central Daylight Time),570254.799999997,025_y_m_n_a.png,O,m,1457,7,1,2295.2000000029802,567959.599999994,7772,VNB,C,5
1,prac,1,0.0,2-Back,0.0,m,Wed Mar 11 2026 13:35:17 GMT-0500 (Central Daylight Time),572555.5,019_m_f_d_a.png,O,z,1433,8,1,2290.7000000029802,570264.799999997,7772,VNB,C,6
2,prac,1,0.0,2-Back,1.0,m,Wed Mar 11 2026 13:35:17 GMT-0500 (Central Daylight Time),574191.799999997,012_o_f_d_a.png,O,m,771,9,1,1631.2000000029802,572560.599999994,7772,VNB,C,7
2,prac,1,0.0,2-Back,0.0,m,Wed Mar 11 2026 13:35:17 GMT-0500 (Central Daylight Time),576620.8999999911,014_m_m_h_a.png,O,z,1656,10,1,2422.7999999970198,574198.099999994,7772,VNB,C,8
2,prac,1,1.0,2-Back,0.0,z,Wed Mar 11 2026 13:35:17 GMT-0500 (Central Daylight Time),578302.799999997,022_y_f_d_a.png,O,m,812,11,1,1676.2999999970198,576626.5,7772,VNB,C,9
3,prac,1,0.0,2-Back,1.0,m,Wed Mar 11 2026 13:35:17 GMT-0500 (Central Daylight Time),580400.8999999911,015_o_m_n_a.png,O,m,1228,12,1,2087.199999988079,578313.700000003,7772,VNB,C,10
0,prac,2,0.0,2-Back,,,Wed Mar 11 2026 13:35:17 GMT-0500 (Central Daylight Time),580400.8999999911,019_m_f_n_a.png,O,a,4823,1,1,2087.199999988079,578313.700000003,7772,VNB,C,0
0,prac,2,0.0,2-Back,,,Wed Mar 11 2026 13:35:17 GMT-0500 (Central Daylight Time),580400.8999999911,012_o_f_h_a.png,O,a,4823,2,1,2087.199999988079,578313.700000003,7772,VNB,C,0
1,prac,2,0.0,2-Back,1.0,m,Wed Mar 11 2026 13:35:17 GMT-0500 (Central Daylight Time),592681.0,015_o_m_d_a.png,O,m,1355,3,1,2220.0,590461.0,7772,VNB,C,1
2,prac,2,1.0,2-Back,1.0,z,Wed Mar 11 2026 13:35:17 GMT-0500 (Central Daylight Time),595048.200000003,014_m_m_h_a.png,O,z,1604,4,1,2362.0,592686.200000003,7772,VNB,C,2
3,prac,2,0.0,2-Back,1.0,m,Wed Mar 11 2026 13:35:17 GMT-0500 (Central Daylight Time),597212.599999994,022_y_f_n_a.png,O,m,1295,5,1,2151.0,595061.599999994,7772,VNB,C,3
4,prac,2,1.0,2-Back,1.0,z,Wed Mar 11 2026 13:35:17 GMT-0500 (Central Daylight Time),599545.200000003,015_o_m_h_a.png,O,z,1459,6,1,2329.1000000089407,597216.099999994,7772,VNB,C,4
5,prac,2,1.0,2-Back,1.0,z,Wed Mar 11 2026 13:35:17 GMT-0500 (Central Daylight Time),601944.599999994,025_y_m_n_a.png,O,z,1547,7,1,2389.0999999940395,599555.5,7772,VNB,C,5
6,prac,2,0.0,2-Back,1.0,m,Wed Mar 11 2026 13:35:17 GMT-0500 (Central Daylight Time),603843.8999999911,019_m_f_d_a.png,O,m,1038,8,1,1892.0,601951.8999999911,7772,VNB,C,6
6,prac,2,0.0,2-Back,0.0,m,Wed Mar 11 2026 13:35:17 GMT-0500 (Central Daylight Time),606259.8999999911,012_o_f_d_a.png,O,z,1539,9,1,2406.8999999910593,603853.0,7772,VNB,C,7
7,prac,2,0.0,2-Back,1.0,m,Wed Mar 11 2026 13:35:17 GMT-0500 (Central Daylight Time),608209.3999999911,014_m_m_h_a.png,O,m,1168,10,1,1943.2999999970198,606266.099999994,7772,VNB,C,8
7,prac,2,1.0,2-Back,0.0,z,Wed Mar 11 2026 13:35:17 GMT-0500 (Central Daylight Time),610625.799999997,022_y_f_d_a.png,O,m,1541,11,1,2405.9000000059605,608219.8999999911,7772,VNB,C,9
8,prac,2,0.0,2-Back,1.0,m,Wed Mar 11 2026 13:35:17 GMT-0500 (Central Daylight Time),612609.5,015_o_m_n_a.png,O,m,1124,12,1,1978.4000000059605,610631.099999994,7772,VNB,C,10
0,test,1,0.0,2-Back,,,Wed Mar 11 2026 13:35:17 GMT-0500 (Central Daylight Time),612609.5,025_y_m_h_a.png,O,space,12842,1,1,1978.4000000059605,610631.099999994,7772,VNB,C,0
0,test,1,0.0,2-Back,,,Wed Mar 11 2026 13:35:17 GMT-0500 (Central Daylight Time),612609.5,012_o_f_n_a.png,O,space,12842,2,1,1978.4000000059605,610631.099999994,7772,VNB,C,0
1,test,1,0.0,2-Back,1.0,z,Wed Mar 11 2026 13:35:17 GMT-0500 (Central Daylight Time),641965.700000003,015_o_m_h_a.png,O,z,814,3,1,1821.1000000089407,640144.599999994,7772,VNB,C,1
2,test,1,0.0,2-Back,1.0,m,Wed Mar 11 2026 13:35:17 GMT-0500 (Central Daylight Time),643897.299999997,019_m_f_d_a.png,O,m,907,4,1,1927.4000000059605,641969.8999999911,7772,VNB,C,2
2,test,1,1.0,2-Back,0.0,m,Wed Mar 11 2026 13:35:17 GMT-0500 (Central Daylight Time),646231.299999997,025_y_m_n_a.png,O,z,1312,5,1,2326.4000000059605,643904.8999999911,7772,VNB,C,3
2,test,1,0.0,2-Back,0.0,z,Wed Mar 11 2026 13:35:17 GMT-0500 (Central Daylight Time),648680.700000003,022_y_f_d_a.png,O,m,1418,6,1,2446.2000000029802,646234.5,7772,VNB,C,4
2,test,1,0.0,2-Back,0.0,m,Wed Mar 11 2026 13:35:17 GMT-0500 (Central Daylight Time),651329.099999994,014_m_m_h_a.png,O,z,1619,7,1,2636.5999999940395,648692.5,7772,VNB,C,5
3,test,1,1.0,2-Back,1.0,m,Wed Mar 11 2026 13:35:17 GMT-0500 (Central Daylight Time),653711.799999997,022_y_f_n_a.png,O,m,1352,8,1,2378.5,651333.299999997,7772,VNB,C,6
4,test,1,0.0,2-Back,1.0,z,Wed Mar 11 2026 13:35:17 GMT-0500 (Central Daylight Time),655409.3999999911,012_o_f_h_a.png,O,z,673,9,1,1689.8999999910593,653719.5,7772,VNB,C,7
5,test,1,0.0,2-Back,1.0,m,Wed Mar 11 2026 13:35:17 GMT-0500 (Central Daylight Time),657343.599999994,015_o_m_d_a.png,O,m,910,10,1,1932.3999999910593,655411.200000003,7772,VNB,C,8
5,test,1,1.0,2-Back,0.0,m,Wed Mar 11 2026 13:35:17 GMT-0500 (Central Daylight Time),660026.5,014_m_m_d_a.png,O,z,1658,11,1,2676.6000000089407,657349.8999999911,7772,VNB,C,9
6,test,1,0.0,2-Back,1.0,m,Wed Mar 11 2026 13:35:17 GMT-0500 (Central Daylight Time),662326.3999999911,019_m_f_n_a.png,O,m,1279,12,1,2297.3999999910593,660029.0,7772,VNB,C,10
7,test,1,0.0,2-Back,1.0,m,Wed Mar 11 2026 13:35:17 GMT-0500 (Central Daylight Time),665291.799999997,022_y_f_h_a.png,O,m,1951,13,1,2954.5,662337.299999997,7772,VNB,C,11
7,test,1,0.0,2-Back,0.0,z,Wed Mar 11 2026 13:35:17 GMT-0500 (Central Daylight Time),668323.8999999911,014_m_m_n_a.png,O,None,2015,14,1,3029.5999999940395,665294.299999997,7772,VNB,C,12
8,test,1,0.0,2-Back,1.0,m,Wed Mar 11 2026 13:35:17 GMT-0500 (Central Daylight Time),670524.099999994,025_y_m_d_a.png,O,m,1173,15,1,2194.5999999940395,668329.5,7772,VNB,C,13
8,test,1,1.0,2-Back,0.0,m,Wed Mar 11 2026 13:35:17 GMT-0500 (Central Daylight Time),673173.099999994,019_m_f_h_a.png,O,z,1615,16,1,2646.2999999970198,670526.799999997,7772,VNB,C,14
9,test,1,0.0,2-Back,1.0,z,Wed Mar 11 2026 13:35:17 GMT-0500 (Central Daylight Time),674756.599999994,012_o_f_d_a.png,O,z,567,17,1,1574.2000000029802,673182.3999999911,7772,VNB,C,15
10,test,1,0.0,2-Back,1.0,m,Wed Mar 11 2026 13:35:17 GMT-0500 (Central Daylight Time),677070.599999994,015_o_m_n_a.png,O,m,1286,18,1,2310.2999999970198,674760.299999997,7772,VNB,C,16
0,test,2,0.0,2-Back,,,Wed Mar 11 2026 13:35:17 GMT-0500 (Central Daylight Time),677070.599999994,014_m_m_h_a.png,O,space,4566,1,1,2310.2999999970198,674760.299999997,7772,VNB,C,0
0,test,2,0.0,2-Back,,,Wed Mar 11 2026 13:35:17 GMT-0500 (Central Daylight Time),677070.599999994,022_y_f_n_a.png,O,space,4566,2,1,2310.2999999970198,674760.299999997,7772,VNB,C,0
1,test,2,1.0,2-Back,1.0,z,Wed Mar 11 2026 13:35:17 GMT-0500 (Central Daylight Time),688717.0,012_o_f_h_a.png,O,z,866,3,1,1876.7999999970198,686840.200000003,7772,VNB,C,1
2,test,2,0.0,2-Back,1.0,m,Wed Mar 11 2026 13:35:17 GMT-0500 (Central Daylight Time),690616.3999999911,015_o_m_d_a.png,O,m,877,4,1,1897.199999988079,688719.200000003,7772,VNB,C,2
3,test,2,0.0,2-Back,1.0,m,Wed Mar 11 2026 13:35:17 GMT-0500 (Central Daylight Time),692799.8999999911,019_m_f_d_a.png,O,m,1163,5,1,2173.199999988079,690626.700000003,7772,VNB,C,3
3,test,2,0.0,2-Back,0.0,m,Wed Mar 11 2026 13:35:17 GMT-0500 (Central Daylight Time),694964.799999997,025_y_m_h_a.png,O,z,1147,6,1,2162.4000000059605,692802.3999999911,7772,VNB,C,4
3,test,2,0.0,2-Back,0.0,m,Wed Mar 11 2026 13:35:17 GMT-0500 (Central Daylight Time),697447.099999994,012_o_f_n_a.png,O,z,1461,7,1,2475.5,694971.599999994,7772,VNB,C,5
4,test,2,1.0,2-Back,1.0,z,Wed Mar 11 2026 13:35:17 GMT-0500 (Central Daylight Time),700097.3999999911,015_o_m_h_a.png,O,z,1626,8,1,2647.699999988079,697449.700000003,7772,VNB,C,6
5,test,2,0.0,2-Back,1.0,m,Wed Mar 11 2026 13:35:17 GMT-0500 (Central Daylight Time),702129.200000003,022_y_f_d_a.png,O,m,1008,9,1,2023.4000000059605,700105.799999997,7772,VNB,C,7
6,test,2,0.0,2-Back,1.0,m,Wed Mar 11 2026 13:35:17 GMT-0500 (Central Daylight Time),705060.599999994,025_y_m_d_a.png,O,m,1910,10,1,2929.2999999970198,702131.299999997,7772,VNB,C,8
7,test,2,0.0,2-Back,1.0,m,Wed Mar 11 2026 13:35:17 GMT-0500 (Central Daylight Time),707727.799999997,014_m_m_n_a.png,O,m,1635,11,1,2659.4000000059605,705068.3999999911,7772,VNB,C,9
7,test,2,0.0,2-Back,0.0,m,Wed Mar 11 2026 13:35:17 GMT-0500 (Central Daylight Time),710759.8999999911,019_m_f_h_a.png,O,None,2015,12,1,3029.3999999910593,707730.5,7772,VNB,C,10
8,test,2,1.0,2-Back,1.0,z,Wed Mar 11 2026 13:35:17 GMT-0500 (Central Daylight Time),713126.299999997,015_o_m_n_a.png,O,z,1348,13,1,2359.5,710766.799999997,7772,VNB,C,11
9,test,2,0.0,2-Back,1.0,m,Wed Mar 11 2026 13:35:17 GMT-0500 (Central Daylight Time),715525.200000003,012_o_f_d_a.png,O,m,1380,14,1,2396.0,713129.200000003,7772,VNB,C,12
10,test,2,0.0,2-Back,1.0,m,Wed Mar 11 2026 13:35:17 GMT-0500 (Central Daylight Time),717574.8999999911,022_y_f_h_a.png,O,m,1021,15,1,2045.3999999910593,715529.5,7772,VNB,C,13
11,test,2,0.0,2-Back,1.0,z,Wed Mar 11 2026 13:35:17 GMT-0500 (Central Daylight Time),720056.700000003,014_m_m_d_a.png,O,z,1458,16,1,2478.4000000059605,717578.299999997,7772,VNB,C,14
12,test,2,0.0,2-Back,1.0,m,Wed Mar 11 2026 13:35:17 GMT-0500 (Central Daylight Time),722256.0,025_y_m_n_a.png,O,m,1169,17,1,2191.5,720064.5,7772,VNB,C,15
13,test,2,1.0,2-Back,1.0,m,Wed Mar 11 2026 13:35:17 GMT-0500 (Central Daylight Time),724839.700000003,019_m_f_n_a.png,O,m,1561,18,1,2578.6000000089407,722261.099999994,7772,VNB,C,16
0,test,3,1.0,2-Back,,,Wed Mar 11 2026 13:35:17 GMT-0500 (Central Daylight Time),724839.700000003,015_o_m_n_a.png,O,space,3316,1,1,2578.6000000089407,722261.099999994,7772,VNB,C,0
0,test,3,1.0,2-Back,,,Wed Mar 11 2026 13:35:17 GMT-0500 (Central Daylight Time),724839.700000003,012_o_f_d_a.png,O,space,3316,2,1,2578.6000000089407,722261.099999994,7772,VNB,C,0
1,test,3,0.0,2-Back,1.0,m,Wed Mar 11 2026 13:35:17 GMT-0500 (Central Daylight Time),735285.200000003,022_y_f_h_a.png,O,m,1038,3,1,2052.800000011921,733232.3999999911,7772,VNB,C,1
2,test,3,0.0,2-Back,1.0,z,Wed Mar 11 2026 13:35:17 GMT-0500 (Central Daylight Time),737334.200000003,019_m_f_d_a.png,O,z,1027,4,1,2044.4000000059605,735289.799999997,7772,VNB,C,2
2,test,3,1.0,2-Back,0.0,m,Wed Mar 11 2026 13:35:17 GMT-0500 (Central Daylight Time),739717.799999997,025_y_m_n_a.png,O,z,1365,5,1,2379.0,737338.799999997,7772,VNB,C,3
3,test,3,0.0,2-Back,1.0,m,Wed Mar 11 2026 13:35:17 GMT-0500 (Central Daylight Time),742183.700000003,015_o_m_h_a.png,O,m,1437,6,1,2462.800000011921,739720.8999999911,7772,VNB,C,4
4,test,3,0.0,2-Back,1.0,z,Wed Mar 11 2026 13:35:17 GMT-0500 (Central Daylight Time),744282.3999999911,022_y_f_n_a.png,O,z,1082,7,1,2088.0,742194.3999999911,7772,VNB,C,5
4,test,3,1.0,2-Back,0.0,m,Wed Mar 11 2026 13:35:17 GMT-0500 (Central Daylight Time),746765.5,014_m_m_d_a.png,O,z,1456,8,1,2480.7000000029802,744284.799999997,7772,VNB,C,6
5,test,3,0.0,2-Back,1.0,m,Wed Mar 11 2026 13:35:17 GMT-0500 (Central Daylight Time),748915.099999994,025_y_m_d_a.png,O,m,1117,9,1,2140.2000000029802,746774.8999999911,7772,VNB,C,7
6,test,3,0.0,2-Back,1.0,m,Wed Mar 11 2026 13:35:17 GMT-0500 (Central Daylight Time),751296.3999999911,012_o_f_h_a.png,O,m,1351,10,1,2378.199999988079,748918.200000003,7772,VNB,C,8
7,test,3,1.0,2-Back,1.0,m,Wed Mar 11 2026 13:35:17 GMT-0500 (Central Daylight Time),753930.599999994,019_m_f_n_a.png,O,m,1602,11,1,2629.3999999910593,751301.200000003,7772,VNB,C,9
8,test,3,1.0,2-Back,1.0,z,Wed Mar 11 2026 13:35:17 GMT-0500 (Central Daylight Time),756579.799999997,014_m_m_h_a.png,O,z,1625,12,1,2645.7000000029802,753934.099999994,7772,VNB,C,10
8,test,3,0.0,2-Back,0.0,m,Wed Mar 11 2026 13:35:17 GMT-0500 (Central Daylight Time),759277.3999999911,022_y_f_d_a.png,O,z,1671,13,1,2689.0999999940395,756588.299999997,7772,VNB,C,11
9,test,3,0.0,2-Back,1.0,m,Wed Mar 11 2026 13:35:17 GMT-0500 (Central Daylight Time),761426.299999997,012_o_f_n_a.png,O,m,1114,14,1,2145.7999999970198,759280.5,7772,VNB,C,12
9,test,3,0.0,2-Back,0.0,z,Wed Mar 11 2026 13:35:17 GMT-0500 (Central Daylight Time),764093.799999997,015_o_m_d_a.png,O,m,1639,15,1,2664.2000000029802,761429.599999994,7772,VNB,C,13
10,test,3,1.0,2-Back,1.0,m,Wed Mar 11 2026 13:35:17 GMT-0500 (Central Daylight Time),766042.299999997,019_m_f_h_a.png,O,m,925,16,1,1945.4000000059605,764096.8999999911,7772,VNB,C,14
11,test,3,0.0,2-Back,1.0,m,Wed Mar 11 2026 13:35:17 GMT-0500 (Central Daylight Time),768826.200000003,014_m_m_n_a.png,O,m,1759,17,1,2777.0,766049.200000003,7772,VNB,C,15
12,test,3,0.0,2-Back,1.0,z,Wed Mar 11 2026 13:35:17 GMT-0500 (Central Daylight Time),770510.799999997,025_y_m_h_a.png,O,z,669,18,1,1682.7999999970198,768828.0,7772,VNB,C,16
0,test,4,0.0,2-Back,,,Wed Mar 11 2026 13:35:17 GMT-0500 (Central Daylight Time),770510.799999997,019_m_f_n_a.png,O,space,2259,1,1,1682.7999999970198,768828.0,7772,VNB,C,0
0,test,4,0.0,2-Back,,,Wed Mar 11 2026 13:35:17 GMT-0500 (Central Daylight Time),770510.799999997,015_o_m_n_a.png,O,space,2259,2,1,1682.7999999970198,768828.0,7772,VNB,C,0
1,test,4,1.0,2-Back,1.0,m,Wed Mar 11 2026 13:35:17 GMT-0500 (Central Daylight Time),779955.099999994,025_y_m_h_a.png,O,m,941,3,1,1954.2999999970198,778000.799999997,7772,VNB,C,1
2,test,4,1.0,2-Back,1.0,m,Wed Mar 11 2026 13:35:17 GMT-0500 (Central Daylight Time),781854.700000003,012_o_f_d_a.png,O,m,868,4,1,1897.0,779957.700000003,7772,VNB,C,2
3,test,4,0.0,2-Back,1.0,z,Wed Mar 11 2026 13:35:17 GMT-0500 (Central Daylight Time),784168.599999994,015_o_m_h_a.png,O,z,1293,5,1,2301.7000000029802,781866.8999999911,7772,VNB,C,3
3,test,4,0.0,2-Back,0.0,m,Wed Mar 11 2026 13:35:17 GMT-0500 (Central Daylight Time),786360.3999999911,014_m_m_n_a.png,O,z,1158,6,1,2189.8999999910593,784170.5,7772,VNB,C,4
4,test,4,0.0,2-Back,1.0,m,Wed Mar 11 2026 13:35:17 GMT-0500 (Central Daylight Time),788918.799999997,019_m_f_d_a.png,O,m,1537,7,1,2555.7000000029802,786363.099999994,7772,VNB,C,5
4,test,4,0.0,2-Back,0.0,z,Wed Mar 11 2026 13:35:17 GMT-0500 (Central Daylight Time),791368.099999994,022_y_f_n_a.png,O,m,1419,8,1,2446.8999999910593,788921.200000003,7772,VNB,C,6
4,test,4,1.0,2-Back,0.0,m,Wed Mar 11 2026 13:35:17 GMT-0500 (Central Daylight Time),794400.799999997,012_o_f_h_a.png,O,None,2017,9,1,3025.5,791375.299999997,7772,VNB,C,7
4,test,4,0.0,2-Back,0.0,m,Wed Mar 11 2026 13:35:17 GMT-0500 (Central Daylight Time),796848.799999997,014_m_m_h_a.png,O,z,1427,10,1,2444.2000000029802,794404.599999994,7772,VNB,C,8
5,test,4,0.0,2-Back,1.0,m,Wed Mar 11 2026 13:35:17 GMT-0500 (Central Daylight Time),798966.200000003,022_y_f_d_a.png,O,m,1101,11,1,2111.1000000089407,796855.099999994,7772,VNB,C,9
5,test,4,0.0,2-Back,0.0,m,Wed Mar 11 2026 13:35:17 GMT-0500 (Central Daylight Time),800882.5,025_y_m_n_a.png,O,z,883,12,1,1912.6000000089407,798969.8999999911,7772,VNB,C,10
5,test,4,0.0,2-Back,0.0,z,Wed Mar 11 2026 13:35:17 GMT-0500 (Central Daylight Time),802930.799999997,015_o_m_d_a.png,O,m,1024,13,1,2038.4000000059605,800892.3999999911,7772,VNB,C,11
6,test,4,1.0,2-Back,1.0,m,Wed Mar 11 2026 13:35:17 GMT-0500 (Central Daylight Time),805164.099999994,019_m_f_h_a.png,O,m,1209,14,1,2230.7000000029802,802933.3999999911,7772,VNB,C,12
7,test,4,1.0,2-Back,1.0,m,Wed Mar 11 2026 13:35:17 GMT-0500 (Central Daylight Time),807429.099999994,022_y_f_h_a.png,O,m,1248,15,1,2253.7999999970198,805175.299999997,7772,VNB,C,13
7,test,4,0.0,2-Back,0.0,m,Wed Mar 11 2026 13:35:17 GMT-0500 (Central Daylight Time),809778.099999994,012_o_f_n_a.png,O,z,1323,16,1,2345.5999999940395,807432.5,7772,VNB,C,14
8,test,4,0.0,2-Back,1.0,m,Wed Mar 11 2026 13:35:17 GMT-0500 (Central Daylight Time),812111.700000003,025_y_m_d_a.png,O,m,1302,17,1,2327.2000000029802,809784.5,7772,VNB,C,15
9,test,4,1.0,2-Back,1.0,m,Wed Mar 11 2026 13:35:17 GMT-0500 (Central Daylight Time),814362.3999999911,014_m_m_d_a.png,O,m,1219,18,1,2246.8999999910593,812115.5,7772,VNB,C,16
0,test,5,1.0,2-Back,,,Wed Mar 11 2026 13:35:17 GMT-0500 (Central Daylight Time),814362.3999999911,022_y_f_d_a.png,O,space,2376,1,1,2246.8999999910593,812115.5,7772,VNB,C,0
0,test,5,1.0,2-Back,,,Wed Mar 11 2026 13:35:17 GMT-0500 (Central Daylight Time),814362.3999999911,012_o_f_h_a.png,O,space,2376,2,1,2246.8999999910593,812115.5,7772,VNB,C,0
1,test,5,1.0,2-Back,1.0,z,Wed Mar 11 2026 13:35:17 GMT-0500 (Central Daylight Time),824038.5,015_o_m_d_a.png,O,z,1050,3,1,2069.4000000059605,821969.099999994,7772,VNB,C,1
2,test,5,1.0,2-Back,1.0,m,Wed Mar 11 2026 13:35:17 GMT-0500 (Central Daylight Time),826122.599999994,019_m_f_n_a.png,O,m,1072,4,1,2082.0999999940395,824040.5,7772,VNB,C,2
2,test,5,0.0,2-Back,0.0,m,Wed Mar 11 2026 13:35:17 GMT-0500 (Central Daylight Time),828422.599999994,014_m_m_h_a.png,O,z,1269,5,1,2293.5,826129.099999994,7772,VNB,C,3
2,test,5,0.0,2-Back,0.0,z,Wed Mar 11 2026 13:35:17 GMT-0500 (Central Daylight Time),830988.3999999911,022_y_f_n_a.png,O,m,1542,6,1,2562.3999999910593,828426.0,7772,VNB,C,4
2,test,5,0.0,2-Back,0.0,m,Wed Mar 11 2026 13:35:17 GMT-0500 (Central Daylight Time),833577.8999999911,012_o_f_d_a.png,O,z,1571,7,1,2581.2999999970198,830996.599999994,7772,VNB,C,5
3,test,5,0.0,2-Back,1.0,m,Wed Mar 11 2026 13:35:17 GMT-0500 (Central Daylight Time),835719.8999999911,015_o_m_h_a.png,O,m,1125,8,1,2135.3999999910593,833584.5,7772,VNB,C,6
3,test,5,1.0,2-Back,0.0,z,Wed Mar 11 2026 13:35:17 GMT-0500 (Central Daylight Time),838403.3999999911,019_m_f_d_a.png,O,m,1658,9,1,2677.0,835726.3999999911,7772,VNB,C,7
3,test,5,0.0,2-Back,0.0,m,Wed Mar 11 2026 13:35:17 GMT-0500 (Central Daylight Time),840835.299999997,025_y_m_n_a.png,O,z,1406,10,1,2428.7000000029802,838406.599999994,7772,VNB,C,8
4,test,5,0.0,2-Back,1.0,m,Wed Mar 11 2026 13:35:17 GMT-0500 (Central Daylight Time),842917.700000003,014_m_m_n_a.png,O,m,1064,11,1,2075.1000000089407,840842.599999994,7772,VNB,C,9
5,test,5,0.0,2-Back,1.0,m,Wed Mar 11 2026 13:35:17 GMT-0500 (Central Daylight Time),845650.299999997,022_y_f_h_a.png,O,m,1700,12,1,2730.2999999970198,842920.0,7772,VNB,C,10
6,test,5,0.0,2-Back,1.0,m,Wed Mar 11 2026 13:35:17 GMT-0500 (Central Daylight Time),848118.0,025_y_m_d_a.png,O,m,1435,13,1,2458.2000000029802,845659.799999997,7772,VNB,C,11
7,test,5,1.0,2-Back,1.0,z,Wed Mar 11 2026 13:35:17 GMT-0500 (Central Daylight Time),851098.799999997,019_m_f_h_a.png,O,z,1948,14,1,2978.0,848120.799999997,7772,VNB,C,12
8,test,5,0.0,2-Back,1.0,m,Wed Mar 11 2026 13:35:17 GMT-0500 (Central Daylight Time),853630.700000003,015_o_m_n_a.png,O,m,1502,15,1,2525.7000000029802,851105.0,7772,VNB,C,13
9,test,5,0.0,2-Back,1.0,m,Wed Mar 11 2026 13:35:17 GMT-0500 (Central Daylight Time),855864.3999999911,014_m_m_d_a.png,O,m,1211,16,1,2229.199999988079,853635.200000003,7772,VNB,C,14
9,test,5,0.0,2-Back,0.0,z,Wed Mar 11 2026 13:35:17 GMT-0500 (Central Daylight Time),858895.5,012_o_f_n_a.png,O,None,2015,17,1,3020.0,855875.5,7772,VNB,C,15
10,test,5,1.0,2-Back,1.0,m,Wed Mar 11 2026 13:35:17 GMT-0500 (Central Daylight Time),861311.599999994,025_y_m_h_a.png,O,m,1384,18,1,2413.0999999940395,858898.5,7772,VNB,C,16
