acc_sum,block,block_c,condition,correct,correct_response,datetime,endtime,flanker,jitter,project,response,response_test_buffer_response,response_test_target_response,response_time,response_time_test_buffer_response,response_time_test_target_response,row_sel,session_number,start_end,starttime,subject_id,target,task,task_vers,time_test_buffer,time_test_buffer_response,time_test_constants,time_test_flanker,time_test_jitter,time_test_logger,time_test_target,time_test_target_response,time_test_variables,trial
1,prac,1,con,1,z,Wed Sep 24 2025 16:15:42 GMT-0500 (Central Daylight Time),63671.90000009537,rage,1000,I,z,,,644,,,15,3,2941.9000000953674,60730.0,8035,rage,AF,A,,,,,,,,,,1
2,prac,1,inc,1,z,Wed Sep 24 2025 16:15:42 GMT-0500 (Central Daylight Time),66553.70000004768,film,900,I,z,,,668,,,14,3,2871.2999999523163,63682.40000009537,8035,hate,AF,A,,,,,,,,,,2
3,prac,1,con,1,m,Wed Sep 24 2025 16:15:42 GMT-0500 (Central Daylight Time),69301.59999990463,step,800,I,m,,,663,,,1,3,2741.0999999046326,66560.5,8035,step,AF,A,,,,,,,,,,3
4,prac,1,inc,1,m,Wed Sep 24 2025 16:15:42 GMT-0500 (Central Daylight Time),72384.29999995232,brutal,1100,I,m,,,677,,,8,3,3075.899999856949,69308.40000009537,8035,window,AF,A,,,,,,,,,,4
5,prac,1,con,1,z,Wed Sep 24 2025 16:15:42 GMT-0500 (Central Daylight Time),75250.70000004768,love,1000,I,z,,,558,,,11,3,2858.2999999523163,72392.40000009537,8035,love,AF,A,,,,,,,,,,5
6,prac,1,inc,1,m,Wed Sep 24 2025 16:15:42 GMT-0500 (Central Daylight Time),78232.70000004768,hate,1100,I,m,,,590,,,4,3,2977.7999999523163,75254.90000009537,8035,film,AF,A,,,,,,,,,,6
7,prac,1,inc,1,m,Wed Sep 24 2025 16:15:42 GMT-0500 (Central Daylight Time),81215.70000004768,kind,900,I,m,,,782,,,2,3,2977.2999999523163,78238.40000009537,8035,rock,AF,A,,,,,,,,,,7
8,prac,1,inc,1,m,Wed Sep 24 2025 16:15:42 GMT-0500 (Central Daylight Time),84181.59999990463,elated,900,I,m,,,765,,,6,3,2959.0,81222.59999990463,8035,napkin,AF,A,,,,,,,,,,8
9,prac,1,con,1,z,Wed Sep 24 2025 16:15:42 GMT-0500 (Central Daylight Time),87063.90000009537,elated,800,I,z,,,770,,,9,3,2875.9000000953674,84188.0,8035,elated,AF,A,,,,,,,,,,9
10,prac,1,con,1,m,Wed Sep 24 2025 16:15:42 GMT-0500 (Central Daylight Time),90629.5,remote,1000,I,m,,,1265,,,7,3,3558.9000000953674,87070.59999990463,8035,remote,AF,A,,,,,,,,,,10
11,prac,1,con,1,m,Wed Sep 24 2025 16:15:42 GMT-0500 (Central Daylight Time),93628.59999990463,bell,1000,I,m,,,698,,,3,3,2992.7999999523163,90635.79999995232,8035,bell,AF,A,,,,,,,,,,11
11,prac,1,inc,0,z,Wed Sep 24 2025 16:15:42 GMT-0500 (Central Daylight Time),97107.70000004768,napkin,1100,I,m,,,1087,,,12,3,3473.100000143051,93634.59999990463,8035,friend,AF,A,,,,,,,,,,12
12,prac,1,con,1,z,Wed Sep 24 2025 16:15:42 GMT-0500 (Central Daylight Time),100543.90000009537,brutal,800,I,z,,,1338,,,13,3,3432.9000000953674,97111.0,8035,brutal,AF,A,,,,,,,,,,13
12,prac,1,inc,0,z,Wed Sep 24 2025 16:15:42 GMT-0500 (Central Daylight Time),103807.70000004768,window,1100,I,m,,,852,,,16,3,3257.2000000476837,100550.5,8035,temper,AF,A,,,,,,,,,,14
13,prac,1,con,1,m,Wed Sep 24 2025 16:15:42 GMT-0500 (Central Daylight Time),106724.29999995232,jacket,800,I,m,,,800,,,5,3,2909.2999999523163,103815.0,8035,jacket,AF,A,,,,,,,,,,15
14,prac,1,inc,1,z,Wed Sep 24 2025 16:15:42 GMT-0500 (Central Daylight Time),109755.5,rock,900,I,z,,,832,,,10,3,3027.2000000476837,106728.29999995232,8035,kind,AF,A,,,,,,,,,,16
1,test,1,con,1,m,Wed Sep 24 2025 16:15:42 GMT-0500 (Central Daylight Time),130881.5,window,800,I,m,m,None,768,569.0,199.0,121,3,2107.7000000476837,128773.79999995232,8035,window,AF,A,128621,128621,127096,127904,127096,129204,128421,128421,129203,1
2,test,1,inc,1,m,Wed Sep 24 2025 16:15:42 GMT-0500 (Central Daylight Time),133063.70000004768,love,1000,I,m,m,None,637,438.0,199.0,79,3,2176.0,130887.70000004768,8035,rock,AF,A,130937,130937,129210,130220,129210,131386,130737,130737,131386,2
3,test,1,inc,1,z,Wed Sep 24 2025 16:15:42 GMT-0500 (Central Daylight Time),135213.59999990463,rock,900,I,z,z,None,714,500.0,214.0,46,3,2143.399999856949,133070.20000004768,8035,hate,AF,A,133035,133035,131392,132304,131392,133536,132821,132821,133536,3
4,test,1,inc,1,m,Wed Sep 24 2025 16:15:42 GMT-0500 (Central Daylight Time),137247.0,brutal,900,I,m,m,None,597,395.0,202.0,102,3,2025.4000000953674,135221.59999990463,8035,jacket,AF,A,135172,135172,133544,134452,133544,135569,134969,134969,135569,4
5,test,1,inc,1,z,Wed Sep 24 2025 16:15:42 GMT-0500 (Central Daylight Time),139395.40000009537,rock,900,I,z,z,None,701,502.0,199.0,14,3,2143.600000143051,137251.79999995232,8035,kind,AF,A,137201,137201,135574,136484,135574,137717,137002,137002,137717,5
6,test,1,con,1,z,Wed Sep 24 2025 16:15:42 GMT-0500 (Central Daylight Time),141727.79999995232,temper,1100,I,z,z,None,687,488.0,199.0,60,3,2325.0,139402.79999995232,8035,temper,AF,A,139551,139551,137725,138835,137725,140050,139351,139351,140050,6
7,test,1,inc,1,m,Wed Sep 24 2025 16:15:42 GMT-0500 (Central Daylight Time),143828.09999990463,elated,800,I,m,m,None,750,550.0,200.0,117,3,2094.199999809265,141733.90000009537,8035,remote,AF,A,141584,141584,140056,140868,140056,142150,141383,141383,142150,7
8,test,1,inc,1,z,Wed Sep 24 2025 16:15:42 GMT-0500 (Central Daylight Time),146059.5,jacket,800,I,z,z,None,883,683.0,200.0,37,3,2224.0,143835.5,8035,brutal,AF,A,143684,143684,142158,142967,142158,144382,143483,143483,144381,8
9,test,1,inc,1,z,Wed Sep 24 2025 16:15:42 GMT-0500 (Central Daylight Time),148209.20000004768,bell,1000,I,z,z,None,602,403.0,199.0,23,3,2141.600000143051,146067.59999990463,8035,love,AF,A,146115,146115,144390,145399,144390,146531,145915,145915,146531,9
10,test,1,con,1,m,Wed Sep 24 2025 16:15:42 GMT-0500 (Central Daylight Time),150242.20000004768,remote,900,I,m,m,None,593,394.0,199.0,114,3,2025.0,148217.20000004768,8035,remote,AF,A,148165,148165,146539,147448,146539,148564,147965,147965,148564,10
11,test,1,con,1,z,Wed Sep 24 2025 16:15:42 GMT-0500 (Central Daylight Time),152457.79999995232,hate,1000,I,z,z,None,678,478.0,200.0,43,3,2209.0999999046326,150248.70000004768,8035,hate,AF,A,150297,150297,148571,149581,148571,150780,150097,150097,150780,11
12,test,1,inc,1,m,Wed Sep 24 2025 16:15:42 GMT-0500 (Central Daylight Time),154740.5,rage,800,I,m,m,None,934,733.0,201.0,85,3,2275.5999999046326,152464.90000009537,8035,bell,AF,A,152314,152314,150787,151598,150787,153063,152113,152113,153063,12
13,test,1,inc,1,m,Wed Sep 24 2025 16:15:42 GMT-0500 (Central Daylight Time),157090.59999990463,temper,1000,I,m,m,None,802,603.0,199.0,119,3,2342.699999809265,154747.90000009537,8035,remote,AF,A,154796,154796,153070,154081,153070,155413,154596,154596,155413,13
14,test,1,con,1,z,Wed Sep 24 2025 16:15:42 GMT-0500 (Central Daylight Time),159106.09999990463,brutal,800,I,z,z,None,693,494.0,199.0,33,3,2008.1999998092651,157097.90000009537,8035,brutal,AF,A,156929,156929,155420,156228,155420,157428,156729,156729,157428,14
15,test,1,con,1,z,Wed Sep 24 2025 16:15:42 GMT-0500 (Central Daylight Time),161255.59999990463,temper,800,I,z,z,None,815,600.0,215.0,57,3,2143.399999856949,159112.20000004768,8035,temper,AF,A,158977,158977,157434,158246,157435,159578,158762,158762,159578,15
16,test,1,con,1,m,Wed Sep 24 2025 16:15:42 GMT-0500 (Central Daylight Time),163487.20000004768,step,1100,I,m,m,None,586,386.0,200.0,68,3,2226.4000000953674,161260.79999995232,8035,step,AF,A,161411,161411,159583,160694,159583,161809,161211,161211,161809,16
17,test,1,inc,1,z,Wed Sep 24 2025 16:15:42 GMT-0500 (Central Daylight Time),165754.29999995232,window,1100,I,z,z,None,628,414.0,214.0,32,3,2264.0,163490.29999995232,8035,friend,AF,A,163658,163658,161812,162927,161813,164076,163444,163444,164076,17
18,test,1,inc,1,m,Wed Sep 24 2025 16:15:42 GMT-0500 (Central Daylight Time),167837.70000004768,elated,800,I,m,m,None,749,549.0,200.0,101,3,2078.100000143051,165759.59999990463,8035,jacket,AF,A,165610,165610,164082,164893,164082,166160,165409,165409,166160,18
19,test,1,con,1,z,Wed Sep 24 2025 16:15:42 GMT-0500 (Central Daylight Time),169936.0,rage,800,I,z,z,None,762,562.0,200.0,49,3,2093.5999999046326,167842.40000009537,8035,rage,AF,A,167693,167693,166164,166976,166165,168258,167493,167493,168258,19
20,test,1,inc,1,m,Wed Sep 24 2025 16:15:42 GMT-0500 (Central Daylight Time),172102.29999995232,temper,1000,I,m,m,None,624,422.0,202.0,103,3,2161.7000000476837,169940.59999990463,8035,jacket,AF,A,169994,169994,168263,169275,168263,170424,169791,169791,170424,20
21,test,1,con,1,z,Wed Sep 24 2025 16:15:42 GMT-0500 (Central Daylight Time),174301.5,brutal,1100,I,z,z,None,556,342.0,214.0,36,3,2194.0,172107.5,8035,brutal,AF,A,172273,172273,170430,171541,170430,172624,172059,172059,172624,21
22,test,1,inc,1,z,Wed Sep 24 2025 16:15:42 GMT-0500 (Central Daylight Time),176434.29999995232,napkin,900,I,z,z,None,685,486.0,199.0,38,3,2127.399999856949,174306.90000009537,8035,brutal,AF,A,174256,174256,172629,173540,172629,174756,174057,174057,174756,22
23,test,1,con,1,m,Wed Sep 24 2025 16:15:42 GMT-0500 (Central Daylight Time),178767.29999995232,step,1000,I,m,m,None,816,615.0,201.0,67,3,2328.899999856949,176438.40000009537,8035,step,AF,A,176474,176474,174760,175772,174761,177089,176273,176273,177089,23
24,test,1,con,1,m,Wed Sep 24 2025 16:15:42 GMT-0500 (Central Daylight Time),180949.59999990463,bell,1000,I,m,m,None,638,439.0,199.0,83,3,2175.5,178774.09999990463,8035,bell,AF,A,178822,178823,177096,178105,177096,179272,178623,178623,179272,24
25,test,1,inc,1,m,Wed Sep 24 2025 16:15:42 GMT-0500 (Central Daylight Time),183231.0,friend,1100,I,m,m,None,635,436.0,199.0,128,3,2276.2999999523163,180954.70000004768,8035,window,AF,A,181106,181106,179277,180389,179277,181553,180906,180906,181553,25
26,test,1,con,1,m,Wed Sep 24 2025 16:15:42 GMT-0500 (Central Daylight Time),185230.40000009537,jacket,1000,I,m,m,None,453,254.0,199.0,99,3,1992.8000001907349,183237.59999990463,8035,jacket,AF,A,183288,183288,181560,182570,181560,183552,183088,183088,183552,26
27,test,1,con,1,m,Wed Sep 24 2025 16:15:42 GMT-0500 (Central Daylight Time),187114.40000009537,jacket,800,I,m,m,None,535,336.0,199.0,97,3,1880.0,185234.40000009537,8035,jacket,AF,A,185086,185086,183556,184371,183557,185436,184887,184887,185436,27
28,test,1,inc,1,z,Wed Sep 24 2025 16:15:42 GMT-0500 (Central Daylight Time),188996.79999995232,step,800,I,z,z,None,541,342.0,199.0,53,3,1877.7999999523163,187119.0,8035,rage,AF,A,186969,186969,185441,186254,185441,187319,186770,186770,187319,28
29,test,1,inc,1,z,Wed Sep 24 2025 16:15:42 GMT-0500 (Central Daylight Time),191328.79999995232,napkin,900,I,z,z,None,885,686.0,199.0,62,3,2328.7000000476837,189000.09999990463,8035,temper,AF,A,188952,188952,187322,188236,187322,189651,188753,188753,189651,29
30,test,1,inc,1,z,Wed Sep 24 2025 16:15:42 GMT-0500 (Central Daylight Time),193578.70000004768,remote,1000,I,z,z,None,701,501.0,200.0,31,3,2243.9000000953674,191334.79999995232,8035,friend,AF,A,191385,191385,189657,190669,189657,191901,191185,191185,191901,30
31,test,1,inc,1,m,Wed Sep 24 2025 16:15:42 GMT-0500 (Central Daylight Time),195694.29999995232,kind,900,I,m,m,None,672,471.0,201.0,70,3,2111.0999999046326,193583.20000004768,8035,step,AF,A,193535,193535,191905,192816,191906,194016,193334,193334,194016,31
32,test,1,con,1,m,Wed Sep 24 2025 16:15:42 GMT-0500 (Central Daylight Time),197543.40000009537,step,800,I,m,m,None,503,303.0,200.0,65,3,1844.8000001907349,195698.59999990463,8035,step,AF,A,195551,195551,194021,194835,194021,195865,195350,195350,195865,32
32,test,1,inc,0,z,Wed Sep 24 2025 16:15:42 GMT-0500 (Central Daylight Time),199661.0,film,1100,I,m,m,None,466,267.0,199.0,56,3,2113.2999999523163,197547.70000004768,8035,rage,AF,A,197700,197700,195870,196984,195870,197983,197500,197500,197983,33
33,test,1,con,1,m,Wed Sep 24 2025 16:15:42 GMT-0500 (Central Daylight Time),202127.20000004768,bell,1100,I,m,m,None,832,632.0,200.0,84,3,2460.7999999523163,199666.40000009537,8035,bell,AF,A,199817,199817,197988,199099,197989,200449,199616,199616,200449,34
34,test,1,inc,1,m,Wed Sep 24 2025 16:15:42 GMT-0500 (Central Daylight Time),204459.90000009537,friend,1100,I,m,m,None,685,485.0,200.0,112,3,2328.4000000953674,202131.5,8035,napkin,AF,A,202282,202282,200454,201565,200454,202782,202082,202082,202782,35
35,test,1,con,1,m,Wed Sep 24 2025 16:15:42 GMT-0500 (Central Daylight Time),206990.90000009537,napkin,1100,I,m,m,None,886,687.0,199.0,108,3,2526.0,204464.90000009537,8035,napkin,AF,A,204615,204615,202787,203898,202787,205313,204415,204415,205313,36
36,test,1,inc,1,z,Wed Sep 24 2025 16:15:42 GMT-0500 (Central Daylight Time),209092.29999995232,remote,1000,I,z,z,None,557,357.0,200.0,39,3,2096.5999999046326,206995.70000004768,8035,brutal,AF,A,207048,207048,205318,206330,205318,207414,206847,206847,207414,37
37,test,1,con,1,z,Wed Sep 24 2025 16:15:42 GMT-0500 (Central Daylight Time),211157.5,love,1100,I,z,z,None,425,224.0,201.0,20,3,2058.5999999046326,209098.90000009537,8035,love,AF,A,209247,209247,207421,208530,207421,209480,209046,209046,209480,38
38,test,1,inc,1,z,Wed Sep 24 2025 16:15:42 GMT-0500 (Central Daylight Time),213222.20000004768,rock,900,I,z,z,None,621,422.0,199.0,54,3,2060.100000143051,211162.09999990463,8035,rage,AF,A,211113,211113,209484,210396,209484,211544,210913,210913,211544,39
39,test,1,con,1,z,Wed Sep 24 2025 16:15:42 GMT-0500 (Central Daylight Time),215322.40000009537,friend,900,I,z,z,None,659,458.0,201.0,26,3,2093.800000190735,213228.59999990463,8035,friend,AF,A,213180,213180,211551,212462,211551,213644,212978,212978,213644,40
40,test,1,inc,1,z,Wed Sep 24 2025 16:15:42 GMT-0500 (Central Daylight Time),217220.90000009537,jacket,800,I,z,z,None,556,355.0,201.0,29,3,1895.1000001430511,215325.79999995232,8035,friend,AF,A,215180,215180,213648,214461,213648,215543,214979,214979,215543,41
41,test,1,con,1,m,Wed Sep 24 2025 16:15:42 GMT-0500 (Central Daylight Time),219371.40000009537,napkin,1000,I,m,m,None,617,418.0,199.0,107,3,2145.600000143051,217225.79999995232,8035,napkin,AF,A,217261,217261,215548,216560,215548,217693,217061,217061,217693,42
42,test,1,inc,1,m,Wed Sep 24 2025 16:15:42 GMT-0500 (Central Daylight Time),221619.40000009537,love,1000,I,m,m,None,708,509.0,199.0,71,3,2242.7000000476837,219376.70000004768,8035,step,AF,A,219426,219426,217699,218710,217699,219941,219226,219226,219941,43
43,test,1,inc,1,z,Wed Sep 24 2025 16:15:42 GMT-0500 (Central Daylight Time),223886.09999990463,window,1100,I,z,z,None,632,433.0,199.0,64,3,2261.199999809265,221624.90000009537,8035,temper,AF,A,221775,221775,219947,221059,219947,222208,221576,221576,222208,44
44,test,1,inc,1,z,Wed Sep 24 2025 16:15:42 GMT-0500 (Central Daylight Time),226184.5,jacket,800,I,z,z,None,952,752.0,200.0,61,3,2292.4000000953674,223892.09999990463,8035,temper,AF,A,223742,223742,222214,223025,222214,224507,223541,223541,224507,45
45,test,1,con,1,m,Wed Sep 24 2025 16:15:42 GMT-0500 (Central Daylight Time),228885.40000009537,jacket,1100,I,m,m,None,1050,835.0,215.0,100,3,2695.300000190735,226190.09999990463,8035,jacket,AF,A,226356,226356,224512,225625,224513,227207,226141,226141,227207,46
46,test,1,con,1,z,Wed Sep 24 2025 16:15:42 GMT-0500 (Central Daylight Time),231217.0,kind,1100,I,z,z,None,687,471.0,216.0,12,3,2326.0,228891.0,8035,kind,AF,A,229057,229057,227213,228324,227213,229539,228841,228841,229539,47
47,test,1,con,1,z,Wed Sep 24 2025 16:15:42 GMT-0500 (Central Daylight Time),233515.20000004768,brutal,1000,I,z,z,None,764,551.0,213.0,35,3,2291.5,231223.70000004768,8035,brutal,AF,A,231271,231271,229546,230556,229546,231837,231058,231058,231837,48
48,test,1,con,1,z,Wed Sep 24 2025 16:15:42 GMT-0500 (Central Daylight Time),235733.09999990463,temper,900,I,z,z,None,767,567.0,200.0,58,3,2212.399999856949,233520.70000004768,8035,temper,AF,A,233473,233473,231843,232755,231843,234055,233273,233273,234055,49
49,test,1,inc,1,m,Wed Sep 24 2025 16:15:42 GMT-0500 (Central Daylight Time),237814.79999995232,kind,900,I,m,m,None,638,439.0,199.0,78,3,2076.5,235738.29999995232,8035,rock,AF,A,235688,235688,234060,234972,234060,236137,235488,235488,236137,50
50,test,1,inc,1,m,Wed Sep 24 2025 16:15:42 GMT-0500 (Central Daylight Time),239897.70000004768,rage,800,I,m,m,None,743,528.0,215.0,69,3,2075.9000000953674,237821.79999995232,8035,step,AF,A,237687,237687,236144,236954,236144,238220,237471,237471,238220,51
51,test,1,inc,1,m,Wed Sep 24 2025 16:15:42 GMT-0500 (Central Daylight Time),242014.0,kind,900,I,m,m,None,665,449.0,216.0,94,3,2111.5,239902.5,8035,film,AF,A,239870,239870,238225,239137,238225,240336,239654,239654,240336,52
52,test,1,con,1,m,Wed Sep 24 2025 16:15:42 GMT-0500 (Central Daylight Time),244247.29999995232,window,1000,I,m,m,None,689,474.0,215.0,123,3,2228.0999999046326,242019.20000004768,8035,window,AF,A,242086,242086,240341,241353,240342,242569,241870,241870,242569,53
53,test,1,inc,1,z,Wed Sep 24 2025 16:15:42 GMT-0500 (Central Daylight Time),246446.09999990463,step,800,I,z,z,None,865,666.0,199.0,21,3,2192.699999809265,244253.40000009537,8035,love,AF,A,244102,244102,242575,243385,242576,244768,243902,243902,244768,54
54,test,1,con,1,m,Wed Sep 24 2025 16:15:42 GMT-0500 (Central Daylight Time),248527.40000009537,window,900,I,m,m,None,645,446.0,199.0,122,3,2074.0,246453.40000009537,8035,window,AF,A,246400,246401,244775,245685,244776,246850,246201,246201,246849,55
55,test,1,con,1,m,Wed Sep 24 2025 16:15:42 GMT-0500 (Central Daylight Time),251243.20000004768,remote,1100,I,m,m,None,1066,866.0,200.0,116,3,2709.4000000953674,248533.79999995232,8035,remote,AF,A,248684,248684,246856,247967,246856,249565,248484,248484,249565,56
56,test,1,con,1,m,Wed Sep 24 2025 16:15:42 GMT-0500 (Central Daylight Time),253677.20000004768,window,1100,I,m,m,None,784,585.0,199.0,124,3,2427.2000000476837,251250.0,8035,window,AF,A,251399,251399,249572,250683,249572,251999,251199,251199,251999,57
57,test,1,con,1,m,Wed Sep 24 2025 16:15:42 GMT-0500 (Central Daylight Time),255910.29999995232,remote,1000,I,m,m,None,701,500.0,201.0,115,3,2226.0999999046326,253684.20000004768,8035,remote,AF,A,253732,253732,252006,253014,252007,254232,253531,253531,254232,58
58,test,1,con,1,m,Wed Sep 24 2025 16:15:42 GMT-0500 (Central Daylight Time),257858.59999990463,film,900,I,m,m,None,519,317.0,202.0,90,3,1944.6999998092651,255913.90000009537,8035,film,AF,A,255850,255850,254236,255147,254236,256181,255648,255648,256181,59
59,test,1,inc,1,z,Wed Sep 24 2025 16:15:42 GMT-0500 (Central Daylight Time),259791.09999990463,step,800,I,z,z,None,583,382.0,201.0,45,3,1925.6999998092651,257865.40000009537,8035,hate,AF,A,257715,257715,256187,256998,256188,258113,257513,257513,258113,60
60,test,1,inc,1,z,Wed Sep 24 2025 16:15:42 GMT-0500 (Central Daylight Time),261973.90000009537,film,1100,I,z,z,None,548,348.0,200.0,24,3,2176.600000143051,259797.29999995232,8035,love,AF,A,259947,259947,258119,259230,258120,260296,259745,259746,260296,61
61,test,1,inc,1,m,Wed Sep 24 2025 16:15:42 GMT-0500 (Central Daylight Time),264190.7999999523,hate,1100,I,m,m,None,571,357.0,214.0,88,3,2210.2999999523163,261980.5,8035,bell,AF,A,262145,262145,260302,261415,260303,262513,261930,261930,262513,62
62,test,1,con,1,m,Wed Sep 24 2025 16:15:42 GMT-0500 (Central Daylight Time),266189.40000009537,rock,800,I,m,m,None,664,447.0,217.0,73,3,1991.3000001907349,264198.09999990463,8035,rock,AF,A,264048,264048,262520,263329,262520,264511,263830,263830,264511,63
63,test,1,con,1,z,Wed Sep 24 2025 16:15:42 GMT-0500 (Central Daylight Time),268438.90000009537,kind,1000,I,z,z,None,712,497.0,215.0,11,3,2242.9000000953674,266196.0,8035,kind,AF,A,266261,266261,264518,265527,264518,266761,266045,266045,266761,64
64,test,1,con,1,z,Wed Sep 24 2025 16:15:42 GMT-0500 (Central Daylight Time),270170.0,hate,800,I,z,z,None,393,192.0,201.0,41,3,1727.2999999523163,268442.7000000477,8035,hate,AF,A,268294,268294,266765,267578,266765,268492,268093,268093,268492,65
65,test,1,inc,1,z,Wed Sep 24 2025 16:15:42 GMT-0500 (Central Daylight Time),272702.7999999523,remote,1000,I,z,z,None,988,789.0,199.0,7,3,2525.5999999046326,270177.2000000477,8035,elated,AF,A,270226,270226,268499,269510,268499,271025,270026,270026,271025,66
66,test,1,con,1,m,Wed Sep 24 2025 16:15:42 GMT-0500 (Central Daylight Time),274835.59999990463,film,800,I,m,m,None,798,584.0,214.0,89,3,2124.199999809265,272711.40000009537,8035,film,AF,A,272558,272558,271033,271842,271034,273158,272344,272344,273158,67
67,test,1,con,1,z,Wed Sep 24 2025 16:15:42 GMT-0500 (Central Daylight Time),277386.5,friend,1000,I,z,z,None,1012,812.0,200.0,27,3,2543.0,274843.5,8035,friend,AF,A,274892,274892,273166,274177,273166,275709,274691,274691,275709,68
68,test,1,con,1,z,Wed Sep 24 2025 16:15:42 GMT-0500 (Central Daylight Time),279219.2000000477,kind,900,I,z,z,None,383,168.0,215.0,10,3,1828.7999999523163,277390.40000009537,8035,kind,AF,A,277359,277359,275712,276625,275713,277541,277143,277143,277541,69
69,test,1,con,1,z,Wed Sep 24 2025 16:15:42 GMT-0500 (Central Daylight Time),281950.2999999523,hate,1100,I,z,z,None,1087,888.0,199.0,44,3,2725.7000000476837,279224.59999990463,8035,hate,AF,A,279374,279374,277547,278657,277547,280272,279174,279174,280272,70
70,test,1,inc,1,m,Wed Sep 24 2025 16:15:42 GMT-0500 (Central Daylight Time),284082.7000000477,love,1000,I,m,m,None,593,390.0,203.0,95,3,2126.4000000953674,281956.2999999523,8035,film,AF,A,282009,282009,280278,281290,280279,282405,281805,281806,282405,71
71,test,1,con,1,z,Wed Sep 24 2025 16:15:42 GMT-0500 (Central Daylight Time),286065.7999999523,friend,800,I,z,z,None,651,452.0,199.0,25,3,1976.7000000476837,284089.09999990463,8035,friend,AF,A,283922,283922,282411,283220,282411,284388,283722,283722,284388,72
72,test,1,con,1,z,Wed Sep 24 2025 16:15:42 GMT-0500 (Central Daylight Time),288115.2999999523,love,900,I,z,z,None,607,408.0,199.0,18,3,2043.2999999523163,286072.0,8035,love,AF,A,286022,286022,284394,285305,284394,286437,285822,285822,286437,73
73,test,1,inc,1,m,Wed Sep 24 2025 16:15:42 GMT-0500 (Central Daylight Time),290764.7999999523,friend,1100,I,m,m,None,1015,800.0,215.0,104,3,2644.899999856949,288119.90000009537,8035,jacket,AF,A,288271,288271,286442,287553,286442,289087,288056,288056,289087,74
74,test,1,inc,1,z,Wed Sep 24 2025 16:15:42 GMT-0500 (Central Daylight Time),293063.90000009537,step,800,I,z,z,None,966,765.0,201.0,13,3,2292.0,290771.90000009537,8035,kind,AF,A,290621,290621,289094,289905,289094,291386,290419,290419,291386,75
75,test,1,inc,1,m,Wed Sep 24 2025 16:15:42 GMT-0500 (Central Daylight Time),295429.90000009537,friend,1100,I,m,m,None,732,533.0,199.0,120,3,2360.5,293069.40000009537,8035,remote,AF,A,293219,293219,291391,292503,291392,293752,293019,293019,293752,76
76,test,1,inc,1,z,Wed Sep 24 2025 16:15:42 GMT-0500 (Central Daylight Time),297761.2999999523,remote,1000,I,z,z,None,795,594.0,201.0,63,3,2327.5,295433.7999999523,8035,temper,AF,A,295485,295485,293756,294769,293756,296083,295284,295284,296083,77
77,test,1,con,1,z,Wed Sep 24 2025 16:15:42 GMT-0500 (Central Daylight Time),300045.2999999523,kind,800,I,z,z,None,942,726.0,216.0,9,3,2276.7000000476837,297768.59999990463,8035,kind,AF,A,297634,297634,296091,296901,296091,298367,297417,297418,298367,78
78,test,1,inc,1,z,Wed Sep 24 2025 16:15:42 GMT-0500 (Central Daylight Time),302295.40000009537,film,1100,I,z,z,None,615,416.0,199.0,48,3,2245.0,300050.40000009537,8035,hate,AF,A,300201,300201,298372,299485,298373,300617,300001,300001,300617,79
79,test,1,con,1,m,Wed Sep 24 2025 16:15:42 GMT-0500 (Central Daylight Time),305043.09999990463,film,1000,I,m,m,None,1216,1016.0,200.0,91,3,2742.7999999523163,302300.2999999523,8035,film,AF,A,302334,302334,300622,301631,300623,303365,302133,302133,303365,80
80,test,1,inc,1,z,Wed Sep 24 2025 16:15:42 GMT-0500 (Central Daylight Time),307308.7999999523,window,1100,I,z,z,None,613,400.0,213.0,8,3,2259.2999999523163,305049.5,8035,elated,AF,A,305213,305214,303372,304482,303372,305631,305000,305000,305631,81
81,test,1,inc,1,z,Wed Sep 24 2025 16:15:42 GMT-0500 (Central Daylight Time),309276.7000000477,napkin,900,I,z,z,None,533,332.0,201.0,6,3,1963.2000000476837,307313.5,8035,elated,AF,A,307266,307266,305636,306549,305636,307599,307065,307065,307599,82
82,test,1,con,1,m,Wed Sep 24 2025 16:15:42 GMT-0500 (Central Daylight Time),311724.7000000477,film,1100,I,m,m,None,800,599.0,201.0,92,3,2442.9000000953674,309281.7999999523,8035,film,AF,A,309432,309432,307604,308714,307604,310047,309230,309231,310047,83
83,test,1,con,1,m,Wed Sep 24 2025 16:15:42 GMT-0500 (Central Daylight Time),314307.59999990463,rock,900,I,m,m,None,1149,949.0,200.0,74,3,2577.5,311730.09999990463,8035,rock,AF,A,311665,311665,310052,310962,310052,312630,311464,311464,312630,84
84,test,1,con,1,m,Wed Sep 24 2025 16:15:42 GMT-0500 (Central Daylight Time),316441.2000000477,bell,900,I,m,m,None,704,504.0,200.0,82,3,2127.100000143051,314314.09999990463,8035,bell,AF,A,314247,314247,312636,313545,312637,314763,314047,314047,314763,85
85,test,1,inc,1,m,Wed Sep 24 2025 16:15:42 GMT-0500 (Central Daylight Time),318423.7000000477,rage,800,I,m,m,None,639,440.0,199.0,77,3,1976.2999999523163,316447.40000009537,8035,rock,AF,A,316294,316294,314769,315578,314770,316746,316095,316095,316746,86
86,test,1,con,1,z,Wed Sep 24 2025 16:15:42 GMT-0500 (Central Daylight Time),320521.09999990463,rage,900,I,z,z,None,651,452.0,199.0,50,3,2094.0999999046326,318427.0,8035,rage,AF,A,318378,318378,316749,317661,316749,318843,318178,318178,318843,87
87,test,1,inc,1,z,Wed Sep 24 2025 16:15:42 GMT-0500 (Central Daylight Time),322703.59999990463,bell,1000,I,z,z,None,636,421.0,215.0,55,3,2176.699999809265,320526.90000009537,8035,rage,AF,A,320594,320594,318849,319861,318849,321026,320379,320379,321026,88
88,test,1,con,1,m,Wed Sep 24 2025 16:15:42 GMT-0500 (Central Daylight Time),325204.2000000477,rock,1000,I,m,m,None,960,760.0,200.0,75,3,2495.4000000953674,322708.7999999523,8035,rock,AF,A,322760,322760,321031,322044,321031,323526,322560,322560,323526,89
89,test,1,inc,1,m,Wed Sep 24 2025 16:15:42 GMT-0500 (Central Daylight Time),327219.59999990463,elated,800,I,m,m,None,677,476.0,201.0,109,3,2011.5,325208.09999990463,8035,napkin,AF,A,325060,325060,323530,324342,323530,325542,324859,324859,325542,90
90,test,1,inc,1,m,Wed Sep 24 2025 16:15:42 GMT-0500 (Central Daylight Time),329287.59999990463,temper,1000,I,m,m,None,533,333.0,200.0,127,3,2064.2999999523163,327223.2999999523,8035,window,AF,A,327275,327276,325545,326560,325546,327610,327075,327075,327610,91
91,test,1,con,1,z,Wed Sep 24 2025 16:15:42 GMT-0500 (Central Daylight Time),331501.90000009537,friend,1100,I,z,z,None,571,370.0,201.0,28,3,2210.0,329291.90000009537,8035,friend,AF,A,329444,329444,327614,328724,327614,329824,329240,329240,329824,92
92,test,1,con,1,z,Wed Sep 24 2025 16:15:42 GMT-0500 (Central Daylight Time),333784.5,rage,1100,I,z,z,None,635,419.0,216.0,52,3,2279.0999999046326,331505.40000009537,8035,rage,AF,A,331675,331675,329827,330943,329828,332107,331458,331458,332107,93
93,test,1,inc,1,m,Wed Sep 24 2025 16:15:42 GMT-0500 (Central Daylight Time),336066.59999990463,hate,1100,I,m,m,None,643,444.0,199.0,96,3,2276.2999999523163,333790.2999999523,8035,film,AF,A,333940,333940,332112,333223,332113,334389,333740,333740,334389,94
94,test,1,inc,1,m,Wed Sep 24 2025 16:15:42 GMT-0500 (Central Daylight Time),338316.2999999523,hate,1100,I,m,m,None,625,426.0,199.0,72,3,2245.899999856949,336070.40000009537,8035,step,AF,A,336206,336206,334392,335505,334393,336638,336006,336006,336638,95
94,test,1,con,0,m,Wed Sep 24 2025 16:15:42 GMT-0500 (Central Daylight Time),340283.09999990463,napkin,800,I,z,z,None,628,427.0,201.0,105,3,1962.5999999046326,338320.5,8035,napkin,AF,A,338173,338173,336643,337455,336643,338605,337971,337971,338605,96
95,test,1,con,1,m,Wed Sep 24 2025 16:15:42 GMT-0500 (Central Daylight Time),342465.0,napkin,900,I,m,m,None,750,550.0,200.0,106,3,2176.7000000476837,340288.2999999523,8035,napkin,AF,A,340237,340237,338610,339521,338611,340787,340037,340037,340787,97
96,test,1,inc,1,z,Wed Sep 24 2025 16:15:42 GMT-0500 (Central Daylight Time),344798.7999999523,window,1100,I,z,z,None,699,484.0,215.0,40,3,2328.7999999523163,342470.0,8035,brutal,AF,A,342637,342637,340792,341904,340792,343121,342422,342422,343121,98
97,test,1,con,1,z,Wed Sep 24 2025 16:15:42 GMT-0500 (Central Daylight Time),346830.5,hate,900,I,z,z,None,588,388.0,200.0,42,3,2024.7000000476837,344805.7999999523,8035,hate,AF,A,344755,344755,343128,344037,343128,345153,344554,344554,345153,99
98,test,1,inc,1,z,Wed Sep 24 2025 16:15:42 GMT-0500 (Central Daylight Time),348797.40000009537,jacket,800,I,z,z,None,625,426.0,199.0,5,3,1963.2000000476837,346834.2000000477,8035,elated,AF,A,346686,346686,345156,345969,345157,347119,346486,346486,347119,100
99,test,1,inc,1,m,Wed Sep 24 2025 16:15:42 GMT-0500 (Central Daylight Time),350995.2000000477,love,1000,I,m,m,None,659,455.0,204.0,87,3,2193.4000000953674,348801.7999999523,8035,bell,AF,A,348856,348856,347124,348136,347124,349317,348651,348651,349317,101
100,test,1,inc,1,z,Wed Sep 24 2025 16:15:42 GMT-0500 (Central Daylight Time),353311.40000009537,napkin,900,I,z,z,None,879,679.0,200.0,30,3,2311.800000190735,350999.59999990463,8035,friend,AF,A,350951,350952,349322,350234,349322,351633,350750,350751,351633,102
101,test,1,con,1,z,Wed Sep 24 2025 16:15:42 GMT-0500 (Central Daylight Time),355244.09999990463,elated,800,I,z,z,None,607,393.0,214.0,1,3,1926.2999999523163,353317.7999999523,8035,elated,AF,A,353167,353167,351640,352449,351640,353566,352952,352952,353566,103
102,test,1,inc,1,m,Wed Sep 24 2025 16:15:42 GMT-0500 (Central Daylight Time),357460.7999999523,hate,1100,I,m,m,None,583,383.0,200.0,80,3,2212.2000000476837,355248.59999990463,8035,rock,AF,A,355400,355400,353571,354683,353571,355783,355200,355200,355783,104
103,test,1,con,1,m,Wed Sep 24 2025 16:15:42 GMT-0500 (Central Daylight Time),359693.2999999523,remote,800,I,m,m,None,908,708.0,200.0,113,3,2224.5999999046326,357468.7000000477,8035,remote,AF,A,357300,357300,355791,356598,355791,358015,357099,357099,358015,105
104,test,1,inc,1,m,Wed Sep 24 2025 16:15:42 GMT-0500 (Central Daylight Time),361858.40000009537,temper,1000,I,m,m,None,618,417.0,201.0,111,3,2160.300000190735,359698.09999990463,8035,napkin,AF,A,359749,359749,358020,359033,358020,360180,359547,359547,360180,106
105,test,1,con,1,z,Wed Sep 24 2025 16:15:42 GMT-0500 (Central Daylight Time),364023.7999999523,elated,1000,I,z,z,None,628,429.0,199.0,3,3,2159.2000000476837,361864.59999990463,8035,elated,AF,A,361914,361914,360187,361199,360187,362346,361715,361715,362346,107
105,test,1,con,0,m,Wed Sep 24 2025 16:15:42 GMT-0500 (Central Daylight Time),366158.40000009537,rock,1100,I,z,z,None,493,292.0,201.0,76,3,2130.600000143051,364027.7999999523,8035,rock,AF,A,364180,364180,362350,363465,362350,364481,363979,363979,364480,108
106,test,1,inc,1,z,Wed Sep 24 2025 16:15:42 GMT-0500 (Central Daylight Time),368389.2999999523,bell,1000,I,z,z,None,691,490.0,201.0,15,3,2225.5999999046326,366163.7000000477,8035,kind,AF,A,366213,366213,364486,365496,364486,366711,366011,366011,366711,109
106,test,1,inc,0,m,Wed Sep 24 2025 16:15:42 GMT-0500 (Central Daylight Time),370455.40000009537,brutal,900,I,z,z,None,639,424.0,215.0,110,3,2057.300000190735,368398.09999990463,8035,napkin,AF,A,368344,368344,366720,367627,366720,368777,368129,368129,368777,110
107,test,1,inc,1,z,Wed Sep 24 2025 16:15:42 GMT-0500 (Central Daylight Time),372555.09999990463,rock,900,I,z,z,None,652,452.0,200.0,22,3,2092.2999999523163,370462.7999999523,8035,love,AF,A,370411,370411,368785,369694,368785,370877,370210,370210,370877,111
108,test,1,inc,1,m,Wed Sep 24 2025 16:15:42 GMT-0500 (Central Daylight Time),374686.7000000477,elated,800,I,m,m,None,787,584.0,203.0,125,3,2124.5,372562.2000000477,8035,window,AF,A,372414,372414,370884,371693,370884,373009,372210,372210,373009,112
109,test,1,con,1,m,Wed Sep 24 2025 16:15:42 GMT-0500 (Central Daylight Time),376586.09999990463,bell,800,I,m,m,None,552,352.0,200.0,81,3,1896.7999999523163,374689.2999999523,8035,bell,AF,A,374542,374543,373011,373827,373012,374908,374342,374342,374908,113
110,test,1,inc,1,m,Wed Sep 24 2025 16:15:42 GMT-0500 (Central Daylight Time),378502.90000009537,rage,800,I,m,m,None,572,372.0,200.0,93,3,1910.2000000476837,376592.7000000477,8035,film,AF,A,376442,376442,374915,375725,374915,376825,376242,376242,376825,114
111,test,1,inc,1,m,Wed Sep 24 2025 16:15:42 GMT-0500 (Central Daylight Time),380618.90000009537,brutal,900,I,m,m,None,677,477.0,200.0,126,3,2106.800000190735,378512.09999990463,8035,window,AF,A,378457,378458,376834,377741,376834,378941,378257,378257,378941,115
111,test,1,con,0,z,Wed Sep 24 2025 16:15:42 GMT-0500 (Central Daylight Time),382652.09999990463,temper,1000,I,m,m,None,485,285.0,200.0,59,3,2027.2999999523163,380624.7999999523,8035,temper,AF,A,380674,380674,378947,379958,378947,380974,380474,380474,380974,116
112,test,1,con,1,z,Wed Sep 24 2025 16:15:42 GMT-0500 (Central Daylight Time),384950.09999990463,elated,1100,I,z,z,None,664,464.0,200.0,4,3,2291.7999999523163,382658.2999999523,8035,elated,AF,A,382807,382807,380980,382091,380981,383272,382606,382607,383272,117
113,test,1,inc,1,z,Wed Sep 24 2025 16:15:42 GMT-0500 (Central Daylight Time),387267.2000000477,film,1100,I,z,z,None,668,468.0,200.0,16,3,2312.7000000476837,384954.5,8035,kind,AF,A,385107,385107,383277,384391,383277,385589,384905,384906,385589,118
114,test,1,con,1,m,Wed Sep 24 2025 16:15:42 GMT-0500 (Central Daylight Time),389332.2999999523,jacket,900,I,m,m,None,641,440.0,201.0,98,3,2058.2000000476837,387274.09999990463,8035,jacket,AF,A,387206,387206,385596,386504,385596,387654,387005,387005,387654,119
115,test,1,con,1,z,Wed Sep 24 2025 16:15:42 GMT-0500 (Central Daylight Time),391281.59999990463,love,1000,I,z,z,None,419,220.0,199.0,19,3,1942.6999998092651,389338.90000009537,8035,love,AF,A,389370,389371,387661,388669,387661,389604,389171,389171,389604,120
116,test,1,inc,1,m,Wed Sep 24 2025 16:15:42 GMT-0500 (Central Daylight Time),393397.59999990463,brutal,900,I,m,m,None,681,482.0,199.0,118,3,2105.399999856949,391292.2000000477,8035,remote,AF,A,391237,391237,389614,390522,389614,391720,391037,391037,391720,121
117,test,1,inc,1,z,Wed Sep 24 2025 16:15:42 GMT-0500 (Central Daylight Time),395613.5,bell,1000,I,z,z,None,671,456.0,215.0,47,3,2206.9000000953674,393406.59999990463,8035,hate,AF,A,393470,393470,391729,392737,391729,393936,393254,393254,393936,122
118,test,1,con,1,z,Wed Sep 24 2025 16:15:42 GMT-0500 (Central Daylight Time),397614.59999990463,love,800,I,z,z,None,673,473.0,200.0,17,3,1994.6999998092651,395619.90000009537,8035,love,AF,A,395453,395453,393942,394752,393942,395937,395253,395253,395937,123
119,test,1,con,1,m,Wed Sep 24 2025 16:15:42 GMT-0500 (Central Daylight Time),399646.2000000477,step,900,I,m,m,None,589,389.0,200.0,66,3,2029.1000001430511,397617.09999990463,8035,step,AF,A,397569,397569,395939,396852,395939,397968,397369,397369,397968,124
120,test,1,inc,1,m,Wed Sep 24 2025 16:15:42 GMT-0500 (Central Daylight Time),402311.7999999523,kind,900,I,m,m,None,1230,1030.0,200.0,86,3,2661.7000000476837,399650.09999990463,8035,bell,AF,A,399601,399601,397972,398884,397972,400634,399401,399401,400634,125
121,test,1,con,1,z,Wed Sep 24 2025 16:15:42 GMT-0500 (Central Daylight Time),404343.90000009537,brutal,900,I,z,z,None,610,410.0,200.0,34,3,2026.8000001907349,402317.09999990463,8035,brutal,AF,A,402252,402252,400639,401550,400639,402666,402051,402051,402666,126
122,test,1,con,1,z,Wed Sep 24 2025 16:15:42 GMT-0500 (Central Daylight Time),406294.40000009537,rage,1000,I,z,z,None,420,206.0,214.0,51,3,1946.5,404347.90000009537,8035,rage,AF,A,404401,404401,402670,403684,402670,404617,404187,404187,404616,127
123,test,1,con,1,z,Wed Sep 24 2025 16:15:42 GMT-0500 (Central Daylight Time),408527.40000009537,elated,900,I,z,z,None,813,599.0,214.0,2,3,2227.2000000476837,406300.2000000477,8035,elated,AF,A,406249,406249,404622,405533,404623,406849,406034,406034,406849,128
