acc_sum,block,block_c,change,condition,correct,correct_response,datetime,endtime,face,project,response,response_time,row_sel,session_number,start_end,starttime,subject_id,task,task_vers,trial
0,prac,1,,1-Back,,,Wed Jul 30 2025 15:33:42 GMT-0500 (Central Daylight Time),,050_m_f_n_a.png,O,space,8238,1,1,,,7188,NNB,A,0
1,prac,1,0.0,1-Back,1.0,m,Wed Jul 30 2025 15:33:42 GMT-0500 (Central Daylight Time),112380.60000002384,063_y_f_n_a.png,O,m,795,2,1,1618.1000000238419,110762.5,7188,NNB,A,1
2,prac,1,1.0,1-Back,1.0,z,Wed Jul 30 2025 15:33:42 GMT-0500 (Central Daylight Time),114396.5,063_y_f_n_a.png,O,z,1207,3,1,1985.0999999046326,112411.40000009537,7188,NNB,A,2
3,prac,1,0.0,1-Back,1.0,m,Wed Jul 30 2025 15:33:42 GMT-0500 (Central Daylight Time),116128.0,053_o_m_n_a.png,O,m,887,4,1,1705.3999999761581,114422.60000002384,7188,NNB,A,3
4,prac,1,0.0,1-Back,1.0,m,Wed Jul 30 2025 15:33:42 GMT-0500 (Central Daylight Time),117910.30000007153,058_m_m_n_a.png,O,m,936,5,1,1771.6000000238419,116138.70000004768,7188,NNB,A,4
5,prac,1,1.0,1-Back,1.0,z,Wed Jul 30 2025 15:33:42 GMT-0500 (Central Daylight Time),119494.70000004768,058_m_m_n_a.png,O,z,792,6,1,1572.3999999761581,117922.30000007153,7188,NNB,A,5
6,prac,1,0.0,1-Back,1.0,m,Wed Jul 30 2025 15:33:42 GMT-0500 (Central Daylight Time),121610.70000004768,047_o_f_n_a.png,O,m,1212,7,1,2091.100000023842,119519.60000002384,7188,NNB,A,6
7,prac,1,0.0,1-Back,1.0,m,Wed Jul 30 2025 15:33:42 GMT-0500 (Central Daylight Time),123227.0,045_m_m_n_a.png,O,m,758,8,1,1581.8999999761581,121645.10000002384,7188,NNB,A,7
8,prac,1,0.0,1-Back,1.0,m,Wed Jul 30 2025 15:33:42 GMT-0500 (Central Daylight Time),124942.30000007153,050_m_f_n_a.png,O,m,908,9,1,1679.8999999761581,123262.40000009537,7188,NNB,A,8
9,prac,1,1.0,1-Back,1.0,z,Wed Jul 30 2025 15:33:42 GMT-0500 (Central Daylight Time),126642.10000002384,050_m_f_n_a.png,O,z,903,10,1,1677.6000000238419,124964.5,7188,NNB,A,9
10,prac,1,0.0,1-Back,1.0,m,Wed Jul 30 2025 15:33:42 GMT-0500 (Central Daylight Time),128458.40000009537,053_o_m_n_a.png,O,m,1006,11,1,1790.2000000476837,126668.20000004768,7188,NNB,A,10
11,prac,1,0.0,1-Back,1.0,m,Wed Jul 30 2025 15:33:42 GMT-0500 (Central Daylight Time),130323.60000002384,010_y_f_n_a.png,O,m,975,12,1,1834.8999999761581,128488.70000004768,7188,NNB,A,11
0,test,1,0.0,1-Back,,,Wed Jul 30 2025 15:33:42 GMT-0500 (Central Daylight Time),130323.60000002384,063_y_f_n_a.png,O,space,12574,1,1,1834.8999999761581,128488.70000004768,7188,NNB,A,0
1,test,1,0.0,1-Back,1.0,m,Wed Jul 30 2025 15:33:42 GMT-0500 (Central Daylight Time),155267.10000002384,043_m_f_n_a.png,O,m,986,2,1,2015.3999999761581,153251.70000004768,7188,NNB,A,1
2,test,1,0.0,1-Back,1.0,m,Wed Jul 30 2025 15:33:42 GMT-0500 (Central Daylight Time),157099.0,010_y_f_n_a.png,O,m,767,3,1,1796.1999999284744,155302.80000007153,7188,NNB,A,2
3,test,1,1.0,1-Back,1.0,z,Wed Jul 30 2025 15:33:42 GMT-0500 (Central Daylight Time),158748.90000009537,010_y_f_n_a.png,O,z,599,4,1,1617.5,157131.40000009537,7188,NNB,A,3
4,test,1,0.0,1-Back,1.0,m,Wed Jul 30 2025 15:33:42 GMT-0500 (Central Daylight Time),160547.70000004768,043_m_f_n_a.png,O,m,750,5,1,1773.3999999761581,158774.30000007153,7188,NNB,A,4
5,test,1,0.0,1-Back,1.0,m,Wed Jul 30 2025 15:33:42 GMT-0500 (Central Daylight Time),162313.30000007153,053_o_m_n_a.png,O,m,717,6,1,1738.6000000238419,160574.70000004768,7188,NNB,A,5
6,test,1,1.0,1-Back,1.0,z,Wed Jul 30 2025 15:33:42 GMT-0500 (Central Daylight Time),164046.40000009537,053_o_m_n_a.png,O,z,698,7,1,1714.7000000476837,162331.70000004768,7188,NNB,A,6
7,test,1,0.0,1-Back,1.0,m,Wed Jul 30 2025 15:33:42 GMT-0500 (Central Daylight Time),165745.80000007153,058_m_m_n_a.png,O,m,660,8,1,1667.8000000715256,164078.0,7188,NNB,A,7
7,test,1,0.0,1-Back,0.0,m,Wed Jul 30 2025 15:33:42 GMT-0500 (Central Daylight Time),167478.60000002384,047_o_f_n_a.png,O,z,696,9,1,1709.5,165769.10000002384,7188,NNB,A,8
8,test,1,0.0,1-Back,1.0,m,Wed Jul 30 2025 15:33:42 GMT-0500 (Central Daylight Time),169594.90000009537,058_m_m_n_a.png,O,m,1075,10,1,2091.8000000715256,167503.10000002384,7188,NNB,A,9
9,test,1,0.0,1-Back,1.0,m,Wed Jul 30 2025 15:33:42 GMT-0500 (Central Daylight Time),171427.70000004768,041_y_m_n_a.png,O,m,775,11,1,1800.8999999761581,169626.80000007153,7188,NNB,A,10
10,test,1,1.0,1-Back,1.0,z,Wed Jul 30 2025 15:33:42 GMT-0500 (Central Daylight Time),173309.30000007153,041_y_m_n_a.png,O,z,839,12,1,1851.5,171457.80000007153,7188,NNB,A,11
11,test,1,0.0,1-Back,1.0,m,Wed Jul 30 2025 15:33:42 GMT-0500 (Central Daylight Time),175575.30000007153,044_o_f_n_a.png,O,m,1240,13,1,2255.899999976158,173319.40000009537,7188,NNB,A,12
12,test,1,1.0,1-Back,1.0,z,Wed Jul 30 2025 15:33:42 GMT-0500 (Central Daylight Time),177324.5,044_o_f_n_a.png,O,z,731,14,1,1739.8999999761581,175584.60000002384,7188,NNB,A,13
13,test,1,0.0,1-Back,1.0,m,Wed Jul 30 2025 15:33:42 GMT-0500 (Central Daylight Time),179140.60000002384,008_y_m_n_a.png,O,m,789,15,1,1807.6000000238419,177333.0,7188,NNB,A,14
14,test,1,0.0,1-Back,1.0,m,Wed Jul 30 2025 15:33:42 GMT-0500 (Central Daylight Time),181190.0,050_m_f_n_a.png,O,m,1022,16,1,2041.0,179149.0,7188,NNB,A,15
15,test,1,0.0,1-Back,1.0,m,Wed Jul 30 2025 15:33:42 GMT-0500 (Central Daylight Time),183089.40000009537,046_o_m_n_a.png,O,m,867,17,1,1890.0,181199.40000009537,7188,NNB,A,16
16,test,1,0.0,1-Back,1.0,m,Wed Jul 30 2025 15:33:42 GMT-0500 (Central Daylight Time),184938.70000004768,050_m_f_n_a.png,O,m,817,18,1,1840.5,183098.20000004768,7188,NNB,A,17
0,test,2,0.0,1-Back,,,Wed Jul 30 2025 15:33:42 GMT-0500 (Central Daylight Time),184938.70000004768,058_m_m_n_a.png,O,space,2928,1,1,1840.5,183098.20000004768,7188,NNB,A,0
1,test,2,0.0,1-Back,1.0,m,Wed Jul 30 2025 15:33:42 GMT-0500 (Central Daylight Time),191836.5,043_m_f_n_a.png,O,m,890,2,1,1906.2999999523163,189930.20000004768,7188,NNB,A,1
2,test,2,1.0,1-Back,1.0,z,Wed Jul 30 2025 15:33:42 GMT-0500 (Central Daylight Time),193536.10000002384,043_m_f_n_a.png,O,z,678,3,1,1690.8999999761581,191845.20000004768,7188,NNB,A,2
3,test,2,0.0,1-Back,1.0,m,Wed Jul 30 2025 15:33:42 GMT-0500 (Central Daylight Time),195168.90000009537,058_m_m_n_a.png,O,m,610,4,1,1624.1000000238419,193544.80000007153,7188,NNB,A,3
4,test,2,0.0,1-Back,1.0,m,Wed Jul 30 2025 15:33:42 GMT-0500 (Central Daylight Time),197068.20000004768,041_y_m_n_a.png,O,m,881,5,1,1889.5,195178.70000004768,7188,NNB,A,4
5,test,2,0.0,1-Back,1.0,m,Wed Jul 30 2025 15:33:42 GMT-0500 (Central Daylight Time),198817.70000004768,063_y_f_n_a.png,O,m,726,6,1,1740.1000000238419,197077.60000002384,7188,NNB,A,5
6,test,2,1.0,1-Back,1.0,z,Wed Jul 30 2025 15:33:42 GMT-0500 (Central Daylight Time),200633.80000007153,063_y_f_n_a.png,O,z,785,7,1,1806.5,198827.30000007153,7188,NNB,A,6
7,test,2,0.0,1-Back,1.0,m,Wed Jul 30 2025 15:33:42 GMT-0500 (Central Daylight Time),202233.70000004768,041_y_m_n_a.png,O,m,569,8,1,1589.6000000238419,200644.10000002384,7188,NNB,A,7
8,test,2,0.0,1-Back,1.0,m,Wed Jul 30 2025 15:33:42 GMT-0500 (Central Daylight Time),204332.30000007153,044_o_f_n_a.png,O,m,1073,9,1,2084.3000000715256,202248.0,7188,NNB,A,8
9,test,2,0.0,1-Back,1.0,m,Wed Jul 30 2025 15:33:42 GMT-0500 (Central Daylight Time),206065.10000002384,045_m_m_n_a.png,O,m,702,10,1,1724.1999999284744,204340.90000009537,7188,NNB,A,9
10,test,2,1.0,1-Back,1.0,z,Wed Jul 30 2025 15:33:42 GMT-0500 (Central Daylight Time),207797.90000009537,045_m_m_n_a.png,O,z,712,11,1,1724.1000000238419,206073.80000007153,7188,NNB,A,10
11,test,2,0.0,1-Back,1.0,m,Wed Jul 30 2025 15:33:42 GMT-0500 (Central Daylight Time),209864.0,044_o_f_n_a.png,O,m,1036,12,1,2057.399999976158,207806.60000002384,7188,NNB,A,11
12,test,2,0.0,1-Back,1.0,m,Wed Jul 30 2025 15:33:42 GMT-0500 (Central Daylight Time),211663.5,047_o_f_n_a.png,O,m,770,13,1,1789.0999999046326,209874.40000009537,7188,NNB,A,12
13,test,2,0.0,1-Back,1.0,m,Wed Jul 30 2025 15:33:42 GMT-0500 (Central Daylight Time),213479.5,053_o_m_n_a.png,O,m,795,14,1,1807.5999999046326,211671.90000009537,7188,NNB,A,13
14,test,2,0.0,1-Back,1.0,m,Wed Jul 30 2025 15:33:42 GMT-0500 (Central Daylight Time),215245.40000009537,046_o_m_n_a.png,O,m,739,15,1,1755.8000000715256,213489.60000002384,7188,NNB,A,14
14,test,2,1.0,1-Back,0.0,z,Wed Jul 30 2025 15:33:42 GMT-0500 (Central Daylight Time),217194.90000009537,046_o_m_n_a.png,O,m,925,16,1,1939.2000000476837,215255.70000004768,7188,NNB,A,15
15,test,2,0.0,1-Back,1.0,m,Wed Jul 30 2025 15:33:42 GMT-0500 (Central Daylight Time),219044.30000007153,008_y_m_n_a.png,O,m,824,17,1,1840.8000000715256,217203.5,7188,NNB,A,16
16,test,2,1.0,1-Back,1.0,z,Wed Jul 30 2025 15:33:42 GMT-0500 (Central Daylight Time),220943.70000004768,008_y_m_n_a.png,O,z,878,18,1,1890.7999999523163,219052.90000009537,7188,NNB,A,17
0,test,3,1.0,1-Back,,,Wed Jul 30 2025 15:33:42 GMT-0500 (Central Daylight Time),220943.70000004768,010_y_f_n_a.png,O,space,1947,1,1,1890.7999999523163,219052.90000009537,7188,NNB,A,0
1,test,3,0.0,1-Back,1.0,m,Wed Jul 30 2025 15:33:42 GMT-0500 (Central Daylight Time),226675.10000002384,046_o_m_n_a.png,O,m,682,2,1,1689.7999999523163,224985.30000007153,7188,NNB,A,1
2,test,3,1.0,1-Back,1.0,z,Wed Jul 30 2025 15:33:42 GMT-0500 (Central Daylight Time),228458.0,046_o_m_n_a.png,O,z,751,3,1,1774.5999999046326,226683.40000009537,7188,NNB,A,2
3,test,3,0.0,1-Back,1.0,m,Wed Jul 30 2025 15:33:42 GMT-0500 (Central Daylight Time),230358.0,050_m_f_n_a.png,O,m,880,4,1,1890.6999999284744,228467.30000007153,7188,NNB,A,3
4,test,3,1.0,1-Back,1.0,z,Wed Jul 30 2025 15:33:42 GMT-0500 (Central Daylight Time),232106.60000002384,050_m_f_n_a.png,O,z,700,5,1,1722.0,230384.60000002384,7188,NNB,A,4
5,test,3,0.0,1-Back,1.0,m,Wed Jul 30 2025 15:33:42 GMT-0500 (Central Daylight Time),233989.40000009537,044_o_f_n_a.png,O,m,862,6,1,1874.4000000953674,232115.0,7188,NNB,A,5
6,test,3,0.0,1-Back,1.0,m,Wed Jul 30 2025 15:33:42 GMT-0500 (Central Daylight Time),235905.80000007153,041_y_m_n_a.png,O,m,885,7,1,1903.8999999761581,234001.90000009537,7188,NNB,A,6
7,test,3,0.0,1-Back,1.0,m,Wed Jul 30 2025 15:33:42 GMT-0500 (Central Daylight Time),237622.0,044_o_f_n_a.png,O,m,671,8,1,1697.5,235924.5,7188,NNB,A,7
8,test,3,0.0,1-Back,1.0,m,Wed Jul 30 2025 15:33:42 GMT-0500 (Central Daylight Time),239371.30000007153,008_y_m_n_a.png,O,m,700,9,1,1731.7000000476837,237639.60000002384,7188,NNB,A,8
9,test,3,1.0,1-Back,1.0,z,Wed Jul 30 2025 15:33:42 GMT-0500 (Central Daylight Time),241087.80000007153,008_y_m_n_a.png,O,z,679,10,1,1697.0,239390.80000007153,7188,NNB,A,9
10,test,3,0.0,1-Back,1.0,m,Wed Jul 30 2025 15:33:42 GMT-0500 (Central Daylight Time),242787.0,043_m_f_n_a.png,O,m,657,11,1,1669.0,241118.0,7188,NNB,A,10
11,test,3,0.0,1-Back,1.0,m,Wed Jul 30 2025 15:33:42 GMT-0500 (Central Daylight Time),244770.20000004768,063_y_f_n_a.png,O,m,935,12,1,1963.2999999523163,242806.90000009537,7188,NNB,A,11
12,test,3,1.0,1-Back,1.0,z,Wed Jul 30 2025 15:33:42 GMT-0500 (Central Daylight Time),246552.40000009537,063_y_f_n_a.png,O,z,718,13,1,1750.2000000476837,244802.20000004768,7188,NNB,A,12
13,test,3,0.0,1-Back,1.0,m,Wed Jul 30 2025 15:33:42 GMT-0500 (Central Daylight Time),248252.10000002384,043_m_f_n_a.png,O,m,649,14,1,1677.6999999284744,246574.40000009537,7188,NNB,A,13
14,test,3,0.0,1-Back,1.0,m,Wed Jul 30 2025 15:33:42 GMT-0500 (Central Daylight Time),250001.5,058_m_m_n_a.png,O,m,702,15,1,1728.0,248273.5,7188,NNB,A,14
15,test,3,1.0,1-Back,1.0,z,Wed Jul 30 2025 15:33:42 GMT-0500 (Central Daylight Time),251784.60000002384,058_m_m_n_a.png,O,z,735,16,1,1754.0,250030.60000002384,7188,NNB,A,15
16,test,3,0.0,1-Back,1.0,m,Wed Jul 30 2025 15:33:42 GMT-0500 (Central Daylight Time),253550.0,047_o_f_n_a.png,O,m,721,17,1,1742.5,251807.5,7188,NNB,A,16
17,test,3,1.0,1-Back,1.0,z,Wed Jul 30 2025 15:33:42 GMT-0500 (Central Daylight Time),255316.80000007153,047_o_f_n_a.png,O,z,732,18,1,1748.5,253568.30000007153,7188,NNB,A,17
0,test,4,1.0,1-Back,,,Wed Jul 30 2025 15:33:42 GMT-0500 (Central Daylight Time),255316.80000007153,050_m_f_n_a.png,O,space,1668,1,1,1748.5,253568.30000007153,7188,NNB,A,0
1,test,4,0.0,1-Back,1.0,m,Wed Jul 30 2025 15:33:42 GMT-0500 (Central Daylight Time),260881.5,046_o_m_n_a.png,O,m,736,2,1,1767.5,259114.0,7188,NNB,A,1
2,test,4,0.0,1-Back,1.0,m,Wed Jul 30 2025 15:33:42 GMT-0500 (Central Daylight Time),262780.7000000477,050_m_f_n_a.png,O,m,848,3,1,1868.0,260912.70000004768,7188,NNB,A,2
3,test,4,0.0,1-Back,1.0,m,Wed Jul 30 2025 15:33:42 GMT-0500 (Central Daylight Time),264413.3000000715,044_o_f_n_a.png,O,m,597,4,1,1603.6000000238419,262809.7000000477,7188,NNB,A,3
4,test,4,1.0,1-Back,1.0,z,Wed Jul 30 2025 15:33:42 GMT-0500 (Central Daylight Time),266479.3000000715,044_o_f_n_a.png,O,z,1029,5,1,2041.6000000238419,264437.7000000477,7188,NNB,A,4
5,test,4,0.0,1-Back,1.0,m,Wed Jul 30 2025 15:33:42 GMT-0500 (Central Daylight Time),268411.8000000715,063_y_f_n_a.png,O,m,882,6,1,1908.6000000238419,266503.2000000477,7188,NNB,A,5
6,test,4,0.0,1-Back,1.0,m,Wed Jul 30 2025 15:33:42 GMT-0500 (Central Daylight Time),270145.0,041_y_m_n_a.png,O,m,694,7,1,1714.7999999523163,268430.2000000477,7188,NNB,A,6
7,test,4,1.0,1-Back,1.0,z,Wed Jul 30 2025 15:33:42 GMT-0500 (Central Daylight Time),271827.2000000477,041_y_m_n_a.png,O,z,633,8,1,1660.2999999523163,270166.90000009537,7188,NNB,A,7
8,test,4,0.0,1-Back,1.0,m,Wed Jul 30 2025 15:33:42 GMT-0500 (Central Daylight Time),273477.10000002384,063_y_f_n_a.png,O,m,623,9,1,1635.7999999523163,271841.3000000715,7188,NNB,A,8
9,test,4,0.0,1-Back,1.0,m,Wed Jul 30 2025 15:33:42 GMT-0500 (Central Daylight Time),275259.90000009537,045_m_m_n_a.png,O,m,741,10,1,1761.2000000476837,273498.7000000477,7188,NNB,A,9
10,test,4,1.0,1-Back,1.0,z,Wed Jul 30 2025 15:33:42 GMT-0500 (Central Daylight Time),276942.60000002384,045_m_m_n_a.png,O,z,647,11,1,1653.1000000238419,275289.5,7188,NNB,A,10
11,test,4,0.0,1-Back,1.0,m,Wed Jul 30 2025 15:33:42 GMT-0500 (Central Daylight Time),279075.40000009537,047_o_f_n_a.png,O,m,1091,12,1,2104.9000000953674,276970.5,7188,NNB,A,11
12,test,4,0.0,1-Back,1.0,m,Wed Jul 30 2025 15:33:42 GMT-0500 (Central Daylight Time),280941.2000000477,053_o_m_n_a.png,O,m,831,13,1,1837.7999999523163,279103.40000009537,7188,NNB,A,12
13,test,4,0.0,1-Back,1.0,m,Wed Jul 30 2025 15:33:42 GMT-0500 (Central Daylight Time),282690.7000000477,047_o_f_n_a.png,O,m,709,14,1,1723.6000000238419,280967.10000002384,7188,NNB,A,13
14,test,4,0.0,1-Back,1.0,m,Wed Jul 30 2025 15:33:42 GMT-0500 (Central Daylight Time),284440.10000002384,010_y_f_n_a.png,O,m,711,15,1,1728.0,282712.10000002384,7188,NNB,A,14
15,test,4,1.0,1-Back,1.0,z,Wed Jul 30 2025 15:33:42 GMT-0500 (Central Daylight Time),286139.10000002384,010_y_f_n_a.png,O,z,649,16,1,1669.6000000238419,284469.5,7188,NNB,A,15
16,test,4,0.0,1-Back,1.0,m,Wed Jul 30 2025 15:33:42 GMT-0500 (Central Daylight Time),288022.60000002384,043_m_f_n_a.png,O,m,855,17,1,1873.8999999761581,286148.7000000477,7188,NNB,A,16
17,test,4,1.0,1-Back,1.0,z,Wed Jul 30 2025 15:33:42 GMT-0500 (Central Daylight Time),289955.3000000715,043_m_f_n_a.png,O,z,884,18,1,1908.3000000715256,288047.0,7188,NNB,A,17
0,test,5,1.0,1-Back,,,Wed Jul 30 2025 15:33:42 GMT-0500 (Central Daylight Time),289955.3000000715,053_o_m_n_a.png,O,space,1519,1,1,1908.3000000715256,288047.0,7188,NNB,A,0
1,test,5,1.0,1-Back,1.0,z,Wed Jul 30 2025 15:33:42 GMT-0500 (Central Daylight Time),295586.90000009537,053_o_m_n_a.png,O,z,977,2,1,1991.7000000476837,293595.2000000477,7188,NNB,A,1
2,test,5,0.0,1-Back,1.0,m,Wed Jul 30 2025 15:33:42 GMT-0500 (Central Daylight Time),297636.60000002384,063_y_f_n_a.png,O,m,982,3,1,2018.1000000238419,295618.5,7188,NNB,A,2
3,test,5,0.0,1-Back,1.0,m,Wed Jul 30 2025 15:33:42 GMT-0500 (Central Daylight Time),299501.90000009537,041_y_m_n_a.png,O,m,813,4,1,1833.3000000715256,297668.60000002384,7188,NNB,A,3
4,test,5,0.0,1-Back,1.0,m,Wed Jul 30 2025 15:33:42 GMT-0500 (Central Daylight Time),301268.40000009537,063_y_f_n_a.png,O,m,716,5,1,1738.3000000715256,299530.10000002384,7188,NNB,A,4
5,test,5,0.0,1-Back,1.0,m,Wed Jul 30 2025 15:33:42 GMT-0500 (Central Daylight Time),302885.0,058_m_m_n_a.png,O,m,582,6,1,1585.7999999523163,301299.2000000477,7188,NNB,A,5
6,test,5,1.0,1-Back,1.0,z,Wed Jul 30 2025 15:33:42 GMT-0500 (Central Daylight Time),304683.7000000477,058_m_m_n_a.png,O,z,733,7,1,1766.5,302917.2000000477,7188,NNB,A,6
7,test,5,0.0,1-Back,1.0,m,Wed Jul 30 2025 15:33:42 GMT-0500 (Central Daylight Time),306549.90000009537,010_y_f_n_a.png,O,m,807,8,1,1833.4000000953674,304716.5,7188,NNB,A,7
8,test,5,0.0,1-Back,1.0,m,Wed Jul 30 2025 15:33:42 GMT-0500 (Central Daylight Time),308499.3000000715,008_y_m_n_a.png,O,m,900,9,1,1919.6000000238419,306579.7000000477,7188,NNB,A,8
9,test,5,0.0,1-Back,1.0,m,Wed Jul 30 2025 15:33:42 GMT-0500 (Central Daylight Time),310348.5,010_y_f_n_a.png,O,m,807,10,1,1819.0999999046326,308529.40000009537,7188,NNB,A,9
10,test,5,0.0,1-Back,1.0,m,Wed Jul 30 2025 15:33:42 GMT-0500 (Central Daylight Time),312081.5,047_o_f_n_a.png,O,m,678,11,1,1701.5,310380.0,7188,NNB,A,10
11,test,5,1.0,1-Back,1.0,z,Wed Jul 30 2025 15:33:42 GMT-0500 (Central Daylight Time),313964.10000002384,047_o_f_n_a.png,O,z,833,12,1,1859.1000000238419,312105.0,7188,NNB,A,11
12,test,5,0.0,1-Back,1.0,m,Wed Jul 30 2025 15:33:42 GMT-0500 (Central Daylight Time),315646.8000000715,046_o_m_n_a.png,O,m,646,13,1,1655.6000000238419,313991.2000000477,7188,NNB,A,12
13,test,5,0.0,1-Back,1.0,m,Wed Jul 30 2025 15:33:42 GMT-0500 (Central Daylight Time),317395.5,050_m_f_n_a.png,O,m,708,14,1,1722.1999999284744,315673.3000000715,7188,NNB,A,13
14,test,5,1.0,1-Back,1.0,z,Wed Jul 30 2025 15:33:42 GMT-0500 (Central Daylight Time),318912.40000009537,050_m_f_n_a.png,O,z,487,15,1,1507.6000000238419,317404.8000000715,7188,NNB,A,14
15,test,5,0.0,1-Back,1.0,m,Wed Jul 30 2025 15:33:42 GMT-0500 (Central Daylight Time),320495.40000009537,046_o_m_n_a.png,O,m,539,16,1,1555.3000000715256,318940.10000002384,7188,NNB,A,15
16,test,5,0.0,1-Back,1.0,m,Wed Jul 30 2025 15:33:42 GMT-0500 (Central Daylight Time),322094.8000000715,043_m_f_n_a.png,O,m,546,17,1,1568.0,320526.8000000715,7188,NNB,A,16
17,test,5,0.0,1-Back,1.0,m,Wed Jul 30 2025 15:33:42 GMT-0500 (Central Daylight Time),323693.90000009537,045_m_m_n_a.png,O,m,563,18,1,1572.3000000715256,322121.60000002384,7188,NNB,A,17
0,prac,1,0.0,2-Back,,,Wed Jul 30 2025 15:33:42 GMT-0500 (Central Daylight Time),323693.90000009537,008_y_m_n_a.png,O,space,10789,1,1,1572.3000000715256,322121.60000002384,7188,NNB,A,0
0,prac,1,0.0,2-Back,,,Wed Jul 30 2025 15:33:42 GMT-0500 (Central Daylight Time),323693.90000009537,043_m_f_n_a.png,O,space,10789,2,1,1572.3000000715256,322121.60000002384,7188,NNB,A,0
1,prac,1,1.0,2-Back,1.0,m,Wed Jul 30 2025 15:33:42 GMT-0500 (Central Daylight Time),438940.3000000715,046_o_m_n_a.png,O,m,877,3,1,1679.3999999761581,437260.90000009537,7188,NNB,A,1
2,prac,1,0.0,2-Back,1.0,m,Wed Jul 30 2025 15:33:42 GMT-0500 (Central Daylight Time),441139.2000000477,047_o_f_n_a.png,O,m,1282,4,1,2165.100000023842,438974.10000002384,7188,NNB,A,2
3,prac,1,0.0,2-Back,1.0,z,Wed Jul 30 2025 15:33:42 GMT-0500 (Central Daylight Time),442637.7000000477,046_o_m_n_a.png,O,z,691,5,1,1469.2000000476837,441168.5,7188,NNB,A,3
4,prac,1,1.0,2-Back,1.0,z,Wed Jul 30 2025 15:33:42 GMT-0500 (Central Daylight Time),444504.90000009537,047_o_f_n_a.png,O,z,1080,6,1,1852.7000000476837,442652.2000000477,7188,NNB,A,4
5,prac,1,0.0,2-Back,1.0,m,Wed Jul 30 2025 15:33:42 GMT-0500 (Central Daylight Time),446337.7000000477,045_m_m_n_a.png,O,m,984,7,1,1806.5,444531.2000000477,7188,NNB,A,5
6,prac,1,0.0,2-Back,1.0,m,Wed Jul 30 2025 15:33:42 GMT-0500 (Central Daylight Time),448153.40000009537,053_o_m_n_a.png,O,m,936,8,1,1771.8000000715256,446381.60000002384,7188,NNB,A,6
7,prac,1,0.0,2-Back,1.0,m,Wed Jul 30 2025 15:33:42 GMT-0500 (Central Daylight Time),450153.10000002384,010_y_f_n_a.png,O,m,1091,9,1,1967.5,448185.60000002384,7188,NNB,A,7
8,prac,1,1.0,2-Back,1.0,z,Wed Jul 30 2025 15:33:42 GMT-0500 (Central Daylight Time),452118.3000000715,053_o_m_n_a.png,O,z,1148,10,1,1926.6000000238419,450191.7000000477,7188,NNB,A,8
9,prac,1,0.0,2-Back,1.0,m,Wed Jul 30 2025 15:33:42 GMT-0500 (Central Daylight Time),453868.5,063_y_f_n_a.png,O,m,919,11,1,1738.5999999046326,452129.90000009537,7188,NNB,A,9
10,prac,1,0.0,2-Back,1.0,m,Wed Jul 30 2025 15:33:42 GMT-0500 (Central Daylight Time),455916.90000009537,045_m_m_n_a.png,O,m,1181,12,1,2016.3000000715256,453900.60000002384,7188,NNB,A,10
0,test,1,0.0,2-Back,,,Wed Jul 30 2025 15:33:42 GMT-0500 (Central Daylight Time),455916.90000009537,041_y_m_n_a.png,O,space,9202,1,1,2016.3000000715256,453900.60000002384,7188,NNB,A,0
0,test,1,0.0,2-Back,,,Wed Jul 30 2025 15:33:42 GMT-0500 (Central Daylight Time),455916.90000009537,041_y_m_n_a.png,O,space,9202,2,1,2016.3000000715256,453900.60000002384,7188,NNB,A,0
1,test,1,0.0,2-Back,1.0,m,Wed Jul 30 2025 15:33:42 GMT-0500 (Central Daylight Time),477276.5,047_o_f_n_a.png,O,m,680,3,1,1693.2999999523163,475583.2000000477,7188,NNB,A,1
2,test,1,0.0,2-Back,1.0,m,Wed Jul 30 2025 15:33:42 GMT-0500 (Central Daylight Time),479576.60000002384,058_m_m_n_a.png,O,m,1278,4,1,2291.1999999284744,477285.40000009537,7188,NNB,A,2
3,test,1,1.0,2-Back,1.0,z,Wed Jul 30 2025 15:33:42 GMT-0500 (Central Daylight Time),481609.2000000477,047_o_f_n_a.png,O,z,995,5,1,2002.3999999761581,479606.8000000715,7188,NNB,A,3
4,test,1,0.0,2-Back,1.0,m,Wed Jul 30 2025 15:33:42 GMT-0500 (Central Daylight Time),483875.3000000715,063_y_f_n_a.png,O,m,1201,6,1,2234.3000000715256,481641.0,7188,NNB,A,4
4,test,1,0.0,2-Back,0.0,m,Wed Jul 30 2025 15:33:42 GMT-0500 (Central Daylight Time),486307.60000002384,058_m_m_n_a.png,O,z,1383,7,1,2405.399999976158,483902.2000000477,7188,NNB,A,5
5,test,1,1.0,2-Back,1.0,z,Wed Jul 30 2025 15:33:42 GMT-0500 (Central Daylight Time),488773.60000002384,063_y_f_n_a.png,O,z,1423,8,1,2442.7999999523163,486330.8000000715,7188,NNB,A,6
6,test,1,0.0,2-Back,1.0,m,Wed Jul 30 2025 15:33:42 GMT-0500 (Central Daylight Time),491089.40000009537,008_y_m_n_a.png,O,m,1269,9,1,2292.9000000953674,488796.5,7188,NNB,A,7
7,test,1,0.0,2-Back,1.0,m,Wed Jul 30 2025 15:33:42 GMT-0500 (Central Daylight Time),493488.7000000477,044_o_f_n_a.png,O,m,1337,10,1,2367.399999976158,491121.3000000715,7188,NNB,A,8
8,test,1,1.0,2-Back,1.0,z,Wed Jul 30 2025 15:33:42 GMT-0500 (Central Daylight Time),495537.8000000715,008_y_m_n_a.png,O,z,986,11,1,2016.8999999761581,493520.90000009537,7188,NNB,A,9
9,test,1,0.0,2-Back,1.0,m,Wed Jul 30 2025 15:33:42 GMT-0500 (Central Daylight Time),497520.5,043_m_f_n_a.png,O,m,943,12,1,1951.6999999284744,495568.8000000715,7188,NNB,A,10
10,test,1,0.0,2-Back,1.0,m,Wed Jul 30 2025 15:33:42 GMT-0500 (Central Daylight Time),499653.60000002384,043_m_f_n_a.png,O,m,1082,13,1,2101.100000023842,497552.5,7188,NNB,A,11
10,test,1,0.0,2-Back,0.0,m,Wed Jul 30 2025 15:33:42 GMT-0500 (Central Daylight Time),502719.10000002384,046_o_m_n_a.png,O,None,2015,14,1,3032.5,499686.60000002384,7188,NNB,A,12
11,test,1,0.0,2-Back,1.0,m,Wed Jul 30 2025 15:33:42 GMT-0500 (Central Daylight Time),505618.0,044_o_f_n_a.png,O,m,1844,15,1,2865.7999999523163,502752.2000000477,7188,NNB,A,13
12,test,1,1.0,2-Back,1.0,z,Wed Jul 30 2025 15:33:42 GMT-0500 (Central Daylight Time),507667.3000000715,046_o_m_n_a.png,O,z,984,16,1,2016.6000000238419,505650.7000000477,7188,NNB,A,14
13,test,1,0.0,2-Back,1.0,m,Wed Jul 30 2025 15:33:42 GMT-0500 (Central Daylight Time),509966.3000000715,050_m_f_n_a.png,O,m,1247,17,1,2266.3000000715256,507700.0,7188,NNB,A,15
14,test,1,0.0,2-Back,1.0,m,Wed Jul 30 2025 15:33:42 GMT-0500 (Central Daylight Time),512215.5,045_m_m_n_a.png,O,m,1204,18,1,2224.399999976158,509991.10000002384,7188,NNB,A,16
0,test,2,0.0,2-Back,,,Wed Jul 30 2025 15:33:42 GMT-0500 (Central Daylight Time),512215.5,045_m_m_n_a.png,O,space,1755,1,1,2224.399999976158,509991.10000002384,7188,NNB,A,0
0,test,2,0.0,2-Back,,,Wed Jul 30 2025 15:33:42 GMT-0500 (Central Daylight Time),512215.5,010_y_f_n_a.png,O,space,1755,2,1,2224.399999976158,509991.10000002384,7188,NNB,A,0
1,test,2,1.0,2-Back,1.0,z,Wed Jul 30 2025 15:33:42 GMT-0500 (Central Daylight Time),520863.10000002384,045_m_m_n_a.png,O,z,656,3,1,1684.1000000238419,519179.0,7188,NNB,A,1
2,test,2,0.0,2-Back,1.0,m,Wed Jul 30 2025 15:33:42 GMT-0500 (Central Daylight Time),522745.8000000715,050_m_f_n_a.png,O,m,828,4,1,1849.0,520896.8000000715,7188,NNB,A,2
2,test,2,0.0,2-Back,0.0,m,Wed Jul 30 2025 15:33:42 GMT-0500 (Central Daylight Time),524711.8000000715,010_y_f_n_a.png,O,z,921,5,1,1942.3999999761581,522769.40000009537,7188,NNB,A,3
3,test,2,0.0,2-Back,1.0,m,Wed Jul 30 2025 15:33:42 GMT-0500 (Central Daylight Time),526860.8000000715,046_o_m_n_a.png,O,m,1108,6,1,2118.5,524742.3000000715,7188,NNB,A,4
3,test,2,0.0,2-Back,0.0,m,Wed Jul 30 2025 15:33:42 GMT-0500 (Central Daylight Time),529226.9000000954,063_y_f_n_a.png,O,z,1301,7,1,2332.100000023842,526894.8000000715,7188,NNB,A,5
4,test,2,1.0,2-Back,1.0,z,Wed Jul 30 2025 15:33:42 GMT-0500 (Central Daylight Time),532059.4000000954,046_o_m_n_a.png,O,z,1768,8,1,2796.3000000715256,529263.1000000238,7188,NNB,A,6
5,test,2,0.0,2-Back,1.0,m,Wed Jul 30 2025 15:33:42 GMT-0500 (Central Daylight Time),534425.3000000715,008_y_m_n_a.png,O,m,1302,9,1,2333.899999976158,532091.4000000954,7188,NNB,A,7
5,test,2,0.0,2-Back,0.0,m,Wed Jul 30 2025 15:33:42 GMT-0500 (Central Daylight Time),537257.7000000477,008_y_m_n_a.png,O,z,1777,10,1,2797.399999976158,534460.3000000715,7188,NNB,A,8
6,test,2,0.0,2-Back,1.0,m,Wed Jul 30 2025 15:33:42 GMT-0500 (Central Daylight Time),539706.6000000238,043_m_f_n_a.png,O,m,1401,11,1,2420.5,537286.1000000238,7188,NNB,A,9
7,test,2,0.0,2-Back,1.0,m,Wed Jul 30 2025 15:33:42 GMT-0500 (Central Daylight Time),541922.5,010_y_f_n_a.png,O,m,1159,12,1,2182.0,539740.5,7188,NNB,A,10
8,test,2,1.0,2-Back,1.0,z,Wed Jul 30 2025 15:33:42 GMT-0500 (Central Daylight Time),543938.6000000238,043_m_f_n_a.png,O,z,952,13,1,1982.3999999761581,541956.2000000477,7188,NNB,A,11
9,test,2,0.0,2-Back,1.0,m,Wed Jul 30 2025 15:33:42 GMT-0500 (Central Daylight Time),546221.3000000715,053_o_m_n_a.png,O,m,1232,14,1,2249.7000000476837,543971.6000000238,7188,NNB,A,12
9,test,2,0.0,2-Back,0.0,m,Wed Jul 30 2025 15:33:42 GMT-0500 (Central Daylight Time),548887.2000000477,053_o_m_n_a.png,O,z,1630,15,1,2634.2999999523163,546252.9000000954,7188,NNB,A,13
9,test,2,0.0,2-Back,0.0,m,Wed Jul 30 2025 15:33:42 GMT-0500 (Central Daylight Time),551952.9000000954,044_o_f_n_a.png,O,None,2016,16,1,3033.8000000715256,548919.1000000238,7188,NNB,A,14
10,test,2,0.0,2-Back,1.0,m,Wed Jul 30 2025 15:33:42 GMT-0500 (Central Daylight Time),553968.9000000954,058_m_m_n_a.png,O,m,971,17,1,1991.5,551977.4000000954,7188,NNB,A,15
11,test,2,1.0,2-Back,1.0,z,Wed Jul 30 2025 15:33:42 GMT-0500 (Central Daylight Time),556617.8000000715,044_o_f_n_a.png,O,z,1594,18,1,2616.600000023842,554001.2000000477,7188,NNB,A,16
0,test,3,1.0,2-Back,,,Wed Jul 30 2025 15:33:42 GMT-0500 (Central Daylight Time),556617.8000000715,041_y_m_n_a.png,O,space,1608,1,1,2616.600000023842,554001.2000000477,7188,NNB,A,0
0,test,3,1.0,2-Back,,,Wed Jul 30 2025 15:33:42 GMT-0500 (Central Daylight Time),556617.8000000715,041_y_m_n_a.png,O,space,1608,2,1,2616.600000023842,554001.2000000477,7188,NNB,A,0
1,test,3,0.0,2-Back,1.0,m,Wed Jul 30 2025 15:33:42 GMT-0500 (Central Daylight Time),565365.1000000238,044_o_f_n_a.png,O,m,941,3,1,1966.7999999523163,563398.3000000715,7188,NNB,A,1
2,test,3,0.0,2-Back,1.0,m,Wed Jul 30 2025 15:33:42 GMT-0500 (Central Daylight Time),567330.9000000954,045_m_m_n_a.png,O,m,901,4,1,1930.4000000953674,565400.5,7188,NNB,A,2
3,test,3,1.0,2-Back,1.0,z,Wed Jul 30 2025 15:33:42 GMT-0500 (Central Daylight Time),569380.5,044_o_f_n_a.png,O,z,1000,5,1,2020.5999999046326,567359.9000000954,7188,NNB,A,3
4,test,3,0.0,2-Back,1.0,m,Wed Jul 30 2025 15:33:42 GMT-0500 (Central Daylight Time),571795.5,008_y_m_n_a.png,O,m,1373,6,1,2392.5,569403.0,7188,NNB,A,4
4,test,3,0.0,2-Back,0.0,m,Wed Jul 30 2025 15:33:42 GMT-0500 (Central Daylight Time),574312.1000000238,045_m_m_n_a.png,O,z,1497,7,1,2503.2999999523163,571808.8000000715,7188,NNB,A,5
5,test,3,1.0,2-Back,1.0,z,Wed Jul 30 2025 15:33:42 GMT-0500 (Central Daylight Time),577044.4000000954,008_y_m_n_a.png,O,z,1674,8,1,2695.8000000715256,574348.6000000238,7188,NNB,A,6
6,test,3,0.0,2-Back,1.0,m,Wed Jul 30 2025 15:33:42 GMT-0500 (Central Daylight Time),579326.4000000954,010_y_f_n_a.png,O,m,1230,9,1,2249.5,577076.9000000954,7188,NNB,A,7
7,test,3,0.0,2-Back,1.0,m,Wed Jul 30 2025 15:33:42 GMT-0500 (Central Daylight Time),581576.4000000954,058_m_m_n_a.png,O,m,1220,10,1,2238.3000000715256,579338.1000000238,7188,NNB,A,8
8,test,3,1.0,2-Back,1.0,z,Wed Jul 30 2025 15:33:42 GMT-0500 (Central Daylight Time),583358.4000000954,010_y_f_n_a.png,O,z,745,11,1,1751.1000000238419,581607.3000000715,7188,NNB,A,9
9,test,3,1.0,2-Back,1.0,z,Wed Jul 30 2025 15:33:42 GMT-0500 (Central Daylight Time),585475.1000000238,058_m_m_n_a.png,O,z,1093,12,1,2102.6999999284744,583372.4000000954,7188,NNB,A,10
10,test,3,0.0,2-Back,1.0,m,Wed Jul 30 2025 15:33:42 GMT-0500 (Central Daylight Time),587541.2000000477,044_o_f_n_a.png,O,m,1008,13,1,2033.7000000476837,585507.5,7188,NNB,A,11
11,test,3,0.0,2-Back,1.0,m,Wed Jul 30 2025 15:33:42 GMT-0500 (Central Daylight Time),589840.4000000954,050_m_f_n_a.png,O,m,1246,14,1,2267.100000023842,587573.3000000715,7188,NNB,A,12
12,test,3,0.0,2-Back,1.0,m,Wed Jul 30 2025 15:33:42 GMT-0500 (Central Daylight Time),591856.4000000954,046_o_m_n_a.png,O,m,971,15,1,1991.2000000476837,589865.2000000477,7188,NNB,A,13
13,test,3,1.0,2-Back,1.0,z,Wed Jul 30 2025 15:33:42 GMT-0500 (Central Daylight Time),594105.7000000477,050_m_f_n_a.png,O,z,1193,16,1,2216.2000000476837,591889.5,7188,NNB,A,14
14,test,3,0.0,2-Back,1.0,m,Wed Jul 30 2025 15:33:42 GMT-0500 (Central Daylight Time),596370.6000000238,047_o_f_n_a.png,O,m,1207,17,1,2232.0,594138.6000000238,7188,NNB,A,15
15,test,3,0.0,2-Back,1.0,m,Wed Jul 30 2025 15:33:42 GMT-0500 (Central Daylight Time),599187.0,047_o_f_n_a.png,O,m,1784,18,1,2803.6999999284744,596383.3000000715,7188,NNB,A,16
0,test,4,0.0,2-Back,,,Wed Jul 30 2025 15:33:42 GMT-0500 (Central Daylight Time),599187.0,053_o_m_n_a.png,O,space,1319,1,1,2803.6999999284744,596383.3000000715,7188,NNB,A,0
0,test,4,0.0,2-Back,,,Wed Jul 30 2025 15:33:42 GMT-0500 (Central Daylight Time),599187.0,063_y_f_n_a.png,O,space,1319,2,1,2803.6999999284744,596383.3000000715,7188,NNB,A,0
1,test,4,1.0,2-Back,1.0,z,Wed Jul 30 2025 15:33:42 GMT-0500 (Central Daylight Time),607601.2000000477,053_o_m_n_a.png,O,z,837,3,1,1853.5,605747.7000000477,7188,NNB,A,1
1,test,4,1.0,2-Back,0.0,z,Wed Jul 30 2025 15:33:42 GMT-0500 (Central Daylight Time),609917.6000000238,063_y_f_n_a.png,O,m,1266,4,1,2284.100000023842,607633.5,7188,NNB,A,2
2,test,4,0.0,2-Back,1.0,m,Wed Jul 30 2025 15:33:42 GMT-0500 (Central Daylight Time),612232.9000000954,044_o_f_n_a.png,O,m,1278,5,1,2286.7000000476837,609946.2000000477,7188,NNB,A,3
3,test,4,0.0,2-Back,1.0,m,Wed Jul 30 2025 15:33:42 GMT-0500 (Central Daylight Time),614648.9000000954,044_o_f_n_a.png,O,m,1378,6,1,2390.4000000953674,612258.5,7188,NNB,A,4
3,test,4,0.0,2-Back,0.0,m,Wed Jul 30 2025 15:33:42 GMT-0500 (Central Daylight Time),617231.5,043_m_f_n_a.png,O,z,1522,7,1,2549.0,614682.5,7188,NNB,A,5
4,test,4,0.0,2-Back,1.0,m,Wed Jul 30 2025 15:33:42 GMT-0500 (Central Daylight Time),619497.3000000715,008_y_m_n_a.png,O,m,1228,8,1,2239.3000000715256,617258.0,7188,NNB,A,6
5,test,4,1.0,2-Back,1.0,z,Wed Jul 30 2025 15:33:42 GMT-0500 (Central Daylight Time),621513.3000000715,043_m_f_n_a.png,O,z,953,9,1,1983.8000000715256,619529.5,7188,NNB,A,7
6,test,4,0.0,2-Back,1.0,m,Wed Jul 30 2025 15:33:42 GMT-0500 (Central Daylight Time),623796.0,058_m_m_n_a.png,O,m,1243,10,1,2253.6999999284744,621542.3000000715,7188,NNB,A,8
7,test,4,0.0,2-Back,1.0,m,Wed Jul 30 2025 15:33:42 GMT-0500 (Central Daylight Time),626445.1000000238,008_y_m_n_a.png,O,m,1606,11,1,2620.6999999284744,623824.4000000954,7188,NNB,A,9
8,test,4,0.0,2-Back,1.0,m,Wed Jul 30 2025 15:33:42 GMT-0500 (Central Daylight Time),628711.0,047_o_f_n_a.png,O,m,1205,12,1,2231.7999999523163,626479.2000000477,7188,NNB,A,10
9,test,4,0.0,2-Back,1.0,m,Wed Jul 30 2025 15:33:42 GMT-0500 (Central Daylight Time),630610.3000000715,041_y_m_n_a.png,O,m,851,13,1,1869.5,628740.8000000715,7188,NNB,A,11
10,test,4,1.0,2-Back,1.0,z,Wed Jul 30 2025 15:33:42 GMT-0500 (Central Daylight Time),632493.1000000238,047_o_f_n_a.png,O,z,841,14,1,1853.8999999761581,630639.2000000477,7188,NNB,A,12
11,test,4,1.0,2-Back,1.0,z,Wed Jul 30 2025 15:33:42 GMT-0500 (Central Daylight Time),634575.7000000477,041_y_m_n_a.png,O,z,1046,15,1,2053.7999999523163,632521.9000000954,7188,NNB,A,13
12,test,4,0.0,2-Back,1.0,m,Wed Jul 30 2025 15:33:42 GMT-0500 (Central Daylight Time),636741.5,045_m_m_n_a.png,O,m,1107,16,1,2133.1999999284744,634608.3000000715,7188,NNB,A,14
13,test,4,0.0,2-Back,1.0,m,Wed Jul 30 2025 15:33:42 GMT-0500 (Central Daylight Time),638940.9000000954,050_m_f_n_a.png,O,m,1158,17,1,2176.100000023842,636764.8000000715,7188,NNB,A,15
14,test,4,1.0,2-Back,1.0,z,Wed Jul 30 2025 15:33:42 GMT-0500 (Central Daylight Time),640990.4000000954,045_m_m_n_a.png,O,z,1006,18,1,2020.0,638970.4000000954,7188,NNB,A,16
0,test,5,1.0,2-Back,,,Wed Jul 30 2025 15:33:42 GMT-0500 (Central Daylight Time),640990.4000000954,041_y_m_n_a.png,O,space,1389,1,1,2020.0,638970.4000000954,7188,NNB,A,0
0,test,5,1.0,2-Back,,,Wed Jul 30 2025 15:33:42 GMT-0500 (Central Daylight Time),640990.4000000954,050_m_f_n_a.png,O,space,1389,2,1,2020.0,638970.4000000954,7188,NNB,A,0
1,test,5,1.0,2-Back,1.0,z,Wed Jul 30 2025 15:33:42 GMT-0500 (Central Daylight Time),649321.0,041_y_m_n_a.png,O,z,754,3,1,1771.1999999284744,647549.8000000715,7188,NNB,A,1
1,test,5,1.0,2-Back,0.0,z,Wed Jul 30 2025 15:33:42 GMT-0500 (Central Daylight Time),651420.3000000715,050_m_f_n_a.png,O,m,1058,4,1,2069.7000000476837,649350.6000000238,7188,NNB,A,2
2,test,5,0.0,2-Back,1.0,m,Wed Jul 30 2025 15:33:42 GMT-0500 (Central Daylight Time),653853.5,047_o_f_n_a.png,O,m,1399,5,1,2402.399999976158,651451.1000000238,7188,NNB,A,3
3,test,5,0.0,2-Back,1.0,m,Wed Jul 30 2025 15:33:42 GMT-0500 (Central Daylight Time),656218.7000000477,041_y_m_n_a.png,O,m,1318,6,1,2337.399999976158,653881.3000000715,7188,NNB,A,4
4,test,5,0.0,2-Back,1.0,m,Wed Jul 30 2025 15:33:42 GMT-0500 (Central Daylight Time),658284.7000000477,010_y_f_n_a.png,O,m,1025,7,1,2035.1000000238419,656249.6000000238,7188,NNB,A,5
4,test,5,0.0,2-Back,0.0,m,Wed Jul 30 2025 15:33:42 GMT-0500 (Central Daylight Time),660766.9000000954,047_o_f_n_a.png,O,z,1430,8,1,2448.2000000476837,658318.7000000477,7188,NNB,A,6
5,test,5,1.0,2-Back,1.0,z,Wed Jul 30 2025 15:33:42 GMT-0500 (Central Daylight Time),663283.0,010_y_f_n_a.png,O,z,1459,9,1,2482.1999999284744,660800.8000000715,7188,NNB,A,7
6,test,5,0.0,2-Back,1.0,m,Wed Jul 30 2025 15:33:42 GMT-0500 (Central Daylight Time),665564.9000000954,046_o_m_n_a.png,O,m,1247,10,1,2256.4000000953674,663308.5,7188,NNB,A,8
7,test,5,0.0,2-Back,1.0,m,Wed Jul 30 2025 15:33:42 GMT-0500 (Central Daylight Time),667731.7000000477,043_m_f_n_a.png,O,m,1117,11,1,2147.399999976158,665584.3000000715,7188,NNB,A,9
8,test,5,0.0,2-Back,1.0,m,Wed Jul 30 2025 15:33:42 GMT-0500 (Central Daylight Time),669697.6000000238,058_m_m_n_a.png,O,m,911,12,1,1930.5,667767.1000000238,7188,NNB,A,10
8,test,5,0.0,2-Back,0.0,m,Wed Jul 30 2025 15:33:42 GMT-0500 (Central Daylight Time),671880.2000000477,046_o_m_n_a.png,O,z,1138,13,1,2155.7999999523163,669724.4000000954,7188,NNB,A,11
9,test,5,1.0,2-Back,1.0,z,Wed Jul 30 2025 15:33:42 GMT-0500 (Central Daylight Time),674412.7000000477,058_m_m_n_a.png,O,z,1483,14,1,2502.2000000476837,671910.5,7188,NNB,A,12
10,test,5,0.0,2-Back,1.0,m,Wed Jul 30 2025 15:33:42 GMT-0500 (Central Daylight Time),676629.3000000715,063_y_f_n_a.png,O,m,1166,15,1,2182.3000000715256,674447.0,7188,NNB,A,13
11,test,5,0.0,2-Back,1.0,m,Wed Jul 30 2025 15:33:42 GMT-0500 (Central Daylight Time),678578.0,053_o_m_n_a.png,O,m,903,16,1,1923.3999999761581,676654.6000000238,7188,NNB,A,14
11,test,5,0.0,2-Back,0.0,m,Wed Jul 30 2025 15:33:42 GMT-0500 (Central Daylight Time),680710.7000000477,043_m_f_n_a.png,O,z,1089,17,1,2107.0,678603.7000000477,7188,NNB,A,15
12,test,5,1.0,2-Back,1.0,z,Wed Jul 30 2025 15:33:42 GMT-0500 (Central Daylight Time),683126.6000000238,053_o_m_n_a.png,O,z,1373,18,1,2388.600000023842,680738.0,7188,NNB,A,16
