Number,acc_sum,block,block_c,block_cond,con_img,correct,correct_response,datetime,endtime,jitter,project,response,response_time,row_sel,session_number,start_end,starttime,subject_id,task,task_vers,trial
9,0,prac,1,A,circle.png,0,m,Tue Jun 16 2026 11:01:58 GMT-0500 (Central Daylight Time),56326.69999998808,1500,I,None,1515,8,2,3792.900000035763,52533.799999952316,8103,NTS,C,1
4,1,prac,1,A,circle.png,1,z,Tue Jun 16 2026 11:01:58 GMT-0500 (Central Daylight Time),59142.19999998808,1400,I,z,621,4,2,2808.199999988079,56334.0,8103,NTS,C,2
9,2,prac,1,A,circle.png,1,m,Tue Jun 16 2026 11:01:58 GMT-0500 (Central Daylight Time),62141.19999998808,1500,I,m,705,8,2,2993.300000011921,59147.89999997616,8103,NTS,C,3
1,3,prac,1,A,circle.png,1,z,Tue Jun 16 2026 11:01:58 GMT-0500 (Central Daylight Time),64540.39999997616,1000,I,z,605,1,2,2389.899999976158,62150.5,8103,NTS,C,4
2,4,prac,1,A,circle.png,1,z,Tue Jun 16 2026 11:01:58 GMT-0500 (Central Daylight Time),68222.59999996424,2000,I,z,888,2,2,3673.300000011921,64549.299999952316,8103,NTS,C,5
4,5,prac,1,A,circle.png,1,z,Tue Jun 16 2026 11:01:58 GMT-0500 (Central Daylight Time),71138.19999998808,1400,I,z,708,4,2,2909.5,68228.69999998808,8103,NTS,C,6
7,6,prac,1,A,circle.png,1,m,Tue Jun 16 2026 11:01:58 GMT-0500 (Central Daylight Time),74404.19999998808,1700,I,m,781,6,2,3258.0,71146.19999998808,8103,NTS,C,7
8,7,prac,1,A,circle.png,1,m,Tue Jun 16 2026 11:01:58 GMT-0500 (Central Daylight Time),77736.59999996424,1600,I,m,935,7,2,3326.699999988079,74409.89999997616,8103,NTS,C,8
3,8,prac,1,A,circle.png,1,z,Tue Jun 16 2026 11:01:58 GMT-0500 (Central Daylight Time),80568.69999998808,1200,I,z,844,3,2,2826.5,77742.19999998808,8103,NTS,C,9
7,9,prac,1,A,circle.png,1,m,Tue Jun 16 2026 11:01:58 GMT-0500 (Central Daylight Time),83701.29999995232,1700,I,m,638,6,2,3127.0,80574.29999995232,8103,NTS,C,10
3,10,prac,1,A,circle.png,1,z,Tue Jun 16 2026 11:01:58 GMT-0500 (Central Daylight Time),86200.19999998808,1200,I,z,503,3,2,2493.300000011921,83706.89999997616,8103,NTS,C,11
6,11,prac,1,A,circle.png,1,m,Tue Jun 16 2026 11:01:58 GMT-0500 (Central Daylight Time),89549.5,1900,I,m,663,5,2,3342.5,86207.0,8103,NTS,C,12
2,1,prac,1,B,triangle.png,1,m,Tue Jun 16 2026 11:01:58 GMT-0500 (Central Daylight Time),111275.79999995232,1700,I,m,632,2,2,3111.199999988079,108164.59999996424,8103,NTS,C,1
1,2,prac,1,B,triangle.png,1,z,Tue Jun 16 2026 11:01:58 GMT-0500 (Central Daylight Time),114641.39999997616,1900,I,z,669,1,2,3357.699999988079,111283.69999998808,8103,NTS,C,2
9,3,prac,1,B,triangle.png,1,z,Tue Jun 16 2026 11:01:58 GMT-0500 (Central Daylight Time),117590.89999997616,1400,I,z,755,8,2,2943.5,114647.39999997616,8103,NTS,C,3
8,4,prac,1,B,triangle.png,1,m,Tue Jun 16 2026 11:01:58 GMT-0500 (Central Daylight Time),120140.0,1200,I,m,565,7,2,2543.600000023842,117596.39999997616,8103,NTS,C,4
7,5,prac,1,B,triangle.png,1,z,Tue Jun 16 2026 11:01:58 GMT-0500 (Central Daylight Time),123572.19999998808,2000,I,z,649,6,2,3426.400000035763,120145.79999995232,8103,NTS,C,5
8,6,prac,1,B,triangle.png,1,m,Tue Jun 16 2026 11:01:58 GMT-0500 (Central Daylight Time),126171.0,1200,I,m,599,7,2,2592.100000023842,123578.89999997616,8103,NTS,C,6
4,6,prac,1,B,triangle.png,0,m,Tue Jun 16 2026 11:01:58 GMT-0500 (Central Daylight Time),129337.89999997616,1500,I,z,868,4,2,3161.100000023842,126176.79999995232,8103,NTS,C,7
6,7,prac,1,B,triangle.png,1,m,Tue Jun 16 2026 11:01:58 GMT-0500 (Central Daylight Time),131703.89999997616,1000,I,m,586,5,2,2360.0,129343.89999997616,8103,NTS,C,8
4,8,prac,1,B,triangle.png,1,m,Tue Jun 16 2026 11:01:58 GMT-0500 (Central Daylight Time),134551.79999995232,1500,I,m,554,4,2,2841.0,131710.79999995232,8103,NTS,C,9
9,9,prac,1,B,triangle.png,1,z,Tue Jun 16 2026 11:01:58 GMT-0500 (Central Daylight Time),137317.59999996424,1400,I,z,571,8,2,2759.800000011921,134557.79999995232,8103,NTS,C,10
3,10,prac,1,B,triangle.png,1,z,Tue Jun 16 2026 11:01:58 GMT-0500 (Central Daylight Time),140516.89999997616,1600,I,z,807,3,2,3193.0,137323.89999997616,8103,NTS,C,11
7,11,prac,1,B,triangle.png,1,z,Tue Jun 16 2026 11:01:58 GMT-0500 (Central Daylight Time),143965.89999997616,2000,I,z,664,6,2,3443.399999976158,140522.5,8103,NTS,C,12
8,1,test,1,A,circle.png,1,m,Tue Jun 16 2026 11:01:58 GMT-0500 (Central Daylight Time),161776.89999997616,1600,I,m,662,7,2,2278.5,159498.39999997616,8103,NTS,C,1
6,2,test,1,A,circle.png,1,m,Tue Jun 16 2026 11:01:58 GMT-0500 (Central Daylight Time),164475.69999998808,1900,I,m,774,5,2,2694.400000035763,161781.29999995232,8103,NTS,C,2
8,3,test,1,A,circle.png,1,m,Tue Jun 16 2026 11:01:58 GMT-0500 (Central Daylight Time),166741.5,1600,I,m,647,7,2,2261.300000011921,164480.19999998808,8103,NTS,C,3
7,4,test,1,A,circle.png,1,m,Tue Jun 16 2026 11:01:58 GMT-0500 (Central Daylight Time),168974.29999995232,1700,I,m,507,6,2,2228.2999999523163,166746.0,8103,NTS,C,4
3,5,test,1,A,circle.png,1,z,Tue Jun 16 2026 11:01:58 GMT-0500 (Central Daylight Time),170757.29999995232,1200,I,z,559,3,2,1778.5,168978.79999995232,8103,NTS,C,5
3,6,test,1,A,circle.png,1,z,Tue Jun 16 2026 11:01:58 GMT-0500 (Central Daylight Time),172423.19999998808,1200,I,z,437,3,2,1662.199999988079,170761.0,8103,NTS,C,6
6,7,test,1,A,circle.png,1,m,Tue Jun 16 2026 11:01:58 GMT-0500 (Central Daylight Time),174939.19999998808,1900,I,m,593,5,2,2509.100000023842,172430.09999996424,8103,NTS,C,7
4,8,test,1,A,circle.png,1,z,Tue Jun 16 2026 11:01:58 GMT-0500 (Central Daylight Time),176905.09999996424,1400,I,z,537,4,2,1961.0,174944.09999996424,8103,NTS,C,8
2,9,test,1,A,circle.png,1,z,Tue Jun 16 2026 11:01:58 GMT-0500 (Central Daylight Time),179454.19999998808,2000,I,z,530,2,2,2544.100000023842,176910.09999996424,8103,NTS,C,9
1,10,test,1,A,circle.png,1,z,Tue Jun 16 2026 11:01:58 GMT-0500 (Central Daylight Time),180987.5,1000,I,z,510,1,2,1529.300000011921,179458.19999998808,8103,NTS,C,10
7,11,test,1,A,circle.png,1,m,Tue Jun 16 2026 11:01:58 GMT-0500 (Central Daylight Time),183203.39999997616,1700,I,m,485,6,2,2211.800000011921,180991.59999996424,8103,NTS,C,11
1,12,test,1,A,circle.png,1,z,Tue Jun 16 2026 11:01:58 GMT-0500 (Central Daylight Time),184852.59999996424,1000,I,z,617,1,2,1645.0999999642372,183207.5,8103,NTS,C,12
8,13,test,1,A,circle.png,1,m,Tue Jun 16 2026 11:01:58 GMT-0500 (Central Daylight Time),187002.39999997616,1600,I,m,520,7,2,2145.0,184857.39999997616,8103,NTS,C,13
9,14,test,1,A,circle.png,1,m,Tue Jun 16 2026 11:01:58 GMT-0500 (Central Daylight Time),188971.19999998808,1500,I,m,438,8,2,1964.699999988079,187006.5,8103,NTS,C,14
9,15,test,1,A,circle.png,1,m,Tue Jun 16 2026 11:01:58 GMT-0500 (Central Daylight Time),190967.29999995232,1500,I,m,472,8,2,1989.3999999761581,188977.89999997616,8103,NTS,C,15
2,16,test,1,A,circle.png,1,z,Tue Jun 16 2026 11:01:58 GMT-0500 (Central Daylight Time),193483.5,2000,I,z,494,2,2,2512.2000000476837,190971.29999995232,8103,NTS,C,16
4,17,test,1,A,circle.png,1,z,Tue Jun 16 2026 11:01:58 GMT-0500 (Central Daylight Time),195466.0,1400,I,z,551,4,2,1978.300000011921,193487.69999998808,8103,NTS,C,17
7,18,test,1,A,circle.png,1,m,Tue Jun 16 2026 11:01:58 GMT-0500 (Central Daylight Time),197798.5,1700,I,m,613,6,2,2328.400000035763,195470.09999996424,8103,NTS,C,18
3,19,test,1,A,circle.png,1,z,Tue Jun 16 2026 11:01:58 GMT-0500 (Central Daylight Time),199597.89999997616,1200,I,z,573,3,2,1795.199999988079,197802.69999998808,8103,NTS,C,19
9,20,test,1,A,circle.png,1,m,Tue Jun 16 2026 11:01:58 GMT-0500 (Central Daylight Time),201630.79999995232,1500,I,m,514,8,2,2028.2999999523163,199602.5,8103,NTS,C,20
2,21,test,1,A,circle.png,1,z,Tue Jun 16 2026 11:01:58 GMT-0500 (Central Daylight Time),204196.59999996424,2000,I,z,542,2,2,2561.300000011921,201635.29999995232,8103,NTS,C,21
8,22,test,1,A,circle.png,1,m,Tue Jun 16 2026 11:01:58 GMT-0500 (Central Daylight Time),206245.89999997616,1600,I,m,432,7,2,2044.1000000238419,204201.79999995232,8103,NTS,C,22
4,23,test,1,A,circle.png,1,z,Tue Jun 16 2026 11:01:58 GMT-0500 (Central Daylight Time),208162.0,1400,I,z,486,4,2,1912.2000000476837,206249.79999995232,8103,NTS,C,23
1,24,test,1,A,circle.png,1,z,Tue Jun 16 2026 11:01:58 GMT-0500 (Central Daylight Time),209744.79999995232,1000,I,z,560,1,2,1578.8999999761581,208165.89999997616,8103,NTS,C,24
6,1,test,1,B,triangle.png,1,m,Tue Jun 16 2026 11:01:58 GMT-0500 (Central Daylight Time),218875.29999995232,1000,I,m,834,5,2,1862.7999999523163,217012.5,8103,NTS,C,1
1,2,test,1,B,triangle.png,1,z,Tue Jun 16 2026 11:01:58 GMT-0500 (Central Daylight Time),220874.79999995232,1400,I,z,577,9,2,1992.7999999523163,218882.0,8103,NTS,C,2
3,3,test,1,B,triangle.png,1,z,Tue Jun 16 2026 11:01:58 GMT-0500 (Central Daylight Time),223857.09999996424,2000,I,z,953,11,2,2978.0,220879.09999996424,8103,NTS,C,3
9,4,test,1,B,triangle.png,1,z,Tue Jun 16 2026 11:01:58 GMT-0500 (Central Daylight Time),226456.39999997616,1900,I,z,680,16,2,2594.199999988079,223862.19999998808,8103,NTS,C,4
4,5,test,1,B,triangle.png,1,m,Tue Jun 16 2026 11:01:58 GMT-0500 (Central Daylight Time),228105.79999995232,1000,I,m,620,12,2,1645.2999999523163,226460.5,8103,NTS,C,5
8,6,test,1,B,triangle.png,1,m,Tue Jun 16 2026 11:01:58 GMT-0500 (Central Daylight Time),230488.29999995232,1700,I,m,654,15,2,2378.5,228109.79999995232,8103,NTS,C,6
7,7,test,1,B,triangle.png,1,z,Tue Jun 16 2026 11:01:58 GMT-0500 (Central Daylight Time),232621.0,1600,I,z,506,14,2,2127.900000035763,230493.09999996424,8103,NTS,C,7
8,8,test,1,B,triangle.png,1,m,Tue Jun 16 2026 11:01:58 GMT-0500 (Central Daylight Time),234387.29999995232,1200,I,m,543,7,2,1761.7999999523163,232625.5,8103,NTS,C,8
2,9,test,1,B,triangle.png,1,m,Tue Jun 16 2026 11:01:58 GMT-0500 (Central Daylight Time),236219.89999997616,1200,I,m,608,10,2,1828.5,234391.39999997616,8103,NTS,C,9
2,10,test,1,B,triangle.png,1,m,Tue Jun 16 2026 11:01:58 GMT-0500 (Central Daylight Time),238419.09999996424,1700,I,m,476,2,2,2194.099999964237,236225.0,8103,NTS,C,10
7,11,test,1,B,triangle.png,1,z,Tue Jun 16 2026 11:01:58 GMT-0500 (Central Daylight Time),240585.09999996424,1600,I,z,545,14,2,2161.800000011921,238423.29999995232,8103,NTS,C,11
9,12,test,1,B,triangle.png,1,z,Tue Jun 16 2026 11:01:58 GMT-0500 (Central Daylight Time),242517.79999995232,1400,I,z,515,8,2,1928.0999999642372,240589.69999998808,8103,NTS,C,12
4,13,test,1,B,triangle.png,1,m,Tue Jun 16 2026 11:01:58 GMT-0500 (Central Daylight Time),244184.29999995232,1000,I,m,639,12,2,1660.699999988079,242523.59999996424,8103,NTS,C,13
1,14,test,1,B,triangle.png,1,z,Tue Jun 16 2026 11:01:58 GMT-0500 (Central Daylight Time),246183.39999997616,1400,I,z,579,9,2,1995.1000000238419,244188.29999995232,8103,NTS,C,14
9,15,test,1,B,triangle.png,1,z,Tue Jun 16 2026 11:01:58 GMT-0500 (Central Daylight Time),248849.39999997616,1900,I,z,746,16,2,2661.399999976158,246188.0,8103,NTS,C,15
6,16,test,1,B,triangle.png,1,m,Tue Jun 16 2026 11:01:58 GMT-0500 (Central Daylight Time),250615.29999995232,1000,I,m,747,5,2,1761.699999988079,248853.59999996424,8103,NTS,C,16
4,16,test,1,B,triangle.png,0,m,Tue Jun 16 2026 11:01:58 GMT-0500 (Central Daylight Time),252931.29999995232,1500,I,z,793,4,2,2311.399999976158,250619.89999997616,8103,NTS,C,17
8,17,test,1,B,triangle.png,1,m,Tue Jun 16 2026 11:01:58 GMT-0500 (Central Daylight Time),255063.89999997616,1200,I,m,905,7,2,2128.399999976158,252935.5,8103,NTS,C,18
3,18,test,1,B,triangle.png,1,z,Tue Jun 16 2026 11:01:58 GMT-0500 (Central Daylight Time),257629.79999995232,2000,I,z,550,11,2,2561.399999976158,255068.39999997616,8103,NTS,C,19
3,19,test,1,B,triangle.png,1,z,Tue Jun 16 2026 11:01:58 GMT-0500 (Central Daylight Time),259929.09999996424,1600,I,z,670,3,2,2295.5,257633.59999996424,8103,NTS,C,20
6,20,test,1,B,triangle.png,1,m,Tue Jun 16 2026 11:01:58 GMT-0500 (Central Daylight Time),261978.5,1500,I,m,519,13,2,2044.9000000357628,259933.59999996424,8103,NTS,C,21
7,21,test,1,B,triangle.png,1,z,Tue Jun 16 2026 11:01:58 GMT-0500 (Central Daylight Time),264561.09999996424,2000,I,z,562,6,2,2578.0,261983.09999996424,8103,NTS,C,22
7,22,test,1,B,triangle.png,1,z,Tue Jun 16 2026 11:01:58 GMT-0500 (Central Daylight Time),267093.59999996424,2000,I,z,516,6,2,2528.300000011921,264565.2999999523,8103,NTS,C,23
1,23,test,1,B,triangle.png,1,z,Tue Jun 16 2026 11:01:58 GMT-0500 (Central Daylight Time),269592.6999999881,1900,I,z,579,1,2,2495.199999988079,267097.5,8103,NTS,C,24
9,1,prac,1,C,circle.png,1,m,Tue Jun 16 2026 11:01:58 GMT-0500 (Central Daylight Time),305148.2999999523,1900,I,m,890,8,2,3576.5,301571.7999999523,8103,NTS,C,1
8,1,prac,1,C,triangle.png,0,m,Tue Jun 16 2026 11:01:58 GMT-0500 (Central Daylight Time),308930.59999996424,1400,I,None,1501,7,2,3775.099999964237,305155.5,8103,NTS,C,2
1,1,prac,1,C,circle.png,0,z,Tue Jun 16 2026 11:01:58 GMT-0500 (Central Daylight Time),312363.09999996424,1700,I,m,934,1,2,3425.800000011921,308937.2999999523,8103,NTS,C,3
4,1,prac,1,C,circle.png,0,z,Tue Jun 16 2026 11:01:58 GMT-0500 (Central Daylight Time),315661.7999999523,1000,I,None,1516,4,2,3293.099999964237,312368.6999999881,8103,NTS,C,4
7,1,prac,1,C,triangle.png,0,z,Tue Jun 16 2026 11:01:58 GMT-0500 (Central Daylight Time),318494.09999996424,1200,I,m,839,6,2,2826.699999988079,315667.39999997616,8103,NTS,C,5
2,1,prac,1,C,triangle.png,0,m,Tue Jun 16 2026 11:01:58 GMT-0500 (Central Daylight Time),321543.0,1600,I,z,662,2,2,3043.900000035763,318499.09999996424,8103,NTS,C,6
7,1,prac,1,C,triangle.png,0,z,Tue Jun 16 2026 11:01:58 GMT-0500 (Central Daylight Time),324442.39999997616,1200,I,m,901,6,2,2893.5,321548.89999997616,8103,NTS,C,7
2,1,prac,1,C,triangle.png,0,m,Tue Jun 16 2026 11:01:58 GMT-0500 (Central Daylight Time),328340.89999997616,1600,I,None,1515,2,2,3893.100000023842,324447.7999999523,8103,NTS,C,8
4,2,prac,1,C,circle.png,1,z,Tue Jun 16 2026 11:01:58 GMT-0500 (Central Daylight Time),331223.1999999881,1000,I,z,1095,4,2,2876.0,328347.1999999881,8103,NTS,C,9
6,3,prac,1,C,circle.png,1,m,Tue Jun 16 2026 11:01:58 GMT-0500 (Central Daylight Time),334656.0,2000,I,m,637,5,2,3427.0,331229.0,8103,NTS,C,10
3,4,prac,1,C,triangle.png,1,z,Tue Jun 16 2026 11:01:58 GMT-0500 (Central Daylight Time),337871.89999997616,1500,I,z,921,3,2,3210.699999988079,334661.1999999881,8103,NTS,C,11
6,5,prac,1,C,circle.png,1,m,Tue Jun 16 2026 11:01:58 GMT-0500 (Central Daylight Time),341737.89999997616,2000,I,m,1084,5,2,3860.800000011921,337877.09999996424,8103,NTS,C,12
4,0,test,1,C,triangle.png,0,m,Tue Jun 16 2026 11:01:58 GMT-0500 (Central Daylight Time),364096.59999996424,1500,I,None,1516,20,2,3028.800000011921,361067.7999999523,8103,NTS,C,1
3,0,test,1,C,circle.png,0,z,Tue Jun 16 2026 11:01:58 GMT-0500 (Central Daylight Time),367229.89999997616,1600,I,None,1517,19,2,3128.699999988079,364101.1999999881,8103,NTS,C,2
9,0,test,1,C,circle.png,0,m,Tue Jun 16 2026 11:01:58 GMT-0500 (Central Daylight Time),370261.2999999523,1500,I,None,1516,24,2,3027.099999964237,367234.1999999881,8103,NTS,C,3
2,0,test,1,C,triangle.png,0,m,Tue Jun 16 2026 11:01:58 GMT-0500 (Central Daylight Time),373676.7999999523,2000,I,z,1391,2,2,3411.0,370265.7999999523,8103,NTS,C,4
3,0,test,1,C,triangle.png,0,z,Tue Jun 16 2026 11:01:58 GMT-0500 (Central Daylight Time),375942.59999996424,1200,I,m,1040,3,2,2261.0,373681.59999996424,8103,NTS,C,5
9,0,test,1,C,triangle.png,0,z,Tue Jun 16 2026 11:01:58 GMT-0500 (Central Daylight Time),378875.09999996424,1400,I,None,1501,16,2,2927.699999988079,375947.39999997616,8103,NTS,C,6
6,1,test,1,C,circle.png,1,m,Tue Jun 16 2026 11:01:58 GMT-0500 (Central Daylight Time),382090.89999997616,1900,I,m,1285,5,2,3211.199999988079,378879.6999999881,8103,NTS,C,7
7,2,test,1,C,circle.png,1,m,Tue Jun 16 2026 11:01:58 GMT-0500 (Central Daylight Time),385456.39999997616,2000,I,m,1338,14,2,3360.899999976158,382095.5,8103,NTS,C,8
2,3,test,1,C,circle.png,1,z,Tue Jun 16 2026 11:01:58 GMT-0500 (Central Daylight Time),387922.2999999523,1700,I,z,744,18,2,2461.199999988079,385461.09999996424,8103,NTS,C,9
8,3,test,1,C,triangle.png,0,m,Tue Jun 16 2026 11:01:58 GMT-0500 (Central Daylight Time),391054.7999999523,1600,I,None,1516,7,2,3127.899999976158,387926.89999997616,8103,NTS,C,10
9,4,test,1,C,circle.png,1,m,Tue Jun 16 2026 11:01:58 GMT-0500 (Central Daylight Time),393820.39999997616,1500,I,m,1233,8,2,2761.300000011921,391059.09999996424,8103,NTS,C,11
4,5,test,1,C,circle.png,1,z,Tue Jun 16 2026 11:01:58 GMT-0500 (Central Daylight Time),396503.09999996424,1400,I,z,1256,4,2,2678.399999976158,393824.6999999881,8103,NTS,C,12
6,6,test,1,C,triangle.png,1,m,Tue Jun 16 2026 11:01:58 GMT-0500 (Central Daylight Time),398735.89999997616,1000,I,m,1212,13,2,2228.300000011921,396507.59999996424,8103,NTS,C,13
2,6,test,1,C,circle.png,0,z,Tue Jun 16 2026 11:01:58 GMT-0500 (Central Daylight Time),401968.0,1700,I,None,1516,10,2,3227.300000011921,398740.6999999881,8103,NTS,C,14
1,7,test,1,C,circle.png,1,z,Tue Jun 16 2026 11:01:58 GMT-0500 (Central Daylight Time),404051.0,1000,I,z,1060,1,2,2078.7000000476837,401972.2999999523,8103,NTS,C,15
7,8,test,1,C,triangle.png,1,z,Tue Jun 16 2026 11:01:58 GMT-0500 (Central Daylight Time),406767.5,1700,I,z,998,6,2,2712.600000023842,404054.89999997616,8103,NTS,C,16
8,9,test,1,C,triangle.png,1,m,Tue Jun 16 2026 11:01:58 GMT-0500 (Central Daylight Time),409282.1999999881,1600,I,m,886,23,2,2510.5,406771.6999999881,8103,NTS,C,17
6,10,test,1,C,circle.png,1,m,Tue Jun 16 2026 11:01:58 GMT-0500 (Central Daylight Time),412181.59999996424,1900,I,m,975,21,2,2894.800000011921,409286.7999999523,8103,NTS,C,18
8,11,test,1,C,circle.png,1,m,Tue Jun 16 2026 11:01:58 GMT-0500 (Central Daylight Time),414381.0,1200,I,m,975,15,2,2194.100000023842,412186.89999997616,8103,NTS,C,19
1,12,test,1,C,triangle.png,1,z,Tue Jun 16 2026 11:01:58 GMT-0500 (Central Daylight Time),417329.6999999881,1900,I,z,1028,17,2,2944.699999988079,414385.0,8103,NTS,C,20
7,13,test,1,C,triangle.png,1,z,Tue Jun 16 2026 11:01:58 GMT-0500 (Central Daylight Time),419845.5,1700,I,z,784,22,2,2511.100000023842,417334.39999997616,8103,NTS,C,21
3,14,test,1,C,circle.png,1,z,Tue Jun 16 2026 11:01:58 GMT-0500 (Central Daylight Time),422761.1999999881,1600,I,z,1295,11,2,2911.900000035763,419849.2999999523,8103,NTS,C,22
1,15,test,1,C,triangle.png,1,z,Tue Jun 16 2026 11:01:58 GMT-0500 (Central Daylight Time),425760.6999999881,1900,I,z,947,9,2,2995.0,422765.6999999881,8103,NTS,C,23
4,16,test,1,C,triangle.png,1,m,Tue Jun 16 2026 11:01:58 GMT-0500 (Central Daylight Time),428093.0,1500,I,m,800,12,2,2328.100000023842,425764.89999997616,8103,NTS,C,24
4,1,test,2,C,circle.png,1,z,Tue Jun 16 2026 11:01:58 GMT-0500 (Central Daylight Time),433991.09999996424,1400,I,z,1131,4,2,2545.800000011921,431445.2999999523,8103,NTS,C,1
8,2,test,2,C,circle.png,1,m,Tue Jun 16 2026 11:01:58 GMT-0500 (Central Daylight Time),436007.0,1200,I,m,789,23,2,2011.0,433996.0,8103,NTS,C,2
9,3,test,2,C,triangle.png,1,z,Tue Jun 16 2026 11:01:58 GMT-0500 (Central Daylight Time),438123.1999999881,1400,I,z,693,24,2,2110.400000035763,436012.7999999523,8103,NTS,C,3
9,4,test,2,C,triangle.png,1,z,Tue Jun 16 2026 11:01:58 GMT-0500 (Central Daylight Time),440139.5,1400,I,z,593,16,2,2011.800000011921,438127.6999999881,8103,NTS,C,4
9,5,test,2,C,circle.png,1,m,Tue Jun 16 2026 11:01:58 GMT-0500 (Central Daylight Time),442538.89999997616,1500,I,m,870,8,2,2395.199999988079,440143.6999999881,8103,NTS,C,5
1,6,test,2,C,circle.png,1,z,Tue Jun 16 2026 11:01:58 GMT-0500 (Central Daylight Time),444438.09999996424,1000,I,z,883,1,2,1894.5,442543.59999996424,8103,NTS,C,6
4,7,test,2,C,triangle.png,1,m,Tue Jun 16 2026 11:01:58 GMT-0500 (Central Daylight Time),446837.1999999881,1500,I,m,867,12,2,2395.0,444442.1999999881,8103,NTS,C,7
7,8,test,2,C,circle.png,1,m,Tue Jun 16 2026 11:01:58 GMT-0500 (Central Daylight Time),449669.6999999881,2000,I,m,808,14,2,2828.699999988079,446841.0,8103,NTS,C,8
2,8,test,2,C,triangle.png,0,m,Tue Jun 16 2026 11:01:58 GMT-0500 (Central Daylight Time),453201.89999997616,2000,I,None,1516,2,2,3527.399999976158,449674.5,8103,NTS,C,9
6,9,test,2,C,triangle.png,1,m,Tue Jun 16 2026 11:01:58 GMT-0500 (Central Daylight Time),454985.6999999881,1000,I,m,764,13,2,1779.1000000238419,453206.59999996424,8103,NTS,C,10
2,10,test,2,C,circle.png,1,z,Tue Jun 16 2026 11:01:58 GMT-0500 (Central Daylight Time),457675.1999999881,1700,I,z,974,18,2,2684.400000035763,454990.7999999523,8103,NTS,C,11
3,11,test,2,C,circle.png,1,z,Tue Jun 16 2026 11:01:58 GMT-0500 (Central Daylight Time),460032.89999997616,1600,I,z,745,19,2,2352.899999976158,457680.0,8103,NTS,C,12
6,12,test,2,C,triangle.png,1,m,Tue Jun 16 2026 11:01:58 GMT-0500 (Central Daylight Time),462015.59999996424,1000,I,m,955,21,2,1978.5999999642372,460037.0,8103,NTS,C,13
8,13,test,2,C,circle.png,1,m,Tue Jun 16 2026 11:01:58 GMT-0500 (Central Daylight Time),464148.2999999523,1200,I,m,901,15,2,2126.0,462022.2999999523,8103,NTS,C,14
3,14,test,2,C,circle.png,1,z,Tue Jun 16 2026 11:01:58 GMT-0500 (Central Daylight Time),466730.89999997616,1600,I,z,960,11,2,2577.600000023842,464153.2999999523,8103,NTS,C,15
7,15,test,2,C,triangle.png,1,z,Tue Jun 16 2026 11:01:58 GMT-0500 (Central Daylight Time),469463.39999997616,1700,I,z,1012,6,2,2727.800000011921,466735.59999996424,8103,NTS,C,16
6,16,test,2,C,circle.png,1,m,Tue Jun 16 2026 11:01:58 GMT-0500 (Central Daylight Time),472512.39999997616,1900,I,m,1121,5,2,3045.199999988079,469467.1999999881,8103,NTS,C,17
4,17,test,2,C,triangle.png,1,m,Tue Jun 16 2026 11:01:58 GMT-0500 (Central Daylight Time),475178.2999999523,1500,I,m,1136,20,2,2661.099999964237,472517.1999999881,8103,NTS,C,18
1,17,test,2,C,triangle.png,0,z,Tue Jun 16 2026 11:01:58 GMT-0500 (Central Daylight Time),477910.6999999881,1900,I,m,806,9,2,2728.0,475182.6999999881,8103,NTS,C,19
1,18,test,2,C,triangle.png,1,z,Tue Jun 16 2026 11:01:58 GMT-0500 (Central Daylight Time),480643.09999996424,1900,I,z,810,17,2,2727.099999964237,477916.0,8103,NTS,C,20
7,19,test,2,C,circle.png,1,m,Tue Jun 16 2026 11:01:58 GMT-0500 (Central Daylight Time),483626.6999999881,2000,I,m,963,22,2,2979.300000011921,480647.39999997616,8103,NTS,C,21
8,20,test,2,C,triangle.png,1,m,Tue Jun 16 2026 11:01:58 GMT-0500 (Central Daylight Time),486525.7999999523,1600,I,m,1267,7,2,2894.5,483631.2999999523,8103,NTS,C,22
2,21,test,2,C,circle.png,1,z,Tue Jun 16 2026 11:01:58 GMT-0500 (Central Daylight Time),489257.09999996424,1700,I,z,1012,10,2,2727.0,486530.09999996424,8103,NTS,C,23
3,21,test,2,C,triangle.png,0,z,Tue Jun 16 2026 11:01:58 GMT-0500 (Central Daylight Time),491240.2999999523,1200,I,m,755,3,2,1978.0999999642372,489262.1999999881,8103,NTS,C,24
8,0,test,3,C,triangle.png,0,m,Tue Jun 16 2026 11:01:58 GMT-0500 (Central Daylight Time),496455.09999996424,1600,I,z,1414,7,2,3028.800000011921,493426.2999999523,8103,NTS,C,1
3,0,test,3,C,triangle.png,0,z,Tue Jun 16 2026 11:01:58 GMT-0500 (Central Daylight Time),498621.09999996424,1200,I,m,934,19,2,2161.399999976158,496459.6999999881,8103,NTS,C,2
9,1,test,3,C,circle.png,1,m,Tue Jun 16 2026 11:01:58 GMT-0500 (Central Daylight Time),501220.39999997616,1500,I,m,1067,24,2,2595.100000023842,498625.2999999523,8103,NTS,C,3
3,2,test,3,C,circle.png,1,z,Tue Jun 16 2026 11:01:58 GMT-0500 (Central Daylight Time),503919.09999996424,1600,I,z,1081,11,2,2694.599999964237,501224.5,8103,NTS,C,4
7,3,test,3,C,triangle.png,1,z,Tue Jun 16 2026 11:01:58 GMT-0500 (Central Daylight Time),506735.2999999523,1700,I,z,1089,22,2,2811.7999999523163,503923.5,8103,NTS,C,5
7,4,test,3,C,triangle.png,1,z,Tue Jun 16 2026 11:01:58 GMT-0500 (Central Daylight Time),509135.5,1700,I,z,682,6,2,2396.0,506739.5,8103,NTS,C,6
9,5,test,3,C,circle.png,1,m,Tue Jun 16 2026 11:01:58 GMT-0500 (Central Daylight Time),511884.39999997616,1500,I,m,1226,8,2,2744.300000011921,509140.09999996424,8103,NTS,C,7
1,6,test,3,C,circle.png,1,z,Tue Jun 16 2026 11:01:58 GMT-0500 (Central Daylight Time),513866.39999997616,1000,I,z,953,17,2,1977.3999999761581,511889.0,8103,NTS,C,8
6,7,test,3,C,triangle.png,1,m,Tue Jun 16 2026 11:01:58 GMT-0500 (Central Daylight Time),515932.59999996424,1000,I,m,1042,13,2,2062.5,513870.09999996424,8103,NTS,C,9
2,8,test,3,C,circle.png,1,z,Tue Jun 16 2026 11:01:58 GMT-0500 (Central Daylight Time),518846.0,1700,I,z,1197,10,2,2909.5,515936.5,8103,NTS,C,10
8,9,test,3,C,circle.png,1,m,Tue Jun 16 2026 11:01:58 GMT-0500 (Central Daylight Time),520864.2999999523,1200,I,m,797,15,2,2013.3999999761581,518850.89999997616,8103,NTS,C,11
9,9,test,3,C,triangle.png,0,z,Tue Jun 16 2026 11:01:58 GMT-0500 (Central Daylight Time),523146.7999999523,1400,I,m,861,16,2,2278.099999964237,520868.6999999881,8103,NTS,C,12
4,10,test,3,C,circle.png,1,z,Tue Jun 16 2026 11:01:58 GMT-0500 (Central Daylight Time),525529.0999999642,1400,I,z,962,20,2,2378.099999964237,523151.0,8103,NTS,C,13
3,11,test,3,C,triangle.png,1,z,Tue Jun 16 2026 11:01:58 GMT-0500 (Central Daylight Time),528111.5,1200,I,z,1363,3,2,2578.5,525533.0,8103,NTS,C,14
6,12,test,3,C,circle.png,1,m,Tue Jun 16 2026 11:01:58 GMT-0500 (Central Daylight Time),530844.3999999762,1900,I,m,809,21,2,2728.800000011921,528115.5999999642,8103,NTS,C,15
1,13,test,3,C,circle.png,1,z,Tue Jun 16 2026 11:01:58 GMT-0500 (Central Daylight Time),532660.5999999642,1000,I,z,792,1,2,1811.3999999761581,530849.1999999881,8103,NTS,C,16
8,14,test,3,C,triangle.png,1,m,Tue Jun 16 2026 11:01:58 GMT-0500 (Central Daylight Time),535509.1999999881,1600,I,m,1215,23,2,2844.100000023842,532665.0999999642,8103,NTS,C,17
4,15,test,3,C,triangle.png,1,m,Tue Jun 16 2026 11:01:58 GMT-0500 (Central Daylight Time),537842.0,1500,I,m,811,12,2,2328.0,535514.0,8103,NTS,C,18
7,16,test,3,C,circle.png,1,m,Tue Jun 16 2026 11:01:58 GMT-0500 (Central Daylight Time),540674.5,2000,I,m,811,14,2,2827.7000000476837,537846.7999999523,8103,NTS,C,19
2,16,test,3,C,triangle.png,0,m,Tue Jun 16 2026 11:01:58 GMT-0500 (Central Daylight Time),543773.7999999523,2000,I,z,1061,2,2,3095.2999999523163,540678.5,8103,NTS,C,20
2,17,test,3,C,triangle.png,1,m,Tue Jun 16 2026 11:01:58 GMT-0500 (Central Daylight Time),546505.8999999762,2000,I,m,711,18,2,2728.0,543777.8999999762,8103,NTS,C,21
4,18,test,3,C,circle.png,1,z,Tue Jun 16 2026 11:01:58 GMT-0500 (Central Daylight Time),549005.0,1400,I,z,1075,4,2,2494.900000035763,546510.0999999642,8103,NTS,C,22
6,19,test,3,C,circle.png,1,m,Tue Jun 16 2026 11:01:58 GMT-0500 (Central Daylight Time),551787.8999999762,1900,I,m,851,5,2,2778.5,549009.3999999762,8103,NTS,C,23
1,20,test,3,C,triangle.png,1,z,Tue Jun 16 2026 11:01:58 GMT-0500 (Central Daylight Time),554919.8999999762,1900,I,z,1205,9,2,3128.0,551791.8999999762,8103,NTS,C,24
4,1,test,4,C,circle.png,1,z,Tue Jun 16 2026 11:01:58 GMT-0500 (Central Daylight Time),562069.0999999642,1400,I,z,1318,4,2,2746.899999976158,559322.1999999881,8103,NTS,C,1
4,2,test,4,C,circle.png,1,z,Tue Jun 16 2026 11:01:58 GMT-0500 (Central Daylight Time),564100.2999999523,1400,I,z,609,20,2,2025.8999999761581,562074.3999999762,8103,NTS,C,2
6,3,test,4,C,circle.png,1,m,Tue Jun 16 2026 11:01:58 GMT-0500 (Central Daylight Time),566566.2999999523,1900,I,m,548,5,2,2462.2999999523163,564104.0,8103,NTS,C,3
1,4,test,4,C,circle.png,1,z,Tue Jun 16 2026 11:01:58 GMT-0500 (Central Daylight Time),568216.0,1000,I,z,622,1,2,1644.800000011921,566571.1999999881,8103,NTS,C,4
7,5,test,4,C,circle.png,1,m,Tue Jun 16 2026 11:01:58 GMT-0500 (Central Daylight Time),570898.0999999642,2000,I,m,661,14,2,2678.0,568220.0999999642,8103,NTS,C,5
9,6,test,4,C,circle.png,1,m,Tue Jun 16 2026 11:01:58 GMT-0500 (Central Daylight Time),573014.1999999881,1500,I,m,590,8,2,2111.400000035763,570902.7999999523,8103,NTS,C,6
4,6,test,4,C,triangle.png,0,m,Tue Jun 16 2026 11:01:58 GMT-0500 (Central Daylight Time),575597.0999999642,1500,I,z,1050,12,2,2577.699999988079,573019.3999999762,8103,NTS,C,7
1,7,test,4,C,circle.png,1,z,Tue Jun 16 2026 11:01:58 GMT-0500 (Central Daylight Time),577997.1999999881,1000,I,z,1384,17,2,2396.100000023842,575601.0999999642,8103,NTS,C,8
3,8,test,4,C,triangle.png,1,z,Tue Jun 16 2026 11:01:58 GMT-0500 (Central Daylight Time),580162.0,1200,I,z,944,19,2,2160.900000035763,578001.0999999642,8103,NTS,C,9
1,9,test,4,C,triangle.png,1,z,Tue Jun 16 2026 11:01:58 GMT-0500 (Central Daylight Time),582761.2999999523,1900,I,z,680,9,2,2594.699999988079,580166.5999999642,8103,NTS,C,10
2,10,test,4,C,triangle.png,1,m,Tue Jun 16 2026 11:01:58 GMT-0500 (Central Daylight Time),585343.6999999881,2000,I,m,563,18,2,2578.0,582765.6999999881,8103,NTS,C,11
7,11,test,4,C,triangle.png,1,z,Tue Jun 16 2026 11:01:58 GMT-0500 (Central Daylight Time),587859.3999999762,1700,I,z,792,22,2,2508.5,585350.8999999762,8103,NTS,C,12
8,12,test,4,C,triangle.png,1,m,Tue Jun 16 2026 11:01:58 GMT-0500 (Central Daylight Time),590242.0999999642,1600,I,m,753,23,2,2378.5,587863.5999999642,8103,NTS,C,13
8,13,test,4,C,triangle.png,1,m,Tue Jun 16 2026 11:01:58 GMT-0500 (Central Daylight Time),592541.2999999523,1600,I,m,674,7,2,2294.899999976158,590246.3999999762,8103,NTS,C,14
6,14,test,4,C,circle.png,1,m,Tue Jun 16 2026 11:01:58 GMT-0500 (Central Daylight Time),595807.0999999642,1900,I,m,1339,21,2,3261.599999964237,592545.5,8103,NTS,C,15
8,15,test,4,C,circle.png,1,m,Tue Jun 16 2026 11:01:58 GMT-0500 (Central Daylight Time),597606.8999999762,1200,I,m,574,15,2,1794.5,595812.3999999762,8103,NTS,C,16
2,16,test,4,C,triangle.png,1,m,Tue Jun 16 2026 11:01:58 GMT-0500 (Central Daylight Time),600805.3999999762,2000,I,m,1182,2,2,3194.0,597611.3999999762,8103,NTS,C,17
9,17,test,4,C,circle.png,1,m,Tue Jun 16 2026 11:01:58 GMT-0500 (Central Daylight Time),603221.7999999523,1500,I,m,900,24,2,2412.399999976158,600809.3999999762,8103,NTS,C,18
9,18,test,4,C,triangle.png,1,z,Tue Jun 16 2026 11:01:58 GMT-0500 (Central Daylight Time),605837.2999999523,1400,I,z,1191,16,2,2611.2999999523163,603226.0,8103,NTS,C,19
3,19,test,4,C,triangle.png,1,z,Tue Jun 16 2026 11:01:58 GMT-0500 (Central Daylight Time),607837.7999999523,1200,I,z,767,3,2,1995.699999988079,605842.0999999642,8103,NTS,C,20
7,20,test,4,C,triangle.png,1,z,Tue Jun 16 2026 11:01:58 GMT-0500 (Central Daylight Time),610269.1999999881,1700,I,z,708,6,2,2427.199999988079,607842.0,8103,NTS,C,21
2,21,test,4,C,circle.png,1,z,Tue Jun 16 2026 11:01:58 GMT-0500 (Central Daylight Time),612935.1999999881,1700,I,z,947,10,2,2661.5,610273.6999999881,8103,NTS,C,22
3,22,test,4,C,circle.png,1,z,Tue Jun 16 2026 11:01:58 GMT-0500 (Central Daylight Time),615200.8999999762,1600,I,z,645,11,2,2261.699999988079,612939.1999999881,8103,NTS,C,23
6,22,test,4,C,triangle.png,0,m,Tue Jun 16 2026 11:01:58 GMT-0500 (Central Daylight Time),617734.6999999881,1000,I,None,1517,13,2,2529.800000011921,615204.8999999762,8103,NTS,C,24
