block_c,block_dur,condition,countdown,datetime,endtime,list,multichar_response,project,response,response_time,session_number,start_end,starttime,subject_id,task,task_vers,trial
,,,,Wed May 13 2026 17:41:51 GMT-0500 (Central Daylight Time),,,,I,space,621,1,,,8111,WL,A,
prac,,0,,Wed May 13 2026 17:41:51 GMT-0500 (Central Daylight Time),,NA,b,I,b,7996,1,,,8111,WL,A,1.0
prac,,0,,Wed May 13 2026 17:41:51 GMT-0500 (Central Daylight Time),,NA,bo,I,o,514,1,,,8111,WL,A,1.0
prac,,0,,Wed May 13 2026 17:41:51 GMT-0500 (Central Daylight Time),,NA,boo,I,o,135,1,,,8111,WL,A,1.0
prac,,0,,Wed May 13 2026 17:41:51 GMT-0500 (Central Daylight Time),,NA,boos,I,s,80,1,,,8111,WL,A,1.0
prac,,0,,Wed May 13 2026 17:41:51 GMT-0500 (Central Daylight Time),,NA,boost,I,t,180,1,,,8111,WL,A,1.0
prac,,0,,Wed May 13 2026 17:41:51 GMT-0500 (Central Daylight Time),,NA,boostenter,I,enter,4165,1,,,8111,WL,A,1.0
1,1.2990000247955322,learn,58700.99997520447,Wed May 13 2026 17:41:51 GMT-0500 (Central Daylight Time),144166.39999999106,A,b,I,b,1288,1,1299.0999999940395,142867.29999999702,8111,WL,A,1.0
1,1.749000072479248,learn,58250.99992752075,Wed May 13 2026 17:41:51 GMT-0500 (Central Daylight Time),144616.39999999106,A,bo,I,o,427,1,1749.0999999940395,142867.29999999702,8111,WL,A,1.0
1,1.8819999694824219,learn,58118.00003051758,Wed May 13 2026 17:41:51 GMT-0500 (Central Daylight Time),144749.59999999404,A,boo,I,o,115,1,1882.2999999970198,142867.29999999702,8111,WL,A,1.0
1,2.0820000171661377,learn,57917.99998283386,Wed May 13 2026 17:41:51 GMT-0500 (Central Daylight Time),144949.59999999404,A,book,I,k,189,1,2082.2999999970198,142867.29999999702,8111,WL,A,1.0
1,2.631999969482422,learn,57368.00003051758,Wed May 13 2026 17:41:51 GMT-0500 (Central Daylight Time),145499.59999999404,A,bookenter,I,enter,542,1,2632.2999999970198,142867.29999999702,8111,WL,A,1.0
1,3.748000144958496,learn,56251.999855041504,Wed May 13 2026 17:41:51 GMT-0500 (Central Daylight Time),146615.79999999702,A,f,I,f,1104,1,1115.7999999970198,145500.0,8111,WL,A,2.0
1,3.947999954223633,learn,56052.00004577637,Wed May 13 2026 17:41:51 GMT-0500 (Central Daylight Time),146815.69999998808,A,fk,I,k,188,1,1315.699999988079,145500.0,8111,WL,A,2.0
1,5.54800009727478,learn,54451.99990272522,Wed May 13 2026 17:41:51 GMT-0500 (Central Daylight Time),148415.39999999106,A,f,I,backspace,1579,1,2915.3999999910593,145500.0,8111,WL,A,2.0
1,5.930999994277954,learn,54069.000005722046,Wed May 13 2026 17:41:51 GMT-0500 (Central Daylight Time),148798.39999999106,A,fl,I,l,371,1,3298.3999999910593,145500.0,8111,WL,A,2.0
1,6.0980000495910645,learn,53901.999950408936,Wed May 13 2026 17:41:51 GMT-0500 (Central Daylight Time),148964.89999999106,A,flo,I,o,157,1,3464.8999999910593,145500.0,8111,WL,A,2.0
1,6.614000082015991,learn,53385.99991798401,Wed May 13 2026 17:41:51 GMT-0500 (Central Daylight Time),149481.19999998808,A,floq,I,q,510,1,3981.199999988079,145500.0,8111,WL,A,2.0
1,7.197000026702881,learn,52802.99997329712,Wed May 13 2026 17:41:51 GMT-0500 (Central Daylight Time),150064.39999999106,A,flo,I,backspace,578,1,4564.399999991059,145500.0,8111,WL,A,2.0
1,7.514000177383423,learn,52485.99982261658,Wed May 13 2026 17:41:51 GMT-0500 (Central Daylight Time),150381.09999999404,A,flow,I,w,300,1,4881.0999999940395,145500.0,8111,WL,A,2.0
1,7.647000074386597,learn,52352.9999256134,Wed May 13 2026 17:41:51 GMT-0500 (Central Daylight Time),150514.19999998808,A,flowe,I,e,125,1,5014.199999988079,145500.0,8111,WL,A,2.0
1,7.814000129699707,learn,52185.99987030029,Wed May 13 2026 17:41:51 GMT-0500 (Central Daylight Time),150681.09999999404,A,flower,I,r,154,1,5181.0999999940395,145500.0,8111,WL,A,2.0
1,8.913000106811523,learn,51086.99989318848,Wed May 13 2026 17:41:51 GMT-0500 (Central Daylight Time),151780.5,A,flowerenter,I,enter,1090,1,6280.5,145500.0,8111,WL,A,2.0
1,9.397000074386597,learn,50602.9999256134,Wed May 13 2026 17:41:51 GMT-0500 (Central Daylight Time),152264.09999999404,A,t,I,t,472,1,483.29999999701977,151780.79999999702,8111,WL,A,3.0
1,9.597000122070312,learn,50402.99987792969,Wed May 13 2026 17:41:51 GMT-0500 (Central Daylight Time),152464.0,A,tr,I,r,188,1,683.2000000029802,151780.79999999702,8111,WL,A,3.0
1,9.680000066757202,learn,50319.9999332428,Wed May 13 2026 17:41:51 GMT-0500 (Central Daylight Time),152547.0,A,tra,I,a,67,1,766.2000000029802,151780.79999999702,8111,WL,A,3.0
1,9.86300015449524,learn,50136.99984550476,Wed May 13 2026 17:41:51 GMT-0500 (Central Daylight Time),152730.69999998808,A,trai,I,i,168,1,949.8999999910593,151780.79999999702,8111,WL,A,3.0
1,9.963000059127808,learn,50036.99994087219,Wed May 13 2026 17:41:51 GMT-0500 (Central Daylight Time),152830.29999999702,A,train,I,n,88,1,1049.5,151780.79999999702,8111,WL,A,3.0
1,10.396000146865845,learn,49603.999853134155,Wed May 13 2026 17:41:51 GMT-0500 (Central Daylight Time),153263.69999998808,A,trainenter,I,enter,421,1,1482.8999999910593,151780.79999999702,8111,WL,A,3.0
1,10.946000099182129,learn,49053.99990081787,Wed May 13 2026 17:41:51 GMT-0500 (Central Daylight Time),153813.39999999106,A,h,I,h,532,1,549.2000000029802,153264.19999998808,8111,WL,A,4.0
1,11.029000043869019,learn,48970.99995613098,Wed May 13 2026 17:41:51 GMT-0500 (Central Daylight Time),153896.59999999404,A,ha,I,a,78,1,632.4000000059605,153264.19999998808,8111,WL,A,4.0
1,11.130000114440918,learn,48869.99988555908,Wed May 13 2026 17:41:51 GMT-0500 (Central Daylight Time),153997.0,A,har,I,r,82,1,732.8000000119209,153264.19999998808,8111,WL,A,4.0
1,11.861999988555908,learn,48138.00001144409,Wed May 13 2026 17:41:51 GMT-0500 (Central Daylight Time),154729.69999998808,A,harp,I,p,718,1,1465.5,153264.19999998808,8111,WL,A,4.0
1,12.26200008392334,learn,47737.99991607666,Wed May 13 2026 17:41:51 GMT-0500 (Central Daylight Time),155129.69999998808,A,harpenter,I,enter,393,1,1865.5,153264.19999998808,8111,WL,A,4.0
1,12.59500002861023,learn,47404.99997138977,Wed May 13 2026 17:41:51 GMT-0500 (Central Daylight Time),155462.89999999106,A,m,I,m,321,1,332.59999999403954,155130.29999999702,8111,WL,A,5.0
1,13.361999988555908,learn,46638.00001144409,Wed May 13 2026 17:41:51 GMT-0500 (Central Daylight Time),156229.09999999404,A,me,I,e,748,1,1098.7999999970198,155130.29999999702,8111,WL,A,5.0
1,13.478000164031982,learn,46521.99983596802,Wed May 13 2026 17:41:51 GMT-0500 (Central Daylight Time),156345.69999998808,A,mea,I,a,110,1,1215.3999999910593,155130.29999999702,8111,WL,A,5.0
1,13.874000072479248,learn,46125.99992752075,Wed May 13 2026 17:41:51 GMT-0500 (Central Daylight Time),156740.89999999106,A,mead,I,d,373,1,1610.5999999940395,155130.29999999702,8111,WL,A,5.0
1,14.078999996185303,learn,45921.0000038147,Wed May 13 2026 17:41:51 GMT-0500 (Central Daylight Time),156945.89999999106,A,meado,I,o,188,1,1815.5999999940395,155130.29999999702,8111,WL,A,5.0
1,14.229000091552734,learn,45770.999908447266,Wed May 13 2026 17:41:51 GMT-0500 (Central Daylight Time),157095.89999999106,A,meadow,I,w,129,1,1965.5999999940395,155130.29999999702,8111,WL,A,5.0
1,14.644999980926514,learn,45355.000019073486,Wed May 13 2026 17:41:51 GMT-0500 (Central Daylight Time),157512.39999999106,A,meadowenter,I,enter,411,1,2382.0999999940395,155130.29999999702,8111,WL,A,5.0
1,14.962000131607056,learn,45037.999868392944,Wed May 13 2026 17:41:51 GMT-0500 (Central Daylight Time),157828.89999999106,A,f,I,f,306,1,316.20000000298023,157512.69999998808,8111,WL,A,6.0
1,15.212000131607056,learn,44787.999868392944,Wed May 13 2026 17:41:51 GMT-0500 (Central Daylight Time),158078.79999999702,A,fl,I,l,238,1,566.1000000089407,157512.69999998808,8111,WL,A,6.0
1,15.378000020980835,learn,44621.999979019165,Wed May 13 2026 17:41:51 GMT-0500 (Central Daylight Time),158245.39999999106,A,flo,I,o,157,1,732.7000000029802,157512.69999998808,8111,WL,A,6.0
1,15.478000164031982,learn,44521.99983596802,Wed May 13 2026 17:41:51 GMT-0500 (Central Daylight Time),158345.39999999106,A,flow,I,w,79,1,832.7000000029802,157512.69999998808,8111,WL,A,6.0
1,15.545000076293945,learn,44454.999923706055,Wed May 13 2026 17:41:51 GMT-0500 (Central Daylight Time),158411.89999999106,A,flowe,I,e,51,1,899.2000000029802,157512.69999998808,8111,WL,A,6.0
1,15.644999980926514,learn,44355.000019073486,Wed May 13 2026 17:41:51 GMT-0500 (Central Daylight Time),158512.09999999404,A,flower,I,r,88,1,999.4000000059605,157512.69999998808,8111,WL,A,6.0
1,16.728000164031982,learn,43271.99983596802,Wed May 13 2026 17:41:51 GMT-0500 (Central Daylight Time),159595.0,A,flowerenter,I,enter,1075,1,2082.300000011921,157512.69999998808,8111,WL,A,6.0
1,17.776999950408936,learn,42223.000049591064,Wed May 13 2026 17:41:51 GMT-0500 (Central Daylight Time),160644.59999999404,A,c,I,c,1033,1,1049.0,159595.59999999404,8111,WL,A,7.0
1,17.927000045776367,learn,42072.99995422363,Wed May 13 2026 17:41:51 GMT-0500 (Central Daylight Time),160794.39999999106,A,ch,I,h,135,1,1198.7999999970198,159595.59999999404,8111,WL,A,7.0
1,18.094000101089478,learn,41905.99989891052,Wed May 13 2026 17:41:51 GMT-0500 (Central Daylight Time),160961.39999999106,A,chi,I,i,153,1,1365.7999999970198,159595.59999999404,8111,WL,A,7.0
1,18.294000148773193,learn,41705.99985122681,Wed May 13 2026 17:41:51 GMT-0500 (Central Daylight Time),161160.89999999106,A,chim,I,m,195,1,1565.2999999970198,159595.59999999404,8111,WL,A,7.0
1,19.427000045776367,learn,40572.99995422363,Wed May 13 2026 17:41:51 GMT-0500 (Central Daylight Time),162294.0,A,chimn,I,n,1115,1,2698.4000000059605,159595.59999999404,8111,WL,A,7.0
1,19.693000078201294,learn,40306.999921798706,Wed May 13 2026 17:41:51 GMT-0500 (Central Daylight Time),162560.59999999404,A,chimny,I,y,261,1,2965.0,159595.59999999404,8111,WL,A,7.0
1,20.743000030517578,learn,39256.99996948242,Wed May 13 2026 17:41:51 GMT-0500 (Central Daylight Time),163610.29999999702,A,chimn,I,backspace,1035,1,4014.7000000029802,159595.59999999404,8111,WL,A,7.0
1,21.009999990463257,learn,38990.00000953674,Wed May 13 2026 17:41:51 GMT-0500 (Central Daylight Time),163876.89999999106,A,chimne,I,e,249,1,4281.29999999702,159595.59999999404,8111,WL,A,7.0
1,21.193000078201294,learn,38806.999921798706,Wed May 13 2026 17:41:51 GMT-0500 (Central Daylight Time),164060.09999999404,A,chimney,I,y,175,1,4464.5,159595.59999999404,8111,WL,A,7.0
1,21.926000118255615,learn,38073.999881744385,Wed May 13 2026 17:41:51 GMT-0500 (Central Daylight Time),164793.0,A,chimneyenter,I,enter,727,1,5197.4000000059605,159595.59999999404,8111,WL,A,7.0
1,22.39300012588501,learn,37606.99987411499,Wed May 13 2026 17:41:51 GMT-0500 (Central Daylight Time),165259.89999999106,A,k,I,k,451,1,466.59999999403954,164793.29999999702,8111,WL,A,8.0
1,22.509000062942505,learn,37490.999937057495,Wed May 13 2026 17:41:51 GMT-0500 (Central Daylight Time),165376.29999999702,A,ke,I,e,96,1,583.0,164793.29999999702,8111,WL,A,8.0
1,22.70900011062622,learn,37290.99988937378,Wed May 13 2026 17:41:51 GMT-0500 (Central Daylight Time),165576.29999999702,A,ket,I,t,187,1,783.0,164793.29999999702,8111,WL,A,8.0
1,23.276000022888184,learn,36723.99997711182,Wed May 13 2026 17:41:51 GMT-0500 (Central Daylight Time),166142.79999999702,A,ke,I,backspace,547,1,1349.5,164793.29999999702,8111,WL,A,8.0
1,23.442000150680542,learn,36557.99984931946,Wed May 13 2026 17:41:51 GMT-0500 (Central Daylight Time),166309.39999999106,A,key,I,y,157,1,1516.0999999940395,164793.29999999702,8111,WL,A,8.0
1,25.54100012779236,learn,34458.99987220764,Wed May 13 2026 17:41:51 GMT-0500 (Central Daylight Time),168408.69999998808,A,keyenter,I,enter,2087,1,3615.3999999910593,164793.29999999702,8111,WL,A,8.0
1,26.192000150680542,learn,33807.99984931946,Wed May 13 2026 17:41:51 GMT-0500 (Central Daylight Time),169058.89999999106,A,c,I,c,635,1,649.7999999970198,168409.09999999404,8111,WL,A,9.0
1,26.341000080108643,learn,33658.99991989136,Wed May 13 2026 17:41:51 GMT-0500 (Central Daylight Time),169208.59999999404,A,ch,I,h,128,1,799.5,168409.09999999404,8111,WL,A,9.0
1,26.45800018310547,learn,33541.99981689453,Wed May 13 2026 17:41:51 GMT-0500 (Central Daylight Time),169325.19999998808,A,cha,I,a,99,1,916.0999999940395,168409.09999999404,8111,WL,A,9.0
1,26.575000047683716,learn,33424.999952316284,Wed May 13 2026 17:41:51 GMT-0500 (Central Daylight Time),169441.89999999106,A,chai,I,i,102,1,1032.7999999970198,168409.09999999404,8111,WL,A,9.0
1,26.674000024795532,learn,33325.99997520447,Wed May 13 2026 17:41:51 GMT-0500 (Central Daylight Time),169541.69999998808,A,chain,I,n,82,1,1132.5999999940395,168409.09999999404,8111,WL,A,9.0
1,28.54100012779236,learn,31458.99987220764,Wed May 13 2026 17:41:51 GMT-0500 (Central Daylight Time),171408.0,A,chainenter,I,enter,1846,1,2998.9000000059605,168409.09999999404,8111,WL,A,9.0
1,38.670000076293945,learn,21329.999923706055,Wed May 13 2026 17:41:51 GMT-0500 (Central Daylight Time),181537.79999999702,A,enter,I,enter,10124,1,10129.40000000596,171408.39999999106,8111,WL,A,10.0
1,60.01400017738342,learn,-14.000177383422852,Wed May 13 2026 17:41:51 GMT-0500 (Central Daylight Time),202881.29999999702,A,None,I,None,21338,1,21343.20000000298,181538.09999999404,8111,WL,A,11.0
2,1.2999999523162842,learn,58700.000047683716,Wed May 13 2026 17:41:51 GMT-0500 (Central Daylight Time),273242.39999999106,A,r,I,r,1286,1,1299.2999999970198,271943.09999999404,8111,WL,A,1.0
2,1.5,learn,58500.0,Wed May 13 2026 17:41:51 GMT-0500 (Central Daylight Time),273442.5,A,ra,I,a,185,1,1499.4000000059605,271943.09999999404,8111,WL,A,1.0
2,1.883000135421753,learn,58116.99986457825,Wed May 13 2026 17:41:51 GMT-0500 (Central Daylight Time),273825.89999999106,A,rat,I,t,362,1,1882.7999999970198,271943.09999999404,8111,WL,A,1.0
2,2.049999952316284,learn,57950.000047683716,Wed May 13 2026 17:41:51 GMT-0500 (Central Daylight Time),273992.5,A,ratl,I,l,154,1,2049.4000000059605,271943.09999999404,8111,WL,A,1.0
2,2.183000087738037,learn,57816.99991226196,Wed May 13 2026 17:41:51 GMT-0500 (Central Daylight Time),274125.6999999881,A,ratle,I,e,123,1,2182.5999999940395,271943.09999999404,8111,WL,A,1.0
2,4.449000120162964,learn,55550.999879837036,Wed May 13 2026 17:41:51 GMT-0500 (Central Daylight Time),276392.0,A,ratl,I,backspace,2254,1,4448.9000000059605,271943.09999999404,8111,WL,A,1.0
2,4.598999977111816,learn,55401.00002288818,Wed May 13 2026 17:41:51 GMT-0500 (Central Daylight Time),276541.799999997,A,rat,I,backspace,140,1,4598.70000000298,271943.09999999404,8111,WL,A,1.0
2,5.115000009536743,learn,54884.99999046326,Wed May 13 2026 17:41:51 GMT-0500 (Central Daylight Time),277058.1999999881,A,ratt,I,t,510,1,5115.0999999940395,271943.09999999404,8111,WL,A,1.0
2,5.914999961853027,learn,54085.00003814697,Wed May 13 2026 17:41:51 GMT-0500 (Central Daylight Time),277858.0,A,rattl,I,l,785,1,5914.9000000059605,271943.09999999404,8111,WL,A,1.0
2,6.0320000648498535,learn,53967.99993515015,Wed May 13 2026 17:41:51 GMT-0500 (Central Daylight Time),277974.5,A,rattle,I,e,106,1,6031.4000000059605,271943.09999999404,8111,WL,A,1.0
2,6.332000017166138,learn,53667.99998283386,Wed May 13 2026 17:41:51 GMT-0500 (Central Daylight Time),278274.5,A,rattleenter,I,enter,286,1,6331.4000000059605,271943.09999999404,8111,WL,A,1.0
2,6.648000001907349,learn,53351.99999809265,Wed May 13 2026 17:41:51 GMT-0500 (Central Daylight Time),278591.09999999404,A,g,I,g,304,1,316.20000000298023,278274.89999999106,8111,WL,A,2.0
2,6.881999969482422,learn,53118.00003051758,Wed May 13 2026 17:41:51 GMT-0500 (Central Daylight Time),278824.39999999106,A,go,I,o,220,1,549.5,278274.89999999106,8111,WL,A,2.0
2,7.04800009727478,learn,52951.99990272522,Wed May 13 2026 17:41:51 GMT-0500 (Central Daylight Time),278991.1999999881,A,gol,I,l,147,1,716.2999999970198,278274.89999999106,8111,WL,A,2.0
2,7.180999994277954,learn,52819.000005722046,Wed May 13 2026 17:41:51 GMT-0500 (Central Daylight Time),279124.1999999881,A,gold,I,d,124,1,849.2999999970198,278274.89999999106,8111,WL,A,2.0
2,7.531000137329102,learn,52468.9998626709,Wed May 13 2026 17:41:51 GMT-0500 (Central Daylight Time),279474.1999999881,A,goldenter,I,enter,335,1,1199.2999999970198,278274.89999999106,8111,WL,A,2.0
2,8.081000089645386,learn,51918.999910354614,Wed May 13 2026 17:41:51 GMT-0500 (Central Daylight Time),280023.89999999106,A,b,I,b,529,1,549.3999999910593,279474.5,8111,WL,A,3.0
2,8.21399998664856,learn,51786.00001335144,Wed May 13 2026 17:41:51 GMT-0500 (Central Daylight Time),280157.1999999881,A,bo,I,o,123,1,682.6999999880791,279474.5,8111,WL,A,3.0
2,8.332000017166138,learn,51667.99998283386,Wed May 13 2026 17:41:51 GMT-0500 (Central Daylight Time),280274.89999999106,A,boo,I,o,110,1,800.3999999910593,279474.5,8111,WL,A,3.0
2,8.513999938964844,learn,51486.000061035156,Wed May 13 2026 17:41:51 GMT-0500 (Central Daylight Time),280456.89999999106,A,book,I,k,177,1,982.3999999910593,279474.5,8111,WL,A,3.0
2,8.897000074386597,learn,51102.9999256134,Wed May 13 2026 17:41:51 GMT-0500 (Central Daylight Time),280840.1999999881,A,bookenter,I,enter,363,1,1365.699999988079,279474.5,8111,WL,A,3.0
2,9.664000034332275,learn,50335.999965667725,Wed May 13 2026 17:41:51 GMT-0500 (Central Daylight Time),281606.6999999881,A,b,I,b,748,1,766.0999999940395,280840.59999999404,8111,WL,A,4.0
2,9.930999994277954,learn,50069.000005722046,Wed May 13 2026 17:41:51 GMT-0500 (Central Daylight Time),281873.5,A,bu,I,u,246,1,1032.9000000059605,280840.59999999404,8111,WL,A,4.0
2,10.097000122070312,learn,49902.99987792969,Wed May 13 2026 17:41:51 GMT-0500 (Central Daylight Time),282039.799999997,A,but,I,t,145,1,1199.2000000029802,280840.59999999404,8111,WL,A,4.0
2,10.21399998664856,learn,49786.00001335144,Wed May 13 2026 17:41:51 GMT-0500 (Central Daylight Time),282156.6999999881,A,butt,I,t,109,1,1316.0999999940395,280840.59999999404,8111,WL,A,4.0
2,10.380000114440918,learn,49619.99988555908,Wed May 13 2026 17:41:51 GMT-0500 (Central Daylight Time),282323.0,A,butto,I,o,159,1,1482.4000000059605,280840.59999999404,8111,WL,A,4.0
2,10.513000011444092,learn,49486.99998855591,Wed May 13 2026 17:41:51 GMT-0500 (Central Daylight Time),282456.39999999106,A,button,I,n,129,1,1615.7999999970198,280840.59999999404,8111,WL,A,4.0
2,10.897000074386597,learn,49102.9999256134,Wed May 13 2026 17:41:51 GMT-0500 (Central Daylight Time),282839.5,A,buttonenter,I,enter,363,1,1998.9000000059605,280840.59999999404,8111,WL,A,4.0
2,13.479000091552734,learn,46520.999908447266,Wed May 13 2026 17:41:51 GMT-0500 (Central Daylight Time),285422.09999999404,A,b,I,b,2564,1,2582.2000000029802,282839.89999999106,8111,WL,A,5.0
2,14.128999948501587,learn,45871.00005149841,Wed May 13 2026 17:41:51 GMT-0500 (Central Daylight Time),286071.6999999881,A,bo,I,o,637,1,3231.7999999970198,282839.89999999106,8111,WL,A,5.0
2,14.26200008392334,learn,45737.99991607666,Wed May 13 2026 17:41:51 GMT-0500 (Central Daylight Time),286205.0,A,boo,I,o,123,1,3365.1000000089407,282839.89999999106,8111,WL,A,5.0
2,14.444999933242798,learn,45555.0000667572,Wed May 13 2026 17:41:51 GMT-0500 (Central Daylight Time),286388.09999999404,A,book,I,k,174,1,3548.2000000029802,282839.89999999106,8111,WL,A,5.0
2,14.84500002861023,learn,45154.99997138977,Wed May 13 2026 17:41:51 GMT-0500 (Central Daylight Time),286788.09999999404,A,bookenter,I,enter,382,1,3948.2000000029802,282839.89999999106,8111,WL,A,5.0
2,15.229000091552734,learn,44770.999908447266,Wed May 13 2026 17:41:51 GMT-0500 (Central Daylight Time),287171.39999999106,A,k,I,k,367,1,383.0,286788.39999999106,8111,WL,A,6.0
2,15.32800006866455,learn,44671.99993133545,Wed May 13 2026 17:41:51 GMT-0500 (Central Daylight Time),287271.299999997,A,ke,I,e,80,1,482.90000000596046,286788.39999999106,8111,WL,A,6.0
2,15.562000036239624,learn,44437.999963760376,Wed May 13 2026 17:41:51 GMT-0500 (Central Daylight Time),287504.799999997,A,key,I,y,212,1,716.4000000059605,286788.39999999106,8111,WL,A,6.0
2,15.84500002861023,learn,44154.99997138977,Wed May 13 2026 17:41:51 GMT-0500 (Central Daylight Time),287788.1999999881,A,keyenter,I,enter,275,1,999.7999999970198,286788.39999999106,8111,WL,A,6.0
2,16.212000131607056,learn,43787.999868392944,Wed May 13 2026 17:41:51 GMT-0500 (Central Daylight Time),288154.59999999404,A,m,I,m,359,1,366.09999999403954,287788.5,8111,WL,A,7.0
2,16.661999940872192,learn,43338.00005912781,Wed May 13 2026 17:41:51 GMT-0500 (Central Daylight Time),288604.5,A,,I,backspace,433,1,816.0,287788.5,8111,WL,A,7.0
2,17.795000076293945,learn,42204.999923706055,Wed May 13 2026 17:41:51 GMT-0500 (Central Daylight Time),289737.39999999106,A,m,I,m,1127,1,1948.8999999910593,287788.5,8111,WL,A,7.0
2,18.210999965667725,learn,41789.000034332275,Wed May 13 2026 17:41:51 GMT-0500 (Central Daylight Time),290153.799999997,A,me,I,e,402,1,2365.2999999970198,287788.5,8111,WL,A,7.0
2,18.344000101089478,learn,41655.99989891052,Wed May 13 2026 17:41:51 GMT-0500 (Central Daylight Time),290287.299999997,A,met,I,t,113,1,2498.7999999970198,287788.5,8111,WL,A,7.0
2,18.49399995803833,learn,41506.00004196167,Wed May 13 2026 17:41:51 GMT-0500 (Central Daylight Time),290437.09999999404,A,meta,I,a,132,1,2648.5999999940395,287788.5,8111,WL,A,7.0
2,19.061000108718872,learn,40938.99989128113,Wed May 13 2026 17:41:51 GMT-0500 (Central Daylight Time),291003.59999999404,A,metal,I,l,558,1,3215.0999999940395,287788.5,8111,WL,A,7.0
2,19.51099991798401,learn,40489.00008201599,Wed May 13 2026 17:41:51 GMT-0500 (Central Daylight Time),291453.6999999881,A,metalenter,I,enter,432,1,3665.199999988079,287788.5,8111,WL,A,7.0
2,19.76099991798401,learn,40239.00008201599,Wed May 13 2026 17:41:51 GMT-0500 (Central Daylight Time),291704.0,A,t,I,t,246,1,250.0,291454.0,8111,WL,A,8.0
2,20.361999988555908,learn,39638.00001144409,Wed May 13 2026 17:41:51 GMT-0500 (Central Daylight Time),292304.5,A,tr,I,r,596,1,850.5,291454.0,8111,WL,A,8.0
2,20.526999950408936,learn,39473.000049591064,Wed May 13 2026 17:41:51 GMT-0500 (Central Daylight Time),292470.0,A,tra,I,a,155,1,1016.0,291454.0,8111,WL,A,8.0
2,20.792999982833862,learn,39207.00001716614,Wed May 13 2026 17:41:51 GMT-0500 (Central Daylight Time),292736.299999997,A,trau,I,u,245,1,1282.2999999970198,291454.0,8111,WL,A,8.0
2,20.927000045776367,learn,39072.99995422363,Wed May 13 2026 17:41:51 GMT-0500 (Central Daylight Time),292869.6999999881,A,traun,I,n,115,1,1415.699999988079,291454.0,8111,WL,A,8.0
2,21.32699990272522,learn,38673.00009727478,Wed May 13 2026 17:41:51 GMT-0500 (Central Daylight Time),293269.6999999881,A,trau,I,backspace,389,1,1815.699999988079,291454.0,8111,WL,A,8.0
2,21.460000038146973,learn,38539.99996185303,Wed May 13 2026 17:41:51 GMT-0500 (Central Daylight Time),293402.59999999404,A,tra,I,backspace,126,1,1948.5999999940395,291454.0,8111,WL,A,8.0
2,22.276000022888184,learn,37723.99997711182,Wed May 13 2026 17:41:51 GMT-0500 (Central Daylight Time),294219.5,A,trai,I,i,801,1,2765.5,291454.0,8111,WL,A,8.0
2,22.39300012588501,learn,37606.99987411499,Wed May 13 2026 17:41:51 GMT-0500 (Central Daylight Time),294336.09999999404,A,train,I,n,105,1,2882.0999999940395,291454.0,8111,WL,A,8.0
2,22.80999994277954,learn,37190.00005722046,Wed May 13 2026 17:41:51 GMT-0500 (Central Daylight Time),294752.6999999881,A,trainenter,I,enter,396,1,3298.699999988079,291454.0,8111,WL,A,8.0
2,23.125999927520752,learn,36874.00007247925,Wed May 13 2026 17:41:51 GMT-0500 (Central Daylight Time),295069.1999999881,A,h,I,h,308,1,316.19999998807907,294753.0,8111,WL,A,9.0
2,23.29200005531311,learn,36707.99994468689,Wed May 13 2026 17:41:51 GMT-0500 (Central Daylight Time),295235.59999999404,A,ha,I,a,158,1,482.59999999403954,294753.0,8111,WL,A,9.0
2,23.408999919891357,learn,36591.00008010864,Wed May 13 2026 17:41:51 GMT-0500 (Central Daylight Time),295352.09999999404,A,har,I,r,112,1,599.0999999940395,294753.0,8111,WL,A,9.0
2,24.191999912261963,learn,35808.00008773804,Wed May 13 2026 17:41:51 GMT-0500 (Central Daylight Time),296135.59999999404,A,harp,I,p,764,1,1382.5999999940395,294753.0,8111,WL,A,9.0
2,24.759000062942505,learn,35240.999937057495,Wed May 13 2026 17:41:51 GMT-0500 (Central Daylight Time),296702.0,A,harpenter,I,enter,556,1,1949.0,294753.0,8111,WL,A,9.0
2,25.125,learn,34875.0,Wed May 13 2026 17:41:51 GMT-0500 (Central Daylight Time),297068.59999999404,A,a,I,a,349,1,366.20000000298023,296702.39999999106,8111,WL,A,10.0
2,25.30900001525879,learn,34690.99998474121,Wed May 13 2026 17:41:51 GMT-0500 (Central Daylight Time),297252.09999999404,A,ap,I,p,168,1,549.7000000029802,296702.39999999106,8111,WL,A,10.0
2,25.424999952316284,learn,34575.000047683716,Wed May 13 2026 17:41:51 GMT-0500 (Central Daylight Time),297368.39999999106,A,app,I,p,111,1,666.0,296702.39999999106,8111,WL,A,10.0
2,25.625,learn,34375.0,Wed May 13 2026 17:41:51 GMT-0500 (Central Daylight Time),297568.39999999106,A,appl,I,l,179,1,866.0,296702.39999999106,8111,WL,A,10.0
2,25.742000102996826,learn,34257.999897003174,Wed May 13 2026 17:41:51 GMT-0500 (Central Daylight Time),297685.0,A,apple,I,e,99,1,982.6000000089407,296702.39999999106,8111,WL,A,10.0
2,26.16700005531311,learn,33832.99994468689,Wed May 13 2026 17:41:51 GMT-0500 (Central Daylight Time),298110.5,A,appleenter,I,enter,420,1,1408.1000000089407,296702.39999999106,8111,WL,A,10.0
2,28.20799994468689,learn,31792.00005531311,Wed May 13 2026 17:41:51 GMT-0500 (Central Daylight Time),300150.89999999106,A,m,I,m,2020,1,2040.0,298110.89999999106,8111,WL,A,11.0
2,28.308000087738037,learn,31691.999912261963,Wed May 13 2026 17:41:51 GMT-0500 (Central Daylight Time),300250.799999997,A,me,I,e,85,1,2139.9000000059605,298110.89999999106,8111,WL,A,11.0
2,28.35800004005432,learn,31641.99995994568,Wed May 13 2026 17:41:51 GMT-0500 (Central Daylight Time),300300.6999999881,A,mea,I,a,33,1,2189.7999999970198,298110.89999999106,8111,WL,A,11.0
2,28.60800004005432,learn,31391.99995994568,Wed May 13 2026 17:41:51 GMT-0500 (Central Daylight Time),300551.0,A,mead,I,d,239,1,2440.1000000089407,298110.89999999106,8111,WL,A,11.0
2,29.04100012779236,learn,30958.99987220764,Wed May 13 2026 17:41:51 GMT-0500 (Central Daylight Time),300984.299999997,A,meado,I,o,412,1,2873.4000000059605,298110.89999999106,8111,WL,A,11.0
2,29.124000072479248,learn,30875.999927520752,Wed May 13 2026 17:41:51 GMT-0500 (Central Daylight Time),301067.39999999106,A,meadow,I,w,75,1,2956.5,298110.89999999106,8111,WL,A,11.0
2,30.2739999294281,learn,29726.0000705719,Wed May 13 2026 17:41:51 GMT-0500 (Central Daylight Time),302216.6999999881,A,meadowenter,I,enter,1144,1,4105.79999999702,298110.89999999106,8111,WL,A,11.0
2,32.956000089645386,learn,27043.999910354614,Wed May 13 2026 17:41:51 GMT-0500 (Central Daylight Time),304899.39999999106,A,m,I,m,2668,1,2682.5,302216.89999999106,8111,WL,A,12.0
2,33.055999994277954,learn,26944.000005722046,Wed May 13 2026 17:41:51 GMT-0500 (Central Daylight Time),304999.39999999106,A,me,I,e,88,1,2782.5,302216.89999999106,8111,WL,A,12.0
2,33.223000049591064,learn,26776.999950408936,Wed May 13 2026 17:41:51 GMT-0500 (Central Daylight Time),305166.1999999881,A,met,I,t,157,1,2949.2999999970198,302216.89999999106,8111,WL,A,12.0
2,33.33899998664856,learn,26661.00001335144,Wed May 13 2026 17:41:51 GMT-0500 (Central Daylight Time),305282.59999999404,A,meta,I,a,102,1,3065.7000000029802,302216.89999999106,8111,WL,A,12.0
2,33.456000089645386,learn,26543.999910354614,Wed May 13 2026 17:41:51 GMT-0500 (Central Daylight Time),305399.0,A,metal,I,l,105,1,3182.1000000089407,302216.89999999106,8111,WL,A,12.0
2,34.85599994659424,learn,25144.00005340576,Wed May 13 2026 17:41:51 GMT-0500 (Central Daylight Time),306798.89999999106,A,metalenter,I,enter,1382,1,4582.0,302216.89999999106,8111,WL,A,12.0
2,37.6710000038147,learn,22328.999996185303,Wed May 13 2026 17:41:51 GMT-0500 (Central Daylight Time),309614.59999999404,A,r,I,r,2804,1,2815.4000000059605,306799.1999999881,8111,WL,A,13.0
2,37.789000034332275,learn,22210.999965667725,Wed May 13 2026 17:41:51 GMT-0500 (Central Daylight Time),309731.6999999881,A,ra,I,a,102,1,2932.5,306799.1999999881,8111,WL,A,13.0
2,38.00500011444092,learn,21994.999885559082,Wed May 13 2026 17:41:51 GMT-0500 (Central Daylight Time),309947.799999997,A,rat,I,t,208,1,3148.6000000089407,306799.1999999881,8111,WL,A,13.0
2,38.187999963760376,learn,21812.000036239624,Wed May 13 2026 17:41:51 GMT-0500 (Central Daylight Time),310131.0,A,ratt,I,t,168,1,3331.800000011921,306799.1999999881,8111,WL,A,13.0
2,38.355000019073486,learn,21644.999980926514,Wed May 13 2026 17:41:51 GMT-0500 (Central Daylight Time),310297.6999999881,A,rattl,I,l,161,1,3498.5,306799.1999999881,8111,WL,A,13.0
2,38.48799991607666,learn,21512.00008392334,Wed May 13 2026 17:41:51 GMT-0500 (Central Daylight Time),310431.09999999404,A,rattle,I,e,115,1,3631.9000000059605,306799.1999999881,8111,WL,A,13.0
2,38.80399990081787,learn,21196.00009918213,Wed May 13 2026 17:41:51 GMT-0500 (Central Daylight Time),310747.59999999404,A,rattleenter,I,enter,308,1,3948.4000000059605,306799.1999999881,8111,WL,A,13.0
2,43.37000012397766,learn,16629.99987602234,Wed May 13 2026 17:41:51 GMT-0500 (Central Daylight Time),315312.799999997,A,t,I,t,4561,1,4564.9000000059605,310747.89999999106,8111,WL,A,14.0
2,43.55299997329712,learn,16447.00002670288,Wed May 13 2026 17:41:51 GMT-0500 (Central Daylight Time),315496.09999999404,A,tr,I,r,172,1,4748.20000000298,310747.89999999106,8111,WL,A,14.0
2,43.670000076293945,learn,16329.999923706055,Wed May 13 2026 17:41:51 GMT-0500 (Central Daylight Time),315612.799999997,A,tra,I,a,100,1,4864.9000000059605,310747.89999999106,8111,WL,A,14.0
2,43.87000012397766,learn,16129.999876022339,Wed May 13 2026 17:41:51 GMT-0500 (Central Daylight Time),315812.59999999404,A,trai,I,i,190,1,5064.70000000298,310747.89999999106,8111,WL,A,14.0
2,43.986000061035156,learn,16013.999938964844,Wed May 13 2026 17:41:51 GMT-0500 (Central Daylight Time),315929.0,A,train,I,n,104,1,5181.100000008941,310747.89999999106,8111,WL,A,14.0
2,44.36899995803833,learn,15631.00004196167,Wed May 13 2026 17:41:51 GMT-0500 (Central Daylight Time),316312.5,A,trainenter,I,enter,364,1,5564.600000008941,310747.89999999106,8111,WL,A,14.0
2,49.08500003814697,learn,10914.999961853027,Wed May 13 2026 17:41:51 GMT-0500 (Central Daylight Time),321027.799999997,A,k,I,k,4708,1,4715.0,316312.799999997,8111,WL,A,15.0
2,49.18499994277954,learn,10815.000057220459,Wed May 13 2026 17:41:51 GMT-0500 (Central Daylight Time),321127.799999997,A,ke,I,e,79,1,4815.0,316312.799999997,8111,WL,A,15.0
2,49.401999950408936,learn,10598.000049591064,Wed May 13 2026 17:41:51 GMT-0500 (Central Daylight Time),321344.89999999106,A,key,I,y,212,1,5032.0999999940395,316312.799999997,8111,WL,A,15.0
2,49.74600005149841,learn,10253.999948501587,Wed May 13 2026 17:41:51 GMT-0500 (Central Daylight Time),321689.0,A,keyenter,I,enter,340,1,5376.20000000298,316312.799999997,8111,WL,A,15.0
3,1.3410000801086426,learn,58658.99991989136,Wed May 13 2026 17:41:51 GMT-0500 (Central Daylight Time),392363.6999999881,A,b,I,b,1338,1,1341.2999999970198,391022.39999999106,8111,WL,A,1.0
3,1.499000072479248,learn,58500.99992752075,Wed May 13 2026 17:41:51 GMT-0500 (Central Daylight Time),392521.5,A,bo,I,o,151,1,1499.1000000089407,391022.39999999106,8111,WL,A,1.0
3,1.6489999294281006,learn,58351.0000705719,Wed May 13 2026 17:41:51 GMT-0500 (Central Daylight Time),392671.6999999881,A,boo,I,o,129,1,1649.2999999970198,391022.39999999106,8111,WL,A,1.0
3,1.815999984741211,learn,58184.00001525879,Wed May 13 2026 17:41:51 GMT-0500 (Central Daylight Time),392838.5,A,book,I,k,156,1,1816.1000000089407,391022.39999999106,8111,WL,A,1.0
3,2.8489999771118164,learn,57151.00002288818,Wed May 13 2026 17:41:51 GMT-0500 (Central Daylight Time),393871.799999997,A,bookenter,I,enter,1022,1,2849.4000000059605,391022.39999999106,8111,WL,A,1.0
3,4.33299994468689,learn,55667.00005531311,Wed May 13 2026 17:41:51 GMT-0500 (Central Daylight Time),395355.6999999881,A,m,I,m,1475,1,1483.699999988079,393872.0,8111,WL,A,2.0
3,4.4649999141693115,learn,55535.00008583069,Wed May 13 2026 17:41:51 GMT-0500 (Central Daylight Time),395487.6999999881,A,me,I,e,119,1,1615.699999988079,393872.0,8111,WL,A,2.0
3,4.615000009536743,learn,55384.99999046326,Wed May 13 2026 17:41:51 GMT-0500 (Central Daylight Time),395637.6999999881,A,met,I,t,131,1,1765.699999988079,393872.0,8111,WL,A,2.0
3,4.732000112533569,learn,55267.99988746643,Wed May 13 2026 17:41:51 GMT-0500 (Central Daylight Time),395754.09999999404,A,meta,I,a,109,1,1882.0999999940395,393872.0,8111,WL,A,2.0
3,5.431999921798706,learn,54568.000078201294,Wed May 13 2026 17:41:51 GMT-0500 (Central Daylight Time),396454.0,A,metal,I,l,682,1,2582.0,393872.0,8111,WL,A,2.0
3,5.79800009727478,learn,54201.99990272522,Wed May 13 2026 17:41:51 GMT-0500 (Central Daylight Time),396820.39999999106,A,metalenter,I,enter,349,1,2948.3999999910593,393872.0,8111,WL,A,2.0
3,6.2149999141693115,learn,53785.00008583069,Wed May 13 2026 17:41:51 GMT-0500 (Central Daylight Time),397237.39999999106,A,t,I,t,408,1,416.59999999403954,396820.799999997,8111,WL,A,3.0
3,6.414999961853027,learn,53585.00003814697,Wed May 13 2026 17:41:51 GMT-0500 (Central Daylight Time),397437.09999999404,A,tr,I,r,190,1,616.2999999970198,396820.799999997,8111,WL,A,3.0
3,6.515000104904175,learn,53484.999895095825,Wed May 13 2026 17:41:51 GMT-0500 (Central Daylight Time),397536.89999999106,A,tra,I,a,94,1,716.0999999940395,396820.799999997,8111,WL,A,3.0
3,6.697999954223633,learn,53302.00004577637,Wed May 13 2026 17:41:51 GMT-0500 (Central Daylight Time),397720.1999999881,A,trai,I,i,179,1,899.3999999910593,396820.799999997,8111,WL,A,3.0
3,6.79800009727478,learn,53201.99990272522,Wed May 13 2026 17:41:51 GMT-0500 (Central Daylight Time),397820.39999999106,A,train,I,n,83,1,999.5999999940395,396820.799999997,8111,WL,A,3.0
3,7.197999954223633,learn,52802.00004577637,Wed May 13 2026 17:41:51 GMT-0500 (Central Daylight Time),398220.1999999881,A,trainenter,I,enter,383,1,1399.3999999910593,396820.799999997,8111,WL,A,3.0
3,7.581000089645386,learn,52418.999910354614,Wed May 13 2026 17:41:51 GMT-0500 (Central Daylight Time),398603.1999999881,A,h,I,h,375,1,382.69999998807907,398220.5,8111,WL,A,4.0
3,7.680999994277954,learn,52319.000005722046,Wed May 13 2026 17:41:51 GMT-0500 (Central Daylight Time),398703.39999999106,A,ha,I,a,88,1,482.8999999910593,398220.5,8111,WL,A,4.0
3,7.814000129699707,learn,52185.99987030029,Wed May 13 2026 17:41:51 GMT-0500 (Central Daylight Time),398836.59999999404,A,har,I,r,117,1,616.0999999940395,398220.5,8111,WL,A,4.0
3,8.331000089645386,learn,51668.999910354614,Wed May 13 2026 17:41:51 GMT-0500 (Central Daylight Time),399353.0,A,harp,I,p,512,1,1132.5,398220.5,8111,WL,A,4.0
3,8.831000089645386,learn,51168.999910354614,Wed May 13 2026 17:41:51 GMT-0500 (Central Daylight Time),399853.09999999404,A,harpenter,I,enter,482,1,1632.5999999940395,398220.5,8111,WL,A,4.0
3,8.996999979019165,learn,51003.000020980835,Wed May 13 2026 17:41:51 GMT-0500 (Central Daylight Time),400019.59999999404,A,r,I,r,158,1,166.20000000298023,399853.39999999106,8111,WL,A,5.0
3,9.114000082015991,learn,50885.99991798401,Wed May 13 2026 17:41:51 GMT-0500 (Central Daylight Time),400136.09999999404,A,ra,I,a,96,1,282.70000000298023,399853.39999999106,8111,WL,A,5.0
3,9.314000129699707,learn,50685.99987030029,Wed May 13 2026 17:41:51 GMT-0500 (Central Daylight Time),400336.1999999881,A,rat,I,t,188,1,482.79999999701977,399853.39999999106,8111,WL,A,5.0
3,9.480000019073486,learn,50519.999980926514,Wed May 13 2026 17:41:51 GMT-0500 (Central Daylight Time),400502.799999997,A,ratt,I,t,147,1,649.4000000059605,399853.39999999106,8111,WL,A,5.0
3,9.647000074386597,learn,50352.9999256134,Wed May 13 2026 17:41:51 GMT-0500 (Central Daylight Time),400669.5,A,rattl,I,l,150,1,816.1000000089407,399853.39999999106,8111,WL,A,5.0
3,9.847000122070312,learn,50152.99987792969,Wed May 13 2026 17:41:51 GMT-0500 (Central Daylight Time),400869.5,A,rattle,I,e,182,1,1016.1000000089407,399853.39999999106,8111,WL,A,5.0
3,9.996999979019165,learn,50003.000020980835,Wed May 13 2026 17:41:51 GMT-0500 (Central Daylight Time),401019.1999999881,A,rattleenter,I,enter,143,1,1165.7999999970198,399853.39999999106,8111,WL,A,5.0
3,10.312999963760376,learn,49687.000036239624,Wed May 13 2026 17:41:51 GMT-0500 (Central Daylight Time),401335.89999999106,A,g,I,g,305,1,316.3999999910593,401019.5,8111,WL,A,6.0
3,10.46399998664856,learn,49536.00001335144,Wed May 13 2026 17:41:51 GMT-0500 (Central Daylight Time),401486.09999999404,A,go,I,o,131,1,466.59999999403954,401019.5,8111,WL,A,6.0
3,10.630000114440918,learn,49369.99988555908,Wed May 13 2026 17:41:51 GMT-0500 (Central Daylight Time),401652.39999999106,A,gol,I,l,150,1,632.8999999910593,401019.5,8111,WL,A,6.0
3,10.77999997138977,learn,49220.00002861023,Wed May 13 2026 17:41:51 GMT-0500 (Central Daylight Time),401802.5,A,gold,I,d,144,1,783.0,401019.5,8111,WL,A,6.0
3,11.11299991607666,learn,48887.00008392334,Wed May 13 2026 17:41:51 GMT-0500 (Central Daylight Time),402135.59999999404,A,goldenter,I,enter,320,1,1116.0999999940395,401019.5,8111,WL,A,6.0
3,16.278000116348267,learn,43721.99988365173,Wed May 13 2026 17:41:51 GMT-0500 (Central Daylight Time),407300.799999997,A,f,I,f,5148,1,5164.79999999702,402136.0,8111,WL,A,7.0
3,16.394999980926514,learn,43605.000019073486,Wed May 13 2026 17:41:51 GMT-0500 (Central Daylight Time),407417.09999999404,A,fi,I,i,110,1,5281.0999999940395,402136.0,8111,WL,A,7.0
3,16.49500012397766,learn,43504.99987602234,Wed May 13 2026 17:41:51 GMT-0500 (Central Daylight Time),407517.299999997,A,fin,I,n,91,1,5381.29999999702,402136.0,8111,WL,A,7.0
3,16.66100001335144,learn,43338.99998664856,Wed May 13 2026 17:41:51 GMT-0500 (Central Daylight Time),407683.799999997,A,fing,I,g,158,1,5547.79999999702,402136.0,8111,WL,A,7.0
3,16.944999933242798,learn,43055.0000667572,Wed May 13 2026 17:41:51 GMT-0500 (Central Daylight Time),407967.09999999404,A,finge,I,e,264,1,5831.0999999940395,402136.0,8111,WL,A,7.0
3,17.01200008392334,learn,42987.99991607666,Wed May 13 2026 17:41:51 GMT-0500 (Central Daylight Time),408033.89999999106,A,finger,I,r,53,1,5897.899999991059,402136.0,8111,WL,A,7.0
3,17.361000061035156,learn,42638.999938964844,Wed May 13 2026 17:41:51 GMT-0500 (Central Daylight Time),408383.5,A,fingerenter,I,enter,338,1,6247.5,402136.0,8111,WL,A,7.0
3,17.57800006866455,learn,42421.99993133545,Wed May 13 2026 17:41:51 GMT-0500 (Central Daylight Time),408600.1999999881,A,s,I,s,212,1,216.3999999910593,408383.799999997,8111,WL,A,8.0
3,17.944000005722046,learn,42055.999994277954,Wed May 13 2026 17:41:51 GMT-0500 (Central Daylight Time),408966.799999997,A,sa,I,a,348,1,583.0,408383.799999997,8111,WL,A,8.0
3,18.14400005340576,learn,41855.99994659424,Wed May 13 2026 17:41:51 GMT-0500 (Central Daylight Time),409166.799999997,A,sal,I,l,181,1,783.0,408383.799999997,8111,WL,A,8.0
3,18.361000061035156,learn,41638.999938964844,Wed May 13 2026 17:41:51 GMT-0500 (Central Daylight Time),409383.39999999106,A,sale,I,e,205,1,999.5999999940395,408383.799999997,8111,WL,A,8.0
3,19.3270001411438,learn,40672.9998588562,Wed May 13 2026 17:41:51 GMT-0500 (Central Daylight Time),410349.799999997,A,sal,I,backspace,948,1,1966.0,408383.799999997,8111,WL,A,8.0
3,19.561000108718872,learn,40438.99989128113,Wed May 13 2026 17:41:51 GMT-0500 (Central Daylight Time),410583.1999999881,A,salt,I,t,222,1,2199.3999999910593,408383.799999997,8111,WL,A,8.0
3,19.97699999809265,learn,40023.00000190735,Wed May 13 2026 17:41:51 GMT-0500 (Central Daylight Time),410999.59999999404,A,saltenter,I,enter,396,1,2615.7999999970198,408383.799999997,8111,WL,A,8.0
3,21.0770001411438,learn,38922.9998588562,Wed May 13 2026 17:41:51 GMT-0500 (Central Daylight Time),412099.1999999881,A,a,I,a,1093,1,1099.2999999970198,410999.89999999106,8111,WL,A,9.0
3,21.3270001411438,learn,38672.9998588562,Wed May 13 2026 17:41:51 GMT-0500 (Central Daylight Time),412349.1999999881,A,ap,I,p,232,1,1349.2999999970198,410999.89999999106,8111,WL,A,9.0
3,21.443000078201294,learn,38556.999921798706,Wed May 13 2026 17:41:51 GMT-0500 (Central Daylight Time),412465.799999997,A,app,I,p,103,1,1465.9000000059605,410999.89999999106,8111,WL,A,9.0
3,21.610000133514404,learn,38389.999866485596,Wed May 13 2026 17:41:51 GMT-0500 (Central Daylight Time),412632.39999999106,A,appl,I,l,146,1,1632.5,410999.89999999106,8111,WL,A,9.0
3,21.72699999809265,learn,38273.00000190735,Wed May 13 2026 17:41:51 GMT-0500 (Central Daylight Time),412749.0,A,apple,I,e,100,1,1749.1000000089407,410999.89999999106,8111,WL,A,9.0
3,22.342999935150146,learn,37657.00006484985,Wed May 13 2026 17:41:51 GMT-0500 (Central Daylight Time),413365.09999999404,A,appleenter,I,enter,607,1,2365.2000000029802,410999.89999999106,8111,WL,A,9.0
3,26.141000032424927,learn,33858.99996757507,Wed May 13 2026 17:41:51 GMT-0500 (Central Daylight Time),417164.0,A,m,I,m,3791,1,3798.7000000029802,413365.299999997,8111,WL,A,10.0
3,26.22499990463257,learn,33775.00009536743,Wed May 13 2026 17:41:51 GMT-0500 (Central Daylight Time),417247.39999999106,A,me,I,e,72,1,3882.0999999940395,413365.299999997,8111,WL,A,10.0
3,26.30900001525879,learn,33690.99998474121,Wed May 13 2026 17:41:51 GMT-0500 (Central Daylight Time),417332.09999999404,A,mea,I,a,68,1,3966.7999999970198,413365.299999997,8111,WL,A,10.0
3,26.54100012779236,learn,33458.99987220764,Wed May 13 2026 17:41:51 GMT-0500 (Central Daylight Time),417564.09999999404,A,mead,I,d,224,1,4198.79999999702,413365.299999997,8111,WL,A,10.0
3,26.674000024795532,learn,33325.99997520447,Wed May 13 2026 17:41:51 GMT-0500 (Central Daylight Time),417697.09999999404,A,meado,I,o,127,1,4331.79999999702,413365.299999997,8111,WL,A,10.0
3,26.808000087738037,learn,33191.99991226196,Wed May 13 2026 17:41:51 GMT-0500 (Central Daylight Time),417830.89999999106,A,meadow,I,w,123,1,4465.5999999940395,413365.299999997,8111,WL,A,10.0
3,27.174999952316284,learn,32825.000047683716,Wed May 13 2026 17:41:51 GMT-0500 (Central Daylight Time),418197.299999997,A,meadowenter,I,enter,358,1,4832.0,413365.299999997,8111,WL,A,10.0
3,31.60700011253357,learn,28392.99988746643,Wed May 13 2026 17:41:51 GMT-0500 (Central Daylight Time),422629.39999999106,A,t,I,t,4415,1,4431.70000000298,418197.6999999881,8111,WL,A,11.0
3,31.789999961853027,learn,28210.000038146973,Wed May 13 2026 17:41:51 GMT-0500 (Central Daylight Time),422812.59999999404,A,tr,I,r,174,1,4614.9000000059605,418197.6999999881,8111,WL,A,11.0
3,31.9060001373291,learn,28093.9998626709,Wed May 13 2026 17:41:51 GMT-0500 (Central Daylight Time),422929.09999999404,A,tra,I,a,103,1,4731.4000000059605,418197.6999999881,8111,WL,A,11.0
3,32.140000104904175,learn,27859.999895095825,Wed May 13 2026 17:41:51 GMT-0500 (Central Daylight Time),423162.299999997,A,trai,I,i,227,1,4964.600000008941,418197.6999999881,8111,WL,A,11.0
3,32.23900008201599,learn,27760.99991798401,Wed May 13 2026 17:41:51 GMT-0500 (Central Daylight Time),423262.09999999404,A,train,I,n,82,1,5064.4000000059605,418197.6999999881,8111,WL,A,11.0
3,32.57299995422363,learn,27427.000045776367,Wed May 13 2026 17:41:51 GMT-0500 (Central Daylight Time),423595.5,A,trainenter,I,enter,318,1,5397.800000011921,418197.6999999881,8111,WL,A,11.0
3,32.973000049591064,learn,27026.999950408936,Wed May 13 2026 17:41:51 GMT-0500 (Central Daylight Time),423995.5,A,h,I,h,392,1,399.6000000089407,423595.89999999106,8111,WL,A,12.0
3,33.10599994659424,learn,26894.00005340576,Wed May 13 2026 17:41:51 GMT-0500 (Central Daylight Time),424128.5,A,ha,I,a,113,1,532.6000000089407,423595.89999999106,8111,WL,A,12.0
3,33.4060001373291,learn,26593.9998626709,Wed May 13 2026 17:41:51 GMT-0500 (Central Daylight Time),424428.799999997,A,har,I,r,292,1,832.9000000059605,423595.89999999106,8111,WL,A,12.0
3,33.75600004196167,learn,26243.99995803833,Wed May 13 2026 17:41:51 GMT-0500 (Central Daylight Time),424778.799999997,A,harp,I,p,335,1,1182.9000000059605,423595.89999999106,8111,WL,A,12.0
3,35.07200002670288,learn,24927.99997329712,Wed May 13 2026 17:41:51 GMT-0500 (Central Daylight Time),426094.89999999106,A,harpenter,I,enter,1297,1,2499.0,423595.89999999106,8111,WL,A,12.0
3,39.03699994087219,learn,20963.000059127808,Wed May 13 2026 17:41:51 GMT-0500 (Central Daylight Time),430060.0,A,f,I,f,3956,1,3964.800000011921,426095.1999999881,8111,WL,A,13.0
3,39.15400004386902,learn,20845.99995613098,Wed May 13 2026 17:41:51 GMT-0500 (Central Daylight Time),430176.6999999881,A,fl,I,l,112,1,4081.5,426095.1999999881,8111,WL,A,13.0
3,39.337000131607056,learn,20662.999868392944,Wed May 13 2026 17:41:51 GMT-0500 (Central Daylight Time),430360.09999999404,A,flo,I,o,171,1,4264.9000000059605,426095.1999999881,8111,WL,A,13.0
3,39.4539999961853,learn,20546.000003814697,Wed May 13 2026 17:41:51 GMT-0500 (Central Daylight Time),430476.89999999106,A,flow,I,w,99,1,4381.70000000298,426095.1999999881,8111,WL,A,13.0
3,39.63700008392334,learn,20362.99991607666,Wed May 13 2026 17:41:51 GMT-0500 (Central Daylight Time),430660.0,A,flowe,I,e,175,1,4564.800000011921,426095.1999999881,8111,WL,A,13.0
3,39.9539999961853,learn,20046.000003814697,Wed May 13 2026 17:41:51 GMT-0500 (Central Daylight Time),430976.6999999881,A,flower,I,r,295,1,4881.5,426095.1999999881,8111,WL,A,13.0
3,40.25399994850159,learn,19746.000051498413,Wed May 13 2026 17:41:51 GMT-0500 (Central Daylight Time),431276.6999999881,A,flowerenter,I,enter,284,1,5181.5,426095.1999999881,8111,WL,A,13.0
3,42.15300011634827,learn,17846.999883651733,Wed May 13 2026 17:41:51 GMT-0500 (Central Daylight Time),433176.09999999404,A,g,I,g,1878,1,1899.0,431277.09999999404,8111,WL,A,14.0
3,42.269999980926514,learn,17730.000019073486,Wed May 13 2026 17:41:51 GMT-0500 (Central Daylight Time),433292.6999999881,A,go,I,o,107,1,2015.5999999940395,431277.09999999404,8111,WL,A,14.0
3,42.437000036239624,learn,17562.999963760376,Wed May 13 2026 17:41:51 GMT-0500 (Central Daylight Time),433459.299999997,A,gol,I,l,159,1,2182.2000000029802,431277.09999999404,8111,WL,A,14.0
3,42.55299997329712,learn,17447.00002670288,Wed May 13 2026 17:41:51 GMT-0500 (Central Daylight Time),433575.799999997,A,gold,I,d,105,1,2298.7000000029802,431277.09999999404,8111,WL,A,14.0
3,42.753000020980835,learn,17246.999979019165,Wed May 13 2026 17:41:51 GMT-0500 (Central Daylight Time),433775.6999999881,A,goldenter,I,enter,180,1,2498.5999999940395,431277.09999999404,8111,WL,A,14.0
3,49.23399996757507,learn,10766.000032424927,Wed May 13 2026 17:41:51 GMT-0500 (Central Daylight Time),440256.799999997,A,g,I,g,6477,1,6480.79999999702,433776.0,8111,WL,A,15.0
3,49.401000022888184,learn,10598.999977111816,Wed May 13 2026 17:41:51 GMT-0500 (Central Daylight Time),440423.6999999881,A,go,I,o,155,1,6647.699999988079,433776.0,8111,WL,A,15.0
3,49.58400011062622,learn,10415.99988937378,Wed May 13 2026 17:41:51 GMT-0500 (Central Daylight Time),440606.89999999106,A,gol,I,l,164,1,6830.899999991059,433776.0,8111,WL,A,15.0
3,49.68400001525879,learn,10315.999984741211,Wed May 13 2026 17:41:51 GMT-0500 (Central Daylight Time),440706.89999999106,A,gold,I,d,93,1,6930.899999991059,433776.0,8111,WL,A,15.0
3,49.93400001525879,learn,10065.999984741211,Wed May 13 2026 17:41:51 GMT-0500 (Central Daylight Time),440956.89999999106,A,goldenter,I,enter,233,1,7180.899999991059,433776.0,8111,WL,A,15.0
4,1.0999999046325684,learn,58900.00009536743,Wed May 13 2026 17:41:51 GMT-0500 (Central Daylight Time),508619.0,A,b,I,b,1086,1,1099.6000000089407,507519.39999999106,8111,WL,A,1.0
4,1.3829998970031738,learn,58617.000102996826,Wed May 13 2026 17:41:51 GMT-0500 (Central Daylight Time),508902.1999999881,A,bo,I,o,265,1,1382.7999999970198,507519.39999999106,8111,WL,A,1.0
4,1.5169999599456787,learn,58483.00004005432,Wed May 13 2026 17:41:51 GMT-0500 (Central Daylight Time),509035.39999999106,A,boo,I,o,118,1,1516.0,507519.39999999106,8111,WL,A,1.0
4,1.7000000476837158,learn,58299.999952316284,Wed May 13 2026 17:41:51 GMT-0500 (Central Daylight Time),509218.89999999106,A,book,I,k,169,1,1699.5,507519.39999999106,8111,WL,A,1.0
4,3.132999897003174,learn,56867.000102996826,Wed May 13 2026 17:41:51 GMT-0500 (Central Daylight Time),510651.5,A,bookenter,I,enter,1425,1,3132.1000000089407,507519.39999999106,8111,WL,A,1.0
4,3.7330000400543213,learn,56266.99995994568,Wed May 13 2026 17:41:51 GMT-0500 (Central Daylight Time),511251.5,A,m,I,m,593,1,599.7000000029802,510651.799999997,8111,WL,A,2.0
4,3.865999937057495,learn,56134.000062942505,Wed May 13 2026 17:41:51 GMT-0500 (Central Daylight Time),511384.5,A,me,I,e,128,1,732.7000000029802,510651.799999997,8111,WL,A,2.0
4,3.9830000400543213,learn,56016.99995994568,Wed May 13 2026 17:41:51 GMT-0500 (Central Daylight Time),511501.6999999881,A,mea,I,a,100,1,849.8999999910593,510651.799999997,8111,WL,A,2.0
4,4.448999881744385,learn,55551.000118255615,Wed May 13 2026 17:41:51 GMT-0500 (Central Daylight Time),511968.09999999404,A,mead,I,d,455,1,1316.2999999970198,510651.799999997,8111,WL,A,2.0
4,4.615999937057495,learn,55384.000062942505,Wed May 13 2026 17:41:51 GMT-0500 (Central Daylight Time),512134.59999999404,A,meado,I,o,156,1,1482.7999999970198,510651.799999997,8111,WL,A,2.0
4,4.966000080108643,learn,55033.99991989136,Wed May 13 2026 17:41:51 GMT-0500 (Central Daylight Time),512484.5,A,meadow,I,w,341,1,1832.7000000029802,510651.799999997,8111,WL,A,2.0
4,6.131999969482422,learn,53868.00003051758,Wed May 13 2026 17:41:51 GMT-0500 (Central Daylight Time),513650.799999997,A,meadowenter,I,enter,1160,1,2999.0,510651.799999997,8111,WL,A,2.0
4,6.764999866485596,learn,53235.000133514404,Wed May 13 2026 17:41:51 GMT-0500 (Central Daylight Time),514283.799999997,A,t,I,t,618,1,632.7000000029802,513651.09999999404,8111,WL,A,3.0
4,6.9649999141693115,learn,53035.00008583069,Wed May 13 2026 17:41:51 GMT-0500 (Central Daylight Time),514483.799999997,A,tr,I,r,184,1,832.7000000029802,513651.09999999404,8111,WL,A,3.0
4,7.065000057220459,learn,52934.99994277954,Wed May 13 2026 17:41:51 GMT-0500 (Central Daylight Time),514583.799999997,A,tra,I,a,88,1,932.7000000029802,513651.09999999404,8111,WL,A,3.0
4,7.247999906539917,learn,52752.00009346008,Wed May 13 2026 17:41:51 GMT-0500 (Central Daylight Time),514767.0,A,trai,I,i,164,1,1115.9000000059605,513651.09999999404,8111,WL,A,3.0
4,7.331000089645386,learn,52668.999910354614,Wed May 13 2026 17:41:51 GMT-0500 (Central Daylight Time),514850.39999999106,A,train,I,n,76,1,1199.2999999970198,513651.09999999404,8111,WL,A,3.0
4,7.7149999141693115,learn,52285.00008583069,Wed May 13 2026 17:41:51 GMT-0500 (Central Daylight Time),515233.59999999404,A,trainenter,I,enter,362,1,1582.5,513651.09999999404,8111,WL,A,3.0
4,8.014999866485596,learn,51985.000133514404,Wed May 13 2026 17:41:51 GMT-0500 (Central Daylight Time),515533.5,A,r,I,r,282,1,299.6000000089407,515233.89999999106,8111,WL,A,4.0
4,8.230999946594238,learn,51769.00005340576,Wed May 13 2026 17:41:51 GMT-0500 (Central Daylight Time),515750.1999999881,A,ru,I,u,207,1,516.2999999970198,515233.89999999106,8111,WL,A,4.0
4,8.414000034332275,learn,51585.999965667725,Wed May 13 2026 17:41:51 GMT-0500 (Central Daylight Time),515933.09999999404,A,rug,I,g,173,1,699.2000000029802,515233.89999999106,8111,WL,A,4.0
4,8.73199987411499,learn,51268.00012588501,Wed May 13 2026 17:41:51 GMT-0500 (Central Daylight Time),516250.89999999106,A,rugenter,I,enter,312,1,1017.0,515233.89999999106,8111,WL,A,4.0
4,8.980999946594238,learn,51019.00005340576,Wed May 13 2026 17:41:51 GMT-0500 (Central Daylight Time),516499.6999999881,A,s,I,s,241,1,248.3999999910593,516251.299999997,8111,WL,A,5.0
4,9.197999954223633,learn,50802.00004577637,Wed May 13 2026 17:41:51 GMT-0500 (Central Daylight Time),516716.59999999404,A,sa,I,a,200,1,465.29999999701977,516251.299999997,8111,WL,A,5.0
4,9.381999969482422,learn,50618.00003051758,Wed May 13 2026 17:41:51 GMT-0500 (Central Daylight Time),516900.6999999881,A,sal,I,l,175,1,649.3999999910593,516251.299999997,8111,WL,A,5.0
4,9.730999946594238,learn,50269.00005340576,Wed May 13 2026 17:41:51 GMT-0500 (Central Daylight Time),517249.5,A,salt,I,t,343,1,998.2000000029802,516251.299999997,8111,WL,A,5.0
4,10.414000034332275,learn,49585.999965667725,Wed May 13 2026 17:41:51 GMT-0500 (Central Daylight Time),517932.59999999404,A,saltenter,I,enter,666,1,1681.2999999970198,516251.299999997,8111,WL,A,5.0
4,10.914000034332275,learn,49085.999965667725,Wed May 13 2026 17:41:51 GMT-0500 (Central Daylight Time),518432.59999999404,A,f,I,f,479,1,499.59999999403954,517933.0,8111,WL,A,6.0
4,11.079999923706055,learn,48920.000076293945,Wed May 13 2026 17:41:51 GMT-0500 (Central Daylight Time),518599.0,A,fi,I,i,147,1,666.0,517933.0,8111,WL,A,6.0
4,11.180000066757202,learn,48819.9999332428,Wed May 13 2026 17:41:51 GMT-0500 (Central Daylight Time),518699.1999999881,A,fin,I,n,85,1,766.1999999880791,517933.0,8111,WL,A,6.0
4,11.29699993133545,learn,48703.00006866455,Wed May 13 2026 17:41:51 GMT-0500 (Central Daylight Time),518815.59999999404,A,fing,I,g,105,1,882.5999999940395,517933.0,8111,WL,A,6.0
4,11.44700002670288,learn,48552.99997329712,Wed May 13 2026 17:41:51 GMT-0500 (Central Daylight Time),518965.799999997,A,finge,I,e,133,1,1032.7999999970198,517933.0,8111,WL,A,6.0
4,11.562999963760376,learn,48437.000036239624,Wed May 13 2026 17:41:51 GMT-0500 (Central Daylight Time),519082.299999997,A,finger,I,r,103,1,1149.2999999970198,517933.0,8111,WL,A,6.0
4,11.912999868392944,learn,48087.000131607056,Wed May 13 2026 17:41:51 GMT-0500 (Central Daylight Time),519432.09999999404,A,fingerenter,I,enter,338,1,1499.0999999940395,517933.0,8111,WL,A,6.0
4,12.096999883651733,learn,47903.00011634827,Wed May 13 2026 17:41:51 GMT-0500 (Central Daylight Time),519615.39999999106,A,a,I,a,173,1,183.0,519432.39999999106,8111,WL,A,7.0
4,12.312999963760376,learn,47687.000036239624,Wed May 13 2026 17:41:51 GMT-0500 (Central Daylight Time),519832.299999997,A,ap,I,p,205,1,399.90000000596046,519432.39999999106,8111,WL,A,7.0
4,12.44599986076355,learn,47554.00013923645,Wed May 13 2026 17:41:51 GMT-0500 (Central Daylight Time),519965.299999997,A,app,I,p,116,1,532.9000000059605,519432.39999999106,8111,WL,A,7.0
4,12.61299991607666,learn,47387.00008392334,Wed May 13 2026 17:41:51 GMT-0500 (Central Daylight Time),520131.799999997,A,appl,I,l,151,1,699.4000000059605,519432.39999999106,8111,WL,A,7.0
4,12.763000011444092,learn,47236.99998855591,Wed May 13 2026 17:41:51 GMT-0500 (Central Daylight Time),520281.799999997,A,apple,I,e,137,1,849.4000000059605,519432.39999999106,8111,WL,A,7.0
4,14.463000059127808,learn,45536.99994087219,Wed May 13 2026 17:41:51 GMT-0500 (Central Daylight Time),521981.59999999404,A,appleenter,I,enter,1682,1,2549.2000000029802,519432.39999999106,8111,WL,A,7.0
4,14.812000036239624,learn,45187.999963760376,Wed May 13 2026 17:41:51 GMT-0500 (Central Daylight Time),522331.299999997,A,g,I,g,335,1,349.40000000596046,521981.89999999106,8111,WL,A,8.0
4,14.961999893188477,learn,45038.00010681152,Wed May 13 2026 17:41:51 GMT-0500 (Central Daylight Time),522481.0,A,go,I,o,145,1,499.1000000089407,521981.89999999106,8111,WL,A,8.0
4,15.111999988555908,learn,44888.00001144409,Wed May 13 2026 17:41:51 GMT-0500 (Central Daylight Time),522631.1999999881,A,gol,I,l,140,1,649.2999999970198,521981.89999999106,8111,WL,A,8.0
4,15.279000043869019,learn,44720.99995613098,Wed May 13 2026 17:41:51 GMT-0500 (Central Daylight Time),522797.799999997,A,gold,I,d,148,1,815.9000000059605,521981.89999999106,8111,WL,A,8.0
4,15.961999893188477,learn,44038.00010681152,Wed May 13 2026 17:41:51 GMT-0500 (Central Daylight Time),523481.0,A,goldenter,I,enter,670,1,1499.1000000089407,521981.89999999106,8111,WL,A,8.0
4,17.76200008392334,learn,42237.99991607666,Wed May 13 2026 17:41:51 GMT-0500 (Central Daylight Time),525280.3999999911,A,m,I,m,1788,1,1799.0,523481.39999999106,8111,WL,A,9.0
4,17.82800006866455,learn,42171.99993133545,Wed May 13 2026 17:41:51 GMT-0500 (Central Daylight Time),525347.0,A,me,I,e,60,1,1865.6000000089407,523481.39999999106,8111,WL,A,9.0
4,17.961999893188477,learn,42038.00010681152,Wed May 13 2026 17:41:51 GMT-0500 (Central Daylight Time),525480.3999999911,A,met,I,t,113,1,1999.0,523481.39999999106,8111,WL,A,9.0
4,18.062000036239624,learn,41937.999963760376,Wed May 13 2026 17:41:51 GMT-0500 (Central Daylight Time),525580.3999999911,A,meta,I,a,91,1,2099.0,523481.39999999106,8111,WL,A,9.0
4,18.17799997329712,learn,41822.00002670288,Wed May 13 2026 17:41:51 GMT-0500 (Central Daylight Time),525696.599999994,A,metal,I,l,110,1,2215.2000000029802,523481.39999999106,8111,WL,A,9.0
4,18.527999877929688,learn,41472.00012207031,Wed May 13 2026 17:41:51 GMT-0500 (Central Daylight Time),526047.0,A,metalenter,I,enter,339,1,2565.6000000089407,523481.39999999106,8111,WL,A,9.0
4,22.14400005340576,learn,37855.99994659424,Wed May 13 2026 17:41:51 GMT-0500 (Central Daylight Time),529662.3999999911,A,r,I,r,3606,1,3615.0999999940395,526047.299999997,8111,WL,A,10.0
4,22.276999950408936,learn,37723.000049591064,Wed May 13 2026 17:41:51 GMT-0500 (Central Daylight Time),529795.599999994,A,ra,I,a,125,1,3748.2999999970198,526047.299999997,8111,WL,A,10.0
4,22.526999950408936,learn,37473.000049591064,Wed May 13 2026 17:41:51 GMT-0500 (Central Daylight Time),530045.6999999881,A,rat,I,t,241,1,3998.3999999910593,526047.299999997,8111,WL,A,10.0
4,22.675999879837036,learn,37324.000120162964,Wed May 13 2026 17:41:51 GMT-0500 (Central Daylight Time),530195.1999999881,A,ratt,I,t,135,1,4147.899999991059,526047.299999997,8111,WL,A,10.0
4,22.792999982833862,learn,37207.00001716614,Wed May 13 2026 17:41:51 GMT-0500 (Central Daylight Time),530312.1999999881,A,rattl,I,l,97,1,4264.899999991059,526047.299999997,8111,WL,A,10.0
4,22.927000045776367,learn,37072.99995422363,Wed May 13 2026 17:41:51 GMT-0500 (Central Daylight Time),530445.5,A,rattle,I,e,116,1,4398.20000000298,526047.299999997,8111,WL,A,10.0
4,23.175999879837036,learn,36824.000120162964,Wed May 13 2026 17:41:51 GMT-0500 (Central Daylight Time),530695.299999997,A,rattleenter,I,enter,238,1,4648.0,526047.299999997,8111,WL,A,10.0
4,25.042999982833862,learn,34957.00001716614,Wed May 13 2026 17:41:51 GMT-0500 (Central Daylight Time),532561.3999999911,A,f,I,f,1846,1,1865.8999999910593,530695.5,8111,WL,A,11.0
4,25.20899987220764,learn,34791.00012779236,Wed May 13 2026 17:41:51 GMT-0500 (Central Daylight Time),532728.0,A,fi,I,i,146,1,2032.5,530695.5,8111,WL,A,11.0
4,25.276000022888184,learn,34723.99997711182,Wed May 13 2026 17:41:51 GMT-0500 (Central Daylight Time),532794.6999999881,A,fin,I,n,61,1,2099.199999988079,530695.5,8111,WL,A,11.0
4,25.45899987220764,learn,34541.00012779236,Wed May 13 2026 17:41:51 GMT-0500 (Central Daylight Time),532977.8999999911,A,fing,I,g,177,1,2282.3999999910593,530695.5,8111,WL,A,11.0
4,25.691999912261963,learn,34308.00008773804,Wed May 13 2026 17:41:51 GMT-0500 (Central Daylight Time),533211.0,A,fingl,I,l,218,1,2515.5,530695.5,8111,WL,A,11.0
4,26.236999988555908,learn,33763.00001144409,Wed May 13 2026 17:41:51 GMT-0500 (Central Daylight Time),533756.099999994,A,fing,I,backspace,524,1,3060.5999999940395,530695.5,8111,WL,A,11.0
4,26.32699990272522,learn,33673.00009727478,Wed May 13 2026 17:41:51 GMT-0500 (Central Daylight Time),533846.299999997,A,finge,I,e,68,1,3150.7999999970198,530695.5,8111,WL,A,11.0
4,26.39199995994568,learn,33608.00004005432,Wed May 13 2026 17:41:51 GMT-0500 (Central Daylight Time),533910.6999999881,A,finger,I,r,52,1,3215.199999988079,530695.5,8111,WL,A,11.0
4,26.89199995994568,learn,33108.00004005432,Wed May 13 2026 17:41:51 GMT-0500 (Central Daylight Time),534410.799999997,A,fingerenter,I,enter,492,1,3715.2999999970198,530695.5,8111,WL,A,11.0
4,34.07299995422363,learn,25927.000045776367,Wed May 13 2026 17:41:51 GMT-0500 (Central Daylight Time),541591.8999999911,A,f,I,f,7161,1,7180.79999999702,534411.099999994,8111,WL,A,12.0
4,34.19000005722046,learn,25809.99994277954,Wed May 13 2026 17:41:51 GMT-0500 (Central Daylight Time),541708.6999999881,A,fl,I,l,99,1,7297.5999999940395,534411.099999994,8111,WL,A,12.0
4,34.37299990653992,learn,25627.000093460083,Wed May 13 2026 17:41:51 GMT-0500 (Central Daylight Time),541891.6999999881,A,flo,I,o,167,1,7480.5999999940395,534411.099999994,8111,WL,A,12.0
4,34.50600004196167,learn,25493.99995803833,Wed May 13 2026 17:41:51 GMT-0500 (Central Daylight Time),542024.8999999911,A,flow,I,w,129,1,7613.79999999702,534411.099999994,8111,WL,A,12.0
4,34.789000034332275,learn,25210.999965667725,Wed May 13 2026 17:41:51 GMT-0500 (Central Daylight Time),542308.5,A,flowe,I,e,268,1,7897.4000000059605,534411.099999994,8111,WL,A,12.0
4,35.055999994277954,learn,24944.000005722046,Wed May 13 2026 17:41:51 GMT-0500 (Central Daylight Time),542575.0,A,flower,I,r,247,1,8163.9000000059605,534411.099999994,8111,WL,A,12.0
4,35.53999996185303,learn,24460.000038146973,Wed May 13 2026 17:41:51 GMT-0500 (Central Daylight Time),543059.099999994,A,flowerenter,I,enter,477,1,8648.0,534411.099999994,8111,WL,A,12.0
4,49.65299987792969,learn,10347.000122070312,Wed May 13 2026 17:41:51 GMT-0500 (Central Daylight Time),557172.1999999881,A,r,I,r,13960,1,14112.699999988079,543059.5,8111,WL,A,13.0
4,49.81699991226196,learn,10183.000087738037,Wed May 13 2026 17:41:51 GMT-0500 (Central Daylight Time),557336.0,A,ru,I,u,144,1,14276.5,543059.5,8111,WL,A,13.0
4,49.93400001525879,learn,10065.999984741211,Wed May 13 2026 17:41:51 GMT-0500 (Central Daylight Time),557453.1999999881,A,rug,I,g,101,1,14393.699999988079,543059.5,8111,WL,A,13.0
4,50.68400001525879,learn,9315.999984741211,Wed May 13 2026 17:41:51 GMT-0500 (Central Daylight Time),558203.299999997,A,rugenter,I,enter,734,1,15143.79999999702,543059.5,8111,WL,A,13.0
4,60.014999866485596,learn,-14.999866485595703,Wed May 13 2026 17:41:51 GMT-0500 (Central Daylight Time),567533.8999999911,A,None,I,None,9326,1,9330.20000000298,558203.6999999881,8111,WL,A,14.0
5,1.0499999523162842,learn,60000.0,Wed May 13 2026 17:41:51 GMT-0500 (Central Daylight Time),639611.3999999911,A,b,I,b,1034,1,1050.0999999940395,638561.299999997,8111,WL,A,1.0
5,1.315999984741211,learn,60000.0,Wed May 13 2026 17:41:51 GMT-0500 (Central Daylight Time),639877.6999999881,A,bo,I,o,249,1,1316.3999999910593,638561.299999997,8111,WL,A,1.0
5,1.4499998092651367,learn,60000.0,Wed May 13 2026 17:41:51 GMT-0500 (Central Daylight Time),640010.8999999911,A,boo,I,o,127,1,1449.5999999940395,638561.299999997,8111,WL,A,1.0
5,1.616999864578247,learn,60000.0,Wed May 13 2026 17:41:51 GMT-0500 (Central Daylight Time),640177.799999997,A,book,I,k,160,1,1616.5,638561.299999997,8111,WL,A,1.0
5,1.9829998016357422,learn,60000.0,Wed May 13 2026 17:41:51 GMT-0500 (Central Daylight Time),640544.299999997,A,bookenter,I,enter,362,1,1983.0,638561.299999997,8111,WL,A,1.0
5,2.482999801635742,learn,60000.0,Wed May 13 2026 17:41:51 GMT-0500 (Central Daylight Time),641044.099999994,A,f,I,f,491,1,499.5,640544.599999994,8111,WL,A,2.0
5,2.682999849319458,learn,60000.0,Wed May 13 2026 17:41:51 GMT-0500 (Central Daylight Time),641244.099999994,A,fl,I,l,184,1,699.5,640544.599999994,8111,WL,A,2.0
5,2.8489999771118164,learn,60000.0,Wed May 13 2026 17:41:51 GMT-0500 (Central Daylight Time),641410.799999997,A,flo,I,o,159,1,866.2000000029802,640544.599999994,8111,WL,A,2.0
5,3.0490000247955322,learn,60000.0,Wed May 13 2026 17:41:51 GMT-0500 (Central Daylight Time),641610.6999999881,A,flow,I,w,193,1,1066.0999999940395,640544.599999994,8111,WL,A,2.0
5,3.248999834060669,learn,60000.0,Wed May 13 2026 17:41:51 GMT-0500 (Central Daylight Time),641810.5,A,flowe,I,e,194,1,1265.9000000059605,640544.599999994,8111,WL,A,2.0
5,3.498999834060669,learn,60000.0,Wed May 13 2026 17:41:51 GMT-0500 (Central Daylight Time),642060.5,A,flower,I,r,234,1,1515.9000000059605,640544.599999994,8111,WL,A,2.0
5,3.7990000247955322,learn,60000.0,Wed May 13 2026 17:41:51 GMT-0500 (Central Daylight Time),642360.1999999881,A,flowerenter,I,enter,279,1,1815.5999999940395,640544.599999994,8111,WL,A,2.0
5,4.065999984741211,learn,60000.0,Wed May 13 2026 17:41:51 GMT-0500 (Central Daylight Time),642626.799999997,A,t,I,t,252,1,266.40000000596046,642360.3999999911,8111,WL,A,3.0
5,4.315999984741211,learn,60000.0,Wed May 13 2026 17:41:51 GMT-0500 (Central Daylight Time),642876.8999999911,A,tr,I,r,242,1,516.5,642360.3999999911,8111,WL,A,3.0
5,4.432999849319458,learn,60000.0,Wed May 13 2026 17:41:51 GMT-0500 (Central Daylight Time),642994.599999994,A,tra,I,a,110,1,634.2000000029802,642360.3999999911,8111,WL,A,3.0
5,4.664999961853027,learn,60000.0,Wed May 13 2026 17:41:51 GMT-0500 (Central Daylight Time),643226.6999999881,A,trai,I,i,225,1,866.2999999970198,642360.3999999911,8111,WL,A,3.0
5,4.797999858856201,learn,60000.0,Wed May 13 2026 17:41:51 GMT-0500 (Central Daylight Time),643359.799999997,A,train,I,n,113,1,999.4000000059605,642360.3999999911,8111,WL,A,3.0
5,5.2149999141693115,learn,60000.0,Wed May 13 2026 17:41:51 GMT-0500 (Central Daylight Time),643776.5,A,trainenter,I,enter,397,1,1416.1000000089407,642360.3999999911,8111,WL,A,3.0
5,5.9649999141693115,learn,60000.0,Wed May 13 2026 17:41:51 GMT-0500 (Central Daylight Time),644526.3999999911,A,r,I,r,731,1,749.5999999940395,643776.799999997,8111,WL,A,4.0
5,6.281999826431274,learn,60000.0,Wed May 13 2026 17:41:51 GMT-0500 (Central Daylight Time),644843.0,A,ru,I,u,302,1,1066.2000000029802,643776.799999997,8111,WL,A,4.0
5,6.4649999141693115,learn,60000.0,Wed May 13 2026 17:41:51 GMT-0500 (Central Daylight Time),645026.1999999881,A,rug,I,g,176,1,1249.3999999910593,643776.799999997,8111,WL,A,4.0
5,6.81499981880188,learn,60000.0,Wed May 13 2026 17:41:51 GMT-0500 (Central Daylight Time),645376.299999997,A,rugenter,I,enter,339,1,1599.5,643776.799999997,8111,WL,A,4.0
5,7.347999811172485,learn,60000.0,Wed May 13 2026 17:41:51 GMT-0500 (Central Daylight Time),645909.099999994,A,m,I,m,516,1,532.4000000059605,645376.6999999881,8111,WL,A,5.0
5,7.480999946594238,learn,60000.0,Wed May 13 2026 17:41:51 GMT-0500 (Central Daylight Time),646042.3999999911,A,me,I,e,118,1,665.7000000029802,645376.6999999881,8111,WL,A,5.0
5,7.665999889373779,learn,60000.0,Wed May 13 2026 17:41:51 GMT-0500 (Central Daylight Time),646226.8999999911,A,mea,I,a,178,1,850.2000000029802,645376.6999999881,8111,WL,A,5.0
5,7.930999994277954,learn,60000.0,Wed May 13 2026 17:41:51 GMT-0500 (Central Daylight Time),646492.3999999911,A,mead,I,d,257,1,1115.7000000029802,645376.6999999881,8111,WL,A,5.0
5,8.047999858856201,learn,60000.0,Wed May 13 2026 17:41:51 GMT-0500 (Central Daylight Time),646609.099999994,A,meado,I,o,103,1,1232.4000000059605,645376.6999999881,8111,WL,A,5.0
5,8.247999906539917,learn,60000.0,Wed May 13 2026 17:41:51 GMT-0500 (Central Daylight Time),646808.8999999911,A,meadow,I,w,178,1,1432.2000000029802,645376.6999999881,8111,WL,A,5.0
5,8.497999906539917,learn,60000.0,Wed May 13 2026 17:41:51 GMT-0500 (Central Daylight Time),647059.1999999881,A,meadowenter,I,enter,236,1,1682.5,645376.6999999881,8111,WL,A,5.0
5,8.863999843597412,learn,60000.0,Wed May 13 2026 17:41:51 GMT-0500 (Central Daylight Time),647425.3999999911,A,h,I,h,353,1,365.8999999910593,647059.5,8111,WL,A,6.0
5,8.96399998664856,learn,60000.0,Wed May 13 2026 17:41:51 GMT-0500 (Central Daylight Time),647525.299999997,A,ha,I,a,83,1,465.79999999701977,647059.5,8111,WL,A,6.0
5,9.180999994277954,learn,60000.0,Wed May 13 2026 17:41:51 GMT-0500 (Central Daylight Time),647742.0,A,har,I,r,206,1,682.5,647059.5,8111,WL,A,6.0
5,10.629999876022339,learn,60000.0,Wed May 13 2026 17:41:51 GMT-0500 (Central Daylight Time),649191.799999997,A,harp,I,p,1429,1,2132.2999999970198,647059.5,8111,WL,A,6.0
5,11.996999979019165,learn,60000.0,Wed May 13 2026 17:41:51 GMT-0500 (Central Daylight Time),650557.8999999911,A,harpenter,I,enter,1349,1,3498.3999999910593,647059.5,8111,WL,A,6.0
5,13.745999813079834,learn,60000.0,Wed May 13 2026 17:41:51 GMT-0500 (Central Daylight Time),652307.1999999881,A,m,I,m,1735,1,1749.0999999940395,650558.099999994,8111,WL,A,7.0
5,14.111999988555908,learn,60000.0,Wed May 13 2026 17:41:51 GMT-0500 (Central Daylight Time),652673.799999997,A,me,I,e,360,1,2115.7000000029802,650558.099999994,8111,WL,A,7.0
5,14.27899980545044,learn,60000.0,Wed May 13 2026 17:41:51 GMT-0500 (Central Daylight Time),652840.299999997,A,mea,I,a,154,1,2282.2000000029802,650558.099999994,8111,WL,A,7.0
5,14.561999797821045,learn,60000.0,Wed May 13 2026 17:41:51 GMT-0500 (Central Daylight Time),653123.599999994,A,mead,I,d,276,1,2565.5,650558.099999994,8111,WL,A,7.0
5,14.978999853134155,learn,60000.0,Wed May 13 2026 17:41:51 GMT-0500 (Central Daylight Time),653540.099999994,A,meado,I,o,409,1,2982.0,650558.099999994,8111,WL,A,7.0
5,15.161999940872192,learn,60000.0,Wed May 13 2026 17:41:51 GMT-0500 (Central Daylight Time),653723.5,A,meadow,I,w,175,1,3165.4000000059605,650558.099999994,8111,WL,A,7.0
5,15.494999885559082,learn,60000.0,Wed May 13 2026 17:41:51 GMT-0500 (Central Daylight Time),654056.799999997,A,meadowenter,I,enter,312,1,3498.7000000029802,650558.099999994,8111,WL,A,7.0
5,15.894999980926514,learn,60000.0,Wed May 13 2026 17:41:51 GMT-0500 (Central Daylight Time),654456.5,A,c,I,c,387,1,399.40000000596046,654057.099999994,8111,WL,A,8.0
5,16.110999822616577,learn,60000.0,Wed May 13 2026 17:41:51 GMT-0500 (Central Daylight Time),654672.799999997,A,ch,I,h,210,1,615.7000000029802,654057.099999994,8111,WL,A,8.0
5,16.41100001335144,learn,60000.0,Wed May 13 2026 17:41:51 GMT-0500 (Central Daylight Time),654973.1999999881,A,chi,I,i,291,1,916.0999999940395,654057.099999994,8111,WL,A,8.0
5,16.628000020980835,learn,60000.0,Wed May 13 2026 17:41:51 GMT-0500 (Central Daylight Time),655189.599999994,A,chim,I,m,206,1,1132.5,654057.099999994,8111,WL,A,8.0
5,16.960999965667725,learn,60000.0,Wed May 13 2026 17:41:51 GMT-0500 (Central Daylight Time),655523.099999994,A,chimp,I,p,326,1,1466.0,654057.099999994,8111,WL,A,8.0
5,18.227999925613403,learn,60000.0,Wed May 13 2026 17:41:51 GMT-0500 (Central Daylight Time),656789.3999999911,A,chim,I,backspace,1250,1,2732.2999999970198,654057.099999994,8111,WL,A,8.0
5,19.109999895095825,learn,60000.0,Wed May 13 2026 17:41:51 GMT-0500 (Central Daylight Time),657672.1999999881,A,chimn,I,n,871,1,3615.0999999940395,654057.099999994,8111,WL,A,8.0
5,19.209999799728394,learn,60000.0,Wed May 13 2026 17:41:51 GMT-0500 (Central Daylight Time),657772.1999999881,A,chimne,I,e,93,1,3715.0999999940395,654057.099999994,8111,WL,A,8.0
5,19.22699999809265,learn,60000.0,Wed May 13 2026 17:41:51 GMT-0500 (Central Daylight Time),657788.8999999911,A,chimned,I,d,7,1,3731.7999999970198,654057.099999994,8111,WL,A,8.0
5,19.459999799728394,learn,60000.0,Wed May 13 2026 17:41:51 GMT-0500 (Central Daylight Time),658022.1999999881,A,chimnedy,I,y,215,1,3965.0999999940395,654057.099999994,8111,WL,A,8.0
5,19.80999994277954,learn,60000.0,Wed May 13 2026 17:41:51 GMT-0500 (Central Daylight Time),658372.0,A,chimnedyenter,I,enter,334,1,4314.9000000059605,654057.099999994,8111,WL,A,8.0
5,20.47599983215332,learn,60000.0,Wed May 13 2026 17:41:51 GMT-0500 (Central Daylight Time),659038.099999994,A,h,I,h,648,1,665.7999999970198,658372.299999997,8111,WL,A,9.0
5,20.575999975204468,learn,60000.0,Wed May 13 2026 17:41:51 GMT-0500 (Central Daylight Time),659138.099999994,A,ha,I,a,93,1,765.7999999970198,658372.299999997,8111,WL,A,9.0
5,20.65999984741211,learn,60000.0,Wed May 13 2026 17:41:51 GMT-0500 (Central Daylight Time),659221.3999999911,A,har,I,r,65,1,849.0999999940395,658372.299999997,8111,WL,A,9.0
5,21.542999982833862,learn,60000.0,Wed May 13 2026 17:41:51 GMT-0500 (Central Daylight Time),660104.6999999881,A,harp,I,p,871,1,1732.3999999910593,658372.299999997,8111,WL,A,9.0
5,22.658999919891357,learn,60000.0,Wed May 13 2026 17:41:51 GMT-0500 (Central Daylight Time),661221.099999994,A,harpenter,I,enter,1099,1,2848.7999999970198,658372.299999997,8111,WL,A,9.0
5,24.97599983215332,learn,60000.0,Wed May 13 2026 17:41:51 GMT-0500 (Central Daylight Time),663537.299999997,A,s,I,s,2295,1,2315.9000000059605,661221.3999999911,8111,WL,A,10.0
5,25.057999849319458,learn,60000.0,Wed May 13 2026 17:41:51 GMT-0500 (Central Daylight Time),663620.1999999881,A,sa,I,a,66,1,2398.7999999970198,661221.3999999911,8111,WL,A,10.0
5,25.324999809265137,learn,60000.0,Wed May 13 2026 17:41:51 GMT-0500 (Central Daylight Time),663886.8999999911,A,sal,I,l,256,1,2665.5,661221.3999999911,8111,WL,A,10.0
5,25.824999809265137,learn,60000.0,Wed May 13 2026 17:41:51 GMT-0500 (Central Daylight Time),664386.799999997,A,salt,I,t,493,1,3165.4000000059605,661221.3999999911,8111,WL,A,10.0
5,26.141000032424927,learn,60000.0,Wed May 13 2026 17:41:51 GMT-0500 (Central Daylight Time),664703.299999997,A,saltenter,I,enter,297,1,3481.9000000059605,661221.3999999911,8111,WL,A,10.0
5,26.391000032424927,learn,60000.0,Wed May 13 2026 17:41:51 GMT-0500 (Central Daylight Time),664953.1999999881,A,f,I,f,245,1,249.69999998807907,664703.5,8111,WL,A,11.0
5,26.590999841690063,learn,60000.0,Wed May 13 2026 17:41:51 GMT-0500 (Central Daylight Time),665153.099999994,A,fi,I,i,194,1,449.59999999403954,664703.5,8111,WL,A,11.0
5,26.69099998474121,learn,60000.0,Wed May 13 2026 17:41:51 GMT-0500 (Central Daylight Time),665253.1999999881,A,fin,I,n,91,1,549.6999999880791,664703.5,8111,WL,A,11.0
5,26.824999809265137,learn,60000.0,Wed May 13 2026 17:41:51 GMT-0500 (Central Daylight Time),665386.5,A,fing,I,g,127,1,683.0,664703.5,8111,WL,A,11.0
5,27.0239999294281,learn,60000.0,Wed May 13 2026 17:41:51 GMT-0500 (Central Daylight Time),665586.1999999881,A,finge,I,e,193,1,882.6999999880791,664703.5,8111,WL,A,11.0
5,27.125,learn,60000.0,Wed May 13 2026 17:41:51 GMT-0500 (Central Daylight Time),665686.3999999911,A,finger,I,r,82,1,982.8999999910593,664703.5,8111,WL,A,11.0
5,27.44099998474121,learn,60000.0,Wed May 13 2026 17:41:51 GMT-0500 (Central Daylight Time),666003.0,A,fingerenter,I,enter,309,1,1299.5,664703.5,8111,WL,A,11.0
5,27.641000032424927,learn,60000.0,Wed May 13 2026 17:41:51 GMT-0500 (Central Daylight Time),666202.8999999911,A,a,I,a,194,1,199.59999999403954,666003.299999997,8111,WL,A,12.0
5,27.924000024795532,learn,60000.0,Wed May 13 2026 17:41:51 GMT-0500 (Central Daylight Time),666486.1999999881,A,ap,I,p,274,1,482.8999999910593,666003.299999997,8111,WL,A,12.0
5,28.057999849319458,learn,60000.0,Wed May 13 2026 17:41:51 GMT-0500 (Central Daylight Time),666619.5,A,app,I,p,126,1,616.2000000029802,666003.299999997,8111,WL,A,12.0
5,28.223999977111816,learn,60000.0,Wed May 13 2026 17:41:51 GMT-0500 (Central Daylight Time),666786.099999994,A,appl,I,l,160,1,782.7999999970198,666003.299999997,8111,WL,A,12.0
5,28.656999826431274,learn,60000.0,Wed May 13 2026 17:41:51 GMT-0500 (Central Daylight Time),667219.099999994,A,apple,I,e,425,1,1215.7999999970198,666003.299999997,8111,WL,A,12.0
5,29.141000032424927,learn,60000.0,Wed May 13 2026 17:41:51 GMT-0500 (Central Daylight Time),667702.3999999911,A,appleenter,I,enter,464,1,1699.0999999940395,666003.299999997,8111,WL,A,12.0
5,33.27300000190735,learn,60000.0,Wed May 13 2026 17:41:51 GMT-0500 (Central Daylight Time),671834.5,A,k,I,k,4126,1,4131.9000000059605,667702.599999994,8111,WL,A,13.0
5,33.33899998664856,learn,60000.0,Wed May 13 2026 17:41:51 GMT-0500 (Central Daylight Time),671901.299999997,A,ke,I,e,58,1,4198.70000000298,667702.599999994,8111,WL,A,13.0
5,33.57200002670288,learn,60000.0,Wed May 13 2026 17:41:51 GMT-0500 (Central Daylight Time),672134.299999997,A,key,I,y,215,1,4431.70000000298,667702.599999994,8111,WL,A,13.0
5,33.92199993133545,learn,60000.0,Wed May 13 2026 17:41:51 GMT-0500 (Central Daylight Time),672484.299999997,A,keyenter,I,enter,342,1,4781.70000000298,667702.599999994,8111,WL,A,13.0
5,36.92199993133545,learn,60000.0,Wed May 13 2026 17:41:51 GMT-0500 (Central Daylight Time),675483.3999999911,A,r,I,r,2993,1,2998.7999999970198,672484.599999994,8111,WL,A,14.0
5,37.07200002670288,learn,60000.0,Wed May 13 2026 17:41:51 GMT-0500 (Central Daylight Time),675633.599999994,A,ra,I,a,136,1,3149.0,672484.599999994,8111,WL,A,14.0
5,37.287999868392944,learn,60000.0,Wed May 13 2026 17:41:51 GMT-0500 (Central Daylight Time),675849.799999997,A,rat,I,t,210,1,3365.2000000029802,672484.599999994,8111,WL,A,14.0
5,37.437999963760376,learn,60000.0,Wed May 13 2026 17:41:51 GMT-0500 (Central Daylight Time),675999.6999999881,A,ratt,I,t,130,1,3515.0999999940395,672484.599999994,8111,WL,A,14.0
5,37.58799982070923,learn,60000.0,Wed May 13 2026 17:41:51 GMT-0500 (Central Daylight Time),676149.6999999881,A,rattl,I,l,140,1,3665.0999999940395,672484.599999994,8111,WL,A,14.0
5,37.704999923706055,learn,60000.0,Wed May 13 2026 17:41:51 GMT-0500 (Central Daylight Time),676266.5,A,rattle,I,e,111,1,3781.9000000059605,672484.599999994,8111,WL,A,14.0
5,37.97099995613098,learn,60000.0,Wed May 13 2026 17:41:51 GMT-0500 (Central Daylight Time),676533.0,A,rattleenter,I,enter,250,1,4048.4000000059605,672484.599999994,8111,WL,A,14.0
5,39.83699989318848,learn,60000.0,Wed May 13 2026 17:41:51 GMT-0500 (Central Daylight Time),678399.0,A,g,I,g,1847,1,1865.6000000089407,676533.3999999911,8111,WL,A,15.0
5,39.9539999961853,learn,60000.0,Wed May 13 2026 17:41:51 GMT-0500 (Central Daylight Time),678515.6999999881,A,go,I,o,101,1,1982.2999999970198,676533.3999999911,8111,WL,A,15.0
5,40.120999813079834,learn,60000.0,Wed May 13 2026 17:41:51 GMT-0500 (Central Daylight Time),678682.299999997,A,gol,I,l,161,1,2148.9000000059605,676533.3999999911,8111,WL,A,15.0
5,40.25399994850159,learn,60000.0,Wed May 13 2026 17:41:51 GMT-0500 (Central Daylight Time),678815.599999994,A,gold,I,d,113,1,2282.2000000029802,676533.3999999911,8111,WL,A,15.0
5,40.436999797821045,learn,60000.0,Wed May 13 2026 17:41:51 GMT-0500 (Central Daylight Time),678999.0,A,goldenter,I,enter,172,1,2465.6000000089407,676533.3999999911,8111,WL,A,15.0
6,1.4839999675750732,distr,58516.00003242493,Wed May 13 2026 17:41:51 GMT-0500 (Central Daylight Time),749243.599999994,B,b,I,b,1475,1,1482.7999999970198,747760.799999997,8111,WL,A,1.0
6,1.7669999599456787,distr,58233.00004005432,Wed May 13 2026 17:41:51 GMT-0500 (Central Daylight Time),749526.599999994,B,bo,I,o,263,1,1765.7999999970198,747760.799999997,8111,WL,A,1.0
6,2.0829999446868896,distr,57917.00005531311,Wed May 13 2026 17:41:51 GMT-0500 (Central Daylight Time),749843.1999999881,B,bow,I,w,301,1,2082.3999999910593,747760.799999997,8111,WL,A,1.0
6,2.3329999446868896,distr,57667.00005531311,Wed May 13 2026 17:41:51 GMT-0500 (Central Daylight Time),750093.1999999881,B,bowl,I,l,233,1,2332.3999999910593,747760.799999997,8111,WL,A,1.0
6,2.8329999446868896,distr,57167.00005531311,Wed May 13 2026 17:41:51 GMT-0500 (Central Daylight Time),750592.8999999911,B,bowlenter,I,enter,494,1,2832.0999999940395,747760.799999997,8111,WL,A,1.0
6,3.0329999923706055,distr,56967.000007629395,Wed May 13 2026 17:41:51 GMT-0500 (Central Daylight Time),750793.0,B,d,I,d,187,1,200.0,750593.0,8111,WL,A,2.0
6,3.3329999446868896,distr,56667.00005531311,Wed May 13 2026 17:41:51 GMT-0500 (Central Daylight Time),751093.0,B,da,I,a,291,1,500.0,750593.0,8111,WL,A,2.0
6,3.748999834060669,distr,56251.00016593933,Wed May 13 2026 17:41:51 GMT-0500 (Central Daylight Time),751509.599999994,B,daw,I,w,407,1,916.5999999940395,750593.0,8111,WL,A,2.0
6,4.0329999923706055,distr,55967.000007629395,Wed May 13 2026 17:41:51 GMT-0500 (Central Daylight Time),751792.6999999881,B,dawn,I,n,263,1,1199.699999988079,750593.0,8111,WL,A,2.0
6,4.448999881744385,distr,55551.000118255615,Wed May 13 2026 17:41:51 GMT-0500 (Central Daylight Time),752209.3999999911,B,dawnenter,I,enter,396,1,1616.3999999910593,750593.0,8111,WL,A,2.0
6,4.815999984741211,distr,55184.00001525879,Wed May 13 2026 17:41:51 GMT-0500 (Central Daylight Time),752575.8999999911,B,i,I,i,355,1,366.20000000298023,752209.6999999881,8111,WL,A,3.0
6,4.9659998416900635,distr,55034.00015830994,Wed May 13 2026 17:41:51 GMT-0500 (Central Daylight Time),752725.6999999881,B,in,I,n,132,1,516.0,752209.6999999881,8111,WL,A,3.0
6,5.148999929428101,distr,54851.0000705719,Wed May 13 2026 17:41:51 GMT-0500 (Central Daylight Time),752909.0,B,ins,I,s,175,1,699.3000000119209,752209.6999999881,8111,WL,A,3.0
6,5.248999834060669,distr,54751.00016593933,Wed May 13 2026 17:41:51 GMT-0500 (Central Daylight Time),753009.299999997,B,inse,I,e,88,1,799.6000000089407,752209.6999999881,8111,WL,A,3.0
6,5.58299994468689,distr,54417.00005531311,Wed May 13 2026 17:41:51 GMT-0500 (Central Daylight Time),753343.3999999911,B,insec,I,c,314,1,1133.7000000029802,752209.6999999881,8111,WL,A,3.0
6,5.815999984741211,distr,54184.00001525879,Wed May 13 2026 17:41:51 GMT-0500 (Central Daylight Time),753575.599999994,B,insect,I,t,220,1,1365.9000000059605,752209.6999999881,8111,WL,A,3.0
6,6.264999866485596,distr,53735.000133514404,Wed May 13 2026 17:41:51 GMT-0500 (Central Daylight Time),754025.099999994,B,insectenter,I,enter,444,1,1815.4000000059605,752209.6999999881,8111,WL,A,3.0
6,6.797999858856201,distr,53202.0001411438,Wed May 13 2026 17:41:51 GMT-0500 (Central Daylight Time),754558.3999999911,B,j,I,j,514,1,533.0,754025.3999999911,8111,WL,A,4.0
6,7.047999858856201,distr,52952.0001411438,Wed May 13 2026 17:41:51 GMT-0500 (Central Daylight Time),754808.3999999911,B,ju,I,u,229,1,783.0,754025.3999999911,8111,WL,A,4.0
6,7.581999778747559,distr,52418.00022125244,Wed May 13 2026 17:41:51 GMT-0500 (Central Daylight Time),755341.8999999911,B,jud,I,d,524,1,1316.5,754025.3999999911,8111,WL,A,4.0
6,7.847999811172485,distr,52152.000188827515,Wed May 13 2026 17:41:51 GMT-0500 (Central Daylight Time),755608.099999994,B,judg,I,g,246,1,1582.7000000029802,754025.3999999911,8111,WL,A,4.0
6,8.148000001907349,distr,51851.99999809265,Wed May 13 2026 17:41:51 GMT-0500 (Central Daylight Time),755908.1999999881,B,judge,I,e,292,1,1882.7999999970198,754025.3999999911,8111,WL,A,4.0
6,9.013999938964844,distr,50986.000061035156,Wed May 13 2026 17:41:51 GMT-0500 (Central Daylight Time),756774.3999999911,B,judgeenter,I,enter,848,1,2749.0,754025.3999999911,8111,WL,A,4.0
6,12.196999788284302,distr,47803.0002117157,Wed May 13 2026 17:41:51 GMT-0500 (Central Daylight Time),759956.6999999881,B,g,I,g,3174,1,3182.199999988079,756774.5,8111,WL,A,5.0
6,12.414999961853027,distr,47585.00003814697,Wed May 13 2026 17:41:51 GMT-0500 (Central Daylight Time),760174.6999999881,B,gr,I,r,198,1,3400.199999988079,756774.5,8111,WL,A,5.0
6,12.512999773025513,distr,47487.00022697449,Wed May 13 2026 17:41:51 GMT-0500 (Central Daylight Time),760273.1999999881,B,gra,I,a,85,1,3498.699999988079,756774.5,8111,WL,A,5.0
6,12.730999946594238,distr,47269.00005340576,Wed May 13 2026 17:41:51 GMT-0500 (Central Daylight Time),760491.099999994,B,gran,I,n,212,1,3716.5999999940395,756774.5,8111,WL,A,5.0
6,12.896999835968018,distr,47103.00016403198,Wed May 13 2026 17:41:51 GMT-0500 (Central Daylight Time),760656.799999997,B,grant,I,t,145,1,3882.2999999970198,756774.5,8111,WL,A,5.0
6,13.27999997138977,distr,46720.00002861023,Wed May 13 2026 17:41:51 GMT-0500 (Central Daylight Time),761040.1999999881,B,grantenter,I,enter,363,1,4265.699999988079,756774.5,8111,WL,A,5.0
6,15.428999900817871,distr,44571.00009918213,Wed May 13 2026 17:41:51 GMT-0500 (Central Daylight Time),763189.1999999881,B,p,I,p,2133,1,2148.699999988079,761040.5,8111,WL,A,6.0
6,15.645999908447266,distr,44354.000091552734,Wed May 13 2026 17:41:51 GMT-0500 (Central Daylight Time),763405.8999999911,B,po,I,o,207,1,2365.3999999910593,761040.5,8111,WL,A,6.0
6,15.77899980545044,distr,44221.00019454956,Wed May 13 2026 17:41:51 GMT-0500 (Central Daylight Time),763539.299999997,B,poo,I,o,127,1,2498.7999999970198,761040.5,8111,WL,A,6.0
6,16.01199984550476,distr,43988.00015449524,Wed May 13 2026 17:41:51 GMT-0500 (Central Daylight Time),763772.3999999911,B,pool,I,l,217,1,2731.8999999910593,761040.5,8111,WL,A,6.0
6,16.361999988555908,distr,43638.00001144409,Wed May 13 2026 17:41:51 GMT-0500 (Central Daylight Time),764121.799999997,B,poolenter,I,enter,343,1,3081.2999999970198,761040.5,8111,WL,A,6.0
6,16.828999996185303,distr,43171.0000038147,Wed May 13 2026 17:41:51 GMT-0500 (Central Daylight Time),764588.6999999881,B,s,I,s,450,1,466.69999998807907,764122.0,8111,WL,A,7.0
6,16.978999853134155,distr,43021.000146865845,Wed May 13 2026 17:41:51 GMT-0500 (Central Daylight Time),764738.799999997,B,sh,I,h,136,1,616.7999999970198,764122.0,8111,WL,A,7.0
6,17.161999940872192,distr,42838.00005912781,Wed May 13 2026 17:41:51 GMT-0500 (Central Daylight Time),764922.0,B,she,I,e,169,1,800.0,764122.0,8111,WL,A,7.0
6,17.328999996185303,distr,42671.0000038147,Wed May 13 2026 17:41:51 GMT-0500 (Central Daylight Time),765088.599999994,B,shee,I,e,146,1,966.5999999940395,764122.0,8111,WL,A,7.0
6,17.794999837875366,distr,42205.000162124634,Wed May 13 2026 17:41:51 GMT-0500 (Central Daylight Time),765555.299999997,B,sheep,I,p,452,1,1433.2999999970198,764122.0,8111,WL,A,7.0
6,18.277999877929688,distr,41722.00012207031,Wed May 13 2026 17:41:51 GMT-0500 (Central Daylight Time),766038.099999994,B,sheepenter,I,enter,472,1,1916.0999999940395,764122.0,8111,WL,A,7.0
6,23.80999994277954,distr,36190.00005722046,Wed May 13 2026 17:41:51 GMT-0500 (Central Daylight Time),771569.599999994,B,m,I,m,5526,1,5531.0999999940395,766038.5,8111,WL,A,8.0
6,23.925999879837036,distr,36074.000120162964,Wed May 13 2026 17:41:51 GMT-0500 (Central Daylight Time),771686.5,B,me,I,e,107,1,5648.0,766038.5,8111,WL,A,8.0
6,24.075999975204468,distr,35924.00002479553,Wed May 13 2026 17:41:51 GMT-0500 (Central Daylight Time),771836.5,B,mea,I,a,133,1,5798.0,766038.5,8111,WL,A,8.0
6,24.275999784469604,distr,35724.000215530396,Wed May 13 2026 17:41:51 GMT-0500 (Central Daylight Time),772036.1999999881,B,meal,I,l,183,1,5997.699999988079,766038.5,8111,WL,A,8.0
6,24.72599983215332,distr,35274.00016784668,Wed May 13 2026 17:41:51 GMT-0500 (Central Daylight Time),772486.299999997,B,mealenter,I,enter,431,1,6447.79999999702,766038.5,8111,WL,A,8.0
6,29.806999921798706,distr,30193.000078201294,Wed May 13 2026 17:41:51 GMT-0500 (Central Daylight Time),777568.0,B,s,I,s,5062,1,5081.4000000059605,772486.599999994,8111,WL,A,9.0
6,30.289999961853027,distr,29710.000038146973,Wed May 13 2026 17:41:51 GMT-0500 (Central Daylight Time),778051.099999994,B,sh,I,h,476,1,5564.5,772486.599999994,8111,WL,A,9.0
6,30.506999969482422,distr,29493.000030517578,Wed May 13 2026 17:41:51 GMT-0500 (Central Daylight Time),778267.6999999881,B,she,I,e,201,1,5781.0999999940395,772486.599999994,8111,WL,A,9.0
6,30.639999866485596,distr,29360.000133514404,Wed May 13 2026 17:41:51 GMT-0500 (Central Daylight Time),778400.8999999911,B,shee,I,e,128,1,5914.29999999702,772486.599999994,8111,WL,A,9.0
6,30.9229998588562,distr,29077.0001411438,Wed May 13 2026 17:41:51 GMT-0500 (Central Daylight Time),778684.299999997,B,sheep,I,p,275,1,6197.70000000298,772486.599999994,8111,WL,A,9.0
6,32.056999921798706,distr,27943.000078201294,Wed May 13 2026 17:41:51 GMT-0500 (Central Daylight Time),779818.3999999911,B,sheepenter,I,enter,1127,1,7331.79999999702,772486.599999994,8111,WL,A,9.0
6,60.013999938964844,distr,-13.99993896484375,Wed May 13 2026 17:41:51 GMT-0500 (Central Daylight Time),807775.1999999881,B,None,I,None,27952,1,27956.5,779818.6999999881,8111,WL,A,10.0
7,1.0490000247955322,immed,58950.99997520447,Wed May 13 2026 17:41:51 GMT-0500 (Central Daylight Time),827302.5,A,b,I,b,1031,1,1049.5,826253.0,8111,WL,A,1.0
7,1.3500001430511475,immed,58649.99985694885,Wed May 13 2026 17:41:51 GMT-0500 (Central Daylight Time),827603.5,A,bo,I,o,285,1,1350.5,826253.0,8111,WL,A,1.0
7,1.499000072479248,immed,58500.99992752075,Wed May 13 2026 17:41:51 GMT-0500 (Central Daylight Time),827752.5,A,boo,I,o,144,1,1499.5,826253.0,8111,WL,A,1.0
7,1.681999921798706,immed,58318.000078201294,Wed May 13 2026 17:41:51 GMT-0500 (Central Daylight Time),827935.599999994,A,book,I,k,172,1,1682.5999999940395,826253.0,8111,WL,A,1.0
7,2.0490000247955322,immed,57950.99997520447,Wed May 13 2026 17:41:51 GMT-0500 (Central Daylight Time),828302.099999994,A,bookenter,I,enter,348,1,2049.0999999940395,826253.0,8111,WL,A,1.0
7,2.4820001125335693,immed,57517.99988746643,Wed May 13 2026 17:41:51 GMT-0500 (Central Daylight Time),828735.1999999881,A,k,I,k,422,1,432.59999999403954,828302.599999994,8111,WL,A,2.0
7,2.5989999771118164,immed,57401.00002288818,Wed May 13 2026 17:41:51 GMT-0500 (Central Daylight Time),828851.6999999881,A,ke,I,e,101,1,549.0999999940395,828302.599999994,8111,WL,A,2.0
7,2.8489999771118164,immed,57151.00002288818,Wed May 13 2026 17:41:51 GMT-0500 (Central Daylight Time),829101.8999999911,A,key,I,y,233,1,799.2999999970198,828302.599999994,8111,WL,A,2.0
7,3.1649999618530273,immed,56835.00003814697,Wed May 13 2026 17:41:51 GMT-0500 (Central Daylight Time),829418.3999999911,A,keyenter,I,enter,302,1,1115.7999999970198,828302.599999994,8111,WL,A,2.0
7,3.5320000648498535,immed,56467.99993515015,Wed May 13 2026 17:41:51 GMT-0500 (Central Daylight Time),829785.3999999911,A,n,I,n,354,1,366.70000000298023,829418.6999999881,8111,WL,A,3.0
7,3.997999906539917,immed,56002.00009346008,Wed May 13 2026 17:41:51 GMT-0500 (Central Daylight Time),830251.3999999911,A,,I,backspace,458,1,832.7000000029802,829418.6999999881,8111,WL,A,3.0
7,4.315000057220459,immed,55684.99994277954,Wed May 13 2026 17:41:51 GMT-0500 (Central Daylight Time),830568.099999994,A,m,I,m,296,1,1149.4000000059605,829418.6999999881,8111,WL,A,3.0
7,4.4649999141693115,immed,55535.00008583069,Wed May 13 2026 17:41:51 GMT-0500 (Central Daylight Time),830718.099999994,A,me,I,e,140,1,1299.4000000059605,829418.6999999881,8111,WL,A,3.0
7,4.615000009536743,immed,55384.99999046326,Wed May 13 2026 17:41:51 GMT-0500 (Central Daylight Time),830867.799999997,A,mea,I,a,134,1,1449.1000000089407,829418.6999999881,8111,WL,A,3.0
7,4.865000009536743,immed,55134.99999046326,Wed May 13 2026 17:41:51 GMT-0500 (Central Daylight Time),831118.099999994,A,mead,I,d,233,1,1699.4000000059605,829418.6999999881,8111,WL,A,3.0
7,5.13100004196167,immed,54868.99995803833,Wed May 13 2026 17:41:51 GMT-0500 (Central Daylight Time),831384.5,A,meado,I,o,245,1,1965.800000011921,829418.6999999881,8111,WL,A,3.0
7,5.3480000495910645,immed,54651.999950408936,Wed May 13 2026 17:41:51 GMT-0500 (Central Daylight Time),831601.1999999881,A,meadow,I,w,203,1,2182.5,829418.6999999881,8111,WL,A,3.0
7,6.281000137329102,immed,53718.9998626709,Wed May 13 2026 17:41:51 GMT-0500 (Central Daylight Time),832534.099999994,A,meadowenter,I,enter,922,1,3115.4000000059605,829418.6999999881,8111,WL,A,3.0
7,10.745000123977661,immed,49254.99987602234,Wed May 13 2026 17:41:51 GMT-0500 (Central Daylight Time),836999.5,A,f,I,f,4453,1,4465.0,832534.5,8111,WL,A,4.0
7,10.878000020980835,immed,49121.999979019165,Wed May 13 2026 17:41:51 GMT-0500 (Central Daylight Time),837132.8999999911,A,fl,I,l,116,1,4598.399999991059,832534.5,8111,WL,A,4.0
7,11.09500002861023,immed,48904.99997138977,Wed May 13 2026 17:41:51 GMT-0500 (Central Daylight Time),837349.1999999881,A,flo,I,o,199,1,4814.699999988079,832534.5,8111,WL,A,4.0
7,11.295000076293945,immed,48704.999923706055,Wed May 13 2026 17:41:51 GMT-0500 (Central Daylight Time),837549.299999997,A,flow,I,w,191,1,5014.79999999702,832534.5,8111,WL,A,4.0
7,11.628000020980835,immed,48371.999979019165,Wed May 13 2026 17:41:51 GMT-0500 (Central Daylight Time),837882.3999999911,A,flowe,I,e,318,1,5347.899999991059,832534.5,8111,WL,A,4.0
7,11.861000061035156,immed,48138.999938964844,Wed May 13 2026 17:41:51 GMT-0500 (Central Daylight Time),838115.6999999881,A,flower,I,r,226,1,5581.199999988079,832534.5,8111,WL,A,4.0
7,12.495000123977661,immed,47504.99987602234,Wed May 13 2026 17:41:51 GMT-0500 (Central Daylight Time),838749.099999994,A,flowerenter,I,enter,625,1,6214.5999999940395,832534.5,8111,WL,A,4.0
7,15.144000053405762,immed,44855.99994659424,Wed May 13 2026 17:41:51 GMT-0500 (Central Daylight Time),841398.099999994,A,c,I,c,2632,1,2648.5999999940395,838749.5,8111,WL,A,5.0
7,15.32800006866455,immed,44671.99993133545,Wed May 13 2026 17:41:51 GMT-0500 (Central Daylight Time),841582.5,A,ch,I,h,165,1,2833.0,838749.5,8111,WL,A,5.0
7,15.577000141143799,immed,44422.9998588562,Wed May 13 2026 17:41:51 GMT-0500 (Central Daylight Time),841831.299999997,A,chi,I,i,229,1,3081.7999999970198,838749.5,8111,WL,A,5.0
7,15.776999950408936,immed,44223.000049591064,Wed May 13 2026 17:41:51 GMT-0500 (Central Daylight Time),842031.1999999881,A,chim,I,m,180,1,3281.699999988079,838749.5,8111,WL,A,5.0
7,17.05999994277954,immed,42940.00005722046,Wed May 13 2026 17:41:51 GMT-0500 (Central Daylight Time),843314.0,A,chimn,I,n,1269,1,4564.5,838749.5,8111,WL,A,5.0
7,17.176000118255615,immed,42823.999881744385,Wed May 13 2026 17:41:51 GMT-0500 (Central Daylight Time),843430.799999997,A,chimne,I,e,106,1,4681.29999999702,838749.5,8111,WL,A,5.0
7,17.426000118255615,immed,42573.999881744385,Wed May 13 2026 17:41:51 GMT-0500 (Central Daylight Time),843680.6999999881,A,chimney,I,y,237,1,4931.199999988079,838749.5,8111,WL,A,5.0
7,17.825999975204468,immed,42174.00002479553,Wed May 13 2026 17:41:51 GMT-0500 (Central Daylight Time),844080.8999999911,A,chimneyenter,I,enter,379,1,5331.399999991059,838749.5,8111,WL,A,5.0
7,19.509000062942505,immed,40490.999937057495,Wed May 13 2026 17:41:51 GMT-0500 (Central Daylight Time),845763.1999999881,A,g,I,g,1675,1,1682.0,844081.1999999881,8111,WL,A,6.0
7,19.658999919891357,immed,40341.00008010864,Wed May 13 2026 17:41:51 GMT-0500 (Central Daylight Time),845913.1999999881,A,go,I,o,136,1,1832.0,844081.1999999881,8111,WL,A,6.0
7,19.825000047683716,immed,40174.999952316284,Wed May 13 2026 17:41:51 GMT-0500 (Central Daylight Time),846079.8999999911,A,gol,I,l,146,1,1998.7000000029802,844081.1999999881,8111,WL,A,6.0
7,19.95900011062622,immed,40040.99988937378,Wed May 13 2026 17:41:51 GMT-0500 (Central Daylight Time),846213.0,A,gold,I,d,125,1,2131.800000011921,844081.1999999881,8111,WL,A,6.0
7,20.174999952316284,immed,39825.000047683716,Wed May 13 2026 17:41:51 GMT-0500 (Central Daylight Time),846429.599999994,A,goldenter,I,enter,207,1,2348.4000000059605,844081.1999999881,8111,WL,A,6.0
7,60.01300001144409,immed,-13.000011444091797,Wed May 13 2026 17:41:51 GMT-0500 (Central Daylight Time),886267.3999999911,A,None,I,None,39832,1,39837.39999999106,846430.0,8111,WL,A,7.0
