acc_sum,block,block_c,change,condition,correct,correct_response,datetime,endtime,face,project,response,response_time,row_sel,session_number,start_end,starttime,subject_id,task,task_vers,trial
0,prac,1,,1-Back,,,Tue Dec 09 2025 16:26:17 GMT-0600 (Central Standard Time),,124_o_f_d_a.png,O,space,2912,1,,,,7723,VNB,A,0
0,prac,1,0.0,1-Back,0.0,m,Tue Dec 09 2025 16:26:17 GMT-0600 (Central Standard Time),130040.10000002384,071_y_f_n_a.png,O,z,1485,2,,2287.399999976158,127752.70000004768,7723,VNB,A,1
1,prac,1,0.0,1-Back,1.0,m,Tue Dec 09 2025 16:26:17 GMT-0600 (Central Standard Time),132156.0,165_m_m_h_a.png,O,m,1290,3,,2105.0,130051.0,7723,VNB,A,2
2,prac,1,0.0,1-Back,1.0,m,Tue Dec 09 2025 16:26:17 GMT-0600 (Central Standard Time),134149.60000002384,109_y_m_d_a.png,O,m,1106,4,,1982.1000000238419,132167.5,7723,VNB,A,3
3,prac,1,0.0,1-Back,1.0,m,Tue Dec 09 2025 16:26:17 GMT-0600 (Central Standard Time),136121.40000009537,124_o_f_n_a.png,O,m,1114,5,,1956.7000000476837,134164.70000004768,7723,VNB,A,4
4,prac,1,1.0,1-Back,1.0,z,Tue Dec 09 2025 16:26:17 GMT-0600 (Central Standard Time),137954.20000004768,109_y_m_n_a.png,O,z,1012,6,,1820.8999999761581,136133.30000007153,7723,VNB,A,5
5,prac,1,0.0,1-Back,1.0,m,Tue Dec 09 2025 16:26:17 GMT-0600 (Central Standard Time),139537.0,039_o_m_h_a.png,O,m,769,7,,1569.0999999046326,137967.90000009537,7723,VNB,A,6
6,prac,1,0.0,1-Back,1.0,m,Tue Dec 09 2025 16:26:17 GMT-0600 (Central Standard Time),141219.70000004768,139_m_f_d_a.png,O,m,867,8,,1671.5,139548.20000004768,7723,VNB,A,7
6,prac,1,1.0,1-Back,0.0,z,Tue Dec 09 2025 16:26:17 GMT-0600 (Central Standard Time),143002.5,071_y_f_d_a.png,O,m,977,9,,1771.2999999523163,141231.20000004768,7723,VNB,A,8
6,prac,1,0.0,1-Back,0.0,m,Tue Dec 09 2025 16:26:17 GMT-0600 (Central Standard Time),144985.10000002384,165_m_m_n_a.png,O,z,1169,10,,1970.7999999523163,143014.30000007153,7723,VNB,A,9
7,prac,1,0.0,1-Back,1.0,m,Tue Dec 09 2025 16:26:17 GMT-0600 (Central Standard Time),146884.70000004768,124_o_f_h_a.png,O,m,1067,11,,1888.6000000238419,144996.10000002384,7723,VNB,A,10
8,prac,1,0.0,1-Back,1.0,m,Tue Dec 09 2025 16:26:17 GMT-0600 (Central Standard Time),148767.40000009537,109_y_m_d_a.png,O,m,1105,12,,1871.5,146895.90000009537,7723,VNB,A,11
0,test,1,0.0,1-Back,,,Tue Dec 09 2025 16:26:17 GMT-0600 (Central Standard Time),148767.40000009537,071_y_f_d_a.png,O,space,10575,1,,1871.5,146895.90000009537,7723,VNB,A,0
1,test,1,0.0,1-Back,1.0,m,Tue Dec 09 2025 16:26:17 GMT-0600 (Central Standard Time),168644.70000004768,139_m_f_n_a.png,O,m,755,2,,1772.2999999523163,166872.40000009537,7723,VNB,A,1
2,test,1,0.0,1-Back,1.0,m,Tue Dec 09 2025 16:26:17 GMT-0600 (Central Standard Time),170443.90000009537,039_o_m_h_a.png,O,m,780,3,,1788.7000000476837,168655.20000004768,7723,VNB,A,2
3,test,1,1.0,1-Back,1.0,z,Tue Dec 09 2025 16:26:17 GMT-0600 (Central Standard Time),172110.0,165_m_m_h_a.png,O,z,644,4,,1656.0999999046326,170453.90000009537,7723,VNB,A,3
4,test,1,0.0,1-Back,1.0,m,Tue Dec 09 2025 16:26:17 GMT-0600 (Central Standard Time),173992.80000007153,124_o_f_n_a.png,O,m,858,5,,1873.3000000715256,172119.5,7723,VNB,A,4
5,test,1,0.0,1-Back,1.0,m,Tue Dec 09 2025 16:26:17 GMT-0600 (Central Standard Time),175842.0,109_y_m_d_a.png,O,m,832,6,,1839.5999999046326,174002.40000009537,7723,VNB,A,5
5,test,1,1.0,1-Back,0.0,z,Tue Dec 09 2025 16:26:17 GMT-0600 (Central Standard Time),177974.80000007153,139_m_f_d_a.png,O,m,1102,7,,2123.3000000715256,175851.5,7723,VNB,A,6
6,test,1,0.0,1-Back,1.0,m,Tue Dec 09 2025 16:26:17 GMT-0600 (Central Standard Time),179757.70000004768,071_y_f_h_a.png,O,m,753,8,,1772.6000000238419,177985.10000002384,7723,VNB,A,7
7,test,1,0.0,1-Back,1.0,m,Tue Dec 09 2025 16:26:17 GMT-0600 (Central Standard Time),181490.40000009537,039_o_m_n_a.png,O,m,707,9,,1722.2000000476837,179768.20000004768,7723,VNB,A,8
8,test,1,0.0,1-Back,1.0,m,Tue Dec 09 2025 16:26:17 GMT-0600 (Central Standard Time),183406.60000002384,109_y_m_h_a.png,O,m,886,10,,1905.8999999761581,181500.70000004768,7723,VNB,A,9
9,test,1,0.0,1-Back,1.0,m,Tue Dec 09 2025 16:26:17 GMT-0600 (Central Standard Time),185206.10000002384,039_o_m_d_a.png,O,m,778,11,,1788.6000000238419,183417.5,7723,VNB,A,10
10,test,1,1.0,1-Back,1.0,z,Tue Dec 09 2025 16:26:17 GMT-0600 (Central Standard Time),187022.30000007153,124_o_f_d_a.png,O,z,794,12,,1806.6000000238419,185215.70000004768,7723,VNB,A,11
11,test,1,0.0,1-Back,1.0,m,Tue Dec 09 2025 16:26:17 GMT-0600 (Central Standard Time),188754.60000002384,165_m_m_n_a.png,O,m,714,13,,1722.2999999523163,187032.30000007153,7723,VNB,A,12
12,test,1,1.0,1-Back,1.0,z,Tue Dec 09 2025 16:26:17 GMT-0600 (Central Standard Time),190737.70000004768,071_y_f_n_a.png,O,z,957,14,,1973.0,188764.70000004768,7723,VNB,A,13
13,test,1,0.0,1-Back,1.0,m,Tue Dec 09 2025 16:26:17 GMT-0600 (Central Standard Time),192537.20000004768,139_m_f_h_a.png,O,m,767,15,,1789.0,190748.20000004768,7723,VNB,A,14
14,test,1,0.0,1-Back,1.0,m,Tue Dec 09 2025 16:26:17 GMT-0600 (Central Standard Time),194336.70000004768,165_m_m_d_a.png,O,m,767,16,,1789.6000000238419,192547.10000002384,7723,VNB,A,15
15,test,1,0.0,1-Back,1.0,m,Tue Dec 09 2025 16:26:17 GMT-0600 (Central Standard Time),196402.60000002384,109_y_m_n_a.png,O,m,1040,17,,2053.0,194349.60000002384,7723,VNB,A,16
16,test,1,0.0,1-Back,1.0,m,Tue Dec 09 2025 16:26:17 GMT-0600 (Central Standard Time),198118.60000002384,124_o_f_h_a.png,O,m,694,18,,1706.2999999523163,196412.30000007153,7723,VNB,A,17
0,test,2,0.0,1-Back,,,Tue Dec 09 2025 16:26:17 GMT-0600 (Central Standard Time),198118.60000002384,109_y_m_n_a.png,O,space,2002,1,,1706.2999999523163,196412.30000007153,7723,VNB,A,0
0,test,2,0.0,1-Back,0.0,m,Tue Dec 09 2025 16:26:17 GMT-0600 (Central Standard Time),204416.70000004768,071_y_f_h_a.png,O,z,1243,2,,2256.2000000476837,202160.5,7723,VNB,A,1
1,test,2,1.0,1-Back,1.0,m,Tue Dec 09 2025 16:26:17 GMT-0600 (Central Standard Time),206649.30000007153,039_o_m_n_a.png,O,m,1200,3,,2222.8000000715256,204426.5,7723,VNB,A,2
2,test,2,0.0,1-Back,1.0,m,Tue Dec 09 2025 16:26:17 GMT-0600 (Central Standard Time),208998.70000004768,139_m_f_d_a.png,O,m,1327,4,,2339.100000023842,206659.60000002384,7723,VNB,A,3
3,test,2,0.0,1-Back,1.0,z,Tue Dec 09 2025 16:26:17 GMT-0600 (Central Standard Time),210814.60000002384,165_m_m_d_a.png,O,z,786,5,,1805.8999999761581,209008.70000004768,7723,VNB,A,4
3,test,2,0.0,1-Back,0.0,m,Tue Dec 09 2025 16:26:17 GMT-0600 (Central Standard Time),212747.20000004768,109_y_m_h_a.png,O,z,914,6,,1922.7999999523163,210824.40000009537,7723,VNB,A,5
3,test,2,1.0,1-Back,0.0,z,Tue Dec 09 2025 16:26:17 GMT-0600 (Central Standard Time),214779.90000009537,124_o_f_h_a.png,O,m,1013,7,,2022.5,212757.40000009537,7723,VNB,A,6
4,test,2,0.0,1-Back,1.0,m,Tue Dec 09 2025 16:26:17 GMT-0600 (Central Standard Time),216513.40000009537,139_m_f_n_a.png,O,m,709,8,,1723.5,214789.90000009537,7723,VNB,A,7
5,test,2,0.0,1-Back,1.0,m,Tue Dec 09 2025 16:26:17 GMT-0600 (Central Standard Time),218546.60000002384,071_y_f_d_a.png,O,m,1016,9,,2023.8999999761581,216522.70000004768,7723,VNB,A,8
6,test,2,0.0,1-Back,1.0,m,Tue Dec 09 2025 16:26:17 GMT-0600 (Central Standard Time),220211.70000004768,165_m_m_n_a.png,O,m,638,10,,1655.1000000238419,218556.60000002384,7723,VNB,A,9
7,test,2,1.0,1-Back,1.0,m,Tue Dec 09 2025 16:26:17 GMT-0600 (Central Standard Time),221927.90000009537,139_m_f_h_a.png,O,m,685,11,,1706.3000000715256,220221.60000002384,7723,VNB,A,10
8,test,2,0.0,1-Back,1.0,z,Tue Dec 09 2025 16:26:17 GMT-0600 (Central Standard Time),223760.60000002384,039_o_m_h_a.png,O,z,801,12,,1823.1000000238419,221937.5,7723,VNB,A,11
9,test,2,0.0,1-Back,1.0,m,Tue Dec 09 2025 16:26:17 GMT-0600 (Central Standard Time),225393.60000002384,109_y_m_d_a.png,O,m,600,13,,1623.6000000238419,223770.0,7723,VNB,A,12
10,test,2,0.0,1-Back,1.0,m,Tue Dec 09 2025 16:26:17 GMT-0600 (Central Standard Time),227209.20000004768,124_o_f_n_a.png,O,m,798,14,,1806.1000000238419,225403.10000002384,7723,VNB,A,13
11,test,2,0.0,1-Back,1.0,z,Tue Dec 09 2025 16:26:17 GMT-0600 (Central Standard Time),229542.0,071_y_f_n_a.png,O,z,1232,15,,2322.7999999523163,227219.20000004768,7723,VNB,A,14
12,test,2,1.0,1-Back,1.0,m,Tue Dec 09 2025 16:26:17 GMT-0600 (Central Standard Time),231241.60000002384,165_m_m_h_a.png,O,m,674,16,,1689.6000000238419,229552.0,7723,VNB,A,15
13,test,2,0.0,1-Back,1.0,m,Tue Dec 09 2025 16:26:17 GMT-0600 (Central Standard Time),233091.20000004768,124_o_f_d_a.png,O,m,822,17,,1839.7000000476837,231251.5,7723,VNB,A,16
14,test,2,1.0,1-Back,1.0,z,Tue Dec 09 2025 16:26:17 GMT-0600 (Central Standard Time),234823.80000007153,039_o_m_d_a.png,O,z,702,18,,1722.5,233101.30000007153,7723,VNB,A,17
0,test,3,1.0,1-Back,,,Tue Dec 09 2025 16:26:17 GMT-0600 (Central Standard Time),234823.80000007153,124_o_f_h_a.png,O,space,1866,1,,1722.5,233101.30000007153,7723,VNB,A,0
1,test,3,0.0,1-Back,1.0,m,Tue Dec 09 2025 16:26:17 GMT-0600 (Central Standard Time),240622.0,139_m_f_d_a.png,O,m,820,2,,1840.1999999284744,238781.80000007153,7723,VNB,A,1
2,test,3,1.0,1-Back,1.0,m,Tue Dec 09 2025 16:26:17 GMT-0600 (Central Standard Time),242887.90000009537,165_m_m_n_a.png,O,m,1235,3,,2256.2000000476837,240631.70000004768,7723,VNB,A,2
3,test,3,0.0,1-Back,1.0,z,Tue Dec 09 2025 16:26:17 GMT-0600 (Central Standard Time),244487.40000009537,124_o_f_n_a.png,O,z,576,4,,1589.1000000238419,242898.30000007153,7723,VNB,A,3
4,test,3,1.0,1-Back,1.0,m,Tue Dec 09 2025 16:26:17 GMT-0600 (Central Standard Time),246270.0,039_o_m_d_a.png,O,m,753,5,,1772.5,244497.5,7723,VNB,A,4
5,test,3,0.0,1-Back,1.0,m,Tue Dec 09 2025 16:26:17 GMT-0600 (Central Standard Time),248002.90000009537,071_y_f_h_a.png,O,m,714,6,,1722.9000000953674,246280.0,7723,VNB,A,5
6,test,3,0.0,1-Back,1.0,z,Tue Dec 09 2025 16:26:17 GMT-0600 (Central Standard Time),249885.70000004768,109_y_m_h_a.png,O,z,861,7,,1873.2999999523163,248012.40000009537,7723,VNB,A,6
7,test,3,0.0,1-Back,1.0,m,Tue Dec 09 2025 16:26:17 GMT-0600 (Central Standard Time),251501.70000004768,139_m_f_n_a.png,O,m,595,8,,1605.8999999761581,249895.80000007153,7723,VNB,A,7
8,test,3,0.0,1-Back,1.0,m,Tue Dec 09 2025 16:26:17 GMT-0600 (Central Standard Time),253184.80000007153,071_y_f_d_a.png,O,m,651,9,,1672.8999999761581,251511.90000009537,7723,VNB,A,8
9,test,3,1.0,1-Back,1.0,m,Tue Dec 09 2025 16:26:17 GMT-0600 (Central Standard Time),255117.30000007153,039_o_m_n_a.png,O,m,904,10,,1922.2000000476837,253195.10000002384,7723,VNB,A,9
10,test,3,0.0,1-Back,1.0,m,Tue Dec 09 2025 16:26:17 GMT-0600 (Central Standard Time),257466.5,165_m_m_h_a.png,O,m,1330,11,,2339.2999999523163,255127.20000004768,7723,VNB,A,10
10,test,3,0.0,1-Back,0.0,z,Tue Dec 09 2025 16:26:17 GMT-0600 (Central Standard Time),259749.40000009537,139_m_f_h_a.png,O,m,1262,12,,2273.2000000476837,257476.20000004768,7723,VNB,A,11
11,test,3,1.0,1-Back,1.0,m,Tue Dec 09 2025 16:26:17 GMT-0600 (Central Standard Time),261565.40000009537,124_o_f_d_a.png,O,m,795,13,,1805.6000000238419,259759.80000007153,7723,VNB,A,12
11,test,3,0.0,1-Back,0.0,z,Tue Dec 09 2025 16:26:17 GMT-0600 (Central Standard Time),263564.90000009537,165_m_m_d_a.png,O,m,971,14,,1989.0,261575.90000009537,7723,VNB,A,13
12,test,3,0.0,1-Back,1.0,m,Tue Dec 09 2025 16:26:17 GMT-0600 (Central Standard Time),265180.90000009537,109_y_m_n_a.png,O,m,588,15,,1605.7000000476837,263575.2000000477,7723,VNB,A,14
12,test,3,1.0,1-Back,0.0,m,Tue Dec 09 2025 16:26:17 GMT-0600 (Central Standard Time),266880.5,039_o_m_h_a.png,O,z,667,16,,1689.2999999523163,265191.2000000477,7723,VNB,A,15
13,test,3,0.0,1-Back,1.0,m,Tue Dec 09 2025 16:26:17 GMT-0600 (Central Standard Time),268579.8000000715,109_y_m_d_a.png,O,m,672,17,,1687.3999999761581,266892.40000009537,7723,VNB,A,16
14,test,3,1.0,1-Back,1.0,m,Tue Dec 09 2025 16:26:17 GMT-0600 (Central Standard Time),270612.40000009537,071_y_f_n_a.png,O,m,1012,18,,2022.4000000953674,268590.0,7723,VNB,A,17
0,test,4,1.0,1-Back,,,Tue Dec 09 2025 16:26:17 GMT-0600 (Central Standard Time),270612.40000009537,165_m_m_d_a.png,O,space,2108,1,,2022.4000000953674,268590.0,7723,VNB,A,0
1,test,4,0.0,1-Back,1.0,z,Tue Dec 09 2025 16:26:17 GMT-0600 (Central Standard Time),276677.5,039_o_m_d_a.png,O,z,903,2,,1922.7999999523163,274754.7000000477,7723,VNB,A,1
2,test,4,0.0,1-Back,1.0,m,Tue Dec 09 2025 16:26:17 GMT-0600 (Central Standard Time),278426.90000009537,109_y_m_h_a.png,O,m,731,3,,1739.7000000476837,276687.2000000477,7723,VNB,A,2
3,test,4,0.0,1-Back,1.0,m,Tue Dec 09 2025 16:26:17 GMT-0600 (Central Standard Time),280076.3000000715,139_m_f_n_a.png,O,m,630,4,,1639.8999999761581,278436.40000009537,7723,VNB,A,3
4,test,4,1.0,1-Back,1.0,m,Tue Dec 09 2025 16:26:17 GMT-0600 (Central Standard Time),281742.60000002384,124_o_f_h_a.png,O,m,636,5,,1655.6000000238419,280087.0,7723,VNB,A,4
5,test,4,0.0,1-Back,1.0,m,Tue Dec 09 2025 16:26:17 GMT-0600 (Central Standard Time),283475.3000000715,165_m_m_n_a.png,O,m,714,6,,1723.2000000476837,281752.10000002384,7723,VNB,A,5
6,test,4,0.0,1-Back,1.0,m,Tue Dec 09 2025 16:26:17 GMT-0600 (Central Standard Time),285158.0,109_y_m_d_a.png,O,m,661,7,,1673.0999999046326,283484.90000009537,7723,VNB,A,6
7,test,4,1.0,1-Back,1.0,z,Tue Dec 09 2025 16:26:17 GMT-0600 (Central Standard Time),287007.40000009537,071_y_f_d_a.png,O,z,818,8,,1837.3000000715256,285170.10000002384,7723,VNB,A,7
8,test,4,0.0,1-Back,1.0,m,Tue Dec 09 2025 16:26:17 GMT-0600 (Central Standard Time),288673.40000009537,139_m_f_h_a.png,O,m,649,9,,1655.7000000476837,287017.7000000477,7723,VNB,A,8
9,test,4,0.0,1-Back,1.0,z,Tue Dec 09 2025 16:26:17 GMT-0600 (Central Standard Time),290789.60000002384,039_o_m_h_a.png,O,z,1095,10,,2106.5,288683.10000002384,7723,VNB,A,9
10,test,4,1.0,1-Back,1.0,m,Tue Dec 09 2025 16:26:17 GMT-0600 (Central Standard Time),292539.2000000477,124_o_f_n_a.png,O,m,723,11,,1739.6000000238419,290799.60000002384,7723,VNB,A,10
11,test,4,0.0,1-Back,1.0,m,Tue Dec 09 2025 16:26:17 GMT-0600 (Central Standard Time),294188.40000009537,139_m_f_d_a.png,O,m,629,12,,1639.0,292549.40000009537,7723,VNB,A,11
12,test,4,0.0,1-Back,1.0,m,Tue Dec 09 2025 16:26:17 GMT-0600 (Central Standard Time),295721.2000000477,071_y_f_n_a.png,O,m,516,13,,1522.7000000476837,294198.5,7723,VNB,A,12
12,test,4,0.0,1-Back,0.0,m,Tue Dec 09 2025 16:26:17 GMT-0600 (Central Standard Time),297554.2000000477,124_o_f_d_a.png,O,z,816,14,,1822.3999999761581,295731.8000000715,7723,VNB,A,13
13,test,4,0.0,1-Back,1.0,m,Tue Dec 09 2025 16:26:17 GMT-0600 (Central Standard Time),300069.90000009537,071_y_f_h_a.png,O,m,1494,15,,2505.4000000953674,297564.5,7723,VNB,A,14
14,test,4,1.0,1-Back,1.0,z,Tue Dec 09 2025 16:26:17 GMT-0600 (Central Standard Time),301852.60000002384,165_m_m_h_a.png,O,z,753,16,,1772.1999999284744,300080.40000009537,7723,VNB,A,15
15,test,4,0.0,1-Back,1.0,m,Tue Dec 09 2025 16:26:17 GMT-0600 (Central Standard Time),303702.2000000477,039_o_m_n_a.png,O,m,827,17,,1839.3999999761581,301862.8000000715,7723,VNB,A,16
15,test,4,1.0,1-Back,0.0,z,Tue Dec 09 2025 16:26:17 GMT-0600 (Central Standard Time),305401.5,109_y_m_n_a.png,O,m,682,18,,1687.6999999284744,303713.8000000715,7723,VNB,A,17
0,test,5,1.0,1-Back,,,Tue Dec 09 2025 16:26:17 GMT-0600 (Central Standard Time),305401.5,039_o_m_n_a.png,O,space,3143,1,,1687.6999999284744,303713.8000000715,7723,VNB,A,0
1,test,5,1.0,1-Back,1.0,m,Tue Dec 09 2025 16:26:17 GMT-0600 (Central Standard Time),313399.10000002384,124_o_f_h_a.png,O,m,1801,2,,2822.7999999523163,310576.3000000715,7723,VNB,A,1
2,test,5,0.0,1-Back,1.0,m,Tue Dec 09 2025 16:26:17 GMT-0600 (Central Standard Time),315664.90000009537,109_y_m_d_a.png,O,m,1249,3,,2255.600000023842,313409.3000000715,7723,VNB,A,2
3,test,5,0.0,1-Back,1.0,z,Tue Dec 09 2025 16:26:17 GMT-0600 (Central Standard Time),317581.10000002384,039_o_m_d_a.png,O,z,887,4,,1906.3999999761581,315674.7000000477,7723,VNB,A,3
4,test,5,0.0,1-Back,1.0,m,Tue Dec 09 2025 16:26:17 GMT-0600 (Central Standard Time),319347.40000009537,139_m_f_h_a.png,O,m,739,5,,1756.6000000238419,317590.8000000715,7723,VNB,A,4
5,test,5,0.0,1-Back,1.0,m,Tue Dec 09 2025 16:26:17 GMT-0600 (Central Standard Time),321546.5,071_y_f_n_a.png,O,m,1181,6,,2189.1999999284744,319357.3000000715,7723,VNB,A,5
6,test,5,1.0,1-Back,1.0,z,Tue Dec 09 2025 16:26:17 GMT-0600 (Central Standard Time),323279.40000009537,124_o_f_n_a.png,O,z,613,7,,1722.9000000953674,321556.5,7723,VNB,A,6
7,test,5,0.0,1-Back,1.0,m,Tue Dec 09 2025 16:26:17 GMT-0600 (Central Standard Time),325045.40000009537,139_m_f_d_a.png,O,m,737,8,,1755.7000000476837,323289.7000000477,7723,VNB,A,7
8,test,5,0.0,1-Back,1.0,m,Tue Dec 09 2025 16:26:17 GMT-0600 (Central Standard Time),327012.60000002384,109_y_m_h_a.png,O,m,947,9,,1956.1999999284744,325056.40000009537,7723,VNB,A,8
9,test,5,0.0,1-Back,1.0,m,Tue Dec 09 2025 16:26:17 GMT-0600 (Central Standard Time),328744.60000002384,071_y_f_d_a.png,O,m,701,10,,1721.2999999523163,327023.3000000715,7723,VNB,A,9
10,test,5,0.0,1-Back,1.0,m,Tue Dec 09 2025 16:26:17 GMT-0600 (Central Standard Time),330626.8000000715,165_m_m_n_a.png,O,m,856,11,,1872.3000000715256,328754.5,7723,VNB,A,10
11,test,5,1.0,1-Back,1.0,z,Tue Dec 09 2025 16:26:17 GMT-0600 (Central Standard Time),332576.3000000715,139_m_f_n_a.png,O,z,918,12,,1939.3999999761581,330636.90000009537,7723,VNB,A,11
12,test,5,0.0,1-Back,1.0,m,Tue Dec 09 2025 16:26:17 GMT-0600 (Central Standard Time),334292.60000002384,039_o_m_h_a.png,O,m,688,13,,1705.7999999523163,332586.8000000715,7723,VNB,A,12
13,test,5,0.0,1-Back,1.0,z,Tue Dec 09 2025 16:26:17 GMT-0600 (Central Standard Time),336275.3000000715,165_m_m_h_a.png,O,z,955,14,,1972.0,334303.3000000715,7723,VNB,A,13
14,test,5,1.0,1-Back,1.0,m,Tue Dec 09 2025 16:26:17 GMT-0600 (Central Standard Time),338158.2000000477,124_o_f_d_a.png,O,m,861,15,,1872.8999999761581,336285.3000000715,7723,VNB,A,14
15,test,5,0.0,1-Back,1.0,m,Tue Dec 09 2025 16:26:17 GMT-0600 (Central Standard Time),340457.60000002384,109_y_m_n_a.png,O,m,1274,16,,2289.399999976158,338168.2000000477,7723,VNB,A,15
16,test,5,0.0,1-Back,1.0,m,Tue Dec 09 2025 16:26:17 GMT-0600 (Central Standard Time),342390.3000000715,071_y_f_h_a.png,O,m,911,17,,1919.8000000715256,340470.5,7723,VNB,A,16
17,test,5,0.0,1-Back,1.0,m,Tue Dec 09 2025 16:26:17 GMT-0600 (Central Standard Time),344522.8000000715,165_m_m_d_a.png,O,m,1114,18,,2122.3000000715256,342400.5,7723,VNB,A,17
0,prac,1,0.0,2-Back,,,Tue Dec 09 2025 16:26:17 GMT-0600 (Central Standard Time),344522.8000000715,139_m_f_n_a.png,O,space,3618,1,,2122.3000000715256,342400.5,7723,VNB,A,0
0,prac,1,0.0,2-Back,,,Tue Dec 09 2025 16:26:17 GMT-0600 (Central Standard Time),344522.8000000715,124_o_f_h_a.png,O,space,3618,2,,2122.3000000715256,342400.5,7723,VNB,A,0
1,prac,1,0.0,2-Back,1.0,m,Tue Dec 09 2025 16:26:17 GMT-0600 (Central Standard Time),426563.60000002384,039_o_m_d_a.png,O,m,835,3,,1638.5,424925.10000002384,7723,VNB,A,1
2,prac,1,1.0,2-Back,1.0,z,Tue Dec 09 2025 16:26:17 GMT-0600 (Central Standard Time),428396.40000009537,165_m_m_h_a.png,O,z,1023,4,,1820.6000000238419,426575.8000000715,7723,VNB,A,2
2,prac,1,0.0,2-Back,0.0,m,Tue Dec 09 2025 16:26:17 GMT-0600 (Central Standard Time),430145.90000009537,071_y_f_n_a.png,O,z,942,5,,1738.1000000238419,428407.8000000715,7723,VNB,A,3
2,prac,1,1.0,2-Back,0.0,z,Tue Dec 09 2025 16:26:17 GMT-0600 (Central Standard Time),432279.7000000477,039_o_m_h_a.png,O,m,1323,6,,2122.100000023842,430157.60000002384,7723,VNB,A,4
3,prac,1,1.0,2-Back,1.0,z,Tue Dec 09 2025 16:26:17 GMT-0600 (Central Standard Time),434078.2000000477,109_y_m_n_a.png,O,z,982,7,,1786.7000000476837,432291.5,7723,VNB,A,5
4,prac,1,0.0,2-Back,1.0,m,Tue Dec 09 2025 16:26:17 GMT-0600 (Central Standard Time),435860.7000000477,139_m_f_d_a.png,O,m,966,8,,1771.3999999761581,434089.3000000715,7723,VNB,A,6
4,prac,1,0.0,2-Back,0.0,m,Tue Dec 09 2025 16:26:17 GMT-0600 (Central Standard Time),437826.90000009537,124_o_f_d_a.png,O,z,1121,9,,1954.8000000715256,435872.10000002384,7723,VNB,A,7
5,prac,1,0.0,2-Back,1.0,m,Tue Dec 09 2025 16:26:17 GMT-0600 (Central Standard Time),439726.2000000477,165_m_m_h_a.png,O,m,1115,10,,1888.1000000238419,437838.10000002384,7723,VNB,A,8
6,prac,1,1.0,2-Back,1.0,z,Tue Dec 09 2025 16:26:17 GMT-0600 (Central Standard Time),441525.60000002384,071_y_f_d_a.png,O,z,1009,11,,1788.0,439737.60000002384,7723,VNB,A,9
7,prac,1,0.0,2-Back,1.0,m,Tue Dec 09 2025 16:26:17 GMT-0600 (Central Standard Time),443458.40000009537,039_o_m_n_a.png,O,m,1120,12,,1921.6000000238419,441536.8000000715,7723,VNB,A,10
0,test,1,0.0,2-Back,,,Tue Dec 09 2025 16:26:17 GMT-0600 (Central Standard Time),443458.40000009537,109_y_m_h_a.png,O,space,3530,1,,1921.6000000238419,441536.8000000715,7723,VNB,A,0
0,test,1,0.0,2-Back,,,Tue Dec 09 2025 16:26:17 GMT-0600 (Central Standard Time),443458.40000009537,124_o_f_n_a.png,O,space,3530,2,,1921.6000000238419,441536.8000000715,7723,VNB,A,0
1,test,1,0.0,2-Back,1.0,z,Tue Dec 09 2025 16:26:17 GMT-0600 (Central Standard Time),460054.2000000477,039_o_m_h_a.png,O,z,512,3,,1522.6000000238419,458531.60000002384,7723,VNB,A,1
2,test,1,0.0,2-Back,1.0,m,Tue Dec 09 2025 16:26:17 GMT-0600 (Central Standard Time),462452.60000002384,139_m_f_d_a.png,O,m,1379,4,,2388.0,460064.60000002384,7723,VNB,A,2
3,test,1,1.0,2-Back,1.0,m,Tue Dec 09 2025 16:26:17 GMT-0600 (Central Standard Time),464635.10000002384,109_y_m_n_a.png,O,m,1156,5,,2172.6999999284744,462462.40000009537,7723,VNB,A,3
3,test,1,0.0,2-Back,0.0,z,Tue Dec 09 2025 16:26:17 GMT-0600 (Central Standard Time),466684.60000002384,071_y_f_d_a.png,O,m,1021,6,,2039.1000000238419,464645.5,7723,VNB,A,4
4,test,1,0.0,2-Back,1.0,m,Tue Dec 09 2025 16:26:17 GMT-0600 (Central Standard Time),468700.5,165_m_m_h_a.png,O,m,996,7,,2003.8999999761581,466696.60000002384,7723,VNB,A,5
5,test,1,1.0,2-Back,1.0,m,Tue Dec 09 2025 16:26:17 GMT-0600 (Central Standard Time),470483.2000000477,071_y_f_n_a.png,O,m,756,8,,1772.2999999523163,468710.90000009537,7723,VNB,A,6
6,test,1,0.0,2-Back,1.0,z,Tue Dec 09 2025 16:26:17 GMT-0600 (Central Standard Time),472482.60000002384,124_o_f_h_a.png,O,z,981,9,,1988.6999999284744,470493.90000009537,7723,VNB,A,7
7,test,1,0.0,2-Back,1.0,m,Tue Dec 09 2025 16:26:17 GMT-0600 (Central Standard Time),474732.0,039_o_m_d_a.png,O,m,1222,10,,2239.0,472493.0,7723,VNB,A,8
8,test,1,1.0,2-Back,1.0,m,Tue Dec 09 2025 16:26:17 GMT-0600 (Central Standard Time),476914.60000002384,165_m_m_d_a.png,O,m,1157,11,,2171.6999999284744,474742.90000009537,7723,VNB,A,9
9,test,1,0.0,2-Back,1.0,m,Tue Dec 09 2025 16:26:17 GMT-0600 (Central Standard Time),478963.90000009537,139_m_f_n_a.png,O,m,1030,12,,2038.6000000238419,476925.3000000715,7723,VNB,A,10
10,test,1,0.0,2-Back,1.0,m,Tue Dec 09 2025 16:26:17 GMT-0600 (Central Standard Time),480813.5,071_y_f_h_a.png,O,m,827,13,,1839.5,478974.0,7723,VNB,A,11
11,test,1,0.0,2-Back,1.0,z,Tue Dec 09 2025 16:26:17 GMT-0600 (Central Standard Time),482896.0,165_m_m_n_a.png,O,z,1058,14,,2072.399999976158,480823.60000002384,7723,VNB,A,12
12,test,1,0.0,2-Back,1.0,m,Tue Dec 09 2025 16:26:17 GMT-0600 (Central Standard Time),485311.90000009537,109_y_m_d_a.png,O,m,1392,15,,2404.600000023842,482907.3000000715,7723,VNB,A,13
12,test,1,1.0,2-Back,0.0,m,Tue Dec 09 2025 16:26:17 GMT-0600 (Central Standard Time),487511.40000009537,139_m_f_h_a.png,O,z,1168,16,,2189.100000023842,485322.3000000715,7723,VNB,A,14
13,test,1,0.0,2-Back,1.0,z,Tue Dec 09 2025 16:26:17 GMT-0600 (Central Standard Time),489593.7000000477,124_o_f_d_a.png,O,z,1065,17,,2071.7999999523163,487521.90000009537,7723,VNB,A,15
13,test,1,0.0,2-Back,0.0,m,Tue Dec 09 2025 16:26:17 GMT-0600 (Central Standard Time),492243.0,039_o_m_n_a.png,O,z,1622,18,,2635.7999999523163,489607.2000000477,7723,VNB,A,16
0,test,2,0.0,2-Back,,,Tue Dec 09 2025 16:26:17 GMT-0600 (Central Standard Time),492243.0,165_m_m_h_a.png,O,space,2077,1,,2635.7999999523163,489607.2000000477,7723,VNB,A,0
0,test,2,0.0,2-Back,,,Tue Dec 09 2025 16:26:17 GMT-0600 (Central Standard Time),492243.0,071_y_f_n_a.png,O,space,2077,2,,2635.7999999523163,489607.2000000477,7723,VNB,A,0
0,test,2,1.0,2-Back,0.0,z,Tue Dec 09 2025 16:26:17 GMT-0600 (Central Standard Time),501206.90000009537,124_o_f_h_a.png,O,m,735,3,,1755.7000000476837,499451.2000000477,7723,VNB,A,1
1,test,2,0.0,2-Back,1.0,m,Tue Dec 09 2025 16:26:17 GMT-0600 (Central Standard Time),503505.90000009537,039_o_m_d_a.png,O,m,1282,4,,2288.5,501217.40000009537,7723,VNB,A,2
1,test,2,0.0,2-Back,0.0,m,Tue Dec 09 2025 16:26:17 GMT-0600 (Central Standard Time),505722.0,139_m_f_d_a.png,O,z,1198,5,,2206.1999999284744,503515.8000000715,7723,VNB,A,3
2,test,2,0.0,2-Back,1.0,m,Tue Dec 09 2025 16:26:17 GMT-0600 (Central Standard Time),508271.0,109_y_m_h_a.png,O,m,1525,6,,2538.5,505732.5,7723,VNB,A,4
2,test,2,0.0,2-Back,0.0,m,Tue Dec 09 2025 16:26:17 GMT-0600 (Central Standard Time),510453.7000000477,124_o_f_n_a.png,O,z,1152,7,,2171.5,508282.2000000477,7723,VNB,A,5
3,test,2,1.0,2-Back,1.0,z,Tue Dec 09 2025 16:26:17 GMT-0600 (Central Standard Time),512436.3000000715,039_o_m_h_a.png,O,z,950,8,,1971.5,510464.8000000715,7723,VNB,A,6
4,test,2,0.0,2-Back,1.0,m,Tue Dec 09 2025 16:26:17 GMT-0600 (Central Standard Time),514602.8000000715,071_y_f_d_a.png,O,m,1140,9,,2154.8000000715256,512448.0,7723,VNB,A,7
5,test,2,0.0,2-Back,1.0,m,Tue Dec 09 2025 16:26:17 GMT-0600 (Central Standard Time),516768.7000000477,109_y_m_d_a.png,O,m,1150,10,,2151.7000000476837,514617.0,7723,VNB,A,8
6,test,2,0.0,2-Back,1.0,m,Tue Dec 09 2025 16:26:17 GMT-0600 (Central Standard Time),519019.10000002384,165_m_m_n_a.png,O,m,1232,11,,2240.100000023842,516779.0,7723,VNB,A,9
7,test,2,0.0,2-Back,1.0,m,Tue Dec 09 2025 16:26:17 GMT-0600 (Central Standard Time),521167.40000009537,139_m_f_h_a.png,O,m,1118,12,,2138.2000000476837,519029.2000000477,7723,VNB,A,10
7,test,2,1.0,2-Back,0.0,z,Tue Dec 09 2025 16:26:17 GMT-0600 (Central Standard Time),523466.3000000715,039_o_m_n_a.png,O,m,1281,13,,2288.600000023842,521177.7000000477,7723,VNB,A,11
8,test,2,0.0,2-Back,1.0,m,Tue Dec 09 2025 16:26:17 GMT-0600 (Central Standard Time),525499.2000000477,124_o_f_d_a.png,O,m,1006,14,,2022.7000000476837,523476.5,7723,VNB,A,12
8,test,2,0.0,2-Back,0.0,m,Tue Dec 09 2025 16:26:17 GMT-0600 (Central Standard Time),527865.1000000238,071_y_f_h_a.png,O,z,1349,15,,2355.100000023842,525510.0,7723,VNB,A,13
8,test,2,0.0,2-Back,0.0,z,Tue Dec 09 2025 16:26:17 GMT-0600 (Central Standard Time),530047.9000000954,165_m_m_d_a.png,O,m,1158,16,,2172.4000000953674,527875.5,7723,VNB,A,14
9,test,2,0.0,2-Back,1.0,m,Tue Dec 09 2025 16:26:17 GMT-0600 (Central Standard Time),531813.9000000954,109_y_m_n_a.png,O,m,735,17,,1755.0,530058.9000000954,7723,VNB,A,15
9,test,2,1.0,2-Back,0.0,m,Tue Dec 09 2025 16:26:17 GMT-0600 (Central Standard Time),534213.3000000715,139_m_f_n_a.png,O,z,1370,18,,2387.8000000715256,531825.5,7723,VNB,A,16
0,test,3,1.0,2-Back,,,Tue Dec 09 2025 16:26:17 GMT-0600 (Central Standard Time),534213.3000000715,039_o_m_n_a.png,O,space,2099,1,,2387.8000000715256,531825.5,7723,VNB,A,0
0,test,3,1.0,2-Back,,,Tue Dec 09 2025 16:26:17 GMT-0600 (Central Standard Time),534213.3000000715,124_o_f_d_a.png,O,space,2099,2,,2387.8000000715256,531825.5,7723,VNB,A,0
0,test,3,0.0,2-Back,0.0,m,Tue Dec 09 2025 16:26:17 GMT-0600 (Central Standard Time),544410.0,071_y_f_h_a.png,O,None,2016,3,,3022.5,541387.5,7723,VNB,A,1
1,test,3,0.0,2-Back,1.0,z,Tue Dec 09 2025 16:26:17 GMT-0600 (Central Standard Time),545942.8000000715,139_m_f_d_a.png,O,z,510,4,,1521.7000000476837,544421.1000000238,7723,VNB,A,2
1,test,3,1.0,2-Back,0.0,m,Tue Dec 09 2025 16:26:17 GMT-0600 (Central Standard Time),548975.4000000954,109_y_m_n_a.png,O,None,2016,5,,3021.7000000476837,545953.7000000477,7723,VNB,A,3
1,test,3,0.0,2-Back,0.0,m,Tue Dec 09 2025 16:26:17 GMT-0600 (Central Standard Time),552007.8000000715,039_o_m_h_a.png,O,None,2016,6,,3022.2000000476837,548985.6000000238,7723,VNB,A,4
2,test,3,0.0,2-Back,1.0,z,Tue Dec 09 2025 16:26:17 GMT-0600 (Central Standard Time),553524.0,071_y_f_n_a.png,O,z,489,7,,1505.3999999761581,552018.6000000238,7723,VNB,A,5
2,test,3,1.0,2-Back,0.0,m,Tue Dec 09 2025 16:26:17 GMT-0600 (Central Standard Time),555406.6000000238,165_m_m_d_a.png,O,z,853,8,,1872.3999999761581,553534.2000000477,7723,VNB,A,6
2,test,3,0.0,2-Back,0.0,m,Tue Dec 09 2025 16:26:17 GMT-0600 (Central Standard Time),558039.0,109_y_m_d_a.png,O,z,1610,9,,2621.6999999284744,555417.3000000715,7723,VNB,A,7
2,test,3,0.0,2-Back,0.0,m,Tue Dec 09 2025 16:26:17 GMT-0600 (Central Standard Time),561071.5,124_o_f_h_a.png,O,None,2016,10,,3021.899999976158,558049.6000000238,7723,VNB,A,8
2,test,3,1.0,2-Back,0.0,m,Tue Dec 09 2025 16:26:17 GMT-0600 (Central Standard Time),563553.7000000477,139_m_f_n_a.png,O,z,1465,11,,2471.7999999523163,561081.9000000954,7723,VNB,A,9
3,test,3,1.0,2-Back,1.0,z,Tue Dec 09 2025 16:26:17 GMT-0600 (Central Standard Time),565586.6000000238,165_m_m_h_a.png,O,z,1015,12,,2022.2999999523163,563564.3000000715,7723,VNB,A,10
3,test,3,0.0,2-Back,0.0,m,Tue Dec 09 2025 16:26:17 GMT-0600 (Central Standard Time),568619.0,071_y_f_d_a.png,O,None,2016,13,,3021.899999976158,565597.1000000238,7723,VNB,A,11
3,test,3,0.0,2-Back,0.0,m,Tue Dec 09 2025 16:26:17 GMT-0600 (Central Standard Time),571651.3000000715,124_o_f_n_a.png,O,None,2015,14,,3021.399999976158,568629.9000000954,7723,VNB,A,12
4,test,3,0.0,2-Back,1.0,z,Tue Dec 09 2025 16:26:17 GMT-0600 (Central Standard Time),574000.8000000715,039_o_m_d_a.png,O,z,1317,15,,2338.399999976158,571662.4000000954,7723,VNB,A,13
4,test,3,1.0,2-Back,0.0,m,Tue Dec 09 2025 16:26:17 GMT-0600 (Central Standard Time),577033.2000000477,139_m_f_h_a.png,O,None,2016,16,,3022.0,574011.2000000477,7723,VNB,A,14
4,test,3,0.0,2-Back,0.0,m,Tue Dec 09 2025 16:26:17 GMT-0600 (Central Standard Time),578932.6000000238,165_m_m_n_a.png,O,z,879,17,,1889.2999999523163,577043.3000000715,7723,VNB,A,15
4,test,3,0.0,2-Back,0.0,z,Tue Dec 09 2025 16:26:17 GMT-0600 (Central Standard Time),582079.6000000238,109_y_m_h_a.png,O,None,2130,18,,3136.600000023842,578943.0,7723,VNB,A,16
0,test,4,0.0,2-Back,,,Tue Dec 09 2025 16:26:17 GMT-0600 (Central Standard Time),582079.6000000238,139_m_f_n_a.png,O,space,1625,1,,3136.600000023842,578943.0,7723,VNB,A,0
0,test,4,0.0,2-Back,,,Tue Dec 09 2025 16:26:17 GMT-0600 (Central Standard Time),582079.6000000238,039_o_m_n_a.png,O,space,1625,2,,3136.600000023842,578943.0,7723,VNB,A,0
1,test,4,1.0,2-Back,1.0,m,Tue Dec 09 2025 16:26:17 GMT-0600 (Central Standard Time),590962.0,109_y_m_h_a.png,O,m,1140,3,,2155.5,588806.5,7723,VNB,A,1
2,test,4,1.0,2-Back,1.0,m,Tue Dec 09 2025 16:26:17 GMT-0600 (Central Standard Time),593227.9000000954,124_o_f_d_a.png,O,m,1238,4,,2255.5,590972.4000000954,7723,VNB,A,2
3,test,4,0.0,2-Back,1.0,z,Tue Dec 09 2025 16:26:17 GMT-0600 (Central Standard Time),595193.9000000954,039_o_m_h_a.png,O,z,948,5,,1954.3000000715256,593239.6000000238,7723,VNB,A,3
4,test,4,0.0,2-Back,1.0,m,Tue Dec 09 2025 16:26:17 GMT-0600 (Central Standard Time),597560.3000000715,165_m_m_n_a.png,O,m,1342,6,,2355.5,595204.8000000715,7723,VNB,A,4
5,test,4,0.0,2-Back,1.0,m,Tue Dec 09 2025 16:26:17 GMT-0600 (Central Standard Time),599809.8000000715,139_m_f_d_a.png,O,m,1216,7,,2238.5,597571.3000000715,7723,VNB,A,5
6,test,4,0.0,2-Back,1.0,z,Tue Dec 09 2025 16:26:17 GMT-0600 (Central Standard Time),602009.0,071_y_f_n_a.png,O,z,1167,8,,2188.7999999523163,599820.2000000477,7723,VNB,A,6
7,test,4,1.0,2-Back,1.0,m,Tue Dec 09 2025 16:26:17 GMT-0600 (Central Standard Time),604191.6000000238,124_o_f_h_a.png,O,m,1160,9,,2171.2999999523163,602020.3000000715,7723,VNB,A,7
8,test,4,0.0,2-Back,1.0,m,Tue Dec 09 2025 16:26:17 GMT-0600 (Central Standard Time),606424.0,165_m_m_h_a.png,O,m,1200,10,,2221.7999999523163,604202.2000000477,7723,VNB,A,8
9,test,4,0.0,2-Back,1.0,m,Tue Dec 09 2025 16:26:17 GMT-0600 (Central Standard Time),609189.8000000715,071_y_f_d_a.png,O,m,1720,11,,2747.0,606442.8000000715,7723,VNB,A,9
10,test,4,0.0,2-Back,1.0,m,Tue Dec 09 2025 16:26:17 GMT-0600 (Central Standard Time),611322.2000000477,109_y_m_n_a.png,O,m,1115,12,,2121.7999999523163,609200.4000000954,7723,VNB,A,10
11,test,4,0.0,2-Back,1.0,z,Tue Dec 09 2025 16:26:17 GMT-0600 (Central Standard Time),613554.9000000954,039_o_m_d_a.png,O,z,1206,13,,2222.100000023842,611332.8000000715,7723,VNB,A,11
11,test,4,1.0,2-Back,0.0,m,Tue Dec 09 2025 16:26:17 GMT-0600 (Central Standard Time),616237.6000000238,139_m_f_h_a.png,O,z,1653,14,,2671.6999999284744,613565.9000000954,7723,VNB,A,12
12,test,4,1.0,2-Back,1.0,m,Tue Dec 09 2025 16:26:17 GMT-0600 (Central Standard Time),618353.5,071_y_f_h_a.png,O,m,1091,15,,2105.5999999046326,616247.9000000954,7723,VNB,A,13
13,test,4,0.0,2-Back,1.0,m,Tue Dec 09 2025 16:26:17 GMT-0600 (Central Standard Time),620386.3000000715,124_o_f_n_a.png,O,m,1007,16,,2022.2000000476837,618364.1000000238,7723,VNB,A,14
14,test,4,0.0,2-Back,1.0,m,Tue Dec 09 2025 16:26:17 GMT-0600 (Central Standard Time),622668.8000000715,109_y_m_d_a.png,O,m,1262,17,,2271.2000000476837,620397.6000000238,7723,VNB,A,15
14,test,4,1.0,2-Back,0.0,m,Tue Dec 09 2025 16:26:17 GMT-0600 (Central Standard Time),624901.6000000238,165_m_m_d_a.png,O,z,1203,18,,2222.0,622679.6000000238,7723,VNB,A,16
0,test,5,1.0,2-Back,,,Tue Dec 09 2025 16:26:17 GMT-0600 (Central Standard Time),624901.6000000238,071_y_f_d_a.png,O,space,1523,1,,2222.0,622679.6000000238,7723,VNB,A,0
0,test,5,1.0,2-Back,,,Tue Dec 09 2025 16:26:17 GMT-0600 (Central Standard Time),624901.6000000238,124_o_f_h_a.png,O,space,1523,2,,2222.0,622679.6000000238,7723,VNB,A,0
1,test,5,1.0,2-Back,1.0,z,Tue Dec 09 2025 16:26:17 GMT-0600 (Central Standard Time),633598.7000000477,039_o_m_d_a.png,O,z,1036,3,,2055.399999976158,631543.3000000715,7723,VNB,A,1
2,test,5,1.0,2-Back,1.0,m,Tue Dec 09 2025 16:26:17 GMT-0600 (Central Standard Time),636047.9000000954,139_m_f_n_a.png,O,m,1426,4,,2437.4000000953674,633610.5,7723,VNB,A,2
3,test,5,0.0,2-Back,1.0,m,Tue Dec 09 2025 16:26:17 GMT-0600 (Central Standard Time),638147.2000000477,165_m_m_h_a.png,O,m,1080,5,,2088.600000023842,636058.6000000238,7723,VNB,A,3
3,test,5,0.0,2-Back,0.0,z,Tue Dec 09 2025 16:26:17 GMT-0600 (Central Standard Time),640646.6000000238,071_y_f_n_a.png,O,m,1469,6,,2488.600000023842,638158.0,7723,VNB,A,4
4,test,5,0.0,2-Back,1.0,m,Tue Dec 09 2025 16:26:17 GMT-0600 (Central Standard Time),643379.0,124_o_f_d_a.png,O,m,1714,7,,2722.1999999284744,640656.8000000715,7723,VNB,A,5
5,test,5,0.0,2-Back,1.0,m,Tue Dec 09 2025 16:26:17 GMT-0600 (Central Standard Time),645411.7000000477,039_o_m_h_a.png,O,m,1004,8,,2022.5,643389.2000000477,7723,VNB,A,6
6,test,5,1.0,2-Back,1.0,z,Tue Dec 09 2025 16:26:17 GMT-0600 (Central Standard Time),647611.1000000238,139_m_f_d_a.png,O,z,1181,9,,2188.6999999284744,645422.4000000954,7723,VNB,A,7
7,test,5,0.0,2-Back,1.0,m,Tue Dec 09 2025 16:26:17 GMT-0600 (Central Standard Time),650510.0,109_y_m_n_a.png,O,m,1877,10,,2888.1999999284744,647621.8000000715,7723,VNB,A,8
8,test,5,0.0,2-Back,1.0,m,Tue Dec 09 2025 16:26:17 GMT-0600 (Central Standard Time),653292.6000000238,165_m_m_n_a.png,O,m,1762,11,,2772.399999976158,650520.2000000477,7723,VNB,A,9
9,test,5,0.0,2-Back,1.0,m,Tue Dec 09 2025 16:26:17 GMT-0600 (Central Standard Time),655542.0,071_y_f_h_a.png,O,m,1228,12,,2239.0,653303.0,7723,VNB,A,10
10,test,5,0.0,2-Back,1.0,m,Tue Dec 09 2025 16:26:17 GMT-0600 (Central Standard Time),657741.1000000238,109_y_m_d_a.png,O,m,1179,13,,2188.1999999284744,655552.9000000954,7723,VNB,A,11
11,test,5,1.0,2-Back,1.0,z,Tue Dec 09 2025 16:26:17 GMT-0600 (Central Standard Time),659807.2000000477,139_m_f_h_a.png,O,z,1043,14,,2055.600000023842,657751.6000000238,7723,VNB,A,12
11,test,5,0.0,2-Back,0.0,m,Tue Dec 09 2025 16:26:17 GMT-0600 (Central Standard Time),662341.1000000238,039_o_m_n_a.png,O,z,1513,15,,2522.100000023842,659819.0,7723,VNB,A,13
12,test,5,0.0,2-Back,1.0,m,Tue Dec 09 2025 16:26:17 GMT-0600 (Central Standard Time),664888.9000000954,165_m_m_d_a.png,O,m,1517,16,,2538.7000000476837,662350.2000000477,7723,VNB,A,14
13,test,5,0.0,2-Back,1.0,z,Tue Dec 09 2025 16:26:17 GMT-0600 (Central Standard Time),667105.0,124_o_f_n_a.png,O,z,1183,17,,2206.899999976158,664898.1000000238,7723,VNB,A,15
14,test,5,1.0,2-Back,1.0,m,Tue Dec 09 2025 16:26:17 GMT-0600 (Central Standard Time),669454.1000000238,109_y_m_h_a.png,O,m,1319,18,,2338.600000023842,667115.5,7723,VNB,A,16
