acc_sum,block,block_c,change,condition,correct,correct_response,datetime,endtime,face,project,response,response_time,row_sel,session_number,start_end,starttime,subject_id,task,task_vers,trial
0,prac,1,,1-Back,,,Fri May 23 2025 14:23:06 GMT-0500 (Central Daylight Time),,012_o_f_d_a.png,O,space,9178,1,1,,,7152,VNB,C,0
1,prac,1,0.0,1-Back,1,m,Fri May 23 2025 14:23:06 GMT-0500 (Central Daylight Time),146613.7999999998,022_y_f_n_a.png,O,m,1058,2,1,1940.6999999997206,144673.1000000001,7152,VNB,C,1
1,prac,1,0.0,1-Back,0,m,Fri May 23 2025 14:23:06 GMT-0500 (Central Daylight Time),148511.5,014_m_m_h_a.png,O,z,1013,3,1,1885.3999999999069,146626.1000000001,7152,VNB,C,2
2,prac,1,0.0,1-Back,1,m,Fri May 23 2025 14:23:06 GMT-0500 (Central Daylight Time),150509.0,025_y_m_d_a.png,O,m,1111,4,1,1986.5,148522.5,7152,VNB,C,3
3,prac,1,0.0,1-Back,1,m,Fri May 23 2025 14:23:06 GMT-0500 (Central Daylight Time),152210.8999999999,012_o_f_n_a.png,O,m,815,5,1,1697.2000000001863,150513.69999999972,7152,VNB,C,4
4,prac,1,1.0,1-Back,1,z,Fri May 23 2025 14:23:06 GMT-0500 (Central Daylight Time),154161.1000000001,025_y_m_n_a.png,O,z,1093,6,1,1938.8000000002794,152222.2999999998,7152,VNB,C,5
5,prac,1,0.0,1-Back,1,m,Fri May 23 2025 14:23:06 GMT-0500 (Central Daylight Time),156076.6000000001,015_o_m_h_a.png,O,m,1006,7,1,1898.5,154178.1000000001,7152,VNB,C,6
6,prac,1,0.0,1-Back,1,m,Fri May 23 2025 14:23:06 GMT-0500 (Central Daylight Time),157892.3999999999,019_m_f_d_a.png,O,m,905,8,1,1804.7999999998137,156087.6000000001,7152,VNB,C,7
7,prac,1,1.0,1-Back,1,z,Fri May 23 2025 14:23:06 GMT-0500 (Central Daylight Time),159691.1000000001,022_y_f_d_a.png,O,z,907,9,1,1788.2000000001863,157902.8999999999,7152,VNB,C,8
8,prac,1,0.0,1-Back,1,m,Fri May 23 2025 14:23:06 GMT-0500 (Central Daylight Time),161441.69999999972,014_m_m_n_a.png,O,m,884,10,1,1740.0999999996275,159701.6000000001,7152,VNB,C,9
8,prac,1,0.0,1-Back,0,m,Fri May 23 2025 14:23:06 GMT-0500 (Central Daylight Time),163242.19999999972,012_o_f_h_a.png,O,z,906,11,1,1791.2999999998137,161450.8999999999,7152,VNB,C,10
9,prac,1,0.0,1-Back,1,m,Fri May 23 2025 14:23:06 GMT-0500 (Central Daylight Time),165508.2999999998,025_y_m_d_a.png,O,m,1388,12,1,2256.5,163251.7999999998,7152,VNB,C,11
0,test,1,0.0,1-Back,,,Fri May 23 2025 14:23:06 GMT-0500 (Central Daylight Time),165508.2999999998,022_y_f_d_a.png,O,space,13096,1,1,2256.5,163251.7999999998,7152,VNB,C,0
1,test,1,0.0,1-Back,1,m,Fri May 23 2025 14:23:06 GMT-0500 (Central Daylight Time),191714.19999999972,019_m_f_n_a.png,O,m,811,2,1,1825.5999999996275,189888.6000000001,7152,VNB,C,1
2,test,1,0.0,1-Back,1,m,Fri May 23 2025 14:23:06 GMT-0500 (Central Daylight Time),193880.19999999972,015_o_m_h_a.png,O,m,1137,3,1,2158.0,191722.19999999972,7152,VNB,C,2
3,test,1,1.0,1-Back,1,z,Fri May 23 2025 14:23:06 GMT-0500 (Central Daylight Time),195713.69999999972,014_m_m_h_a.png,O,z,800,4,1,1824.7999999998137,193888.8999999999,7152,VNB,C,3
4,test,1,0.0,1-Back,1,m,Fri May 23 2025 14:23:06 GMT-0500 (Central Daylight Time),197564.69999999972,012_o_f_n_a.png,O,m,819,5,1,1842.3999999999069,195722.2999999998,7152,VNB,C,4
5,test,1,0.0,1-Back,1,m,Fri May 23 2025 14:23:06 GMT-0500 (Central Daylight Time),199711.69999999972,025_y_m_d_a.png,O,m,1122,6,1,2140.2999999998137,197571.3999999999,7152,VNB,C,5
6,test,1,1.0,1-Back,1,z,Fri May 23 2025 14:23:06 GMT-0500 (Central Daylight Time),201527.7999999998,019_m_f_d_a.png,O,z,790,7,1,1809.7999999998137,199718.0,7152,VNB,C,6
7,test,1,0.0,1-Back,1,m,Fri May 23 2025 14:23:06 GMT-0500 (Central Daylight Time),203578.2999999998,022_y_f_h_a.png,O,m,1020,8,1,2042.5,201535.7999999998,7152,VNB,C,7
8,test,1,0.0,1-Back,1,m,Fri May 23 2025 14:23:06 GMT-0500 (Central Daylight Time),205612.19999999972,015_o_m_n_a.png,O,m,1003,9,1,2027.1999999997206,203585.0,7152,VNB,C,8
8,test,1,0.0,1-Back,0,m,Fri May 23 2025 14:23:06 GMT-0500 (Central Daylight Time),207592.0,025_y_m_h_a.png,O,z,947,10,1,1965.3999999999069,205626.6000000001,7152,VNB,C,9
9,test,1,0.0,1-Back,1,m,Fri May 23 2025 14:23:06 GMT-0500 (Central Daylight Time),209777.1000000001,015_o_m_d_a.png,O,m,1166,11,1,2178.100000000093,207599.0,7152,VNB,C,10
10,test,1,1.0,1-Back,1,z,Fri May 23 2025 14:23:06 GMT-0500 (Central Daylight Time),211790.3999999999,012_o_f_d_a.png,O,z,989,12,1,2005.7000000001863,209784.69999999972,7152,VNB,C,11
11,test,1,0.0,1-Back,1,m,Fri May 23 2025 14:23:06 GMT-0500 (Central Daylight Time),213958.1000000001,014_m_m_n_a.png,O,m,1148,13,1,2158.600000000093,211799.5,7152,VNB,C,12
12,test,1,1.0,1-Back,1,z,Fri May 23 2025 14:23:06 GMT-0500 (Central Daylight Time),216007.5,022_y_f_n_a.png,O,z,1024,14,1,2042.7000000001863,213964.7999999998,7152,VNB,C,13
13,test,1,0.0,1-Back,1,m,Fri May 23 2025 14:23:06 GMT-0500 (Central Daylight Time),218538.8999999999,019_m_f_h_a.png,O,m,1509,15,1,2523.2000000001863,216015.69999999972,7152,VNB,C,14
14,test,1,0.0,1-Back,1,m,Fri May 23 2025 14:23:06 GMT-0500 (Central Daylight Time),220771.8999999999,014_m_m_d_a.png,O,m,1200,16,1,2225.7999999998137,218546.1000000001,7152,VNB,C,15
15,test,1,0.0,1-Back,1,m,Fri May 23 2025 14:23:06 GMT-0500 (Central Daylight Time),223020.69999999972,025_y_m_n_a.png,O,m,1227,17,1,2245.0999999996275,220775.6000000001,7152,VNB,C,16
16,test,1,0.0,1-Back,1,m,Fri May 23 2025 14:23:06 GMT-0500 (Central Daylight Time),225169.6000000001,012_o_f_h_a.png,O,m,1119,18,1,2142.7000000001863,223026.8999999999,7152,VNB,C,17
0,test,2,0.0,1-Back,,,Fri May 23 2025 14:23:06 GMT-0500 (Central Daylight Time),225169.6000000001,025_y_m_n_a.png,O,space,1949,1,1,2142.7000000001863,223026.8999999999,7152,VNB,C,0
1,test,2,0.0,1-Back,1,m,Fri May 23 2025 14:23:06 GMT-0500 (Central Daylight Time),231019.1000000001,022_y_f_h_a.png,O,m,853,2,1,1875.6000000000931,229143.5,7152,VNB,C,1
2,test,2,1.0,1-Back,1,m,Fri May 23 2025 14:23:06 GMT-0500 (Central Daylight Time),232718.5,015_o_m_n_a.png,O,m,683,3,1,1691.8000000002794,231026.69999999972,7152,VNB,C,2
3,test,2,0.0,1-Back,1,m,Fri May 23 2025 14:23:06 GMT-0500 (Central Daylight Time),235067.19999999972,019_m_f_d_a.png,O,m,1326,4,1,2343.1999999997206,232724.0,7152,VNB,C,3
4,test,2,0.0,1-Back,1,z,Fri May 23 2025 14:23:06 GMT-0500 (Central Daylight Time),237082.69999999972,014_m_m_d_a.png,O,z,984,5,1,2007.5,235075.19999999972,7152,VNB,C,4
5,test,2,0.0,1-Back,1,m,Fri May 23 2025 14:23:06 GMT-0500 (Central Daylight Time),239198.69999999972,025_y_m_h_a.png,O,m,1088,6,1,2109.1999999997206,237089.5,7152,VNB,C,5
6,test,2,1.0,1-Back,1,z,Fri May 23 2025 14:23:06 GMT-0500 (Central Daylight Time),241063.7999999998,012_o_f_h_a.png,O,z,836,7,1,1859.6999999997206,239204.1000000001,7152,VNB,C,6
7,test,2,0.0,1-Back,1,m,Fri May 23 2025 14:23:06 GMT-0500 (Central Daylight Time),242947.69999999972,019_m_f_n_a.png,O,m,850,8,1,1876.0999999996275,241071.6000000001,7152,VNB,C,7
8,test,2,0.0,1-Back,1,m,Fri May 23 2025 14:23:06 GMT-0500 (Central Daylight Time),245347.6000000001,022_y_f_d_a.png,O,m,1368,9,1,2393.600000000093,242954.0,7152,VNB,C,8
9,test,2,0.0,1-Back,1,m,Fri May 23 2025 14:23:06 GMT-0500 (Central Daylight Time),247230.0,014_m_m_n_a.png,O,m,858,10,1,1875.3999999999069,245354.6000000001,7152,VNB,C,9
10,test,2,1.0,1-Back,1,m,Fri May 23 2025 14:23:06 GMT-0500 (Central Daylight Time),249379.0,019_m_f_h_a.png,O,m,1118,11,1,2142.100000000093,247236.8999999999,7152,VNB,C,10
11,test,2,0.0,1-Back,1,z,Fri May 23 2025 14:23:06 GMT-0500 (Central Daylight Time),251412.0,015_o_m_h_a.png,O,z,1009,12,1,2025.0,249387.0,7152,VNB,C,11
12,test,2,0.0,1-Back,1,m,Fri May 23 2025 14:23:06 GMT-0500 (Central Daylight Time),253296.8999999999,025_y_m_d_a.png,O,m,868,13,1,1877.5,251419.3999999999,7152,VNB,C,12
13,test,2,0.0,1-Back,1,m,Fri May 23 2025 14:23:06 GMT-0500 (Central Daylight Time),255193.5,012_o_f_n_a.png,O,m,877,14,1,1888.3000000002794,253305.19999999972,7152,VNB,C,13
14,test,2,0.0,1-Back,1,z,Fri May 23 2025 14:23:06 GMT-0500 (Central Daylight Time),257009.69999999972,022_y_f_n_a.png,O,z,793,15,1,1808.0,255201.69999999972,7152,VNB,C,14
15,test,2,1.0,1-Back,1,m,Fri May 23 2025 14:23:06 GMT-0500 (Central Daylight Time),258876.19999999972,014_m_m_h_a.png,O,m,843,16,1,1859.0,257017.19999999972,7152,VNB,C,15
16,test,2,0.0,1-Back,1,m,Fri May 23 2025 14:23:06 GMT-0500 (Central Daylight Time),260895.3999999999,012_o_f_d_a.png,O,m,1000,17,1,2012.1000000000931,258883.2999999998,7152,VNB,C,16
17,test,2,1.0,1-Back,1,z,Fri May 23 2025 14:23:06 GMT-0500 (Central Daylight Time),262691.8999999999,015_o_m_d_a.png,O,z,767,18,1,1789.1000000000931,260902.7999999998,7152,VNB,C,17
0,test,3,1.0,1-Back,,,Fri May 23 2025 14:23:06 GMT-0500 (Central Daylight Time),262691.8999999999,012_o_f_h_a.png,O,space,920,1,1,1789.1000000000931,260902.7999999998,7152,VNB,C,0
1,test,3,0.0,1-Back,1,m,Fri May 23 2025 14:23:06 GMT-0500 (Central Daylight Time),267389.6000000001,019_m_f_d_a.png,O,m,605,2,1,1623.9000000003725,265765.6999999997,7152,VNB,C,1
2,test,3,1.0,1-Back,1,m,Fri May 23 2025 14:23:06 GMT-0500 (Central Daylight Time),269274.1000000001,014_m_m_n_a.png,O,m,854,3,1,1875.7000000001863,267398.3999999999,7152,VNB,C,2
3,test,3,0.0,1-Back,1,z,Fri May 23 2025 14:23:06 GMT-0500 (Central Daylight Time),270988.5,012_o_f_n_a.png,O,z,692,4,1,1709.2000000001863,269279.2999999998,7152,VNB,C,3
4,test,3,1.0,1-Back,1,m,Fri May 23 2025 14:23:06 GMT-0500 (Central Daylight Time),272939.5,015_o_m_d_a.png,O,m,919,5,1,1943.0,270996.5,7152,VNB,C,4
5,test,3,0.0,1-Back,1,m,Fri May 23 2025 14:23:06 GMT-0500 (Central Daylight Time),275187.5,022_y_f_h_a.png,O,m,1216,6,1,2239.5,272948.0,7152,VNB,C,5
6,test,3,0.0,1-Back,1,z,Fri May 23 2025 14:23:06 GMT-0500 (Central Daylight Time),276788.6000000001,025_y_m_h_a.png,O,z,569,7,1,1593.9000000003725,275194.6999999997,7152,VNB,C,6
7,test,3,0.0,1-Back,1,m,Fri May 23 2025 14:23:06 GMT-0500 (Central Daylight Time),278488.0,019_m_f_n_a.png,O,m,684,8,1,1691.1000000000931,276796.8999999999,7152,VNB,C,7
8,test,3,0.0,1-Back,1,m,Fri May 23 2025 14:23:06 GMT-0500 (Central Daylight Time),280403.2999999998,022_y_f_d_a.png,O,m,893,9,1,1910.5,278492.7999999998,7152,VNB,C,8
9,test,3,1.0,1-Back,1,m,Fri May 23 2025 14:23:06 GMT-0500 (Central Daylight Time),282419.1999999997,015_o_m_n_a.png,O,m,978,10,1,2008.0,280411.1999999997,7152,VNB,C,9
10,test,3,0.0,1-Back,1,m,Fri May 23 2025 14:23:06 GMT-0500 (Central Daylight Time),284534.7999999998,014_m_m_h_a.png,O,m,1096,11,1,2105.6999999997206,282429.1000000001,7152,VNB,C,10
11,test,3,0.0,1-Back,1,z,Fri May 23 2025 14:23:06 GMT-0500 (Central Daylight Time),286134.6999999997,019_m_f_h_a.png,O,z,564,12,1,1571.3999999999069,284563.2999999998,7152,VNB,C,11
12,test,3,1.0,1-Back,1,m,Fri May 23 2025 14:23:06 GMT-0500 (Central Daylight Time),287901.0,012_o_f_d_a.png,O,m,742,13,1,1760.3000000002794,286140.6999999997,7152,VNB,C,12
13,test,3,0.0,1-Back,1,z,Fri May 23 2025 14:23:06 GMT-0500 (Central Daylight Time),289734.5,014_m_m_d_a.png,O,z,816,14,1,1823.5,287911.0,7152,VNB,C,13
14,test,3,0.0,1-Back,1,m,Fri May 23 2025 14:23:06 GMT-0500 (Central Daylight Time),291399.6000000001,025_y_m_n_a.png,O,m,638,15,1,1658.3000000002794,289741.2999999998,7152,VNB,C,14
15,test,3,1.0,1-Back,1,m,Fri May 23 2025 14:23:06 GMT-0500 (Central Daylight Time),293431.1000000001,015_o_m_h_a.png,O,m,1014,16,1,2024.1000000000931,291407.0,7152,VNB,C,15
16,test,3,0.0,1-Back,1,m,Fri May 23 2025 14:23:06 GMT-0500 (Central Daylight Time),295598.6000000001,025_y_m_d_a.png,O,m,1134,17,1,2162.8000000002794,293435.7999999998,7152,VNB,C,16
17,test,3,1.0,1-Back,1,m,Fri May 23 2025 14:23:06 GMT-0500 (Central Daylight Time),297764.1000000001,022_y_f_n_a.png,O,m,1142,18,1,2158.600000000093,295605.5,7152,VNB,C,17
0,test,4,1.0,1-Back,,,Fri May 23 2025 14:23:06 GMT-0500 (Central Daylight Time),297764.1000000001,014_m_m_d_a.png,O,space,784,1,1,2158.600000000093,295605.5,7152,VNB,C,0
1,test,4,0.0,1-Back,1,z,Fri May 23 2025 14:23:06 GMT-0500 (Central Daylight Time),302414.0,015_o_m_d_a.png,O,z,816,2,1,1824.3999999999069,300589.6000000001,7152,VNB,C,1
2,test,4,0.0,1-Back,1,m,Fri May 23 2025 14:23:06 GMT-0500 (Central Daylight Time),304044.5,025_y_m_h_a.png,O,m,598,3,1,1621.3999999999069,302423.1000000001,7152,VNB,C,2
3,test,4,0.0,1-Back,1,m,Fri May 23 2025 14:23:06 GMT-0500 (Central Daylight Time),305796.1000000001,019_m_f_n_a.png,O,m,720,4,1,1749.0,304047.1000000001,7152,VNB,C,3
4,test,4,1.0,1-Back,1,m,Fri May 23 2025 14:23:06 GMT-0500 (Central Daylight Time),307612.0,012_o_f_h_a.png,O,m,784,5,1,1809.8999999999069,305802.1000000001,7152,VNB,C,4
5,test,4,0.0,1-Back,1,m,Fri May 23 2025 14:23:06 GMT-0500 (Central Daylight Time),309176.6999999997,014_m_m_n_a.png,O,m,537,6,1,1556.5999999996275,307620.1000000001,7152,VNB,C,5
6,test,4,0.0,1-Back,1,m,Fri May 23 2025 14:23:06 GMT-0500 (Central Daylight Time),311227.3999999999,025_y_m_d_a.png,O,m,1019,7,1,2042.1000000000931,309185.2999999998,7152,VNB,C,6
7,test,4,1.0,1-Back,1,z,Fri May 23 2025 14:23:06 GMT-0500 (Central Daylight Time),312909.2999999998,022_y_f_d_a.png,O,z,666,8,1,1674.1999999997206,311235.1000000001,7152,VNB,C,7
8,test,4,0.0,1-Back,1,m,Fri May 23 2025 14:23:06 GMT-0500 (Central Daylight Time),314692.2999999998,019_m_f_h_a.png,O,m,760,9,1,1777.7999999998137,312914.5,7152,VNB,C,8
9,test,4,0.0,1-Back,1,z,Fri May 23 2025 14:23:06 GMT-0500 (Central Daylight Time),316441.3999999999,015_o_m_h_a.png,O,z,719,10,1,1741.1000000000931,314700.2999999998,7152,VNB,C,9
10,test,4,1.0,1-Back,1,m,Fri May 23 2025 14:23:06 GMT-0500 (Central Daylight Time),318107.5,012_o_f_n_a.png,O,m,644,11,1,1655.7000000001863,316451.7999999998,7152,VNB,C,10
11,test,4,0.0,1-Back,1,m,Fri May 23 2025 14:23:06 GMT-0500 (Central Daylight Time),320140.2999999998,019_m_f_d_a.png,O,m,1008,12,1,2025.7999999998137,318114.5,7152,VNB,C,11
12,test,4,0.0,1-Back,1,m,Fri May 23 2025 14:23:06 GMT-0500 (Central Daylight Time),321989.1000000001,022_y_f_n_a.png,O,m,823,13,1,1841.0,320148.1000000001,7152,VNB,C,12
13,test,4,0.0,1-Back,1,m,Fri May 23 2025 14:23:06 GMT-0500 (Central Daylight Time),324004.6999999997,012_o_f_d_a.png,O,m,989,14,1,2008.1999999997206,321996.5,7152,VNB,C,13
14,test,4,0.0,1-Back,1,m,Fri May 23 2025 14:23:06 GMT-0500 (Central Daylight Time),325738.6999999997,022_y_f_h_a.png,O,m,710,15,1,1725.6999999997206,324013.0,7152,VNB,C,14
15,test,4,1.0,1-Back,1,z,Fri May 23 2025 14:23:06 GMT-0500 (Central Daylight Time),327421.3999999999,014_m_m_h_a.png,O,z,649,16,1,1675.7000000001863,325745.6999999997,7152,VNB,C,15
16,test,4,0.0,1-Back,1,m,Fri May 23 2025 14:23:06 GMT-0500 (Central Daylight Time),329420.7999999998,015_o_m_n_a.png,O,m,974,17,1,1992.2999999998137,327428.5,7152,VNB,C,16
17,test,4,1.0,1-Back,1,z,Fri May 23 2025 14:23:06 GMT-0500 (Central Daylight Time),331169.2999999998,025_y_m_n_a.png,O,z,730,18,1,1740.6000000000931,329428.6999999997,7152,VNB,C,17
0,test,5,1.0,1-Back,,,Fri May 23 2025 14:23:06 GMT-0500 (Central Daylight Time),331169.2999999998,015_o_m_n_a.png,O,space,1219,1,1,1740.6000000000931,329428.6999999997,7152,VNB,C,0
1,test,5,1.0,1-Back,1,m,Fri May 23 2025 14:23:06 GMT-0500 (Central Daylight Time),336151.1000000001,012_o_f_h_a.png,O,m,707,2,1,1723.1000000000931,334428.0,7152,VNB,C,1
2,test,5,0.0,1-Back,1,m,Fri May 23 2025 14:23:06 GMT-0500 (Central Daylight Time),337651.8999999999,025_y_m_d_a.png,O,m,468,3,1,1493.7999999998137,336158.1000000001,7152,VNB,C,2
3,test,5,0.0,1-Back,1,z,Fri May 23 2025 14:23:06 GMT-0500 (Central Daylight Time),339285.8999999999,015_o_m_d_a.png,O,z,618,4,1,1626.1000000000931,337659.7999999998,7152,VNB,C,3
4,test,5,0.0,1-Back,1,m,Fri May 23 2025 14:23:06 GMT-0500 (Central Daylight Time),340800.8999999999,019_m_f_h_a.png,O,m,488,5,1,1508.0,339292.8999999999,7152,VNB,C,4
5,test,5,0.0,1-Back,1,m,Fri May 23 2025 14:23:06 GMT-0500 (Central Daylight Time),342568.1999999997,022_y_f_n_a.png,O,m,733,6,1,1760.8999999999069,340807.2999999998,7152,VNB,C,5
6,test,5,1.0,1-Back,1,z,Fri May 23 2025 14:23:06 GMT-0500 (Central Daylight Time),344284.0,012_o_f_n_a.png,O,z,695,7,1,1709.0,342575.0,7152,VNB,C,6
7,test,5,0.0,1-Back,1,m,Fri May 23 2025 14:23:06 GMT-0500 (Central Daylight Time),345814.7999999998,019_m_f_d_a.png,O,m,505,8,1,1524.2999999998137,344290.5,7152,VNB,C,7
8,test,5,0.0,1-Back,1,m,Fri May 23 2025 14:23:06 GMT-0500 (Central Daylight Time),347631.6000000001,025_y_m_h_a.png,O,m,788,9,1,1809.9000000003725,345821.6999999997,7152,VNB,C,8
9,test,5,0.0,1-Back,1,m,Fri May 23 2025 14:23:06 GMT-0500 (Central Daylight Time),349398.6000000001,022_y_f_d_a.png,O,m,742,10,1,1759.0,347639.6000000001,7152,VNB,C,9
10,test,5,0.0,1-Back,1,m,Fri May 23 2025 14:23:06 GMT-0500 (Central Daylight Time),351429.3999999999,014_m_m_n_a.png,O,m,1007,11,1,2023.3999999999069,349406.0,7152,VNB,C,10
11,test,5,1.0,1-Back,1,z,Fri May 23 2025 14:23:06 GMT-0500 (Central Daylight Time),353081.0,019_m_f_n_a.png,O,z,635,12,1,1644.0,351437.0,7152,VNB,C,11
12,test,5,0.0,1-Back,1,m,Fri May 23 2025 14:23:06 GMT-0500 (Central Daylight Time),354695.6000000001,015_o_m_h_a.png,O,m,588,13,1,1609.1000000000931,353086.5,7152,VNB,C,12
13,test,5,0.0,1-Back,1,z,Fri May 23 2025 14:23:06 GMT-0500 (Central Daylight Time),356394.6000000001,014_m_m_h_a.png,O,z,677,14,1,1690.4000000003725,354704.1999999997,7152,VNB,C,13
14,test,5,1.0,1-Back,1,m,Fri May 23 2025 14:23:06 GMT-0500 (Central Daylight Time),358028.6999999997,012_o_f_d_a.png,O,m,609,15,1,1626.5999999996275,356402.1000000001,7152,VNB,C,14
15,test,5,0.0,1-Back,1,m,Fri May 23 2025 14:23:06 GMT-0500 (Central Daylight Time),359744.6999999997,025_y_m_n_a.png,O,m,699,16,1,1709.0,358035.6999999997,7152,VNB,C,15
16,test,5,0.0,1-Back,1,m,Fri May 23 2025 14:23:06 GMT-0500 (Central Daylight Time),361244.5,022_y_f_h_a.png,O,m,476,17,1,1494.3999999999069,359750.1000000001,7152,VNB,C,16
17,test,5,0.0,1-Back,1,m,Fri May 23 2025 14:23:06 GMT-0500 (Central Daylight Time),363107.6000000001,014_m_m_d_a.png,O,m,839,18,1,1858.5,361249.1000000001,7152,VNB,C,17
0,prac,1,0.0,2-Back,,,Fri May 23 2025 14:23:06 GMT-0500 (Central Daylight Time),363107.6000000001,019_m_f_n_a.png,O,space,7156,1,1,1858.5,361249.1000000001,7152,VNB,C,0
0,prac,1,0.0,2-Back,,,Fri May 23 2025 14:23:06 GMT-0500 (Central Daylight Time),363107.6000000001,012_o_f_h_a.png,O,space,7156,2,1,1858.5,361249.1000000001,7152,VNB,C,0
0,prac,1,0.0,2-Back,0,m,Fri May 23 2025 14:23:06 GMT-0500 (Central Daylight Time),464594.99999999953,015_o_m_d_a.png,O,None,2003,3,1,2887.899999999441,461707.1000000001,7152,VNB,C,1
1,prac,1,1.0,2-Back,1,z,Fri May 23 2025 14:23:06 GMT-0500 (Central Daylight Time),466211.3000000003,014_m_m_h_a.png,O,z,731,4,1,1607.4000000003725,464603.8999999999,7152,VNB,C,2
2,prac,1,0.0,2-Back,1,m,Fri May 23 2025 14:23:06 GMT-0500 (Central Daylight Time),467809.99999999953,022_y_f_n_a.png,O,m,707,5,1,1580.5,466229.49999999953,7152,VNB,C,3
3,prac,1,1.0,2-Back,1,z,Fri May 23 2025 14:23:06 GMT-0500 (Central Daylight Time),469541.6999999997,015_o_m_h_a.png,O,z,819,6,1,1720.5,467821.1999999997,7152,VNB,C,4
4,prac,1,1.0,2-Back,1,z,Fri May 23 2025 14:23:06 GMT-0500 (Central Daylight Time),471525.99999999953,025_y_m_n_a.png,O,z,1122,7,1,1974.2999999998137,469551.6999999997,7152,VNB,C,5
5,prac,1,0.0,2-Back,1,m,Fri May 23 2025 14:23:06 GMT-0500 (Central Daylight Time),473325.6999999997,019_m_f_d_a.png,O,m,905,8,1,1789.5,471536.1999999997,7152,VNB,C,6
6,prac,1,0.0,2-Back,1,m,Fri May 23 2025 14:23:06 GMT-0500 (Central Daylight Time),475175.1000000001,012_o_f_d_a.png,O,m,966,9,1,1839.2000000001863,473335.8999999999,7152,VNB,C,7
7,prac,1,0.0,2-Back,1,m,Fri May 23 2025 14:23:06 GMT-0500 (Central Daylight Time),476940.3000000003,014_m_m_h_a.png,O,m,981,10,1,1755.800000000745,475184.49999999953,7152,VNB,C,8
8,prac,1,1.0,2-Back,1,z,Fri May 23 2025 14:23:06 GMT-0500 (Central Daylight Time),479006.1999999997,022_y_f_d_a.png,O,z,1157,11,1,2055.5,476950.6999999997,7152,VNB,C,9
8,prac,1,0.0,2-Back,0,m,Fri May 23 2025 14:23:06 GMT-0500 (Central Daylight Time),480821.1999999997,015_o_m_n_a.png,O,z,910,12,1,1804.7000000001863,479016.49999999953,7152,VNB,C,10
0,test,1,0.0,2-Back,,,Fri May 23 2025 14:23:06 GMT-0500 (Central Daylight Time),480821.1999999997,025_y_m_h_a.png,O,space,10747,1,1,1804.7000000001863,479016.49999999953,7152,VNB,C,0
0,test,1,0.0,2-Back,,,Fri May 23 2025 14:23:06 GMT-0500 (Central Daylight Time),480821.1999999997,012_o_f_n_a.png,O,space,10747,2,1,1804.7000000001863,479016.49999999953,7152,VNB,C,0
1,test,1,0.0,2-Back,1,z,Fri May 23 2025 14:23:06 GMT-0500 (Central Daylight Time),508179.99999999953,015_o_m_h_a.png,O,z,799,3,1,1826.2999999998137,506353.6999999997,7152,VNB,C,1
2,test,1,0.0,2-Back,1,m,Fri May 23 2025 14:23:06 GMT-0500 (Central Daylight Time),510045.1999999997,019_m_f_d_a.png,O,m,838,4,1,1859.0,508186.1999999997,7152,VNB,C,2
3,test,1,1.0,2-Back,1,m,Fri May 23 2025 14:23:06 GMT-0500 (Central Daylight Time),512246.6000000001,025_y_m_n_a.png,O,m,1182,5,1,2193.4000000003725,510053.1999999997,7152,VNB,C,3
4,test,1,0.0,2-Back,1,z,Fri May 23 2025 14:23:06 GMT-0500 (Central Daylight Time),514193.6999999997,022_y_f_d_a.png,O,z,920,6,1,1939.2999999998137,512254.3999999999,7152,VNB,C,4
4,test,1,0.0,2-Back,0,m,Fri May 23 2025 14:23:06 GMT-0500 (Central Daylight Time),516144.3000000003,014_m_m_h_a.png,O,z,921,7,1,1941.300000000745,514202.99999999953,7152,VNB,C,5
5,test,1,1.0,2-Back,1,m,Fri May 23 2025 14:23:06 GMT-0500 (Central Daylight Time),517827.3999999999,022_y_f_n_a.png,O,m,651,8,1,1675.7000000001863,516151.6999999997,7152,VNB,C,6
5,test,1,0.0,2-Back,0,z,Fri May 23 2025 14:23:06 GMT-0500 (Central Daylight Time),519660.49999999953,012_o_f_h_a.png,O,m,809,9,1,1823.3999999994412,517837.1000000001,7152,VNB,C,7
5,test,1,0.0,2-Back,0,m,Fri May 23 2025 14:23:06 GMT-0500 (Central Daylight Time),521727.6999999997,015_o_m_d_a.png,O,z,1049,10,1,2061.2999999998137,519666.3999999999,7152,VNB,C,8
5,test,1,1.0,2-Back,0,m,Fri May 23 2025 14:23:06 GMT-0500 (Central Daylight Time),523657.49999999953,014_m_m_d_a.png,O,z,904,11,1,1922.3999999994412,521735.1000000001,7152,VNB,C,9
6,test,1,0.0,2-Back,1,m,Fri May 23 2025 14:23:06 GMT-0500 (Central Daylight Time),525423.9999999995,019_m_f_n_a.png,O,m,743,12,1,1759.7999999998137,523664.1999999997,7152,VNB,C,10
6,test,1,0.0,2-Back,0,m,Fri May 23 2025 14:23:06 GMT-0500 (Central Daylight Time),527578.1000000001,022_y_f_h_a.png,O,z,1121,13,1,2141.2999999998137,525436.8000000003,7152,VNB,C,11
7,test,1,0.0,2-Back,1,z,Fri May 23 2025 14:23:06 GMT-0500 (Central Daylight Time),529806.8999999999,014_m_m_n_a.png,O,z,1215,14,1,2226.0999999996275,527580.8000000003,7152,VNB,C,12
8,test,1,0.0,2-Back,1,m,Fri May 23 2025 14:23:06 GMT-0500 (Central Daylight Time),531639.6999999997,025_y_m_d_a.png,O,m,807,15,1,1823.5999999996275,529816.1000000001,7152,VNB,C,13
9,test,1,1.0,2-Back,1,m,Fri May 23 2025 14:23:06 GMT-0500 (Central Daylight Time),533623.1999999997,019_m_f_h_a.png,O,m,966,16,1,1976.5,531646.6999999997,7152,VNB,C,14
9,test,1,0.0,2-Back,0,z,Fri May 23 2025 14:23:06 GMT-0500 (Central Daylight Time),535723.6000000001,012_o_f_d_a.png,O,m,1070,17,1,2093.100000000559,533630.4999999995,7152,VNB,C,15
10,test,1,0.0,2-Back,1,m,Fri May 23 2025 14:23:06 GMT-0500 (Central Daylight Time),537787.8999999999,015_o_m_n_a.png,O,m,1043,18,1,2058.0999999996275,535729.8000000003,7152,VNB,C,16
0,test,2,0.0,2-Back,,,Fri May 23 2025 14:23:06 GMT-0500 (Central Daylight Time),537787.8999999999,014_m_m_h_a.png,O,space,2314,1,1,2058.0999999996275,535729.8000000003,7152,VNB,C,0
0,test,2,0.0,2-Back,,,Fri May 23 2025 14:23:06 GMT-0500 (Central Daylight Time),537787.8999999999,022_y_f_n_a.png,O,space,2314,2,1,2058.0999999996275,535729.8000000003,7152,VNB,C,0
1,test,2,1.0,2-Back,1,z,Fri May 23 2025 14:23:06 GMT-0500 (Central Daylight Time),547152.1000000001,012_o_f_h_a.png,O,z,772,3,1,1797.4000000003725,545354.6999999997,7152,VNB,C,1
2,test,2,0.0,2-Back,1,m,Fri May 23 2025 14:23:06 GMT-0500 (Central Daylight Time),549553.3000000003,015_o_m_d_a.png,O,m,1383,4,1,2393.2000000001863,547160.1000000001,7152,VNB,C,2
3,test,2,0.0,2-Back,1,m,Fri May 23 2025 14:23:06 GMT-0500 (Central Daylight Time),551865.8000000003,019_m_f_d_a.png,O,m,1295,5,1,2306.5,549559.3000000003,7152,VNB,C,3
4,test,2,0.0,2-Back,1,m,Fri May 23 2025 14:23:06 GMT-0500 (Central Daylight Time),553848.9999999995,025_y_m_h_a.png,O,m,961,6,1,1976.2999999998137,551872.6999999997,7152,VNB,C,4
4,test,2,0.0,2-Back,0,m,Fri May 23 2025 14:23:06 GMT-0500 (Central Daylight Time),556080.8000000003,012_o_f_n_a.png,O,z,1210,7,1,2223.2000000001863,553857.6000000001,7152,VNB,C,5
5,test,2,1.0,2-Back,1,z,Fri May 23 2025 14:23:06 GMT-0500 (Central Daylight Time),558233.1000000001,015_o_m_h_a.png,O,z,1135,8,1,2144.4000000003725,556088.6999999997,7152,VNB,C,6
5,test,2,0.0,2-Back,0,m,Fri May 23 2025 14:23:06 GMT-0500 (Central Daylight Time),560231.1999999997,022_y_f_d_a.png,O,z,982,9,1,1989.7999999998137,558241.3999999999,7152,VNB,C,7
5,test,2,0.0,2-Back,0,m,Fri May 23 2025 14:23:06 GMT-0500 (Central Daylight Time),562162.6999999997,025_y_m_d_a.png,O,z,901,10,1,1922.8999999994412,560239.8000000003,7152,VNB,C,8
6,test,2,0.0,2-Back,1,m,Fri May 23 2025 14:23:06 GMT-0500 (Central Daylight Time),563862.8999999999,014_m_m_n_a.png,O,m,674,11,1,1693.2000000001863,562169.6999999997,7152,VNB,C,9
6,test,2,0.0,2-Back,0,m,Fri May 23 2025 14:23:06 GMT-0500 (Central Daylight Time),565694.4999999995,019_m_f_h_a.png,O,z,804,12,1,1823.2999999998137,563871.1999999997,7152,VNB,C,10
6,test,2,1.0,2-Back,0,z,Fri May 23 2025 14:23:06 GMT-0500 (Central Daylight Time),567844.1999999997,015_o_m_n_a.png,O,m,1126,13,1,2139.2000000001863,565704.9999999995,7152,VNB,C,11
6,test,2,0.0,2-Back,0,m,Fri May 23 2025 14:23:06 GMT-0500 (Central Daylight Time),570408.6000000001,012_o_f_d_a.png,O,z,1535,14,1,2557.100000000559,567851.4999999995,7152,VNB,C,12
6,test,2,0.0,2-Back,0,m,Fri May 23 2025 14:23:06 GMT-0500 (Central Daylight Time),572360.3999999999,022_y_f_h_a.png,O,z,934,15,1,1948.5999999996275,570411.8000000003,7152,VNB,C,13
6,test,2,0.0,2-Back,0,z,Fri May 23 2025 14:23:06 GMT-0500 (Central Daylight Time),574308.3000000003,014_m_m_d_a.png,O,m,925,16,1,1940.5,572367.8000000003,7152,VNB,C,14
6,test,2,0.0,2-Back,0,m,Fri May 23 2025 14:23:06 GMT-0500 (Central Daylight Time),576424.6000000001,025_y_m_n_a.png,O,z,1087,17,1,2106.5,574318.1000000001,7152,VNB,C,15
6,test,2,1.0,2-Back,0,m,Fri May 23 2025 14:23:06 GMT-0500 (Central Daylight Time),578290.1999999997,019_m_f_n_a.png,O,z,844,18,1,1858.2000000001863,576431.9999999995,7152,VNB,C,16
0,test,3,1.0,2-Back,,,Fri May 23 2025 14:23:06 GMT-0500 (Central Daylight Time),578290.1999999997,015_o_m_n_a.png,O,space,1122,1,1,1858.2000000001863,576431.9999999995,7152,VNB,C,0
0,test,3,1.0,2-Back,,,Fri May 23 2025 14:23:06 GMT-0500 (Central Daylight Time),578290.1999999997,012_o_f_d_a.png,O,space,1122,2,1,1858.2000000001863,576431.9999999995,7152,VNB,C,0
1,test,3,0.0,2-Back,1,m,Fri May 23 2025 14:23:06 GMT-0500 (Central Daylight Time),586336.8999999999,022_y_f_h_a.png,O,m,861,3,1,1875.9000000003725,584460.9999999995,7152,VNB,C,1
2,test,3,0.0,2-Back,1,z,Fri May 23 2025 14:23:06 GMT-0500 (Central Daylight Time),588353.1999999997,019_m_f_d_a.png,O,z,985,4,1,2010.2999999998137,586342.8999999999,7152,VNB,C,2
2,test,3,1.0,2-Back,0,m,Fri May 23 2025 14:23:06 GMT-0500 (Central Daylight Time),590653.8000000003,025_y_m_n_a.png,O,z,1265,5,1,2292.800000000745,588360.9999999995,7152,VNB,C,3
3,test,3,0.0,2-Back,1,m,Fri May 23 2025 14:23:06 GMT-0500 (Central Daylight Time),592686.9999999995,015_o_m_h_a.png,O,m,1016,6,1,2026.0,590660.9999999995,7152,VNB,C,4
4,test,3,0.0,2-Back,1,z,Fri May 23 2025 14:23:06 GMT-0500 (Central Daylight Time),594702.6000000001,022_y_f_n_a.png,O,z,990,7,1,2009.2000000001863,592693.3999999999,7152,VNB,C,5
5,test,3,1.0,2-Back,1,m,Fri May 23 2025 14:23:06 GMT-0500 (Central Daylight Time),596601.8999999999,014_m_m_d_a.png,O,m,870,8,1,1892.4000000003725,594709.4999999995,7152,VNB,C,6
5,test,3,0.0,2-Back,0,m,Fri May 23 2025 14:23:06 GMT-0500 (Central Daylight Time),598784.4999999995,025_y_m_d_a.png,O,z,1155,9,1,2174.399999999441,596610.1000000001,7152,VNB,C,7
6,test,3,0.0,2-Back,1,m,Fri May 23 2025 14:23:06 GMT-0500 (Central Daylight Time),600417.1999999997,012_o_f_h_a.png,O,m,604,10,1,1626.5999999996275,598790.6000000001,7152,VNB,C,8
6,test,3,1.0,2-Back,0,m,Fri May 23 2025 14:23:06 GMT-0500 (Central Daylight Time),602267.3000000003,019_m_f_n_a.png,O,z,826,11,1,1842.9000000003725,600424.3999999999,7152,VNB,C,9
7,test,3,1.0,2-Back,1,z,Fri May 23 2025 14:23:06 GMT-0500 (Central Daylight Time),604668.3000000003,014_m_m_h_a.png,O,z,1370,12,1,2393.7000000001863,602274.6000000001,7152,VNB,C,10
7,test,3,0.0,2-Back,0,m,Fri May 23 2025 14:23:06 GMT-0500 (Central Daylight Time),606616.3000000003,022_y_f_d_a.png,O,z,919,13,1,1941.6000000005588,604674.6999999997,7152,VNB,C,11
7,test,3,0.0,2-Back,0,m,Fri May 23 2025 14:23:06 GMT-0500 (Central Daylight Time),608532.1999999997,012_o_f_n_a.png,O,z,883,14,1,1909.5,606622.6999999997,7152,VNB,C,12
8,test,3,0.0,2-Back,1,z,Fri May 23 2025 14:23:06 GMT-0500 (Central Daylight Time),610296.3999999999,015_o_m_d_a.png,O,z,737,15,1,1756.7999999998137,608539.6000000001,7152,VNB,C,13
9,test,3,1.0,2-Back,1,m,Fri May 23 2025 14:23:06 GMT-0500 (Central Daylight Time),612079.6999999997,019_m_f_h_a.png,O,m,762,16,1,1776.8999999994412,610302.8000000003,7152,VNB,C,14
9,test,3,0.0,2-Back,0,m,Fri May 23 2025 14:23:06 GMT-0500 (Central Daylight Time),614395.4999999995,014_m_m_n_a.png,O,z,1291,17,1,2307.699999999255,612087.8000000003,7152,VNB,C,15
9,test,3,0.0,2-Back,0,z,Fri May 23 2025 14:23:06 GMT-0500 (Central Daylight Time),616263.6999999997,025_y_m_h_a.png,O,m,849,18,1,1860.7000000001863,614402.9999999995,7152,VNB,C,16
0,test,4,0.0,2-Back,,,Fri May 23 2025 14:23:06 GMT-0500 (Central Daylight Time),616263.6999999997,019_m_f_n_a.png,O,space,1022,1,1,1860.7000000001863,614402.9999999995,7152,VNB,C,0
0,test,4,0.0,2-Back,,,Fri May 23 2025 14:23:06 GMT-0500 (Central Daylight Time),616263.6999999997,015_o_m_n_a.png,O,space,1022,2,1,1860.7000000001863,614402.9999999995,7152,VNB,C,0
1,test,4,1.0,2-Back,1,m,Fri May 23 2025 14:23:06 GMT-0500 (Central Daylight Time),624226.1999999997,025_y_m_h_a.png,O,m,618,3,1,1643.5,622582.6999999997,7152,VNB,C,1
2,test,4,1.0,2-Back,1,m,Fri May 23 2025 14:23:06 GMT-0500 (Central Daylight Time),625958.1999999997,012_o_f_d_a.png,O,m,706,4,1,1725.2000000001863,624232.9999999995,7152,VNB,C,2
3,test,4,0.0,2-Back,1,z,Fri May 23 2025 14:23:06 GMT-0500 (Central Daylight Time),627592.4999999995,015_o_m_h_a.png,O,z,605,5,1,1627.8999999994412,625964.6000000001,7152,VNB,C,3
3,test,4,0.0,2-Back,0,m,Fri May 23 2025 14:23:06 GMT-0500 (Central Daylight Time),629739.8000000003,014_m_m_n_a.png,O,z,1124,6,1,2138.2000000001863,627601.6000000001,7152,VNB,C,4
3,test,4,0.0,2-Back,0,m,Fri May 23 2025 14:23:06 GMT-0500 (Central Daylight Time),631657.6000000001,019_m_f_d_a.png,O,z,887,7,1,1912.2000000001863,629745.3999999999,7152,VNB,C,5
4,test,4,0.0,2-Back,1,z,Fri May 23 2025 14:23:06 GMT-0500 (Central Daylight Time),633524.3000000003,022_y_f_n_a.png,O,z,844,8,1,1858.800000000745,631665.4999999995,7152,VNB,C,6
5,test,4,1.0,2-Back,1,m,Fri May 23 2025 14:23:06 GMT-0500 (Central Daylight Time),635473.1999999997,012_o_f_h_a.png,O,m,918,9,1,1942.3999999994412,633530.8000000003,7152,VNB,C,7
5,test,4,0.0,2-Back,0,m,Fri May 23 2025 14:23:06 GMT-0500 (Central Daylight Time),637439.9999999995,014_m_m_h_a.png,O,z,949,10,1,1959.0999999996275,635480.8999999999,7152,VNB,C,8
5,test,4,0.0,2-Back,0,m,Fri May 23 2025 14:23:06 GMT-0500 (Central Daylight Time),639305.3000000003,022_y_f_d_a.png,O,z,839,11,1,1857.1000000005588,637448.1999999997,7152,VNB,C,9
5,test,4,0.0,2-Back,0,m,Fri May 23 2025 14:23:06 GMT-0500 (Central Daylight Time),641237.3999999999,025_y_m_n_a.png,O,z,905,12,1,1921.7000000001863,639315.6999999997,7152,VNB,C,10
5,test,4,0.0,2-Back,0,z,Fri May 23 2025 14:23:06 GMT-0500 (Central Daylight Time),643387.8000000003,015_o_m_d_a.png,O,m,1119,13,1,2143.7000000001863,641244.1000000001,7152,VNB,C,11
6,test,4,1.0,2-Back,1,m,Fri May 23 2025 14:23:06 GMT-0500 (Central Daylight Time),645035.8000000003,019_m_f_h_a.png,O,m,624,14,1,1639.5,643396.3000000003,7152,VNB,C,12
7,test,4,1.0,2-Back,1,m,Fri May 23 2025 14:23:06 GMT-0500 (Central Daylight Time),647302.6999999997,022_y_f_h_a.png,O,m,1232,15,1,2261.5999999996275,645041.1000000001,7152,VNB,C,13
7,test,4,0.0,2-Back,0,m,Fri May 23 2025 14:23:06 GMT-0500 (Central Daylight Time),649051.8000000003,012_o_f_n_a.png,O,z,716,16,1,1739.5,647312.3000000003,7152,VNB,C,14
8,test,4,0.0,2-Back,1,m,Fri May 23 2025 14:23:06 GMT-0500 (Central Daylight Time),651218.3999999999,025_y_m_d_a.png,O,m,1137,17,1,2158.9000000003725,649059.4999999995,7152,VNB,C,15
8,test,4,1.0,2-Back,0,m,Fri May 23 2025 14:23:06 GMT-0500 (Central Daylight Time),652901.1000000001,014_m_m_d_a.png,O,z,649,18,1,1673.7999999998137,651227.3000000003,7152,VNB,C,16
0,test,5,1.0,2-Back,,,Fri May 23 2025 14:23:06 GMT-0500 (Central Daylight Time),652901.1000000001,022_y_f_d_a.png,O,space,871,1,1,1673.7999999998137,651227.3000000003,7152,VNB,C,0
0,test,5,1.0,2-Back,,,Fri May 23 2025 14:23:06 GMT-0500 (Central Daylight Time),652901.1000000001,012_o_f_h_a.png,O,space,871,2,1,1673.7999999998137,651227.3000000003,7152,VNB,C,0
1,test,5,1.0,2-Back,1,z,Fri May 23 2025 14:23:06 GMT-0500 (Central Daylight Time),661299.8000000003,015_o_m_d_a.png,O,z,1219,3,1,2240.9000000003725,659058.8999999999,7152,VNB,C,1
2,test,5,1.0,2-Back,1,m,Fri May 23 2025 14:23:06 GMT-0500 (Central Daylight Time),663232.6999999997,019_m_f_n_a.png,O,m,916,4,1,1926.0999999996275,661306.6000000001,7152,VNB,C,2
2,test,5,0.0,2-Back,0,m,Fri May 23 2025 14:23:06 GMT-0500 (Central Daylight Time),665145.6999999997,014_m_m_h_a.png,O,z,893,5,1,1903.7999999998137,663241.8999999999,7152,VNB,C,3
3,test,5,0.0,2-Back,1,z,Fri May 23 2025 14:23:06 GMT-0500 (Central Daylight Time),666913.1999999997,022_y_f_n_a.png,O,z,739,6,1,1755.2000000001863,665157.9999999995,7152,VNB,C,4
3,test,5,0.0,2-Back,0,m,Fri May 23 2025 14:23:06 GMT-0500 (Central Daylight Time),668796.8000000003,012_o_f_d_a.png,O,z,865,7,1,1875.6000000005588,666921.1999999997,7152,VNB,C,5
3,test,5,0.0,2-Back,0,m,Fri May 23 2025 14:23:06 GMT-0500 (Central Daylight Time),670512.3999999999,015_o_m_h_a.png,O,z,687,8,1,1713.0,668799.3999999999,7152,VNB,C,6
4,test,5,1.0,2-Back,1,z,Fri May 23 2025 14:23:06 GMT-0500 (Central Daylight Time),672311.3000000003,019_m_f_d_a.png,O,z,774,9,1,1791.300000000745,670519.9999999995,7152,VNB,C,7
4,test,5,0.0,2-Back,0,m,Fri May 23 2025 14:23:06 GMT-0500 (Central Daylight Time),674227.6000000001,025_y_m_n_a.png,O,z,884,10,1,1907.9000000003725,672319.6999999997,7152,VNB,C,8
4,test,5,0.0,2-Back,0,m,Fri May 23 2025 14:23:06 GMT-0500 (Central Daylight Time),676008.6000000001,014_m_m_n_a.png,O,z,753,11,1,1773.2000000001863,674235.3999999999,7152,VNB,C,9
4,test,5,0.0,2-Back,0,m,Fri May 23 2025 14:23:06 GMT-0500 (Central Daylight Time),677608.9999999995,022_y_f_h_a.png,O,z,577,12,1,1592.5,676016.4999999995,7152,VNB,C,10
4,test,5,0.0,2-Back,0,m,Fri May 23 2025 14:23:06 GMT-0500 (Central Daylight Time),679325.6999999997,025_y_m_d_a.png,O,z,691,13,1,1708.5999999996275,677617.1000000001,7152,VNB,C,11
5,test,5,1.0,2-Back,1,z,Fri May 23 2025 14:23:06 GMT-0500 (Central Daylight Time),681007.8000000003,019_m_f_h_a.png,O,z,654,14,1,1674.0,679333.8000000003,7152,VNB,C,12
5,test,5,0.0,2-Back,0,m,Fri May 23 2025 14:23:06 GMT-0500 (Central Daylight Time),682940.9999999995,015_o_m_n_a.png,O,z,909,15,1,1926.0,681014.9999999995,7152,VNB,C,13
5,test,5,0.0,2-Back,0,m,Fri May 23 2025 14:23:06 GMT-0500 (Central Daylight Time),684673.1000000001,014_m_m_d_a.png,O,z,712,16,1,1724.0,682949.1000000001,7152,VNB,C,14
6,test,5,0.0,2-Back,1,z,Fri May 23 2025 14:23:06 GMT-0500 (Central Daylight Time),686423.3000000003,012_o_f_n_a.png,O,z,724,17,1,1742.300000000745,684680.9999999995,7152,VNB,C,15
6,test,5,1.0,2-Back,0,m,Fri May 23 2025 14:23:06 GMT-0500 (Central Daylight Time),688240.4999999995,025_y_m_h_a.png,O,z,800,18,1,1810.199999999255,686430.3000000003,7152,VNB,C,16
