acc_sum,block,block_c,condition,correct,correct_response,datetime,endtime,flanker,jitter,project,response,response_test_buffer_response,response_test_target_response,response_time,response_time_test_buffer_response,response_time_test_target_response,row_sel,session_number,start_end,starttime,subject_id,target,task,task_vers,time_test_buffer,time_test_buffer_response,time_test_constants,time_test_flanker,time_test_jitter,time_test_logger,time_test_target,time_test_target_response,time_test_variables,trial
1,prac,1,con,1,m,Fri Nov 07 2025 13:42:06 GMT-0600 (Central Standard Time),149405.69999998808,jacket,800,O,m,,,1328,,,5,,3413.5,145992.19999998808,7704,jacket,AF,B,,,,,,,,,,1
2,prac,1,con,1,z,Fri Nov 07 2025 13:42:06 GMT-0600 (Central Standard Time),152237.59999999404,elated,800,O,z,,,729,,,9,,2828.4000000059605,149409.19999998808,7704,elated,AF,B,,,,,,,,,,2
3,prac,1,inc,1,m,Fri Nov 07 2025 13:42:06 GMT-0600 (Central Standard Time),155187.5,elated,900,O,m,,,733,,,6,,2946.5,152241.0,7704,napkin,AF,B,,,,,,,,,,3
4,prac,1,inc,1,z,Fri Nov 07 2025 13:42:06 GMT-0600 (Central Standard Time),158318.5,window,1100,O,z,,,729,,,16,,3127.5999999940395,155190.90000000596,7704,temper,AF,B,,,,,,,,,,4
5,prac,1,con,1,m,Fri Nov 07 2025 13:42:06 GMT-0600 (Central Standard Time),161100.80000001192,step,800,O,m,,,671,,,1,,2778.600000023842,158322.19999998808,7704,step,AF,B,,,,,,,,,,5
6,prac,1,con,1,z,Fri Nov 07 2025 13:42:06 GMT-0600 (Central Standard Time),164083.19999998808,love,1000,O,z,,,675,,,11,,2979.0,161104.19999998808,7704,love,AF,B,,,,,,,,,,6
7,prac,1,con,1,m,Fri Nov 07 2025 13:42:06 GMT-0600 (Central Standard Time),167299.80000001192,bell,1000,O,m,,,914,,,3,,3212.7000000178814,164087.09999999404,7704,bell,AF,B,,,,,,,,,,7
8,prac,1,inc,1,m,Fri Nov 07 2025 13:42:06 GMT-0600 (Central Standard Time),170299.0,kind,900,O,m,,,791,,,2,,2995.9000000059605,167303.09999999404,7704,rock,AF,B,,,,,,,,,,8
9,prac,1,con,1,m,Fri Nov 07 2025 13:42:06 GMT-0600 (Central Standard Time),173179.90000000596,remote,1000,O,m,,,579,,,7,,2877.7000000178814,170302.19999998808,7704,remote,AF,B,,,,,,,,,,9
10,prac,1,con,1,z,Fri Nov 07 2025 13:42:06 GMT-0600 (Central Standard Time),176046.59999999404,rage,1000,O,z,,,562,,,15,,2863.0,173183.59999999404,7704,rage,AF,B,,,,,,,,,,10
11,prac,1,inc,1,m,Fri Nov 07 2025 13:42:06 GMT-0600 (Central Standard Time),179045.30000001192,hate,1100,O,m,,,588,,,4,,2995.2000000178814,176050.09999999404,7704,film,AF,B,,,,,,,,,,11
12,prac,1,inc,1,m,Fri Nov 07 2025 13:42:06 GMT-0600 (Central Standard Time),182078.0,brutal,1100,O,m,,,630,,,8,,3029.300000011921,179048.69999998808,7704,window,AF,B,,,,,,,,,,12
13,prac,1,con,1,z,Fri Nov 07 2025 13:42:06 GMT-0600 (Central Standard Time),184959.90000000596,brutal,800,O,z,,,767,,,13,,2878.5,182081.40000000596,7704,brutal,AF,B,,,,,,,,,,13
14,prac,1,inc,1,z,Fri Nov 07 2025 13:42:06 GMT-0600 (Central Standard Time),187925.40000000596,film,900,O,z,,,776,,,14,,2962.5,184962.90000000596,7704,hate,AF,B,,,,,,,,,,14
15,prac,1,inc,1,z,Fri Nov 07 2025 13:42:06 GMT-0600 (Central Standard Time),191042.30000001192,napkin,1100,O,z,,,709,,,12,,3113.5,187928.80000001192,7704,friend,AF,B,,,,,,,,,,15
16,prac,1,inc,1,z,Fri Nov 07 2025 13:42:06 GMT-0600 (Central Standard Time),193907.80000001192,rock,900,O,z,,,666,,,10,,2862.0,191045.80000001192,7704,kind,AF,B,,,,,,,,,,16
1,test,1,inc,1,z,Fri Nov 07 2025 13:42:06 GMT-0600 (Central Standard Time),214967.19999998808,bell,1000,O,z,z,None,780,580.0,200.0,47,,2312.699999988079,212654.5,7704,hate,AF,B,211419,211419,209690,210703,209690,212002,211219,211219,212002,1
2,test,1,con,1,z,Fri Nov 07 2025 13:42:06 GMT-0600 (Central Standard Time),217016.5,elated,800,O,z,z,None,728,528.0,200.0,1,,2046.0999999940395,214970.40000000596,7704,elated,AF,B,213519,213519,212005,212818,212006,214052,213319,213319,214052,2
3,test,1,con,1,z,Fri Nov 07 2025 13:42:06 GMT-0600 (Central Standard Time),219099.30000001192,rage,1000,O,z,z,None,543,343.0,200.0,51,,2079.9000000059605,217019.40000000596,7704,rage,AF,B,215784,215784,214054,215069,214055,216134,215584,215584,216134,3
4,test,1,con,1,m,Fri Nov 07 2025 13:42:06 GMT-0600 (Central Standard Time),221265.09999999404,step,1000,O,m,m,None,626,427.0,199.0,67,,2162.9000000059605,219102.19999998808,7704,step,AF,B,217867,217867,216137,217151,216138,218300,217667,217667,218300,4
5,test,1,con,1,z,Fri Nov 07 2025 13:42:06 GMT-0600 (Central Standard Time),223631.09999999404,temper,1000,O,z,z,None,829,628.0,201.0,59,,2362.7999999821186,221268.30000001192,7704,temper,AF,B,220034,220034,218303,219317,218304,220666,219833,219833,220666,5
5,test,1,con,0,z,Fri Nov 07 2025 13:42:06 GMT-0600 (Central Standard Time),225865.30000001192,friend,1100,O,m,m,None,587,387.0,200.0,28,,2231.2000000178814,223634.09999999404,7704,friend,AF,B,222500,222500,220669,221783,220669,222900,222300,222300,222900,6
5,test,1,inc,0,z,Fri Nov 07 2025 13:42:06 GMT-0600 (Central Standard Time),227896.30000001192,napkin,900,O,m,m,None,601,402.0,199.0,30,,2028.1000000238419,225868.19999998808,7704,friend,AF,B,224516,224516,222903,223815,222904,224931,224317,224317,224931,7
6,test,1,con,1,m,Fri Nov 07 2025 13:42:06 GMT-0600 (Central Standard Time),230246.0,window,1100,O,m,m,None,712,513.0,199.0,124,,2346.699999988079,227899.30000001192,7704,window,AF,B,226765,226765,224934,226049,224935,227281,226566,226566,227281,8
7,test,1,inc,1,m,Fri Nov 07 2025 13:42:06 GMT-0600 (Central Standard Time),232346.09999999404,rage,800,O,m,m,None,752,550.0,202.0,69,,2097.199999988079,230248.90000000596,7704,step,AF,B,228816,228816,227284,228098,227284,229381,228614,228614,229381,9
8,test,1,inc,1,m,Fri Nov 07 2025 13:42:06 GMT-0600 (Central Standard Time),234596.59999999404,love,1000,O,m,m,None,702,502.0,200.0,71,,2247.199999988079,232349.40000000596,7704,step,AF,B,231113,231113,229384,230397,229385,231632,230913,230913,231632,10
9,test,1,inc,1,m,Fri Nov 07 2025 13:42:06 GMT-0600 (Central Standard Time),236828.30000001192,brutal,900,O,m,m,None,799,599.0,200.0,118,,2228.600000023842,234599.69999998808,7704,remote,AF,B,233264,233264,231635,232547,231635,233863,233063,233063,233863,11
10,test,1,con,1,z,Fri Nov 07 2025 13:42:06 GMT-0600 (Central Standard Time),238977.0,temper,800,O,z,z,None,802,603.0,199.0,57,,2145.5,236831.5,7704,temper,AF,B,235396,235396,233867,234680,233867,236012,235196,235196,236012,12
11,test,1,inc,1,m,Fri Nov 07 2025 13:42:06 GMT-0600 (Central Standard Time),241009.69999998808,elated,800,O,m,m,None,694,494.0,200.0,101,,2029.699999988079,238980.0,7704,jacket,AF,B,237545,237545,236015,236829,236015,238045,237345,237345,238045,13
12,test,1,con,1,z,Fri Nov 07 2025 13:42:06 GMT-0600 (Central Standard Time),243142.19999998808,hate,900,O,z,z,None,688,487.0,201.0,42,,2129.2999999821186,241012.90000000596,7704,hate,AF,B,239679,239679,238048,238960,238048,240177,239478,239478,240177,14
13,test,1,con,1,z,Fri Nov 07 2025 13:42:06 GMT-0600 (Central Standard Time),245176.30000001192,friend,800,O,z,z,None,712,497.0,215.0,25,,2031.0,243145.30000001192,7704,friend,AF,B,241710,241710,240180,240994,240181,242211,241495,241495,242211,15
14,test,1,con,1,m,Fri Nov 07 2025 13:42:06 GMT-0600 (Central Standard Time),247190.09999999404,film,800,O,m,m,None,688,488.0,200.0,89,,2011.0,245179.09999999404,7704,film,AF,B,243726,243726,242214,243025,242214,244225,243526,243526,244225,16
15,test,1,con,1,m,Fri Nov 07 2025 13:42:06 GMT-0600 (Central Standard Time),249373.09999999404,napkin,900,O,m,m,None,741,540.0,201.0,106,,2180.199999988079,247192.90000000596,7704,napkin,AF,B,245859,245859,244228,245143,244228,246408,245658,245658,246408,17
16,test,1,inc,1,z,Fri Nov 07 2025 13:42:06 GMT-0600 (Central Standard Time),251723.19999998808,film,1100,O,z,z,None,708,508.0,200.0,16,,2347.2999999821186,249375.90000000596,7704,kind,AF,B,248242,248242,246411,247525,246411,248758,248042,248042,248758,18
17,test,1,con,1,z,Fri Nov 07 2025 13:42:06 GMT-0600 (Central Standard Time),253971.40000000596,kind,1100,O,z,z,None,608,409.0,199.0,12,,2245.4000000059605,251726.0,7704,kind,AF,B,250590,250590,248761,249875,248761,251006,250391,250391,251006,19
18,test,1,inc,1,z,Fri Nov 07 2025 13:42:06 GMT-0600 (Central Standard Time),256253.80000001192,remote,1000,O,z,z,None,763,564.0,199.0,63,,2279.5,253974.30000001192,7704,temper,AF,B,252723,252723,251009,252023,251009,253289,252524,252524,253289,20
19,test,1,con,1,z,Fri Nov 07 2025 13:42:06 GMT-0600 (Central Standard Time),258386.5,brutal,900,O,z,z,None,683,483.0,200.0,34,,2129.800000011921,256256.69999998808,7704,brutal,AF,B,254923,254923,253292,254206,253292,255422,254723,254723,255422,21
20,test,1,con,1,z,Fri Nov 07 2025 13:42:06 GMT-0600 (Central Standard Time),260586.80000001192,temper,1100,O,z,z,None,552,352.0,200.0,60,,2197.0,258389.80000001192,7704,temper,AF,B,257255,257255,255425,256539,255425,257622,257055,257055,257622,22
21,test,1,inc,1,z,Fri Nov 07 2025 13:42:06 GMT-0600 (Central Standard Time),262952.0,film,1100,O,z,z,None,720,520.0,200.0,24,,2361.800000011921,260590.19999998808,7704,love,AF,B,259454,259454,257625,258738,257626,259987,259254,259254,259987,23
22,test,1,con,1,m,Fri Nov 07 2025 13:42:06 GMT-0600 (Central Standard Time),265117.90000000596,remote,1000,O,m,m,None,622,423.0,199.0,115,,2162.9000000059605,262955.0,7704,remote,AF,B,261720,261720,259990,261004,259990,262153,261521,261521,262153,24
23,test,1,inc,1,m,Fri Nov 07 2025 13:42:06 GMT-0600 (Central Standard Time),267269.1999999881,kind,900,O,m,m,None,701,501.0,200.0,78,,2148.5999999940395,265120.59999999404,7704,rock,AF,B,263786,263786,262156,263071,262156,264304,263586,263586,264304,25
24,test,1,con,1,m,Fri Nov 07 2025 13:42:06 GMT-0600 (Central Standard Time),269451.0,remote,1100,O,m,m,None,535,336.0,199.0,116,,2178.699999988079,267272.3000000119,7704,remote,AF,B,266135,266135,264307,265419,264308,266486,265936,265936,266486,26
25,test,1,con,1,m,Fri Nov 07 2025 13:42:06 GMT-0600 (Central Standard Time),271382.1999999881,remote,900,O,m,m,None,504,305.0,199.0,114,,1928.0999999940395,269454.09999999404,7704,remote,AF,B,268102,268102,266489,267401,266489,268417,267902,267902,268417,27
26,test,1,con,1,z,Fri Nov 07 2025 13:42:06 GMT-0600 (Central Standard Time),273582.8000000119,kind,1000,O,z,z,None,662,463.0,199.0,11,,2198.0,271384.8000000119,7704,kind,AF,B,270152,270152,268420,269435,268420,270618,269952,269952,270618,28
27,test,1,inc,1,m,Fri Nov 07 2025 13:42:06 GMT-0600 (Central Standard Time),275597.59999999404,elated,800,O,m,m,None,672,472.0,200.0,109,,2011.9000000059605,273585.6999999881,7704,napkin,AF,B,272150,272150,270621,271433,270621,272633,271950,271950,272633,29
28,test,1,inc,1,z,Fri Nov 07 2025 13:42:06 GMT-0600 (Central Standard Time),277731.59999999404,napkin,900,O,z,z,None,684,484.0,200.0,38,,2131.2999999821186,275600.3000000119,7704,brutal,AF,B,274267,274267,272635,273550,272636,274767,274066,274066,274767,30
28,test,1,con,0,z,Fri Nov 07 2025 13:42:06 GMT-0600 (Central Standard Time),279813.40000000596,elated,900,O,m,m,None,663,463.0,200.0,2,,2079.0999999940395,277734.3000000119,7704,elated,AF,B,276383,276383,274769,275682,274770,276848,276183,276183,276848,31
29,test,1,con,1,z,Fri Nov 07 2025 13:42:06 GMT-0600 (Central Standard Time),281797.0,rage,900,O,z,z,None,540,339.0,201.0,50,,1980.9000000059605,279816.09999999404,7704,rage,AF,B,278483,278483,276851,277765,276851,278832,278281,278282,278832,32
30,test,1,con,1,z,Fri Nov 07 2025 13:42:06 GMT-0600 (Central Standard Time),284262.40000000596,brutal,1100,O,z,z,None,821,622.0,199.0,36,,2462.5999999940395,281799.8000000119,7704,brutal,AF,B,280664,280664,278835,279949,278835,281297,280465,280465,281297,33
31,test,1,inc,1,z,Fri Nov 07 2025 13:42:06 GMT-0600 (Central Standard Time),286661.5,remote,1000,O,z,z,None,855,655.0,200.0,31,,2396.5,284265.0,7704,friend,AF,B,283030,283031,281300,282313,281300,283697,282830,282830,283697,34
32,test,1,inc,1,m,Fri Nov 07 2025 13:42:06 GMT-0600 (Central Standard Time),288794.1999999881,love,1000,O,m,m,None,585,386.0,199.0,79,,2130.0,286664.1999999881,7704,rock,AF,B,285429,285429,283699,284713,283700,285829,285229,285229,285829,35
33,test,1,inc,1,z,Fri Nov 07 2025 13:42:06 GMT-0600 (Central Standard Time),290843.90000000596,jacket,800,O,z,z,None,700,501.0,199.0,37,,2046.800000011921,288797.09999999404,7704,brutal,AF,B,287361,287361,285832,286645,285832,287879,287162,287162,287879,36
34,test,1,inc,1,z,Fri Nov 07 2025 13:42:06 GMT-0600 (Central Standard Time),293176.40000000596,film,1100,O,z,z,None,687,488.0,199.0,48,,2328.0999999940395,290848.3000000119,7704,hate,AF,B,289711,289711,287883,288994,287883,290211,289512,289512,290211,37
35,test,1,con,1,m,Fri Nov 07 2025 13:42:06 GMT-0600 (Central Standard Time),295275.5,bell,800,O,m,m,None,767,567.0,200.0,81,,2096.0999999940395,293179.40000000596,7704,bell,AF,B,291743,291743,290214,291027,290215,292311,291543,291543,292311,38
36,test,1,inc,1,m,Fri Nov 07 2025 13:42:06 GMT-0600 (Central Standard Time),297457.40000000596,kind,900,O,m,m,None,734,535.0,199.0,86,,2179.2000000178814,295278.1999999881,7704,bell,AF,B,293943,293943,292313,293227,292313,294492,293743,293743,294492,39
37,test,1,con,1,m,Fri Nov 07 2025 13:42:06 GMT-0600 (Central Standard Time),299589.90000000596,bell,1000,O,m,m,None,597,398.0,199.0,83,,2128.7000000178814,297461.1999999881,7704,bell,AF,B,296225,296225,294496,295509,294496,296625,296026,296026,296625,40
38,test,1,con,1,m,Fri Nov 07 2025 13:42:06 GMT-0600 (Central Standard Time),301889.0,step,900,O,m,m,None,860,659.0,201.0,66,,2296.0999999940395,299592.90000000596,7704,step,AF,B,298259,298260,296628,297542,296628,298924,298058,298058,298924,41
39,test,1,con,1,z,Fri Nov 07 2025 13:42:06 GMT-0600 (Central Standard Time),304174.90000000596,elated,1100,O,z,z,None,642,441.0,201.0,4,,2283.0,301891.90000000596,7704,elated,AF,B,300758,300758,298927,300042,298927,301210,300557,300557,301210,42
40,test,1,inc,1,m,Fri Nov 07 2025 13:42:06 GMT-0600 (Central Standard Time),306154.59999999404,rage,800,O,m,m,None,650,451.0,199.0,93,,1975.9000000059605,304178.6999999881,7704,film,AF,B,302723,302723,301214,302023,301214,303190,302524,302524,303190,43
41,test,1,inc,1,m,Fri Nov 07 2025 13:42:06 GMT-0600 (Central Standard Time),308338.6999999881,elated,800,O,m,m,None,844,643.0,201.0,117,,2181.5999999940395,306157.09999999404,7704,remote,AF,B,304723,304723,303192,304007,303192,305374,304522,304522,305374,44
42,test,1,inc,1,m,Fri Nov 07 2025 13:42:06 GMT-0600 (Central Standard Time),310602.90000000596,love,1000,O,m,m,None,718,518.0,200.0,95,,2261.300000011921,308341.59999999404,7704,film,AF,B,307105,307105,305377,306389,305377,307638,306905,306905,307638,45
43,test,1,inc,1,m,Fri Nov 07 2025 13:42:06 GMT-0600 (Central Standard Time),312703.09999999404,rage,800,O,m,m,None,754,555.0,199.0,77,,2097.0999999940395,310606.0,7704,rock,AF,B,309171,309171,307641,308455,307641,309738,308972,308972,309738,46
44,test,1,con,1,z,Fri Nov 07 2025 13:42:06 GMT-0600 (Central Standard Time),314868.3000000119,rage,800,O,z,z,None,821,606.0,215.0,49,,2162.4000000059605,312705.90000000596,7704,rage,AF,B,311288,311288,309741,310554,309741,311903,311072,311072,311903,47
45,test,1,con,1,m,Fri Nov 07 2025 13:42:06 GMT-0600 (Central Standard Time),317367.40000000596,step,1100,O,m,m,None,862,662.0,200.0,68,,2496.2000000178814,314871.1999999881,7704,step,AF,B,313737,313737,311906,313020,311906,314402,313537,313537,314402,48
46,test,1,con,1,m,Fri Nov 07 2025 13:42:06 GMT-0600 (Central Standard Time),319501.40000000596,step,800,O,m,m,None,790,590.0,200.0,65,,2131.0,317370.40000000596,7704,step,AF,B,315936,315936,314405,315219,314406,316537,315736,315736,316536,49
47,test,1,inc,1,z,Fri Nov 07 2025 13:42:06 GMT-0600 (Central Standard Time),321567.0,jacket,800,O,z,z,None,721,521.0,200.0,61,,2062.5999999940395,319504.40000000596,7704,temper,AF,B,318070,318070,316539,317353,316540,318602,317869,317869,318602,50
48,test,1,con,1,m,Fri Nov 07 2025 13:42:06 GMT-0600 (Central Standard Time),323632.8000000119,jacket,800,O,m,m,None,729,528.0,201.0,97,,2063.0,321569.8000000119,7704,jacket,AF,B,320135,320135,318605,319418,318605,320668,319934,319934,320668,51
49,test,1,con,1,m,Fri Nov 07 2025 13:42:06 GMT-0600 (Central Standard Time),325864.6999999881,film,1100,O,m,m,None,585,385.0,200.0,92,,2228.899999976158,323635.8000000119,7704,film,AF,B,322501,322501,320671,321784,320671,322900,322301,322301,322900,52
50,test,1,inc,1,z,Fri Nov 07 2025 13:42:06 GMT-0600 (Central Standard Time),328214.09999999404,window,1100,O,z,z,None,711,512.0,199.0,40,,2346.699999988079,325867.40000000596,7704,brutal,AF,B,324735,324735,322902,324017,322903,325249,324536,324536,325249,53
51,test,1,inc,1,z,Fri Nov 07 2025 13:42:06 GMT-0600 (Central Standard Time),330463.1999999881,bell,1000,O,z,z,None,712,513.0,199.0,15,,2245.7999999821186,328217.40000000596,7704,kind,AF,B,326982,326982,325252,326266,325253,327498,326783,326783,327498,54
52,test,1,inc,1,m,Fri Nov 07 2025 13:42:06 GMT-0600 (Central Standard Time),332579.3000000119,brutal,900,O,m,m,None,667,467.0,200.0,110,,2113.2000000178814,330466.09999999404,7704,napkin,AF,B,329132,329132,327501,328415,327501,329614,328932,328932,329614,55
53,test,1,inc,1,z,Fri Nov 07 2025 13:42:06 GMT-0600 (Central Standard Time),334763.0,bell,1000,O,z,z,None,636,436.0,200.0,55,,2180.5,332582.5,7704,rage,AF,B,331347,331347,329618,330631,329618,331798,331147,331147,331798,56
54,test,1,inc,1,z,Fri Nov 07 2025 13:42:06 GMT-0600 (Central Standard Time),336944.59999999404,step,800,O,z,z,None,836,637.0,199.0,13,,2178.5999999940395,334766.0,7704,kind,AF,B,333330,333330,331801,332614,331801,333980,333131,333131,333980,57
55,test,1,inc,1,z,Fri Nov 07 2025 13:42:06 GMT-0600 (Central Standard Time),339260.90000000596,film,1100,O,z,z,None,682,481.0,201.0,56,,2313.5,336947.40000000596,7704,rage,AF,B,335813,335814,333982,335097,333983,336296,335612,335612,336296,58
56,test,1,con,1,z,Fri Nov 07 2025 13:42:06 GMT-0600 (Central Standard Time),341393.09999999404,temper,900,O,z,z,None,702,503.0,199.0,58,,2129.0999999940395,339264.0,7704,temper,AF,B,337912,337912,336299,337212,336299,338428,337713,337713,338428,59
57,test,1,con,1,m,Fri Nov 07 2025 13:42:06 GMT-0600 (Central Standard Time),343626.3000000119,rock,900,O,m,m,None,792,592.0,200.0,74,,2230.300000011921,341396.0,7704,rock,AF,B,340062,340062,338431,339345,338431,340661,339862,339862,340661,60
58,test,1,inc,1,m,Fri Nov 07 2025 13:42:06 GMT-0600 (Central Standard Time),346025.40000000596,hate,1100,O,m,m,None,760,560.0,200.0,80,,2396.2000000178814,343629.1999999881,7704,rock,AF,B,342494,342494,340664,341778,340664,343060,342294,342294,343060,61
59,test,1,inc,1,m,Fri Nov 07 2025 13:42:06 GMT-0600 (Central Standard Time),348408.09999999404,hate,1100,O,m,m,None,737,535.0,202.0,72,,2379.699999988079,346028.40000000596,7704,step,AF,B,344895,344895,343063,344177,343064,345443,344693,344693,345443,62
60,test,1,con,1,z,Fri Nov 07 2025 13:42:06 GMT-0600 (Central Standard Time),350425.59999999404,kind,800,O,z,z,None,693,478.0,215.0,9,,2014.5999999940395,348411.0,7704,kind,AF,B,346976,346976,345446,346259,345446,347461,346761,346761,347461,63
60,test,1,con,0,z,Fri Nov 07 2025 13:42:06 GMT-0600 (Central Standard Time),352706.8000000119,friend,1000,O,m,m,None,735,535.0,200.0,27,,2278.0,350428.8000000119,7704,friend,AF,B,349192,349192,347464,348476,347464,349742,348992,348992,349742,64
61,test,1,inc,1,z,Fri Nov 07 2025 13:42:06 GMT-0600 (Central Standard Time),355056.0,window,1100,O,z,z,None,711,512.0,199.0,32,,2346.4000000059605,352709.59999999404,7704,friend,AF,B,351575,351575,349745,350858,349745,352091,351376,351376,352091,65
62,test,1,inc,1,z,Fri Nov 07 2025 13:42:06 GMT-0600 (Central Standard Time),357372.0,window,1100,O,z,z,None,682,483.0,199.0,8,,2313.5,355058.5,7704,elated,AF,B,353907,353907,352094,353207,352094,354407,353708,353708,354407,66
63,test,1,inc,1,m,Fri Nov 07 2025 13:42:06 GMT-0600 (Central Standard Time),359654.3000000119,friend,1100,O,m,m,None,637,438.0,199.0,112,,2279.4000000059605,357374.90000000596,7704,napkin,AF,B,356240,356240,354410,355524,354410,356689,356041,356041,356689,67
64,test,1,inc,1,m,Fri Nov 07 2025 13:42:06 GMT-0600 (Central Standard Time),361837.8000000119,brutal,900,O,m,m,None,733,533.0,200.0,102,,2180.9000000059605,359656.90000000596,7704,jacket,AF,B,358323,358323,356692,357606,356692,358873,358122,358122,358873,68
65,test,1,con,1,z,Fri Nov 07 2025 13:42:06 GMT-0600 (Central Standard Time),364153.5,hate,1000,O,z,z,None,776,577.0,199.0,43,,2312.699999988079,361840.8000000119,7704,hate,AF,B,360606,360606,358876,359888,358876,361189,360406,360406,361189,69
66,test,1,inc,1,z,Fri Nov 07 2025 13:42:06 GMT-0600 (Central Standard Time),366403.0,window,1100,O,z,z,None,608,408.0,200.0,64,,2246.9000000059605,364156.09999999404,7704,temper,AF,B,363022,363022,361191,362304,361191,363438,362821,362821,363438,70
67,test,1,inc,1,m,Fri Nov 07 2025 13:42:06 GMT-0600 (Central Standard Time),368601.0,temper,1000,O,m,m,None,661,460.0,201.0,119,,2194.800000011921,366406.1999999881,7704,remote,AF,B,365171,365171,363441,364455,363441,365636,364970,364970,365636,71
68,test,1,con,1,z,Fri Nov 07 2025 13:42:06 GMT-0600 (Central Standard Time),370885.1999999881,love,1100,O,z,z,None,641,441.0,200.0,20,,2281.5,368603.6999999881,7704,love,AF,B,367470,367470,365639,366753,365639,367920,367270,367270,367920,72
69,test,1,inc,1,z,Fri Nov 07 2025 13:42:06 GMT-0600 (Central Standard Time),373000.09999999404,step,800,O,z,z,None,778,578.0,200.0,53,,2111.699999988079,370888.40000000596,7704,rage,AF,B,369453,369453,367923,368737,367924,370035,369253,369253,370035,73
70,test,1,inc,1,z,Fri Nov 07 2025 13:42:06 GMT-0600 (Central Standard Time),375015.90000000596,rock,900,O,z,z,None,579,378.0,201.0,46,,2012.9000000059605,373003.0,7704,hate,AF,B,371669,371669,370038,370952,370038,372051,371468,371468,372051,74
71,test,1,con,1,z,Fri Nov 07 2025 13:42:06 GMT-0600 (Central Standard Time),376948.59999999404,hate,800,O,z,z,None,599,399.0,200.0,41,,1929.7999999821186,375018.8000000119,7704,hate,AF,B,373584,373584,372054,372868,372054,373984,373384,373384,373984,75
72,test,1,con,1,m,Fri Nov 07 2025 13:42:06 GMT-0600 (Central Standard Time),378948.8000000119,window,800,O,m,m,None,663,448.0,215.0,121,,1997.7000000178814,376951.09999999404,7704,window,AF,B,375534,375534,373986,374801,373986,375984,375319,375319,375984,76
73,test,1,inc,1,z,Fri Nov 07 2025 13:42:06 GMT-0600 (Central Standard Time),381131.59999999404,remote,1000,O,z,z,None,634,425.0,209.0,7,,2180.0,378951.59999999404,7704,elated,AF,B,377734,377734,375987,377000,375987,378167,377525,377525,378167,77
74,test,1,inc,1,m,Fri Nov 07 2025 13:42:06 GMT-0600 (Central Standard Time),383446.5,hate,1100,O,m,m,None,671,472.0,199.0,96,,2312.0999999940395,381134.40000000596,7704,film,AF,B,379998,379998,378169,379283,378170,380482,379799,379799,380482,78
75,test,1,inc,1,m,Fri Nov 07 2025 13:42:06 GMT-0600 (Central Standard Time),385745.6999999881,love,1000,O,m,m,None,758,559.0,199.0,87,,2296.2999999821186,383449.40000000596,7704,bell,AF,B,382215,382215,380484,381500,380485,382781,382015,382015,382781,79
76,test,1,inc,1,z,Fri Nov 07 2025 13:42:06 GMT-0600 (Central Standard Time),387728.59999999404,step,800,O,z,z,None,645,445.0,200.0,21,,1979.5999999940395,385749.0,7704,love,AF,B,384314,384314,382784,383597,382784,384764,384114,384114,384764,80
77,test,1,con,1,z,Fri Nov 07 2025 13:42:06 GMT-0600 (Central Standard Time),389844.59999999404,love,1000,O,z,z,None,597,398.0,199.0,19,,2112.699999988079,387731.90000000596,7704,love,AF,B,386480,386480,384767,385780,384767,386880,386281,386281,386880,81
78,test,1,inc,1,m,Fri Nov 07 2025 13:42:06 GMT-0600 (Central Standard Time),392010.90000000596,brutal,900,O,m,m,None,717,518.0,199.0,126,,2163.0,389847.90000000596,7704,window,AF,B,388512,388512,386883,387797,386883,389046,388313,388313,389046,82
79,test,1,inc,1,m,Fri Nov 07 2025 13:42:06 GMT-0600 (Central Standard Time),394160.09999999404,kind,900,O,m,m,None,712,512.0,200.0,94,,2146.4000000059605,392013.6999999881,7704,film,AF,B,390679,390679,389049,389963,389049,391195,390479,390479,391195,83
80,test,1,con,1,m,Fri Nov 07 2025 13:42:06 GMT-0600 (Central Standard Time),396359.09999999404,napkin,800,O,m,m,None,853,653.0,200.0,105,,2195.7999999821186,394163.3000000119,7704,napkin,AF,B,392729,392729,391198,392012,391198,393394,392529,392529,393394,84
81,test,1,inc,1,m,Fri Nov 07 2025 13:42:06 GMT-0600 (Central Standard Time),398447.0,rage,800,O,m,m,None,735,536.0,199.0,85,,2085.0,396362.0,7704,bell,AF,B,394928,394928,393397,394212,393397,395482,394728,394728,395482,85
82,test,1,inc,1,z,Fri Nov 07 2025 13:42:06 GMT-0600 (Central Standard Time),400607.6999999881,step,800,O,z,z,None,820,621.0,199.0,45,,2157.0999999940395,398450.59999999404,7704,hate,AF,B,397009,397009,395486,396294,395486,397643,396810,396810,397643,86
83,test,1,inc,1,m,Fri Nov 07 2025 13:42:06 GMT-0600 (Central Standard Time),402824.09999999404,temper,1000,O,m,m,None,670,454.0,216.0,111,,2213.5,400610.59999999404,7704,napkin,AF,B,399393,399393,397646,398660,397646,399859,399177,399177,399859,87
84,test,1,inc,1,m,Fri Nov 07 2025 13:42:06 GMT-0600 (Central Standard Time),405240.0,temper,1000,O,m,m,None,877,662.0,215.0,127,,2412.800000011921,402827.1999999881,7704,window,AF,B,401608,401608,399862,400875,399862,402275,401393,401393,402275,88
85,test,1,con,1,m,Fri Nov 07 2025 13:42:06 GMT-0600 (Central Standard Time),407273.0,jacket,900,O,m,m,None,586,387.0,199.0,98,,2030.4000000059605,405242.59999999404,7704,jacket,AF,B,403908,403908,402278,403193,402278,404308,403709,403709,404308,89
86,test,1,con,1,z,Fri Nov 07 2025 13:42:06 GMT-0600 (Central Standard Time),409172.3000000119,love,800,O,z,z,None,559,359.0,200.0,17,,1896.300000011921,407276.0,7704,love,AF,B,405840,405840,404311,405124,404311,406207,405640,405640,406207,90
87,test,1,con,1,m,Fri Nov 07 2025 13:42:06 GMT-0600 (Central Standard Time),411355.09999999404,window,900,O,m,m,None,743,543.0,200.0,122,,2179.699999988079,409175.40000000596,7704,window,AF,B,407840,407840,406210,407124,406211,408390,407640,407640,408390,91
88,test,1,con,1,m,Fri Nov 07 2025 13:42:06 GMT-0600 (Central Standard Time),413453.59999999404,remote,800,O,m,m,None,764,564.0,200.0,113,,2095.699999988079,411357.90000000596,7704,remote,AF,B,409923,409923,408393,409206,408393,410489,409723,409723,410489,92
89,test,1,con,1,m,Fri Nov 07 2025 13:42:06 GMT-0600 (Central Standard Time),415519.8000000119,window,1000,O,m,m,None,521,321.0,200.0,123,,2063.7000000178814,413456.09999999404,7704,window,AF,B,412222,412222,410491,411505,410491,412555,412022,412022,412555,93
90,test,1,con,1,m,Fri Nov 07 2025 13:42:06 GMT-0600 (Central Standard Time),417569.3000000119,bell,900,O,m,m,None,602,386.0,216.0,82,,2046.9000000059605,415522.40000000596,7704,bell,AF,B,414205,414205,412557,413472,412558,414604,413989,413989,414604,94
91,test,1,con,1,z,Fri Nov 07 2025 13:42:06 GMT-0600 (Central Standard Time),419452.3000000119,love,900,O,z,z,None,449,250.0,199.0,18,,1880.300000011921,417572.0,7704,love,AF,B,416237,416237,414607,415522,414607,416487,416038,416038,416487,95
92,test,1,con,1,m,Fri Nov 07 2025 13:42:06 GMT-0600 (Central Standard Time),421534.59999999404,rock,1000,O,m,m,None,546,346.0,200.0,75,,2079.5,419455.09999999404,7704,rock,AF,B,418220,418220,416490,417505,416490,418570,418020,418020,418570,96
93,test,1,con,1,m,Fri Nov 07 2025 13:42:06 GMT-0600 (Central Standard Time),423900.3000000119,rock,1100,O,m,m,None,732,517.0,215.0,76,,2363.100000023842,421537.1999999881,7704,rock,AF,B,420402,420402,418572,419686,418572,420935,420187,420187,420935,97
94,test,1,con,1,m,Fri Nov 07 2025 13:42:06 GMT-0600 (Central Standard Time),426167.40000000596,napkin,1100,O,m,m,None,621,421.0,200.0,108,,2264.5,423902.90000000596,7704,napkin,AF,B,422769,422769,420938,422053,420938,423202,422569,422569,423202,98
95,test,1,con,1,m,Fri Nov 07 2025 13:42:06 GMT-0600 (Central Standard Time),428349.5,napkin,1000,O,m,m,None,648,448.0,200.0,107,,2179.4000000059605,426170.09999999404,7704,napkin,AF,B,424935,424935,423205,424218,423205,425385,424735,424735,425385,99
96,test,1,con,1,m,Fri Nov 07 2025 13:42:06 GMT-0600 (Central Standard Time),430431.5,film,900,O,m,m,None,637,438.0,199.0,90,,2079.300000011921,428352.1999999881,7704,film,AF,B,427017,427017,425387,426301,425388,427467,426818,426818,427467,100
97,test,1,inc,1,z,Fri Nov 07 2025 13:42:06 GMT-0600 (Central Standard Time),432565.59999999404,napkin,900,O,z,z,None,698,482.0,216.0,62,,2131.5,430434.09999999404,7704,temper,AF,B,429117,429117,427469,428384,427469,429601,428900,428901,429601,101
98,test,1,inc,1,m,Fri Nov 07 2025 13:42:06 GMT-0600 (Central Standard Time),434997.1999999881,friend,1100,O,m,m,None,806,607.0,199.0,104,,2428.5999999940395,432568.59999999404,7704,jacket,AF,B,431416,431416,429604,430716,429604,432032,431217,431217,432032,102
99,test,1,inc,1,m,Fri Nov 07 2025 13:42:06 GMT-0600 (Central Standard Time),437262.6999999881,friend,1100,O,m,m,None,629,430.0,199.0,128,,2262.699999988079,435000.0,7704,window,AF,B,433865,433865,432035,433149,432035,434298,433665,433665,434298,103
100,test,1,inc,1,m,Fri Nov 07 2025 13:42:06 GMT-0600 (Central Standard Time),439345.1999999881,elated,800,O,m,m,None,735,536.0,199.0,125,,2079.7999999821186,437265.40000000596,7704,window,AF,B,435831,435831,434300,435115,434301,436380,435632,435632,436380,104
101,test,1,inc,1,m,Fri Nov 07 2025 13:42:06 GMT-0600 (Central Standard Time),441496.0,temper,1000,O,m,m,None,605,406.0,199.0,103,,2148.300000011921,439347.6999999881,7704,jacket,AF,B,438113,438113,436383,437397,436383,438531,437914,437914,438531,105
102,test,1,con,1,z,Fri Nov 07 2025 13:42:06 GMT-0600 (Central Standard Time),443678.1999999881,rage,1100,O,z,z,None,540,341.0,199.0,52,,2179.699999988079,441498.5,7704,rage,AF,B,440362,440362,438534,439646,438534,440713,440163,440163,440713,106
103,test,1,inc,1,z,Fri Nov 07 2025 13:42:06 GMT-0600 (Central Standard Time),445927.0,rock,900,O,z,z,None,804,602.0,202.0,22,,2246.0,443681.0,7704,love,AF,B,442348,442348,440716,441629,440716,442962,442146,442146,442962,107
104,test,1,con,1,z,Fri Nov 07 2025 13:42:06 GMT-0600 (Central Standard Time),447776.5,brutal,800,O,z,z,None,511,311.0,200.0,33,,1846.800000011921,445929.6999999881,7704,brutal,AF,B,444495,444495,442965,443779,442965,444812,444295,444295,444812,108
105,test,1,inc,1,z,Fri Nov 07 2025 13:42:06 GMT-0600 (Central Standard Time),449775.90000000596,jacket,800,O,z,z,None,655,455.0,200.0,5,,1996.9000000059605,447779.0,7704,elated,AF,B,446344,446344,444814,445629,444814,446811,446144,446144,446811,109
106,test,1,con,1,m,Fri Nov 07 2025 13:42:06 GMT-0600 (Central Standard Time),452025.6999999881,jacket,1000,O,m,m,None,704,503.0,201.0,99,,2247.0999999940395,449778.59999999404,7704,jacket,AF,B,448544,448544,446814,447827,446814,449061,448343,448343,449061,110
107,test,1,con,1,m,Fri Nov 07 2025 13:42:06 GMT-0600 (Central Standard Time),454190.6999999881,bell,1100,O,m,m,None,536,322.0,214.0,84,,2161.899999976158,452028.8000000119,7704,bell,AF,B,450893,450893,449064,450177,449064,451226,450678,450678,451226,111
108,test,1,inc,1,z,Fri Nov 07 2025 13:42:06 GMT-0600 (Central Standard Time),456306.6999999881,napkin,900,O,z,z,None,668,468.0,200.0,6,,2113.2999999821186,454193.40000000596,7704,elated,AF,B,452859,452859,451228,452143,451229,453342,452659,452659,453342,112
109,test,1,con,1,m,Fri Nov 07 2025 13:42:06 GMT-0600 (Central Standard Time),458289.59999999404,rock,800,O,m,m,None,642,443.0,199.0,73,,1979.7999999821186,456309.8000000119,7704,rock,AF,B,454875,454875,453345,454158,453345,455325,454675,454675,455325,113
110,test,1,inc,1,z,Fri Nov 07 2025 13:42:06 GMT-0600 (Central Standard Time),460340.0,jacket,800,O,z,z,None,708,509.0,199.0,29,,2047.300000011921,458292.6999999881,7704,friend,AF,B,456858,456858,455328,456142,455328,457375,456658,456658,457375,114
111,test,1,inc,1,z,Fri Nov 07 2025 13:42:06 GMT-0600 (Central Standard Time),462571.3000000119,bell,1000,O,z,z,None,690,491.0,199.0,23,,2228.7000000178814,460342.59999999404,7704,love,AF,B,459107,459107,457378,458391,457378,459606,458907,458907,459606,115
112,test,1,inc,1,m,Fri Nov 07 2025 13:42:06 GMT-0600 (Central Standard Time),464888.40000000596,friend,1100,O,m,m,None,670,470.0,200.0,120,,2314.5,462573.90000000596,7704,remote,AF,B,461440,461440,459609,460724,459609,461923,461240,461240,461923,116
113,test,1,con,1,z,Fri Nov 07 2025 13:42:06 GMT-0600 (Central Standard Time),467270.09999999404,hate,1100,O,z,z,None,737,537.0,200.0,44,,2378.7999999821186,464891.3000000119,7704,hate,AF,B,463757,463757,461926,463039,461927,464305,463556,463556,464305,117
114,test,1,inc,1,m,Fri Nov 07 2025 13:42:06 GMT-0600 (Central Standard Time),469619.40000000596,hate,1100,O,m,m,None,708,508.0,200.0,88,,2345.9000000059605,467273.5,7704,bell,AF,B,466139,466139,464309,465423,464309,466654,465938,465938,466654,118
115,test,1,inc,1,m,Fri Nov 07 2025 13:42:06 GMT-0600 (Central Standard Time),471837.5,kind,900,O,m,m,None,790,590.0,200.0,70,,2214.9000000059605,469622.59999999404,7704,step,AF,B,468272,468272,466658,467571,466658,468873,468072,468072,468873,119
116,test,1,con,1,z,Fri Nov 07 2025 13:42:06 GMT-0600 (Central Standard Time),474102.40000000596,elated,1000,O,z,z,None,723,523.0,200.0,3,,2262.2000000178814,471840.1999999881,7704,elated,AF,B,470604,470604,468875,469888,468875,471137,470404,470404,471137,120
117,test,1,con,1,z,Fri Nov 07 2025 13:42:06 GMT-0600 (Central Standard Time),476217.90000000596,brutal,1000,O,z,z,None,575,375.0,200.0,35,,2113.0999999940395,474104.8000000119,7704,brutal,AF,B,472871,472871,471140,472154,471140,473253,472670,472670,473253,121
118,test,1,inc,1,z,Fri Nov 07 2025 13:42:06 GMT-0600 (Central Standard Time),478484.3000000119,remote,1000,O,z,z,None,717,517.0,200.0,39,,2263.7000000178814,476220.59999999404,7704,brutal,AF,B,474985,474985,473256,474269,473256,475519,474785,474785,475519,122
119,test,1,con,1,z,Fri Nov 07 2025 13:42:06 GMT-0600 (Central Standard Time),480482.90000000596,kind,900,O,z,z,None,566,367.0,199.0,10,,1995.800000011921,478487.09999999404,7704,kind,AF,B,477135,477135,475522,476435,475522,477518,476936,476936,477518,123
120,test,1,inc,1,z,Fri Nov 07 2025 13:42:06 GMT-0600 (Central Standard Time),482615.1999999881,rock,900,O,z,z,None,687,471.0,216.0,54,,2129.199999988079,480486.0,7704,rage,AF,B,479168,479168,477521,478436,477521,479650,478952,478952,479650,124
121,test,1,con,1,m,Fri Nov 07 2025 13:42:06 GMT-0600 (Central Standard Time),484898.1999999881,jacket,1100,O,m,m,None,635,435.0,200.0,100,,2280.199999988079,482618.0,7704,jacket,AF,B,481484,481484,479653,480767,479653,481933,481284,481284,481933,125
122,test,1,con,1,m,Fri Nov 07 2025 13:42:06 GMT-0600 (Central Standard Time),486965.40000000596,film,1000,O,m,m,None,532,333.0,199.0,91,,2064.4000000059605,484901.0,7704,film,AF,B,483667,483667,481936,482950,481936,484000,483467,483467,484000,126
123,test,1,inc,1,z,Fri Nov 07 2025 13:42:06 GMT-0600 (Central Standard Time),489030.1999999881,rock,900,O,z,z,None,631,431.0,200.0,14,,2062.2999999821186,486967.90000000596,7704,kind,AF,B,485632,485632,484003,484916,484003,486065,485432,485432,486065,127
124,test,1,con,1,z,Fri Nov 07 2025 13:42:06 GMT-0600 (Central Standard Time),491547.0,friend,900,O,z,z,None,1077,876.0,201.0,26,,2513.800000011921,489033.1999999881,7704,friend,AF,B,487699,487699,486068,486983,486068,488582,487498,487498,488582,128
