acc_sum,block,block_c,change,condition,correct,correct_response,datetime,endtime,face,project,response,response_time,row_sel,session_number,start_end,starttime,subject_id,task,task_vers,trial
0,prac,1,,1-Back,,,Tue Dec 02 2025 14:13:15 GMT-0600 (Central Standard Time),,124_o_f_d_a.png,O,space,16328,1,1,,,7714,VNB,A,0
0,prac,1,0.0,1-Back,0.0,m,Tue Dec 02 2025 14:13:15 GMT-0600 (Central Standard Time),203914.09999999404,071_y_f_n_a.png,O,None,2015,2,1,2806.0999999940395,201108.0,7714,VNB,A,1
0,prac,1,0.0,1-Back,0.0,m,Tue Dec 02 2025 14:13:15 GMT-0600 (Central Standard Time),206713.5,165_m_m_h_a.png,O,None,2008,3,1,2787.5,203926.0,7714,VNB,A,2
0,prac,1,0.0,1-Back,0.0,m,Tue Dec 02 2025 14:13:15 GMT-0600 (Central Standard Time),209530.5,109_y_m_d_a.png,O,None,2014,4,1,2806.7000000029802,206723.79999999702,7714,VNB,A,3
1,prac,1,0.0,1-Back,1.0,m,Tue Dec 02 2025 14:13:15 GMT-0600 (Central Standard Time),212312.39999999106,124_o_f_n_a.png,O,m,1951,5,1,2771.0999999940395,209541.29999999702,7714,VNB,A,4
2,prac,1,1.0,1-Back,1.0,z,Tue Dec 02 2025 14:13:15 GMT-0600 (Central Standard Time),214610.79999999702,109_y_m_n_a.png,O,z,1485,6,1,2287.4000000059605,212323.39999999106,7714,VNB,A,5
3,prac,1,0.0,1-Back,1.0,m,Tue Dec 02 2025 14:13:15 GMT-0600 (Central Standard Time),216978.09999999404,039_o_m_h_a.png,O,m,1584,7,1,2356.2999999970198,214621.79999999702,7714,VNB,A,6
3,prac,1,0.0,1-Back,0.0,m,Tue Dec 02 2025 14:13:15 GMT-0600 (Central Standard Time),218777.0,139_m_f_d_a.png,O,z,984,8,1,1786.5,216990.5,7714,VNB,A,7
3,prac,1,1.0,1-Back,0.0,z,Tue Dec 02 2025 14:13:15 GMT-0600 (Central Standard Time),221575.69999998808,071_y_f_d_a.png,O,None,2003,9,1,2787.2999999970198,218788.39999999106,7714,VNB,A,8
4,prac,1,0.0,1-Back,1.0,m,Tue Dec 02 2025 14:13:15 GMT-0600 (Central Standard Time),224107.69999998808,165_m_m_n_a.png,O,m,1724,10,1,2523.699999988079,221584.0,7714,VNB,A,9
5,prac,1,0.0,1-Back,1.0,m,Tue Dec 02 2025 14:13:15 GMT-0600 (Central Standard Time),226192.5,124_o_f_h_a.png,O,m,1268,11,1,2071.4000000059605,224121.09999999404,7714,VNB,A,10
6,prac,1,0.0,1-Back,1.0,m,Tue Dec 02 2025 14:13:15 GMT-0600 (Central Standard Time),228389.09999999404,109_y_m_d_a.png,O,m,1405,12,1,2185.0,226204.09999999404,7714,VNB,A,11
0,prac,2,0.0,1-Back,,,Tue Dec 02 2025 14:13:15 GMT-0600 (Central Standard Time),228389.09999999404,124_o_f_d_a.png,O,a,18726,1,1,2185.0,226204.09999999404,7714,VNB,A,0
1,prac,2,0.0,1-Back,1.0,m,Tue Dec 02 2025 14:13:15 GMT-0600 (Central Standard Time),252382.69999998808,071_y_f_n_a.png,O,m,1402,2,1,2208.199999988079,250174.5,7714,VNB,A,1
2,prac,2,0.0,1-Back,1.0,m,Tue Dec 02 2025 14:13:15 GMT-0600 (Central Standard Time),254714.69999998808,165_m_m_h_a.png,O,m,1528,3,1,2319.3999999910593,252395.29999999702,7714,VNB,A,2
3,prac,2,0.0,1-Back,1.0,m,Tue Dec 02 2025 14:13:15 GMT-0600 (Central Standard Time),256615.69999998808,109_y_m_d_a.png,O,m,1129,4,1,1887.7999999970198,254727.89999999106,7714,VNB,A,3
4,prac,2,0.0,1-Back,1.0,m,Tue Dec 02 2025 14:13:15 GMT-0600 (Central Standard Time),258579.69999998808,124_o_f_n_a.png,O,m,1125,5,1,1951.8999999910593,256627.79999999702,7714,VNB,A,4
5,prac,2,1.0,1-Back,1.0,z,Tue Dec 02 2025 14:13:15 GMT-0600 (Central Standard Time),260730.79999999702,109_y_m_n_a.png,O,z,1356,6,1,2137.6000000089407,258593.19999998808,7714,VNB,A,5
6,prac,2,0.0,1-Back,1.0,m,Tue Dec 02 2025 14:13:15 GMT-0600 (Central Standard Time),262761.6999999881,039_o_m_h_a.png,O,m,1230,7,1,2019.7999999970198,260741.89999999106,7714,VNB,A,6
7,prac,2,0.0,1-Back,1.0,m,Tue Dec 02 2025 14:13:15 GMT-0600 (Central Standard Time),264611.799999997,139_m_f_d_a.png,O,m,1059,8,1,1842.2999999970198,262769.5,7714,VNB,A,7
7,prac,2,1.0,1-Back,0.0,z,Tue Dec 02 2025 14:13:15 GMT-0600 (Central Standard Time),267410.1999999881,071_y_f_d_a.png,O,m,1982,9,1,2785.7999999970198,264624.39999999106,7714,VNB,A,8
8,prac,2,0.0,1-Back,1.0,m,Tue Dec 02 2025 14:13:15 GMT-0600 (Central Standard Time),269877.39999999106,165_m_m_n_a.png,O,m,1660,10,1,2455.7000000029802,267421.6999999881,7714,VNB,A,9
9,prac,2,0.0,1-Back,1.0,m,Tue Dec 02 2025 14:13:15 GMT-0600 (Central Standard Time),271908.799999997,124_o_f_h_a.png,O,m,1203,11,1,2019.7000000029802,269889.09999999404,7714,VNB,A,10
10,prac,2,0.0,1-Back,1.0,m,Tue Dec 02 2025 14:13:15 GMT-0600 (Central Standard Time),274008.39999999106,109_y_m_d_a.png,O,m,1312,12,1,2088.0999999940395,271920.299999997,7714,VNB,A,11
0,test,1,0.0,1-Back,,,Tue Dec 02 2025 14:13:15 GMT-0600 (Central Standard Time),274008.39999999106,071_y_f_d_a.png,O,space,28151,1,1,2088.0999999940395,271920.299999997,7714,VNB,A,0
1,test,1,0.0,1-Back,1.0,m,Tue Dec 02 2025 14:13:15 GMT-0600 (Central Standard Time),316910.6999999881,139_m_f_n_a.png,O,m,1410,2,1,2418.699999988079,314492.0,7714,VNB,A,1
2,test,1,0.0,1-Back,1.0,m,Tue Dec 02 2025 14:13:15 GMT-0600 (Central Standard Time),318894.09999999404,039_o_m_h_a.png,O,m,962,3,1,1974.4000000059605,316919.6999999881,7714,VNB,A,2
3,test,1,1.0,1-Back,1.0,z,Tue Dec 02 2025 14:13:15 GMT-0600 (Central Standard Time),321078.09999999404,165_m_m_h_a.png,O,z,1163,4,1,2174.5999999940395,318903.5,7714,VNB,A,3
4,test,1,0.0,1-Back,1.0,m,Tue Dec 02 2025 14:13:15 GMT-0600 (Central Standard Time),323226.59999999404,124_o_f_n_a.png,O,m,1125,5,1,2139.2999999970198,321087.299999997,7714,VNB,A,4
5,test,1,0.0,1-Back,1.0,m,Tue Dec 02 2025 14:13:15 GMT-0600 (Central Standard Time),325290.6999999881,109_y_m_d_a.png,O,m,1038,6,1,2056.8999999910593,323233.799999997,7714,VNB,A,5
6,test,1,1.0,1-Back,1.0,z,Tue Dec 02 2025 14:13:15 GMT-0600 (Central Standard Time),327607.6999999881,139_m_f_d_a.png,O,z,1286,7,1,2307.8999999910593,325299.799999997,7714,VNB,A,6
7,test,1,0.0,1-Back,1.0,m,Tue Dec 02 2025 14:13:15 GMT-0600 (Central Standard Time),329424.59999999404,071_y_f_h_a.png,O,m,789,8,1,1805.5999999940395,327619.0,7714,VNB,A,7
8,test,1,0.0,1-Back,1.0,m,Tue Dec 02 2025 14:13:15 GMT-0600 (Central Standard Time),331461.0,039_o_m_n_a.png,O,m,1019,9,1,2026.0,329435.0,7714,VNB,A,8
9,test,1,0.0,1-Back,1.0,m,Tue Dec 02 2025 14:13:15 GMT-0600 (Central Standard Time),333283.09999999404,109_y_m_h_a.png,O,m,784,10,1,1812.5,331470.59999999404,7714,VNB,A,9
10,test,1,0.0,1-Back,1.0,m,Tue Dec 02 2025 14:13:15 GMT-0600 (Central Standard Time),335089.89999999106,039_o_m_d_a.png,O,m,768,11,1,1798.8999999910593,333291.0,7714,VNB,A,10
11,test,1,1.0,1-Back,1.0,z,Tue Dec 02 2025 14:13:15 GMT-0600 (Central Standard Time),337055.5,124_o_f_d_a.png,O,z,942,12,1,1955.9000000059605,335099.59999999404,7714,VNB,A,11
12,test,1,0.0,1-Back,1.0,m,Tue Dec 02 2025 14:13:15 GMT-0600 (Central Standard Time),339120.299999997,165_m_m_n_a.png,O,m,1033,13,1,2055.1000000089407,337065.1999999881,7714,VNB,A,12
13,test,1,1.0,1-Back,1.0,z,Tue Dec 02 2025 14:13:15 GMT-0600 (Central Standard Time),341153.89999999106,071_y_f_n_a.png,O,z,1005,14,1,2023.2999999970198,339130.59999999404,7714,VNB,A,13
14,test,1,0.0,1-Back,1.0,m,Tue Dec 02 2025 14:13:15 GMT-0600 (Central Standard Time),343005.09999999404,139_m_f_h_a.png,O,m,835,15,1,1842.2000000029802,341162.89999999106,7714,VNB,A,14
15,test,1,0.0,1-Back,1.0,m,Tue Dec 02 2025 14:13:15 GMT-0600 (Central Standard Time),345105.89999999106,165_m_m_d_a.png,O,m,1077,16,1,2090.2000000029802,343015.6999999881,7714,VNB,A,15
16,test,1,0.0,1-Back,1.0,m,Tue Dec 02 2025 14:13:15 GMT-0600 (Central Standard Time),347385.39999999106,109_y_m_n_a.png,O,m,1257,17,1,2267.5,345117.89999999106,7714,VNB,A,16
17,test,1,0.0,1-Back,1.0,m,Tue Dec 02 2025 14:13:15 GMT-0600 (Central Standard Time),349184.09999999404,124_o_f_h_a.png,O,m,775,18,1,1788.9000000059605,347395.1999999881,7714,VNB,A,17
0,test,2,0.0,1-Back,,,Tue Dec 02 2025 14:13:15 GMT-0600 (Central Standard Time),349184.09999999404,109_y_m_n_a.png,O,space,3834,1,1,1788.9000000059605,347395.1999999881,7714,VNB,A,0
1,test,2,0.0,1-Back,1.0,m,Tue Dec 02 2025 14:13:15 GMT-0600 (Central Standard Time),357116.799999997,071_y_f_h_a.png,O,m,1044,2,1,2056.7999999970198,355060.0,7714,VNB,A,1
2,test,2,1.0,1-Back,1.0,m,Tue Dec 02 2025 14:13:15 GMT-0600 (Central Standard Time),359514.39999999106,039_o_m_n_a.png,O,m,1366,3,1,2389.8999999910593,357124.5,7714,VNB,A,2
3,test,2,0.0,1-Back,1.0,m,Tue Dec 02 2025 14:13:15 GMT-0600 (Central Standard Time),361513.39999999106,139_m_f_d_a.png,O,m,974,4,1,1989.7999999970198,359523.59999999404,7714,VNB,A,3
4,test,2,0.0,1-Back,1.0,z,Tue Dec 02 2025 14:13:15 GMT-0600 (Central Standard Time),363163.09999999404,165_m_m_d_a.png,O,z,622,5,1,1639.0,361524.09999999404,7714,VNB,A,4
5,test,2,0.0,1-Back,1.0,m,Tue Dec 02 2025 14:13:15 GMT-0600 (Central Standard Time),365013.39999999106,109_y_m_h_a.png,O,m,829,6,1,1837.7999999970198,363175.59999999404,7714,VNB,A,5
6,test,2,1.0,1-Back,1.0,z,Tue Dec 02 2025 14:13:15 GMT-0600 (Central Standard Time),367178.5,124_o_f_h_a.png,O,z,1148,7,1,2154.0,365024.5,7714,VNB,A,6
7,test,2,0.0,1-Back,1.0,m,Tue Dec 02 2025 14:13:15 GMT-0600 (Central Standard Time),369095.799999997,139_m_f_n_a.png,O,m,885,8,1,1907.6000000089407,367188.1999999881,7714,VNB,A,7
8,test,2,0.0,1-Back,1.0,m,Tue Dec 02 2025 14:13:15 GMT-0600 (Central Standard Time),371194.0,071_y_f_d_a.png,O,m,1082,9,1,2086.2000000029802,369107.799999997,7714,VNB,A,8
9,test,2,0.0,1-Back,1.0,m,Tue Dec 02 2025 14:13:15 GMT-0600 (Central Standard Time),373476.299999997,165_m_m_n_a.png,O,m,1253,10,1,2273.2999999970198,371203.0,7714,VNB,A,9
10,test,2,1.0,1-Back,1.0,m,Tue Dec 02 2025 14:13:15 GMT-0600 (Central Standard Time),375375.799999997,139_m_f_h_a.png,O,m,868,11,1,1888.4000000059605,373487.39999999106,7714,VNB,A,10
11,test,2,0.0,1-Back,1.0,z,Tue Dec 02 2025 14:13:15 GMT-0600 (Central Standard Time),377008.6999999881,039_o_m_h_a.png,O,z,607,12,1,1620.7999999970198,375387.89999999106,7714,VNB,A,11
12,test,2,0.0,1-Back,1.0,m,Tue Dec 02 2025 14:13:15 GMT-0600 (Central Standard Time),378758.299999997,109_y_m_d_a.png,O,m,727,13,1,1739.6000000089407,377018.6999999881,7714,VNB,A,12
13,test,2,0.0,1-Back,1.0,m,Tue Dec 02 2025 14:13:15 GMT-0600 (Central Standard Time),380974.5,124_o_f_n_a.png,O,m,1184,14,1,2205.6000000089407,378768.89999999106,7714,VNB,A,13
14,test,2,0.0,1-Back,1.0,z,Tue Dec 02 2025 14:13:15 GMT-0600 (Central Standard Time),382877.09999999404,071_y_f_n_a.png,O,z,867,15,1,1890.9000000059605,380986.1999999881,7714,VNB,A,14
15,test,2,1.0,1-Back,1.0,m,Tue Dec 02 2025 14:13:15 GMT-0600 (Central Standard Time),384890.799999997,165_m_m_h_a.png,O,m,986,16,1,2003.7000000029802,382887.09999999404,7714,VNB,A,15
15,test,2,0.0,1-Back,0.0,m,Tue Dec 02 2025 14:13:15 GMT-0600 (Central Standard Time),386739.09999999404,124_o_f_d_a.png,O,z,822,17,1,1835.9000000059605,384903.1999999881,7714,VNB,A,16
15,test,2,1.0,1-Back,0.0,z,Tue Dec 02 2025 14:13:15 GMT-0600 (Central Standard Time),389138.0,039_o_m_d_a.png,O,m,1373,18,1,2388.7000000029802,386749.299999997,7714,VNB,A,17
0,test,3,1.0,1-Back,,,Tue Dec 02 2025 14:13:15 GMT-0600 (Central Standard Time),389138.0,124_o_f_h_a.png,O,space,2199,1,1,2388.7000000029802,386749.299999997,7714,VNB,A,0
1,test,3,0.0,1-Back,1.0,m,Tue Dec 02 2025 14:13:15 GMT-0600 (Central Standard Time),395370.5,139_m_f_d_a.png,O,m,934,2,1,1956.9000000059605,393413.59999999404,7714,VNB,A,1
2,test,3,1.0,1-Back,1.0,m,Tue Dec 02 2025 14:13:15 GMT-0600 (Central Standard Time),397785.59999999404,165_m_m_n_a.png,O,m,1391,3,1,2405.0,395380.59999999404,7714,VNB,A,2
3,test,3,0.0,1-Back,1.0,z,Tue Dec 02 2025 14:13:15 GMT-0600 (Central Standard Time),399734.299999997,124_o_f_n_a.png,O,z,919,4,1,1938.2000000029802,397796.09999999404,7714,VNB,A,3
4,test,3,1.0,1-Back,1.0,m,Tue Dec 02 2025 14:13:15 GMT-0600 (Central Standard Time),401584.299999997,039_o_m_d_a.png,O,m,824,5,1,1836.7999999970198,399747.5,7714,VNB,A,4
5,test,3,0.0,1-Back,1.0,m,Tue Dec 02 2025 14:13:15 GMT-0600 (Central Standard Time),403600.1999999881,071_y_f_h_a.png,O,m,983,6,1,2005.2999999970198,401594.89999999106,7714,VNB,A,5
6,test,3,0.0,1-Back,1.0,z,Tue Dec 02 2025 14:13:15 GMT-0600 (Central Standard Time),405552.6999999881,109_y_m_h_a.png,O,z,934,7,1,1941.7999999970198,403610.89999999106,7714,VNB,A,6
7,test,3,0.0,1-Back,1.0,m,Tue Dec 02 2025 14:13:15 GMT-0600 (Central Standard Time),407401.0,139_m_f_n_a.png,O,m,823,8,1,1840.7000000029802,405560.299999997,7714,VNB,A,7
8,test,3,0.0,1-Back,1.0,m,Tue Dec 02 2025 14:13:15 GMT-0600 (Central Standard Time),409515.59999999404,071_y_f_d_a.png,O,m,1095,9,1,2104.0999999940395,407411.5,7714,VNB,A,8
8,test,3,1.0,1-Back,0.0,m,Tue Dec 02 2025 14:13:15 GMT-0600 (Central Standard Time),411697.39999999106,039_o_m_n_a.png,O,z,1150,10,1,2172.0999999940395,409525.299999997,7714,VNB,A,9
9,test,3,0.0,1-Back,1.0,m,Tue Dec 02 2025 14:13:15 GMT-0600 (Central Standard Time),413882.0,165_m_m_h_a.png,O,m,1150,11,1,2175.0,411707.0,7714,VNB,A,10
10,test,3,0.0,1-Back,1.0,z,Tue Dec 02 2025 14:13:15 GMT-0600 (Central Standard Time),416380.0,139_m_f_h_a.png,O,z,1470,12,1,2487.9000000059605,413892.09999999404,7714,VNB,A,11
11,test,3,1.0,1-Back,1.0,m,Tue Dec 02 2025 14:13:15 GMT-0600 (Central Standard Time),418278.59999999404,124_o_f_d_a.png,O,m,868,13,1,1889.0,416389.59999999404,7714,VNB,A,12
11,test,3,0.0,1-Back,0.0,z,Tue Dec 02 2025 14:13:15 GMT-0600 (Central Standard Time),420079.39999999106,165_m_m_d_a.png,O,m,776,14,1,1791.3999999910593,418288.0,7714,VNB,A,13
12,test,3,0.0,1-Back,1.0,m,Tue Dec 02 2025 14:13:15 GMT-0600 (Central Standard Time),422761.299999997,109_y_m_n_a.png,O,m,1650,15,1,2670.0,420091.299999997,7714,VNB,A,14
13,test,3,1.0,1-Back,1.0,m,Tue Dec 02 2025 14:13:15 GMT-0600 (Central Standard Time),425110.299999997,039_o_m_h_a.png,O,m,1326,16,1,2338.4000000059605,422771.89999999106,7714,VNB,A,15
14,test,3,0.0,1-Back,1.0,m,Tue Dec 02 2025 14:13:15 GMT-0600 (Central Standard Time),427044.1999999881,109_y_m_d_a.png,O,m,906,17,1,1924.2999999970198,425119.89999999106,7714,VNB,A,16
15,test,3,1.0,1-Back,1.0,m,Tue Dec 02 2025 14:13:15 GMT-0600 (Central Standard Time),429691.6999999881,071_y_f_n_a.png,O,m,1632,18,1,2637.0999999940395,427054.59999999404,7714,VNB,A,17
0,test,4,1.0,1-Back,,,Tue Dec 02 2025 14:13:15 GMT-0600 (Central Standard Time),429691.6999999881,165_m_m_d_a.png,O,space,2156,1,1,2637.0999999940395,427054.59999999404,7714,VNB,A,0
0,test,4,0.0,1-Back,0.0,z,Tue Dec 02 2025 14:13:15 GMT-0600 (Central Standard Time),436906.799999997,039_o_m_d_a.png,O,None,2016,2,1,3026.2999999970198,433880.5,7714,VNB,A,1
1,test,4,0.0,1-Back,1.0,m,Tue Dec 02 2025 14:13:15 GMT-0600 (Central Standard Time),439073.799999997,109_y_m_h_a.png,O,m,1141,3,1,2158.0,436915.799999997,7714,VNB,A,2
1,test,4,0.0,1-Back,0.0,m,Tue Dec 02 2025 14:13:15 GMT-0600 (Central Standard Time),442072.799999997,139_m_f_n_a.png,O,z,1965,4,1,2987.4000000059605,439085.39999999106,7714,VNB,A,3
2,test,4,1.0,1-Back,1.0,m,Tue Dec 02 2025 14:13:15 GMT-0600 (Central Standard Time),443971.5,124_o_f_h_a.png,O,m,883,5,1,1888.7000000029802,442082.799999997,7714,VNB,A,4
3,test,4,0.0,1-Back,1.0,m,Tue Dec 02 2025 14:13:15 GMT-0600 (Central Standard Time),445853.1999999881,165_m_m_n_a.png,O,m,860,6,1,1873.2999999970198,443979.89999999106,7714,VNB,A,5
4,test,4,0.0,1-Back,1.0,m,Tue Dec 02 2025 14:13:15 GMT-0600 (Central Standard Time),448268.6999999881,109_y_m_d_a.png,O,m,1393,7,1,2405.3999999910593,445863.299999997,7714,VNB,A,6
4,test,4,1.0,1-Back,0.0,z,Tue Dec 02 2025 14:13:15 GMT-0600 (Central Standard Time),451293.5,071_y_f_d_a.png,O,None,2007,8,1,3013.4000000059605,448280.09999999404,7714,VNB,A,7
5,test,4,0.0,1-Back,1.0,m,Tue Dec 02 2025 14:13:15 GMT-0600 (Central Standard Time),453101.1999999881,139_m_f_h_a.png,O,m,782,9,1,1801.2999999970198,451299.89999999106,7714,VNB,A,8
6,test,4,0.0,1-Back,1.0,z,Tue Dec 02 2025 14:13:15 GMT-0600 (Central Standard Time),455033.799999997,039_o_m_h_a.png,O,z,913,10,1,1923.0,453110.799999997,7714,VNB,A,9
7,test,4,1.0,1-Back,1.0,m,Tue Dec 02 2025 14:13:15 GMT-0600 (Central Standard Time),457149.6999999881,124_o_f_n_a.png,O,m,1092,11,1,2107.5999999940395,455042.09999999404,7714,VNB,A,10
8,test,4,0.0,1-Back,1.0,m,Tue Dec 02 2025 14:13:15 GMT-0600 (Central Standard Time),459165.1999999881,139_m_f_d_a.png,O,m,994,12,1,2006.699999988079,457158.5,7714,VNB,A,11
9,test,4,0.0,1-Back,1.0,m,Tue Dec 02 2025 14:13:15 GMT-0600 (Central Standard Time),461849.0,071_y_f_n_a.png,O,m,1651,13,1,2674.4000000059605,459174.59999999404,7714,VNB,A,12
9,test,4,0.0,1-Back,0.0,m,Tue Dec 02 2025 14:13:15 GMT-0600 (Central Standard Time),463648.39999999106,124_o_f_d_a.png,O,z,781,14,1,1790.2000000029802,461858.1999999881,7714,VNB,A,13
10,test,4,0.0,1-Back,1.0,m,Tue Dec 02 2025 14:13:15 GMT-0600 (Central Standard Time),465680.299999997,071_y_f_h_a.png,O,m,1000,15,1,2022.2000000029802,463658.09999999404,7714,VNB,A,14
11,test,4,1.0,1-Back,1.0,z,Tue Dec 02 2025 14:13:15 GMT-0600 (Central Standard Time),467779.6999999881,165_m_m_h_a.png,O,z,1071,16,1,2086.2999999970198,465693.39999999106,7714,VNB,A,15
12,test,4,0.0,1-Back,1.0,m,Tue Dec 02 2025 14:13:15 GMT-0600 (Central Standard Time),469796.1999999881,039_o_m_n_a.png,O,m,989,17,1,2003.2999999970198,467792.89999999106,7714,VNB,A,16
13,test,4,1.0,1-Back,1.0,z,Tue Dec 02 2025 14:13:15 GMT-0600 (Central Standard Time),472178.09999999404,109_y_m_n_a.png,O,z,1354,18,1,2369.7000000029802,469808.39999999106,7714,VNB,A,17
0,test,5,1.0,1-Back,,,Tue Dec 02 2025 14:13:15 GMT-0600 (Central Standard Time),472178.09999999404,039_o_m_n_a.png,O,space,2158,1,1,2369.7000000029802,469808.39999999106,7714,VNB,A,0
1,test,5,1.0,1-Back,1.0,m,Tue Dec 02 2025 14:13:15 GMT-0600 (Central Standard Time),478909.39999999106,124_o_f_h_a.png,O,m,1518,2,1,2536.2999999970198,476373.09999999404,7714,VNB,A,1
2,test,5,0.0,1-Back,1.0,m,Tue Dec 02 2025 14:13:15 GMT-0600 (Central Standard Time),481008.89999999106,109_y_m_d_a.png,O,m,1069,3,1,2088.8999999910593,478920.0,7714,VNB,A,2
3,test,5,0.0,1-Back,1.0,z,Tue Dec 02 2025 14:13:15 GMT-0600 (Central Standard Time),483508.1999999881,039_o_m_d_a.png,O,z,1478,4,1,2489.2999999970198,481018.89999999106,7714,VNB,A,3
4,test,5,0.0,1-Back,1.0,m,Tue Dec 02 2025 14:13:15 GMT-0600 (Central Standard Time),485257.6999999881,139_m_f_h_a.png,O,m,718,5,1,1739.699999988079,483518.0,7714,VNB,A,4
5,test,5,0.0,1-Back,1.0,m,Tue Dec 02 2025 14:13:15 GMT-0600 (Central Standard Time),487189.89999999106,071_y_f_n_a.png,O,m,910,6,1,1921.0999999940395,485268.799999997,7714,VNB,A,5
6,test,5,1.0,1-Back,1.0,z,Tue Dec 02 2025 14:13:15 GMT-0600 (Central Standard Time),489557.0,124_o_f_n_a.png,O,z,1345,7,1,2354.9000000059605,487202.09999999404,7714,VNB,A,6
7,test,5,0.0,1-Back,1.0,m,Tue Dec 02 2025 14:13:15 GMT-0600 (Central Standard Time),491322.1999999881,139_m_f_d_a.png,O,m,734,8,1,1752.3999999910593,489569.799999997,7714,VNB,A,7
8,test,5,0.0,1-Back,1.0,m,Tue Dec 02 2025 14:13:15 GMT-0600 (Central Standard Time),493338.0,109_y_m_h_a.png,O,m,988,9,1,2006.300000011921,491331.6999999881,7714,VNB,A,8
9,test,5,0.0,1-Back,1.0,m,Tue Dec 02 2025 14:13:15 GMT-0600 (Central Standard Time),495153.89999999106,071_y_f_d_a.png,O,m,790,10,1,1805.2000000029802,493348.6999999881,7714,VNB,A,9
10,test,5,0.0,1-Back,1.0,m,Tue Dec 02 2025 14:13:15 GMT-0600 (Central Standard Time),497237.299999997,165_m_m_n_a.png,O,m,1062,11,1,2071.7999999970198,495165.5,7714,VNB,A,10
11,test,5,1.0,1-Back,1.0,z,Tue Dec 02 2025 14:13:15 GMT-0600 (Central Standard Time),499135.59999999404,139_m_f_n_a.png,O,z,873,12,1,1887.2999999970198,497248.299999997,7714,VNB,A,11
12,test,5,0.0,1-Back,1.0,m,Tue Dec 02 2025 14:13:15 GMT-0600 (Central Standard Time),501002.799999997,039_o_m_h_a.png,O,m,846,13,1,1856.6000000089407,499146.1999999881,7714,VNB,A,12
13,test,5,0.0,1-Back,1.0,z,Tue Dec 02 2025 14:13:15 GMT-0600 (Central Standard Time),503202.09999999404,165_m_m_h_a.png,O,z,1171,14,1,2189.9000000059605,501012.1999999881,7714,VNB,A,13
14,test,5,1.0,1-Back,1.0,m,Tue Dec 02 2025 14:13:15 GMT-0600 (Central Standard Time),505551.39999999106,124_o_f_d_a.png,O,m,1327,15,1,2337.5,503213.89999999106,7714,VNB,A,14
15,test,5,0.0,1-Back,1.0,m,Tue Dec 02 2025 14:13:15 GMT-0600 (Central Standard Time),507950.799999997,109_y_m_n_a.png,O,m,1369,16,1,2389.1000000089407,505561.6999999881,7714,VNB,A,15
16,test,5,0.0,1-Back,1.0,m,Tue Dec 02 2025 14:13:15 GMT-0600 (Central Standard Time),509916.89999999106,071_y_f_h_a.png,O,m,935,17,1,1955.7000000029802,507961.1999999881,7714,VNB,A,16
17,test,5,0.0,1-Back,1.0,m,Tue Dec 02 2025 14:13:15 GMT-0600 (Central Standard Time),511731.799999997,165_m_m_d_a.png,O,m,780,18,1,1800.5,509931.299999997,7714,VNB,A,17
0,prac,1,0.0,2-Back,,,Tue Dec 02 2025 14:13:15 GMT-0600 (Central Standard Time),511731.799999997,139_m_f_n_a.png,O,space,23347,1,1,1800.5,509931.299999997,7714,VNB,A,0
0,prac,1,0.0,2-Back,,,Tue Dec 02 2025 14:13:15 GMT-0600 (Central Standard Time),511731.799999997,124_o_f_h_a.png,O,space,23347,2,1,1800.5,509931.299999997,7714,VNB,A,0
0,prac,1,0.0,2-Back,0.0,m,Tue Dec 02 2025 14:13:15 GMT-0600 (Central Standard Time),670948.299999997,039_o_m_d_a.png,O,None,2002,3,1,2788.7000000029802,668159.599999994,7714,VNB,A,1
0,prac,1,1.0,2-Back,0.0,z,Tue Dec 02 2025 14:13:15 GMT-0600 (Central Standard Time),673697.799999997,165_m_m_h_a.png,O,m,1951,4,1,2737.1000000089407,670960.6999999881,7714,VNB,A,2
0,prac,1,0.0,2-Back,0.0,m,Tue Dec 02 2025 14:13:15 GMT-0600 (Central Standard Time),676514.1999999881,071_y_f_n_a.png,O,None,2017,5,1,2804.5,673709.6999999881,7714,VNB,A,3
0,prac,1,1.0,2-Back,0.0,z,Tue Dec 02 2025 14:13:15 GMT-0600 (Central Standard Time),679017.8999999911,039_o_m_h_a.png,O,m,1712,6,1,2492.5,676525.3999999911,7714,VNB,A,4
0,prac,1,1.0,2-Back,0.0,z,Tue Dec 02 2025 14:13:15 GMT-0600 (Central Standard Time),681811.599999994,109_y_m_n_a.png,O,m,1978,7,1,2785.5999999940395,679026.0,7714,VNB,A,5
0,prac,1,0.0,2-Back,0.0,m,Tue Dec 02 2025 14:13:15 GMT-0600 (Central Standard Time),684610.799999997,139_m_f_d_a.png,O,None,2001,8,1,2787.2999999970198,681823.5,7714,VNB,A,6
0,prac,1,0.0,2-Back,0.0,m,Tue Dec 02 2025 14:13:15 GMT-0600 (Central Standard Time),687442.799999997,124_o_f_d_a.png,O,None,2007,9,1,2820.6000000089407,684622.1999999881,7714,VNB,A,7
1,prac,1,0.0,2-Back,1.0,m,Tue Dec 02 2025 14:13:15 GMT-0600 (Central Standard Time),689509.6999999881,165_m_m_h_a.png,O,m,1284,10,1,2056.5,687453.1999999881,7714,VNB,A,8
1,prac,1,1.0,2-Back,0.0,z,Tue Dec 02 2025 14:13:15 GMT-0600 (Central Standard Time),692325.099999994,071_y_f_d_a.png,O,None,2017,11,1,2803.5999999940395,689521.5,7714,VNB,A,9
2,prac,1,0.0,2-Back,1.0,m,Tue Dec 02 2025 14:13:15 GMT-0600 (Central Standard Time),695041.299999997,039_o_m_n_a.png,O,m,1934,12,1,2706.6000000089407,692334.6999999881,7714,VNB,A,10
0,prac,2,0.0,2-Back,,,Tue Dec 02 2025 14:13:15 GMT-0600 (Central Standard Time),695041.299999997,139_m_f_n_a.png,O,a,7004,1,1,2706.6000000089407,692334.6999999881,7714,VNB,A,0
0,prac,2,0.0,2-Back,,,Tue Dec 02 2025 14:13:15 GMT-0600 (Central Standard Time),695041.299999997,124_o_f_h_a.png,O,a,7004,2,1,2706.6000000089407,692334.6999999881,7714,VNB,A,0
1,prac,2,0.0,2-Back,1.0,m,Tue Dec 02 2025 14:13:15 GMT-0600 (Central Standard Time),709519.5,039_o_m_d_a.png,O,m,1552,3,1,2353.9000000059605,707165.599999994,7714,VNB,A,1
2,prac,2,1.0,2-Back,1.0,z,Tue Dec 02 2025 14:13:15 GMT-0600 (Central Standard Time),712036.3999999911,165_m_m_h_a.png,O,z,1732,4,1,2504.7000000029802,709531.6999999881,7714,VNB,A,2
2,prac,2,0.0,2-Back,0.0,m,Tue Dec 02 2025 14:13:15 GMT-0600 (Central Standard Time),714850.8999999911,071_y_f_n_a.png,O,None,2016,5,1,2802.7999999970198,712048.099999994,7714,VNB,A,3
2,prac,2,1.0,2-Back,0.0,z,Tue Dec 02 2025 14:13:15 GMT-0600 (Central Standard Time),717217.299999997,039_o_m_h_a.png,O,m,1568,6,1,2355.1000000089407,714862.1999999881,7714,VNB,A,4
2,prac,2,1.0,2-Back,0.0,z,Tue Dec 02 2025 14:13:15 GMT-0600 (Central Standard Time),720033.3999999911,109_y_m_n_a.png,O,None,2011,7,1,2804.0999999940395,717229.299999997,7714,VNB,A,5
3,prac,2,0.0,2-Back,1.0,m,Tue Dec 02 2025 14:13:15 GMT-0600 (Central Standard Time),722615.5,139_m_f_d_a.png,O,m,1774,8,1,2570.4000000059605,720045.099999994,7714,VNB,A,6
3,prac,2,0.0,2-Back,0.0,m,Tue Dec 02 2025 14:13:15 GMT-0600 (Central Standard Time),725447.5,124_o_f_d_a.png,O,None,2007,9,1,2820.5,722627.0,7714,VNB,A,7
3,prac,2,0.0,2-Back,0.0,m,Tue Dec 02 2025 14:13:15 GMT-0600 (Central Standard Time),728230.0,165_m_m_h_a.png,O,None,2001,10,1,2767.9000000059605,725462.099999994,7714,VNB,A,8
3,prac,2,1.0,2-Back,0.0,z,Tue Dec 02 2025 14:13:15 GMT-0600 (Central Standard Time),731000.099999994,071_y_f_d_a.png,O,m,1970,11,1,2758.4000000059605,728241.6999999881,7714,VNB,A,9
3,prac,2,0.0,2-Back,0.0,m,Tue Dec 02 2025 14:13:15 GMT-0600 (Central Standard Time),733811.599999994,039_o_m_n_a.png,O,None,2006,12,1,2799.7000000029802,731011.8999999911,7714,VNB,A,10
0,test,1,0.0,2-Back,,,Tue Dec 02 2025 14:13:15 GMT-0600 (Central Standard Time),733811.599999994,109_y_m_h_a.png,O,space,73962,1,1,2799.7000000029802,731011.8999999911,7714,VNB,A,0
0,test,1,0.0,2-Back,,,Tue Dec 02 2025 14:13:15 GMT-0600 (Central Standard Time),733811.599999994,124_o_f_n_a.png,O,space,73962,2,1,2799.7000000029802,731011.8999999911,7714,VNB,A,0
0,test,1,0.0,2-Back,0.0,z,Tue Dec 02 2025 14:13:15 GMT-0600 (Central Standard Time),828931.3999999911,039_o_m_h_a.png,O,None,2015,3,1,3021.8999999910593,825909.5,7714,VNB,A,1
1,test,1,0.0,2-Back,1.0,m,Tue Dec 02 2025 14:13:15 GMT-0600 (Central Standard Time),831430.299999997,139_m_f_d_a.png,O,m,1476,4,1,2486.7999999970198,828943.5,7714,VNB,A,2
2,test,1,1.0,2-Back,1.0,m,Tue Dec 02 2025 14:13:15 GMT-0600 (Central Standard Time),834280.5,109_y_m_n_a.png,O,m,1825,5,1,2837.4000000059605,831443.099999994,7714,VNB,A,3
2,test,1,0.0,2-Back,0.0,z,Tue Dec 02 2025 14:13:15 GMT-0600 (Central Standard Time),836946.3999999911,071_y_f_d_a.png,O,m,1639,6,1,2650.5999999940395,834295.799999997,7714,VNB,A,4
3,test,1,0.0,2-Back,1.0,m,Tue Dec 02 2025 14:13:15 GMT-0600 (Central Standard Time),839378.5,165_m_m_h_a.png,O,m,1406,7,1,2421.5,836957.0,7714,VNB,A,5
3,test,1,1.0,2-Back,0.0,m,Tue Dec 02 2025 14:13:15 GMT-0600 (Central Standard Time),841494.5,071_y_f_n_a.png,O,z,1095,8,1,2102.800000011921,839391.6999999881,7714,VNB,A,6
3,test,1,0.0,2-Back,0.0,z,Tue Dec 02 2025 14:13:15 GMT-0600 (Central Standard Time),844142.8999999911,124_o_f_h_a.png,O,m,1616,9,1,2636.7000000029802,841506.1999999881,7714,VNB,A,7
4,test,1,0.0,2-Back,1.0,m,Tue Dec 02 2025 14:13:15 GMT-0600 (Central Standard Time),846993.099999994,039_o_m_d_a.png,O,m,1825,10,1,2838.2999999970198,844154.799999997,7714,VNB,A,8
4,test,1,1.0,2-Back,0.0,m,Tue Dec 02 2025 14:13:15 GMT-0600 (Central Standard Time),850008.099999994,165_m_m_d_a.png,O,z,1993,11,1,3003.2000000029802,847004.8999999911,7714,VNB,A,9
5,test,1,0.0,2-Back,1.0,m,Tue Dec 02 2025 14:13:15 GMT-0600 (Central Standard Time),852923.3999999911,139_m_f_n_a.png,O,m,1896,12,1,2904.0,850019.3999999911,7714,VNB,A,10
6,test,1,0.0,2-Back,1.0,m,Tue Dec 02 2025 14:13:15 GMT-0600 (Central Standard Time),855506.799999997,071_y_f_h_a.png,O,m,1565,13,1,2574.9000000059605,852931.8999999911,7714,VNB,A,11
7,test,1,0.0,2-Back,1.0,z,Tue Dec 02 2025 14:13:15 GMT-0600 (Central Standard Time),858091.299999997,165_m_m_n_a.png,O,z,1558,14,1,2572.9000000059605,855518.3999999911,7714,VNB,A,12
8,test,1,0.0,2-Back,1.0,m,Tue Dec 02 2025 14:13:15 GMT-0600 (Central Standard Time),860888.299999997,109_y_m_d_a.png,O,m,1775,15,1,2786.0,858102.299999997,7714,VNB,A,13
9,test,1,1.0,2-Back,1.0,m,Tue Dec 02 2025 14:13:15 GMT-0600 (Central Standard Time),863586.6999999881,139_m_f_h_a.png,O,m,1679,16,1,2688.5999999940395,860898.099999994,7714,VNB,A,14
9,test,1,0.0,2-Back,0.0,z,Tue Dec 02 2025 14:13:15 GMT-0600 (Central Standard Time),866620.799999997,124_o_f_d_a.png,O,None,2017,17,1,3024.2000000029802,863596.599999994,7714,VNB,A,15
9,test,1,0.0,2-Back,0.0,m,Tue Dec 02 2025 14:13:15 GMT-0600 (Central Standard Time),868819.099999994,039_o_m_n_a.png,O,z,1171,18,1,2186.4000000059605,866632.6999999881,7714,VNB,A,16
0,test,2,0.0,2-Back,,,Tue Dec 02 2025 14:13:15 GMT-0600 (Central Standard Time),868819.099999994,165_m_m_h_a.png,O,space,2085,1,1,2186.4000000059605,866632.6999999881,7714,VNB,A,0
0,test,2,0.0,2-Back,,,Tue Dec 02 2025 14:13:15 GMT-0600 (Central Standard Time),868819.099999994,071_y_f_n_a.png,O,space,2085,2,1,2186.4000000059605,866632.6999999881,7714,VNB,A,0
1,test,2,1.0,2-Back,1.0,z,Tue Dec 02 2025 14:13:15 GMT-0600 (Central Standard Time),878215.6999999881,124_o_f_h_a.png,O,z,1167,3,1,2184.3999999910593,876031.299999997,7714,VNB,A,1
2,test,2,0.0,2-Back,1.0,m,Tue Dec 02 2025 14:13:15 GMT-0600 (Central Standard Time),880581.599999994,039_o_m_d_a.png,O,m,1343,4,1,2355.4000000059605,878226.1999999881,7714,VNB,A,2
3,test,2,0.0,2-Back,1.0,m,Tue Dec 02 2025 14:13:15 GMT-0600 (Central Standard Time),883563.6999999881,139_m_f_d_a.png,O,m,1960,5,1,2971.0999999940395,880592.599999994,7714,VNB,A,3
4,test,2,0.0,2-Back,1.0,m,Tue Dec 02 2025 14:13:15 GMT-0600 (Central Standard Time),886129.6999999881,109_y_m_h_a.png,O,m,1539,6,1,2556.0999999940395,883573.599999994,7714,VNB,A,4
5,test,2,0.0,2-Back,1.0,m,Tue Dec 02 2025 14:13:15 GMT-0600 (Central Standard Time),888297.5,124_o_f_n_a.png,O,m,1142,7,1,2154.6000000089407,886142.8999999911,7714,VNB,A,5
5,test,2,1.0,2-Back,0.0,z,Tue Dec 02 2025 14:13:15 GMT-0600 (Central Standard Time),891330.3999999911,039_o_m_h_a.png,O,None,2016,8,1,3021.0999999940395,888309.299999997,7714,VNB,A,6
5,test,2,0.0,2-Back,0.0,m,Tue Dec 02 2025 14:13:15 GMT-0600 (Central Standard Time),894011.299999997,071_y_f_d_a.png,O,z,1665,9,1,2666.5,891344.799999997,7714,VNB,A,7
6,test,2,0.0,2-Back,1.0,m,Tue Dec 02 2025 14:13:15 GMT-0600 (Central Standard Time),896244.299999997,109_y_m_d_a.png,O,m,1213,10,1,2222.5,894021.799999997,7714,VNB,A,8
7,test,2,0.0,2-Back,1.0,m,Tue Dec 02 2025 14:13:15 GMT-0600 (Central Standard Time),898427.099999994,165_m_m_n_a.png,O,m,1151,11,1,2173.4000000059605,896253.6999999881,7714,VNB,A,9
8,test,2,0.0,2-Back,1.0,m,Tue Dec 02 2025 14:13:15 GMT-0600 (Central Standard Time),900742.3999999911,139_m_f_h_a.png,O,m,1287,12,1,2304.3999999910593,898438.0,7714,VNB,A,10
9,test,2,1.0,2-Back,1.0,z,Tue Dec 02 2025 14:13:15 GMT-0600 (Central Standard Time),903092.099999994,039_o_m_n_a.png,O,z,1321,13,1,2337.4000000059605,900754.6999999881,7714,VNB,A,11
10,test,2,0.0,2-Back,1.0,m,Tue Dec 02 2025 14:13:15 GMT-0600 (Central Standard Time),905423.3999999911,124_o_f_d_a.png,O,m,1306,14,1,2319.3999999910593,903104.0,7714,VNB,A,12
11,test,2,0.0,2-Back,1.0,m,Tue Dec 02 2025 14:13:15 GMT-0600 (Central Standard Time),907972.8999999911,071_y_f_h_a.png,O,m,1519,15,1,2542.2999999970198,905430.599999994,7714,VNB,A,13
12,test,2,0.0,2-Back,1.0,z,Tue Dec 02 2025 14:13:15 GMT-0600 (Central Standard Time),910391.0,165_m_m_d_a.png,O,z,1386,16,1,2411.5,907979.5,7714,VNB,A,14
13,test,2,0.0,2-Back,1.0,m,Tue Dec 02 2025 14:13:15 GMT-0600 (Central Standard Time),912922.0,109_y_m_n_a.png,O,m,1506,17,1,2520.6000000089407,910401.3999999911,7714,VNB,A,15
14,test,2,1.0,2-Back,1.0,m,Tue Dec 02 2025 14:13:15 GMT-0600 (Central Standard Time),915754.8999999911,139_m_f_n_a.png,O,m,1816,18,1,2821.5,912933.3999999911,7714,VNB,A,16
0,test,3,1.0,2-Back,,,Tue Dec 02 2025 14:13:15 GMT-0600 (Central Standard Time),915754.8999999911,039_o_m_n_a.png,O,space,1652,1,1,2821.5,912933.3999999911,7714,VNB,A,0
0,test,3,1.0,2-Back,,,Tue Dec 02 2025 14:13:15 GMT-0600 (Central Standard Time),915754.8999999911,124_o_f_d_a.png,O,space,1652,2,1,2821.5,912933.3999999911,7714,VNB,A,0
1,test,3,0.0,2-Back,1.0,m,Tue Dec 02 2025 14:13:15 GMT-0600 (Central Standard Time),924652.1999999881,071_y_f_h_a.png,O,m,1162,3,1,2172.5999999940395,922479.599999994,7714,VNB,A,1
1,test,3,0.0,2-Back,0.0,z,Tue Dec 02 2025 14:13:15 GMT-0600 (Central Standard Time),926949.599999994,139_m_f_d_a.png,O,m,1268,4,1,2286.0,924663.599999994,7714,VNB,A,2
2,test,3,1.0,2-Back,1.0,m,Tue Dec 02 2025 14:13:15 GMT-0600 (Central Standard Time),928967.1999999881,109_y_m_n_a.png,O,m,993,5,1,2005.199999988079,926962.0,7714,VNB,A,3
2,test,3,0.0,2-Back,0.0,m,Tue Dec 02 2025 14:13:15 GMT-0600 (Central Standard Time),930983.3999999911,039_o_m_h_a.png,O,z,992,6,1,2005.7000000029802,928977.6999999881,7714,VNB,A,4
2,test,3,0.0,2-Back,0.0,z,Tue Dec 02 2025 14:13:15 GMT-0600 (Central Standard Time),933781.799999997,071_y_f_n_a.png,O,m,1769,7,1,2786.7000000029802,930995.099999994,7714,VNB,A,5
3,test,3,1.0,2-Back,1.0,m,Tue Dec 02 2025 14:13:15 GMT-0600 (Central Standard Time),936381.1999999881,165_m_m_d_a.png,O,m,1577,8,1,2588.8999999910593,933792.299999997,7714,VNB,A,6
4,test,3,0.0,2-Back,1.0,m,Tue Dec 02 2025 14:13:15 GMT-0600 (Central Standard Time),938762.5,109_y_m_d_a.png,O,m,1361,9,1,2371.2000000029802,936391.299999997,7714,VNB,A,7
5,test,3,0.0,2-Back,1.0,m,Tue Dec 02 2025 14:13:15 GMT-0600 (Central Standard Time),940680.599999994,124_o_f_h_a.png,O,m,894,10,1,1907.7000000029802,938772.8999999911,7714,VNB,A,8
6,test,3,1.0,2-Back,1.0,m,Tue Dec 02 2025 14:13:15 GMT-0600 (Central Standard Time),942862.8999999911,139_m_f_n_a.png,O,m,1153,11,1,2172.7000000029802,940690.1999999881,7714,VNB,A,9
7,test,3,1.0,2-Back,1.0,z,Tue Dec 02 2025 14:13:15 GMT-0600 (Central Standard Time),945112.6999999881,165_m_m_h_a.png,O,z,1225,12,1,2237.699999988079,942875.0,7714,VNB,A,10
8,test,3,0.0,2-Back,1.0,m,Tue Dec 02 2025 14:13:15 GMT-0600 (Central Standard Time),947293.1999999881,071_y_f_d_a.png,O,m,1152,13,1,2172.5,945120.6999999881,7714,VNB,A,11
9,test,3,0.0,2-Back,1.0,m,Tue Dec 02 2025 14:13:15 GMT-0600 (Central Standard Time),949692.799999997,124_o_f_n_a.png,O,m,1370,14,1,2389.5,947303.299999997,7714,VNB,A,12
10,test,3,0.0,2-Back,1.0,z,Tue Dec 02 2025 14:13:15 GMT-0600 (Central Standard Time),952608.799999997,039_o_m_d_a.png,O,z,1884,15,1,2903.6000000089407,949705.1999999881,7714,VNB,A,13
11,test,3,1.0,2-Back,1.0,m,Tue Dec 02 2025 14:13:15 GMT-0600 (Central Standard Time),954892.8999999911,139_m_f_h_a.png,O,m,1263,16,1,2272.5999999940395,952620.299999997,7714,VNB,A,14
12,test,3,0.0,2-Back,1.0,m,Tue Dec 02 2025 14:13:15 GMT-0600 (Central Standard Time),957508.799999997,165_m_m_n_a.png,O,m,1583,17,1,2603.7000000029802,954905.099999994,7714,VNB,A,15
13,test,3,0.0,2-Back,1.0,z,Tue Dec 02 2025 14:13:15 GMT-0600 (Central Standard Time),959890.599999994,109_y_m_h_a.png,O,z,1351,18,1,2370.7000000029802,957519.8999999911,7714,VNB,A,16
0,test,4,0.0,2-Back,,,Tue Dec 02 2025 14:13:15 GMT-0600 (Central Standard Time),959890.599999994,139_m_f_n_a.png,O,space,1758,1,1,2370.7000000029802,957519.8999999911,7714,VNB,A,0
0,test,4,0.0,2-Back,,,Tue Dec 02 2025 14:13:15 GMT-0600 (Central Standard Time),959890.599999994,039_o_m_n_a.png,O,space,1758,2,1,2370.7000000029802,957519.8999999911,7714,VNB,A,0
1,test,4,1.0,2-Back,1.0,m,Tue Dec 02 2025 14:13:15 GMT-0600 (Central Standard Time),968753.5,109_y_m_h_a.png,O,m,1007,3,1,2021.7000000029802,966731.799999997,7714,VNB,A,1
2,test,4,1.0,2-Back,1.0,m,Tue Dec 02 2025 14:13:15 GMT-0600 (Central Standard Time),970835.5,124_o_f_d_a.png,O,m,1056,4,1,2072.2000000029802,968763.299999997,7714,VNB,A,2
2,test,4,0.0,2-Back,0.0,z,Tue Dec 02 2025 14:13:15 GMT-0600 (Central Standard Time),973336.6999999881,039_o_m_h_a.png,O,m,1472,5,1,2489.0999999940395,970847.599999994,7714,VNB,A,3
3,test,4,0.0,2-Back,1.0,m,Tue Dec 02 2025 14:13:15 GMT-0600 (Central Standard Time),976351.3999999911,165_m_m_n_a.png,O,m,1991,6,1,3005.0,973346.3999999911,7714,VNB,A,4
4,test,4,0.0,2-Back,1.0,m,Tue Dec 02 2025 14:13:15 GMT-0600 (Central Standard Time),979217.099999994,139_m_f_d_a.png,O,m,1835,7,1,2855.0,976362.099999994,7714,VNB,A,5
5,test,4,0.0,2-Back,1.0,z,Tue Dec 02 2025 14:13:15 GMT-0600 (Central Standard Time),980965.6999999881,071_y_f_n_a.png,O,z,726,8,1,1737.7999999970198,979227.8999999911,7714,VNB,A,6
6,test,4,1.0,2-Back,1.0,m,Tue Dec 02 2025 14:13:15 GMT-0600 (Central Standard Time),983266.0,124_o_f_h_a.png,O,m,1269,9,1,2290.7000000029802,980975.299999997,7714,VNB,A,7
7,test,4,0.0,2-Back,1.0,m,Tue Dec 02 2025 14:13:15 GMT-0600 (Central Standard Time),985915.0,165_m_m_h_a.png,O,m,1623,10,1,2638.2000000029802,983276.799999997,7714,VNB,A,8
8,test,4,0.0,2-Back,1.0,m,Tue Dec 02 2025 14:13:15 GMT-0600 (Central Standard Time),988231.299999997,071_y_f_d_a.png,O,m,1293,11,1,2306.1000000089407,985925.1999999881,7714,VNB,A,9
9,test,4,0.0,2-Back,1.0,m,Tue Dec 02 2025 14:13:15 GMT-0600 (Central Standard Time),991162.599999994,109_y_m_n_a.png,O,m,1912,12,1,2919.7000000029802,988242.8999999911,7714,VNB,A,10
9,test,4,0.0,2-Back,0.0,z,Tue Dec 02 2025 14:13:15 GMT-0600 (Central Standard Time),993963.599999994,039_o_m_d_a.png,O,m,1768,13,1,2789.4000000059605,991174.1999999881,7714,VNB,A,11
10,test,4,1.0,2-Back,1.0,m,Tue Dec 02 2025 14:13:15 GMT-0600 (Central Standard Time),996161.0,139_m_f_h_a.png,O,m,1173,14,1,2185.4000000059605,993975.599999994,7714,VNB,A,12
10,test,4,1.0,2-Back,0.0,m,Tue Dec 02 2025 14:13:15 GMT-0600 (Central Standard Time),999193.799999997,071_y_f_h_a.png,O,None,2015,15,1,3022.4000000059605,996171.3999999911,7714,VNB,A,13
10,test,4,0.0,2-Back,0.0,m,Tue Dec 02 2025 14:13:15 GMT-0600 (Central Standard Time),1002226.6999999881,124_o_f_n_a.png,O,None,2015,16,1,3021.699999988079,999205.0,7714,VNB,A,14
10,test,4,0.0,2-Back,0.0,m,Tue Dec 02 2025 14:13:15 GMT-0600 (Central Standard Time),1005260.599999994,109_y_m_d_a.png,O,None,2017,17,1,3022.9000000059605,1002237.6999999881,7714,VNB,A,15
11,test,4,1.0,2-Back,1.0,m,Tue Dec 02 2025 14:13:15 GMT-0600 (Central Standard Time),1007658.1999999881,165_m_m_d_a.png,O,m,1373,18,1,2385.7999999970198,1005272.3999999911,7714,VNB,A,16
0,test,5,1.0,2-Back,,,Tue Dec 02 2025 14:13:15 GMT-0600 (Central Standard Time),1007658.1999999881,071_y_f_d_a.png,O,space,1557,1,1,2385.7999999970198,1005272.3999999911,7714,VNB,A,0
0,test,5,1.0,2-Back,,,Tue Dec 02 2025 14:13:15 GMT-0600 (Central Standard Time),1007658.1999999881,124_o_f_h_a.png,O,space,1557,2,1,2385.7999999970198,1005272.3999999911,7714,VNB,A,0
1,test,5,1.0,2-Back,1.0,z,Tue Dec 02 2025 14:13:15 GMT-0600 (Central Standard Time),1016640.0,039_o_m_d_a.png,O,z,1311,3,1,2326.300000011921,1014313.6999999881,7714,VNB,A,1
2,test,5,1.0,2-Back,1.0,m,Tue Dec 02 2025 14:13:15 GMT-0600 (Central Standard Time),1018704.5,139_m_f_n_a.png,O,m,1040,4,1,2054.300000011921,1016650.1999999881,7714,VNB,A,2
2,test,5,0.0,2-Back,0.0,m,Tue Dec 02 2025 14:13:15 GMT-0600 (Central Standard Time),1021738.099999994,165_m_m_h_a.png,O,None,2016,5,1,3023.5,1018714.599999994,7714,VNB,A,3
2,test,5,0.0,2-Back,0.0,z,Tue Dec 02 2025 14:13:15 GMT-0600 (Central Standard Time),1024501.1999999881,071_y_f_n_a.png,O,m,1734,6,1,2751.199999988079,1021750.0,7714,VNB,A,4
3,test,5,0.0,2-Back,1.0,m,Tue Dec 02 2025 14:13:15 GMT-0600 (Central Standard Time),1026551.3999999911,124_o_f_d_a.png,O,m,1017,7,1,2038.8999999910593,1024512.5,7714,VNB,A,5
4,test,5,0.0,2-Back,1.0,m,Tue Dec 02 2025 14:13:15 GMT-0600 (Central Standard Time),1028717.6999999881,039_o_m_h_a.png,O,m,1137,8,1,2155.7999999970198,1026561.8999999911,7714,VNB,A,6
5,test,5,1.0,2-Back,1.0,z,Tue Dec 02 2025 14:13:15 GMT-0600 (Central Standard Time),1030667.0,139_m_f_d_a.png,O,z,921,9,1,1941.4000000059605,1028725.599999994,7714,VNB,A,7
6,test,5,0.0,2-Back,1.0,m,Tue Dec 02 2025 14:13:15 GMT-0600 (Central Standard Time),1033166.5,109_y_m_n_a.png,O,m,1468,10,1,2489.6000000089407,1030676.8999999911,7714,VNB,A,8
7,test,5,0.0,2-Back,1.0,m,Tue Dec 02 2025 14:13:15 GMT-0600 (Central Standard Time),1035815.1999999881,165_m_m_n_a.png,O,m,1626,11,1,2637.0999999940395,1033178.099999994,7714,VNB,A,9
8,test,5,0.0,2-Back,1.0,m,Tue Dec 02 2025 14:13:15 GMT-0600 (Central Standard Time),1037681.299999997,071_y_f_h_a.png,O,m,848,12,1,1856.7999999970198,1035824.5,7714,VNB,A,10
9,test,5,0.0,2-Back,1.0,m,Tue Dec 02 2025 14:13:15 GMT-0600 (Central Standard Time),1039813.5,109_y_m_d_a.png,O,m,1101,13,1,2123.2000000029802,1037690.299999997,7714,VNB,A,11
9,test,5,1.0,2-Back,0.0,z,Tue Dec 02 2025 14:13:15 GMT-0600 (Central Standard Time),1042330.5,139_m_f_h_a.png,O,m,1486,14,1,2506.4000000059605,1039824.099999994,7714,VNB,A,12
9,test,5,0.0,2-Back,0.0,m,Tue Dec 02 2025 14:13:15 GMT-0600 (Central Standard Time),1045363.1999999881,039_o_m_n_a.png,O,None,2016,15,1,3023.199999988079,1042340.0,7714,VNB,A,13
10,test,5,0.0,2-Back,1.0,m,Tue Dec 02 2025 14:13:15 GMT-0600 (Central Standard Time),1047829.299999997,165_m_m_d_a.png,O,m,1445,16,1,2456.0,1045373.299999997,7714,VNB,A,14
11,test,5,0.0,2-Back,1.0,z,Tue Dec 02 2025 14:13:15 GMT-0600 (Central Standard Time),1049979.599999994,124_o_f_n_a.png,O,z,1122,17,1,2137.7999999970198,1047841.799999997,7714,VNB,A,15
12,test,5,1.0,2-Back,1.0,m,Tue Dec 02 2025 14:13:15 GMT-0600 (Central Standard Time),1052396.599999994,109_y_m_h_a.png,O,m,1390,18,1,2404.7999999970198,1049991.799999997,7714,VNB,A,16
