acc_sum,block,block_c,change,condition,correct,correct_response,datetime,endtime,face,project,response,response_time,row_sel,session_number,start_end,starttime,subject_id,task,task_vers,trial
0,prac,1,,1-Back,,,Tue Jun 30 2026 11:21:32 GMT-0400 (Eastern Daylight Time),,005_o_f_d_a.png,I,space,11151,1,3,,,9045,VNB,B,0
0,prac,1,0.0,1-Back,0.0,m,Tue Jun 30 2026 11:21:32 GMT-0400 (Eastern Daylight Time),118330.20000000019,020_y_f_n_a.png,I,z,996,2,3,1892.9000000003725,116437.29999999981,9045,VNB,B,1
1,prac,1,0.0,1-Back,1.0,m,Tue Jun 30 2026 11:21:32 GMT-0400 (Eastern Daylight Time),121030.0,007_m_m_h_a.png,I,m,1763,3,3,2684.100000000559,118345.89999999944,9045,VNB,B,2
1,prac,1,0.0,1-Back,0.0,m,Tue Jun 30 2026 11:21:32 GMT-0400 (Eastern Daylight Time),122946.5,016_y_m_d_a.png,I,z,992,4,3,1907.4000000003725,121039.09999999963,9045,VNB,B,3
2,prac,1,0.0,1-Back,1.0,m,Tue Jun 30 2026 11:21:32 GMT-0400 (Eastern Daylight Time),125496.70000000019,005_o_f_n_a.png,I,m,1633,5,3,2540.7000000001863,122956.0,9045,VNB,B,4
2,prac,1,1.0,1-Back,0.0,z,Tue Jun 30 2026 11:21:32 GMT-0400 (Eastern Daylight Time),127515.70000000019,016_y_m_n_a.png,I,m,1103,6,3,2010.6000000005588,125505.09999999963,9045,VNB,B,5
2,prac,1,0.0,1-Back,0.0,m,Tue Jun 30 2026 11:21:32 GMT-0400 (Eastern Daylight Time),130429.79999999981,004_o_m_h_a.png,I,None,2016,7,3,2904.0999999996275,127525.70000000019,9045,VNB,B,6
2,prac,1,0.0,1-Back,0.0,m,Tue Jun 30 2026 11:21:32 GMT-0400 (Eastern Daylight Time),132563.2000000002,011_m_f_d_a.png,I,z,1220,8,3,2124.0,130439.20000000019,9045,VNB,B,7
3,prac,1,1.0,1-Back,1.0,z,Tue Jun 30 2026 11:21:32 GMT-0400 (Eastern Daylight Time),134713.2000000002,020_y_f_d_a.png,I,z,1242,9,3,2140.5,132572.7000000002,9045,VNB,B,8
3,prac,1,0.0,1-Back,0.0,m,Tue Jun 30 2026 11:21:32 GMT-0400 (Eastern Daylight Time),136646.5,007_m_m_n_a.png,I,z,1008,10,3,1924.2999999998137,134722.2000000002,9045,VNB,B,9
3,prac,1,0.0,1-Back,0.0,m,Tue Jun 30 2026 11:21:32 GMT-0400 (Eastern Daylight Time),139213.09999999963,005_o_f_h_a.png,I,z,1645,11,3,2550.2000000001863,136662.89999999944,9045,VNB,B,10
3,prac,1,0.0,1-Back,0.0,m,Tue Jun 30 2026 11:21:32 GMT-0400 (Eastern Daylight Time),141630.0,016_y_m_d_a.png,I,z,1496,12,3,2405.7999999998137,139224.2000000002,9045,VNB,B,11
0,prac,2,0.0,1-Back,,,Tue Jun 30 2026 11:21:32 GMT-0400 (Eastern Daylight Time),141630.0,005_o_f_d_a.png,I,a,4031,1,3,2405.7999999998137,139224.2000000002,9045,VNB,B,0
1,prac,2,0.0,1-Back,1.0,m,Tue Jun 30 2026 11:21:32 GMT-0400 (Eastern Daylight Time),150846.5,020_y_f_n_a.png,I,m,1238,2,3,2123.7999999998137,148722.7000000002,9045,VNB,B,1
1,prac,2,0.0,1-Back,0.0,m,Tue Jun 30 2026 11:21:32 GMT-0400 (Eastern Daylight Time),152863.39999999944,007_m_m_h_a.png,I,z,1082,3,3,1996.5,150866.89999999944,9045,VNB,B,2
1,prac,2,0.0,1-Back,0.0,m,Tue Jun 30 2026 11:21:32 GMT-0400 (Eastern Daylight Time),154729.89999999944,016_y_m_d_a.png,I,z,1077,4,3,1856.7999999998137,152873.09999999963,9045,VNB,B,3
1,prac,2,0.0,1-Back,0.0,m,Tue Jun 30 2026 11:21:32 GMT-0400 (Eastern Daylight Time),156679.7999999998,005_o_f_n_a.png,I,z,1031,5,3,1938.7999999998137,154741.0,9045,VNB,B,4
2,prac,2,1.0,1-Back,1.0,z,Tue Jun 30 2026 11:21:32 GMT-0400 (Eastern Daylight Time),158796.59999999963,016_y_m_n_a.png,I,z,1174,6,3,2102.399999999441,156694.2000000002,9045,VNB,B,5
2,prac,2,0.0,1-Back,0.0,m,Tue Jun 30 2026 11:21:32 GMT-0400 (Eastern Daylight Time),161713.0,004_o_m_h_a.png,I,None,2017,7,3,2905.2000000001863,158807.7999999998,9045,VNB,B,6
3,prac,2,0.0,1-Back,1.0,m,Tue Jun 30 2026 11:21:32 GMT-0400 (Eastern Daylight Time),163733.09999999963,011_m_f_d_a.png,I,m,1121,8,3,2011.0,161722.09999999963,9045,VNB,B,7
3,prac,2,1.0,1-Back,0.0,z,Tue Jun 30 2026 11:21:32 GMT-0400 (Eastern Daylight Time),165363.2000000002,020_y_f_d_a.png,I,m,733,9,3,1624.4000000003725,163738.7999999998,9045,VNB,B,8
3,prac,2,0.0,1-Back,0.0,m,Tue Jun 30 2026 11:21:32 GMT-0400 (Eastern Daylight Time),167163.2000000002,007_m_m_n_a.png,I,z,872,10,3,1791.4000000003725,165371.7999999998,9045,VNB,B,9
4,prac,2,0.0,1-Back,1.0,m,Tue Jun 30 2026 11:21:32 GMT-0400 (Eastern Daylight Time),169029.89999999944,005_o_f_h_a.png,I,m,933,11,3,1849.0999999996275,167180.7999999998,9045,VNB,B,10
5,prac,2,0.0,1-Back,1.0,m,Tue Jun 30 2026 11:21:32 GMT-0400 (Eastern Daylight Time),171096.59999999963,016_y_m_d_a.png,I,m,1138,12,3,2058.0999999996275,169038.5,9045,VNB,B,11
0,test,1,0.0,1-Back,,,Tue Jun 30 2026 11:21:32 GMT-0400 (Eastern Daylight Time),171096.59999999963,020_y_f_d_a.png,I,space,6793,1,3,2058.0999999996275,169038.5,9045,VNB,B,0
1,test,1,0.0,1-Back,1.0,m,Tue Jun 30 2026 11:21:32 GMT-0400 (Eastern Daylight Time),184779.7999999998,011_m_f_n_a.png,I,m,936,2,3,1960.7000000001863,182819.09999999963,9045,VNB,B,1
1,test,1,0.0,1-Back,0.0,m,Tue Jun 30 2026 11:21:32 GMT-0400 (Eastern Daylight Time),186763.0,004_o_m_h_a.png,I,z,953,3,3,1970.5,184792.5,9045,VNB,B,2
1,test,1,1.0,1-Back,0.0,z,Tue Jun 30 2026 11:21:32 GMT-0400 (Eastern Daylight Time),189646.39999999944,007_m_m_h_a.png,I,m,1866,4,3,2877.0999999996275,186769.2999999998,9045,VNB,B,3
2,test,1,0.0,1-Back,1.0,m,Tue Jun 30 2026 11:21:32 GMT-0400 (Eastern Daylight Time),191763.0,005_o_f_n_a.png,I,m,1094,5,3,2111.2999999998137,189651.7000000002,9045,VNB,B,4
3,test,1,0.0,1-Back,1.0,m,Tue Jun 30 2026 11:21:32 GMT-0400 (Eastern Daylight Time),193879.5,016_y_m_d_a.png,I,m,1090,6,3,2109.5,191770.0,9045,VNB,B,5
3,test,1,1.0,1-Back,0.0,z,Tue Jun 30 2026 11:21:32 GMT-0400 (Eastern Daylight Time),195629.5,011_m_f_d_a.png,I,m,717,7,3,1741.2000000001863,193888.2999999998,9045,VNB,B,6
4,test,1,0.0,1-Back,1.0,m,Tue Jun 30 2026 11:21:32 GMT-0400 (Eastern Daylight Time),197512.89999999944,020_y_f_h_a.png,I,m,855,8,3,1876.7999999998137,195636.09999999963,9045,VNB,B,7
4,test,1,0.0,1-Back,0.0,m,Tue Jun 30 2026 11:21:32 GMT-0400 (Eastern Daylight Time),199546.2000000002,004_o_m_n_a.png,I,z,1004,9,3,2024.7000000001863,197521.5,9045,VNB,B,8
4,test,1,0.0,1-Back,0.0,m,Tue Jun 30 2026 11:21:32 GMT-0400 (Eastern Daylight Time),201629.7000000002,016_y_m_h_a.png,I,z,1049,10,3,2074.800000000745,199554.89999999944,9045,VNB,B,9
4,test,1,0.0,1-Back,0.0,m,Tue Jun 30 2026 11:21:32 GMT-0400 (Eastern Daylight Time),204663.0,004_o_m_d_a.png,I,None,2016,11,3,3024.7999999998137,201638.2000000002,9045,VNB,B,10
5,test,1,1.0,1-Back,1.0,z,Tue Jun 30 2026 11:21:32 GMT-0400 (Eastern Daylight Time),206662.89999999944,005_o_f_d_a.png,I,z,974,12,3,1991.0999999996275,204671.7999999998,9045,VNB,B,11
5,test,1,0.0,1-Back,0.0,m,Tue Jun 30 2026 11:21:32 GMT-0400 (Eastern Daylight Time),208529.5,007_m_m_n_a.png,I,z,846,13,3,1859.2000000001863,206670.2999999998,9045,VNB,B,12
6,test,1,1.0,1-Back,1.0,z,Tue Jun 30 2026 11:21:32 GMT-0400 (Eastern Daylight Time),210379.39999999944,020_y_f_n_a.png,I,z,819,14,3,1842.2999999998137,208537.09999999963,9045,VNB,B,13
7,test,1,0.0,1-Back,1.0,m,Tue Jun 30 2026 11:21:32 GMT-0400 (Eastern Daylight Time),212046.2999999998,011_m_f_h_a.png,I,m,633,15,3,1659.0,210387.2999999998,9045,VNB,B,14
8,test,1,0.0,1-Back,1.0,m,Tue Jun 30 2026 11:21:32 GMT-0400 (Eastern Daylight Time),213796.2000000002,007_m_m_d_a.png,I,m,726,16,3,1742.4000000003725,212053.7999999998,9045,VNB,B,15
8,test,1,0.0,1-Back,0.0,m,Tue Jun 30 2026 11:21:32 GMT-0400 (Eastern Daylight Time),215646.5,016_y_m_n_a.png,I,z,832,17,3,1842.7999999998137,213803.7000000002,9045,VNB,B,16
9,test,1,0.0,1-Back,1.0,m,Tue Jun 30 2026 11:21:32 GMT-0400 (Eastern Daylight Time),217496.2000000002,005_o_f_h_a.png,I,m,822,18,3,1844.0,215652.2000000002,9045,VNB,B,17
0,test,2,0.0,1-Back,,,Tue Jun 30 2026 11:21:32 GMT-0400 (Eastern Daylight Time),217496.2000000002,016_y_m_n_a.png,I,space,1413,1,3,1844.0,215652.2000000002,9045,VNB,B,0
1,test,2,0.0,1-Back,1.0,m,Tue Jun 30 2026 11:21:32 GMT-0400 (Eastern Daylight Time),222947.2000000002,020_y_f_h_a.png,I,m,995,2,3,2010.1000000005588,220937.09999999963,9045,VNB,B,1
2,test,2,1.0,1-Back,1.0,m,Tue Jun 30 2026 11:21:32 GMT-0400 (Eastern Daylight Time),224971.09999999963,004_o_m_n_a.png,I,m,994,3,3,2016.5999999996275,222954.5,9045,VNB,B,2
2,test,2,0.0,1-Back,0.0,m,Tue Jun 30 2026 11:21:32 GMT-0400 (Eastern Daylight Time),227012.59999999963,011_m_f_d_a.png,I,z,1025,4,3,2038.2999999998137,224974.2999999998,9045,VNB,B,3
3,test,2,0.0,1-Back,1.0,z,Tue Jun 30 2026 11:21:32 GMT-0400 (Eastern Daylight Time),228829.59999999963,007_m_m_d_a.png,I,z,784,5,3,1813.0,227016.59999999963,9045,VNB,B,4
4,test,2,0.0,1-Back,1.0,m,Tue Jun 30 2026 11:21:32 GMT-0400 (Eastern Daylight Time),230579.59999999963,016_y_m_h_a.png,I,m,727,6,3,1741.2999999998137,228838.2999999998,9045,VNB,B,5
5,test,2,1.0,1-Back,1.0,z,Tue Jun 30 2026 11:21:32 GMT-0400 (Eastern Daylight Time),232495.89999999944,005_o_f_h_a.png,I,z,897,7,3,1907.699999999255,230588.2000000002,9045,VNB,B,6
6,test,2,0.0,1-Back,1.0,m,Tue Jun 30 2026 11:21:32 GMT-0400 (Eastern Daylight Time),234312.7999999998,011_m_f_n_a.png,I,m,789,8,3,1810.5999999996275,232502.2000000002,9045,VNB,B,7
7,test,2,0.0,1-Back,1.0,m,Tue Jun 30 2026 11:21:32 GMT-0400 (Eastern Daylight Time),236629.59999999963,020_y_f_d_a.png,I,m,1291,9,3,2310.0,234319.59999999963,9045,VNB,B,8
7,test,2,0.0,1-Back,0.0,m,Tue Jun 30 2026 11:21:32 GMT-0400 (Eastern Daylight Time),238662.5,007_m_m_n_a.png,I,z,1007,10,3,2026.2999999998137,236636.2000000002,9045,VNB,B,9
8,test,2,1.0,1-Back,1.0,m,Tue Jun 30 2026 11:21:32 GMT-0400 (Eastern Daylight Time),240662.89999999944,011_m_f_h_a.png,I,m,974,11,3,1997.2999999998137,238665.59999999963,9045,VNB,B,10
9,test,2,0.0,1-Back,1.0,z,Tue Jun 30 2026 11:21:32 GMT-0400 (Eastern Daylight Time),242562.7999999998,004_o_m_h_a.png,I,z,878,12,3,1893.5999999996275,240669.2000000002,9045,VNB,B,11
10,test,2,0.0,1-Back,1.0,m,Tue Jun 30 2026 11:21:32 GMT-0400 (Eastern Daylight Time),244229.59999999963,016_y_m_d_a.png,I,m,642,13,3,1659.8999999994412,242569.7000000002,9045,VNB,B,12
10,test,2,0.0,1-Back,0.0,m,Tue Jun 30 2026 11:21:32 GMT-0400 (Eastern Daylight Time),246346.2000000002,005_o_f_n_a.png,I,z,1087,14,3,2109.7000000001863,244236.5,9045,VNB,B,13
10,test,2,0.0,1-Back,0.0,z,Tue Jun 30 2026 11:21:32 GMT-0400 (Eastern Daylight Time),248296.2000000002,020_y_f_n_a.png,I,m,922,15,3,1942.2000000001863,246354.0,9045,VNB,B,14
11,test,2,1.0,1-Back,1.0,m,Tue Jun 30 2026 11:21:32 GMT-0400 (Eastern Daylight Time),250312.7999999998,007_m_m_h_a.png,I,m,989,16,3,2010.2000000001863,248302.59999999963,9045,VNB,B,15
12,test,2,0.0,1-Back,1.0,m,Tue Jun 30 2026 11:21:32 GMT-0400 (Eastern Daylight Time),251929.5,005_o_f_d_a.png,I,m,587,17,3,1610.4000000003725,250319.09999999963,9045,VNB,B,16
13,test,2,1.0,1-Back,1.0,z,Tue Jun 30 2026 11:21:32 GMT-0400 (Eastern Daylight Time),253962.89999999944,004_o_m_d_a.png,I,z,1003,18,3,2024.5999999996275,251938.2999999998,9045,VNB,B,17
0,test,3,1.0,1-Back,,,Tue Jun 30 2026 11:21:32 GMT-0400 (Eastern Daylight Time),253962.89999999944,005_o_f_h_a.png,I,space,1322,1,3,2024.5999999996275,251938.2999999998,9045,VNB,B,0
1,test,3,0.0,1-Back,1.0,m,Tue Jun 30 2026 11:21:32 GMT-0400 (Eastern Daylight Time),259579.5,011_m_f_d_a.png,I,m,1102,2,3,2127.100000000559,257452.39999999944,9045,VNB,B,1
2,test,3,1.0,1-Back,1.0,m,Tue Jun 30 2026 11:21:32 GMT-0400 (Eastern Daylight Time),261762.7999999998,007_m_m_n_a.png,I,m,1161,3,3,2174.2999999998137,259588.5,9045,VNB,B,2
3,test,3,0.0,1-Back,1.0,z,Tue Jun 30 2026 11:21:32 GMT-0400 (Eastern Daylight Time),263396.0999999996,005_o_f_n_a.png,I,z,610,4,3,1624.7000000001863,261771.39999999944,9045,VNB,B,3
4,test,3,1.0,1-Back,1.0,m,Tue Jun 30 2026 11:21:32 GMT-0400 (Eastern Daylight Time),265062.7999999998,004_o_m_d_a.png,I,m,641,5,3,1659.9000000003725,263402.89999999944,9045,VNB,B,4
5,test,3,0.0,1-Back,1.0,m,Tue Jun 30 2026 11:21:32 GMT-0400 (Eastern Daylight Time),266796.0999999996,020_y_f_h_a.png,I,m,702,6,3,1725.5999999996275,265070.5,9045,VNB,B,5
6,test,3,0.0,1-Back,1.0,z,Tue Jun 30 2026 11:21:32 GMT-0400 (Eastern Daylight Time),268262.7000000002,016_y_m_h_a.png,I,z,441,7,3,1459.7000000001863,266803.0,9045,VNB,B,6
7,test,3,0.0,1-Back,1.0,m,Tue Jun 30 2026 11:21:32 GMT-0400 (Eastern Daylight Time),269962.7999999998,011_m_f_n_a.png,I,m,670,8,3,1693.2000000001863,268269.5999999996,9045,VNB,B,7
8,test,3,0.0,1-Back,1.0,m,Tue Jun 30 2026 11:21:32 GMT-0400 (Eastern Daylight Time),271796.0999999996,020_y_f_d_a.png,I,m,810,9,3,1824.5999999996275,269971.5,9045,VNB,B,8
9,test,3,1.0,1-Back,1.0,m,Tue Jun 30 2026 11:21:32 GMT-0400 (Eastern Daylight Time),273695.89999999944,004_o_m_n_a.png,I,m,881,10,3,1893.5,271802.39999999944,9045,VNB,B,9
10,test,3,0.0,1-Back,1.0,m,Tue Jun 30 2026 11:21:32 GMT-0400 (Eastern Daylight Time),275562.7000000002,007_m_m_h_a.png,I,m,836,11,3,1859.5,273703.2000000002,9045,VNB,B,10
11,test,3,0.0,1-Back,1.0,z,Tue Jun 30 2026 11:21:32 GMT-0400 (Eastern Daylight Time),277396.0999999996,011_m_f_h_a.png,I,z,810,12,3,1825.7000000001863,275570.39999999944,9045,VNB,B,11
12,test,3,1.0,1-Back,1.0,m,Tue Jun 30 2026 11:21:32 GMT-0400 (Eastern Daylight Time),278895.89999999944,005_o_f_d_a.png,I,m,481,13,3,1492.7999999998137,277403.0999999996,9045,VNB,B,12
13,test,3,0.0,1-Back,1.0,z,Tue Jun 30 2026 11:21:32 GMT-0400 (Eastern Daylight Time),280696.0999999996,007_m_m_d_a.png,I,z,773,14,3,1792.0,278904.0999999996,9045,VNB,B,13
14,test,3,0.0,1-Back,1.0,m,Tue Jun 30 2026 11:21:32 GMT-0400 (Eastern Daylight Time),282262.7999999998,016_y_m_n_a.png,I,m,541,15,3,1560.7999999998137,280702.0,9045,VNB,B,14
15,test,3,1.0,1-Back,1.0,m,Tue Jun 30 2026 11:21:32 GMT-0400 (Eastern Daylight Time),284146.0,004_o_m_h_a.png,I,m,862,16,3,1877.0,282269.0,9045,VNB,B,15
16,test,3,0.0,1-Back,1.0,m,Tue Jun 30 2026 11:21:32 GMT-0400 (Eastern Daylight Time),285729.2999999998,016_y_m_d_a.png,I,m,563,17,3,1576.7000000001863,284152.5999999996,9045,VNB,B,16
17,test,3,1.0,1-Back,1.0,m,Tue Jun 30 2026 11:21:32 GMT-0400 (Eastern Daylight Time),287429.39999999944,020_y_f_n_a.png,I,m,675,18,3,1692.199999999255,285737.2000000002,9045,VNB,B,17
0,test,4,1.0,1-Back,,,Tue Jun 30 2026 11:21:32 GMT-0400 (Eastern Daylight Time),287429.39999999944,007_m_m_d_a.png,I,space,1375,1,3,1692.199999999255,285737.2000000002,9045,VNB,B,0
0,test,4,0.0,1-Back,0.0,z,Tue Jun 30 2026 11:21:32 GMT-0400 (Eastern Daylight Time),292429.39999999944,004_o_m_d_a.png,I,m,566,2,3,1593.199999999255,290836.2000000002,9045,VNB,B,1
1,test,4,0.0,1-Back,1.0,m,Tue Jun 30 2026 11:21:32 GMT-0400 (Eastern Daylight Time),294246.0999999996,016_y_m_h_a.png,I,m,792,3,3,1810.2000000001863,292435.89999999944,9045,VNB,B,2
2,test,4,0.0,1-Back,1.0,m,Tue Jun 30 2026 11:21:32 GMT-0400 (Eastern Daylight Time),295812.7000000002,011_m_f_n_a.png,I,m,543,4,3,1558.9000000003725,294253.7999999998,9045,VNB,B,3
3,test,4,1.0,1-Back,1.0,m,Tue Jun 30 2026 11:21:32 GMT-0400 (Eastern Daylight Time),297512.7000000002,005_o_f_h_a.png,I,m,672,5,3,1692.800000000745,295819.89999999944,9045,VNB,B,4
4,test,4,0.0,1-Back,1.0,m,Tue Jun 30 2026 11:21:32 GMT-0400 (Eastern Daylight Time),299346.0999999996,007_m_m_n_a.png,I,m,811,6,3,1825.8999999994412,297520.2000000002,9045,VNB,B,5
5,test,4,0.0,1-Back,1.0,m,Tue Jun 30 2026 11:21:32 GMT-0400 (Eastern Daylight Time),301079.39999999944,016_y_m_d_a.png,I,m,707,7,3,1727.0,299352.39999999944,9045,VNB,B,6
6,test,4,1.0,1-Back,1.0,z,Tue Jun 30 2026 11:21:32 GMT-0400 (Eastern Daylight Time),302646.0999999996,020_y_f_d_a.png,I,z,541,8,3,1560.5,301085.5999999996,9045,VNB,B,7
7,test,4,0.0,1-Back,1.0,m,Tue Jun 30 2026 11:21:32 GMT-0400 (Eastern Daylight Time),304146.0999999996,011_m_f_h_a.png,I,m,478,9,3,1492.5999999996275,302653.5,9045,VNB,B,8
8,test,4,0.0,1-Back,1.0,z,Tue Jun 30 2026 11:21:32 GMT-0400 (Eastern Daylight Time),305862.5999999996,004_o_m_h_a.png,I,z,691,10,3,1708.2000000001863,304154.39999999944,9045,VNB,B,9
9,test,4,1.0,1-Back,1.0,m,Tue Jun 30 2026 11:21:32 GMT-0400 (Eastern Daylight Time),308679.39999999944,005_o_f_n_a.png,I,m,1790,11,3,2809.5,305869.89999999944,9045,VNB,B,10
10,test,4,0.0,1-Back,1.0,m,Tue Jun 30 2026 11:21:32 GMT-0400 (Eastern Daylight Time),310446.2000000002,011_m_f_d_a.png,I,m,749,12,3,1760.5,308685.7000000002,9045,VNB,B,11
11,test,4,0.0,1-Back,1.0,m,Tue Jun 30 2026 11:21:32 GMT-0400 (Eastern Daylight Time),312362.7000000002,020_y_f_n_a.png,I,m,885,13,3,1908.300000000745,310454.39999999944,9045,VNB,B,12
12,test,4,0.0,1-Back,1.0,m,Tue Jun 30 2026 11:21:32 GMT-0400 (Eastern Daylight Time),314382.5,005_o_f_d_a.png,I,m,1002,14,3,2012.1000000005588,312370.39999999944,9045,VNB,B,13
13,test,4,0.0,1-Back,1.0,m,Tue Jun 30 2026 11:21:32 GMT-0400 (Eastern Daylight Time),316045.89999999944,020_y_f_h_a.png,I,m,633,15,3,1659.5999999996275,314386.2999999998,9045,VNB,B,14
14,test,4,1.0,1-Back,1.0,z,Tue Jun 30 2026 11:21:32 GMT-0400 (Eastern Daylight Time),317579.2999999998,007_m_m_h_a.png,I,z,502,16,3,1526.2000000001863,316053.0999999996,9045,VNB,B,15
15,test,4,0.0,1-Back,1.0,m,Tue Jun 30 2026 11:21:32 GMT-0400 (Eastern Daylight Time),319029.39999999944,004_o_m_n_a.png,I,m,425,17,3,1442.199999999255,317587.2000000002,9045,VNB,B,16
16,test,4,1.0,1-Back,1.0,z,Tue Jun 30 2026 11:21:32 GMT-0400 (Eastern Daylight Time),320612.7000000002,016_y_m_n_a.png,I,z,560,18,3,1576.9000000003725,319035.7999999998,9045,VNB,B,17
0,test,5,1.0,1-Back,,,Tue Jun 30 2026 11:21:32 GMT-0400 (Eastern Daylight Time),320612.7000000002,004_o_m_n_a.png,I,space,1087,1,3,1576.9000000003725,319035.7999999998,9045,VNB,B,0
1,test,5,1.0,1-Back,1.0,m,Tue Jun 30 2026 11:21:32 GMT-0400 (Eastern Daylight Time),325379.2999999998,005_o_f_h_a.png,I,m,627,2,3,1643.0999999996275,323736.2000000002,9045,VNB,B,1
2,test,5,0.0,1-Back,1.0,m,Tue Jun 30 2026 11:21:32 GMT-0400 (Eastern Daylight Time),326979.2000000002,016_y_m_d_a.png,I,m,577,3,3,1593.5,325385.7000000002,9045,VNB,B,2
3,test,5,0.0,1-Back,1.0,z,Tue Jun 30 2026 11:21:32 GMT-0400 (Eastern Daylight Time),328679.2999999998,004_o_m_d_a.png,I,z,672,4,3,1691.7000000001863,326987.5999999996,9045,VNB,B,3
4,test,5,0.0,1-Back,1.0,m,Tue Jun 30 2026 11:21:32 GMT-0400 (Eastern Daylight Time),331479.2999999998,011_m_f_h_a.png,I,m,1773,5,3,2793.0999999996275,328686.2000000002,9045,VNB,B,4
5,test,5,0.0,1-Back,1.0,m,Tue Jun 30 2026 11:21:32 GMT-0400 (Eastern Daylight Time),333429.2000000002,020_y_f_n_a.png,I,m,925,6,3,1942.9000000003725,331486.2999999998,9045,VNB,B,5
6,test,5,1.0,1-Back,1.0,z,Tue Jun 30 2026 11:21:32 GMT-0400 (Eastern Daylight Time),335046.0,005_o_f_n_a.png,I,z,591,7,3,1610.5,333435.5,9045,VNB,B,6
7,test,5,0.0,1-Back,1.0,m,Tue Jun 30 2026 11:21:32 GMT-0400 (Eastern Daylight Time),336512.5999999996,011_m_f_d_a.png,I,m,446,8,3,1458.8999999994412,335053.7000000002,9045,VNB,B,7
8,test,5,0.0,1-Back,1.0,m,Tue Jun 30 2026 11:21:32 GMT-0400 (Eastern Daylight Time),338112.5,016_y_m_h_a.png,I,m,580,9,3,1591.1000000005588,336521.39999999944,9045,VNB,B,8
9,test,5,0.0,1-Back,1.0,m,Tue Jun 30 2026 11:21:32 GMT-0400 (Eastern Daylight Time),339679.0,020_y_f_d_a.png,I,m,548,10,3,1559.7000000001863,338119.2999999998,9045,VNB,B,9
10,test,5,0.0,1-Back,1.0,m,Tue Jun 30 2026 11:21:32 GMT-0400 (Eastern Daylight Time),341279.0999999996,007_m_m_n_a.png,I,m,581,11,3,1592.0,339687.0999999996,9045,VNB,B,10
11,test,5,1.0,1-Back,1.0,z,Tue Jun 30 2026 11:21:32 GMT-0400 (Eastern Daylight Time),342962.5999999996,011_m_f_n_a.png,I,z,660,12,3,1675.0999999996275,341287.5,9045,VNB,B,11
12,test,5,0.0,1-Back,1.0,m,Tue Jun 30 2026 11:21:32 GMT-0400 (Eastern Daylight Time),344529.2000000002,004_o_m_h_a.png,I,m,545,13,3,1558.300000000745,342970.89999999944,9045,VNB,B,12
13,test,5,0.0,1-Back,1.0,z,Tue Jun 30 2026 11:21:32 GMT-0400 (Eastern Daylight Time),345962.5999999996,007_m_m_h_a.png,I,z,402,14,3,1425.0,344537.5999999996,9045,VNB,B,13
14,test,5,1.0,1-Back,1.0,m,Tue Jun 30 2026 11:21:32 GMT-0400 (Eastern Daylight Time),347412.5999999996,005_o_f_d_a.png,I,m,426,15,3,1443.0999999996275,345969.5,9045,VNB,B,14
15,test,5,0.0,1-Back,1.0,m,Tue Jun 30 2026 11:21:32 GMT-0400 (Eastern Daylight Time),348979.2000000002,016_y_m_n_a.png,I,m,544,16,3,1560.7000000001863,347418.5,9045,VNB,B,15
16,test,5,0.0,1-Back,1.0,m,Tue Jun 30 2026 11:21:32 GMT-0400 (Eastern Daylight Time),350729.2000000002,020_y_f_h_a.png,I,m,720,17,3,1743.1000000005588,348986.0999999996,9045,VNB,B,16
17,test,5,0.0,1-Back,1.0,m,Tue Jun 30 2026 11:21:32 GMT-0400 (Eastern Daylight Time),352562.5999999996,007_m_m_d_a.png,I,m,811,18,3,1827.0,350735.5999999996,9045,VNB,B,17
0,prac,1,0.0,2-Back,,,Tue Jun 30 2026 11:21:32 GMT-0400 (Eastern Daylight Time),352562.5999999996,011_m_f_n_a.png,I,space,1882,1,3,1827.0,350735.5999999996,9045,VNB,B,0
0,prac,1,0.0,2-Back,,,Tue Jun 30 2026 11:21:32 GMT-0400 (Eastern Daylight Time),352562.5999999996,005_o_f_h_a.png,I,space,1882,2,3,1827.0,350735.5999999996,9045,VNB,B,0
1,prac,1,0.0,2-Back,1.0,m,Tue Jun 30 2026 11:21:32 GMT-0400 (Eastern Daylight Time),437329.39999999944,004_o_m_d_a.png,I,m,1508,3,3,2391.5,434937.89999999944,9045,VNB,B,1
2,prac,1,1.0,2-Back,1.0,z,Tue Jun 30 2026 11:21:32 GMT-0400 (Eastern Daylight Time),440212.5,007_m_m_h_a.png,I,z,1960,4,3,2874.7999999998137,437337.7000000002,9045,VNB,B,2
3,prac,1,0.0,2-Back,1.0,m,Tue Jun 30 2026 11:21:32 GMT-0400 (Eastern Daylight Time),442445.7999999998,020_y_f_n_a.png,I,m,1336,5,3,2222.0999999996275,440223.7000000002,9045,VNB,B,3
4,prac,1,1.0,2-Back,1.0,z,Tue Jun 30 2026 11:21:32 GMT-0400 (Eastern Daylight Time),444046.0,004_o_m_h_a.png,I,z,817,6,3,1586.4000000003725,442459.5999999996,9045,VNB,B,4
4,prac,1,1.0,2-Back,0.0,z,Tue Jun 30 2026 11:21:32 GMT-0400 (Eastern Daylight Time),445912.5,016_y_m_n_a.png,I,m,936,7,3,1857.4000000003725,444055.0999999996,9045,VNB,B,5
5,prac,1,0.0,2-Back,1.0,m,Tue Jun 30 2026 11:21:32 GMT-0400 (Eastern Daylight Time),448745.5999999996,011_m_f_d_a.png,I,m,1915,8,3,2825.5999999996275,445920.0,9045,VNB,B,6
5,prac,1,0.0,2-Back,0.0,m,Tue Jun 30 2026 11:21:32 GMT-0400 (Eastern Daylight Time),451662.5,005_o_f_d_a.png,I,None,2007,9,3,2909.600000000559,448752.89999999944,9045,VNB,B,7
6,prac,1,0.0,2-Back,1.0,m,Tue Jun 30 2026 11:21:32 GMT-0400 (Eastern Daylight Time),453579.2000000002,007_m_m_h_a.png,I,m,1126,10,3,1908.2000000001863,451671.0,9045,VNB,B,8
7,prac,1,1.0,2-Back,1.0,z,Tue Jun 30 2026 11:21:32 GMT-0400 (Eastern Daylight Time),455496.0,020_y_f_d_a.png,I,z,1011,11,3,1907.7999999998137,453588.2000000002,9045,VNB,B,9
8,prac,1,0.0,2-Back,1.0,m,Tue Jun 30 2026 11:21:32 GMT-0400 (Eastern Daylight Time),457245.89999999944,004_o_m_n_a.png,I,m,845,12,3,1734.199999999255,455511.7000000002,9045,VNB,B,10
0,test,1,0.0,2-Back,,,Tue Jun 30 2026 11:21:32 GMT-0400 (Eastern Daylight Time),457245.89999999944,016_y_m_h_a.png,I,space,3249,1,3,1734.199999999255,455511.7000000002,9045,VNB,B,0
0,test,1,0.0,2-Back,,,Tue Jun 30 2026 11:21:32 GMT-0400 (Eastern Daylight Time),457245.89999999944,005_o_f_n_a.png,I,space,3249,2,3,1734.199999999255,455511.7000000002,9045,VNB,B,0
1,test,1,0.0,2-Back,1.0,z,Tue Jun 30 2026 11:21:32 GMT-0400 (Eastern Daylight Time),470945.7999999998,004_o_m_h_a.png,I,z,946,3,3,1958.7000000001863,468987.0999999996,9045,VNB,B,1
2,test,1,0.0,2-Back,1.0,m,Tue Jun 30 2026 11:21:32 GMT-0400 (Eastern Daylight Time),473229.0999999996,011_m_f_d_a.png,I,m,1250,4,3,2275.0,470954.0999999996,9045,VNB,B,2
3,test,1,1.0,2-Back,1.0,m,Tue Jun 30 2026 11:21:32 GMT-0400 (Eastern Daylight Time),475412.2999999998,016_y_m_n_a.png,I,m,1159,5,3,2175.0,473237.2999999998,9045,VNB,B,3
3,test,1,0.0,2-Back,0.0,z,Tue Jun 30 2026 11:21:32 GMT-0400 (Eastern Daylight Time),477795.7000000002,020_y_f_d_a.png,I,m,1359,6,3,2375.5,475420.2000000002,9045,VNB,B,4
3,test,1,0.0,2-Back,0.0,m,Tue Jun 30 2026 11:21:32 GMT-0400 (Eastern Daylight Time),479662.0,007_m_m_h_a.png,I,z,848,7,3,1856.7999999998137,477805.2000000002,9045,VNB,B,5
3,test,1,1.0,2-Back,0.0,m,Tue Jun 30 2026 11:21:32 GMT-0400 (Eastern Daylight Time),481628.89999999944,020_y_f_n_a.png,I,z,933,8,3,1962.0999999996275,479666.7999999998,9045,VNB,B,6
3,test,1,0.0,2-Back,0.0,z,Tue Jun 30 2026 11:21:32 GMT-0400 (Eastern Daylight Time),483595.7000000002,005_o_f_h_a.png,I,m,935,9,3,1959.2000000001863,481636.5,9045,VNB,B,7
4,test,1,0.0,2-Back,1.0,m,Tue Jun 30 2026 11:21:32 GMT-0400 (Eastern Daylight Time),486012.2999999998,004_o_m_d_a.png,I,m,1384,10,3,2408.5999999996275,483603.7000000002,9045,VNB,B,8
4,test,1,1.0,2-Back,0.0,m,Tue Jun 30 2026 11:21:32 GMT-0400 (Eastern Daylight Time),487712.2000000002,007_m_m_d_a.png,I,z,679,11,3,1692.4000000003725,486019.7999999998,9045,VNB,B,9
5,test,1,0.0,2-Back,1.0,m,Tue Jun 30 2026 11:21:32 GMT-0400 (Eastern Daylight Time),489345.7000000002,011_m_f_n_a.png,I,m,611,12,3,1625.7000000001863,487720.0,9045,VNB,B,10
5,test,1,0.0,2-Back,0.0,m,Tue Jun 30 2026 11:21:32 GMT-0400 (Eastern Daylight Time),491513.2000000002,020_y_f_h_a.png,I,z,1138,13,3,2160.0,489353.2000000002,9045,VNB,B,11
5,test,1,0.0,2-Back,0.0,z,Tue Jun 30 2026 11:21:32 GMT-0400 (Eastern Daylight Time),493278.7000000002,007_m_m_n_a.png,I,m,747,14,3,1758.7000000001863,491520.0,9045,VNB,B,12
6,test,1,0.0,2-Back,1.0,m,Tue Jun 30 2026 11:21:32 GMT-0400 (Eastern Daylight Time),494979.0,016_y_m_d_a.png,I,m,677,15,3,1694.9000000003725,493284.0999999996,9045,VNB,B,13
6,test,1,1.0,2-Back,0.0,m,Tue Jun 30 2026 11:21:32 GMT-0400 (Eastern Daylight Time),496662.2999999998,011_m_f_h_a.png,I,z,657,16,3,1675.0999999996275,494987.2000000002,9045,VNB,B,14
7,test,1,0.0,2-Back,1.0,z,Tue Jun 30 2026 11:21:32 GMT-0400 (Eastern Daylight Time),498678.7999999998,005_o_f_d_a.png,I,z,989,17,3,2008.4000000003725,496670.39999999944,9045,VNB,B,15
8,test,1,0.0,2-Back,1.0,m,Tue Jun 30 2026 11:21:32 GMT-0400 (Eastern Daylight Time),500562.39999999944,004_o_m_n_a.png,I,m,861,18,3,1876.7999999998137,498685.5999999996,9045,VNB,B,16
0,test,2,0.0,2-Back,,,Tue Jun 30 2026 11:21:32 GMT-0400 (Eastern Daylight Time),500562.39999999944,007_m_m_h_a.png,I,space,1210,1,3,1876.7999999998137,498685.5999999996,9045,VNB,B,0
0,test,2,0.0,2-Back,,,Tue Jun 30 2026 11:21:32 GMT-0400 (Eastern Daylight Time),500562.39999999944,020_y_f_n_a.png,I,space,1210,2,3,1876.7999999998137,498685.5999999996,9045,VNB,B,0
1,test,2,1.0,2-Back,1.0,z,Tue Jun 30 2026 11:21:32 GMT-0400 (Eastern Daylight Time),509328.7999999998,005_o_f_h_a.png,I,z,1230,3,3,2242.0,507086.7999999998,9045,VNB,B,1
2,test,2,0.0,2-Back,1.0,m,Tue Jun 30 2026 11:21:32 GMT-0400 (Eastern Daylight Time),511428.7999999998,004_o_m_d_a.png,I,m,1075,4,3,2091.2000000001863,509337.5999999996,9045,VNB,B,2
2,test,2,0.0,2-Back,0.0,m,Tue Jun 30 2026 11:21:32 GMT-0400 (Eastern Daylight Time),513845.5999999996,011_m_f_d_a.png,I,z,1391,5,3,2410.0,511435.5999999996,9045,VNB,B,3
2,test,2,0.0,2-Back,0.0,m,Tue Jun 30 2026 11:21:32 GMT-0400 (Eastern Daylight Time),516045.7000000002,016_y_m_h_a.png,I,z,1166,6,3,2193.0,513852.7000000002,9045,VNB,B,4
2,test,2,0.0,2-Back,0.0,m,Tue Jun 30 2026 11:21:32 GMT-0400 (Eastern Daylight Time),518064.89999999944,005_o_f_n_a.png,I,z,998,7,3,2012.0,516052.89999999944,9045,VNB,B,5
3,test,2,1.0,2-Back,1.0,z,Tue Jun 30 2026 11:21:32 GMT-0400 (Eastern Daylight Time),520212.0999999996,004_o_m_h_a.png,I,z,1125,8,3,2143.7000000001863,518068.39999999944,9045,VNB,B,6
4,test,2,0.0,2-Back,1.0,m,Tue Jun 30 2026 11:21:32 GMT-0400 (Eastern Daylight Time),522028.89999999944,020_y_f_d_a.png,I,m,783,9,3,1810.8999999994412,520218.0,9045,VNB,B,7
5,test,2,0.0,2-Back,1.0,m,Tue Jun 30 2026 11:21:32 GMT-0400 (Eastern Daylight Time),523945.5,016_y_m_d_a.png,I,m,888,10,3,1909.0,522036.5,9045,VNB,B,8
6,test,2,0.0,2-Back,1.0,m,Tue Jun 30 2026 11:21:32 GMT-0400 (Eastern Daylight Time),526061.8999999994,007_m_m_n_a.png,I,m,1098,11,3,2108.5,523953.39999999944,9045,VNB,B,9
7,test,2,0.0,2-Back,1.0,m,Tue Jun 30 2026 11:21:32 GMT-0400 (Eastern Daylight Time),528028.7999999998,011_m_f_h_a.png,I,m,934,12,3,1961.5,526067.2999999998,9045,VNB,B,10
8,test,2,1.0,2-Back,1.0,z,Tue Jun 30 2026 11:21:32 GMT-0400 (Eastern Daylight Time),530078.5999999996,004_o_m_n_a.png,I,z,1030,13,3,2044.0999999996275,528034.5,9045,VNB,B,11
9,test,2,0.0,2-Back,1.0,m,Tue Jun 30 2026 11:21:32 GMT-0400 (Eastern Daylight Time),532045.5,005_o_f_d_a.png,I,m,934,14,3,1959.5,530086.0,9045,VNB,B,12
9,test,2,0.0,2-Back,0.0,m,Tue Jun 30 2026 11:21:32 GMT-0400 (Eastern Daylight Time),533928.8999999994,020_y_f_h_a.png,I,z,854,15,3,1876.0999999996275,532052.7999999998,9045,VNB,B,13
10,test,2,0.0,2-Back,1.0,z,Tue Jun 30 2026 11:21:32 GMT-0400 (Eastern Daylight Time),535895.7000000002,007_m_m_d_a.png,I,z,939,16,3,1959.800000000745,533935.8999999994,9045,VNB,B,14
11,test,2,0.0,2-Back,1.0,m,Tue Jun 30 2026 11:21:32 GMT-0400 (Eastern Daylight Time),537612.0999999996,016_y_m_n_a.png,I,m,684,17,3,1708.8999999994412,535903.2000000002,9045,VNB,B,15
12,test,2,1.0,2-Back,1.0,m,Tue Jun 30 2026 11:21:32 GMT-0400 (Eastern Daylight Time),539745.5,011_m_f_n_a.png,I,m,1112,18,3,2127.0,537618.5,9045,VNB,B,16
0,test,3,1.0,2-Back,,,Tue Jun 30 2026 11:21:32 GMT-0400 (Eastern Daylight Time),539745.5,004_o_m_n_a.png,I,space,1363,1,3,2127.0,537618.5,9045,VNB,B,0
0,test,3,1.0,2-Back,,,Tue Jun 30 2026 11:21:32 GMT-0400 (Eastern Daylight Time),539745.5,005_o_f_d_a.png,I,space,1363,2,3,2127.0,537618.5,9045,VNB,B,0
1,test,3,0.0,2-Back,1.0,m,Tue Jun 30 2026 11:21:32 GMT-0400 (Eastern Daylight Time),548062.0999999996,020_y_f_h_a.png,I,m,867,3,3,1893.2999999998137,546168.7999999998,9045,VNB,B,1
2,test,3,0.0,2-Back,1.0,z,Tue Jun 30 2026 11:21:32 GMT-0400 (Eastern Daylight Time),550045.5,011_m_f_d_a.png,I,z,950,4,3,1976.2000000001863,548069.2999999998,9045,VNB,B,2
2,test,3,1.0,2-Back,0.0,m,Tue Jun 30 2026 11:21:32 GMT-0400 (Eastern Daylight Time),552445.3999999994,016_y_m_n_a.png,I,z,1366,5,3,2391.199999999255,550054.2000000002,9045,VNB,B,3
2,test,3,0.0,2-Back,0.0,m,Tue Jun 30 2026 11:21:32 GMT-0400 (Eastern Daylight Time),554445.8999999994,004_o_m_h_a.png,I,z,966,6,3,1993.5999999996275,552452.2999999998,9045,VNB,B,4
2,test,3,0.0,2-Back,0.0,z,Tue Jun 30 2026 11:21:32 GMT-0400 (Eastern Daylight Time),556861.7000000002,020_y_f_n_a.png,I,m,1398,7,3,2412.300000000745,554449.3999999994,9045,VNB,B,5
3,test,3,1.0,2-Back,1.0,m,Tue Jun 30 2026 11:21:32 GMT-0400 (Eastern Daylight Time),558712.2000000002,007_m_m_d_a.png,I,m,822,8,3,1844.5,556867.7000000002,9045,VNB,B,6
3,test,3,0.0,2-Back,0.0,m,Tue Jun 30 2026 11:21:32 GMT-0400 (Eastern Daylight Time),560878.3999999994,016_y_m_d_a.png,I,z,1098,9,3,2109.699999999255,558768.7000000002,9045,VNB,B,7
4,test,3,0.0,2-Back,1.0,m,Tue Jun 30 2026 11:21:32 GMT-0400 (Eastern Daylight Time),562445.5999999996,005_o_f_h_a.png,I,m,533,10,3,1563.8999999994412,560881.7000000002,9045,VNB,B,8
5,test,3,1.0,2-Back,1.0,m,Tue Jun 30 2026 11:21:32 GMT-0400 (Eastern Daylight Time),564278.7999999998,011_m_f_n_a.png,I,m,756,11,3,1774.5999999996275,562504.2000000002,9045,VNB,B,9
6,test,3,1.0,2-Back,1.0,z,Tue Jun 30 2026 11:21:32 GMT-0400 (Eastern Daylight Time),566228.7999999998,007_m_m_h_a.png,I,z,925,12,3,1941.7000000001863,564287.0999999996,9045,VNB,B,10
6,test,3,0.0,2-Back,0.0,m,Tue Jun 30 2026 11:21:32 GMT-0400 (Eastern Daylight Time),568162.2000000002,020_y_f_d_a.png,I,z,911,13,3,1924.800000000745,566237.3999999994,9045,VNB,B,11
7,test,3,0.0,2-Back,1.0,m,Tue Jun 30 2026 11:21:32 GMT-0400 (Eastern Daylight Time),570062.3999999994,005_o_f_n_a.png,I,m,883,14,3,1893.699999999255,568168.7000000002,9045,VNB,B,12
7,test,3,0.0,2-Back,0.0,z,Tue Jun 30 2026 11:21:32 GMT-0400 (Eastern Daylight Time),571928.7000000002,004_o_m_d_a.png,I,m,838,15,3,1861.2000000001863,570067.5,9045,VNB,B,13
7,test,3,1.0,2-Back,0.0,m,Tue Jun 30 2026 11:21:32 GMT-0400 (Eastern Daylight Time),573678.5,011_m_f_h_a.png,I,z,731,16,3,1742.7000000001863,571935.7999999998,9045,VNB,B,14
7,test,3,0.0,2-Back,0.0,m,Tue Jun 30 2026 11:21:32 GMT-0400 (Eastern Daylight Time),575712.0,007_m_m_n_a.png,I,z,1013,17,3,2025.4000000003725,573686.5999999996,9045,VNB,B,15
7,test,3,0.0,2-Back,0.0,z,Tue Jun 30 2026 11:21:32 GMT-0400 (Eastern Daylight Time),577495.3999999994,016_y_m_h_a.png,I,m,756,18,3,1776.5999999996275,575718.7999999998,9045,VNB,B,16
0,test,4,0.0,2-Back,,,Tue Jun 30 2026 11:21:32 GMT-0400 (Eastern Daylight Time),577495.3999999994,011_m_f_n_a.png,I,space,1349,1,3,1776.5999999996275,575718.7999999998,9045,VNB,B,0
0,test,4,0.0,2-Back,,,Tue Jun 30 2026 11:21:32 GMT-0400 (Eastern Daylight Time),577495.3999999994,004_o_m_n_a.png,I,space,1349,2,3,1776.5999999996275,575718.7999999998,9045,VNB,B,0
0,test,4,1.0,2-Back,0.0,m,Tue Jun 30 2026 11:21:32 GMT-0400 (Eastern Daylight Time),585695.2000000002,016_y_m_h_a.png,I,z,548,3,3,1557.9000000003725,584137.2999999998,9045,VNB,B,1
0,test,4,1.0,2-Back,0.0,m,Tue Jun 30 2026 11:21:32 GMT-0400 (Eastern Daylight Time),587878.7999999998,005_o_f_d_a.png,I,z,1156,4,3,2177.7000000001863,585701.0999999996,9045,VNB,B,2
1,test,4,0.0,2-Back,1.0,z,Tue Jun 30 2026 11:21:32 GMT-0400 (Eastern Daylight Time),589878.5999999996,004_o_m_h_a.png,I,z,973,5,3,1992.5999999996275,587886.0,9045,VNB,B,3
1,test,4,0.0,2-Back,0.0,m,Tue Jun 30 2026 11:21:32 GMT-0400 (Eastern Daylight Time),591995.5,007_m_m_n_a.png,I,z,1085,6,3,2109.4000000003725,589886.0999999996,9045,VNB,B,4
2,test,4,0.0,2-Back,1.0,m,Tue Jun 30 2026 11:21:32 GMT-0400 (Eastern Daylight Time),593978.7000000002,011_m_f_d_a.png,I,m,952,7,3,1976.4000000003725,592002.2999999998,9045,VNB,B,5
2,test,4,0.0,2-Back,0.0,z,Tue Jun 30 2026 11:21:32 GMT-0400 (Eastern Daylight Time),595811.7999999998,020_y_f_n_a.png,I,m,809,8,3,1824.5999999996275,593987.2000000002,9045,VNB,B,6
3,test,4,1.0,2-Back,1.0,m,Tue Jun 30 2026 11:21:32 GMT-0400 (Eastern Daylight Time),597861.7999999998,005_o_f_h_a.png,I,m,1023,9,3,2045.2000000001863,595816.5999999996,9045,VNB,B,7
4,test,4,0.0,2-Back,1.0,m,Tue Jun 30 2026 11:21:32 GMT-0400 (Eastern Daylight Time),599595.2999999998,007_m_m_h_a.png,I,m,702,10,3,1728.0999999996275,597867.2000000002,9045,VNB,B,8
5,test,4,0.0,2-Back,1.0,m,Tue Jun 30 2026 11:21:32 GMT-0400 (Eastern Daylight Time),601595.2999999998,020_y_f_d_a.png,I,m,968,11,3,1993.0999999996275,599602.2000000002,9045,VNB,B,9
6,test,4,0.0,2-Back,1.0,m,Tue Jun 30 2026 11:21:32 GMT-0400 (Eastern Daylight Time),603512.0999999996,016_y_m_n_a.png,I,m,888,12,3,1910.2000000001863,601601.8999999994,9045,VNB,B,10
6,test,4,0.0,2-Back,0.0,z,Tue Jun 30 2026 11:21:32 GMT-0400 (Eastern Daylight Time),605395.3999999994,004_o_m_d_a.png,I,m,860,13,3,1874.699999999255,603520.7000000002,9045,VNB,B,11
7,test,4,1.0,2-Back,1.0,m,Tue Jun 30 2026 11:21:32 GMT-0400 (Eastern Daylight Time),607395.2000000002,011_m_f_h_a.png,I,m,976,14,3,1993.1000000005588,605402.0999999996,9045,VNB,B,12
7,test,4,1.0,2-Back,0.0,m,Tue Jun 30 2026 11:21:32 GMT-0400 (Eastern Daylight Time),609528.5,020_y_f_h_a.png,I,z,1104,15,3,2127.4000000003725,607401.0999999996,9045,VNB,B,13
7,test,4,0.0,2-Back,0.0,m,Tue Jun 30 2026 11:21:32 GMT-0400 (Eastern Daylight Time),611462.0,005_o_f_n_a.png,I,z,907,16,3,1925.0,609537.0,9045,VNB,B,14
8,test,4,0.0,2-Back,1.0,m,Tue Jun 30 2026 11:21:32 GMT-0400 (Eastern Daylight Time),613462.0,016_y_m_d_a.png,I,m,974,17,3,1991.9000000003725,611470.0999999996,9045,VNB,B,15
9,test,4,1.0,2-Back,1.0,m,Tue Jun 30 2026 11:21:32 GMT-0400 (Eastern Daylight Time),615311.8999999994,007_m_m_d_a.png,I,m,830,18,3,1843.199999999255,613468.7000000002,9045,VNB,B,16
0,test,5,1.0,2-Back,,,Tue Jun 30 2026 11:21:32 GMT-0400 (Eastern Daylight Time),615311.8999999994,020_y_f_d_a.png,I,space,1140,1,3,1843.199999999255,613468.7000000002,9045,VNB,B,0
0,test,5,1.0,2-Back,,,Tue Jun 30 2026 11:21:32 GMT-0400 (Eastern Daylight Time),615311.8999999994,005_o_f_h_a.png,I,space,1140,2,3,1843.199999999255,613468.7000000002,9045,VNB,B,0
1,test,5,1.0,2-Back,1.0,z,Tue Jun 30 2026 11:21:32 GMT-0400 (Eastern Daylight Time),623728.5999999996,004_o_m_d_a.png,I,z,912,3,3,1924.8999999994412,621803.7000000002,9045,VNB,B,1
2,test,5,1.0,2-Back,1.0,m,Tue Jun 30 2026 11:21:32 GMT-0400 (Eastern Daylight Time),625528.7000000002,011_m_f_n_a.png,I,m,771,4,3,1791.7000000001863,623737.0,9045,VNB,B,2
3,test,5,0.0,2-Back,1.0,m,Tue Jun 30 2026 11:21:32 GMT-0400 (Eastern Daylight Time),627912.0,007_m_m_h_a.png,I,m,1355,5,3,2375.100000000559,625536.8999999994,9045,VNB,B,3
3,test,5,0.0,2-Back,0.0,z,Tue Jun 30 2026 11:21:32 GMT-0400 (Eastern Daylight Time),630969.5,020_y_f_n_a.png,I,None,2016,6,3,3048.600000000559,627920.8999999994,9045,VNB,B,4
3,test,5,0.0,2-Back,0.0,m,Tue Jun 30 2026 11:21:32 GMT-0400 (Eastern Daylight Time),632895.0,005_o_f_d_a.png,I,z,914,7,3,1919.6000000005588,630975.3999999994,9045,VNB,B,5
3,test,5,0.0,2-Back,0.0,m,Tue Jun 30 2026 11:21:32 GMT-0400 (Eastern Daylight Time),634728.5999999996,004_o_m_h_a.png,I,z,804,8,3,1828.5999999996275,632900.0,9045,VNB,B,6
3,test,5,1.0,2-Back,0.0,z,Tue Jun 30 2026 11:21:32 GMT-0400 (Eastern Daylight Time),636812.0,011_m_f_d_a.png,I,m,1051,9,3,2076.2000000001863,634735.7999999998,9045,VNB,B,7
4,test,5,0.0,2-Back,1.0,m,Tue Jun 30 2026 11:21:32 GMT-0400 (Eastern Daylight Time),638695.2000000002,016_y_m_n_a.png,I,m,856,10,3,1877.4000000003725,636817.7999999998,9045,VNB,B,8
4,test,5,0.0,2-Back,0.0,m,Tue Jun 30 2026 11:21:32 GMT-0400 (Eastern Daylight Time),640612.0,007_m_m_n_a.png,I,z,892,11,3,1910.1000000005588,638701.8999999994,9045,VNB,B,9
4,test,5,0.0,2-Back,0.0,m,Tue Jun 30 2026 11:21:32 GMT-0400 (Eastern Daylight Time),642228.5999999996,020_y_f_h_a.png,I,z,592,12,3,1609.3999999994412,640619.2000000002,9045,VNB,B,10
5,test,5,0.0,2-Back,1.0,m,Tue Jun 30 2026 11:21:32 GMT-0400 (Eastern Daylight Time),643878.5999999996,016_y_m_d_a.png,I,m,624,13,3,1643.0999999996275,642235.5,9045,VNB,B,11
6,test,5,1.0,2-Back,1.0,z,Tue Jun 30 2026 11:21:32 GMT-0400 (Eastern Daylight Time),645713.2999999998,011_m_f_h_a.png,I,z,815,14,3,1825.2000000001863,643888.0999999996,9045,VNB,B,12
7,test,5,0.0,2-Back,1.0,m,Tue Jun 30 2026 11:21:32 GMT-0400 (Eastern Daylight Time),647311.7999999998,004_o_m_n_a.png,I,m,580,15,3,1595.0999999996275,645716.7000000002,9045,VNB,B,13
8,test,5,0.0,2-Back,1.0,m,Tue Jun 30 2026 11:21:32 GMT-0400 (Eastern Daylight Time),649028.5999999996,007_m_m_d_a.png,I,m,692,16,3,1709.7000000001863,647318.8999999994,9045,VNB,B,14
9,test,5,0.0,2-Back,1.0,z,Tue Jun 30 2026 11:21:32 GMT-0400 (Eastern Daylight Time),650978.5999999996,005_o_f_n_a.png,I,z,927,17,3,1943.0999999996275,649035.5,9045,VNB,B,15
10,test,5,1.0,2-Back,1.0,m,Tue Jun 30 2026 11:21:32 GMT-0400 (Eastern Daylight Time),652695.2000000002,016_y_m_h_a.png,I,m,688,18,3,1709.800000000745,650985.3999999994,9045,VNB,B,16
