Q,Q1,Q2,Q3,Q4,acc_sum,block,block_c,correct,correct_response,datetime,endtime,project,response,response_time,row_sel,session_number,squiggle1,squiggle1x,squiggle1y,squiggle2,squiggle2x,squiggle2y,squiggle3,squiggle3x,squiggle3y,squiggle4,squiggle4x,squiggle4y,start_end,starttime,subject_id,target_congruent,task,task_vers,testsquiggle,testsquigglex,testsquiggley,time_practice_delay,time_practice_fixation,time_practice_stimuli,time_practice_study,time_test_delay,time_test_fixation,time_test_stimuli,time_test_study,trial
1,1,0,0,0,0,prac,1,0,z,Wed Jun 04 2025 14:30:23 GMT-0500 (Central Daylight Time),110504.39999999106,I,None,2016,1,1,16.bmp,-120,-120,17.bmp,120,-120,18.bmp,-120,120,19.bmp,120,120,10827.59999999404,99676.79999999702,8051,yes,SM,B,16.bmp,-120,-120,103055,97026,105071,99040,,,,,1
3,0,0,1,0,0,prac,1,0,m,Wed Jun 04 2025 14:30:23 GMT-0500 (Central Daylight Time),120517.59999999404,I,z,1186,2,1,20.bmp,-120,-120,21.bmp,120,-120,22.bmp,-120,120,23.bmp,120,120,10009.29999999702,110508.29999999702,8051,no,SM,B,23.bmp,-120,120,113885,107858,115901,109869,,,,,2
4,0,0,0,1,1,prac,1,1,m,Wed Jun 04 2025 14:30:23 GMT-0500 (Central Daylight Time),130531.19999998808,I,m,1196,3,1,24.bmp,-120,-120,25.bmp,120,-120,26.bmp,-120,120,27.bmp,120,120,10010.0,120521.19999998808,8051,no,SM,B,24.bmp,120,120,123898,117870,125914,119883,,,,,3
2,0,1,0,0,1,prac,1,0,z,Wed Jun 04 2025 14:30:23 GMT-0500 (Central Daylight Time),140594.69999998808,I,m,1239,4,1,28.bmp,-120,-120,29.bmp,120,-120,30.bmp,-120,120,31.bmp,120,120,10059.29999999702,130535.39999999106,8051,yes,SM,B,29.bmp,120,-120,133912,127885,135928,129897,,,,,4
3,0,0,1,0,2,prac,1,1,z,Wed Jun 04 2025 14:30:23 GMT-0500 (Central Daylight Time),150591.59999999404,I,z,1174,5,1,32.bmp,-120,-120,33.bmp,120,-120,34.bmp,-120,120,35.bmp,120,120,9992.79999999702,140598.79999999702,8051,yes,SM,B,34.bmp,-120,120,143975,137948,145992,139960,,,,,5
1,1,0,0,0,3,prac,1,1,m,Wed Jun 04 2025 14:30:23 GMT-0500 (Central Daylight Time),160888.09999999404,I,m,1466,6,1,36.bmp,-120,-120,37.bmp,120,-120,38.bmp,-120,120,39.bmp,120,120,10293.40000000596,150594.69999998808,8051,no,SM,B,39.bmp,-120,-120,153972,147944,155988,149957,,,,,6
2,0,1,0,0,4,prac,1,1,m,Wed Jun 04 2025 14:30:23 GMT-0500 (Central Daylight Time),170980.29999999702,I,m,1281,7,1,40.bmp,-120,-120,41.bmp,120,-120,42.bmp,-120,120,43.bmp,120,120,10088.70000000298,160891.59999999404,8051,no,SM,B,40.bmp,120,-120,164269,158241,166285,160254,,,,,7
4,0,0,0,1,4,prac,1,0,z,Wed Jun 04 2025 14:30:23 GMT-0500 (Central Daylight Time),180965.19999998808,I,m,1153,8,1,44.bmp,-120,-120,45.bmp,120,-120,46.bmp,-120,120,47.bmp,120,120,9980.89999999106,170984.29999999702,8051,yes,SM,B,47.bmp,120,120,174365,168334,176382,170351,,,,,8
4,0,0,0,1,0,test,1,0,m,Wed Jun 04 2025 14:30:23 GMT-0500 (Central Daylight Time),221135.89999999106,I,None,2016,1,1,48.bmp,-120,-120,49.bmp,120,-120,50.bmp,-120,120,43.bmp,120,120,10060.79999999702,211075.09999999404,8051,yes,SM,B,50.bmp,120,120,174365,168334,176382,170351,214453.0,208424.0,216469.0,210438.0,1
2,0,1,0,0,1,test,1,1,m,Wed Jun 04 2025 14:30:23 GMT-0500 (Central Daylight Time),230233.19999998808,I,m,1042,2,1,1.bmp,-120,-120,2.bmp,120,-120,3.bmp,-120,120,4.bmp,120,120,9093.29999999702,221139.89999999106,8051,yes,SM,B,3.bmp,120,-120,174365,168334,176382,170351,224517.0,218489.0,226533.0,220502.0,2
1,1,0,0,0,2,test,1,1,z,Wed Jun 04 2025 14:30:23 GMT-0500 (Central Daylight Time),239513.69999998808,I,z,1224,3,1,5.bmp,-120,-120,6.bmp,120,-120,7.bmp,-120,120,8.bmp,120,120,9277.5,230236.19999998808,8051,yes,SM,B,5.bmp,-120,-120,174365,168334,176382,170351,233614.0,227585.0,235630.0,229599.0,3
3,0,0,1,0,2,test,1,0,m,Wed Jun 04 2025 14:30:23 GMT-0500 (Central Daylight Time),249426.89999999106,I,z,1764,4,1,9.bmp,-120,-120,10.bmp,120,-120,11.bmp,-120,120,12.bmp,120,120,9909.20000000298,239517.69999998808,8051,yes,SM,B,9.bmp,-120,120,174365,168334,176382,170351,242994.0,236867.0,245011.0,238990.0,4
2,0,1,0,0,3,test,1,1,z,Wed Jun 04 2025 14:30:23 GMT-0500 (Central Daylight Time),258374.29999999702,I,z,895,5,1,13.bmp,-120,-120,14.bmp,120,-120,15.bmp,-120,120,16.bmp,120,120,8944.0,249430.29999999702,8051,yes,SM,B,14.bmp,120,-120,174365,168334,176382,170351,252808.0,246780.0,254824.0,248793.0,5
3,0,0,1,0,4,test,1,1,z,Wed Jun 04 2025 14:30:23 GMT-0500 (Central Daylight Time),267488.09999999404,I,z,1052,6,1,17.bmp,-120,-120,18.bmp,120,-120,19.bmp,-120,120,20.bmp,120,120,9110.70000000298,258377.39999999106,8051,yes,SM,B,19.bmp,-120,120,174365,168334,176382,170351,261755.0,255727.0,263771.0,257740.0,6
4,0,0,0,1,4,test,1,0,z,Wed Jun 04 2025 14:30:23 GMT-0500 (Central Daylight Time),277218.299999997,I,m,1674,7,1,21.bmp,-120,-120,22.bmp,120,-120,23.bmp,-120,120,24.bmp,120,120,9727.0,267491.299999997,8051,yes,SM,B,24.bmp,120,120,174365,168334,176382,170351,270869.0,264841.0,272885.0,266854.0,7
2,0,1,0,0,5,test,1,1,m,Wed Jun 04 2025 14:30:23 GMT-0500 (Central Daylight Time),286815.39999999106,I,m,1544,8,1,25.bmp,-120,-120,26.bmp,120,-120,27.bmp,-120,120,28.bmp,120,120,9593.89999999106,277221.5,8051,yes,SM,B,25.bmp,120,-120,174365,168334,176382,170351,280599.0,274571.0,282615.0,276584.0,8
3,0,0,1,0,5,test,1,0,m,Wed Jun 04 2025 14:30:23 GMT-0500 (Central Daylight Time),295979.1999999881,I,z,1115,9,1,29.bmp,-120,-120,30.bmp,120,-120,31.bmp,-120,120,32.bmp,120,120,9160.29999999702,286818.89999999106,8051,yes,SM,B,30.bmp,-120,120,174365,168334,176382,170351,290196.0,284168.0,292212.0,286183.0,9
4,0,0,0,1,6,test,1,1,z,Wed Jun 04 2025 14:30:23 GMT-0500 (Central Daylight Time),305292.89999999106,I,z,1255,10,1,37.bmp,-120,-120,38.bmp,120,-120,39.bmp,-120,120,40.bmp,120,120,9310.5,295982.39999999106,8051,yes,SM,B,40.bmp,120,120,174365,168334,176382,170351,299360.0,293332.0,301376.0,295345.0,10
3,0,0,1,0,7,test,1,1,z,Wed Jun 04 2025 14:30:23 GMT-0500 (Central Daylight Time),314423.39999999106,I,z,1077,11,1,33.bmp,-120,-120,34.bmp,120,-120,35.bmp,-120,120,36.bmp,120,120,9127.20000000298,305296.1999999881,8051,yes,SM,B,35.bmp,-120,120,174365,168334,176382,170351,308673.0,302646.0,310690.0,304658.0,11
2,0,1,0,0,8,test,1,1,m,Wed Jun 04 2025 14:30:23 GMT-0500 (Central Daylight Time),323853.59999999404,I,m,1371,12,1,41.bmp,-120,-120,42.bmp,120,-120,43.bmp,-120,120,44.bmp,120,120,9426.79999999702,314426.799999997,8051,yes,SM,B,41.bmp,120,-120,174365,168334,176382,170351,317804.0,311776.0,319820.0,313790.0,12
3,0,0,1,0,8,test,1,0,m,Wed Jun 04 2025 14:30:23 GMT-0500 (Central Daylight Time),332967.6999999881,I,z,1052,13,1,45.bmp,-120,-120,46.bmp,120,-120,47.bmp,-120,120,48.bmp,120,120,9111.0,323856.6999999881,8051,yes,SM,B,46.bmp,-120,120,174365,168334,176382,170351,327234.0,321206.0,329251.0,323219.0,13
1,1,0,0,0,9,test,1,1,z,Wed Jun 04 2025 14:30:23 GMT-0500 (Central Daylight Time),342581.299999997,I,z,1554,14,1,49.bmp,-120,-120,50.bmp,120,-120,4.bmp,-120,120,1.bmp,120,120,9610.20000000298,332971.09999999404,8051,yes,SM,B,49.bmp,-120,-120,174365,168334,176382,170351,336348.0,330320.0,338365.0,332333.0,14
4,0,0,0,1,9,test,1,0,m,Wed Jun 04 2025 14:30:23 GMT-0500 (Central Daylight Time),351828.39999999106,I,z,1189,15,1,10.bmp,-120,-120,11.bmp,120,-120,12.bmp,-120,120,13.bmp,120,120,9243.59999999404,342584.799999997,8051,yes,SM,B,11.bmp,120,120,174365,168334,176382,170351,345962.0,339934.0,347978.0,341947.0,15
1,1,0,0,0,10,test,1,1,m,Wed Jun 04 2025 14:30:23 GMT-0500 (Central Daylight Time),361391.799999997,I,m,1502,16,1,2.bmp,-120,-120,3.bmp,120,-120,4.bmp,-120,120,5.bmp,120,120,9559.79999999702,351832.0,8051,yes,SM,B,5.bmp,-120,-120,174365,168334,176382,170351,355209.0,349181.0,357225.0,351194.0,16
3,0,0,1,0,11,test,1,1,m,Wed Jun 04 2025 14:30:23 GMT-0500 (Central Daylight Time),371005.799999997,I,m,1562,17,1,22.bmp,-120,-120,23.bmp,120,-120,24.bmp,-120,120,25.bmp,120,120,9610.79999999702,361395.0,8051,yes,SM,B,22.bmp,-120,120,174365,168334,176382,170351,364773.0,358744.0,366789.0,360758.0,17
1,1,0,0,0,12,test,1,1,z,Wed Jun 04 2025 14:30:23 GMT-0500 (Central Daylight Time),380419.39999999106,I,z,1364,18,1,6.bmp,-120,-120,7.bmp,120,-120,8.bmp,-120,120,9.bmp,120,120,9410.29999999702,371009.09999999404,8051,yes,SM,B,6.bmp,-120,-120,174365,168334,176382,170351,374386.0,368358.0,376403.0,370371.0,18
2,0,1,0,0,13,test,1,1,z,Wed Jun 04 2025 14:30:23 GMT-0500 (Central Daylight Time),389483.0,I,z,1015,19,1,26.bmp,-120,-120,27.bmp,120,-120,28.bmp,-120,120,29.bmp,120,120,9060.40000000596,380422.59999999404,8051,yes,SM,B,27.bmp,120,-120,174365,168334,176382,170351,383800.0,377772.0,385816.0,379785.0,19
3,0,0,1,0,14,test,1,1,z,Wed Jun 04 2025 14:30:23 GMT-0500 (Central Daylight Time),398397.09999999404,I,z,854,20,1,30.bmp,-120,-120,31.bmp,120,-120,32.bmp,-120,120,33.bmp,120,120,8911.0,389486.09999999404,8051,yes,SM,B,32.bmp,-120,120,174365,168334,176382,170351,392864.0,386835.0,394881.0,388849.0,20
1,1,0,0,0,15,test,1,1,m,Wed Jun 04 2025 14:30:23 GMT-0500 (Central Daylight Time),408160.799999997,I,m,1623,21,1,14.bmp,-120,-120,15.bmp,120,-120,16.bmp,-120,120,17.bmp,120,120,9760.40000000596,398400.39999999106,8051,yes,SM,B,16.bmp,-120,-120,174365,168334,176382,170351,401778.0,395750.0,403872.0,397762.0,21
4,0,0,0,1,16,test,1,1,z,Wed Jun 04 2025 14:30:23 GMT-0500 (Central Daylight Time),417907.6999999881,I,z,1697,22,1,18.bmp,-120,-120,19.bmp,120,-120,20.bmp,-120,120,21.bmp,120,120,9743.79999999702,408163.89999999106,8051,yes,SM,B,21.bmp,120,120,174365,168334,176382,170351,411541.0,405513.0,413558.0,407526.0,22
1,1,0,0,0,16,test,1,0,m,Wed Jun 04 2025 14:30:23 GMT-0500 (Central Daylight Time),427971.299999997,I,None,2015,23,1,34.bmp,-120,-120,35.bmp,120,-120,36.bmp,-120,120,37.bmp,120,120,10060.40000000596,417910.89999999106,8051,yes,SM,B,37.bmp,-120,-120,174365,168334,176382,170351,421288.0,415260.0,423305.0,417273.0,23
2,0,1,0,0,16,test,1,0,z,Wed Jun 04 2025 14:30:23 GMT-0500 (Central Daylight Time),438151.299999997,I,None,2015,24,1,42.bmp,-120,-120,43.bmp,120,-120,44.bmp,-120,120,45.bmp,120,120,10176.60000000894,427974.6999999881,8051,yes,SM,B,43.bmp,120,-120,174365,168334,176382,170351,431468.0,425324.0,433485.0,427461.0,24
4,0,0,0,1,16,test,1,0,m,Wed Jun 04 2025 14:30:23 GMT-0500 (Central Daylight Time),446948.59999999404,I,z,739,25,1,46.bmp,-120,-120,47.bmp,120,-120,48.bmp,-120,120,49.bmp,120,120,8793.59999999404,438155.0,8051,yes,SM,B,48.bmp,120,120,174365,168334,176382,170351,441532.0,435504.0,443548.0,437517.0,25
1,1,0,0,0,16,test,1,0,z,Wed Jun 04 2025 14:30:23 GMT-0500 (Central Daylight Time),455929.09999999404,I,m,917,26,1,38.bmp,-120,-120,39.bmp,120,-120,40.bmp,-120,120,41.bmp,120,120,8977.5,446951.59999999404,8051,yes,SM,B,38.bmp,-120,-120,174365,168334,176382,170351,450329.0,444301.0,452346.0,446314.0,26
4,0,0,0,1,17,test,1,1,z,Wed Jun 04 2025 14:30:23 GMT-0500 (Central Daylight Time),465192.799999997,I,z,1201,27,1,50.bmp,-120,-120,11.bmp,120,-120,1.bmp,-120,120,2.bmp,120,120,9260.29999999702,455932.5,8051,yes,SM,B,2.bmp,120,120,174365,168334,176382,170351,459310.0,453282.0,461326.0,455294.0,27
3,0,0,1,0,17,test,1,0,m,Wed Jun 04 2025 14:30:23 GMT-0500 (Central Daylight Time),474607.6999999881,I,z,1353,28,1,3.bmp,-120,-120,4.bmp,120,-120,5.bmp,-120,120,6.bmp,120,120,9411.59999999404,465196.09999999404,8051,yes,SM,B,3.bmp,-120,120,174365,168334,176382,170351,468573.0,462545.0,470590.0,464558.0,28
2,0,1,0,0,18,test,1,1,z,Wed Jun 04 2025 14:30:23 GMT-0500 (Central Daylight Time),483887.0,I,z,1227,29,1,7.bmp,-120,-120,8.bmp,120,-120,9.bmp,-120,120,10.bmp,120,120,9275.60000000894,474611.39999999106,8051,yes,SM,B,8.bmp,120,-120,174365,168334,176382,170351,477987.0,471961.0,480004.0,473972.0,29
3,0,0,1,0,19,test,1,1,z,Wed Jun 04 2025 14:30:23 GMT-0500 (Central Daylight Time),492402.1999999881,I,z,459,30,1,11.bmp,-120,-120,12.bmp,120,-120,13.bmp,-120,120,14.bmp,120,120,8512.0,483890.1999999881,8051,yes,SM,B,13.bmp,-120,120,174365,168334,176382,170351,487268.0,481239.0,489284.0,483253.0,30
1,1,0,0,0,20,test,1,1,z,Wed Jun 04 2025 14:30:23 GMT-0500 (Central Daylight Time),502098.09999999404,I,z,1649,31,1,15.bmp,-120,-120,16.bmp,120,-120,17.bmp,-120,120,18.bmp,120,120,9692.5,492405.59999999404,8051,yes,SM,B,15.bmp,-120,-120,174365,168334,176382,170351,495781.0,489755.0,497798.0,491766.0,31
2,0,1,0,0,20,test,1,0,m,Wed Jun 04 2025 14:30:23 GMT-0500 (Central Daylight Time),511378.0,I,z,1232,32,1,19.bmp,-120,-120,20.bmp,120,-120,21.bmp,-120,120,22.bmp,120,120,9277.10000000894,502100.89999999106,8051,yes,SM,B,19.bmp,120,-120,174365,168334,176382,170351,505479.0,499450.0,507495.0,501463.0,32
4,0,0,0,1,21,test,1,1,z,Wed Jun 04 2025 14:30:23 GMT-0500 (Central Daylight Time),520575.0,I,z,1144,33,1,31.bmp,-120,-120,32.bmp,120,-120,33.bmp,-120,120,34.bmp,120,120,9193.800000011921,511381.1999999881,8051,yes,SM,B,34.bmp,120,120,174365,168334,176382,170351,514759.0,508730.0,516775.0,510744.0,33
2,0,1,0,0,21,test,1,0,z,Wed Jun 04 2025 14:30:23 GMT-0500 (Central Daylight Time),530055.8999999911,I,m,1427,34,1,23.bmp,-120,-120,24.bmp,120,-120,25.bmp,-120,120,26.bmp,120,120,9477.79999999702,520578.09999999404,8051,yes,SM,B,24.bmp,120,-120,174365,168334,176382,170351,523956.0,517927.0,525972.0,519941.0,34
4,0,0,0,1,22,test,1,1,m,Wed Jun 04 2025 14:30:23 GMT-0500 (Central Daylight Time),539552.799999997,I,m,1442,35,1,27.bmp,-120,-120,28.bmp,120,-120,29.bmp,-120,120,30.bmp,120,120,9493.20000000298,530059.599999994,8051,yes,SM,B,29.bmp,120,120,174365,168334,176382,170351,533438.0,527409.0,535453.0,529422.0,35
3,0,0,1,0,22,test,1,0,m,Wed Jun 04 2025 14:30:23 GMT-0500 (Central Daylight Time),549166.5,I,z,1560,36,1,35.bmp,-120,-120,36.bmp,120,-120,37.bmp,-120,120,38.bmp,120,120,9610.60000000894,539555.8999999911,8051,yes,SM,B,35.bmp,-120,120,174365,168334,176382,170351,542933.0,536905.0,544951.0,538919.0,36
1,1,0,0,0,22,test,1,0,m,Wed Jun 04 2025 14:30:23 GMT-0500 (Central Daylight Time),559230.099999994,I,None,2016,37,1,39.bmp,-120,-120,40.bmp,120,-120,41.bmp,-120,120,42.bmp,120,120,10060.59999999404,549169.5,8051,yes,SM,B,40.bmp,-120,-120,174365,168334,176382,170351,552547.0,546519.0,554563.0,548532.0,37
2,0,1,0,0,23,test,1,1,m,Wed Jun 04 2025 14:30:23 GMT-0500 (Central Daylight Time),568377.299999997,I,m,1084,38,1,43.bmp,-120,-120,44.bmp,120,-120,45.bmp,-120,120,46.bmp,120,120,9143.70000000298,559233.599999994,8051,yes,SM,B,45.bmp,120,-120,174365,168334,176382,170351,562611.0,556583.0,564627.0,558595.0,38
4,0,0,0,1,23,test,1,0,z,Wed Jun 04 2025 14:30:23 GMT-0500 (Central Daylight Time),577290.6999999881,I,m,865,39,1,47.bmp,-120,-120,48.bmp,120,-120,49.bmp,-120,120,50.bmp,120,120,8910.5,568380.1999999881,8051,yes,SM,B,50.bmp,120,120,174365,168334,176382,170351,571758.0,565729.0,573774.0,567743.0,39
3,0,0,1,0,23,test,1,0,m,Wed Jun 04 2025 14:30:23 GMT-0500 (Central Daylight Time),586305.0,I,z,951,40,1,4.bmp,-120,-120,5.bmp,120,-120,6.bmp,-120,120,7.bmp,120,120,9010.90000000596,577294.099999994,8051,yes,SM,B,5.bmp,-120,120,174365,168334,176382,170351,580672.0,574643.0,582688.0,576656.0,40
1,1,0,0,0,23,test,1,0,z,Wed Jun 04 2025 14:30:23 GMT-0500 (Central Daylight Time),595451.8999999911,I,m,1097,41,1,8.bmp,-120,-120,9.bmp,120,-120,10.bmp,-120,120,11.bmp,120,120,9144.09999999404,586307.799999997,8051,yes,SM,B,8.bmp,-120,-120,174365,168334,176382,170351,589686.0,583657.0,591702.0,585670.0,41
4,0,0,0,1,24,test,1,1,z,Wed Jun 04 2025 14:30:23 GMT-0500 (Central Daylight Time),604982.299999997,I,z,1478,42,1,12.bmp,-120,-120,13.bmp,120,-120,14.bmp,-120,120,15.bmp,120,120,9527.70000000298,595454.599999994,8051,yes,SM,B,15.bmp,120,120,174365,168334,176382,170351,598833.0,592804.0,600849.0,594818.0,42
1,1,0,0,0,25,test,1,1,z,Wed Jun 04 2025 14:30:23 GMT-0500 (Central Daylight Time),613962.799999997,I,z,924,43,1,16.bmp,-120,-120,17.bmp,120,-120,18.bmp,-120,120,19.bmp,120,120,8977.5,604985.299999997,8051,yes,SM,B,16.bmp,-120,-120,174365,168334,176382,170351,608363.0,602335.0,610379.0,604348.0,43
4,0,0,0,1,25,test,1,0,m,Wed Jun 04 2025 14:30:23 GMT-0500 (Central Daylight Time),624026.299999997,I,None,2015,44,1,4.bmp,-120,-120,1.bmp,120,-120,2.bmp,-120,120,3.bmp,120,120,10060.0,613966.299999997,8051,yes,SM,B,4.bmp,120,120,174365,168334,176382,170351,617343.0,611316.0,619360.0,613328.0,44
1,1,0,0,0,26,test,1,1,m,Wed Jun 04 2025 14:30:23 GMT-0500 (Central Daylight Time),632990.1999999881,I,m,911,45,1,28.bmp,-120,-120,29.bmp,120,-120,30.bmp,-120,120,31.bmp,120,120,8960.79999999702,624029.3999999911,8051,yes,SM,B,31.bmp,-120,-120,174365,168334,176382,170351,627407.0,621379.0,629423.0,623392.0,45
1,1,0,0,0,26,test,1,0,m,Wed Jun 04 2025 14:30:23 GMT-0500 (Central Daylight Time),642170.3999999911,I,z,1124,46,1,20.bmp,-120,-120,21.bmp,120,-120,22.bmp,-120,120,23.bmp,120,120,9175.79999999702,632994.599999994,8051,yes,SM,B,21.bmp,-120,-120,174365,168334,176382,170351,636371.0,630344.0,638387.0,632355.0,46
3,0,0,1,0,27,test,1,1,z,Wed Jun 04 2025 14:30:23 GMT-0500 (Central Daylight Time),651218.1999999881,I,z,991,47,1,24.bmp,-120,-120,25.bmp,120,-120,26.bmp,-120,120,27.bmp,120,120,9044.5,642173.6999999881,8051,yes,SM,B,26.bmp,-120,120,174365,168334,176382,170351,645551.0,639523.0,647568.0,641536.0,47
3,0,0,1,0,28,test,1,1,z,Wed Jun 04 2025 14:30:23 GMT-0500 (Central Daylight Time),660165.1999999881,I,z,888,48,1,40.bmp,-120,-120,41.bmp,120,-120,42.bmp,-120,120,43.bmp,120,120,8944.09999999404,651221.099999994,8051,yes,SM,B,42.bmp,-120,120,174365,168334,176382,170351,654598.0,648570.0,656615.0,650585.0,48
2,0,1,0,0,28,test,1,0,z,Wed Jun 04 2025 14:30:23 GMT-0500 (Central Daylight Time),669578.8999999911,I,m,1365,49,1,36.bmp,-120,-120,37.bmp,120,-120,38.bmp,-120,120,39.bmp,120,120,9410.09999999404,660168.799999997,8051,yes,SM,B,37.bmp,120,-120,174365,168334,176382,170351,663546.0,657518.0,665562.0,659531.0,49
3,0,0,1,0,29,test,1,1,m,Wed Jun 04 2025 14:30:23 GMT-0500 (Central Daylight Time),678809.299999997,I,m,1175,50,1,32.bmp,-120,-120,33.bmp,120,-120,34.bmp,-120,120,35.bmp,120,120,9227.5,669581.799999997,8051,yes,SM,B,32.bmp,-120,120,174365,168334,176382,170351,672959.0,666931.0,674976.0,668944.0,50
2,0,1,0,0,30,test,1,1,z,Wed Jun 04 2025 14:30:23 GMT-0500 (Central Daylight Time),687889.599999994,I,z,1017,51,1,44.bmp,-120,-120,45.bmp,120,-120,46.bmp,-120,120,47.bmp,120,120,9077.5,678812.099999994,8051,yes,SM,B,45.bmp,120,-120,174365,168334,176382,170351,682190.0,676161.0,684206.0,678175.0,51
4,0,0,0,1,31,test,1,1,m,Wed Jun 04 2025 14:30:23 GMT-0500 (Central Daylight Time),697020.299999997,I,m,1072,52,1,48.bmp,-120,-120,49.bmp,120,-120,50.bmp,-120,120,31.bmp,120,120,9127.5,687892.799999997,8051,yes,SM,B,48.bmp,120,120,174365,168334,176382,170351,691270.0,685242.0,693287.0,687255.0,52
3,0,0,1,0,31,test,1,0,z,Wed Jun 04 2025 14:30:23 GMT-0500 (Central Daylight Time),706283.8999999911,I,m,1206,53,1,1.bmp,-120,-120,2.bmp,120,-120,3.bmp,-120,120,4.bmp,120,120,9260.5,697023.3999999911,8051,yes,SM,B,3.bmp,-120,120,174365,168334,176382,170351,700401.0,694373.0,702417.0,696386.0,53
1,1,0,0,0,32,test,1,1,m,Wed Jun 04 2025 14:30:23 GMT-0500 (Central Daylight Time),715831.099999994,I,m,1489,54,1,5.bmp,-120,-120,6.bmp,120,-120,7.bmp,-120,120,8.bmp,120,120,9544.09999999404,706287.0,8051,yes,SM,B,7.bmp,-120,-120,174365,168334,176382,170351,709665.0,703636.0,711681.0,705649.0,54
4,0,0,0,1,32,test,1,0,z,Wed Jun 04 2025 14:30:23 GMT-0500 (Central Daylight Time),725028.0,I,m,1147,55,1,9.bmp,-120,-120,10.bmp,120,-120,11.bmp,-120,120,12.bmp,120,120,9194.0,715834.0,8051,yes,SM,B,12.bmp,120,120,174365,168334,176382,170351,719212.0,713183.0,721228.0,715197.0,55
2,0,1,0,0,33,test,1,1,m,Wed Jun 04 2025 14:30:23 GMT-0500 (Central Daylight Time),734342.0,I,m,1253,56,1,13.bmp,-120,-120,14.bmp,120,-120,15.bmp,-120,120,16.bmp,120,120,9310.90000000596,725031.099999994,8051,yes,SM,B,13.bmp,120,-120,174365,168334,176382,170351,728409.0,722380.0,730426.0,724394.0,56
4,0,0,0,1,33,test,1,0,m,Wed Jun 04 2025 14:30:23 GMT-0500 (Central Daylight Time),743389.0,I,z,1005,57,1,17.bmp,-120,-120,18.bmp,120,-120,19.bmp,-120,120,20.bmp,120,120,9043.800000011921,734345.1999999881,8051,yes,SM,B,18.bmp,120,120,174365,168334,176382,170351,737706.0,731694.0,739722.0,733703.0,57
3,0,0,1,0,34,test,1,1,z,Wed Jun 04 2025 14:30:23 GMT-0500 (Central Daylight Time),752852.599999994,I,z,1413,58,1,21.bmp,-120,-120,22.bmp,120,-120,23.bmp,-120,120,24.bmp,120,120,9460.40000000596,743392.1999999881,8051,yes,SM,B,23.bmp,-120,120,174365,168334,176382,170351,746770.0,740741.0,748786.0,742756.0,58
2,0,1,0,0,35,test,1,1,m,Wed Jun 04 2025 14:30:23 GMT-0500 (Central Daylight Time),761899.8999999911,I,m,997,59,1,25.bmp,-120,-120,26.bmp,120,-120,27.bmp,-120,120,28.bmp,120,120,9044.29999999702,752855.599999994,8051,yes,SM,B,28.bmp,120,-120,174365,168334,176382,170351,756233.0,750205.0,758250.0,752218.0,59
1,1,0,0,0,36,test,1,1,z,Wed Jun 04 2025 14:30:23 GMT-0500 (Central Daylight Time),771596.799999997,I,z,1646,60,1,29.bmp,-120,-120,30.bmp,120,-120,31.bmp,-120,120,32.bmp,120,120,9694.10000000894,761902.6999999881,8051,yes,SM,B,29.bmp,-120,-120,174365,168334,176382,170351,765281.0,759252.0,767297.0,761266.0,60
2,0,1,0,0,37,test,1,1,z,Wed Jun 04 2025 14:30:23 GMT-0500 (Central Daylight Time),780760.599999994,I,z,1101,61,1,33.bmp,-120,-120,34.bmp,120,-120,35.bmp,-120,120,36.bmp,120,120,9160.70000000298,771599.8999999911,8051,yes,SM,B,34.bmp,120,-120,174365,168334,176382,170351,774978.0,768949.0,776994.0,770962.0,61
4,0,0,0,1,37,test,1,0,z,Wed Jun 04 2025 14:30:23 GMT-0500 (Central Daylight Time),790524.099999994,I,m,1713,62,1,41.bmp,-120,-120,42.bmp,120,-120,43.bmp,-120,120,44.bmp,120,120,9760.5,780763.599999994,8051,yes,SM,B,44.bmp,120,120,174365,168334,176382,170351,784141.0,778113.0,786158.0,780126.0,62
1,1,0,0,0,37,test,1,0,m,Wed Jun 04 2025 14:30:23 GMT-0500 (Central Daylight Time),799921.299999997,I,z,1334,63,1,45.bmp,-120,-120,46.bmp,120,-120,47.bmp,-120,120,48.bmp,120,120,9394.29999999702,790527.0,8051,yes,SM,B,45.bmp,-120,120,174365,168334,176382,170351,793905.0,787876.0,795921.0,789890.0,63
2,0,1,0,0,38,test,1,1,z,Wed Jun 04 2025 14:30:23 GMT-0500 (Central Daylight Time),808818.5,I,z,849,64,1,49.bmp,-120,-120,50.bmp,120,-120,12.bmp,-120,120,1.bmp,120,120,8894.5,799924.0,8051,yes,SM,B,50.bmp,120,-120,174365,168334,176382,170351,803302.0,797273.0,805318.0,799286.0,64
4,0,0,0,1,38,test,1,0,m,Wed Jun 04 2025 14:30:23 GMT-0500 (Central Daylight Time),818882.099999994,I,None,2015,65,1,2.bmp,-120,-120,3.bmp,120,-120,4.bmp,-120,120,5.bmp,120,120,10060.5,808821.599999994,8051,yes,SM,B,4.bmp,120,120,174365,168334,176382,170351,812199.0,806171.0,814216.0,808184.0,65
3,0,0,1,0,39,test,1,1,m,Wed Jun 04 2025 14:30:23 GMT-0500 (Central Daylight Time),827962.599999994,I,m,1032,66,1,6.bmp,-120,-120,7.bmp,120,-120,8.bmp,-120,120,9.bmp,120,120,9077.5,818885.099999994,8051,yes,SM,B,9.bmp,-120,120,174365,168334,176382,170351,822263.0,816234.0,824279.0,818247.0,66
2,0,1,0,0,39,test,1,0,m,Wed Jun 04 2025 14:30:23 GMT-0500 (Central Daylight Time),837509.5,I,z,1496,67,1,37.bmp,-120,-120,38.bmp,120,-120,39.bmp,-120,120,40.bmp,120,120,9544.300000011921,827965.1999999881,8051,yes,SM,B,39.bmp,120,-120,174365,168334,176382,170351,831343.0,825314.0,833359.0,827328.0,67
3,0,0,1,0,39,test,1,0,z,Wed Jun 04 2025 14:30:23 GMT-0500 (Central Daylight Time),847573.0,I,None,2015,68,1,10.bmp,-120,-120,11.bmp,120,-120,12.bmp,-120,120,13.bmp,120,120,10060.5,837512.5,8051,yes,SM,B,12.bmp,-120,120,174365,168334,176382,170351,840890.0,834862.0,842907.0,836875.0,68
1,1,0,0,0,40,test,1,1,m,Wed Jun 04 2025 14:30:23 GMT-0500 (Central Daylight Time),857303.099999994,I,m,1669,69,1,14.bmp,-120,-120,15.bmp,120,-120,16.bmp,-120,120,17.bmp,120,120,9727.20000000298,847575.8999999911,8051,yes,SM,B,15.bmp,-120,-120,174365,168334,176382,170351,850953.0,844925.0,852970.0,846939.0,69
2,0,1,0,0,41,test,1,1,m,Wed Jun 04 2025 14:30:23 GMT-0500 (Central Daylight Time),866667.0,I,m,1307,70,1,18.bmp,-120,-120,19.bmp,120,-120,20.bmp,-120,120,21.bmp,120,120,9361.20000000298,857305.799999997,8051,yes,SM,B,20.bmp,120,-120,174365,168334,176382,170351,860684.0,854655.0,862700.0,856669.0,70
4,0,0,0,1,41,test,1,0,z,Wed Jun 04 2025 14:30:23 GMT-0500 (Central Daylight Time),875964.1999999881,I,m,1247,71,1,22.bmp,-120,-120,23.bmp,120,-120,24.bmp,-120,120,25.bmp,120,120,9294.199999988079,866670.0,8051,yes,SM,B,25.bmp,120,120,174365,168334,176382,170351,870048.0,864019.0,872064.0,866032.0,71
1,1,0,0,0,41,test,1,0,z,Wed Jun 04 2025 14:30:23 GMT-0500 (Central Daylight Time),885244.5,I,m,1230,72,1,26.bmp,-120,-120,27.bmp,120,-120,28.bmp,-120,120,29.bmp,120,120,9277.40000000596,875967.099999994,8051,yes,SM,B,26.bmp,-120,-120,174365,168334,176382,170351,879345.0,873316.0,881361.0,875329.0,72
2,0,1,0,0,41,test,1,0,z,Wed Jun 04 2025 14:30:23 GMT-0500 (Central Daylight Time),894408.0,I,m,1101,73,1,30.bmp,-120,-120,31.bmp,120,-120,32.bmp,-120,120,33.bmp,120,120,9160.5,885247.5,8051,yes,SM,B,31.bmp,120,-120,174365,168334,176382,170351,888625.0,882597.0,890642.0,884610.0,73
4,0,0,0,1,42,test,1,1,m,Wed Jun 04 2025 14:30:23 GMT-0500 (Central Daylight Time),903505.599999994,I,m,1034,74,1,34.bmp,-120,-120,35.bmp,120,-120,36.bmp,-120,120,37.bmp,120,120,9094.20000000298,894411.3999999911,8051,yes,SM,B,36.bmp,120,120,174365,168334,176382,170351,897789.0,891761.0,899805.0,893774.0,74
2,0,1,0,0,43,test,1,1,m,Wed Jun 04 2025 14:30:23 GMT-0500 (Central Daylight Time),912769.099999994,I,m,1201,75,1,38.bmp,-120,-120,39.bmp,120,-120,40.bmp,-120,120,41.bmp,120,120,9260.40000000596,903508.6999999881,8051,yes,SM,B,41.bmp,120,-120,174365,168334,176382,170351,906886.0,900858.0,908902.0,902871.0,75
1,1,0,0,0,44,test,1,1,z,Wed Jun 04 2025 14:30:23 GMT-0500 (Central Daylight Time),922349.5,I,z,1521,76,1,42.bmp,-120,-120,43.bmp,120,-120,44.bmp,-120,120,45.bmp,120,120,9577.40000000596,912772.099999994,8051,yes,SM,B,42.bmp,-120,-120,174365,168334,176382,170351,916150.0,910121.0,918166.0,912135.0,76
3,0,0,1,0,44,test,1,0,z,Wed Jun 04 2025 14:30:23 GMT-0500 (Central Daylight Time),931446.799999997,I,m,1044,77,1,50.bmp,-120,-120,11.bmp,120,-120,1.bmp,-120,120,2.bmp,120,120,9094.20000000298,922352.599999994,8051,yes,SM,B,1.bmp,-120,120,174365,168334,176382,170351,925730.0,919702.0,927747.0,921715.0,77
1,1,0,0,0,45,test,1,1,m,Wed Jun 04 2025 14:30:23 GMT-0500 (Central Daylight Time),940410.5,I,m,915,78,1,46.bmp,-120,-120,47.bmp,120,-120,48.bmp,-120,120,49.bmp,120,120,8960.5,931450.0,8051,yes,SM,B,47.bmp,-120,-120,174365,168334,176382,170351,934827.0,928799.0,936844.0,930812.0,78
4,0,0,0,1,46,test,1,1,m,Wed Jun 04 2025 14:30:23 GMT-0500 (Central Daylight Time),950341.099999994,I,m,1872,79,1,7.bmp,-120,-120,8.bmp,120,-120,9.bmp,-120,120,10.bmp,120,120,9922.79999999702,940418.299999997,8051,yes,SM,B,7.bmp,120,120,174365,168334,176382,170351,943791.0,937768.0,945807.0,939776.0,79
3,0,0,1,0,47,test,1,1,m,Wed Jun 04 2025 14:30:23 GMT-0500 (Central Daylight Time),960021.1999999881,I,m,1629,80,1,3.bmp,-120,-120,4.bmp,120,-120,5.bmp,-120,120,6.bmp,120,120,9676.5,950344.6999999881,8051,yes,SM,B,6.bmp,-120,120,174365,168334,176382,170351,953721.0,947694.0,955738.0,949706.0,80
