acc_sum,block,block_c,change,condition,correct,correct_response,datetime,endtime,face,project,response,response_time,row_sel,session_number,start_end,starttime,subject_id,task,task_vers,trial
0,prac,1,,1-Back,,,Thu May 15 2025 09:13:13 GMT-0500 (Central Daylight Time),,005_o_f_d_a.png,O,space,8594,1,1,,,7157,VNB,B,0
1,prac,1,0.0,1-Back,1,m,Thu May 15 2025 09:13:13 GMT-0500 (Central Daylight Time),116898.90000003576,020_y_f_n_a.png,O,m,872,2,1,1785.300000011921,115113.60000002384,7157,VNB,B,1
2,prac,1,0.0,1-Back,1,m,Thu May 15 2025 09:13:13 GMT-0500 (Central Daylight Time),119398.5,007_m_m_h_a.png,O,m,1514,3,1,2466.2999999523163,116932.20000004768,7157,VNB,B,2
2,prac,1,0.0,1-Back,0,m,Thu May 15 2025 09:13:13 GMT-0500 (Central Daylight Time),121913.0,016_y_m_d_a.png,O,z,1520,4,1,2469.7999999523163,119443.20000004768,7157,VNB,B,3
3,prac,1,0.0,1-Back,1,m,Thu May 15 2025 09:13:13 GMT-0500 (Central Daylight Time),123914.60000002384,005_o_f_n_a.png,O,m,1081,5,1,1989.8999999761581,121924.70000004768,7157,VNB,B,4
3,prac,1,1.0,1-Back,0,z,Thu May 15 2025 09:13:13 GMT-0500 (Central Daylight Time),126145.0,016_y_m_n_a.png,O,m,1254,6,1,2196.0,123949.0,7157,VNB,B,5
4,prac,1,0.0,1-Back,1,m,Thu May 15 2025 09:13:13 GMT-0500 (Central Daylight Time),128127.10000002384,004_o_m_h_a.png,O,m,1059,7,1,1970.199999988079,126156.90000003576,7157,VNB,B,6
5,prac,1,0.0,1-Back,1,m,Thu May 15 2025 09:13:13 GMT-0500 (Central Daylight Time),130227.0,011_m_f_d_a.png,O,m,1169,8,1,2082.5,128144.5,7157,VNB,B,7
6,prac,1,1.0,1-Back,1,z,Thu May 15 2025 09:13:13 GMT-0500 (Central Daylight Time),131809.80000001192,020_y_f_d_a.png,O,z,672,9,1,1572.8999999761581,130236.90000003576,7157,VNB,B,8
7,prac,1,0.0,1-Back,1,m,Thu May 15 2025 09:13:13 GMT-0500 (Central Daylight Time),133543.5,007_m_m_n_a.png,O,m,790,10,1,1722.199999988079,131821.30000001192,7157,VNB,B,9
8,prac,1,0.0,1-Back,1,m,Thu May 15 2025 09:13:13 GMT-0500 (Central Daylight Time),135841.90000003576,005_o_f_h_a.png,O,m,1339,11,1,2267.199999988079,133574.70000004768,7157,VNB,B,10
9,prac,1,0.0,1-Back,1,m,Thu May 15 2025 09:13:13 GMT-0500 (Central Daylight Time),137509.40000003576,016_y_m_d_a.png,O,m,721,12,1,1655.300000011921,135854.10000002384,7157,VNB,B,11
0,test,1,0.0,1-Back,,,Thu May 15 2025 09:13:13 GMT-0500 (Central Daylight Time),137509.40000003576,020_y_f_d_a.png,O,space,4861,1,1,1655.300000011921,135854.10000002384,7157,VNB,B,0
1,test,1,0.0,1-Back,1,m,Thu May 15 2025 09:13:13 GMT-0500 (Central Daylight Time),155052.10000002384,011_m_f_n_a.png,O,m,1447,2,1,2454.5,152597.60000002384,7157,VNB,B,1
2,test,1,0.0,1-Back,1,m,Thu May 15 2025 09:13:13 GMT-0500 (Central Daylight Time),157019.40000003576,004_o_m_h_a.png,O,m,933,3,1,1961.699999988079,155057.70000004768,7157,VNB,B,2
3,test,1,1.0,1-Back,1,z,Thu May 15 2025 09:13:13 GMT-0500 (Central Daylight Time),158718.20000004768,007_m_m_h_a.png,O,z,662,4,1,1670.2000000476837,157048.0,7157,VNB,B,3
4,test,1,0.0,1-Back,1,m,Thu May 15 2025 09:13:13 GMT-0500 (Central Daylight Time),160483.60000002384,005_o_f_n_a.png,O,m,722,5,1,1738.699999988079,158744.90000003576,7157,VNB,B,4
4,test,1,0.0,1-Back,0,m,Thu May 15 2025 09:13:13 GMT-0500 (Central Daylight Time),162267.60000002384,016_y_m_d_a.png,O,z,749,6,1,1777.1000000238419,160490.5,7157,VNB,B,5
5,test,1,1.0,1-Back,1,z,Thu May 15 2025 09:13:13 GMT-0500 (Central Daylight Time),164932.20000004768,011_m_f_d_a.png,O,z,1622,7,1,2644.0,162288.20000004768,7157,VNB,B,6
6,test,1,0.0,1-Back,1,m,Thu May 15 2025 09:13:13 GMT-0500 (Central Daylight Time),166715.80000001192,020_y_f_h_a.png,O,m,758,8,1,1776.5999999642372,164939.20000004768,7157,VNB,B,7
6,test,1,0.0,1-Back,0,m,Thu May 15 2025 09:13:13 GMT-0500 (Central Daylight Time),169148.40000003576,004_o_m_n_a.png,O,z,1373,9,1,2400.900000035763,166747.5,7157,VNB,B,8
7,test,1,0.0,1-Back,1,m,Thu May 15 2025 09:13:13 GMT-0500 (Central Daylight Time),171546.70000004768,016_y_m_h_a.png,O,m,1332,10,1,2372.600000023842,169174.10000002384,7157,VNB,B,9
7,test,1,0.0,1-Back,0,m,Thu May 15 2025 09:13:13 GMT-0500 (Central Daylight Time),173896.80000001192,004_o_m_d_a.png,O,z,1326,11,1,2345.300000011921,171551.5,7157,VNB,B,10
8,test,1,1.0,1-Back,1,z,Thu May 15 2025 09:13:13 GMT-0500 (Central Daylight Time),175911.90000003576,005_o_f_d_a.png,O,z,968,12,1,1986.199999988079,173925.70000004768,7157,VNB,B,11
9,test,1,0.0,1-Back,1,m,Thu May 15 2025 09:13:13 GMT-0500 (Central Daylight Time),177762.30000001192,007_m_m_n_a.png,O,m,825,13,1,1844.699999988079,175917.60000002384,7157,VNB,B,12
9,test,1,1.0,1-Back,0,z,Thu May 15 2025 09:13:13 GMT-0500 (Central Daylight Time),179977.30000001192,020_y_f_n_a.png,O,m,1150,14,1,2182.5,177794.80000001192,7157,VNB,B,13
10,test,1,0.0,1-Back,1,m,Thu May 15 2025 09:13:13 GMT-0500 (Central Daylight Time),182576.5,011_m_f_h_a.png,O,m,1575,15,1,2593.599999964237,179982.90000003576,7157,VNB,B,14
11,test,1,0.0,1-Back,1,m,Thu May 15 2025 09:13:13 GMT-0500 (Central Daylight Time),185059.60000002384,007_m_m_d_a.png,O,m,1449,16,1,2472.0,182587.60000002384,7157,VNB,B,15
11,test,1,0.0,1-Back,0,m,Thu May 15 2025 09:13:13 GMT-0500 (Central Daylight Time),187292.5,016_y_m_n_a.png,O,z,1191,17,1,2208.899999976158,185083.60000002384,7157,VNB,B,16
11,test,1,0.0,1-Back,0,m,Thu May 15 2025 09:13:13 GMT-0500 (Central Daylight Time),189225.30000001192,005_o_f_h_a.png,O,z,878,18,1,1898.0,187327.30000001192,7157,VNB,B,17
0,test,2,0.0,1-Back,,,Thu May 15 2025 09:13:13 GMT-0500 (Central Daylight Time),189225.30000001192,016_y_m_n_a.png,O,space,1816,1,1,1898.0,187327.30000001192,7157,VNB,B,0
1,test,2,0.0,1-Back,1,m,Thu May 15 2025 09:13:13 GMT-0500 (Central Daylight Time),195539.60000002384,020_y_f_h_a.png,O,m,1423,2,1,2442.399999976158,193097.20000004768,7157,VNB,B,1
1,test,2,1.0,1-Back,0,m,Thu May 15 2025 09:13:13 GMT-0500 (Central Daylight Time),197821.40000003576,004_o_m_n_a.png,O,z,1246,3,1,2258.400000035763,195563.0,7157,VNB,B,2
2,test,2,0.0,1-Back,1,m,Thu May 15 2025 09:13:13 GMT-0500 (Central Daylight Time),200171.40000003576,011_m_f_d_a.png,O,m,1319,4,1,2344.5,197826.90000003576,7157,VNB,B,3
3,test,2,0.0,1-Back,1,z,Thu May 15 2025 09:13:13 GMT-0500 (Central Daylight Time),202337.5,007_m_m_d_a.png,O,z,1128,5,1,2146.0,200191.5,7157,VNB,B,4
3,test,2,0.0,1-Back,0,m,Thu May 15 2025 09:13:13 GMT-0500 (Central Daylight Time),205403.40000003576,016_y_m_h_a.png,O,None,2016,6,1,3036.100000023842,202367.30000001192,7157,VNB,B,5
3,test,2,1.0,1-Back,0,z,Thu May 15 2025 09:13:13 GMT-0500 (Central Daylight Time),207718.10000002384,005_o_f_h_a.png,O,m,1269,7,1,2288.699999988079,205429.40000003576,7157,VNB,B,6
4,test,2,0.0,1-Back,1,m,Thu May 15 2025 09:13:13 GMT-0500 (Central Daylight Time),209801.30000001192,011_m_f_n_a.png,O,m,1058,8,1,2077.5,207723.80000001192,7157,VNB,B,7
5,test,2,0.0,1-Back,1,m,Thu May 15 2025 09:13:13 GMT-0500 (Central Daylight Time),212167.60000002384,020_y_f_d_a.png,O,m,1336,9,1,2354.600000023842,209813.0,7157,VNB,B,8
6,test,2,0.0,1-Back,1,m,Thu May 15 2025 09:13:13 GMT-0500 (Central Daylight Time),213949.80000001192,007_m_m_n_a.png,O,m,722,10,1,1751.699999988079,212198.10000002384,7157,VNB,B,9
7,test,2,1.0,1-Back,1,m,Thu May 15 2025 09:13:13 GMT-0500 (Central Daylight Time),215815.5,011_m_f_h_a.png,O,m,834,11,1,1852.0,213963.5,7157,VNB,B,10
7,test,2,0.0,1-Back,0,z,Thu May 15 2025 09:13:13 GMT-0500 (Central Daylight Time),217849.10000002384,004_o_m_h_a.png,O,m,1002,12,1,2027.300000011921,215821.80000001192,7157,VNB,B,11
8,test,2,0.0,1-Back,1,m,Thu May 15 2025 09:13:13 GMT-0500 (Central Daylight Time),219731.90000003576,016_y_m_d_a.png,O,m,834,13,1,1857.6000000238419,217874.30000001192,7157,VNB,B,12
9,test,2,0.0,1-Back,1,m,Thu May 15 2025 09:13:13 GMT-0500 (Central Daylight Time),222130.20000004768,005_o_f_n_a.png,O,m,1340,14,1,2366.900000035763,219763.30000001192,7157,VNB,B,13
10,test,2,0.0,1-Back,1,z,Thu May 15 2025 09:13:13 GMT-0500 (Central Daylight Time),224262.80000001192,020_y_f_n_a.png,O,z,1102,15,1,2124.0,222138.80000001192,7157,VNB,B,14
11,test,2,1.0,1-Back,1,m,Thu May 15 2025 09:13:13 GMT-0500 (Central Daylight Time),225996.70000004768,007_m_m_h_a.png,O,m,699,16,1,1728.9000000357628,224267.80000001192,7157,VNB,B,15
12,test,2,0.0,1-Back,1,m,Thu May 15 2025 09:13:13 GMT-0500 (Central Daylight Time),227745.80000001192,005_o_f_d_a.png,O,m,711,17,1,1723.0,226022.80000001192,7157,VNB,B,16
13,test,2,1.0,1-Back,1,z,Thu May 15 2025 09:13:13 GMT-0500 (Central Daylight Time),230078.0,004_o_m_d_a.png,O,z,1287,18,1,2304.699999988079,227773.30000001192,7157,VNB,B,17
0,test,3,1.0,1-Back,,,Thu May 15 2025 09:13:13 GMT-0500 (Central Daylight Time),230078.0,005_o_f_h_a.png,O,space,1341,1,1,2304.699999988079,227773.30000001192,7157,VNB,B,0
1,test,3,0.0,1-Back,1,m,Thu May 15 2025 09:13:13 GMT-0500 (Central Daylight Time),235810.0,011_m_f_d_a.png,O,m,1168,2,1,2191.399999976158,233618.60000002384,7157,VNB,B,1
2,test,3,1.0,1-Back,1,m,Thu May 15 2025 09:13:13 GMT-0500 (Central Daylight Time),238326.0,007_m_m_n_a.png,O,m,1439,3,1,2484.2999999523163,235841.70000004768,7157,VNB,B,2
3,test,3,0.0,1-Back,1,z,Thu May 15 2025 09:13:13 GMT-0500 (Central Daylight Time),240490.70000004768,005_o_f_n_a.png,O,z,1116,4,1,2120.2000000476837,238370.5,7157,VNB,B,3
4,test,3,1.0,1-Back,1,m,Thu May 15 2025 09:13:13 GMT-0500 (Central Daylight Time),242454.30000001192,004_o_m_d_a.png,O,m,946,5,1,1958.3999999761581,240495.90000003576,7157,VNB,B,4
5,test,3,0.0,1-Back,1,m,Thu May 15 2025 09:13:13 GMT-0500 (Central Daylight Time),244873.20000004768,020_y_f_h_a.png,O,m,1392,6,1,2410.800000011921,242462.40000003576,7157,VNB,B,5
6,test,3,0.0,1-Back,1,z,Thu May 15 2025 09:13:13 GMT-0500 (Central Daylight Time),246939.60000002384,016_y_m_h_a.png,O,z,1027,7,1,2046.6000000238419,244893.0,7157,VNB,B,6
7,test,3,0.0,1-Back,1,m,Thu May 15 2025 09:13:13 GMT-0500 (Central Daylight Time),248638.0,011_m_f_n_a.png,O,m,638,8,1,1659.8999999761581,246978.10000002384,7157,VNB,B,7
8,test,3,0.0,1-Back,1,m,Thu May 15 2025 09:13:13 GMT-0500 (Central Daylight Time),250721.5,020_y_f_d_a.png,O,m,1059,9,1,2078.399999976158,248643.10000002384,7157,VNB,B,8
9,test,3,1.0,1-Back,1,m,Thu May 15 2025 09:13:13 GMT-0500 (Central Daylight Time),252936.60000002384,004_o_m_n_a.png,O,m,1134,10,1,2163.5,250773.10000002384,7157,VNB,B,9
10,test,3,0.0,1-Back,1,m,Thu May 15 2025 09:13:13 GMT-0500 (Central Daylight Time),254837.40000003576,007_m_m_h_a.png,O,m,881,11,1,1892.5,252944.90000003576,7157,VNB,B,10
11,test,3,0.0,1-Back,1,z,Thu May 15 2025 09:13:13 GMT-0500 (Central Daylight Time),256968.70000004768,011_m_f_h_a.png,O,z,1082,12,1,2103.100000023842,254865.60000002384,7157,VNB,B,11
12,test,3,1.0,1-Back,1,m,Thu May 15 2025 09:13:13 GMT-0500 (Central Daylight Time),258702.30000001192,005_o_f_d_a.png,O,m,706,13,1,1726.800000011921,256975.5,7157,VNB,B,12
13,test,3,0.0,1-Back,1,z,Thu May 15 2025 09:13:13 GMT-0500 (Central Daylight Time),261117.30000001192,007_m_m_d_a.png,O,z,1362,14,1,2383.899999976158,258733.40000003576,7157,VNB,B,13
14,test,3,0.0,1-Back,1,m,Thu May 15 2025 09:13:13 GMT-0500 (Central Daylight Time),262984.10000002384,016_y_m_n_a.png,O,m,836,15,1,1861.5,261122.60000002384,7157,VNB,B,14
15,test,3,1.0,1-Back,1,m,Thu May 15 2025 09:13:13 GMT-0500 (Central Daylight Time),265615.8000000119,004_o_m_h_a.png,O,m,1569,16,1,2601.800000011921,263014.0,7157,VNB,B,15
16,test,3,0.0,1-Back,1,m,Thu May 15 2025 09:13:13 GMT-0500 (Central Daylight Time),267266.10000002384,016_y_m_d_a.png,O,m,627,17,1,1644.5,265621.60000002384,7157,VNB,B,16
17,test,3,1.0,1-Back,1,m,Thu May 15 2025 09:13:13 GMT-0500 (Central Daylight Time),268999.10000002384,020_y_f_n_a.png,O,m,687,18,1,1707.6000000238419,267291.5,7157,VNB,B,17
0,test,4,1.0,1-Back,,,Thu May 15 2025 09:13:13 GMT-0500 (Central Daylight Time),268999.10000002384,007_m_m_d_a.png,O,space,1251,1,1,1707.6000000238419,267291.5,7157,VNB,B,0
1,test,4,0.0,1-Back,1,z,Thu May 15 2025 09:13:13 GMT-0500 (Central Daylight Time),274630.5,004_o_m_d_a.png,O,z,1139,2,1,2154.699999988079,272475.8000000119,7157,VNB,B,1
2,test,4,0.0,1-Back,1,m,Thu May 15 2025 09:13:13 GMT-0500 (Central Daylight Time),276478.8000000119,016_y_m_h_a.png,O,m,786,3,1,1814.5999999642372,274664.2000000477,7157,VNB,B,2
3,test,4,0.0,1-Back,1,m,Thu May 15 2025 09:13:13 GMT-0500 (Central Daylight Time),278362.10000002384,011_m_f_n_a.png,O,m,851,4,1,1878.3999999761581,276483.7000000477,7157,VNB,B,3
4,test,4,1.0,1-Back,1,m,Thu May 15 2025 09:13:13 GMT-0500 (Central Daylight Time),280694.90000003576,005_o_f_h_a.png,O,m,1287,5,1,2306.199999988079,278388.7000000477,7157,VNB,B,4
5,test,4,0.0,1-Back,1,m,Thu May 15 2025 09:13:13 GMT-0500 (Central Daylight Time),282394.60000002384,007_m_m_n_a.png,O,m,635,6,1,1669.699999988079,280724.90000003576,7157,VNB,B,5
6,test,4,0.0,1-Back,1,m,Thu May 15 2025 09:13:13 GMT-0500 (Central Daylight Time),284244.0,016_y_m_d_a.png,O,m,790,7,1,1818.2999999523163,282425.7000000477,7157,VNB,B,6
7,test,4,1.0,1-Back,1,z,Thu May 15 2025 09:13:13 GMT-0500 (Central Daylight Time),286393.3000000119,020_y_f_d_a.png,O,z,1101,8,1,2123.099999964237,284270.2000000477,7157,VNB,B,7
8,test,4,0.0,1-Back,1,m,Thu May 15 2025 09:13:13 GMT-0500 (Central Daylight Time),288259.40000003576,011_m_f_h_a.png,O,m,809,9,1,1832.5,286426.90000003576,7157,VNB,B,8
9,test,4,0.0,1-Back,1,z,Thu May 15 2025 09:13:13 GMT-0500 (Central Daylight Time),290358.8000000119,004_o_m_h_a.png,O,z,1038,10,1,2067.5,288291.3000000119,7157,VNB,B,9
10,test,4,1.0,1-Back,1,m,Thu May 15 2025 09:13:13 GMT-0500 (Central Daylight Time),292058.0,005_o_f_n_a.png,O,m,644,11,1,1667.0,290391.0,7157,VNB,B,10
11,test,4,0.0,1-Back,1,m,Thu May 15 2025 09:13:13 GMT-0500 (Central Daylight Time),294223.0,011_m_f_d_a.png,O,m,1118,12,1,2139.5,292083.5,7157,VNB,B,11
12,test,4,0.0,1-Back,1,m,Thu May 15 2025 09:13:13 GMT-0500 (Central Daylight Time),296106.60000002384,020_y_f_n_a.png,O,m,858,13,1,1876.0,294230.60000002384,7157,VNB,B,12
13,test,4,0.0,1-Back,1,m,Thu May 15 2025 09:13:13 GMT-0500 (Central Daylight Time),298371.90000003576,005_o_f_d_a.png,O,m,1205,14,1,2240.199999988079,296131.7000000477,7157,VNB,B,13
14,test,4,0.0,1-Back,1,m,Thu May 15 2025 09:13:13 GMT-0500 (Central Daylight Time),300238.8000000119,020_y_f_h_a.png,O,m,837,15,1,1861.3999999761581,298377.40000003576,7157,VNB,B,14
15,test,4,1.0,1-Back,1,z,Thu May 15 2025 09:13:13 GMT-0500 (Central Daylight Time),302337.10000002384,007_m_m_h_a.png,O,z,1052,16,1,2073.800000011921,300263.3000000119,7157,VNB,B,15
16,test,4,0.0,1-Back,1,m,Thu May 15 2025 09:13:13 GMT-0500 (Central Daylight Time),304153.2000000477,004_o_m_n_a.png,O,m,784,17,1,1807.1000000238419,302346.10000002384,7157,VNB,B,16
17,test,4,1.0,1-Back,1,z,Thu May 15 2025 09:13:13 GMT-0500 (Central Daylight Time),306102.60000002384,016_y_m_n_a.png,O,z,921,18,1,1940.699999988079,304161.90000003576,7157,VNB,B,17
0,test,5,1.0,1-Back,,,Thu May 15 2025 09:13:13 GMT-0500 (Central Daylight Time),306102.60000002384,004_o_m_n_a.png,O,space,1347,1,1,1940.699999988079,304161.90000003576,7157,VNB,B,0
1,test,5,1.0,1-Back,1,m,Thu May 15 2025 09:13:13 GMT-0500 (Central Daylight Time),311536.3000000119,005_o_f_h_a.png,O,m,1033,2,1,2039.800000011921,309496.5,7157,VNB,B,1
1,test,5,0.0,1-Back,0,m,Thu May 15 2025 09:13:13 GMT-0500 (Central Daylight Time),313401.90000003576,016_y_m_d_a.png,O,z,810,3,1,1829.300000011921,311572.60000002384,7157,VNB,B,2
2,test,5,0.0,1-Back,1,z,Thu May 15 2025 09:13:13 GMT-0500 (Central Daylight Time),315383.5,004_o_m_d_a.png,O,z,946,4,1,1954.199999988079,313429.3000000119,7157,VNB,B,3
3,test,5,0.0,1-Back,1,m,Thu May 15 2025 09:13:13 GMT-0500 (Central Daylight Time),317398.8000000119,011_m_f_h_a.png,O,m,978,5,1,1988.0,315410.8000000119,7157,VNB,B,4
3,test,5,0.0,1-Back,0,m,Thu May 15 2025 09:13:13 GMT-0500 (Central Daylight Time),319298.2000000477,020_y_f_n_a.png,O,z,870,6,1,1894.2000000476837,317404.0,7157,VNB,B,5
4,test,5,1.0,1-Back,1,z,Thu May 15 2025 09:13:13 GMT-0500 (Central Daylight Time),322198.10000002384,005_o_f_n_a.png,O,z,1871,7,1,2894.199999988079,319303.90000003576,7157,VNB,B,6
5,test,5,0.0,1-Back,1,m,Thu May 15 2025 09:13:13 GMT-0500 (Central Daylight Time),324063.40000003576,011_m_f_d_a.png,O,m,803,8,1,1828.300000011921,322235.10000002384,7157,VNB,B,7
5,test,5,0.0,1-Back,0,m,Thu May 15 2025 09:13:13 GMT-0500 (Central Daylight Time),327096.7000000477,016_y_m_h_a.png,O,None,2014,9,1,3026.2000000476837,324070.5,7157,VNB,B,8
6,test,5,0.0,1-Back,1,m,Thu May 15 2025 09:13:13 GMT-0500 (Central Daylight Time),328828.5,020_y_f_d_a.png,O,m,690,10,1,1707.3999999761581,327121.10000002384,7157,VNB,B,9
7,test,5,0.0,1-Back,1,m,Thu May 15 2025 09:13:13 GMT-0500 (Central Daylight Time),330911.2000000477,007_m_m_n_a.png,O,m,1052,11,1,2071.600000023842,328839.60000002384,7157,VNB,B,10
8,test,5,1.0,1-Back,1,z,Thu May 15 2025 09:13:13 GMT-0500 (Central Daylight Time),332911.3000000119,011_m_f_n_a.png,O,z,970,12,1,1992.199999988079,330919.10000002384,7157,VNB,B,11
9,test,5,0.0,1-Back,1,m,Thu May 15 2025 09:13:13 GMT-0500 (Central Daylight Time),334660.7000000477,004_o_m_h_a.png,O,m,691,13,1,1718.800000011921,332941.90000003576,7157,VNB,B,12
9,test,5,0.0,1-Back,0,z,Thu May 15 2025 09:13:13 GMT-0500 (Central Daylight Time),337176.60000002384,007_m_m_h_a.png,O,m,1444,14,1,2451.399999976158,334725.2000000477,7157,VNB,B,13
10,test,5,1.0,1-Back,1,m,Thu May 15 2025 09:13:13 GMT-0500 (Central Daylight Time),339108.40000003576,005_o_f_d_a.png,O,m,896,15,1,1912.300000011921,337196.10000002384,7157,VNB,B,14
11,test,5,0.0,1-Back,1,m,Thu May 15 2025 09:13:13 GMT-0500 (Central Daylight Time),341109.2000000477,016_y_m_n_a.png,O,m,981,16,1,1996.300000011921,339112.90000003576,7157,VNB,B,15
12,test,5,0.0,1-Back,1,m,Thu May 15 2025 09:13:13 GMT-0500 (Central Daylight Time),342858.10000002384,020_y_f_h_a.png,O,m,703,17,1,1718.8999999761581,341139.2000000477,7157,VNB,B,16
13,test,5,0.0,1-Back,1,m,Thu May 15 2025 09:13:13 GMT-0500 (Central Daylight Time),344557.10000002384,007_m_m_d_a.png,O,m,655,18,1,1669.5,342887.60000002384,7157,VNB,B,17
0,prac,1,0.0,2-Back,,,Thu May 15 2025 09:13:13 GMT-0500 (Central Daylight Time),344557.10000002384,011_m_f_n_a.png,O,space,4534,1,1,1669.5,342887.60000002384,7157,VNB,B,0
0,prac,1,0.0,2-Back,,,Thu May 15 2025 09:13:13 GMT-0500 (Central Daylight Time),344557.10000002384,005_o_f_h_a.png,O,space,4534,2,1,1669.5,342887.60000002384,7157,VNB,B,0
1,prac,1,0.0,2-Back,1,m,Thu May 15 2025 09:13:13 GMT-0500 (Central Daylight Time),425696.8000000119,004_o_m_d_a.png,O,m,974,3,1,1990.3999999761581,423706.40000003576,7157,VNB,B,1
1,prac,1,1.0,2-Back,0,z,Thu May 15 2025 09:13:13 GMT-0500 (Central Daylight Time),428113.7000000477,007_m_m_h_a.png,O,m,1448,4,1,2405.2000000476837,425708.5,7157,VNB,B,2
2,prac,1,0.0,2-Back,1,m,Thu May 15 2025 09:13:13 GMT-0500 (Central Daylight Time),430059.5,020_y_f_n_a.png,O,m,978,5,1,1902.0999999642372,428157.40000003576,7157,VNB,B,3
3,prac,1,1.0,2-Back,1,z,Thu May 15 2025 09:13:13 GMT-0500 (Central Daylight Time),432194.5,004_o_m_h_a.png,O,z,1197,6,1,2117.599999964237,430076.90000003576,7157,VNB,B,4
4,prac,1,1.0,2-Back,1,z,Thu May 15 2025 09:13:13 GMT-0500 (Central Daylight Time),434593.7000000477,016_y_m_n_a.png,O,z,1430,7,1,2385.2000000476837,432208.5,7157,VNB,B,5
5,prac,1,0.0,2-Back,1,m,Thu May 15 2025 09:13:13 GMT-0500 (Central Daylight Time),436809.8000000119,011_m_f_d_a.png,O,m,1259,8,1,2203.699999988079,434606.10000002384,7157,VNB,B,6
6,prac,1,0.0,2-Back,1,m,Thu May 15 2025 09:13:13 GMT-0500 (Central Daylight Time),438925.60000002384,005_o_f_d_a.png,O,m,1159,9,1,2101.699999988079,436823.90000003576,7157,VNB,B,7
7,prac,1,0.0,2-Back,1,m,Thu May 15 2025 09:13:13 GMT-0500 (Central Daylight Time),440892.2000000477,007_m_m_h_a.png,O,m,1025,10,1,1959.2000000476837,438933.0,7157,VNB,B,8
8,prac,1,1.0,2-Back,1,z,Thu May 15 2025 09:13:13 GMT-0500 (Central Daylight Time),442708.60000002384,020_y_f_d_a.png,O,z,862,11,1,1791.1000000238419,440917.5,7157,VNB,B,9
9,prac,1,0.0,2-Back,1,m,Thu May 15 2025 09:13:13 GMT-0500 (Central Daylight Time),444957.7000000477,004_o_m_n_a.png,O,m,1288,12,1,2205.2000000476837,442752.5,7157,VNB,B,10
0,test,1,0.0,2-Back,,,Thu May 15 2025 09:13:13 GMT-0500 (Central Daylight Time),444957.7000000477,016_y_m_h_a.png,O,space,3139,1,1,2205.2000000476837,442752.5,7157,VNB,B,0
0,test,1,0.0,2-Back,,,Thu May 15 2025 09:13:13 GMT-0500 (Central Daylight Time),444957.7000000477,005_o_f_n_a.png,O,space,3139,2,1,2205.2000000476837,442752.5,7157,VNB,B,0
1,test,1,0.0,2-Back,1,z,Thu May 15 2025 09:13:13 GMT-0500 (Central Daylight Time),462502.2000000477,004_o_m_h_a.png,O,z,1056,3,1,2075.900000035763,460426.3000000119,7157,VNB,B,1
2,test,1,0.0,2-Back,1,m,Thu May 15 2025 09:13:13 GMT-0500 (Central Daylight Time),465118.2000000477,011_m_f_d_a.png,O,m,1574,4,1,2586.7000000476837,462531.5,7157,VNB,B,2
2,test,1,1.0,2-Back,0,m,Thu May 15 2025 09:13:13 GMT-0500 (Central Daylight Time),467266.3000000119,016_y_m_n_a.png,O,z,1083,5,1,2116.899999976158,465149.40000003576,7157,VNB,B,3
3,test,1,0.0,2-Back,1,z,Thu May 15 2025 09:13:13 GMT-0500 (Central Daylight Time),469399.10000002384,020_y_f_d_a.png,O,z,1102,6,1,2127.399999976158,467271.7000000477,7157,VNB,B,4
4,test,1,0.0,2-Back,1,m,Thu May 15 2025 09:13:13 GMT-0500 (Central Daylight Time),471399.2000000477,007_m_m_h_a.png,O,m,972,7,1,1993.9000000357628,469405.3000000119,7157,VNB,B,5
5,test,1,1.0,2-Back,1,m,Thu May 15 2025 09:13:13 GMT-0500 (Central Daylight Time),473565.2000000477,020_y_f_n_a.png,O,m,1108,8,1,2128.100000023842,471437.10000002384,7157,VNB,B,6
6,test,1,0.0,2-Back,1,z,Thu May 15 2025 09:13:13 GMT-0500 (Central Daylight Time),475814.2000000477,005_o_f_h_a.png,O,z,1214,9,1,2218.400000035763,473595.8000000119,7157,VNB,B,7
6,test,1,0.0,2-Back,0,m,Thu May 15 2025 09:13:13 GMT-0500 (Central Daylight Time),478280.3000000119,004_o_m_d_a.png,O,z,1412,10,1,2435.0,475845.3000000119,7157,VNB,B,8
6,test,1,1.0,2-Back,0,m,Thu May 15 2025 09:13:13 GMT-0500 (Central Daylight Time),481179.40000003576,007_m_m_d_a.png,O,z,1851,11,1,2869.800000011921,478309.60000002384,7157,VNB,B,9
7,test,1,0.0,2-Back,1,m,Thu May 15 2025 09:13:13 GMT-0500 (Central Daylight Time),483744.7000000477,011_m_f_n_a.png,O,m,1527,12,1,2535.900000035763,481208.8000000119,7157,VNB,B,10
8,test,1,0.0,2-Back,1,m,Thu May 15 2025 09:13:13 GMT-0500 (Central Daylight Time),485576.90000003576,020_y_f_h_a.png,O,m,785,13,1,1814.4000000357628,483762.5,7157,VNB,B,11
9,test,1,0.0,2-Back,1,z,Thu May 15 2025 09:13:13 GMT-0500 (Central Daylight Time),487610.2000000477,007_m_m_n_a.png,O,z,999,14,1,2028.1000000238419,485582.10000002384,7157,VNB,B,12
10,test,1,0.0,2-Back,1,m,Thu May 15 2025 09:13:13 GMT-0500 (Central Daylight Time),489426.8000000119,016_y_m_d_a.png,O,m,792,15,1,1811.199999988079,487615.60000002384,7157,VNB,B,13
10,test,1,1.0,2-Back,0,m,Thu May 15 2025 09:13:13 GMT-0500 (Central Daylight Time),491758.3000000119,011_m_f_h_a.png,O,z,1279,16,1,2297.5,489460.8000000119,7157,VNB,B,14
10,test,1,0.0,2-Back,0,z,Thu May 15 2025 09:13:13 GMT-0500 (Central Daylight Time),493891.90000003576,005_o_f_d_a.png,O,m,1107,17,1,2128.699999988079,491763.2000000477,7157,VNB,B,15
11,test,1,0.0,2-Back,1,m,Thu May 15 2025 09:13:13 GMT-0500 (Central Daylight Time),495873.7000000477,004_o_m_n_a.png,O,m,941,18,1,1960.9000000357628,493912.8000000119,7157,VNB,B,16
0,test,2,0.0,2-Back,,,Thu May 15 2025 09:13:13 GMT-0500 (Central Daylight Time),495873.7000000477,007_m_m_h_a.png,O,space,1353,1,1,1960.9000000357628,493912.8000000119,7157,VNB,B,0
0,test,2,0.0,2-Back,,,Thu May 15 2025 09:13:13 GMT-0500 (Central Daylight Time),495873.7000000477,020_y_f_n_a.png,O,space,1353,2,1,1960.9000000357628,493912.8000000119,7157,VNB,B,0
1,test,2,1.0,2-Back,1,z,Thu May 15 2025 09:13:13 GMT-0500 (Central Daylight Time),504671.7000000477,005_o_f_h_a.png,O,z,1037,3,1,2065.7000000476837,502606.0,7157,VNB,B,1
2,test,2,0.0,2-Back,1,m,Thu May 15 2025 09:13:13 GMT-0500 (Central Daylight Time),507069.90000003576,004_o_m_d_a.png,O,m,1338,4,1,2366.400000035763,504703.5,7157,VNB,B,2
3,test,2,0.0,2-Back,1,m,Thu May 15 2025 09:13:13 GMT-0500 (Central Daylight Time),509069.5,011_m_f_d_a.png,O,m,980,5,1,1988.199999988079,507081.3000000119,7157,VNB,B,3
3,test,2,0.0,2-Back,0,m,Thu May 15 2025 09:13:13 GMT-0500 (Central Daylight Time),511168.60000002384,016_y_m_h_a.png,O,z,1052,6,1,2081.199999988079,509087.40000003576,7157,VNB,B,4
3,test,2,0.0,2-Back,0,m,Thu May 15 2025 09:13:13 GMT-0500 (Central Daylight Time),513402.2000000477,005_o_f_n_a.png,O,z,1201,7,1,2223.0,511179.2000000477,7157,VNB,B,5
3,test,2,1.0,2-Back,0,z,Thu May 15 2025 09:13:13 GMT-0500 (Central Daylight Time),515717.90000003576,004_o_m_h_a.png,O,m,1257,8,1,2282.300000011921,513435.60000002384,7157,VNB,B,6
4,test,2,0.0,2-Back,1,m,Thu May 15 2025 09:13:13 GMT-0500 (Central Daylight Time),517600.8000000119,020_y_f_d_a.png,O,m,845,9,1,1854.8999999761581,515745.90000003576,7157,VNB,B,7
5,test,2,0.0,2-Back,1,m,Thu May 15 2025 09:13:13 GMT-0500 (Central Daylight Time),519433.40000003576,016_y_m_d_a.png,O,m,769,10,1,1799.199999988079,517634.2000000477,7157,VNB,B,8
6,test,2,0.0,2-Back,1,m,Thu May 15 2025 09:13:13 GMT-0500 (Central Daylight Time),521215.5,007_m_m_n_a.png,O,m,720,11,1,1747.0999999642372,519468.40000003576,7157,VNB,B,9
6,test,2,0.0,2-Back,0,m,Thu May 15 2025 09:13:13 GMT-0500 (Central Daylight Time),522765.0,011_m_f_h_a.png,O,z,532,12,1,1541.2999999523163,521223.7000000477,7157,VNB,B,10
7,test,2,1.0,2-Back,1,z,Thu May 15 2025 09:13:13 GMT-0500 (Central Daylight Time),524631.8000000119,004_o_m_n_a.png,O,z,822,13,1,1847.699999988079,522784.10000002384,7157,VNB,B,11
8,test,2,0.0,2-Back,1,m,Thu May 15 2025 09:13:13 GMT-0500 (Central Daylight Time),526613.4000000358,005_o_f_d_a.png,O,m,945,14,1,1955.199999988079,524658.2000000477,7157,VNB,B,12
8,test,2,0.0,2-Back,0,m,Thu May 15 2025 09:13:13 GMT-0500 (Central Daylight Time),528463.7000000477,020_y_f_h_a.png,O,z,828,15,1,1843.800000011921,526619.9000000358,7157,VNB,B,13
9,test,2,0.0,2-Back,1,z,Thu May 15 2025 09:13:13 GMT-0500 (Central Daylight Time),530612.2000000477,007_m_m_d_a.png,O,z,1113,16,1,2121.600000023842,528490.6000000238,7157,VNB,B,14
10,test,2,0.0,2-Back,1,m,Thu May 15 2025 09:13:13 GMT-0500 (Central Daylight Time),533112.2000000477,016_y_m_n_a.png,O,m,1478,17,1,2495.400000035763,530616.8000000119,7157,VNB,B,15
11,test,2,1.0,2-Back,1,m,Thu May 15 2025 09:13:13 GMT-0500 (Central Daylight Time),535228.0,011_m_f_n_a.png,O,m,1074,18,1,2085.699999988079,533142.3000000119,7157,VNB,B,16
0,test,3,1.0,2-Back,,,Thu May 15 2025 09:13:13 GMT-0500 (Central Daylight Time),535228.0,004_o_m_n_a.png,O,space,1221,1,1,2085.699999988079,533142.3000000119,7157,VNB,B,0
0,test,3,1.0,2-Back,,,Thu May 15 2025 09:13:13 GMT-0500 (Central Daylight Time),535228.0,005_o_f_d_a.png,O,space,1221,2,1,2085.699999988079,533142.3000000119,7157,VNB,B,0
1,test,3,0.0,2-Back,1,m,Thu May 15 2025 09:13:13 GMT-0500 (Central Daylight Time),544207.7000000477,020_y_f_h_a.png,O,m,1328,3,1,2348.300000011921,541859.4000000358,7157,VNB,B,1
1,test,3,0.0,2-Back,0,z,Thu May 15 2025 09:13:13 GMT-0500 (Central Daylight Time),546640.2000000477,011_m_f_d_a.png,O,m,1409,4,1,2422.2000000476837,544218.0,7157,VNB,B,2
2,test,3,1.0,2-Back,1,m,Thu May 15 2025 09:13:13 GMT-0500 (Central Daylight Time),548323.4000000358,016_y_m_n_a.png,O,m,665,5,1,1668.1000000238419,546655.3000000119,7157,VNB,B,3
3,test,3,0.0,2-Back,1,m,Thu May 15 2025 09:13:13 GMT-0500 (Central Daylight Time),550240.0,004_o_m_h_a.png,O,m,895,6,1,1908.2999999523163,548331.7000000477,7157,VNB,B,4
4,test,3,0.0,2-Back,1,z,Thu May 15 2025 09:13:13 GMT-0500 (Central Daylight Time),552206.0,020_y_f_n_a.png,O,z,923,7,1,1939.2999999523163,550266.7000000477,7157,VNB,B,5
5,test,3,1.0,2-Back,1,m,Thu May 15 2025 09:13:13 GMT-0500 (Central Daylight Time),553921.3000000119,007_m_m_d_a.png,O,m,668,8,1,1685.5,552235.8000000119,7157,VNB,B,6
6,test,3,0.0,2-Back,1,m,Thu May 15 2025 09:13:13 GMT-0500 (Central Daylight Time),555705.0,016_y_m_d_a.png,O,m,761,9,1,1779.0,553926.0,7157,VNB,B,7
6,test,3,0.0,2-Back,0,m,Thu May 15 2025 09:13:13 GMT-0500 (Central Daylight Time),557454.1000000238,005_o_f_h_a.png,O,z,715,10,1,1722.1000000238419,555732.0,7157,VNB,B,8
7,test,3,1.0,2-Back,1,m,Thu May 15 2025 09:13:13 GMT-0500 (Central Daylight Time),559369.4000000358,011_m_f_n_a.png,O,m,849,11,1,1879.5,557489.9000000358,7157,VNB,B,9
8,test,3,1.0,2-Back,1,z,Thu May 15 2025 09:13:13 GMT-0500 (Central Daylight Time),561102.2000000477,007_m_m_h_a.png,O,z,704,12,1,1725.1000000238419,559377.1000000238,7157,VNB,B,10
9,test,3,0.0,2-Back,1,m,Thu May 15 2025 09:13:13 GMT-0500 (Central Daylight Time),563102.2000000477,020_y_f_d_a.png,O,m,979,13,1,1992.300000011921,561109.9000000358,7157,VNB,B,11
10,test,3,0.0,2-Back,1,m,Thu May 15 2025 09:13:13 GMT-0500 (Central Daylight Time),565768.3000000119,005_o_f_n_a.png,O,m,1612,14,1,2634.399999976158,563133.9000000358,7157,VNB,B,12
11,test,3,0.0,2-Back,1,z,Thu May 15 2025 09:13:13 GMT-0500 (Central Daylight Time),567733.4000000358,004_o_m_d_a.png,O,z,905,15,1,1927.6000000238419,565805.8000000119,7157,VNB,B,13
12,test,3,1.0,2-Back,1,m,Thu May 15 2025 09:13:13 GMT-0500 (Central Daylight Time),569583.7000000477,011_m_f_h_a.png,O,m,828,16,1,1844.800000011921,567738.9000000358,7157,VNB,B,14
12,test,3,0.0,2-Back,0,m,Thu May 15 2025 09:13:13 GMT-0500 (Central Daylight Time),572653.5,007_m_m_n_a.png,O,None,2016,17,1,3038.5,569615.0,7157,VNB,B,15
13,test,3,0.0,2-Back,1,z,Thu May 15 2025 09:13:13 GMT-0500 (Central Daylight Time),573932.4000000358,016_y_m_h_a.png,O,z,217,18,1,1251.4000000357628,572681.0,7157,VNB,B,16
0,test,4,0.0,2-Back,,,Thu May 15 2025 09:13:13 GMT-0500 (Central Daylight Time),573932.4000000358,011_m_f_n_a.png,O,space,1020,1,1,1251.4000000357628,572681.0,7157,VNB,B,0
0,test,4,0.0,2-Back,,,Thu May 15 2025 09:13:13 GMT-0500 (Central Daylight Time),573932.4000000358,004_o_m_n_a.png,O,space,1020,2,1,1251.4000000357628,572681.0,7157,VNB,B,0
1,test,4,1.0,2-Back,1,m,Thu May 15 2025 09:13:13 GMT-0500 (Central Daylight Time),582179.5,016_y_m_h_a.png,O,m,816,3,1,1840.199999988079,580339.3000000119,7157,VNB,B,1
2,test,4,1.0,2-Back,1,m,Thu May 15 2025 09:13:13 GMT-0500 (Central Daylight Time),584144.9000000358,005_o_f_d_a.png,O,m,925,4,1,1936.1000000238419,582208.8000000119,7157,VNB,B,2
3,test,4,0.0,2-Back,1,z,Thu May 15 2025 09:13:13 GMT-0500 (Central Daylight Time),585860.9000000358,004_o_m_h_a.png,O,z,669,5,1,1698.9000000357628,584162.0,7157,VNB,B,3
4,test,4,0.0,2-Back,1,m,Thu May 15 2025 09:13:13 GMT-0500 (Central Daylight Time),588243.2000000477,007_m_m_n_a.png,O,m,1349,6,1,2377.5,585865.7000000477,7157,VNB,B,4
5,test,4,0.0,2-Back,1,m,Thu May 15 2025 09:13:13 GMT-0500 (Central Daylight Time),589926.1000000238,011_m_f_d_a.png,O,m,662,7,1,1678.0,588248.1000000238,7157,VNB,B,5
6,test,4,0.0,2-Back,1,z,Thu May 15 2025 09:13:13 GMT-0500 (Central Daylight Time),591493.3000000119,020_y_f_n_a.png,O,z,539,8,1,1562.300000011921,589931.0,7157,VNB,B,6
7,test,4,1.0,2-Back,1,m,Thu May 15 2025 09:13:13 GMT-0500 (Central Daylight Time),593442.2000000477,005_o_f_h_a.png,O,m,902,9,1,1921.6000000238419,591520.6000000238,7157,VNB,B,7
8,test,4,0.0,2-Back,1,m,Thu May 15 2025 09:13:13 GMT-0500 (Central Daylight Time),595207.8000000119,007_m_m_h_a.png,O,m,702,10,1,1735.300000011921,593472.5,7157,VNB,B,8
9,test,4,0.0,2-Back,1,m,Thu May 15 2025 09:13:13 GMT-0500 (Central Daylight Time),597058.2000000477,020_y_f_d_a.png,O,m,818,11,1,1843.2000000476837,595215.0,7157,VNB,B,9
10,test,4,0.0,2-Back,1,m,Thu May 15 2025 09:13:13 GMT-0500 (Central Daylight Time),598807.3000000119,016_y_m_n_a.png,O,m,698,12,1,1718.300000011921,597089.0,7157,VNB,B,10
10,test,4,0.0,2-Back,0,z,Thu May 15 2025 09:13:13 GMT-0500 (Central Daylight Time),601072.8000000119,004_o_m_d_a.png,O,m,1193,13,1,2209.599999964237,598863.2000000477,7157,VNB,B,11
11,test,4,1.0,2-Back,1,m,Thu May 15 2025 09:13:13 GMT-0500 (Central Daylight Time),603039.1000000238,011_m_f_h_a.png,O,m,930,14,1,1950.5,601088.6000000238,7157,VNB,B,12
12,test,4,1.0,2-Back,1,m,Thu May 15 2025 09:13:13 GMT-0500 (Central Daylight Time),604854.6000000238,020_y_f_h_a.png,O,m,769,15,1,1794.0,603060.6000000238,7157,VNB,B,13
13,test,4,0.0,2-Back,1,m,Thu May 15 2025 09:13:13 GMT-0500 (Central Daylight Time),606971.7000000477,005_o_f_n_a.png,O,m,1092,16,1,2111.5,604860.2000000477,7157,VNB,B,14
14,test,4,0.0,2-Back,1,m,Thu May 15 2025 09:13:13 GMT-0500 (Central Daylight Time),608969.9000000358,016_y_m_d_a.png,O,m,932,17,1,1963.6000000238419,607006.3000000119,7157,VNB,B,15
15,test,4,1.0,2-Back,1,m,Thu May 15 2025 09:13:13 GMT-0500 (Central Daylight Time),611369.8000000119,007_m_m_d_a.png,O,m,1373,18,1,2394.099999964237,608975.7000000477,7157,VNB,B,16
0,test,5,1.0,2-Back,,,Thu May 15 2025 09:13:13 GMT-0500 (Central Daylight Time),611369.8000000119,020_y_f_d_a.png,O,space,1079,1,1,2394.099999964237,608975.7000000477,7157,VNB,B,0
0,test,5,1.0,2-Back,,,Thu May 15 2025 09:13:13 GMT-0500 (Central Daylight Time),611369.8000000119,005_o_f_h_a.png,O,space,1079,2,1,2394.099999964237,608975.7000000477,7157,VNB,B,0
1,test,5,1.0,2-Back,1,z,Thu May 15 2025 09:13:13 GMT-0500 (Central Daylight Time),620016.3000000119,004_o_m_d_a.png,O,z,1142,3,1,2156.399999976158,617859.9000000358,7157,VNB,B,1
2,test,5,1.0,2-Back,1,m,Thu May 15 2025 09:13:13 GMT-0500 (Central Daylight Time),621798.9000000358,011_m_f_n_a.png,O,m,760,4,1,1776.800000011921,620022.1000000238,7157,VNB,B,2
3,test,5,0.0,2-Back,1,m,Thu May 15 2025 09:13:13 GMT-0500 (Central Daylight Time),623648.8000000119,007_m_m_h_a.png,O,m,828,5,1,1837.5999999642372,621811.2000000477,7157,VNB,B,3
4,test,5,0.0,2-Back,1,z,Thu May 15 2025 09:13:13 GMT-0500 (Central Daylight Time),625381.3000000119,020_y_f_n_a.png,O,z,695,6,1,1702.0,623679.3000000119,7157,VNB,B,4
5,test,5,0.0,2-Back,1,m,Thu May 15 2025 09:13:13 GMT-0500 (Central Daylight Time),627480.4000000358,005_o_f_d_a.png,O,m,1067,7,1,2085.199999988079,625395.2000000477,7157,VNB,B,5
6,test,5,0.0,2-Back,1,m,Thu May 15 2025 09:13:13 GMT-0500 (Central Daylight Time),629981.4000000358,004_o_m_h_a.png,O,m,1483,8,1,2495.5,627485.9000000358,7157,VNB,B,6
7,test,5,1.0,2-Back,1,z,Thu May 15 2025 09:13:13 GMT-0500 (Central Daylight Time),631680.1000000238,011_m_f_d_a.png,O,z,656,9,1,1669.800000011921,630010.3000000119,7157,VNB,B,7
8,test,5,0.0,2-Back,1,m,Thu May 15 2025 09:13:13 GMT-0500 (Central Daylight Time),633379.4000000358,016_y_m_n_a.png,O,m,641,10,1,1670.0,631709.4000000358,7157,VNB,B,8
9,test,5,0.0,2-Back,1,m,Thu May 15 2025 09:13:13 GMT-0500 (Central Daylight Time),635578.6000000238,007_m_m_n_a.png,O,m,1150,11,1,2172.0,633406.6000000238,7157,VNB,B,9
10,test,5,0.0,2-Back,1,m,Thu May 15 2025 09:13:13 GMT-0500 (Central Daylight Time),637511.5,020_y_f_h_a.png,O,m,889,12,1,1911.5,635600.0,7157,VNB,B,10
11,test,5,0.0,2-Back,1,m,Thu May 15 2025 09:13:13 GMT-0500 (Central Daylight Time),639393.1000000238,016_y_m_d_a.png,O,m,816,13,1,1856.6000000238419,637536.5,7157,VNB,B,11
12,test,5,1.0,2-Back,1,z,Thu May 15 2025 09:13:13 GMT-0500 (Central Daylight Time),641576.7000000477,011_m_f_h_a.png,O,z,1153,14,1,2177.2000000476837,639399.5,7157,VNB,B,12
13,test,5,0.0,2-Back,1,m,Thu May 15 2025 09:13:13 GMT-0500 (Central Daylight Time),644092.5,004_o_m_n_a.png,O,m,1465,15,1,2487.7999999523163,641604.7000000477,7157,VNB,B,13
14,test,5,0.0,2-Back,1,m,Thu May 15 2025 09:13:13 GMT-0500 (Central Daylight Time),645808.5,007_m_m_d_a.png,O,m,669,16,1,1687.699999988079,644120.8000000119,7157,VNB,B,14
15,test,5,0.0,2-Back,1,z,Thu May 15 2025 09:13:13 GMT-0500 (Central Daylight Time),647841.4000000358,005_o_f_n_a.png,O,z,985,17,1,2005.699999988079,645835.7000000477,7157,VNB,B,15
16,test,5,1.0,2-Back,1,m,Thu May 15 2025 09:13:13 GMT-0500 (Central Daylight Time),650039.6000000238,016_y_m_h_a.png,O,m,1153,18,1,2173.899999976158,647865.7000000477,7157,VNB,B,16
