acc_sum,block,block_c,change,condition,correct,correct_response,datetime,endtime,face,project,response,response_time,row_sel,session_number,start_end,starttime,subject_id,task,task_vers,trial
0,prac,1,,1-Back,,,Thu Nov 13 2025 12:31:52 GMT-0600 (Central Standard Time),,005_o_f_d_a.png,O,space,22806,1,1,,,7229,VNB,B,0
1,prac,1,0.0,1-Back,1.0,m,Thu Nov 13 2025 12:31:52 GMT-0600 (Central Standard Time),172721.60000002384,020_y_f_n_a.png,O,m,1846,2,1,2690.6999999284744,170030.90000009537,7229,VNB,B,1
2,prac,1,0.0,1-Back,1.0,m,Thu Nov 13 2025 12:31:52 GMT-0600 (Central Standard Time),174890.60000002384,007_m_m_h_a.png,O,m,1297,3,1,2163.7999999523163,172726.80000007153,7229,VNB,B,2
3,prac,1,0.0,1-Back,1.0,m,Thu Nov 13 2025 12:31:52 GMT-0600 (Central Standard Time),176804.80000007153,016_y_m_d_a.png,O,m,1068,4,1,1908.0,174896.80000007153,7229,VNB,B,3
4,prac,1,0.0,1-Back,1.0,m,Thu Nov 13 2025 12:31:52 GMT-0600 (Central Standard Time),178869.60000002384,005_o_f_n_a.png,O,m,1204,5,1,2059.600000023842,176810.0,7229,VNB,B,4
5,prac,1,1.0,1-Back,1.0,z,Thu Nov 13 2025 12:31:52 GMT-0600 (Central Standard Time),180854.0,016_y_m_n_a.png,O,z,1108,6,1,1978.0,178876.0,7229,VNB,B,5
6,prac,1,0.0,1-Back,1.0,m,Thu Nov 13 2025 12:31:52 GMT-0600 (Central Standard Time),182852.90000009537,004_o_m_h_a.png,O,m,1147,7,1,1991.0,180861.90000009537,7229,VNB,B,6
7,prac,1,0.0,1-Back,1.0,m,Thu Nov 13 2025 12:31:52 GMT-0600 (Central Standard Time),184601.10000002384,011_m_f_d_a.png,O,m,891,8,1,1743.1000000238419,182858.0,7229,VNB,B,7
8,prac,1,1.0,1-Back,1.0,z,Thu Nov 13 2025 12:31:52 GMT-0600 (Central Standard Time),186735.80000007153,020_y_f_d_a.png,O,z,1304,9,1,2129.7000000476837,184606.10000002384,7229,VNB,B,8
9,prac,1,0.0,1-Back,1.0,m,Thu Nov 13 2025 12:31:52 GMT-0600 (Central Standard Time),188816.70000004768,007_m_m_n_a.png,O,m,1216,10,1,2074.899999976158,186741.80000007153,7229,VNB,B,9
10,prac,1,0.0,1-Back,1.0,m,Thu Nov 13 2025 12:31:52 GMT-0600 (Central Standard Time),190650.0,005_o_f_h_a.png,O,m,974,11,1,1828.1999999284744,188821.80000007153,7229,VNB,B,10
11,prac,1,0.0,1-Back,1.0,m,Thu Nov 13 2025 12:31:52 GMT-0600 (Central Standard Time),192415.0,016_y_m_d_a.png,O,m,903,12,1,1759.1999999284744,190655.80000007153,7229,VNB,B,11
0,test,1,0.0,1-Back,,,Thu Nov 13 2025 12:31:52 GMT-0600 (Central Standard Time),192415.0,020_y_f_d_a.png,O,space,20399,1,1,1759.1999999284744,190655.80000007153,7229,VNB,B,0
1,test,1,0.0,1-Back,1.0,m,Thu Nov 13 2025 12:31:52 GMT-0600 (Central Standard Time),227837.30000007153,011_m_f_n_a.png,O,m,747,2,1,1762.0,226075.30000007153,7229,VNB,B,1
2,test,1,0.0,1-Back,1.0,m,Thu Nov 13 2025 12:31:52 GMT-0600 (Central Standard Time),229703.10000002384,004_o_m_h_a.png,O,m,837,3,1,1861.6999999284744,227841.40000009537,7229,VNB,B,2
3,test,1,1.0,1-Back,1.0,z,Thu Nov 13 2025 12:31:52 GMT-0600 (Central Standard Time),231453.60000002384,007_m_m_h_a.png,O,z,731,4,1,1747.3999999761581,229706.20000004768,7229,VNB,B,3
4,test,1,0.0,1-Back,1.0,m,Thu Nov 13 2025 12:31:52 GMT-0600 (Central Standard Time),233169.0,005_o_f_n_a.png,O,m,687,5,1,1712.7999999523163,231456.20000004768,7229,VNB,B,4
5,test,1,0.0,1-Back,1.0,m,Thu Nov 13 2025 12:31:52 GMT-0600 (Central Standard Time),235334.60000002384,016_y_m_d_a.png,O,m,1147,6,1,2162.600000023842,233172.0,7229,VNB,B,5
6,test,1,1.0,1-Back,1.0,z,Thu Nov 13 2025 12:31:52 GMT-0600 (Central Standard Time),237417.30000007153,011_m_f_d_a.png,O,z,1061,7,1,2080.100000023842,235337.20000004768,7229,VNB,B,6
7,test,1,0.0,1-Back,1.0,m,Thu Nov 13 2025 12:31:52 GMT-0600 (Central Standard Time),239416.80000007153,020_y_f_h_a.png,O,m,969,8,1,1996.3000000715256,237420.5,7229,VNB,B,7
8,test,1,0.0,1-Back,1.0,m,Thu Nov 13 2025 12:31:52 GMT-0600 (Central Standard Time),241217.0,004_o_m_n_a.png,O,m,779,9,1,1796.0999999046326,239420.90000009537,7229,VNB,B,8
9,test,1,0.0,1-Back,1.0,m,Thu Nov 13 2025 12:31:52 GMT-0600 (Central Standard Time),243048.80000007153,016_y_m_h_a.png,O,m,812,10,1,1828.2000000476837,241220.60000002384,7229,VNB,B,9
10,test,1,0.0,1-Back,1.0,m,Thu Nov 13 2025 12:31:52 GMT-0600 (Central Standard Time),244915.10000002384,004_o_m_d_a.png,O,m,834,11,1,1863.2999999523163,243051.80000007153,7229,VNB,B,10
11,test,1,1.0,1-Back,1.0,z,Thu Nov 13 2025 12:31:52 GMT-0600 (Central Standard Time),246948.80000007153,005_o_f_d_a.png,O,z,1009,12,1,2030.2000000476837,244918.60000002384,7229,VNB,B,11
12,test,1,0.0,1-Back,1.0,m,Thu Nov 13 2025 12:31:52 GMT-0600 (Central Standard Time),248931.60000002384,007_m_m_n_a.png,O,m,959,13,1,1979.8999999761581,246951.70000004768,7229,VNB,B,12
13,test,1,1.0,1-Back,1.0,z,Thu Nov 13 2025 12:31:52 GMT-0600 (Central Standard Time),251063.0,020_y_f_n_a.png,O,z,1112,14,1,2127.6999999284744,248935.30000007153,7229,VNB,B,13
14,test,1,0.0,1-Back,1.0,m,Thu Nov 13 2025 12:31:52 GMT-0600 (Central Standard Time),253214.60000002384,011_m_f_h_a.png,O,m,1123,15,1,2148.5,251066.10000002384,7229,VNB,B,14
15,test,1,0.0,1-Back,1.0,m,Thu Nov 13 2025 12:31:52 GMT-0600 (Central Standard Time),255045.60000002384,007_m_m_d_a.png,O,m,813,16,1,1828.1000000238419,253217.5,7229,VNB,B,15
16,test,1,0.0,1-Back,1.0,m,Thu Nov 13 2025 12:31:52 GMT-0600 (Central Standard Time),257494.70000004768,016_y_m_n_a.png,O,m,1421,17,1,2446.2999999523163,255048.40000009537,7229,VNB,B,16
17,test,1,0.0,1-Back,1.0,m,Thu Nov 13 2025 12:31:52 GMT-0600 (Central Standard Time),259295.0,005_o_f_h_a.png,O,m,773,18,1,1797.0999999046326,257497.90000009537,7229,VNB,B,17
0,test,2,0.0,1-Back,,,Thu Nov 13 2025 12:31:52 GMT-0600 (Central Standard Time),259295.0,016_y_m_n_a.png,O,space,3765,1,1,1797.0999999046326,257497.90000009537,7229,VNB,B,0
1,test,2,0.0,1-Back,1.0,m,Thu Nov 13 2025 12:31:52 GMT-0600 (Central Standard Time),267075.8000000715,020_y_f_h_a.png,O,m,951,2,1,1980.1000000238419,265095.7000000477,7229,VNB,B,1
2,test,2,1.0,1-Back,1.0,m,Thu Nov 13 2025 12:31:52 GMT-0600 (Central Standard Time),269009.60000002384,004_o_m_n_a.png,O,m,911,3,1,1930.7999999523163,267078.8000000715,7229,VNB,B,2
3,test,2,0.0,1-Back,1.0,m,Thu Nov 13 2025 12:31:52 GMT-0600 (Central Standard Time),271190.10000002384,011_m_f_d_a.png,O,m,1156,4,1,2177.600000023842,269012.5,7229,VNB,B,3
4,test,2,0.0,1-Back,1.0,z,Thu Nov 13 2025 12:31:52 GMT-0600 (Central Standard Time),273040.3000000715,007_m_m_d_a.png,O,z,829,5,1,1846.8000000715256,271193.5,7229,VNB,B,4
5,test,2,0.0,1-Back,1.0,m,Thu Nov 13 2025 12:31:52 GMT-0600 (Central Standard Time),274839.8000000715,016_y_m_h_a.png,O,m,770,6,1,1795.3999999761581,273044.40000009537,7229,VNB,B,5
6,test,2,1.0,1-Back,1.0,z,Thu Nov 13 2025 12:31:52 GMT-0600 (Central Standard Time),276572.10000002384,005_o_f_h_a.png,O,z,699,7,1,1729.5,274842.60000002384,7229,VNB,B,6
7,test,2,0.0,1-Back,1.0,m,Thu Nov 13 2025 12:31:52 GMT-0600 (Central Standard Time),278454.10000002384,011_m_f_n_a.png,O,m,864,8,1,1879.0,276575.10000002384,7229,VNB,B,7
8,test,2,0.0,1-Back,1.0,m,Thu Nov 13 2025 12:31:52 GMT-0600 (Central Standard Time),280320.60000002384,020_y_f_d_a.png,O,m,837,9,1,1863.5,278457.10000002384,7229,VNB,B,8
9,test,2,0.0,1-Back,1.0,m,Thu Nov 13 2025 12:31:52 GMT-0600 (Central Standard Time),282619.8000000715,007_m_m_n_a.png,O,m,1267,10,1,2296.5,280323.3000000715,7229,VNB,B,9
10,test,2,1.0,1-Back,1.0,m,Thu Nov 13 2025 12:31:52 GMT-0600 (Central Standard Time),284486.8000000715,011_m_f_h_a.png,O,m,839,11,1,1864.2000000476837,282622.60000002384,7229,VNB,B,10
11,test,2,0.0,1-Back,1.0,z,Thu Nov 13 2025 12:31:52 GMT-0600 (Central Standard Time),286086.10000002384,004_o_m_h_a.png,O,z,582,12,1,1595.6000000238419,284490.5,7229,VNB,B,11
12,test,2,0.0,1-Back,1.0,m,Thu Nov 13 2025 12:31:52 GMT-0600 (Central Standard Time),287818.7000000477,016_y_m_d_a.png,O,m,702,13,1,1729.7000000476837,286089.0,7229,VNB,B,12
13,test,2,0.0,1-Back,1.0,m,Thu Nov 13 2025 12:31:52 GMT-0600 (Central Standard Time),289601.90000009537,005_o_f_n_a.png,O,m,753,14,1,1778.6000000238419,287823.3000000715,7229,VNB,B,13
14,test,2,0.0,1-Back,1.0,z,Thu Nov 13 2025 12:31:52 GMT-0600 (Central Standard Time),291550.3000000715,020_y_f_n_a.png,O,z,922,15,1,1944.8000000715256,289605.5,7229,VNB,B,14
15,test,2,1.0,1-Back,1.0,m,Thu Nov 13 2025 12:31:52 GMT-0600 (Central Standard Time),293316.40000009537,007_m_m_h_a.png,O,m,749,16,1,1763.2000000476837,291553.2000000477,7229,VNB,B,15
16,test,2,0.0,1-Back,1.0,m,Thu Nov 13 2025 12:31:52 GMT-0600 (Central Standard Time),294983.2000000477,005_o_f_d_a.png,O,m,638,17,1,1663.0,293320.2000000477,7229,VNB,B,16
17,test,2,1.0,1-Back,1.0,z,Thu Nov 13 2025 12:31:52 GMT-0600 (Central Standard Time),296815.40000009537,004_o_m_d_a.png,O,z,812,18,1,1829.1000000238419,294986.3000000715,7229,VNB,B,17
0,test,3,1.0,1-Back,,,Thu Nov 13 2025 12:31:52 GMT-0600 (Central Standard Time),296815.40000009537,005_o_f_h_a.png,O,space,2556,1,1,1829.1000000238419,294986.3000000715,7229,VNB,B,0
1,test,3,0.0,1-Back,1.0,m,Thu Nov 13 2025 12:31:52 GMT-0600 (Central Standard Time),303263.7000000477,011_m_f_d_a.png,O,m,771,2,1,1797.2000000476837,301466.5,7229,VNB,B,1
2,test,3,1.0,1-Back,1.0,m,Thu Nov 13 2025 12:31:52 GMT-0600 (Central Standard Time),305648.10000002384,007_m_m_n_a.png,O,m,1364,3,1,2380.600000023842,303267.5,7229,VNB,B,2
3,test,3,0.0,1-Back,1.0,z,Thu Nov 13 2025 12:31:52 GMT-0600 (Central Standard Time),307478.7000000477,005_o_f_n_a.png,O,z,805,4,1,1827.2999999523163,305651.40000009537,7229,VNB,B,3
4,test,3,1.0,1-Back,1.0,m,Thu Nov 13 2025 12:31:52 GMT-0600 (Central Standard Time),309328.40000009537,004_o_m_d_a.png,O,m,820,5,1,1846.5,307481.90000009537,7229,VNB,B,4
5,test,3,0.0,1-Back,1.0,m,Thu Nov 13 2025 12:31:52 GMT-0600 (Central Standard Time),311110.90000009537,020_y_f_h_a.png,O,m,763,6,1,1779.7000000476837,309331.2000000477,7229,VNB,B,5
6,test,3,0.0,1-Back,1.0,z,Thu Nov 13 2025 12:31:52 GMT-0600 (Central Standard Time),312943.60000002384,016_y_m_h_a.png,O,z,803,7,1,1829.7999999523163,311113.8000000715,7229,VNB,B,6
7,test,3,0.0,1-Back,1.0,m,Thu Nov 13 2025 12:31:52 GMT-0600 (Central Standard Time),314626.5,011_m_f_n_a.png,O,m,660,8,1,1679.6999999284744,312946.8000000715,7229,VNB,B,7
8,test,3,0.0,1-Back,1.0,m,Thu Nov 13 2025 12:31:52 GMT-0600 (Central Standard Time),316375.7000000477,020_y_f_d_a.png,O,m,721,9,1,1746.3999999761581,314629.3000000715,7229,VNB,B,8
9,test,3,1.0,1-Back,1.0,m,Thu Nov 13 2025 12:31:52 GMT-0600 (Central Standard Time),318158.60000002384,004_o_m_n_a.png,O,m,754,10,1,1780.1000000238419,316378.5,7229,VNB,B,9
10,test,3,0.0,1-Back,1.0,m,Thu Nov 13 2025 12:31:52 GMT-0600 (Central Standard Time),320091.10000002384,007_m_m_h_a.png,O,m,909,11,1,1928.7999999523163,318162.3000000715,7229,VNB,B,10
11,test,3,0.0,1-Back,1.0,z,Thu Nov 13 2025 12:31:52 GMT-0600 (Central Standard Time),321624.3000000715,011_m_f_h_a.png,O,z,512,12,1,1530.3999999761581,320093.90000009537,7229,VNB,B,11
12,test,3,1.0,1-Back,1.0,m,Thu Nov 13 2025 12:31:52 GMT-0600 (Central Standard Time),323273.60000002384,005_o_f_d_a.png,O,m,619,13,1,1646.0,321627.60000002384,7229,VNB,B,12
13,test,3,0.0,1-Back,1.0,z,Thu Nov 13 2025 12:31:52 GMT-0600 (Central Standard Time),325340.10000002384,007_m_m_d_a.png,O,z,1049,14,1,2063.1999999284744,323276.90000009537,7229,VNB,B,13
14,test,3,0.0,1-Back,1.0,m,Thu Nov 13 2025 12:31:52 GMT-0600 (Central Standard Time),327038.8000000715,016_y_m_n_a.png,O,m,671,15,1,1695.8000000715256,325343.0,7229,VNB,B,14
15,test,3,1.0,1-Back,1.0,m,Thu Nov 13 2025 12:31:52 GMT-0600 (Central Standard Time),328655.0,004_o_m_h_a.png,O,m,588,16,1,1612.0999999046326,327042.90000009537,7229,VNB,B,15
16,test,3,0.0,1-Back,1.0,m,Thu Nov 13 2025 12:31:52 GMT-0600 (Central Standard Time),330321.60000002384,016_y_m_d_a.png,O,m,636,17,1,1663.0,328658.60000002384,7229,VNB,B,16
17,test,3,1.0,1-Back,1.0,m,Thu Nov 13 2025 12:31:52 GMT-0600 (Central Standard Time),331987.90000009537,020_y_f_n_a.png,O,m,642,18,1,1660.4000000953674,330327.5,7229,VNB,B,17
0,test,4,1.0,1-Back,,,Thu Nov 13 2025 12:31:52 GMT-0600 (Central Standard Time),331987.90000009537,007_m_m_d_a.png,O,space,2217,1,1,1660.4000000953674,330327.5,7229,VNB,B,0
1,test,4,0.0,1-Back,1.0,z,Thu Nov 13 2025 12:31:52 GMT-0600 (Central Standard Time),338235.40000009537,004_o_m_d_a.png,O,z,975,2,1,1997.0,336238.40000009537,7229,VNB,B,1
2,test,4,0.0,1-Back,1.0,m,Thu Nov 13 2025 12:31:52 GMT-0600 (Central Standard Time),339984.7000000477,016_y_m_h_a.png,O,m,728,3,1,1745.7000000476837,338239.0,7229,VNB,B,2
3,test,4,0.0,1-Back,1.0,m,Thu Nov 13 2025 12:31:52 GMT-0600 (Central Standard Time),341735.5,011_m_f_n_a.png,O,m,731,4,1,1748.0,339987.5,7229,VNB,B,3
4,test,4,1.0,1-Back,1.0,m,Thu Nov 13 2025 12:31:52 GMT-0600 (Central Standard Time),343617.10000002384,005_o_f_h_a.png,O,m,853,5,1,1877.2999999523163,341739.8000000715,7229,VNB,B,4
5,test,4,0.0,1-Back,1.0,m,Thu Nov 13 2025 12:31:52 GMT-0600 (Central Standard Time),345316.7000000477,007_m_m_n_a.png,O,m,683,6,1,1695.2999999523163,343621.40000009537,7229,VNB,B,5
6,test,4,0.0,1-Back,1.0,m,Thu Nov 13 2025 12:31:52 GMT-0600 (Central Standard Time),347083.40000009537,016_y_m_d_a.png,O,m,735,7,1,1763.9000000953674,345319.5,7229,VNB,B,6
7,test,4,1.0,1-Back,1.0,z,Thu Nov 13 2025 12:31:52 GMT-0600 (Central Standard Time),348716.40000009537,020_y_f_d_a.png,O,z,608,8,1,1630.0,347086.40000009537,7229,VNB,B,7
8,test,4,0.0,1-Back,1.0,m,Thu Nov 13 2025 12:31:52 GMT-0600 (Central Standard Time),350431.5,011_m_f_h_a.png,O,m,696,9,1,1711.8999999761581,348719.60000002384,7229,VNB,B,8
9,test,4,0.0,1-Back,1.0,z,Thu Nov 13 2025 12:31:52 GMT-0600 (Central Standard Time),352347.8000000715,004_o_m_h_a.png,O,z,892,10,1,1913.3000000715256,350434.5,7229,VNB,B,9
10,test,4,1.0,1-Back,1.0,m,Thu Nov 13 2025 12:31:52 GMT-0600 (Central Standard Time),354033.5,005_o_f_n_a.png,O,m,662,11,1,1681.6999999284744,352351.8000000715,7229,VNB,B,10
11,test,4,0.0,1-Back,1.0,m,Thu Nov 13 2025 12:31:52 GMT-0600 (Central Standard Time),356096.2000000477,011_m_f_d_a.png,O,m,1037,12,1,2057.5,354038.7000000477,7229,VNB,B,11
12,test,4,0.0,1-Back,1.0,m,Thu Nov 13 2025 12:31:52 GMT-0600 (Central Standard Time),358228.90000009537,020_y_f_n_a.png,O,m,1115,13,1,2130.2000000476837,356098.7000000477,7229,VNB,B,12
13,test,4,0.0,1-Back,1.0,m,Thu Nov 13 2025 12:31:52 GMT-0600 (Central Standard Time),360196.10000002384,005_o_f_d_a.png,O,m,942,14,1,1964.3999999761581,358231.7000000477,7229,VNB,B,13
14,test,4,0.0,1-Back,1.0,m,Thu Nov 13 2025 12:31:52 GMT-0600 (Central Standard Time),362095.2000000477,020_y_f_h_a.png,O,m,872,15,1,1896.0,360199.2000000477,7229,VNB,B,14
15,test,4,1.0,1-Back,1.0,z,Thu Nov 13 2025 12:31:52 GMT-0600 (Central Standard Time),363893.60000002384,007_m_m_h_a.png,O,z,773,16,1,1795.6999999284744,362097.90000009537,7229,VNB,B,15
16,test,4,0.0,1-Back,1.0,m,Thu Nov 13 2025 12:31:52 GMT-0600 (Central Standard Time),365843.8000000715,004_o_m_n_a.png,O,m,917,17,1,1945.5,363898.3000000715,7229,VNB,B,16
17,test,4,1.0,1-Back,1.0,z,Thu Nov 13 2025 12:31:52 GMT-0600 (Central Standard Time),367926.0,016_y_m_n_a.png,O,z,1064,18,1,2079.5,365846.5,7229,VNB,B,17
0,test,5,1.0,1-Back,,,Thu Nov 13 2025 12:31:52 GMT-0600 (Central Standard Time),367926.0,004_o_m_n_a.png,O,space,2814,1,1,2079.5,365846.5,7229,VNB,B,0
1,test,5,1.0,1-Back,1.0,m,Thu Nov 13 2025 12:31:52 GMT-0600 (Central Standard Time),374757.40000009537,005_o_f_h_a.png,O,m,981,2,1,1996.3000000715256,372761.10000002384,7229,VNB,B,1
2,test,5,0.0,1-Back,1.0,m,Thu Nov 13 2025 12:31:52 GMT-0600 (Central Standard Time),376940.10000002384,016_y_m_d_a.png,O,m,1158,3,1,2177.1999999284744,374762.90000009537,7229,VNB,B,2
3,test,5,0.0,1-Back,1.0,z,Thu Nov 13 2025 12:31:52 GMT-0600 (Central Standard Time),378672.90000009537,004_o_m_d_a.png,O,z,711,4,1,1729.3000000715256,376943.60000002384,7229,VNB,B,3
4,test,5,0.0,1-Back,1.0,m,Thu Nov 13 2025 12:31:52 GMT-0600 (Central Standard Time),380306.10000002384,011_m_f_h_a.png,O,m,610,5,1,1630.1000000238419,378676.0,7229,VNB,B,4
5,test,5,0.0,1-Back,1.0,m,Thu Nov 13 2025 12:31:52 GMT-0600 (Central Standard Time),382422.0,020_y_f_n_a.png,O,m,1097,6,1,2113.1999999284744,380308.8000000715,7229,VNB,B,5
6,test,5,1.0,1-Back,1.0,z,Thu Nov 13 2025 12:31:52 GMT-0600 (Central Standard Time),384488.5,005_o_f_n_a.png,O,z,1037,7,1,2062.5999999046326,382425.90000009537,7229,VNB,B,6
7,test,5,0.0,1-Back,1.0,m,Thu Nov 13 2025 12:31:52 GMT-0600 (Central Standard Time),386403.60000002384,011_m_f_d_a.png,O,m,883,8,1,1911.8999999761581,384491.7000000477,7229,VNB,B,7
8,test,5,0.0,1-Back,1.0,m,Thu Nov 13 2025 12:31:52 GMT-0600 (Central Standard Time),388070.0,016_y_m_h_a.png,O,m,640,9,1,1662.7999999523163,386407.2000000477,7229,VNB,B,8
9,test,5,0.0,1-Back,1.0,m,Thu Nov 13 2025 12:31:52 GMT-0600 (Central Standard Time),389819.2000000477,020_y_f_d_a.png,O,m,718,10,1,1746.3999999761581,388072.8000000715,7229,VNB,B,9
10,test,5,0.0,1-Back,1.0,m,Thu Nov 13 2025 12:31:52 GMT-0600 (Central Standard Time),391503.40000009537,007_m_m_n_a.png,O,m,656,11,1,1681.3000000715256,389822.10000002384,7229,VNB,B,10
11,test,5,1.0,1-Back,1.0,z,Thu Nov 13 2025 12:31:52 GMT-0600 (Central Standard Time),393552.5,011_m_f_n_a.png,O,z,1021,12,1,2045.6999999284744,391506.8000000715,7229,VNB,B,11
12,test,5,0.0,1-Back,1.0,m,Thu Nov 13 2025 12:31:52 GMT-0600 (Central Standard Time),395301.7000000477,004_o_m_h_a.png,O,m,723,13,1,1746.5,393555.2000000477,7229,VNB,B,12
13,test,5,0.0,1-Back,1.0,z,Thu Nov 13 2025 12:31:52 GMT-0600 (Central Standard Time),397100.7000000477,007_m_m_h_a.png,O,z,775,14,1,1795.8999999761581,395304.8000000715,7229,VNB,B,13
14,test,5,1.0,1-Back,1.0,m,Thu Nov 13 2025 12:31:52 GMT-0600 (Central Standard Time),398982.90000009537,005_o_f_d_a.png,O,m,854,15,1,1879.0,397103.90000009537,7229,VNB,B,14
15,test,5,0.0,1-Back,1.0,m,Thu Nov 13 2025 12:31:52 GMT-0600 (Central Standard Time),400598.60000002384,016_y_m_n_a.png,O,m,587,16,1,1612.6999999284744,398985.90000009537,7229,VNB,B,15
16,test,5,0.0,1-Back,1.0,m,Thu Nov 13 2025 12:31:52 GMT-0600 (Central Standard Time),402299.0,020_y_f_h_a.png,O,m,669,17,1,1697.2999999523163,400601.7000000477,7229,VNB,B,16
17,test,5,0.0,1-Back,1.0,m,Thu Nov 13 2025 12:31:52 GMT-0600 (Central Standard Time),404281.40000009537,007_m_m_d_a.png,O,m,952,18,1,1979.5,402301.90000009537,7229,VNB,B,17
0,prac,1,0.0,2-Back,,,Thu Nov 13 2025 12:31:52 GMT-0600 (Central Standard Time),404281.40000009537,011_m_f_n_a.png,O,space,20856,1,1,1979.5,402301.90000009537,7229,VNB,B,0
0,prac,1,0.0,2-Back,,,Thu Nov 13 2025 12:31:52 GMT-0600 (Central Standard Time),404281.40000009537,005_o_f_h_a.png,O,space,20856,2,1,1979.5,402301.90000009537,7229,VNB,B,0
1,prac,1,0.0,2-Back,1.0,m,Thu Nov 13 2025 12:31:52 GMT-0600 (Central Standard Time),535023.7000000477,004_o_m_d_a.png,O,m,1547,3,1,2393.399999976158,532630.3000000715,7229,VNB,B,1
2,prac,1,1.0,2-Back,1.0,z,Thu Nov 13 2025 12:31:52 GMT-0600 (Central Standard Time),537638.9000000954,007_m_m_h_a.png,O,z,1758,4,1,2610.4000000953674,535028.5,7229,VNB,B,2
3,prac,1,0.0,2-Back,1.0,m,Thu Nov 13 2025 12:31:52 GMT-0600 (Central Standard Time),540072.3000000715,020_y_f_n_a.png,O,m,1579,5,1,2427.399999976158,537644.9000000954,7229,VNB,B,3
4,prac,1,1.0,2-Back,1.0,z,Thu Nov 13 2025 12:31:52 GMT-0600 (Central Standard Time),542004.2000000477,004_o_m_h_a.png,O,z,1148,6,1,1924.5,540079.7000000477,7229,VNB,B,4
5,prac,1,1.0,2-Back,1.0,z,Thu Nov 13 2025 12:31:52 GMT-0600 (Central Standard Time),544037.4000000954,016_y_m_n_a.png,O,z,1166,7,1,2027.6000000238419,542009.8000000715,7229,VNB,B,5
6,prac,1,0.0,2-Back,1.0,m,Thu Nov 13 2025 12:31:52 GMT-0600 (Central Standard Time),545836.8000000715,011_m_f_d_a.png,O,m,945,8,1,1793.5,544043.3000000715,7229,VNB,B,6
7,prac,1,0.0,2-Back,1.0,m,Thu Nov 13 2025 12:31:52 GMT-0600 (Central Standard Time),547686.1000000238,005_o_f_d_a.png,O,m,987,9,1,1844.1999999284744,545841.9000000954,7229,VNB,B,7
8,prac,1,0.0,2-Back,1.0,m,Thu Nov 13 2025 12:31:52 GMT-0600 (Central Standard Time),549669.2000000477,007_m_m_h_a.png,O,m,1217,10,1,1978.7999999523163,547690.4000000954,7229,VNB,B,8
9,prac,1,1.0,2-Back,1.0,z,Thu Nov 13 2025 12:31:52 GMT-0600 (Central Standard Time),551767.3000000715,020_y_f_d_a.png,O,z,1253,11,1,2092.8000000715256,549674.5,7229,VNB,B,9
10,prac,1,0.0,2-Back,1.0,m,Thu Nov 13 2025 12:31:52 GMT-0600 (Central Standard Time),553850.2000000477,004_o_m_n_a.png,O,m,1237,12,1,2079.100000023842,551771.1000000238,7229,VNB,B,10
0,test,1,0.0,2-Back,,,Thu Nov 13 2025 12:31:52 GMT-0600 (Central Standard Time),553850.2000000477,016_y_m_h_a.png,O,space,20681,1,1,2079.100000023842,551771.1000000238,7229,VNB,B,0
0,test,1,0.0,2-Back,,,Thu Nov 13 2025 12:31:52 GMT-0600 (Central Standard Time),553850.2000000477,005_o_f_n_a.png,O,space,20681,2,1,2079.100000023842,551771.1000000238,7229,VNB,B,0
1,test,1,0.0,2-Back,1.0,z,Thu Nov 13 2025 12:31:52 GMT-0600 (Central Standard Time),591504.6000000238,004_o_m_h_a.png,O,z,878,3,1,1887.7999999523163,589616.8000000715,7229,VNB,B,1
2,test,1,0.0,2-Back,1.0,m,Thu Nov 13 2025 12:31:52 GMT-0600 (Central Standard Time),593421.4000000954,011_m_f_d_a.png,O,m,883,4,1,1914.2000000476837,591507.2000000477,7229,VNB,B,2
3,test,1,1.0,2-Back,1.0,m,Thu Nov 13 2025 12:31:52 GMT-0600 (Central Standard Time),595353.2000000477,016_y_m_n_a.png,O,m,903,5,1,1928.6000000238419,593424.6000000238,7229,VNB,B,3
4,test,1,0.0,2-Back,1.0,z,Thu Nov 13 2025 12:31:52 GMT-0600 (Central Standard Time),597319.3000000715,020_y_f_d_a.png,O,z,945,6,1,1963.3999999761581,595355.9000000954,7229,VNB,B,4
5,test,1,0.0,2-Back,1.0,m,Thu Nov 13 2025 12:31:52 GMT-0600 (Central Standard Time),599636.2000000477,007_m_m_h_a.png,O,m,1291,7,1,2314.2000000476837,597322.0,7229,VNB,B,5
6,test,1,1.0,2-Back,1.0,m,Thu Nov 13 2025 12:31:52 GMT-0600 (Central Standard Time),601702.3000000715,020_y_f_n_a.png,O,m,1048,8,1,2063.3000000715256,599639.0,7229,VNB,B,6
7,test,1,0.0,2-Back,1.0,z,Thu Nov 13 2025 12:31:52 GMT-0600 (Central Standard Time),603600.6000000238,005_o_f_h_a.png,O,z,869,9,1,1895.6000000238419,601705.0,7229,VNB,B,7
8,test,1,0.0,2-Back,1.0,m,Thu Nov 13 2025 12:31:52 GMT-0600 (Central Standard Time),605633.8000000715,004_o_m_d_a.png,O,m,1011,10,1,2030.5,603603.3000000715,7229,VNB,B,8
9,test,1,1.0,2-Back,1.0,m,Thu Nov 13 2025 12:31:52 GMT-0600 (Central Standard Time),607650.9000000954,007_m_m_d_a.png,O,m,994,11,1,2013.8000000715256,605637.1000000238,7229,VNB,B,9
10,test,1,0.0,2-Back,1.0,m,Thu Nov 13 2025 12:31:52 GMT-0600 (Central Standard Time),610182.1000000238,011_m_f_n_a.png,O,m,1513,12,1,2527.899999976158,607654.2000000477,7229,VNB,B,10
11,test,1,0.0,2-Back,1.0,m,Thu Nov 13 2025 12:31:52 GMT-0600 (Central Standard Time),612099.5,020_y_f_h_a.png,O,m,885,13,1,1914.6999999284744,610184.8000000715,7229,VNB,B,11
12,test,1,0.0,2-Back,1.0,z,Thu Nov 13 2025 12:31:52 GMT-0600 (Central Standard Time),614181.5,007_m_m_n_a.png,O,z,1054,14,1,2078.0,612103.5,7229,VNB,B,12
13,test,1,0.0,2-Back,1.0,m,Thu Nov 13 2025 12:31:52 GMT-0600 (Central Standard Time),616181.0,016_y_m_d_a.png,O,m,967,15,1,1996.2999999523163,614184.7000000477,7229,VNB,B,13
14,test,1,1.0,2-Back,1.0,m,Thu Nov 13 2025 12:31:52 GMT-0600 (Central Standard Time),618246.5,011_m_f_h_a.png,O,m,1039,16,1,2062.899999976158,616183.6000000238,7229,VNB,B,14
15,test,1,0.0,2-Back,1.0,z,Thu Nov 13 2025 12:31:52 GMT-0600 (Central Standard Time),620245.7000000477,005_o_f_d_a.png,O,z,973,17,1,1995.7999999523163,618249.9000000954,7229,VNB,B,15
16,test,1,0.0,2-Back,1.0,m,Thu Nov 13 2025 12:31:52 GMT-0600 (Central Standard Time),622628.0,004_o_m_n_a.png,O,m,1350,18,1,2379.2999999523163,620248.7000000477,7229,VNB,B,16
0,test,2,0.0,2-Back,,,Thu Nov 13 2025 12:31:52 GMT-0600 (Central Standard Time),622628.0,007_m_m_h_a.png,O,space,2633,1,1,2379.2999999523163,620248.7000000477,7229,VNB,B,0
0,test,2,0.0,2-Back,,,Thu Nov 13 2025 12:31:52 GMT-0600 (Central Standard Time),622628.0,020_y_f_n_a.png,O,space,2633,2,1,2379.2999999523163,620248.7000000477,7229,VNB,B,0
1,test,2,1.0,2-Back,1.0,z,Thu Nov 13 2025 12:31:52 GMT-0600 (Central Standard Time),632374.9000000954,005_o_f_h_a.png,O,z,887,3,1,1911.4000000953674,630463.5,7229,VNB,B,1
2,test,2,0.0,2-Back,1.0,m,Thu Nov 13 2025 12:31:52 GMT-0600 (Central Standard Time),634174.8000000715,004_o_m_d_a.png,O,m,778,4,1,1797.0,632377.8000000715,7229,VNB,B,2
3,test,2,0.0,2-Back,1.0,m,Thu Nov 13 2025 12:31:52 GMT-0600 (Central Standard Time),636092.0,011_m_f_d_a.png,O,m,884,5,1,1914.0,634178.0,7229,VNB,B,3
4,test,2,0.0,2-Back,1.0,m,Thu Nov 13 2025 12:31:52 GMT-0600 (Central Standard Time),638573.8000000715,016_y_m_h_a.png,O,m,1464,6,1,2479.100000023842,636094.7000000477,7229,VNB,B,4
5,test,2,0.0,2-Back,1.0,m,Thu Nov 13 2025 12:31:52 GMT-0600 (Central Standard Time),640922.2000000477,005_o_f_n_a.png,O,m,1318,7,1,2345.399999976158,638576.8000000715,7229,VNB,B,5
6,test,2,1.0,2-Back,1.0,z,Thu Nov 13 2025 12:31:52 GMT-0600 (Central Standard Time),643588.0,004_o_m_h_a.png,O,z,1640,8,1,2662.899999976158,640925.1000000238,7229,VNB,B,6
7,test,2,0.0,2-Back,1.0,m,Thu Nov 13 2025 12:31:52 GMT-0600 (Central Standard Time),645821.2000000477,020_y_f_d_a.png,O,m,1215,9,1,2230.2000000476837,643591.0,7229,VNB,B,7
7,test,2,0.0,2-Back,0.0,m,Thu Nov 13 2025 12:31:52 GMT-0600 (Central Standard Time),648853.1000000238,016_y_m_d_a.png,O,None,2016,10,1,3029.1999999284744,645823.9000000954,7229,VNB,B,8
8,test,2,0.0,2-Back,1.0,m,Thu Nov 13 2025 12:31:52 GMT-0600 (Central Standard Time),650719.3000000715,007_m_m_n_a.png,O,m,845,11,1,1863.1000000238419,648856.2000000477,7229,VNB,B,9
9,test,2,0.0,2-Back,1.0,m,Thu Nov 13 2025 12:31:52 GMT-0600 (Central Standard Time),652686.1000000238,011_m_f_h_a.png,O,m,940,12,1,1961.7999999523163,650724.3000000715,7229,VNB,B,10
10,test,2,1.0,2-Back,1.0,z,Thu Nov 13 2025 12:31:52 GMT-0600 (Central Standard Time),654568.1000000238,004_o_m_n_a.png,O,z,854,13,1,1879.1000000238419,652689.0,7229,VNB,B,11
11,test,2,0.0,2-Back,1.0,m,Thu Nov 13 2025 12:31:52 GMT-0600 (Central Standard Time),656367.3000000715,005_o_f_d_a.png,O,m,779,14,1,1796.3000000715256,654571.0,7229,VNB,B,12
12,test,2,0.0,2-Back,1.0,m,Thu Nov 13 2025 12:31:52 GMT-0600 (Central Standard Time),658434.4000000954,020_y_f_h_a.png,O,m,1036,15,1,2064.0,656370.4000000954,7229,VNB,B,13
12,test,2,0.0,2-Back,0.0,z,Thu Nov 13 2025 12:31:52 GMT-0600 (Central Standard Time),660502.8000000715,007_m_m_d_a.png,O,m,1042,16,1,2065.7000000476837,658437.1000000238,7229,VNB,B,14
13,test,2,0.0,2-Back,1.0,m,Thu Nov 13 2025 12:31:52 GMT-0600 (Central Standard Time),662633.0,016_y_m_n_a.png,O,m,1104,17,1,2122.5,660510.5,7229,VNB,B,15
13,test,2,1.0,2-Back,0.0,m,Thu Nov 13 2025 12:31:52 GMT-0600 (Central Standard Time),664498.3000000715,011_m_f_n_a.png,O,z,835,18,1,1861.8999999761581,662636.4000000954,7229,VNB,B,16
0,test,3,1.0,2-Back,,,Thu Nov 13 2025 12:31:52 GMT-0600 (Central Standard Time),664498.3000000715,004_o_m_n_a.png,O,space,4698,1,1,1861.8999999761581,662636.4000000954,7229,VNB,B,0
0,test,3,1.0,2-Back,,,Thu Nov 13 2025 12:31:52 GMT-0600 (Central Standard Time),664498.3000000715,005_o_f_d_a.png,O,space,4698,2,1,1861.8999999761581,662636.4000000954,7229,VNB,B,0
1,test,3,0.0,2-Back,1.0,m,Thu Nov 13 2025 12:31:52 GMT-0600 (Central Standard Time),676295.1000000238,020_y_f_h_a.png,O,m,1005,3,1,2029.6999999284744,674265.4000000954,7229,VNB,B,1
2,test,3,0.0,2-Back,1.0,z,Thu Nov 13 2025 12:31:52 GMT-0600 (Central Standard Time),678727.2000000477,011_m_f_d_a.png,O,z,1412,4,1,2429.600000023842,676297.6000000238,7229,VNB,B,2
3,test,3,1.0,2-Back,1.0,m,Thu Nov 13 2025 12:31:52 GMT-0600 (Central Standard Time),680594.0,016_y_m_n_a.png,O,m,843,5,1,1863.8999999761581,678730.1000000238,7229,VNB,B,3
4,test,3,0.0,2-Back,1.0,m,Thu Nov 13 2025 12:31:52 GMT-0600 (Central Standard Time),682575.8000000715,004_o_m_h_a.png,O,m,962,6,1,1978.2000000476837,680597.6000000238,7229,VNB,B,4
5,test,3,0.0,2-Back,1.0,z,Thu Nov 13 2025 12:31:52 GMT-0600 (Central Standard Time),684958.6000000238,020_y_f_n_a.png,O,z,1356,7,1,2379.600000023842,682579.0,7229,VNB,B,5
6,test,3,1.0,2-Back,1.0,m,Thu Nov 13 2025 12:31:52 GMT-0600 (Central Standard Time),686757.8000000715,007_m_m_d_a.png,O,m,781,8,1,1795.5,684962.3000000715,7229,VNB,B,6
7,test,3,0.0,2-Back,1.0,m,Thu Nov 13 2025 12:31:52 GMT-0600 (Central Standard Time),689656.9000000954,016_y_m_d_a.png,O,m,1869,9,1,2896.3000000715256,686760.6000000238,7229,VNB,B,7
8,test,3,0.0,2-Back,1.0,m,Thu Nov 13 2025 12:31:52 GMT-0600 (Central Standard Time),692206.2000000477,005_o_f_h_a.png,O,m,1529,10,1,2546.5,689659.7000000477,7229,VNB,B,8
9,test,3,1.0,2-Back,1.0,m,Thu Nov 13 2025 12:31:52 GMT-0600 (Central Standard Time),694939.1000000238,011_m_f_n_a.png,O,m,1709,11,1,2730.1999999284744,692208.9000000954,7229,VNB,B,9
10,test,3,1.0,2-Back,1.0,z,Thu Nov 13 2025 12:31:52 GMT-0600 (Central Standard Time),696571.2000000477,007_m_m_h_a.png,O,z,600,12,1,1628.8999999761581,694942.3000000715,7229,VNB,B,10
11,test,3,0.0,2-Back,1.0,m,Thu Nov 13 2025 12:31:52 GMT-0600 (Central Standard Time),698538.0,020_y_f_d_a.png,O,m,935,13,1,1964.1999999284744,696573.8000000715,7229,VNB,B,11
12,test,3,0.0,2-Back,1.0,m,Thu Nov 13 2025 12:31:52 GMT-0600 (Central Standard Time),701453.8000000715,005_o_f_n_a.png,O,m,1890,14,1,2911.7000000476837,698542.1000000238,7229,VNB,B,12
13,test,3,0.0,2-Back,1.0,z,Thu Nov 13 2025 12:31:52 GMT-0600 (Central Standard Time),703219.1000000238,004_o_m_d_a.png,O,z,742,15,1,1762.6000000238419,701456.5,7229,VNB,B,13
14,test,3,1.0,2-Back,1.0,m,Thu Nov 13 2025 12:31:52 GMT-0600 (Central Standard Time),705302.1000000238,011_m_f_h_a.png,O,m,1056,16,1,2080.600000023842,703221.5,7229,VNB,B,14
14,test,3,0.0,2-Back,0.0,m,Thu Nov 13 2025 12:31:52 GMT-0600 (Central Standard Time),707168.0,007_m_m_n_a.png,O,z,837,17,1,1863.2999999523163,705304.7000000477,7229,VNB,B,15
14,test,3,0.0,2-Back,0.0,z,Thu Nov 13 2025 12:31:52 GMT-0600 (Central Standard Time),710200.6000000238,016_y_m_h_a.png,O,None,2016,18,1,3027.100000023842,707173.5,7229,VNB,B,16
0,test,4,0.0,2-Back,,,Thu Nov 13 2025 12:31:52 GMT-0600 (Central Standard Time),710200.6000000238,011_m_f_n_a.png,O,space,4707,1,1,3027.100000023842,707173.5,7229,VNB,B,0
0,test,4,0.0,2-Back,,,Thu Nov 13 2025 12:31:52 GMT-0600 (Central Standard Time),710200.6000000238,004_o_m_n_a.png,O,space,4707,2,1,3027.100000023842,707173.5,7229,VNB,B,0
1,test,4,1.0,2-Back,1.0,m,Thu Nov 13 2025 12:31:52 GMT-0600 (Central Standard Time),721980.2000000477,016_y_m_h_a.png,O,m,841,3,1,1862.7000000476837,720117.5,7229,VNB,B,1
2,test,4,1.0,2-Back,1.0,m,Thu Nov 13 2025 12:31:52 GMT-0600 (Central Standard Time),723913.4000000954,005_o_f_d_a.png,O,m,911,4,1,1930.4000000953674,721983.0,7229,VNB,B,2
3,test,4,0.0,2-Back,1.0,z,Thu Nov 13 2025 12:31:52 GMT-0600 (Central Standard Time),725812.2000000477,004_o_m_h_a.png,O,z,874,5,1,1895.7000000476837,723916.5,7229,VNB,B,3
4,test,4,0.0,2-Back,1.0,m,Thu Nov 13 2025 12:31:52 GMT-0600 (Central Standard Time),727912.6000000238,007_m_m_n_a.png,O,m,1079,6,1,2097.5,725815.1000000238,7229,VNB,B,4
5,test,4,0.0,2-Back,1.0,m,Thu Nov 13 2025 12:31:52 GMT-0600 (Central Standard Time),730478.0,011_m_f_d_a.png,O,m,1539,7,1,2562.5,727915.5,7229,VNB,B,5
5,test,4,0.0,2-Back,0.0,z,Thu Nov 13 2025 12:31:52 GMT-0600 (Central Standard Time),732593.7000000477,020_y_f_n_a.png,O,m,1086,8,1,2113.0,730480.7000000477,7229,VNB,B,6
6,test,4,1.0,2-Back,1.0,m,Thu Nov 13 2025 12:31:52 GMT-0600 (Central Standard Time),734527.1000000238,005_o_f_h_a.png,O,m,914,9,1,1930.6999999284744,732596.4000000954,7229,VNB,B,7
7,test,4,0.0,2-Back,1.0,m,Thu Nov 13 2025 12:31:52 GMT-0600 (Central Standard Time),736776.8000000715,007_m_m_h_a.png,O,m,1229,10,1,2247.0,734529.8000000715,7229,VNB,B,8
8,test,4,0.0,2-Back,1.0,m,Thu Nov 13 2025 12:31:52 GMT-0600 (Central Standard Time),738609.1000000238,020_y_f_d_a.png,O,m,811,11,1,1829.5,736779.6000000238,7229,VNB,B,9
9,test,4,0.0,2-Back,1.0,m,Thu Nov 13 2025 12:31:52 GMT-0600 (Central Standard Time),740524.4000000954,016_y_m_n_a.png,O,m,890,12,1,1912.6000000238419,738611.8000000715,7229,VNB,B,10
10,test,4,0.0,2-Back,1.0,z,Thu Nov 13 2025 12:31:52 GMT-0600 (Central Standard Time),742492.1000000238,004_o_m_d_a.png,O,z,942,13,1,1964.6999999284744,740527.4000000954,7229,VNB,B,11
11,test,4,1.0,2-Back,1.0,m,Thu Nov 13 2025 12:31:52 GMT-0600 (Central Standard Time),744357.8000000715,011_m_f_h_a.png,O,m,840,14,1,1862.6000000238419,742495.2000000477,7229,VNB,B,12
12,test,4,1.0,2-Back,1.0,m,Thu Nov 13 2025 12:31:52 GMT-0600 (Central Standard Time),746389.5,020_y_f_h_a.png,O,m,1007,15,1,2029.0999999046326,744360.4000000954,7229,VNB,B,13
13,test,4,0.0,2-Back,1.0,m,Thu Nov 13 2025 12:31:52 GMT-0600 (Central Standard Time),748306.4000000954,005_o_f_n_a.png,O,m,886,16,1,1912.8000000715256,746393.6000000238,7229,VNB,B,14
14,test,4,0.0,2-Back,1.0,m,Thu Nov 13 2025 12:31:52 GMT-0600 (Central Standard Time),750339.2000000477,016_y_m_d_a.png,O,m,1002,17,1,2029.7999999523163,748309.4000000954,7229,VNB,B,15
15,test,4,1.0,2-Back,1.0,m,Thu Nov 13 2025 12:31:52 GMT-0600 (Central Standard Time),752588.8000000715,007_m_m_d_a.png,O,m,1225,18,1,2246.8000000715256,750342.0,7229,VNB,B,16
0,test,5,1.0,2-Back,,,Thu Nov 13 2025 12:31:52 GMT-0600 (Central Standard Time),752588.8000000715,020_y_f_d_a.png,O,space,3351,1,1,2246.8000000715256,750342.0,7229,VNB,B,0
0,test,5,1.0,2-Back,,,Thu Nov 13 2025 12:31:52 GMT-0600 (Central Standard Time),752588.8000000715,005_o_f_h_a.png,O,space,3351,2,1,2246.8000000715256,750342.0,7229,VNB,B,0
1,test,5,1.0,2-Back,1.0,z,Thu Nov 13 2025 12:31:52 GMT-0600 (Central Standard Time),763217.8000000715,004_o_m_d_a.png,O,z,1061,3,1,2081.2000000476837,761136.6000000238,7229,VNB,B,1
2,test,5,1.0,2-Back,1.0,m,Thu Nov 13 2025 12:31:52 GMT-0600 (Central Standard Time),765116.8000000715,011_m_f_n_a.png,O,m,866,4,1,1895.8000000715256,763221.0,7229,VNB,B,2
2,test,5,0.0,2-Back,0.0,m,Thu Nov 13 2025 12:31:52 GMT-0600 (Central Standard Time),767315.4000000954,007_m_m_h_a.png,O,z,1175,5,1,2195.600000023842,765119.8000000715,7229,VNB,B,3
3,test,5,0.0,2-Back,1.0,z,Thu Nov 13 2025 12:31:52 GMT-0600 (Central Standard Time),769532.2000000477,020_y_f_n_a.png,O,z,1191,6,1,2214.0,767318.2000000477,7229,VNB,B,4
4,test,5,0.0,2-Back,1.0,m,Thu Nov 13 2025 12:31:52 GMT-0600 (Central Standard Time),771697.7000000477,005_o_f_d_a.png,O,m,1134,7,1,2161.7999999523163,769535.9000000954,7229,VNB,B,5
5,test,5,0.0,2-Back,1.0,m,Thu Nov 13 2025 12:31:52 GMT-0600 (Central Standard Time),773997.5,004_o_m_h_a.png,O,m,1267,8,1,2296.5999999046326,771700.9000000954,7229,VNB,B,6
6,test,5,1.0,2-Back,1.0,z,Thu Nov 13 2025 12:31:52 GMT-0600 (Central Standard Time),776013.4000000954,011_m_f_d_a.png,O,z,990,9,1,2013.1000000238419,774000.3000000715,7229,VNB,B,7
7,test,5,0.0,2-Back,1.0,m,Thu Nov 13 2025 12:31:52 GMT-0600 (Central Standard Time),777913.0,016_y_m_n_a.png,O,m,878,10,1,1896.8999999761581,776016.1000000238,7229,VNB,B,8
8,test,5,0.0,2-Back,1.0,m,Thu Nov 13 2025 12:31:52 GMT-0600 (Central Standard Time),780478.7000000477,007_m_m_n_a.png,O,m,1547,11,1,2562.7999999523163,777915.9000000954,7229,VNB,B,9
9,test,5,0.0,2-Back,1.0,m,Thu Nov 13 2025 12:31:52 GMT-0600 (Central Standard Time),782477.4000000954,020_y_f_h_a.png,O,m,973,12,1,1996.0,780481.4000000954,7229,VNB,B,10
10,test,5,0.0,2-Back,1.0,m,Thu Nov 13 2025 12:31:52 GMT-0600 (Central Standard Time),784428.1000000238,016_y_m_d_a.png,O,m,926,13,1,1947.6999999284744,782480.4000000954,7229,VNB,B,11
11,test,5,1.0,2-Back,1.0,z,Thu Nov 13 2025 12:31:52 GMT-0600 (Central Standard Time),786143.0,011_m_f_h_a.png,O,z,688,14,1,1712.3999999761581,784430.6000000238,7229,VNB,B,12
11,test,5,0.0,2-Back,0.0,m,Thu Nov 13 2025 12:31:52 GMT-0600 (Central Standard Time),789175.7000000477,004_o_m_n_a.png,O,None,2015,15,1,3029.7999999523163,786145.9000000954,7229,VNB,B,13
12,test,5,0.0,2-Back,1.0,m,Thu Nov 13 2025 12:31:52 GMT-0600 (Central Standard Time),791357.9000000954,007_m_m_d_a.png,O,m,1156,16,1,2179.5,789178.4000000954,7229,VNB,B,14
13,test,5,0.0,2-Back,1.0,z,Thu Nov 13 2025 12:31:52 GMT-0600 (Central Standard Time),793307.3000000715,005_o_f_n_a.png,O,z,925,17,1,1946.8000000715256,791360.5,7229,VNB,B,15
14,test,5,1.0,2-Back,1.0,m,Thu Nov 13 2025 12:31:52 GMT-0600 (Central Standard Time),795240.3000000715,016_y_m_h_a.png,O,m,912,18,1,1930.1000000238419,793310.2000000477,7229,VNB,B,16
