acc_sum,block,block_c,change,condition,correct,correct_response,datetime,endtime,face,project,response,response_time,row_sel,session_number,start_end,starttime,subject_id,task,task_vers,trial
0,prac,1,,1-Back,,,Fri May 30 2025 10:45:46 GMT-0500 (Central Daylight Time),,005_o_f_d_a.png,I,space,4572,1,3,,,8003,VNB,B,0
1,prac,1,0.0,1-Back,1,m,Fri May 30 2025 10:45:46 GMT-0500 (Central Daylight Time),156134.59999999404,020_y_f_n_a.png,I,m,1290,2,3,2173.5,153961.09999999404,8003,VNB,B,1
2,prac,1,0.0,1-Back,1,m,Fri May 30 2025 10:45:46 GMT-0500 (Central Daylight Time),157884.0,007_m_m_h_a.png,I,m,833,3,3,1743.0999999940395,156140.90000000596,8003,VNB,B,2
3,prac,1,0.0,1-Back,1,m,Fri May 30 2025 10:45:46 GMT-0500 (Central Daylight Time),159434.80000001192,016_y_m_d_a.png,I,m,656,4,3,1543.5,157891.30000001192,8003,VNB,B,3
4,prac,1,0.0,1-Back,1,m,Fri May 30 2025 10:45:46 GMT-0500 (Central Daylight Time),160999.59999999404,005_o_f_n_a.png,I,m,660,5,3,1557.5999999940395,159442.0,8003,VNB,B,4
4,prac,1,1.0,1-Back,0,z,Fri May 30 2025 10:45:46 GMT-0500 (Central Daylight Time),162649.09999999404,016_y_m_n_a.png,I,m,737,6,3,1642.699999988079,161006.40000000596,8003,VNB,B,5
5,prac,1,0.0,1-Back,1,m,Fri May 30 2025 10:45:46 GMT-0500 (Central Daylight Time),164365.19999998808,004_o_m_h_a.png,I,m,833,7,3,1708.7999999821186,162656.40000000596,8003,VNB,B,6
6,prac,1,0.0,1-Back,1,m,Fri May 30 2025 10:45:46 GMT-0500 (Central Daylight Time),165964.69999998808,011_m_f_d_a.png,I,m,691,8,3,1593.2999999821186,164371.40000000596,8003,VNB,B,7
7,prac,1,1.0,1-Back,1,z,Fri May 30 2025 10:45:46 GMT-0500 (Central Daylight Time),168097.5,020_y_f_d_a.png,I,z,1245,9,3,2124.9000000059605,165972.59999999404,8003,VNB,B,8
8,prac,1,0.0,1-Back,1,m,Fri May 30 2025 10:45:46 GMT-0500 (Central Daylight Time),169796.90000000596,007_m_m_n_a.png,I,m,780,10,3,1692.2000000178814,168104.69999998808,8003,VNB,B,9
9,prac,1,0.0,1-Back,1,m,Fri May 30 2025 10:45:46 GMT-0500 (Central Daylight Time),171412.90000000596,005_o_f_h_a.png,I,m,713,11,3,1609.0999999940395,169803.80000001192,8003,VNB,B,10
10,prac,1,0.0,1-Back,1,m,Fri May 30 2025 10:45:46 GMT-0500 (Central Daylight Time),172929.30000001192,016_y_m_d_a.png,I,m,609,12,3,1510.7000000178814,171418.59999999404,8003,VNB,B,11
0,test,1,0.0,1-Back,,,Fri May 30 2025 10:45:46 GMT-0500 (Central Daylight Time),172929.30000001192,020_y_f_d_a.png,I,space,9847,1,3,1510.7000000178814,171418.59999999404,8003,VNB,B,0
1,test,1,0.0,1-Back,1,m,Fri May 30 2025 10:45:46 GMT-0500 (Central Daylight Time),193039.59999999404,011_m_f_n_a.png,I,m,1023,2,3,2043.7999999821186,190995.80000001192,8003,VNB,B,1
2,test,1,0.0,1-Back,1,m,Fri May 30 2025 10:45:46 GMT-0500 (Central Daylight Time),194872.19999998808,004_o_m_h_a.png,I,m,806,3,3,1827.699999988079,193044.5,8003,VNB,B,2
3,test,1,1.0,1-Back,1,z,Fri May 30 2025 10:45:46 GMT-0500 (Central Daylight Time),196405.30000001192,007_m_m_h_a.png,I,z,501,4,3,1528.7000000178814,194876.59999999404,8003,VNB,B,3
4,test,1,0.0,1-Back,1,m,Fri May 30 2025 10:45:46 GMT-0500 (Central Daylight Time),198054.59999999404,005_o_f_n_a.png,I,m,624,5,3,1645.0999999940395,196409.5,8003,VNB,B,4
5,test,1,0.0,1-Back,1,m,Fri May 30 2025 10:45:46 GMT-0500 (Central Daylight Time),200037.40000000596,016_y_m_d_a.png,I,m,959,6,3,1979.2000000178814,198058.19999998808,8003,VNB,B,5
6,test,1,1.0,1-Back,1,z,Fri May 30 2025 10:45:46 GMT-0500 (Central Daylight Time),201703.5,011_m_f_d_a.png,I,z,648,7,3,1661.5999999940395,200041.90000000596,8003,VNB,B,6
7,test,1,0.0,1-Back,1,m,Fri May 30 2025 10:45:46 GMT-0500 (Central Daylight Time),203502.69999998808,020_y_f_h_a.png,I,m,774,8,3,1794.8999999761581,201707.80000001192,8003,VNB,B,7
8,test,1,0.0,1-Back,1,m,Fri May 30 2025 10:45:46 GMT-0500 (Central Daylight Time),205118.90000000596,004_o_m_n_a.png,I,m,598,9,3,1612.5,203506.40000000596,8003,VNB,B,8
9,test,1,0.0,1-Back,1,m,Fri May 30 2025 10:45:46 GMT-0500 (Central Daylight Time),206801.90000000596,016_y_m_h_a.png,I,m,654,10,3,1678.800000011921,205123.09999999404,8003,VNB,B,9
10,test,1,0.0,1-Back,1,m,Fri May 30 2025 10:45:46 GMT-0500 (Central Daylight Time),208714.69999998808,004_o_m_d_a.png,I,m,895,11,3,1908.699999988079,206806.0,8003,VNB,B,10
11,test,1,1.0,1-Back,1,z,Fri May 30 2025 10:45:46 GMT-0500 (Central Daylight Time),210267.40000000596,005_o_f_d_a.png,I,z,527,12,3,1548.4000000059605,208719.0,8003,VNB,B,11
12,test,1,0.0,1-Back,1,m,Fri May 30 2025 10:45:46 GMT-0500 (Central Daylight Time),211917.0,007_m_m_n_a.png,I,m,609,13,3,1644.800000011921,210272.19999998808,8003,VNB,B,12
13,test,1,1.0,1-Back,1,z,Fri May 30 2025 10:45:46 GMT-0500 (Central Daylight Time),213866.30000001192,020_y_f_n_a.png,I,z,920,14,3,1944.9000000059605,211921.40000000596,8003,VNB,B,13
14,test,1,0.0,1-Back,1,m,Fri May 30 2025 10:45:46 GMT-0500 (Central Daylight Time),215599.0,011_m_f_h_a.png,I,m,707,15,3,1729.0999999940395,213869.90000000596,8003,VNB,B,14
15,test,1,0.0,1-Back,1,m,Fri May 30 2025 10:45:46 GMT-0500 (Central Daylight Time),217415.0,007_m_m_d_a.png,I,m,798,16,3,1811.300000011921,215603.69999998808,8003,VNB,B,15
16,test,1,0.0,1-Back,1,m,Fri May 30 2025 10:45:46 GMT-0500 (Central Daylight Time),219247.80000001192,016_y_m_n_a.png,I,m,806,17,3,1828.800000011921,217419.0,8003,VNB,B,16
17,test,1,0.0,1-Back,1,m,Fri May 30 2025 10:45:46 GMT-0500 (Central Daylight Time),221130.80000001192,005_o_f_h_a.png,I,m,853,18,3,1878.300000011921,219252.5,8003,VNB,B,17
0,test,2,0.0,1-Back,,,Fri May 30 2025 10:45:46 GMT-0500 (Central Daylight Time),221130.80000001192,016_y_m_n_a.png,I,space,2690,1,3,1878.300000011921,219252.5,8003,VNB,B,0
1,test,2,0.0,1-Back,1,m,Fri May 30 2025 10:45:46 GMT-0500 (Central Daylight Time),227711.90000000596,020_y_f_h_a.png,I,m,839,2,3,1860.800000011921,225851.09999999404,8003,VNB,B,1
2,test,2,1.0,1-Back,1,m,Fri May 30 2025 10:45:46 GMT-0500 (Central Daylight Time),229444.69999998808,004_o_m_n_a.png,I,m,701,3,3,1728.5999999940395,227716.09999999404,8003,VNB,B,2
3,test,2,0.0,1-Back,1,m,Fri May 30 2025 10:45:46 GMT-0500 (Central Daylight Time),231377.40000000596,011_m_f_d_a.png,I,m,904,4,3,1927.4000000059605,229450.0,8003,VNB,B,3
4,test,2,0.0,1-Back,1,z,Fri May 30 2025 10:45:46 GMT-0500 (Central Daylight Time),233093.69999998808,007_m_m_d_a.png,I,z,666,5,3,1711.2999999821186,231382.40000000596,8003,VNB,B,4
5,test,2,0.0,1-Back,1,m,Fri May 30 2025 10:45:46 GMT-0500 (Central Daylight Time),234893.0,016_y_m_h_a.png,I,m,775,6,3,1794.5999999940395,233098.40000000596,8003,VNB,B,5
6,test,2,1.0,1-Back,1,z,Fri May 30 2025 10:45:46 GMT-0500 (Central Daylight Time),236442.5,005_o_f_h_a.png,I,z,528,7,3,1545.800000011921,234896.69999998808,8003,VNB,B,6
7,test,2,0.0,1-Back,1,m,Fri May 30 2025 10:45:46 GMT-0500 (Central Daylight Time),238008.80000001192,011_m_f_n_a.png,I,m,546,8,3,1561.1000000238419,236447.69999998808,8003,VNB,B,7
8,test,2,0.0,1-Back,1,m,Fri May 30 2025 10:45:46 GMT-0500 (Central Daylight Time),239691.40000000596,020_y_f_d_a.png,I,m,652,9,3,1677.9000000059605,238013.5,8003,VNB,B,8
9,test,2,0.0,1-Back,1,m,Fri May 30 2025 10:45:46 GMT-0500 (Central Daylight Time),241291.09999999404,007_m_m_n_a.png,I,m,570,10,3,1595.0,239696.09999999404,8003,VNB,B,9
10,test,2,1.0,1-Back,1,m,Fri May 30 2025 10:45:46 GMT-0500 (Central Daylight Time),243073.80000001192,011_m_f_h_a.png,I,m,762,11,3,1778.2000000178814,241295.59999999404,8003,VNB,B,10
11,test,2,0.0,1-Back,1,z,Fri May 30 2025 10:45:46 GMT-0500 (Central Daylight Time),244690.09999999404,004_o_m_h_a.png,I,z,595,12,3,1612.199999988079,243077.90000000596,8003,VNB,B,11
12,test,2,0.0,1-Back,1,m,Fri May 30 2025 10:45:46 GMT-0500 (Central Daylight Time),246306.19999998808,016_y_m_d_a.png,I,m,595,13,3,1611.699999988079,244694.5,8003,VNB,B,12
13,test,2,0.0,1-Back,1,m,Fri May 30 2025 10:45:46 GMT-0500 (Central Daylight Time),248055.69999998808,005_o_f_n_a.png,I,m,723,14,3,1745.5999999940395,246310.09999999404,8003,VNB,B,13
14,test,2,0.0,1-Back,1,z,Fri May 30 2025 10:45:46 GMT-0500 (Central Daylight Time),249738.30000001192,020_y_f_n_a.png,I,z,654,15,3,1677.7000000178814,248060.59999999404,8003,VNB,B,14
15,test,2,1.0,1-Back,1,m,Fri May 30 2025 10:45:46 GMT-0500 (Central Daylight Time),251387.69999998808,007_m_m_h_a.png,I,m,627,16,3,1646.0,249741.69999998808,8003,VNB,B,15
15,test,2,0.0,1-Back,0,m,Fri May 30 2025 10:45:46 GMT-0500 (Central Daylight Time),253054.09999999404,005_o_f_d_a.png,I,z,649,17,3,1662.5,251391.59999999404,8003,VNB,B,16
16,test,2,1.0,1-Back,1,z,Fri May 30 2025 10:45:46 GMT-0500 (Central Daylight Time),255020.09999999404,004_o_m_d_a.png,I,z,943,18,3,1962.5,253057.59999999404,8003,VNB,B,17
0,test,3,1.0,1-Back,,,Fri May 30 2025 10:45:46 GMT-0500 (Central Daylight Time),255020.09999999404,005_o_f_h_a.png,I,space,2241,1,3,1962.5,253057.59999999404,8003,VNB,B,0
1,test,3,0.0,1-Back,1,m,Fri May 30 2025 10:45:46 GMT-0500 (Central Daylight Time),261284.80000001192,011_m_f_d_a.png,I,m,850,2,3,1879.300000011921,259405.5,8003,VNB,B,1
1,test,3,1.0,1-Back,0,m,Fri May 30 2025 10:45:46 GMT-0500 (Central Daylight Time),263233.90000000596,007_m_m_n_a.png,I,z,920,3,3,1944.0999999940395,261289.80000001192,8003,VNB,B,2
2,test,3,0.0,1-Back,1,z,Fri May 30 2025 10:45:46 GMT-0500 (Central Daylight Time),265083.5,005_o_f_n_a.png,I,z,827,4,3,1844.800000011921,263238.6999999881,8003,VNB,B,3
3,test,3,1.0,1-Back,1,m,Fri May 30 2025 10:45:46 GMT-0500 (Central Daylight Time),266649.8000000119,004_o_m_d_a.png,I,m,546,5,3,1561.4000000059605,265088.40000000596,8003,VNB,B,4
4,test,3,0.0,1-Back,1,m,Fri May 30 2025 10:45:46 GMT-0500 (Central Daylight Time),268398.90000000596,020_y_f_h_a.png,I,m,731,6,3,1745.0,266653.90000000596,8003,VNB,B,5
4,test,3,0.0,1-Back,0,z,Fri May 30 2025 10:45:46 GMT-0500 (Central Daylight Time),270098.5,016_y_m_h_a.png,I,m,678,7,3,1695.5999999940395,268402.90000000596,8003,VNB,B,6
5,test,3,0.0,1-Back,1,m,Fri May 30 2025 10:45:46 GMT-0500 (Central Daylight Time),271964.90000000596,011_m_f_n_a.png,I,m,835,8,3,1862.2000000178814,270102.6999999881,8003,VNB,B,7
6,test,3,0.0,1-Back,1,m,Fri May 30 2025 10:45:46 GMT-0500 (Central Daylight Time),273830.90000000596,020_y_f_d_a.png,I,m,840,9,3,1861.300000011921,271969.59999999404,8003,VNB,B,8
7,test,3,1.0,1-Back,1,m,Fri May 30 2025 10:45:46 GMT-0500 (Central Daylight Time),275530.5,004_o_m_n_a.png,I,m,679,10,3,1695.5999999940395,273834.90000000596,8003,VNB,B,9
8,test,3,0.0,1-Back,1,m,Fri May 30 2025 10:45:46 GMT-0500 (Central Daylight Time),277279.8000000119,007_m_m_h_a.png,I,m,731,11,3,1742.9000000059605,275536.90000000596,8003,VNB,B,10
9,test,3,0.0,1-Back,1,z,Fri May 30 2025 10:45:46 GMT-0500 (Central Daylight Time),279029.3000000119,011_m_f_h_a.png,I,z,717,12,3,1745.7000000178814,277283.59999999404,8003,VNB,B,11
10,test,3,1.0,1-Back,1,m,Fri May 30 2025 10:45:46 GMT-0500 (Central Daylight Time),280662.1999999881,005_o_f_d_a.png,I,m,608,13,3,1628.5999999940395,279033.59999999404,8003,VNB,B,12
11,test,3,0.0,1-Back,1,z,Fri May 30 2025 10:45:46 GMT-0500 (Central Daylight Time),282394.8000000119,007_m_m_d_a.png,I,z,703,14,3,1727.4000000059605,280667.40000000596,8003,VNB,B,13
12,test,3,0.0,1-Back,1,m,Fri May 30 2025 10:45:46 GMT-0500 (Central Daylight Time),283994.09999999404,016_y_m_n_a.png,I,m,570,15,3,1595.5999999940395,282398.5,8003,VNB,B,14
13,test,3,1.0,1-Back,1,m,Fri May 30 2025 10:45:46 GMT-0500 (Central Daylight Time),285860.40000000596,004_o_m_h_a.png,I,m,835,16,3,1861.9000000059605,283998.5,8003,VNB,B,15
14,test,3,0.0,1-Back,1,m,Fri May 30 2025 10:45:46 GMT-0500 (Central Daylight Time),287559.8000000119,016_y_m_d_a.png,I,m,681,17,3,1695.0,285864.8000000119,8003,VNB,B,16
15,test,3,1.0,1-Back,1,m,Fri May 30 2025 10:45:46 GMT-0500 (Central Daylight Time),289326.3000000119,020_y_f_n_a.png,I,m,741,18,3,1763.0,287563.3000000119,8003,VNB,B,17
0,test,4,1.0,1-Back,,,Fri May 30 2025 10:45:46 GMT-0500 (Central Daylight Time),289326.3000000119,007_m_m_d_a.png,I,space,2751,1,3,1763.0,287563.3000000119,8003,VNB,B,0
1,test,4,0.0,1-Back,1,z,Fri May 30 2025 10:45:46 GMT-0500 (Central Daylight Time),296123.8000000119,004_o_m_d_a.png,I,z,993,2,3,2011.4000000059605,294112.40000000596,8003,VNB,B,1
2,test,4,0.0,1-Back,1,m,Fri May 30 2025 10:45:46 GMT-0500 (Central Daylight Time),297806.40000000596,016_y_m_h_a.png,I,m,665,3,3,1678.2000000178814,296128.1999999881,8003,VNB,B,2
3,test,4,0.0,1-Back,1,m,Fri May 30 2025 10:45:46 GMT-0500 (Central Daylight Time),299556.0,011_m_f_n_a.png,I,m,726,4,3,1745.5999999940395,297810.40000000596,8003,VNB,B,3
4,test,4,1.0,1-Back,1,m,Fri May 30 2025 10:45:46 GMT-0500 (Central Daylight Time),301472.09999999404,005_o_f_h_a.png,I,m,889,5,3,1911.9000000059605,299560.1999999881,8003,VNB,B,4
5,test,4,0.0,1-Back,1,m,Fri May 30 2025 10:45:46 GMT-0500 (Central Daylight Time),303504.90000000596,007_m_m_n_a.png,I,m,1005,6,3,2028.0999999940395,301476.8000000119,8003,VNB,B,5
6,test,4,0.0,1-Back,1,m,Fri May 30 2025 10:45:46 GMT-0500 (Central Daylight Time),305387.5,016_y_m_d_a.png,I,m,852,7,3,1878.5999999940395,303508.90000000596,8003,VNB,B,6
7,test,4,1.0,1-Back,1,z,Fri May 30 2025 10:45:46 GMT-0500 (Central Daylight Time),307120.40000000596,020_y_f_d_a.png,I,z,713,8,3,1728.4000000059605,305392.0,8003,VNB,B,7
8,test,4,0.0,1-Back,1,m,Fri May 30 2025 10:45:46 GMT-0500 (Central Daylight Time),308736.5,011_m_f_h_a.png,I,m,597,9,3,1612.699999988079,307123.8000000119,8003,VNB,B,8
9,test,4,0.0,1-Back,1,z,Fri May 30 2025 10:45:46 GMT-0500 (Central Daylight Time),310502.6999999881,004_o_m_h_a.png,I,z,749,10,3,1761.199999988079,308741.5,8003,VNB,B,9
10,test,4,1.0,1-Back,1,m,Fri May 30 2025 10:45:46 GMT-0500 (Central Daylight Time),312268.90000000596,005_o_f_n_a.png,I,m,735,11,3,1760.5,310508.40000000596,8003,VNB,B,10
11,test,4,0.0,1-Back,1,m,Fri May 30 2025 10:45:46 GMT-0500 (Central Daylight Time),314118.09999999404,011_m_f_d_a.png,I,m,832,12,3,1845.2999999821186,312272.8000000119,8003,VNB,B,11
11,test,4,0.0,1-Back,0,m,Fri May 30 2025 10:45:46 GMT-0500 (Central Daylight Time),316334.1999999881,020_y_f_n_a.png,I,z,1199,13,3,2211.899999976158,314122.3000000119,8003,VNB,B,12
12,test,4,0.0,1-Back,1,m,Fri May 30 2025 10:45:46 GMT-0500 (Central Daylight Time),318250.09999999404,005_o_f_d_a.png,I,m,895,14,3,1911.9000000059605,316338.1999999881,8003,VNB,B,13
13,test,4,0.0,1-Back,1,m,Fri May 30 2025 10:45:46 GMT-0500 (Central Daylight Time),319966.3000000119,020_y_f_h_a.png,I,m,684,15,3,1712.300000011921,318254.0,8003,VNB,B,14
14,test,4,1.0,1-Back,1,z,Fri May 30 2025 10:45:46 GMT-0500 (Central Daylight Time),321715.59999999404,007_m_m_h_a.png,I,z,727,16,3,1745.0,319970.59999999404,8003,VNB,B,15
15,test,4,0.0,1-Back,1,m,Fri May 30 2025 10:45:46 GMT-0500 (Central Daylight Time),323398.6999999881,004_o_m_n_a.png,I,m,658,17,3,1679.0,321719.6999999881,8003,VNB,B,16
16,test,4,1.0,1-Back,1,z,Fri May 30 2025 10:45:46 GMT-0500 (Central Daylight Time),324964.90000000596,016_y_m_n_a.png,I,z,543,18,3,1562.0999999940395,323402.8000000119,8003,VNB,B,17
0,test,5,1.0,1-Back,,,Fri May 30 2025 10:45:46 GMT-0500 (Central Daylight Time),324964.90000000596,004_o_m_n_a.png,I,space,2944,1,3,1562.0999999940395,323402.8000000119,8003,VNB,B,0
1,test,5,1.0,1-Back,1,m,Fri May 30 2025 10:45:46 GMT-0500 (Central Daylight Time),331662.3000000119,005_o_f_h_a.png,I,m,715,2,3,1728.800000011921,329933.5,8003,VNB,B,1
2,test,5,0.0,1-Back,1,m,Fri May 30 2025 10:45:46 GMT-0500 (Central Daylight Time),333361.90000000596,016_y_m_d_a.png,I,m,670,3,3,1694.9000000059605,331667.0,8003,VNB,B,2
3,test,5,0.0,1-Back,1,z,Fri May 30 2025 10:45:46 GMT-0500 (Central Daylight Time),334845.09999999404,004_o_m_d_a.png,I,z,459,4,3,1479.699999988079,333365.40000000596,8003,VNB,B,3
4,test,5,0.0,1-Back,1,m,Fri May 30 2025 10:45:46 GMT-0500 (Central Daylight Time),336510.90000000596,011_m_f_h_a.png,I,m,640,5,3,1662.5,334848.40000000596,8003,VNB,B,4
5,test,5,0.0,1-Back,1,m,Fri May 30 2025 10:45:46 GMT-0500 (Central Daylight Time),338160.5,020_y_f_n_a.png,I,m,622,6,3,1645.9000000059605,336514.59999999404,8003,VNB,B,5
6,test,5,1.0,1-Back,1,z,Fri May 30 2025 10:45:46 GMT-0500 (Central Daylight Time),339793.59999999404,005_o_f_n_a.png,I,z,604,7,3,1628.0,338165.59999999404,8003,VNB,B,6
7,test,5,0.0,1-Back,1,m,Fri May 30 2025 10:45:46 GMT-0500 (Central Daylight Time),341459.59999999404,011_m_f_d_a.png,I,m,636,8,3,1662.0,339797.59999999404,8003,VNB,B,7
8,test,5,0.0,1-Back,1,m,Fri May 30 2025 10:45:46 GMT-0500 (Central Daylight Time),343459.0,016_y_m_h_a.png,I,m,977,9,3,1995.4000000059605,341463.59999999404,8003,VNB,B,8
9,test,5,0.0,1-Back,1,m,Fri May 30 2025 10:45:46 GMT-0500 (Central Daylight Time),345375.0,020_y_f_d_a.png,I,m,890,10,3,1911.800000011921,343463.1999999881,8003,VNB,B,9
10,test,5,0.0,1-Back,1,m,Fri May 30 2025 10:45:46 GMT-0500 (Central Daylight Time),347024.3000000119,007_m_m_n_a.png,I,m,630,11,3,1645.7000000178814,345378.59999999404,8003,VNB,B,10
11,test,5,1.0,1-Back,1,z,Fri May 30 2025 10:45:46 GMT-0500 (Central Daylight Time),348724.09999999404,011_m_f_n_a.png,I,z,669,12,3,1696.0999999940395,347028.0,8003,VNB,B,11
12,test,5,0.0,1-Back,1,m,Fri May 30 2025 10:45:46 GMT-0500 (Central Daylight Time),350540.0,004_o_m_h_a.png,I,m,793,13,3,1811.5999999940395,348728.40000000596,8003,VNB,B,12
13,test,5,0.0,1-Back,1,z,Fri May 30 2025 10:45:46 GMT-0500 (Central Daylight Time),352355.90000000596,007_m_m_h_a.png,I,z,785,14,3,1811.800000011921,350544.09999999404,8003,VNB,B,13
14,test,5,1.0,1-Back,1,m,Fri May 30 2025 10:45:46 GMT-0500 (Central Daylight Time),353955.59999999404,005_o_f_d_a.png,I,m,577,15,3,1595.5999999940395,352360.0,8003,VNB,B,14
15,test,5,0.0,1-Back,1,m,Fri May 30 2025 10:45:46 GMT-0500 (Central Daylight Time),355638.59999999404,016_y_m_n_a.png,I,m,657,16,3,1679.2999999821186,353959.3000000119,8003,VNB,B,15
16,test,5,0.0,1-Back,1,m,Fri May 30 2025 10:45:46 GMT-0500 (Central Daylight Time),357521.09999999404,020_y_f_h_a.png,I,m,863,17,3,1878.0999999940395,355643.0,8003,VNB,B,16
17,test,5,0.0,1-Back,1,m,Fri May 30 2025 10:45:46 GMT-0500 (Central Daylight Time),359187.1999999881,007_m_m_d_a.png,I,m,636,18,3,1661.7999999821186,357525.40000000596,8003,VNB,B,17
0,prac,1,0.0,2-Back,,,Fri May 30 2025 10:45:46 GMT-0500 (Central Daylight Time),359187.1999999881,011_m_f_n_a.png,I,space,4363,1,3,1661.7999999821186,357525.40000000596,8003,VNB,B,0
0,prac,1,0.0,2-Back,,,Fri May 30 2025 10:45:46 GMT-0500 (Central Daylight Time),359187.1999999881,005_o_f_h_a.png,I,space,4363,2,3,1661.7999999821186,357525.40000000596,8003,VNB,B,0
1,prac,1,0.0,2-Back,1,m,Fri May 30 2025 10:45:46 GMT-0500 (Central Daylight Time),456540.0,004_o_m_d_a.png,I,m,1193,3,3,2075.699999988079,454464.3000000119,8003,VNB,B,1
2,prac,1,1.0,2-Back,1,z,Fri May 30 2025 10:45:46 GMT-0500 (Central Daylight Time),458706.1999999881,007_m_m_h_a.png,I,z,1261,4,3,2159.699999988079,456546.5,8003,VNB,B,2
3,prac,1,0.0,2-Back,1,m,Fri May 30 2025 10:45:46 GMT-0500 (Central Daylight Time),460738.90000000596,020_y_f_n_a.png,I,m,1145,5,3,2025.800000011921,458713.09999999404,8003,VNB,B,3
3,prac,1,1.0,2-Back,0,z,Fri May 30 2025 10:45:46 GMT-0500 (Central Daylight Time),462738.0,004_o_m_h_a.png,I,m,1220,6,3,1992.4000000059605,460745.59999999404,8003,VNB,B,4
3,prac,1,1.0,2-Back,0,z,Fri May 30 2025 10:45:46 GMT-0500 (Central Daylight Time),464487.40000000596,016_y_m_n_a.png,I,m,843,7,3,1742.7000000178814,462744.6999999881,8003,VNB,B,5
3,prac,1,0.0,2-Back,0,m,Fri May 30 2025 10:45:46 GMT-0500 (Central Daylight Time),466653.90000000596,011_m_f_d_a.png,I,z,1276,8,3,2161.300000011921,464492.59999999404,8003,VNB,B,6
3,prac,1,0.0,2-Back,0,m,Fri May 30 2025 10:45:46 GMT-0500 (Central Daylight Time),468736.3000000119,005_o_f_d_a.png,I,z,1203,9,3,2077.300000011921,466659.0,8003,VNB,B,7
3,prac,1,0.0,2-Back,0,m,Fri May 30 2025 10:45:46 GMT-0500 (Central Daylight Time),471518.6999999881,007_m_m_h_a.png,I,None,2010,10,3,2776.699999988079,468742.0,8003,VNB,B,8
3,prac,1,1.0,2-Back,0,z,Fri May 30 2025 10:45:46 GMT-0500 (Central Daylight Time),473884.90000000596,020_y_f_d_a.png,I,m,1487,11,3,2360.5999999940395,471524.3000000119,8003,VNB,B,9
3,prac,1,0.0,2-Back,0,m,Fri May 30 2025 10:45:46 GMT-0500 (Central Daylight Time),475817.09999999404,004_o_m_n_a.png,I,z,1050,12,3,1926.199999988079,473890.90000000596,8003,VNB,B,10
0,prac,2,0.0,2-Back,,,Fri May 30 2025 10:45:46 GMT-0500 (Central Daylight Time),475817.09999999404,011_m_f_n_a.png,I,a,9105,1,3,1926.199999988079,473890.90000000596,8003,VNB,B,0
0,prac,2,0.0,2-Back,,,Fri May 30 2025 10:45:46 GMT-0500 (Central Daylight Time),475817.09999999404,005_o_f_h_a.png,I,a,9105,2,3,1926.199999988079,473890.90000000596,8003,VNB,B,0
1,prac,2,0.0,2-Back,1,m,Fri May 30 2025 10:45:46 GMT-0500 (Central Daylight Time),492145.5,004_o_m_d_a.png,I,m,1075,3,3,1925.800000011921,490219.6999999881,8003,VNB,B,1
2,prac,2,1.0,2-Back,1,z,Fri May 30 2025 10:45:46 GMT-0500 (Central Daylight Time),493745.3000000119,007_m_m_h_a.png,I,z,814,4,3,1594.0,492151.3000000119,8003,VNB,B,2
2,prac,2,0.0,2-Back,0,m,Fri May 30 2025 10:45:46 GMT-0500 (Central Daylight Time),495827.8000000119,020_y_f_n_a.png,I,z,1192,5,3,2077.5,493750.3000000119,8003,VNB,B,3
3,prac,2,1.0,2-Back,1,z,Fri May 30 2025 10:45:46 GMT-0500 (Central Daylight Time),497710.40000000596,004_o_m_h_a.png,I,z,1004,6,3,1878.0,495832.40000000596,8003,VNB,B,4
3,prac,2,1.0,2-Back,0,z,Fri May 30 2025 10:45:46 GMT-0500 (Central Daylight Time),499576.59999999404,016_y_m_n_a.png,I,m,966,7,3,1860.5999999940395,497716.0,8003,VNB,B,5
4,prac,2,0.0,2-Back,1,m,Fri May 30 2025 10:45:46 GMT-0500 (Central Daylight Time),501926.0,011_m_f_d_a.png,I,m,1460,8,3,2343.0999999940395,499582.90000000596,8003,VNB,B,6
4,prac,2,0.0,2-Back,0,m,Fri May 30 2025 10:45:46 GMT-0500 (Central Daylight Time),504825.0,005_o_f_d_a.png,I,None,2010,9,3,2893.9000000059605,501931.09999999404,8003,VNB,B,7
5,prac,2,0.0,2-Back,1,m,Fri May 30 2025 10:45:46 GMT-0500 (Central Daylight Time),506724.40000000596,007_m_m_h_a.png,I,m,1111,10,3,1894.0999999940395,504830.3000000119,8003,VNB,B,8
6,prac,2,1.0,2-Back,1,z,Fri May 30 2025 10:45:46 GMT-0500 (Central Daylight Time),508640.5,020_y_f_d_a.png,I,z,1028,11,3,1909.300000011921,506731.1999999881,8003,VNB,B,9
7,prac,2,0.0,2-Back,1,m,Fri May 30 2025 10:45:46 GMT-0500 (Central Daylight Time),510656.5,004_o_m_n_a.png,I,m,1141,12,3,2010.4000000059605,508646.09999999404,8003,VNB,B,10
0,test,1,0.0,2-Back,,,Fri May 30 2025 10:45:46 GMT-0500 (Central Daylight Time),510656.5,016_y_m_h_a.png,I,space,8655,1,3,2010.4000000059605,508646.09999999404,8003,VNB,B,0
0,test,1,0.0,2-Back,,,Fri May 30 2025 10:45:46 GMT-0500 (Central Daylight Time),510656.5,005_o_f_n_a.png,I,space,8655,2,3,2010.4000000059605,508646.09999999404,8003,VNB,B,0
1,test,1,0.0,2-Back,1,z,Fri May 30 2025 10:45:46 GMT-0500 (Central Daylight Time),538532.0,004_o_m_h_a.png,I,z,1083,3,3,2096.5,536435.5,8003,VNB,B,1
2,test,1,0.0,2-Back,1,m,Fri May 30 2025 10:45:46 GMT-0500 (Central Daylight Time),540563.6999999881,011_m_f_d_a.png,I,m,1002,4,3,2028.0,538535.6999999881,8003,VNB,B,2
3,test,1,1.0,2-Back,1,m,Fri May 30 2025 10:45:46 GMT-0500 (Central Daylight Time),542496.599999994,016_y_m_n_a.png,I,m,905,5,3,1929.4000000059605,540567.1999999881,8003,VNB,B,3
3,test,1,0.0,2-Back,0,z,Fri May 30 2025 10:45:46 GMT-0500 (Central Daylight Time),544795.599999994,020_y_f_d_a.png,I,m,1277,6,3,2295.4000000059605,542500.1999999881,8003,VNB,B,4
4,test,1,0.0,2-Back,1,m,Fri May 30 2025 10:45:46 GMT-0500 (Central Daylight Time),547145.099999994,007_m_m_h_a.png,I,m,1321,7,3,2346.0,544799.099999994,8003,VNB,B,5
4,test,1,1.0,2-Back,0,m,Fri May 30 2025 10:45:46 GMT-0500 (Central Daylight Time),548877.8000000119,020_y_f_n_a.png,I,z,700,8,3,1729.1000000238419,547148.6999999881,8003,VNB,B,6
5,test,1,0.0,2-Back,1,z,Fri May 30 2025 10:45:46 GMT-0500 (Central Daylight Time),551176.900000006,005_o_f_h_a.png,I,z,1279,9,3,2295.800000011921,548881.099999994,8003,VNB,B,7
6,test,1,0.0,2-Back,1,m,Fri May 30 2025 10:45:46 GMT-0500 (Central Daylight Time),553526.1999999881,004_o_m_d_a.png,I,m,1324,10,3,2346.199999988079,551180.0,8003,VNB,B,8
7,test,1,1.0,2-Back,1,m,Fri May 30 2025 10:45:46 GMT-0500 (Central Daylight Time),555342.8000000119,007_m_m_d_a.png,I,m,799,11,3,1813.300000011921,553529.5,8003,VNB,B,9
8,test,1,0.0,2-Back,1,m,Fri May 30 2025 10:45:46 GMT-0500 (Central Daylight Time),557308.3000000119,011_m_f_n_a.png,I,m,935,12,3,1961.1000000238419,555347.1999999881,8003,VNB,B,10
9,test,1,0.0,2-Back,1,m,Fri May 30 2025 10:45:46 GMT-0500 (Central Daylight Time),559457.8000000119,020_y_f_h_a.png,I,m,1129,13,3,2146.2000000178814,557311.599999994,8003,VNB,B,11
10,test,1,0.0,2-Back,1,z,Fri May 30 2025 10:45:46 GMT-0500 (Central Daylight Time),561507.3000000119,007_m_m_n_a.png,I,z,1020,14,3,2045.800000011921,559461.5,8003,VNB,B,12
11,test,1,0.0,2-Back,1,m,Fri May 30 2025 10:45:46 GMT-0500 (Central Daylight Time),563656.3000000119,016_y_m_d_a.png,I,m,1122,15,3,2145.600000023842,561510.6999999881,8003,VNB,B,13
11,test,1,1.0,2-Back,0,m,Fri May 30 2025 10:45:46 GMT-0500 (Central Daylight Time),565606.099999994,011_m_f_h_a.png,I,z,917,16,3,1945.2999999821186,563660.8000000119,8003,VNB,B,14
11,test,1,0.0,2-Back,0,z,Fri May 30 2025 10:45:46 GMT-0500 (Central Daylight Time),567655.400000006,005_o_f_d_a.png,I,m,1024,17,3,2045.9000000059605,565609.5,8003,VNB,B,15
12,test,1,0.0,2-Back,1,m,Fri May 30 2025 10:45:46 GMT-0500 (Central Daylight Time),569821.1999999881,004_o_m_n_a.png,I,m,1134,18,3,2161.699999988079,567659.5,8003,VNB,B,16
0,test,2,0.0,2-Back,,,Fri May 30 2025 10:45:46 GMT-0500 (Central Daylight Time),569821.1999999881,007_m_m_h_a.png,I,space,3856,1,3,2161.699999988079,567659.5,8003,VNB,B,0
0,test,2,0.0,2-Back,,,Fri May 30 2025 10:45:46 GMT-0500 (Central Daylight Time),569821.1999999881,020_y_f_n_a.png,I,space,3856,2,3,2161.699999988079,567659.5,8003,VNB,B,0
1,test,2,1.0,2-Back,1,z,Fri May 30 2025 10:45:46 GMT-0500 (Central Daylight Time),581300.900000006,005_o_f_h_a.png,I,z,1318,3,3,2345.7000000178814,578955.1999999881,8003,VNB,B,1
2,test,2,0.0,2-Back,1,m,Fri May 30 2025 10:45:46 GMT-0500 (Central Daylight Time),583700.099999994,004_o_m_d_a.png,I,m,1377,4,3,2395.5,581304.599999994,8003,VNB,B,2
3,test,2,0.0,2-Back,1,m,Fri May 30 2025 10:45:46 GMT-0500 (Central Daylight Time),586032.400000006,011_m_f_d_a.png,I,m,1305,5,3,2328.9000000059605,583703.5,8003,VNB,B,3
3,test,2,0.0,2-Back,0,m,Fri May 30 2025 10:45:46 GMT-0500 (Central Daylight Time),588481.599999994,016_y_m_h_a.png,I,z,1428,6,3,2444.7999999821186,586036.8000000119,8003,VNB,B,4
4,test,2,0.0,2-Back,1,m,Fri May 30 2025 10:45:46 GMT-0500 (Central Daylight Time),590781.1999999881,005_o_f_n_a.png,I,m,1275,7,3,2295.699999988079,588485.5,8003,VNB,B,5
4,test,2,1.0,2-Back,0,z,Fri May 30 2025 10:45:46 GMT-0500 (Central Daylight Time),592863.900000006,004_o_m_h_a.png,I,m,1064,8,3,2078.5999999940395,590785.3000000119,8003,VNB,B,6
5,test,2,0.0,2-Back,1,m,Fri May 30 2025 10:45:46 GMT-0500 (Central Daylight Time),594980.099999994,020_y_f_d_a.png,I,m,1085,9,3,2112.0999999940395,592868.0,8003,VNB,B,7
6,test,2,0.0,2-Back,1,m,Fri May 30 2025 10:45:46 GMT-0500 (Central Daylight Time),597080.099999994,016_y_m_d_a.png,I,m,1082,10,3,2096.199999988079,594983.900000006,8003,VNB,B,8
7,test,2,0.0,2-Back,1,m,Fri May 30 2025 10:45:46 GMT-0500 (Central Daylight Time),598962.0,007_m_m_n_a.png,I,m,862,11,3,1878.0999999940395,597083.900000006,8003,VNB,B,9
8,test,2,0.0,2-Back,1,m,Fri May 30 2025 10:45:46 GMT-0500 (Central Daylight Time),601011.5,011_m_f_h_a.png,I,m,1019,12,3,2045.199999988079,598966.3000000119,8003,VNB,B,10
9,test,2,1.0,2-Back,1,z,Fri May 30 2025 10:45:46 GMT-0500 (Central Daylight Time),602877.3000000119,004_o_m_n_a.png,I,z,842,13,3,1862.1000000238419,601015.1999999881,8003,VNB,B,11
10,test,2,0.0,2-Back,1,m,Fri May 30 2025 10:45:46 GMT-0500 (Central Daylight Time),604910.099999994,005_o_f_d_a.png,I,m,1007,14,3,2029.199999988079,602880.900000006,8003,VNB,B,12
10,test,2,0.0,2-Back,0,m,Fri May 30 2025 10:45:46 GMT-0500 (Central Daylight Time),606942.900000006,020_y_f_h_a.png,I,z,1007,15,3,2029.5,604913.400000006,8003,VNB,B,13
10,test,2,0.0,2-Back,0,z,Fri May 30 2025 10:45:46 GMT-0500 (Central Daylight Time),608942.0,007_m_m_d_a.png,I,m,974,16,3,1994.9000000059605,606947.099999994,8003,VNB,B,14
11,test,2,0.0,2-Back,1,m,Fri May 30 2025 10:45:46 GMT-0500 (Central Daylight Time),610974.599999994,016_y_m_n_a.png,I,m,1015,17,3,2028.5999999940395,608946.0,8003,VNB,B,15
11,test,2,1.0,2-Back,0,m,Fri May 30 2025 10:45:46 GMT-0500 (Central Daylight Time),613224.3000000119,011_m_f_n_a.png,I,z,1222,18,3,2245.7000000178814,610978.599999994,8003,VNB,B,16
0,test,3,1.0,2-Back,,,Fri May 30 2025 10:45:46 GMT-0500 (Central Daylight Time),613224.3000000119,004_o_m_n_a.png,I,space,10637,1,3,2245.7000000178814,610978.599999994,8003,VNB,B,0
0,test,3,1.0,2-Back,,,Fri May 30 2025 10:45:46 GMT-0500 (Central Daylight Time),613224.3000000119,005_o_f_d_a.png,I,space,10637,2,3,2245.7000000178814,610978.599999994,8003,VNB,B,0
1,test,3,0.0,2-Back,1,m,Fri May 30 2025 10:45:46 GMT-0500 (Central Daylight Time),630768.599999994,020_y_f_h_a.png,I,m,822,3,3,1845.4000000059605,628923.1999999881,8003,VNB,B,1
2,test,3,0.0,2-Back,1,z,Fri May 30 2025 10:45:46 GMT-0500 (Central Daylight Time),632551.6999999881,011_m_f_d_a.png,I,z,765,4,3,1779.699999988079,630772.0,8003,VNB,B,2
3,test,3,1.0,2-Back,1,m,Fri May 30 2025 10:45:46 GMT-0500 (Central Daylight Time),634550.8000000119,016_y_m_n_a.png,I,m,982,5,3,1995.2000000178814,632555.599999994,8003,VNB,B,3
3,test,3,0.0,2-Back,0,m,Fri May 30 2025 10:45:46 GMT-0500 (Central Daylight Time),636983.1999999881,004_o_m_h_a.png,I,z,1407,6,3,2428.7999999821186,634554.400000006,8003,VNB,B,4
3,test,3,0.0,2-Back,0,z,Fri May 30 2025 10:45:46 GMT-0500 (Central Daylight Time),638949.5,020_y_f_n_a.png,I,m,934,7,3,1962.5,636987.0,8003,VNB,B,5
4,test,3,1.0,2-Back,1,m,Fri May 30 2025 10:45:46 GMT-0500 (Central Daylight Time),641165.400000006,007_m_m_d_a.png,I,m,1184,8,3,2212.0,638953.400000006,8003,VNB,B,6
5,test,3,0.0,2-Back,1,m,Fri May 30 2025 10:45:46 GMT-0500 (Central Daylight Time),643398.099999994,016_y_m_d_a.png,I,m,1199,9,3,2229.0999999940395,641169.0,8003,VNB,B,7
6,test,3,0.0,2-Back,1,m,Fri May 30 2025 10:45:46 GMT-0500 (Central Daylight Time),645330.6999999881,005_o_f_h_a.png,I,m,910,10,3,1928.699999988079,643402.0,8003,VNB,B,8
6,test,3,1.0,2-Back,0,m,Fri May 30 2025 10:45:46 GMT-0500 (Central Daylight Time),647147.099999994,011_m_f_n_a.png,I,z,786,11,3,1812.0999999940395,645335.0,8003,VNB,B,9
6,test,3,1.0,2-Back,0,z,Fri May 30 2025 10:45:46 GMT-0500 (Central Daylight Time),649245.8000000119,007_m_m_h_a.png,I,m,1065,12,3,2094.9000000059605,647150.900000006,8003,VNB,B,10
7,test,3,0.0,2-Back,1,m,Fri May 30 2025 10:45:46 GMT-0500 (Central Daylight Time),651645.599999994,020_y_f_d_a.png,I,m,1375,13,3,2395.7999999821186,649249.8000000119,8003,VNB,B,11
8,test,3,0.0,2-Back,1,m,Fri May 30 2025 10:45:46 GMT-0500 (Central Daylight Time),653694.6999999881,005_o_f_n_a.png,I,m,1032,14,3,2045.5,651649.1999999881,8003,VNB,B,12
9,test,3,0.0,2-Back,1,z,Fri May 30 2025 10:45:46 GMT-0500 (Central Daylight Time),655444.3000000119,004_o_m_d_a.png,I,z,718,15,3,1745.7000000178814,653698.599999994,8003,VNB,B,13
10,test,3,1.0,2-Back,1,m,Fri May 30 2025 10:45:46 GMT-0500 (Central Daylight Time),657343.8000000119,011_m_f_h_a.png,I,m,862,16,3,1896.1000000238419,655447.6999999881,8003,VNB,B,14
11,test,3,0.0,2-Back,1,m,Fri May 30 2025 10:45:46 GMT-0500 (Central Daylight Time),659192.900000006,007_m_m_n_a.png,I,m,829,17,3,1844.0999999940395,657348.8000000119,8003,VNB,B,15
12,test,3,0.0,2-Back,1,z,Fri May 30 2025 10:45:46 GMT-0500 (Central Daylight Time),660809.1999999881,016_y_m_h_a.png,I,z,588,18,3,1612.5999999940395,659196.599999994,8003,VNB,B,16
0,test,4,0.0,2-Back,,,Fri May 30 2025 10:45:46 GMT-0500 (Central Daylight Time),660809.1999999881,011_m_f_n_a.png,I,space,10084,1,3,1612.5999999940395,659196.599999994,8003,VNB,B,0
0,test,4,0.0,2-Back,,,Fri May 30 2025 10:45:46 GMT-0500 (Central Daylight Time),660809.1999999881,004_o_m_n_a.png,I,space,10084,2,3,1612.5999999940395,659196.599999994,8003,VNB,B,0
1,test,4,1.0,2-Back,1,m,Fri May 30 2025 10:45:46 GMT-0500 (Central Daylight Time),678454.0,016_y_m_h_a.png,I,m,1250,3,3,2278.9000000059605,676175.099999994,8003,VNB,B,1
1,test,4,1.0,2-Back,0,m,Fri May 30 2025 10:45:46 GMT-0500 (Central Daylight Time),680403.3000000119,005_o_f_d_a.png,I,z,919,4,3,1945.9000000059605,678457.400000006,8003,VNB,B,2
2,test,4,0.0,2-Back,1,z,Fri May 30 2025 10:45:46 GMT-0500 (Central Daylight Time),682202.5,004_o_m_h_a.png,I,z,770,5,3,1795.300000011921,680407.1999999881,8003,VNB,B,3
3,test,4,0.0,2-Back,1,m,Fri May 30 2025 10:45:46 GMT-0500 (Central Daylight Time),684285.1999999881,007_m_m_n_a.png,I,m,1059,6,3,2079.0999999940395,682206.099999994,8003,VNB,B,4
4,test,4,0.0,2-Back,1,m,Fri May 30 2025 10:45:46 GMT-0500 (Central Daylight Time),686584.400000006,011_m_f_d_a.png,I,m,1279,7,3,2295.0,684289.400000006,8003,VNB,B,5
5,test,4,0.0,2-Back,1,z,Fri May 30 2025 10:45:46 GMT-0500 (Central Daylight Time),688533.6999999881,020_y_f_n_a.png,I,z,925,8,3,1946.0999999940395,686587.599999994,8003,VNB,B,6
5,test,4,1.0,2-Back,0,m,Fri May 30 2025 10:45:46 GMT-0500 (Central Daylight Time),690699.900000006,005_o_f_h_a.png,I,z,1143,9,3,2162.5,688537.400000006,8003,VNB,B,7
6,test,4,0.0,2-Back,1,m,Fri May 30 2025 10:45:46 GMT-0500 (Central Daylight Time),692882.5,007_m_m_h_a.png,I,m,1161,10,3,2178.9000000059605,690703.599999994,8003,VNB,B,8
7,test,4,0.0,2-Back,1,m,Fri May 30 2025 10:45:46 GMT-0500 (Central Daylight Time),694782.1999999881,020_y_f_d_a.png,I,m,867,11,3,1896.0,692886.1999999881,8003,VNB,B,9
8,test,4,0.0,2-Back,1,m,Fri May 30 2025 10:45:46 GMT-0500 (Central Daylight Time),696731.1999999881,016_y_m_n_a.png,I,m,927,12,3,1945.5,694785.6999999881,8003,VNB,B,10
9,test,4,0.0,2-Back,1,z,Fri May 30 2025 10:45:46 GMT-0500 (Central Daylight Time),698913.8000000119,004_o_m_d_a.png,I,z,1154,13,3,2178.7000000178814,696735.099999994,8003,VNB,B,11
10,test,4,1.0,2-Back,1,m,Fri May 30 2025 10:45:46 GMT-0500 (Central Daylight Time),701163.099999994,011_m_f_h_a.png,I,m,1219,14,3,2245.199999988079,698917.900000006,8003,VNB,B,12
11,test,4,1.0,2-Back,1,m,Fri May 30 2025 10:45:46 GMT-0500 (Central Daylight Time),703608.3000000119,020_y_f_h_a.png,I,m,1280,15,3,2441.2000000178814,701167.099999994,8003,VNB,B,13
12,test,4,0.0,2-Back,1,m,Fri May 30 2025 10:45:46 GMT-0500 (Central Daylight Time),705528.5,005_o_f_n_a.png,I,m,889,16,3,1916.0999999940395,703612.400000006,8003,VNB,B,14
13,test,4,0.0,2-Back,1,m,Fri May 30 2025 10:45:46 GMT-0500 (Central Daylight Time),707977.900000006,016_y_m_d_a.png,I,m,1420,17,3,2445.2000000178814,705532.6999999881,8003,VNB,B,15
13,test,4,1.0,2-Back,0,m,Fri May 30 2025 10:45:46 GMT-0500 (Central Daylight Time),709928.1999999881,007_m_m_d_a.png,I,z,932,18,3,1946.5999999940395,707981.599999994,8003,VNB,B,16
0,test,5,1.0,2-Back,,,Fri May 30 2025 10:45:46 GMT-0500 (Central Daylight Time),709928.1999999881,020_y_f_d_a.png,I,space,16861,1,3,1946.5999999940395,707981.599999994,8003,VNB,B,0
0,test,5,1.0,2-Back,,,Fri May 30 2025 10:45:46 GMT-0500 (Central Daylight Time),709928.1999999881,005_o_f_h_a.png,I,space,16861,2,3,1946.5999999940395,707981.599999994,8003,VNB,B,0
1,test,5,1.0,2-Back,1,z,Fri May 30 2025 10:45:46 GMT-0500 (Central Daylight Time),734019.900000006,004_o_m_d_a.png,I,z,919,3,3,1945.5,732074.400000006,8003,VNB,B,1
2,test,5,1.0,2-Back,1,m,Fri May 30 2025 10:45:46 GMT-0500 (Central Daylight Time),735835.8000000119,011_m_f_n_a.png,I,m,786,4,3,1812.800000011921,734023.0,8003,VNB,B,2
3,test,5,0.0,2-Back,1,m,Fri May 30 2025 10:45:46 GMT-0500 (Central Daylight Time),737884.900000006,007_m_m_h_a.png,I,m,1026,5,3,2045.300000011921,735839.599999994,8003,VNB,B,3
3,test,5,0.0,2-Back,0,z,Fri May 30 2025 10:45:46 GMT-0500 (Central Daylight Time),739917.599999994,020_y_f_n_a.png,I,m,1000,6,3,2028.5,737889.099999994,8003,VNB,B,4
4,test,5,0.0,2-Back,1,m,Fri May 30 2025 10:45:46 GMT-0500 (Central Daylight Time),741833.900000006,005_o_f_d_a.png,I,m,888,7,3,1911.7000000178814,739922.1999999881,8003,VNB,B,5
5,test,5,0.0,2-Back,1,m,Fri May 30 2025 10:45:46 GMT-0500 (Central Daylight Time),743950.900000006,004_o_m_h_a.png,I,m,1091,8,3,2113.300000011921,741837.599999994,8003,VNB,B,6
6,test,5,1.0,2-Back,1,z,Fri May 30 2025 10:45:46 GMT-0500 (Central Daylight Time),745715.8000000119,011_m_f_d_a.png,I,z,744,9,3,1760.1000000238419,743955.6999999881,8003,VNB,B,7
7,test,5,0.0,2-Back,1,m,Fri May 30 2025 10:45:46 GMT-0500 (Central Daylight Time),747815.3000000119,016_y_m_n_a.png,I,m,1081,10,3,2096.0,745719.3000000119,8003,VNB,B,8
8,test,5,0.0,2-Back,1,m,Fri May 30 2025 10:45:46 GMT-0500 (Central Daylight Time),749731.1999999881,007_m_m_n_a.png,I,m,894,11,3,1912.199999988079,747819.0,8003,VNB,B,9
8,test,5,0.0,2-Back,0,m,Fri May 30 2025 10:45:46 GMT-0500 (Central Daylight Time),751514.0,020_y_f_h_a.png,I,z,742,12,3,1778.5,749735.5,8003,VNB,B,10
9,test,5,0.0,2-Back,1,m,Fri May 30 2025 10:45:46 GMT-0500 (Central Daylight Time),753480.1999999881,016_y_m_d_a.png,I,m,939,13,3,1962.3999999761581,751517.8000000119,8003,VNB,B,11
9,test,5,1.0,2-Back,0,z,Fri May 30 2025 10:45:46 GMT-0500 (Central Daylight Time),755479.599999994,011_m_f_h_a.png,I,m,981,14,3,1996.2999999821186,753483.3000000119,8003,VNB,B,12
9,test,5,0.0,2-Back,0,m,Fri May 30 2025 10:45:46 GMT-0500 (Central Daylight Time),757945.3000000119,004_o_m_n_a.png,I,z,1446,15,3,2461.5,755483.8000000119,8003,VNB,B,13
10,test,5,0.0,2-Back,1,m,Fri May 30 2025 10:45:46 GMT-0500 (Central Daylight Time),760044.6999999881,007_m_m_d_a.png,I,m,1076,16,3,2095.2999999821186,757949.400000006,8003,VNB,B,14
11,test,5,0.0,2-Back,1,z,Fri May 30 2025 10:45:46 GMT-0500 (Central Daylight Time),762177.3000000119,005_o_f_n_a.png,I,z,1104,17,3,2128.4000000059605,760048.900000006,8003,VNB,B,15
12,test,5,1.0,2-Back,1,m,Fri May 30 2025 10:45:46 GMT-0500 (Central Daylight Time),764426.5,016_y_m_h_a.png,I,m,1227,18,3,2245.5,762181.0,8003,VNB,B,16
