acc_sum,block,block_c,condition,correct,correct_response,datetime,endtime,flanker,jitter,project,response,response_test_buffer_response,response_test_target_response,response_time,response_time_test_buffer_response,response_time_test_target_response,row_sel,session_number,start_end,starttime,subject_id,target,task,task_vers,time_test_buffer,time_test_buffer_response,time_test_constants,time_test_flanker,time_test_jitter,time_test_logger,time_test_target,time_test_target_response,time_test_variables,trial
1,prac,1,inc,1,z,Wed Mar 18 2026 09:57:24 GMT-0500 (Central Daylight Time),123540.20000004768,iron,900,I,z,,,1045,,,6,1,3245.3000000715256,120294.89999997616,7783,pear,NF,C,,,,,,,,,,1
2,prac,1,con,1,m,Wed Mar 18 2026 09:57:24 GMT-0500 (Central Daylight Time),126623.39999997616,bronze,800,I,m,,,975,,,9,1,3079.899999976158,123543.5,7783,bronze,NF,C,,,,,,,,,,2
3,prac,1,con,1,m,Wed Mar 18 2026 09:57:24 GMT-0500 (Central Daylight Time),129689.39999997616,gold,800,I,m,,,973,,,13,1,3062.600000023842,126626.79999995232,7783,gold,NF,C,,,,,,,,,,3
4,prac,1,con,1,m,Wed Mar 18 2026 09:57:24 GMT-0500 (Central Daylight Time),132887.60000002384,silver,1000,I,m,,,898,,,11,1,3194.8000000715256,129692.79999995232,7783,silver,NF,C,,,,,,,,,,4
5,prac,1,inc,1,m,Wed Mar 18 2026 09:57:24 GMT-0500 (Central Daylight Time),135936.0,pear,900,I,m,,,849,,,14,1,3043.899999976158,132892.10000002384,7783,iron,NF,C,,,,,,,,,,5
6,prac,1,inc,1,m,Wed Mar 18 2026 09:57:24 GMT-0500 (Central Daylight Time),139286.29999995232,plum,1100,I,m,,,960,,,16,1,3347.0,135939.29999995232,7783,lead,NF,C,,,,,,,,,,6
7,prac,1,inc,1,z,Wed Mar 18 2026 09:57:24 GMT-0500 (Central Daylight Time),142518.89999997616,lead,1100,I,z,,,825,,,8,1,3229.5,139289.39999997616,7783,plum,NF,C,,,,,,,,,,7
8,prac,1,con,1,z,Wed Mar 18 2026 09:57:24 GMT-0500 (Central Daylight Time),145683.70000004768,kiwi,1000,I,z,,,853,,,7,1,3161.5,142522.20000004768,7783,kiwi,NF,C,,,,,,,,,,8
9,prac,1,inc,1,z,Wed Mar 18 2026 09:57:24 GMT-0500 (Central Daylight Time),148832.39999997616,copper,900,I,z,,,932,,,2,1,3145.399999976158,145687.0,7783,cherry,NF,C,,,,,,,,,,9
9,prac,1,con,0,z,Wed Mar 18 2026 09:57:24 GMT-0500 (Central Daylight Time),151399.60000002384,lime,800,I,m,,,451,,,5,1,2563.7000000476837,148835.89999997616,7783,lime,NF,C,,,,,,,,,,10
10,prac,1,inc,1,m,Wed Mar 18 2026 09:57:24 GMT-0500 (Central Daylight Time),154431.60000002384,raisin,1100,I,m,,,618,,,12,1,3027.399999976158,151404.20000004768,7783,cobalt,NF,C,,,,,,,,,,11
11,prac,1,con,1,z,Wed Mar 18 2026 09:57:24 GMT-0500 (Central Daylight Time),157363.20000004768,banana,800,I,z,,,822,,,1,1,2928.2000000476837,154435.0,7783,banana,NF,C,,,,,,,,,,12
12,prac,1,inc,1,m,Wed Mar 18 2026 09:57:24 GMT-0500 (Central Daylight Time),160445.79999995232,cherry,900,I,m,,,869,,,10,1,3079.5999999046326,157366.20000004768,7783,copper,NF,C,,,,,,,,,,13
13,prac,1,inc,1,z,Wed Mar 18 2026 09:57:24 GMT-0500 (Central Daylight Time),163678.5,cobalt,1100,I,z,,,817,,,4,1,3229.5,160449.0,7783,raisin,NF,C,,,,,,,,,,14
14,prac,1,con,1,m,Wed Mar 18 2026 09:57:24 GMT-0500 (Central Daylight Time),166860.39999997616,zinc,1000,I,m,,,870,,,15,1,3178.2999999523163,163682.10000002384,7783,zinc,NF,C,,,,,,,,,,15
15,prac,1,con,1,z,Wed Mar 18 2026 09:57:24 GMT-0500 (Central Daylight Time),170075.89999997616,orange,1000,I,z,,,905,,,3,1,3211.6999999284744,166864.20000004768,7783,orange,NF,C,,,,,,,,,,16
1,test,1,con,1,z,Wed Mar 18 2026 09:57:24 GMT-0500 (Central Daylight Time),181306.70000004768,pear,900,I,z,z,None,801,600.0,201.0,42,1,2245.7000000476837,179061.0,7783,pear,NF,C,176055,176055,174426,175338,174426,176672,175854,175854,176672,1
2,test,1,con,1,m,Wed Mar 18 2026 09:57:24 GMT-0500 (Central Daylight Time),183705.70000004768,iron,1000,I,m,m,None,850,651.0,199.0,107,1,2394.600000023842,181311.10000002384,7783,iron,NF,C,178404,178404,176676,177687,176676,179071,178204,178204,179071,2
3,test,1,inc,1,z,Wed Mar 18 2026 09:57:24 GMT-0500 (Central Daylight Time),185987.0,gold,800,I,z,z,None,946,745.0,201.0,61,1,2278.2000000476837,183708.79999995232,7783,plum,NF,C,180605,180605,179074,179887,179074,181352,180403,180403,181352,3
4,test,1,inc,1,m,Wed Mar 18 2026 09:57:24 GMT-0500 (Central Daylight Time),188253.39999997616,pear,900,I,m,m,None,820,620.0,200.0,102,1,2263.2999999523163,185990.10000002384,7783,gold,NF,C,182987,182987,181355,182269,181355,183619,182786,182786,183618,4
5,test,1,inc,1,z,Wed Mar 18 2026 09:57:24 GMT-0500 (Central Daylight Time),190636.29999995232,zinc,1000,I,z,z,None,839,639.0,200.0,63,1,2378.5999999046326,188257.70000004768,7783,plum,NF,C,185351,185351,183623,184635,183623,186001,185151,185151,186001,5
6,test,1,con,1,m,Wed Mar 18 2026 09:57:24 GMT-0500 (Central Daylight Time),193053.20000004768,zinc,1100,I,m,m,None,783,583.0,200.0,116,1,2413.5,190639.70000004768,7783,zinc,NF,C,187835,187835,186005,187118,186005,188419,187635,187635,188418,6
7,test,1,con,1,z,Wed Mar 18 2026 09:57:24 GMT-0500 (Central Daylight Time),195284.29999995232,banana,800,I,z,z,None,890,684.0,206.0,1,1,2225.1999999284744,193059.10000002384,7783,banana,NF,C,189955,189955,188424,189233,188424,190649,189749,189749,190649,7
8,test,1,inc,1,z,Wed Mar 18 2026 09:57:24 GMT-0500 (Central Daylight Time),197684.20000004768,iron,900,I,z,z,None,956,755.0,201.0,46,1,2396.600000023842,195287.60000002384,7783,pear,NF,C,192283,192283,190653,191566,190653,193049,192082,192082,193049,8
9,test,1,con,1,m,Wed Mar 18 2026 09:57:24 GMT-0500 (Central Daylight Time),200250.0,cobalt,1100,I,m,m,None,916,716.0,200.0,92,1,2562.899999976158,197687.10000002384,7783,cobalt,NF,C,194882,194882,193052,194166,193052,195615,194681,194681,195615,9
10,test,1,inc,1,m,Wed Mar 18 2026 09:57:24 GMT-0500 (Central Daylight Time),202631.70000004768,orange,1000,I,m,m,None,833,634.0,199.0,71,1,2378.3000000715256,200253.39999997616,7783,bronze,NF,C,197348,197348,195618,196633,195619,197997,197148,197148,197997,10
11,test,1,inc,1,m,Wed Mar 18 2026 09:57:24 GMT-0500 (Central Daylight Time),205180.79999995232,orange,1000,I,m,m,None,1019,804.0,215.0,87,1,2545.5,202635.29999995232,7783,silver,NF,C,199730,199730,198000,199014,198001,200546,199515,199515,200546,11
12,test,1,con,1,m,Wed Mar 18 2026 09:57:24 GMT-0500 (Central Daylight Time),207282.29999995232,lead,800,I,m,m,None,751,552.0,199.0,121,1,2098.5,205183.79999995232,7783,lead,NF,C,202079,202079,200549,201364,200549,202647,201880,201880,202647,12
13,test,1,con,1,z,Wed Mar 18 2026 09:57:24 GMT-0500 (Central Daylight Time),209430.5,banana,900,I,z,z,None,712,512.0,200.0,2,1,2143.7000000476837,207286.79999995232,7783,banana,NF,C,204279,204279,202652,203562,202652,204796,204079,204079,204796,13
14,test,1,inc,1,m,Wed Mar 18 2026 09:57:24 GMT-0500 (Central Daylight Time),211596.5,lime,800,I,m,m,None,822,623.0,199.0,109,1,2162.100000023842,209434.39999997616,7783,iron,NF,C,206328,206328,204799,205611,204800,206962,206128,206128,206961,14
15,test,1,inc,1,z,Wed Mar 18 2026 09:57:24 GMT-0500 (Central Daylight Time),213745.70000004768,bronze,800,I,z,z,None,809,607.0,202.0,5,1,2145.3000000715256,211600.39999997616,7783,banana,NF,C,208496,208496,206965,207777,206966,209111,208294,208294,209111,15
16,test,1,inc,1,z,Wed Mar 18 2026 09:57:24 GMT-0500 (Central Daylight Time),216060.89999997616,bronze,800,I,z,z,None,994,795.0,199.0,29,1,2311.399999976158,213749.5,7783,raisin,NF,C,210628,210628,209115,209926,209115,211426,210428,210428,211426,16
17,test,1,con,1,z,Wed Mar 18 2026 09:57:24 GMT-0500 (Central Daylight Time),218160.29999995232,cherry,800,I,z,z,None,759,560.0,199.0,9,1,2096.0,216064.29999995232,7783,cherry,NF,C,212960,212960,211429,212243,211430,213525,212760,212760,213525,17
18,test,1,inc,1,z,Wed Mar 18 2026 09:57:24 GMT-0500 (Central Daylight Time),220576.29999995232,lead,1100,I,z,z,None,766,567.0,199.0,64,1,2403.5999999046326,218172.70000004768,7783,plum,NF,C,215359,215359,213538,214642,213538,215941,215159,215159,215941,18
19,test,1,inc,1,z,Wed Mar 18 2026 09:57:24 GMT-0500 (Central Daylight Time),222742.70000004768,gold,800,I,z,z,None,827,628.0,199.0,53,1,2163.600000023842,220579.10000002384,7783,kiwi,NF,C,217475,217475,215944,216758,215944,218108,217276,217276,218108,19
20,test,1,inc,1,m,Wed Mar 18 2026 09:57:24 GMT-0500 (Central Daylight Time),225158.29999995232,raisin,1100,I,m,m,None,779,579.0,200.0,72,1,2412.6999999284744,222745.60000002384,7783,bronze,NF,C,219940,219940,218111,219225,218111,220523,219740,219740,220523,20
21,test,1,inc,1,m,Wed Mar 18 2026 09:57:24 GMT-0500 (Central Daylight Time),227307.79999995232,banana,800,I,m,m,None,804,589.0,215.0,85,1,2146.0999999046326,225161.70000004768,7783,silver,NF,C,222073,222073,220527,221340,220527,222673,221858,221858,222673,21
22,test,1,inc,1,z,Wed Mar 18 2026 09:57:24 GMT-0500 (Central Daylight Time),229791.0,lead,1100,I,z,z,None,859,644.0,215.0,56,1,2480.2999999523163,227310.70000004768,7783,kiwi,NF,C,224506,224506,222676,223789,222676,225156,224291,224291,225156,22
23,test,1,con,1,m,Wed Mar 18 2026 09:57:24 GMT-0500 (Central Daylight Time),232023.79999995232,cobalt,900,I,m,m,None,786,586.0,200.0,90,1,2229.5999999046326,229794.20000004768,7783,cobalt,NF,C,226789,226789,225159,226072,225159,227389,226588,226588,227389,23
24,test,1,inc,1,z,Wed Mar 18 2026 09:57:24 GMT-0500 (Central Daylight Time),234222.10000002384,iron,900,I,z,z,None,768,554.0,214.0,38,1,2193.3000000715256,232028.79999995232,7783,lime,NF,C,229021,229021,227394,228305,227394,229587,228806,228806,229587,24
25,test,1,con,1,m,Wed Mar 18 2026 09:57:24 GMT-0500 (Central Daylight Time),236555.5,zinc,1000,I,m,m,None,790,590.0,200.0,115,1,2329.899999976158,234225.60000002384,7783,zinc,NF,C,231321,231321,229591,230604,229591,231921,231121,231121,231920,25
26,test,1,con,1,z,Wed Mar 18 2026 09:57:24 GMT-0500 (Central Daylight Time),238788.60000002384,kiwi,1000,I,z,z,None,688,486.0,202.0,51,1,2230.399999976158,236558.20000004768,7783,kiwi,NF,C,233656,233656,231923,232937,231923,234154,233453,233453,234154,26
27,test,1,inc,1,z,Wed Mar 18 2026 09:57:24 GMT-0500 (Central Daylight Time),241136.29999995232,silver,1000,I,z,z,None,800,600.0,200.0,23,1,2344.0,238792.29999995232,7783,orange,NF,C,235886,235886,234157,235168,234158,236501,235685,235685,236501,27
28,test,1,con,1,m,Wed Mar 18 2026 09:57:24 GMT-0500 (Central Daylight Time),243352.20000004768,gold,900,I,m,m,None,775,576.0,199.0,98,1,2213.2000000476837,241139.0,7783,gold,NF,C,238135,238135,236504,237418,236504,238717,237935,237935,238717,28
29,test,1,inc,1,z,Wed Mar 18 2026 09:57:24 GMT-0500 (Central Daylight Time),245535.20000004768,copper,900,I,z,z,None,735,536.0,199.0,30,1,2180.2000000476837,243355.0,7783,raisin,NF,C,240350,240350,238720,239635,238720,240900,240151,240151,240900,29
30,test,1,con,1,m,Wed Mar 18 2026 09:57:24 GMT-0500 (Central Daylight Time),247751.70000004768,copper,900,I,m,m,None,785,585.0,200.0,74,1,2213.0,245538.70000004768,7783,copper,NF,C,242518,242518,240904,241816,240904,243117,242317,242317,243117,30
31,test,1,inc,1,m,Wed Mar 18 2026 09:57:24 GMT-0500 (Central Daylight Time),249750.89999997616,banana,800,I,m,m,None,676,477.0,199.0,93,1,1994.0,247756.89999997616,7783,cobalt,NF,C,244632,244633,243122,243932,243122,245116,244433,244433,245116,31
32,test,1,con,1,z,Wed Mar 18 2026 09:57:24 GMT-0500 (Central Daylight Time),252083.39999997616,lime,1000,I,z,z,None,799,599.0,200.0,35,1,2329.2999999523163,249754.10000002384,7783,lime,NF,C,246849,246849,245119,246132,245119,247448,246648,246648,247448,32
33,test,1,inc,1,m,Wed Mar 18 2026 09:57:24 GMT-0500 (Central Daylight Time),254315.10000002384,cherry,900,I,m,m,None,789,588.0,201.0,70,1,2228.600000023842,252086.5,7783,bronze,NF,C,249082,249082,247452,248365,247452,249680,248881,248881,249680,33
34,test,1,con,1,z,Wed Mar 18 2026 09:57:24 GMT-0500 (Central Daylight Time),256515.10000002384,cherry,900,I,z,z,None,756,557.0,199.0,10,1,2196.7000000476837,254318.39999997616,7783,cherry,NF,C,251314,251314,249683,250598,249684,251880,251114,251114,251880,34
35,test,1,con,1,m,Wed Mar 18 2026 09:57:24 GMT-0500 (Central Daylight Time),258797.29999995232,zinc,900,I,m,m,None,845,644.0,201.0,114,1,2278.6999999284744,256518.60000002384,7783,zinc,NF,C,253515,253515,251884,252797,251884,254162,253313,253313,254162,35
36,test,1,inc,1,z,Wed Mar 18 2026 09:57:24 GMT-0500 (Central Daylight Time),260846.20000004768,gold,800,I,z,z,None,711,510.0,201.0,37,1,2046.1000000238419,258800.10000002384,7783,lime,NF,C,255696,255696,254165,254980,254165,256211,255495,255495,256211,36
37,test,1,inc,1,m,Wed Mar 18 2026 09:57:24 GMT-0500 (Central Daylight Time),263246.7999999523,plum,1100,I,m,m,None,778,577.0,201.0,104,1,2397.7999999523163,260849.0,7783,gold,NF,C,258030,258030,256214,257328,256214,258612,257829,257829,258612,37
38,test,1,con,1,z,Wed Mar 18 2026 09:57:24 GMT-0500 (Central Daylight Time),265812.89999997616,orange,1100,I,z,z,None,929,729.0,200.0,20,1,2563.1999999284744,263249.7000000477,7783,orange,NF,C,260446,260446,258615,259728,258615,261178,260245,260245,261178,38
39,test,1,con,1,z,Wed Mar 18 2026 09:57:24 GMT-0500 (Central Daylight Time),267995.2999999523,lime,800,I,z,z,None,832,633.0,199.0,33,1,2179.399999976158,265815.89999997616,7783,lime,NF,C,262710,262710,261181,261994,261181,263360,262511,262511,263360,39
40,test,1,con,1,z,Wed Mar 18 2026 09:57:24 GMT-0500 (Central Daylight Time),269961.60000002384,plum,800,I,z,z,None,640,425.0,215.0,57,1,1963.3000000715256,267998.2999999523,7783,plum,NF,C,264893,264893,263363,264176,263364,265327,264678,264678,265327,40
41,test,1,inc,1,m,Wed Mar 18 2026 09:57:24 GMT-0500 (Central Daylight Time),272027.0,banana,800,I,m,m,None,724,524.0,200.0,77,1,2062.100000023842,269964.89999997616,7783,copper,NF,C,266859,266859,265330,266143,265330,267392,266659,266659,267392,41
42,test,1,inc,1,z,Wed Mar 18 2026 09:57:24 GMT-0500 (Central Daylight Time),274326.0,zinc,1000,I,z,z,None,760,560.0,200.0,47,1,2296.100000023842,272029.89999997616,7783,pear,NF,C,269126,269126,267395,268410,267395,269691,268926,268926,269691,42
43,test,1,con,1,m,Wed Mar 18 2026 09:57:24 GMT-0500 (Central Daylight Time),276442.89999997616,silver,800,I,m,m,None,775,575.0,200.0,81,1,2114.0,274328.89999997616,7783,silver,NF,C,271224,271224,269694,270508,269694,271808,271024,271024,271808,43
44,test,1,inc,1,z,Wed Mar 18 2026 09:57:24 GMT-0500 (Central Daylight Time),278625.0,copper,900,I,z,z,None,743,542.0,201.0,14,1,2179.0,276446.0,7783,cherry,NF,C,273441,273441,271811,272724,271811,273990,273240,273240,273990,44
45,test,1,con,1,z,Wed Mar 18 2026 09:57:24 GMT-0500 (Central Daylight Time),280974.2999999523,orange,900,I,z,z,None,901,687.0,214.0,18,1,2346.5999999046326,278627.7000000477,7783,orange,NF,C,275640,275640,273993,274908,273993,276339,275425,275425,276339,45
46,test,1,inc,1,m,Wed Mar 18 2026 09:57:24 GMT-0500 (Central Daylight Time),283190.2000000477,banana,800,I,m,m,None,869,670.0,199.0,69,1,2211.8000000715256,280978.39999997616,7783,bronze,NF,C,277873,277873,276343,277156,276344,278555,277673,277673,278555,46
47,test,1,con,1,z,Wed Mar 18 2026 09:57:24 GMT-0500 (Central Daylight Time),285256.60000002384,orange,800,I,z,z,None,726,525.0,201.0,17,1,2063.7000000476837,283192.89999997616,7783,orange,NF,C,280090,280090,278558,279372,278558,280622,279889,279889,280622,47
48,test,1,inc,1,m,Wed Mar 18 2026 09:57:24 GMT-0500 (Central Daylight Time),287405.2000000477,cherry,900,I,m,m,None,704,503.0,201.0,78,1,2145.4000000953674,285259.7999999523,7783,copper,NF,C,282255,282255,280625,281539,280625,282770,282054,282054,282770,48
48,test,1,con,0,m,Wed Mar 18 2026 09:57:24 GMT-0500 (Central Daylight Time),289571.5,bronze,800,I,z,z,None,837,638.0,199.0,65,1,2163.399999976158,287408.10000002384,7783,bronze,NF,C,284289,284289,282773,283588,282773,284937,284090,284090,284937,49
49,test,1,con,1,z,Wed Mar 18 2026 09:57:24 GMT-0500 (Central Daylight Time),292121.2999999523,cherry,1100,I,z,z,None,933,733.0,200.0,12,1,2546.1999999284744,289575.10000002384,7783,cherry,NF,C,286753,286753,284940,286052,284940,287486,286553,286553,287486,50
50,test,1,inc,1,m,Wed Mar 18 2026 09:57:24 GMT-0500 (Central Daylight Time),294220.5,lime,800,I,m,m,None,757,556.0,201.0,117,1,2095.899999976158,292124.60000002384,7783,zinc,NF,C,289019,289019,287490,288303,287490,289586,288818,288818,289586,51
51,test,1,con,1,z,Wed Mar 18 2026 09:57:24 GMT-0500 (Central Daylight Time),296669.0,banana,1000,I,z,z,None,904,705.0,199.0,3,1,2443.0,294226.0,7783,banana,NF,C,291318,291318,289591,290601,289591,292034,291119,291119,292034,52
52,test,1,inc,1,m,Wed Mar 18 2026 09:57:24 GMT-0500 (Central Daylight Time),299002.0,raisin,1100,I,m,m,None,683,482.0,201.0,96,1,2329.7999999523163,296672.2000000477,7783,cobalt,NF,C,293868,293868,292037,293151,292038,294367,293667,293667,294367,53
53,test,1,inc,1,m,Wed Mar 18 2026 09:57:24 GMT-0500 (Central Daylight Time),301101.60000002384,lime,800,I,m,m,None,755,555.0,200.0,101,1,2096.7000000476837,299004.89999997616,7783,gold,NF,C,295900,295900,294370,295184,294370,296467,295699,295700,296467,54
54,test,1,inc,1,z,Wed Mar 18 2026 09:57:24 GMT-0500 (Central Daylight Time),303167.60000002384,gold,800,I,z,z,None,728,528.0,200.0,45,1,2063.100000023842,301104.5,7783,pear,NF,C,297999,297999,296470,297283,296470,298533,297799,297799,298533,55
55,test,1,inc,1,m,Wed Mar 18 2026 09:57:24 GMT-0500 (Central Daylight Time),305316.60000002384,pear,900,I,m,m,None,706,506.0,200.0,118,1,2146.100000023842,303170.5,7783,zinc,NF,C,300165,300165,298536,299449,298536,300682,299965,299965,300682,56
56,test,1,con,1,z,Wed Mar 18 2026 09:57:24 GMT-0500 (Central Daylight Time),307682.7999999523,lime,900,I,z,z,None,932,732.0,200.0,34,1,2363.5999999046326,305319.2000000477,7783,lime,NF,C,302316,302316,300684,301598,300684,303048,302115,302115,303048,57
57,test,1,con,1,z,Wed Mar 18 2026 09:57:24 GMT-0500 (Central Daylight Time),309998.60000002384,kiwi,1100,I,z,z,None,670,470.0,200.0,52,1,2312.399999976158,307686.2000000477,7783,kiwi,NF,C,304880,304880,303051,304164,303052,305364,304680,304680,305364,58
58,test,1,inc,1,z,Wed Mar 18 2026 09:57:24 GMT-0500 (Central Daylight Time),312150.5,iron,900,I,z,z,None,719,505.0,214.0,62,1,2148.899999976158,310001.60000002384,7783,plum,NF,C,306996,306996,305367,306280,305367,307516,306781,306782,307516,59
59,test,1,inc,1,m,Wed Mar 18 2026 09:57:24 GMT-0500 (Central Daylight Time),314430.10000002384,kiwi,1000,I,m,m,None,753,538.0,215.0,111,1,2272.899999976158,312157.2000000477,7783,iron,NF,C,309245,309245,307522,308529,307522,309795,309030,309030,309795,60
60,test,1,inc,1,z,Wed Mar 18 2026 09:57:24 GMT-0500 (Central Daylight Time),316579.2999999523,iron,900,I,z,z,None,699,500.0,199.0,54,1,2146.1999999284744,314433.10000002384,7783,kiwi,NF,C,311428,311428,309798,310712,309798,311944,311228,311228,311944,61
61,test,1,con,1,m,Wed Mar 18 2026 09:57:24 GMT-0500 (Central Daylight Time),318845.10000002384,copper,1000,I,m,m,None,721,520.0,201.0,75,1,2262.5,316582.60000002384,7783,copper,NF,C,313678,313678,311948,312961,311948,314210,313477,313477,314210,62
62,test,1,con,1,z,Wed Mar 18 2026 09:57:24 GMT-0500 (Central Daylight Time),320994.7000000477,raisin,900,I,z,z,None,730,516.0,214.0,26,1,2146.2000000476837,318848.5,7783,raisin,NF,C,315844,315844,314214,315127,314214,316360,315629,315629,316360,63
63,test,1,inc,1,z,Wed Mar 18 2026 09:57:24 GMT-0500 (Central Daylight Time),323277.5,zinc,1000,I,z,z,None,737,538.0,199.0,55,1,2280.0,320997.5,7783,kiwi,NF,C,318093,318093,316363,317376,316363,318643,317893,317893,318643,64
64,test,1,inc,1,m,Wed Mar 18 2026 09:57:24 GMT-0500 (Central Daylight Time),325659.7999999523,raisin,1100,I,m,m,None,756,556.0,200.0,88,1,2379.5,323280.2999999523,7783,silver,NF,C,320459,320459,318645,319758,318646,321025,320259,320259,321025,65
65,test,1,inc,1,z,Wed Mar 18 2026 09:57:24 GMT-0500 (Central Daylight Time),328042.39999997616,cobalt,1100,I,z,z,None,741,540.0,201.0,16,1,2380.0,325662.39999997616,7783,cherry,NF,C,322859,322859,321027,322141,321028,323407,322658,322658,323407,66
66,test,1,inc,1,z,Wed Mar 18 2026 09:57:24 GMT-0500 (Central Daylight Time),330525.10000002384,zinc,1000,I,z,z,None,945,746.0,199.0,39,1,2479.8000000715256,328045.2999999523,7783,lime,NF,C,325141,325141,323410,324424,323411,325890,324941,324941,325890,67
67,test,1,con,1,m,Wed Mar 18 2026 09:57:24 GMT-0500 (Central Daylight Time),332858.7000000477,bronze,1100,I,m,m,None,692,477.0,215.0,68,1,2330.100000023842,330528.60000002384,7783,bronze,NF,C,327738,327738,325894,327007,325894,328224,327523,327523,328224,68
68,test,1,con,1,z,Wed Mar 18 2026 09:57:24 GMT-0500 (Central Daylight Time),335174.60000002384,plum,1000,I,z,z,None,780,579.0,201.0,59,1,2312.100000023842,332862.5,7783,plum,NF,C,329956,329956,328228,329239,328228,330540,329755,329755,330540,69
69,test,1,inc,1,m,Wed Mar 18 2026 09:57:24 GMT-0500 (Central Daylight Time),337456.0,kiwi,1000,I,m,m,None,744,544.0,200.0,119,1,2278.399999976158,335177.60000002384,7783,zinc,NF,C,332271,332271,330543,331555,330543,332821,332071,332071,332821,70
70,test,1,inc,1,z,Wed Mar 18 2026 09:57:24 GMT-0500 (Central Daylight Time),339655.5,silver,1000,I,z,z,None,652,452.0,200.0,31,1,2196.600000023842,337458.89999997616,7783,raisin,NF,C,334554,334554,332824,333837,332824,335021,334354,334354,335021,71
71,test,1,con,1,z,Wed Mar 18 2026 09:57:24 GMT-0500 (Central Daylight Time),342221.39999997616,plum,900,I,z,z,None,1145,946.0,199.0,58,1,2563.0,339658.39999997616,7783,plum,NF,C,336637,336637,335023,335937,335024,337586,336438,336438,337586,72
72,test,1,inc,1,m,Wed Mar 18 2026 09:57:24 GMT-0500 (Central Daylight Time),344553.39999997616,plum,1100,I,m,m,None,698,499.0,199.0,128,1,2329.5,342223.89999997616,7783,lead,NF,C,339419,339419,337589,338704,337589,339918,339220,339220,339918,73
73,test,1,con,1,m,Wed Mar 18 2026 09:57:24 GMT-0500 (Central Daylight Time),346736.5,silver,900,I,m,m,None,735,535.0,200.0,82,1,2180.399999976158,344556.10000002384,7783,silver,NF,C,341552,341552,339921,340836,339921,342102,341352,341352,342102,74
74,test,1,inc,1,m,Wed Mar 18 2026 09:57:24 GMT-0500 (Central Daylight Time),348969.7000000477,pear,900,I,m,m,None,791,592.0,199.0,126,1,2230.600000023842,346739.10000002384,7783,lead,NF,C,343735,343735,342104,343021,342104,344335,343535,343535,344335,75
75,test,1,con,1,z,Wed Mar 18 2026 09:57:24 GMT-0500 (Central Daylight Time),351335.2000000477,pear,1000,I,z,z,None,827,627.0,200.0,43,1,2363.0,348972.2000000477,7783,pear,NF,C,346067,346067,344337,345351,344337,346700,345867,345867,346700,76
76,test,1,inc,1,m,Wed Mar 18 2026 09:57:24 GMT-0500 (Central Daylight Time),353617.0,pear,900,I,m,m,None,840,641.0,199.0,110,1,2279.2000000476837,351337.7999999523,7783,iron,NF,C,348333,348333,346703,347617,346703,348982,348133,348133,348982,77
77,test,1,con,1,m,Wed Mar 18 2026 09:57:24 GMT-0500 (Central Daylight Time),356100.2999999523,gold,800,I,m,m,None,1140,939.0,201.0,97,1,2479.7999999523163,353620.5,7783,gold,NF,C,350516,350516,348986,349799,348986,351465,350315,350315,351465,78
78,test,1,con,1,m,Wed Mar 18 2026 09:57:24 GMT-0500 (Central Daylight Time),358449.60000002384,iron,1100,I,m,m,None,708,509.0,199.0,108,1,2346.899999976158,356102.7000000477,7783,iron,NF,C,353298,353298,351468,352582,351468,353815,353099,353099,353815,79
79,test,1,con,1,z,Wed Mar 18 2026 09:57:24 GMT-0500 (Central Daylight Time),360832.60000002384,plum,1100,I,z,z,None,751,551.0,200.0,60,1,2379.7000000476837,358452.89999997616,7783,plum,NF,C,355631,355631,353818,354930,353818,356198,355431,355431,356198,80
80,test,1,inc,1,m,Wed Mar 18 2026 09:57:24 GMT-0500 (Central Daylight Time),363114.7999999523,kiwi,1000,I,m,m,None,742,541.0,201.0,103,1,2279.6999999284744,360835.10000002384,7783,gold,NF,C,357930,357930,356200,357213,356200,358480,357729,357729,358480,81
81,test,1,inc,1,m,Wed Mar 18 2026 09:57:24 GMT-0500 (Central Daylight Time),365613.89999997616,orange,1000,I,m,m,None,962,763.0,199.0,95,1,2496.2999999523163,363117.60000002384,7783,cobalt,NF,C,360212,360212,358483,359498,358483,360979,360013,360013,360979,82
82,test,1,con,1,z,Wed Mar 18 2026 09:57:24 GMT-0500 (Central Daylight Time),368096.2000000477,raisin,1100,I,z,z,None,843,643.0,200.0,28,1,2479.9000000953674,365616.2999999523,7783,raisin,NF,C,362812,362812,360981,362095,360982,363461,362612,362612,363461,83
83,test,1,con,1,m,Wed Mar 18 2026 09:57:24 GMT-0500 (Central Daylight Time),370612.2999999523,silver,1100,I,m,m,None,880,680.0,200.0,84,1,2513.5,368098.7999999523,7783,silver,NF,C,365295,365295,363464,364578,363464,365977,365095,365095,365977,84
84,test,1,con,1,m,Wed Mar 18 2026 09:57:24 GMT-0500 (Central Daylight Time),372661.60000002384,copper,800,I,m,m,None,704,504.0,200.0,73,1,2046.3999999761581,370615.2000000477,7783,copper,NF,C,367510,367510,365980,366794,365980,368027,367310,367310,368027,85
85,test,1,con,1,m,Wed Mar 18 2026 09:57:24 GMT-0500 (Central Daylight Time),374944.7999999523,bronze,1000,I,m,m,None,744,545.0,199.0,67,1,2280.5999999046326,372664.2000000477,7783,bronze,NF,C,369758,369758,368029,369043,368029,370310,369559,369559,370310,86
86,test,1,con,1,z,Wed Mar 18 2026 09:57:24 GMT-0500 (Central Daylight Time),377226.2999999523,cherry,1000,I,z,z,None,732,533.0,199.0,11,1,2277.2999999523163,374949.0,7783,cherry,NF,C,372042,372042,370314,371326,370314,372591,371843,371843,372591,87
87,test,1,con,1,m,Wed Mar 18 2026 09:57:24 GMT-0500 (Central Daylight Time),379342.2999999523,cobalt,800,I,m,m,None,778,577.0,201.0,89,1,2113.6999999284744,377228.60000002384,7783,cobalt,NF,C,374125,374125,372594,373409,372594,374707,373924,373924,374707,88
88,test,1,inc,1,z,Wed Mar 18 2026 09:57:24 GMT-0500 (Central Daylight Time),381707.7000000477,lead,1100,I,z,z,None,723,522.0,201.0,40,1,2362.9000000953674,379344.7999999523,7783,lime,NF,C,376541,376541,374710,375825,374710,377073,376340,376340,377073,89
89,test,1,con,1,m,Wed Mar 18 2026 09:57:24 GMT-0500 (Central Daylight Time),383974.2000000477,cobalt,1000,I,m,m,None,720,520.0,200.0,91,1,2263.600000023842,381710.60000002384,7783,cobalt,NF,C,378807,378807,377076,378091,377076,379339,378607,378607,379339,90
90,test,1,con,1,m,Wed Mar 18 2026 09:57:24 GMT-0500 (Central Daylight Time),386207.7000000477,iron,900,I,m,m,None,783,584.0,199.0,106,1,2230.7000000476837,383977.0,7783,iron,NF,C,380974,380974,379342,380257,379342,381573,380774,380774,381573,91
91,test,1,inc,1,m,Wed Mar 18 2026 09:57:24 GMT-0500 (Central Daylight Time),388589.5,plum,1100,I,m,m,None,746,546.0,200.0,120,1,2378.2000000476837,386211.2999999523,7783,zinc,NF,C,383405,383405,381576,382689,381576,383955,383205,383205,383955,92
92,test,1,inc,1,z,Wed Mar 18 2026 09:57:24 GMT-0500 (Central Daylight Time),390672.0,bronze,800,I,z,z,None,742,542.0,200.0,21,1,2080.0,388592.0,7783,orange,NF,C,385488,385488,383957,384772,383957,386037,385288,385288,386037,93
93,test,1,con,1,z,Wed Mar 18 2026 09:57:24 GMT-0500 (Central Daylight Time),392938.5,orange,1000,I,z,z,None,724,525.0,199.0,19,1,2263.899999976158,390674.60000002384,7783,orange,NF,C,387770,387770,386040,387054,386040,388304,387571,387571,388303,94
94,test,1,con,1,z,Wed Mar 18 2026 09:57:24 GMT-0500 (Central Daylight Time),395071.2000000477,kiwi,900,I,z,z,None,695,495.0,200.0,50,1,2130.2000000476837,392941.0,7783,kiwi,NF,C,389936,389936,388306,389220,388306,390436,389736,389736,390436,95
95,test,1,con,1,m,Wed Mar 18 2026 09:57:24 GMT-0500 (Central Daylight Time),397187.7000000477,zinc,800,I,m,m,None,774,574.0,200.0,113,1,2113.600000023842,395074.10000002384,7783,zinc,NF,C,391969,391969,390439,391253,390439,392553,391769,391769,392553,96
96,test,1,inc,1,z,Wed Mar 18 2026 09:57:24 GMT-0500 (Central Daylight Time),399503.60000002384,cobalt,1100,I,z,z,None,669,469.0,200.0,32,1,2313.5,397190.10000002384,7783,raisin,NF,C,394385,394385,392555,393668,392555,394869,394185,394185,394869,97
97,test,1,inc,1,m,Wed Mar 18 2026 09:57:24 GMT-0500 (Central Daylight Time),401918.89999997616,raisin,1100,I,m,m,None,778,578.0,200.0,80,1,2412.5,399506.39999997616,7783,copper,NF,C,396701,396701,394871,395985,394872,397284,396501,396501,397284,98
98,test,1,inc,1,m,Wed Mar 18 2026 09:57:24 GMT-0500 (Central Daylight Time),404051.39999997616,lime,800,I,m,m,None,790,590.0,200.0,125,1,2129.6999999284744,401921.7000000477,7783,lead,NF,C,398817,398817,397287,398100,397287,399417,398617,398617,399416,99
99,test,1,inc,1,z,Wed Mar 18 2026 09:57:24 GMT-0500 (Central Daylight Time),406407.89999997616,cobalt,1100,I,z,z,None,720,520.0,200.0,8,1,2353.899999976158,404054.0,7783,banana,NF,C,401250,401250,399419,400533,399419,401773,401050,401050,401773,100
100,test,1,con,1,z,Wed Mar 18 2026 09:57:24 GMT-0500 (Central Daylight Time),408833.7999999523,pear,1100,I,z,z,None,800,600.0,200.0,44,1,2423.2999999523163,406410.5,7783,pear,NF,C,403599,403599,401776,402882,401776,404199,403399,403399,404199,101
101,test,1,con,1,z,Wed Mar 18 2026 09:57:24 GMT-0500 (Central Daylight Time),411199.5,lime,1100,I,z,z,None,718,518.0,200.0,36,1,2362.399999976158,408837.10000002384,7783,lime,NF,C,406032,406032,404202,405315,404202,406565,405832,405832,406565,102
102,test,1,inc,1,z,Wed Mar 18 2026 09:57:24 GMT-0500 (Central Daylight Time),413482.2000000477,silver,1000,I,z,z,None,750,550.0,200.0,15,1,2280.0,411202.2000000477,7783,cherry,NF,C,408297,408297,406567,407581,406568,408847,408097,408097,408847,103
103,test,1,inc,1,z,Wed Mar 18 2026 09:57:24 GMT-0500 (Central Daylight Time),415914.60000002384,cobalt,1100,I,z,z,None,783,583.0,200.0,24,1,2429.8000000715256,413484.7999999523,7783,orange,NF,C,410680,410680,408850,409963,408850,411280,410480,410480,411280,104
104,test,1,con,1,z,Wed Mar 18 2026 09:57:24 GMT-0500 (Central Daylight Time),417980.0,raisin,800,I,z,z,None,716,515.0,201.0,25,1,2062.7999999523163,415917.2000000477,7783,raisin,NF,C,412813,412813,411282,412096,411282,413345,412612,412612,413345,105
105,test,1,inc,1,z,Wed Mar 18 2026 09:57:24 GMT-0500 (Central Daylight Time),420179.39999997616,copper,900,I,z,z,None,766,566.0,200.0,6,1,2196.899999976158,417982.5,7783,banana,NF,C,414978,414978,413348,414262,413348,415544,414778,414778,415544,106
106,test,1,con,1,m,Wed Mar 18 2026 09:57:24 GMT-0500 (Central Daylight Time),422412.7000000477,lead,900,I,m,m,None,813,614.0,199.0,122,1,2230.7000000476837,420182.0,7783,lead,NF,C,417161,417161,415547,416461,415547,417778,416962,416962,417778,107
107,test,1,inc,1,m,Wed Mar 18 2026 09:57:24 GMT-0500 (Central Daylight Time),424728.5,orange,1000,I,m,m,None,777,577.0,200.0,79,1,2313.2000000476837,422415.2999999523,7783,copper,NF,C,419510,419510,417780,418794,417781,420094,419310,419310,420094,108
108,test,1,inc,1,z,Wed Mar 18 2026 09:57:24 GMT-0500 (Central Daylight Time),426961.89999997616,copper,900,I,z,z,None,785,585.0,200.0,22,1,2230.7999999523163,424731.10000002384,7783,orange,NF,C,421726,421726,420096,421010,420096,422327,421526,421526,422327,109
109,test,1,con,1,z,Wed Mar 18 2026 09:57:24 GMT-0500 (Central Daylight Time),429243.7000000477,kiwi,800,I,z,z,None,940,740.0,200.0,49,1,2279.100000023842,426964.60000002384,7783,kiwi,NF,C,423859,423859,422330,423143,422330,424609,423659,423659,424609,110
110,test,1,inc,1,z,Wed Mar 18 2026 09:57:24 GMT-0500 (Central Daylight Time),431342.60000002384,bronze,800,I,z,z,None,752,552.0,200.0,13,1,2096.399999976158,429246.2000000477,7783,cherry,NF,C,426142,426142,424611,425428,424611,426708,425942,425942,426708,111
111,test,1,inc,1,m,Wed Mar 18 2026 09:57:24 GMT-0500 (Central Daylight Time),433742.0,plum,1100,I,m,m,None,761,546.0,215.0,112,1,2396.7999999523163,431345.2000000477,7783,iron,NF,C,428557,428557,426710,427825,426710,429107,428342,428342,429107,112
112,test,1,con,1,m,Wed Mar 18 2026 09:57:24 GMT-0500 (Central Daylight Time),436108.2000000477,lead,1100,I,m,m,None,731,530.0,201.0,124,1,2363.7000000476837,433744.5,7783,lead,NF,C,430941,430941,429109,430224,429110,431473,430740,430740,431473,113
113,test,1,inc,1,z,Wed Mar 18 2026 09:57:24 GMT-0500 (Central Daylight Time),438442.0,lead,1100,I,z,z,None,690,475.0,215.0,48,1,2331.2000000476837,436110.7999999523,7783,pear,NF,C,433323,433323,431476,432590,431476,433807,433107,433108,433807,114
114,test,1,inc,1,m,Wed Mar 18 2026 09:57:24 GMT-0500 (Central Daylight Time),440723.2000000477,cherry,900,I,m,m,None,849,648.0,201.0,86,1,2278.5,438444.7000000477,7783,silver,NF,C,435439,435439,433810,434723,433810,436088,435238,435238,436088,115
115,test,1,con,1,m,Wed Mar 18 2026 09:57:24 GMT-0500 (Central Daylight Time),442973.10000002384,silver,1000,I,m,m,None,722,522.0,200.0,83,1,2247.5,440725.60000002384,7783,silver,NF,C,437805,437805,436091,437104,436091,438338,437605,437605,438338,116
116,test,1,con,1,z,Wed Mar 18 2026 09:57:24 GMT-0500 (Central Daylight Time),445088.39999997616,pear,800,I,z,z,None,775,576.0,199.0,41,1,2111.899999976158,442976.5,7783,pear,NF,C,439870,439870,438342,439155,438342,440453,439671,439671,440453,117
117,test,1,inc,1,m,Wed Mar 18 2026 09:57:24 GMT-0500 (Central Daylight Time),447254.60000002384,cherry,900,I,m,m,None,729,529.0,200.0,94,1,2163.600000023842,445091.0,7783,cobalt,NF,C,442086,442086,440456,441370,440456,442620,441886,441886,442620,118
118,test,1,con,1,z,Wed Mar 18 2026 09:57:24 GMT-0500 (Central Daylight Time),449669.7000000477,raisin,1000,I,z,z,None,878,678.0,200.0,27,1,2411.0,447258.7000000477,7783,raisin,NF,C,444353,444353,442624,443636,442624,445035,444153,444153,445035,119
119,test,1,inc,1,z,Wed Mar 18 2026 09:57:24 GMT-0500 (Central Daylight Time),452169.7000000477,silver,1000,I,z,z,None,958,758.0,200.0,7,1,2497.600000023842,449672.10000002384,7783,banana,NF,C,446769,446769,445037,446052,445037,447535,446568,446568,447535,120
120,test,1,inc,1,m,Wed Mar 18 2026 09:57:24 GMT-0500 (Central Daylight Time),454485.2000000477,kiwi,1000,I,m,m,None,794,580.0,214.0,127,1,2312.4000000953674,452172.7999999523,7783,lead,NF,C,449267,449267,447538,448551,447538,449850,449052,449053,449850,121
121,test,1,con,1,m,Wed Mar 18 2026 09:57:24 GMT-0500 (Central Daylight Time),456884.2000000477,gold,1100,I,m,m,None,763,563.0,200.0,100,1,2396.5,454487.7000000477,7783,gold,NF,C,451684,451684,449853,450967,449853,452249,451483,451483,452249,122
122,test,1,con,1,z,Wed Mar 18 2026 09:57:24 GMT-0500 (Central Daylight Time),459400.39999997616,banana,1100,I,z,z,None,868,668.0,200.0,4,1,2513.5,456886.89999997616,7783,banana,NF,C,454082,454082,452252,453366,452252,454765,453882,453882,454765,123
123,test,1,con,1,m,Wed Mar 18 2026 09:57:24 GMT-0500 (Central Daylight Time),461600.7000000477,bronze,900,I,m,m,None,752,551.0,201.0,66,1,2197.5,459403.2000000477,7783,bronze,NF,C,456399,456399,454768,455683,454768,456966,456198,456198,456966,124
124,test,1,con,1,m,Wed Mar 18 2026 09:57:24 GMT-0500 (Central Daylight Time),463981.89999997616,copper,1100,I,m,m,None,745,545.0,200.0,76,1,2378.7999999523163,461603.10000002384,7783,copper,NF,C,458798,458798,456968,458082,456968,459347,458598,458598,459347,125
125,test,1,con,1,m,Wed Mar 18 2026 09:57:24 GMT-0500 (Central Daylight Time),466281.2000000477,lead,1000,I,m,m,None,758,559.0,199.0,123,1,2296.3000000715256,463984.89999997616,7783,lead,NF,C,461080,461080,459350,460364,459350,461646,460881,460881,461646,126
126,test,1,con,1,m,Wed Mar 18 2026 09:57:24 GMT-0500 (Central Daylight Time),468414.10000002384,iron,800,I,m,m,None,786,587.0,199.0,105,1,2130.3000000715256,466283.7999999523,7783,iron,NF,C,463179,463180,461649,462464,461649,463779,462980,462980,463779,127
127,test,1,con,1,m,Wed Mar 18 2026 09:57:24 GMT-0500 (Central Daylight Time),470730.10000002384,gold,1000,I,m,m,None,774,574.0,200.0,99,1,2311.899999976158,468418.2000000477,7783,gold,NF,C,465513,465513,463783,464796,463783,466095,465313,465313,466095,128
