acc_sum,block,block_c,change,condition,correct,correct_response,datetime,endtime,face,project,response,response_time,row_sel,session_number,start_end,starttime,subject_id,task,task_vers,trial
0,prac,1,,1-Back,,,Fri May 29 2026 14:11:36 GMT-0500 (Central Daylight Time),,050_m_f_n_a.png,O,space,10265,1,1,,,7810,NNB,A,0
1,prac,1,0.0,1-Back,1.0,m,Fri May 29 2026 14:11:36 GMT-0500 (Central Daylight Time),169368.69999998808,063_y_f_n_a.png,O,m,631,2,1,1440.8999999761581,167927.80000001192,7810,NNB,A,1
1,prac,1,1.0,1-Back,0.0,z,Fri May 29 2026 14:11:36 GMT-0500 (Central Daylight Time),170868.10000002384,063_y_f_n_a.png,O,m,724,3,1,1495.0,169373.10000002384,7810,NNB,A,2
2,prac,1,0.0,1-Back,1.0,m,Fri May 29 2026 14:11:36 GMT-0500 (Central Daylight Time),172467.80000001192,053_o_m_n_a.png,O,m,795,4,1,1591.8999999761581,170875.90000003576,7810,NNB,A,3
2,prac,1,0.0,1-Back,0.0,m,Fri May 29 2026 14:11:36 GMT-0500 (Central Daylight Time),173967.40000003576,058_m_m_n_a.png,O,z,704,5,1,1495.800000011921,172471.60000002384,7810,NNB,A,4
3,prac,1,1.0,1-Back,1.0,z,Fri May 29 2026 14:11:36 GMT-0500 (Central Daylight Time),175416.80000001192,058_m_m_n_a.png,O,z,667,6,1,1443.0,173973.80000001192,7810,NNB,A,5
4,prac,1,0.0,1-Back,1.0,m,Fri May 29 2026 14:11:36 GMT-0500 (Central Daylight Time),177149.40000003576,047_o_f_n_a.png,O,m,899,7,1,1728.5,175420.90000003576,7810,NNB,A,6
5,prac,1,0.0,1-Back,1.0,m,Fri May 29 2026 14:11:36 GMT-0500 (Central Daylight Time),178782.30000001192,045_m_m_n_a.png,O,m,850,8,1,1625.3999999761581,177156.90000003576,7810,NNB,A,7
5,prac,1,0.0,1-Back,0.0,m,Fri May 29 2026 14:11:36 GMT-0500 (Central Daylight Time),180965.10000002384,050_m_f_n_a.png,O,z,1397,9,1,2178.600000023842,178786.5,7810,NNB,A,8
5,prac,1,1.0,1-Back,0.0,z,Fri May 29 2026 14:11:36 GMT-0500 (Central Daylight Time),182847.69999998808,050_m_f_n_a.png,O,m,1108,10,1,1874.7999999523163,180972.90000003576,7810,NNB,A,9
6,prac,1,0.0,1-Back,1.0,m,Fri May 29 2026 14:11:36 GMT-0500 (Central Daylight Time),184613.80000001192,053_o_m_n_a.png,O,m,981,11,1,1762.0,182851.80000001192,7810,NNB,A,10
6,prac,1,0.0,1-Back,0.0,m,Fri May 29 2026 14:11:36 GMT-0500 (Central Daylight Time),186263.80000001192,010_y_f_n_a.png,O,z,813,12,1,1642.5,184621.30000001192,7810,NNB,A,11
0,prac,2,0.0,1-Back,,,Fri May 29 2026 14:11:36 GMT-0500 (Central Daylight Time),186263.80000001192,050_m_f_n_a.png,O,a,8541,1,1,1642.5,184621.30000001192,7810,NNB,A,0
1,prac,2,0.0,1-Back,1.0,m,Fri May 29 2026 14:11:36 GMT-0500 (Central Daylight Time),199442.30000001192,063_y_f_n_a.png,O,m,820,2,1,1590.1000000238419,197852.19999998808,7810,NNB,A,1
2,prac,2,1.0,1-Back,1.0,z,Fri May 29 2026 14:11:36 GMT-0500 (Central Daylight Time),200975.5,063_y_f_n_a.png,O,z,761,3,1,1529.199999988079,199446.30000001192,7810,NNB,A,2
3,prac,2,0.0,1-Back,1.0,m,Fri May 29 2026 14:11:36 GMT-0500 (Central Daylight Time),202491.40000003576,053_o_m_n_a.png,O,m,753,4,1,1508.800000011921,200982.60000002384,7810,NNB,A,3
3,prac,2,0.0,1-Back,0.0,m,Fri May 29 2026 14:11:36 GMT-0500 (Central Daylight Time),204091.0,058_m_m_n_a.png,O,z,825,5,1,1595.8999999761581,202495.10000002384,7810,NNB,A,4
4,prac,2,1.0,1-Back,1.0,z,Fri May 29 2026 14:11:36 GMT-0500 (Central Daylight Time),205623.90000003576,058_m_m_n_a.png,O,z,751,6,1,1526.2000000476837,204097.69999998808,7810,NNB,A,5
5,prac,2,0.0,1-Back,1.0,m,Fri May 29 2026 14:11:36 GMT-0500 (Central Daylight Time),207056.80000001192,047_o_f_n_a.png,O,m,660,7,1,1428.699999988079,205628.10000002384,7810,NNB,A,6
6,prac,2,0.0,1-Back,1.0,m,Fri May 29 2026 14:11:36 GMT-0500 (Central Daylight Time),209039.60000002384,045_m_m_n_a.png,O,m,1193,8,1,1975.699999988079,207063.90000003576,7810,NNB,A,7
7,prac,2,0.0,1-Back,1.0,m,Fri May 29 2026 14:11:36 GMT-0500 (Central Daylight Time),210672.5,050_m_f_n_a.png,O,m,853,9,1,1628.699999988079,209043.80000001192,7810,NNB,A,8
8,prac,2,1.0,1-Back,1.0,z,Fri May 29 2026 14:11:36 GMT-0500 (Central Daylight Time),212271.69999998808,050_m_f_n_a.png,O,z,825,10,1,1591.699999988079,210680.0,7810,NNB,A,9
9,prac,2,0.0,1-Back,1.0,m,Fri May 29 2026 14:11:36 GMT-0500 (Central Daylight Time),213854.60000002384,053_o_m_n_a.png,O,m,805,11,1,1579.1000000238419,212275.5,7810,NNB,A,10
10,prac,2,0.0,1-Back,1.0,m,Fri May 29 2026 14:11:36 GMT-0500 (Central Daylight Time),215454.0,010_y_f_n_a.png,O,m,810,12,1,1592.0999999642372,213861.90000003576,7810,NNB,A,11
0,test,1,0.0,1-Back,,,Fri May 29 2026 14:11:36 GMT-0500 (Central Daylight Time),215454.0,063_y_f_n_a.png,O,space,18733,1,1,1592.0999999642372,213861.90000003576,7810,NNB,A,0
1,test,1,0.0,1-Back,1.0,m,Fri May 29 2026 14:11:36 GMT-0500 (Central Daylight Time),280683.6999999881,043_m_f_n_a.png,O,m,563,2,1,1577.5,279106.1999999881,7810,NNB,A,1
1,test,1,0.0,1-Back,0.0,m,Fri May 29 2026 14:11:36 GMT-0500 (Central Daylight Time),282567.5,010_y_f_n_a.png,O,z,852,3,1,1881.199999988079,280686.3000000119,7810,NNB,A,2
2,test,1,1.0,1-Back,1.0,z,Fri May 29 2026 14:11:36 GMT-0500 (Central Daylight Time),284199.10000002384,010_y_f_n_a.png,O,z,602,4,1,1629.0,282570.10000002384,7810,NNB,A,3
3,test,1,0.0,1-Back,1.0,m,Fri May 29 2026 14:11:36 GMT-0500 (Central Daylight Time),285816.40000003576,043_m_f_n_a.png,O,m,585,5,1,1614.7000000476837,284201.6999999881,7810,NNB,A,4
3,test,1,0.0,1-Back,0.0,m,Fri May 29 2026 14:11:36 GMT-0500 (Central Daylight Time),287498.1999999881,053_o_m_n_a.png,O,z,657,6,1,1678.8999999761581,285819.3000000119,7810,NNB,A,5
4,test,1,1.0,1-Back,1.0,z,Fri May 29 2026 14:11:36 GMT-0500 (Central Daylight Time),289197.5,053_o_m_n_a.png,O,z,670,7,1,1696.5,287501.0,7810,NNB,A,6
5,test,1,0.0,1-Back,1.0,m,Fri May 29 2026 14:11:36 GMT-0500 (Central Daylight Time),290896.90000003576,058_m_m_n_a.png,O,m,666,8,1,1696.7000000476837,289200.1999999881,7810,NNB,A,7
5,test,1,0.0,1-Back,0.0,m,Fri May 29 2026 14:11:36 GMT-0500 (Central Daylight Time),292646.6999999881,047_o_f_n_a.png,O,z,727,9,1,1746.8999999761581,290899.8000000119,7810,NNB,A,8
6,test,1,0.0,1-Back,1.0,m,Fri May 29 2026 14:11:36 GMT-0500 (Central Daylight Time),294445.90000003576,058_m_m_n_a.png,O,m,778,10,1,1796.800000011921,292649.10000002384,7810,NNB,A,9
6,test,1,0.0,1-Back,0.0,m,Fri May 29 2026 14:11:36 GMT-0500 (Central Daylight Time),296345.60000002384,041_y_m_n_a.png,O,z,874,11,1,1897.0,294448.60000002384,7810,NNB,A,10
7,test,1,1.0,1-Back,1.0,z,Fri May 29 2026 14:11:36 GMT-0500 (Central Daylight Time),298028.40000003576,041_y_m_n_a.png,O,z,655,12,1,1680.0,296348.40000003576,7810,NNB,A,11
8,test,1,0.0,1-Back,1.0,m,Fri May 29 2026 14:11:36 GMT-0500 (Central Daylight Time),299727.60000002384,044_o_f_n_a.png,O,m,675,13,1,1696.5,298031.10000002384,7810,NNB,A,12
9,test,1,1.0,1-Back,1.0,z,Fri May 29 2026 14:11:36 GMT-0500 (Central Daylight Time),301527.10000002384,044_o_f_n_a.png,O,z,777,14,1,1796.6000000238419,299730.5,7810,NNB,A,13
10,test,1,0.0,1-Back,1.0,m,Fri May 29 2026 14:11:36 GMT-0500 (Central Daylight Time),303409.8000000119,008_y_m_n_a.png,O,m,856,15,1,1880.199999988079,301529.60000002384,7810,NNB,A,14
10,test,1,0.0,1-Back,0.0,m,Fri May 29 2026 14:11:36 GMT-0500 (Central Daylight Time),305176.0,050_m_f_n_a.png,O,z,741,16,1,1763.699999988079,303412.3000000119,7810,NNB,A,15
11,test,1,0.0,1-Back,1.0,m,Fri May 29 2026 14:11:36 GMT-0500 (Central Daylight Time),306908.90000003576,046_o_m_n_a.png,O,m,704,17,1,1730.1000000238419,305178.8000000119,7810,NNB,A,16
12,test,1,0.0,1-Back,1.0,m,Fri May 29 2026 14:11:36 GMT-0500 (Central Daylight Time),308924.90000003576,050_m_f_n_a.png,O,m,988,18,1,2013.4000000357628,306911.5,7810,NNB,A,17
0,test,2,0.0,1-Back,,,Fri May 29 2026 14:11:36 GMT-0500 (Central Daylight Time),308924.90000003576,058_m_m_n_a.png,O,space,11828,1,1,2013.4000000357628,306911.5,7810,NNB,A,0
1,test,2,0.0,1-Back,1.0,m,Fri May 29 2026 14:11:36 GMT-0500 (Central Daylight Time),324320.3000000119,043_m_f_n_a.png,O,m,517,2,1,1546.8999999761581,322773.40000003576,7810,NNB,A,1
1,test,2,1.0,1-Back,0.0,z,Fri May 29 2026 14:11:36 GMT-0500 (Central Daylight Time),325802.6999999881,043_m_f_n_a.png,O,m,464,3,1,1479.5999999642372,324323.10000002384,7810,NNB,A,2
1,test,2,0.0,1-Back,0.0,m,Fri May 29 2026 14:11:36 GMT-0500 (Central Daylight Time),327419.10000002384,058_m_m_n_a.png,O,z,597,4,1,1613.699999988079,325805.40000003576,7810,NNB,A,3
2,test,2,0.0,1-Back,1.0,m,Fri May 29 2026 14:11:36 GMT-0500 (Central Daylight Time),329118.60000002384,041_y_m_n_a.png,O,m,677,5,1,1697.0,327421.60000002384,7810,NNB,A,4
3,test,2,0.0,1-Back,1.0,m,Fri May 29 2026 14:11:36 GMT-0500 (Central Daylight Time),330784.5,063_y_f_n_a.png,O,m,638,6,1,1663.3999999761581,329121.10000002384,7810,NNB,A,5
4,test,2,1.0,1-Back,1.0,z,Fri May 29 2026 14:11:36 GMT-0500 (Central Daylight Time),332400.90000003576,063_y_f_n_a.png,O,z,591,7,1,1613.800000011921,330787.10000002384,7810,NNB,A,6
5,test,2,0.0,1-Back,1.0,m,Fri May 29 2026 14:11:36 GMT-0500 (Central Daylight Time),334266.90000003576,041_y_m_n_a.png,O,m,847,8,1,1863.1000000238419,332403.8000000119,7810,NNB,A,7
6,test,2,0.0,1-Back,1.0,m,Fri May 29 2026 14:11:36 GMT-0500 (Central Daylight Time),335982.90000003576,044_o_f_n_a.png,O,m,684,9,1,1713.300000011921,334269.60000002384,7810,NNB,A,8
7,test,2,0.0,1-Back,1.0,m,Fri May 29 2026 14:11:36 GMT-0500 (Central Daylight Time),337832.40000003576,045_m_m_n_a.png,O,m,816,10,1,1846.7000000476837,335985.6999999881,7810,NNB,A,9
8,test,2,1.0,1-Back,1.0,z,Fri May 29 2026 14:11:36 GMT-0500 (Central Daylight Time),339482.0,045_m_m_n_a.png,O,z,624,11,1,1646.800000011921,337835.1999999881,7810,NNB,A,10
9,test,2,0.0,1-Back,1.0,m,Fri May 29 2026 14:11:36 GMT-0500 (Central Daylight Time),341114.8000000119,044_o_f_n_a.png,O,m,607,12,1,1630.0,339484.8000000119,7810,NNB,A,11
10,test,2,0.0,1-Back,1.0,m,Fri May 29 2026 14:11:36 GMT-0500 (Central Daylight Time),343159.90000003576,047_o_f_n_a.png,O,m,881,13,1,2042.4000000357628,341117.5,7810,NNB,A,12
11,test,2,0.0,1-Back,1.0,m,Fri May 29 2026 14:11:36 GMT-0500 (Central Daylight Time),344913.5,053_o_m_n_a.png,O,m,724,14,1,1750.199999988079,343163.3000000119,7810,NNB,A,13
12,test,2,0.0,1-Back,1.0,m,Fri May 29 2026 14:11:36 GMT-0500 (Central Daylight Time),346846.1999999881,046_o_m_n_a.png,O,m,911,15,1,1930.0,344916.1999999881,7810,NNB,A,14
13,test,2,1.0,1-Back,1.0,z,Fri May 29 2026 14:11:36 GMT-0500 (Central Daylight Time),348595.40000003576,046_o_m_n_a.png,O,z,721,16,1,1746.4000000357628,346849.0,7810,NNB,A,15
14,test,2,0.0,1-Back,1.0,m,Fri May 29 2026 14:11:36 GMT-0500 (Central Daylight Time),350162.0,008_y_m_n_a.png,O,m,542,17,1,1563.8999999761581,348598.10000002384,7810,NNB,A,16
15,test,2,1.0,1-Back,1.0,z,Fri May 29 2026 14:11:36 GMT-0500 (Central Daylight Time),351777.6999999881,008_y_m_n_a.png,O,z,599,18,1,1613.199999988079,350164.5,7810,NNB,A,17
0,test,3,1.0,1-Back,,,Fri May 29 2026 14:11:36 GMT-0500 (Central Daylight Time),351777.6999999881,010_y_f_n_a.png,O,space,1671,1,1,1613.199999988079,350164.5,7810,NNB,A,0
1,test,3,0.0,1-Back,1.0,m,Fri May 29 2026 14:11:36 GMT-0500 (Central Daylight Time),357009.6999999881,046_o_m_n_a.png,O,m,458,2,1,1480.2999999523163,355529.40000003576,7810,NNB,A,1
2,test,3,1.0,1-Back,1.0,z,Fri May 29 2026 14:11:36 GMT-0500 (Central Daylight Time),358475.90000003576,046_o_m_n_a.png,O,z,447,3,1,1463.4000000357628,357012.5,7810,NNB,A,2
3,test,3,0.0,1-Back,1.0,m,Fri May 29 2026 14:11:36 GMT-0500 (Central Daylight Time),360025.3000000119,050_m_f_n_a.png,O,m,533,4,1,1545.199999988079,358480.10000002384,7810,NNB,A,3
4,test,3,1.0,1-Back,1.0,z,Fri May 29 2026 14:11:36 GMT-0500 (Central Daylight Time),361758.0,050_m_f_n_a.png,O,z,703,5,1,1730.3999999761581,360027.60000002384,7810,NNB,A,4
5,test,3,0.0,1-Back,1.0,m,Fri May 29 2026 14:11:36 GMT-0500 (Central Daylight Time),363358.0,044_o_f_n_a.png,O,m,570,6,1,1597.199999988079,361760.8000000119,7810,NNB,A,5
6,test,3,0.0,1-Back,1.0,m,Fri May 29 2026 14:11:36 GMT-0500 (Central Daylight Time),365040.6999999881,041_y_m_n_a.png,O,m,659,7,1,1679.699999988079,363361.0,7810,NNB,A,6
7,test,3,0.0,1-Back,1.0,m,Fri May 29 2026 14:11:36 GMT-0500 (Central Daylight Time),366735.3000000119,044_o_f_n_a.png,O,m,678,8,1,1692.0,365043.3000000119,7810,NNB,A,7
7,test,3,0.0,1-Back,0.0,m,Fri May 29 2026 14:11:36 GMT-0500 (Central Daylight Time),368389.5,008_y_m_n_a.png,O,z,644,9,1,1651.0999999642372,366738.40000003576,7810,NNB,A,8
8,test,3,1.0,1-Back,1.0,z,Fri May 29 2026 14:11:36 GMT-0500 (Central Daylight Time),369872.3000000119,008_y_m_n_a.png,O,z,459,10,1,1478.6000000238419,368393.6999999881,7810,NNB,A,9
9,test,3,0.0,1-Back,1.0,m,Fri May 29 2026 14:11:36 GMT-0500 (Central Daylight Time),371455.3000000119,043_m_f_n_a.png,O,m,560,11,1,1580.199999988079,369875.10000002384,7810,NNB,A,10
10,test,3,0.0,1-Back,1.0,m,Fri May 29 2026 14:11:36 GMT-0500 (Central Daylight Time),373254.6999999881,063_y_f_n_a.png,O,m,777,12,1,1796.8999999761581,371457.8000000119,7810,NNB,A,11
11,test,3,1.0,1-Back,1.0,z,Fri May 29 2026 14:11:36 GMT-0500 (Central Daylight Time),374820.90000003576,063_y_f_n_a.png,O,z,546,13,1,1563.7000000476837,373257.1999999881,7810,NNB,A,12
12,test,3,0.0,1-Back,1.0,m,Fri May 29 2026 14:11:36 GMT-0500 (Central Daylight Time),376420.40000003576,043_m_f_n_a.png,O,m,578,14,1,1596.9000000357628,374823.5,7810,NNB,A,13
12,test,3,0.0,1-Back,0.0,m,Fri May 29 2026 14:11:36 GMT-0500 (Central Daylight Time),378053.10000002384,058_m_m_n_a.png,O,z,604,15,1,1630.199999988079,376422.90000003576,7810,NNB,A,14
13,test,3,1.0,1-Back,1.0,z,Fri May 29 2026 14:11:36 GMT-0500 (Central Daylight Time),379852.5,058_m_m_n_a.png,O,z,771,16,1,1796.5999999642372,378055.90000003576,7810,NNB,A,15
14,test,3,0.0,1-Back,1.0,m,Fri May 29 2026 14:11:36 GMT-0500 (Central Daylight Time),381352.10000002384,047_o_f_n_a.png,O,m,468,17,1,1496.9000000357628,379855.1999999881,7810,NNB,A,16
15,test,3,1.0,1-Back,1.0,z,Fri May 29 2026 14:11:36 GMT-0500 (Central Daylight Time),382984.6999999881,047_o_f_n_a.png,O,z,609,18,1,1630.0999999642372,381354.60000002384,7810,NNB,A,17
0,test,4,1.0,1-Back,,,Fri May 29 2026 14:11:36 GMT-0500 (Central Daylight Time),382984.6999999881,050_m_f_n_a.png,O,space,1632,1,1,1630.0999999642372,381354.60000002384,7810,NNB,A,0
1,test,4,0.0,1-Back,1.0,m,Fri May 29 2026 14:11:36 GMT-0500 (Central Daylight Time),388149.90000003576,046_o_m_n_a.png,O,m,495,2,1,1513.6000000238419,386636.3000000119,7810,NNB,A,1
1,test,4,0.0,1-Back,0.0,m,Fri May 29 2026 14:11:36 GMT-0500 (Central Daylight Time),389849.1999999881,050_m_f_n_a.png,O,z,682,3,1,1695.8999999761581,388153.3000000119,7810,NNB,A,2
2,test,4,0.0,1-Back,1.0,m,Fri May 29 2026 14:11:36 GMT-0500 (Central Daylight Time),391632.1999999881,044_o_f_n_a.png,O,m,759,4,1,1780.7999999523163,389851.40000003576,7810,NNB,A,3
3,test,4,1.0,1-Back,1.0,z,Fri May 29 2026 14:11:36 GMT-0500 (Central Daylight Time),393114.8000000119,044_o_f_n_a.png,O,z,464,5,1,1479.8999999761581,391634.90000003576,7810,NNB,A,4
4,test,4,0.0,1-Back,1.0,m,Fri May 29 2026 14:11:36 GMT-0500 (Central Daylight Time),394715.60000002384,063_y_f_n_a.png,O,m,581,6,1,1598.5,393117.10000002384,7810,NNB,A,5
5,test,4,0.0,1-Back,1.0,m,Fri May 29 2026 14:11:36 GMT-0500 (Central Daylight Time),396297.40000003576,041_y_m_n_a.png,O,m,550,7,1,1579.2000000476837,394718.1999999881,7810,NNB,A,6
6,test,4,1.0,1-Back,1.0,z,Fri May 29 2026 14:11:36 GMT-0500 (Central Daylight Time),398063.60000002384,041_y_m_n_a.png,O,z,735,8,1,1763.6000000238419,396300.0,7810,NNB,A,7
7,test,4,0.0,1-Back,1.0,m,Fri May 29 2026 14:11:36 GMT-0500 (Central Daylight Time),399779.6999999881,063_y_f_n_a.png,O,m,697,9,1,1713.7999999523163,398065.90000003576,7810,NNB,A,8
8,test,4,0.0,1-Back,1.0,m,Fri May 29 2026 14:11:36 GMT-0500 (Central Daylight Time),401362.3000000119,045_m_m_n_a.png,O,m,557,10,1,1580.0,399782.3000000119,7810,NNB,A,9
9,test,4,1.0,1-Back,1.0,z,Fri May 29 2026 14:11:36 GMT-0500 (Central Daylight Time),403095.3000000119,045_m_m_n_a.png,O,z,702,11,1,1730.199999988079,401365.10000002384,7810,NNB,A,10
10,test,4,0.0,1-Back,1.0,m,Fri May 29 2026 14:11:36 GMT-0500 (Central Daylight Time),404661.5,047_o_f_n_a.png,O,m,545,12,1,1563.5,403098.0,7810,NNB,A,11
11,test,4,0.0,1-Back,1.0,m,Fri May 29 2026 14:11:36 GMT-0500 (Central Daylight Time),406460.8000000119,053_o_m_n_a.png,O,m,770,13,1,1796.8999999761581,404663.90000003576,7810,NNB,A,12
12,test,4,0.0,1-Back,1.0,m,Fri May 29 2026 14:11:36 GMT-0500 (Central Daylight Time),407943.8000000119,047_o_f_n_a.png,O,m,458,14,1,1480.199999988079,406463.60000002384,7810,NNB,A,13
13,test,4,0.0,1-Back,1.0,m,Fri May 29 2026 14:11:36 GMT-0500 (Central Daylight Time),409560.0,010_y_f_n_a.png,O,m,593,15,1,1613.5999999642372,407946.40000003576,7810,NNB,A,14
14,test,4,1.0,1-Back,1.0,z,Fri May 29 2026 14:11:36 GMT-0500 (Central Daylight Time),411109.3000000119,010_y_f_n_a.png,O,z,521,16,1,1546.8999999761581,409562.40000003576,7810,NNB,A,15
15,test,4,0.0,1-Back,1.0,m,Fri May 29 2026 14:11:36 GMT-0500 (Central Daylight Time),412759.10000002384,043_m_f_n_a.png,O,m,627,17,1,1647.0,411112.10000002384,7810,NNB,A,16
16,test,4,1.0,1-Back,1.0,z,Fri May 29 2026 14:11:36 GMT-0500 (Central Daylight Time),414441.8000000119,043_m_f_n_a.png,O,z,643,18,1,1680.0,412761.8000000119,7810,NNB,A,17
0,test,5,1.0,1-Back,,,Fri May 29 2026 14:11:36 GMT-0500 (Central Daylight Time),414441.8000000119,053_o_m_n_a.png,O,space,1327,1,1,1680.0,412761.8000000119,7810,NNB,A,0
1,test,5,1.0,1-Back,1.0,z,Fri May 29 2026 14:11:36 GMT-0500 (Central Daylight Time),419290.0,053_o_m_n_a.png,O,z,474,2,1,1495.5,417794.5,7810,NNB,A,1
2,test,5,0.0,1-Back,1.0,m,Fri May 29 2026 14:11:36 GMT-0500 (Central Daylight Time),420722.90000003576,063_y_f_n_a.png,O,m,413,3,1,1430.5,419292.40000003576,7810,NNB,A,2
3,test,5,0.0,1-Back,1.0,m,Fri May 29 2026 14:11:36 GMT-0500 (Central Daylight Time),422206.0,041_y_m_n_a.png,O,m,452,4,1,1480.8999999761581,420725.10000002384,7810,NNB,A,3
3,test,5,0.0,1-Back,0.0,m,Fri May 29 2026 14:11:36 GMT-0500 (Central Daylight Time),423905.5,063_y_f_n_a.png,O,z,674,5,1,1696.699999988079,422208.8000000119,7810,NNB,A,4
4,test,5,0.0,1-Back,1.0,m,Fri May 29 2026 14:11:36 GMT-0500 (Central Daylight Time),425571.3000000119,058_m_m_n_a.png,O,m,647,6,1,1663.199999988079,423908.10000002384,7810,NNB,A,5
5,test,5,1.0,1-Back,1.0,z,Fri May 29 2026 14:11:36 GMT-0500 (Central Daylight Time),427172.0,058_m_m_n_a.png,O,z,581,7,1,1598.300000011921,425573.6999999881,7810,NNB,A,6
6,test,5,0.0,1-Back,1.0,m,Fri May 29 2026 14:11:36 GMT-0500 (Central Daylight Time),428838.3000000119,010_y_f_n_a.png,O,m,645,8,1,1663.699999988079,427174.60000002384,7810,NNB,A,7
7,test,5,0.0,1-Back,1.0,m,Fri May 29 2026 14:11:36 GMT-0500 (Central Daylight Time),430636.60000002384,008_y_m_n_a.png,O,m,778,9,1,1795.5,428841.10000002384,7810,NNB,A,8
7,test,5,0.0,1-Back,0.0,m,Fri May 29 2026 14:11:36 GMT-0500 (Central Daylight Time),432352.8000000119,010_y_f_n_a.png,O,z,700,10,1,1713.6000000238419,430639.1999999881,7810,NNB,A,9
8,test,5,0.0,1-Back,1.0,m,Fri May 29 2026 14:11:36 GMT-0500 (Central Daylight Time),433902.1999999881,047_o_f_n_a.png,O,m,519,11,1,1546.5,432355.6999999881,7810,NNB,A,10
9,test,5,1.0,1-Back,1.0,z,Fri May 29 2026 14:11:36 GMT-0500 (Central Daylight Time),435386.1999999881,047_o_f_n_a.png,O,z,457,12,1,1481.8999999761581,433904.3000000119,7810,NNB,A,11
10,test,5,0.0,1-Back,1.0,m,Fri May 29 2026 14:11:36 GMT-0500 (Central Daylight Time),437034.90000003576,046_o_m_n_a.png,O,m,623,13,1,1646.2000000476837,435388.6999999881,7810,NNB,A,12
11,test,5,0.0,1-Back,1.0,m,Fri May 29 2026 14:11:36 GMT-0500 (Central Daylight Time),438750.6999999881,050_m_f_n_a.png,O,m,693,14,1,1713.3999999761581,437037.3000000119,7810,NNB,A,13
12,test,5,1.0,1-Back,1.0,z,Fri May 29 2026 14:11:36 GMT-0500 (Central Daylight Time),440450.1999999881,050_m_f_n_a.png,O,z,674,15,1,1696.8999999761581,438753.3000000119,7810,NNB,A,14
13,test,5,0.0,1-Back,1.0,m,Fri May 29 2026 14:11:36 GMT-0500 (Central Daylight Time),442049.3000000119,046_o_m_n_a.png,O,m,582,16,1,1596.6000000238419,440452.6999999881,7810,NNB,A,15
13,test,5,0.0,1-Back,0.0,m,Fri May 29 2026 14:11:36 GMT-0500 (Central Daylight Time),443649.40000003576,043_m_f_n_a.png,O,z,567,17,1,1597.7000000476837,442051.6999999881,7810,NNB,A,16
14,test,5,0.0,1-Back,1.0,m,Fri May 29 2026 14:11:36 GMT-0500 (Central Daylight Time),445298.60000002384,045_m_m_n_a.png,O,m,623,18,1,1646.800000011921,443651.8000000119,7810,NNB,A,17
0,prac,1,0.0,2-Back,,,Fri May 29 2026 14:11:36 GMT-0500 (Central Daylight Time),445298.60000002384,008_y_m_n_a.png,O,space,9024,1,1,1646.800000011921,443651.8000000119,7810,NNB,A,0
0,prac,1,0.0,2-Back,,,Fri May 29 2026 14:11:36 GMT-0500 (Central Daylight Time),445298.60000002384,043_m_f_n_a.png,O,space,9024,2,1,1646.800000011921,443651.8000000119,7810,NNB,A,0
1,prac,1,1.0,2-Back,1.0,m,Fri May 29 2026 14:11:36 GMT-0500 (Central Daylight Time),560745.9000000358,046_o_m_n_a.png,O,m,613,3,1,1412.800000011921,559333.1000000238,7810,NNB,A,1
1,prac,1,0.0,2-Back,0.0,m,Fri May 29 2026 14:11:36 GMT-0500 (Central Daylight Time),562611.9000000358,047_o_f_n_a.png,O,z,1031,4,1,1858.7000000476837,560753.1999999881,7810,NNB,A,2
1,prac,1,0.0,2-Back,0.0,z,Fri May 29 2026 14:11:36 GMT-0500 (Central Daylight Time),564128.1999999881,046_o_m_n_a.png,O,m,745,5,1,1512.699999988079,562615.5,7810,NNB,A,3
2,prac,1,1.0,2-Back,1.0,z,Fri May 29 2026 14:11:36 GMT-0500 (Central Daylight Time),565727.8000000119,047_o_f_n_a.png,O,z,813,6,1,1596.0,564131.8000000119,7810,NNB,A,4
3,prac,1,0.0,2-Back,1.0,m,Fri May 29 2026 14:11:36 GMT-0500 (Central Daylight Time),567427.0,045_m_m_n_a.png,O,m,902,7,1,1695.5999999642372,565731.4000000358,7810,NNB,A,5
4,prac,1,0.0,2-Back,1.0,m,Fri May 29 2026 14:11:36 GMT-0500 (Central Daylight Time),569143.3000000119,053_o_m_n_a.png,O,m,904,8,1,1710.8999999761581,567432.4000000358,7810,NNB,A,6
4,prac,1,0.0,2-Back,0.0,m,Fri May 29 2026 14:11:36 GMT-0500 (Central Daylight Time),570676.1000000238,010_y_f_n_a.png,O,z,694,9,1,1525.800000011921,569150.3000000119,7810,NNB,A,7
5,prac,1,1.0,2-Back,1.0,z,Fri May 29 2026 14:11:36 GMT-0500 (Central Daylight Time),572375.5,053_o_m_n_a.png,O,z,912,10,1,1695.0999999642372,570680.4000000358,7810,NNB,A,8
5,prac,1,0.0,2-Back,0.0,m,Fri May 29 2026 14:11:36 GMT-0500 (Central Daylight Time),573975.1000000238,063_y_f_n_a.png,O,z,781,11,1,1595.5,572379.6000000238,7810,NNB,A,9
5,prac,1,0.0,2-Back,0.0,m,Fri May 29 2026 14:11:36 GMT-0500 (Central Daylight Time),575507.9000000358,045_m_m_n_a.png,O,z,750,12,1,1528.9000000357628,573979.0,7810,NNB,A,10
0,prac,2,0.0,2-Back,,,Fri May 29 2026 14:11:36 GMT-0500 (Central Daylight Time),575507.9000000358,008_y_m_n_a.png,O,a,2426,1,1,1528.9000000357628,573979.0,7810,NNB,A,0
0,prac,2,0.0,2-Back,,,Fri May 29 2026 14:11:36 GMT-0500 (Central Daylight Time),575507.9000000358,043_m_f_n_a.png,O,a,2426,2,1,1528.9000000357628,573979.0,7810,NNB,A,0
1,prac,2,1.0,2-Back,1.0,m,Fri May 29 2026 14:11:36 GMT-0500 (Central Daylight Time),584471.6000000238,046_o_m_n_a.png,O,m,694,3,1,1476.9000000357628,582994.6999999881,7810,NNB,A,1
1,prac,2,0.0,2-Back,0.0,m,Fri May 29 2026 14:11:36 GMT-0500 (Central Daylight Time),585988.1000000238,047_o_f_n_a.png,O,z,734,4,1,1513.0,584475.1000000238,7810,NNB,A,2
1,prac,2,0.0,2-Back,0.0,z,Fri May 29 2026 14:11:36 GMT-0500 (Central Daylight Time),587870.6000000238,046_o_m_n_a.png,O,m,1105,5,1,1878.9000000357628,585991.6999999881,7810,NNB,A,3
2,prac,2,1.0,2-Back,1.0,z,Fri May 29 2026 14:11:36 GMT-0500 (Central Daylight Time),589288.1000000238,047_o_f_n_a.png,O,z,663,6,1,1414.1000000238419,587874.0,7810,NNB,A,4
3,prac,2,0.0,2-Back,1.0,m,Fri May 29 2026 14:11:36 GMT-0500 (Central Daylight Time),590952.9000000358,045_m_m_n_a.png,O,m,881,7,1,1657.300000011921,589295.6000000238,7810,NNB,A,5
3,prac,2,0.0,2-Back,0.0,m,Fri May 29 2026 14:11:36 GMT-0500 (Central Daylight Time),592519.1000000238,053_o_m_n_a.png,O,z,780,8,1,1562.199999988079,590956.9000000358,7810,NNB,A,6
4,prac,2,0.0,2-Back,1.0,m,Fri May 29 2026 14:11:36 GMT-0500 (Central Daylight Time),594151.8000000119,010_y_f_n_a.png,O,m,854,9,1,1628.800000011921,592523.0,7810,NNB,A,7
5,prac,2,1.0,2-Back,1.0,z,Fri May 29 2026 14:11:36 GMT-0500 (Central Daylight Time),595634.8000000119,053_o_m_n_a.png,O,z,701,10,1,1479.5,594155.3000000119,7810,NNB,A,8
5,prac,2,0.0,2-Back,0.0,m,Fri May 29 2026 14:11:36 GMT-0500 (Central Daylight Time),597117.9000000358,063_y_f_n_a.png,O,z,706,11,1,1479.5,595638.4000000358,7810,NNB,A,9
5,prac,2,0.0,2-Back,0.0,m,Fri May 29 2026 14:11:36 GMT-0500 (Central Daylight Time),598584.1000000238,045_m_m_n_a.png,O,z,691,12,1,1458.800000011921,597125.3000000119,7810,NNB,A,10
0,test,1,0.0,2-Back,,,Fri May 29 2026 14:11:36 GMT-0500 (Central Daylight Time),598584.1000000238,041_y_m_n_a.png,O,space,14375,1,1,1458.800000011921,597125.3000000119,7810,NNB,A,0
0,test,1,0.0,2-Back,,,Fri May 29 2026 14:11:36 GMT-0500 (Central Daylight Time),598584.1000000238,041_y_m_n_a.png,O,space,14375,2,1,1458.800000011921,597125.3000000119,7810,NNB,A,0
1,test,1,0.0,2-Back,1.0,m,Fri May 29 2026 14:11:36 GMT-0500 (Central Daylight Time),629657.3000000119,047_o_f_n_a.png,O,m,558,3,1,1579.8999999761581,628077.4000000358,7810,NNB,A,1
1,test,1,0.0,2-Back,0.0,m,Fri May 29 2026 14:11:36 GMT-0500 (Central Daylight Time),631190.1999999881,058_m_m_n_a.png,O,z,503,4,1,1530.2999999523163,629659.9000000358,7810,NNB,A,2
2,test,1,1.0,2-Back,1.0,z,Fri May 29 2026 14:11:36 GMT-0500 (Central Daylight Time),633006.4000000358,047_o_f_n_a.png,O,z,786,5,1,1811.800000011921,631194.6000000238,7810,NNB,A,3
3,test,1,0.0,2-Back,1.0,m,Fri May 29 2026 14:11:36 GMT-0500 (Central Daylight Time),634755.8000000119,063_y_f_n_a.png,O,m,730,6,1,1746.8999999761581,633008.9000000358,7810,NNB,A,4
3,test,1,0.0,2-Back,0.0,m,Fri May 29 2026 14:11:36 GMT-0500 (Central Daylight Time),636472.0,058_m_m_n_a.png,O,z,693,7,1,1713.5999999642372,634758.4000000358,7810,NNB,A,5
4,test,1,1.0,2-Back,1.0,z,Fri May 29 2026 14:11:36 GMT-0500 (Central Daylight Time),637888.4000000358,063_y_f_n_a.png,O,z,384,8,1,1413.7000000476837,636474.6999999881,7810,NNB,A,6
5,test,1,0.0,2-Back,1.0,m,Fri May 29 2026 14:11:36 GMT-0500 (Central Daylight Time),639737.8000000119,008_y_m_n_a.png,O,m,824,9,1,1846.6000000238419,637891.1999999881,7810,NNB,A,7
6,test,1,0.0,2-Back,1.0,m,Fri May 29 2026 14:11:36 GMT-0500 (Central Daylight Time),641353.6000000238,044_o_f_n_a.png,O,m,599,10,1,1613.300000011921,639740.3000000119,7810,NNB,A,8
7,test,1,1.0,2-Back,1.0,z,Fri May 29 2026 14:11:36 GMT-0500 (Central Daylight Time),642971.1000000238,008_y_m_n_a.png,O,z,590,11,1,1615.1000000238419,641356.0,7810,NNB,A,9
8,test,1,0.0,2-Back,1.0,m,Fri May 29 2026 14:11:36 GMT-0500 (Central Daylight Time),644636.1999999881,043_m_f_n_a.png,O,m,646,12,1,1662.3999999761581,642973.8000000119,7810,NNB,A,10
8,test,1,0.0,2-Back,0.0,m,Fri May 29 2026 14:11:36 GMT-0500 (Central Daylight Time),646268.9000000358,043_m_f_n_a.png,O,z,613,13,1,1630.2000000476837,644638.6999999881,7810,NNB,A,11
9,test,1,0.0,2-Back,1.0,m,Fri May 29 2026 14:11:36 GMT-0500 (Central Daylight Time),648018.1999999881,046_o_m_n_a.png,O,m,731,14,1,1746.5999999642372,646271.6000000238,7810,NNB,A,12
10,test,1,0.0,2-Back,1.0,m,Fri May 29 2026 14:11:36 GMT-0500 (Central Daylight Time),649701.5,044_o_f_n_a.png,O,m,661,15,1,1680.800000011921,648020.6999999881,7810,NNB,A,13
11,test,1,1.0,2-Back,1.0,z,Fri May 29 2026 14:11:36 GMT-0500 (Central Daylight Time),651184.1000000238,046_o_m_n_a.png,O,z,449,16,1,1480.199999988079,649703.9000000358,7810,NNB,A,14
12,test,1,0.0,2-Back,1.0,m,Fri May 29 2026 14:11:36 GMT-0500 (Central Daylight Time),653150.1000000238,050_m_f_n_a.png,O,m,936,17,1,1963.4000000357628,651186.6999999881,7810,NNB,A,15
13,test,1,0.0,2-Back,1.0,m,Fri May 29 2026 14:11:36 GMT-0500 (Central Daylight Time),654866.3000000119,045_m_m_n_a.png,O,m,690,18,1,1713.699999988079,653152.6000000238,7810,NNB,A,16
0,test,2,0.0,2-Back,,,Fri May 29 2026 14:11:36 GMT-0500 (Central Daylight Time),654866.3000000119,045_m_m_n_a.png,O,space,1677,1,1,1713.699999988079,653152.6000000238,7810,NNB,A,0
0,test,2,0.0,2-Back,,,Fri May 29 2026 14:11:36 GMT-0500 (Central Daylight Time),654866.3000000119,010_y_f_n_a.png,O,space,1677,2,1,1713.699999988079,653152.6000000238,7810,NNB,A,0
1,test,2,1.0,2-Back,1.0,z,Fri May 29 2026 14:11:36 GMT-0500 (Central Daylight Time),663180.3000000119,045_m_m_n_a.png,O,z,505,3,1,1530.300000011921,661650.0,7810,NNB,A,1
2,test,2,0.0,2-Back,1.0,m,Fri May 29 2026 14:11:36 GMT-0500 (Central Daylight Time),664846.4000000358,050_m_f_n_a.png,O,m,644,4,1,1663.5,663182.9000000358,7810,NNB,A,2
2,test,2,0.0,2-Back,0.0,m,Fri May 29 2026 14:11:36 GMT-0500 (Central Daylight Time),666379.6000000238,010_y_f_n_a.png,O,z,514,5,1,1530.699999988079,664848.9000000358,7810,NNB,A,3
3,test,2,0.0,2-Back,1.0,m,Fri May 29 2026 14:11:36 GMT-0500 (Central Daylight Time),668129.0,046_o_m_n_a.png,O,m,725,6,1,1747.0999999642372,666381.9000000358,7810,NNB,A,4
3,test,2,0.0,2-Back,0.0,m,Fri May 29 2026 14:11:36 GMT-0500 (Central Daylight Time),669711.6000000238,063_y_f_n_a.png,O,z,551,7,1,1580.0,668131.6000000238,7810,NNB,A,5
4,test,2,1.0,2-Back,1.0,z,Fri May 29 2026 14:11:36 GMT-0500 (Central Daylight Time),671277.8000000119,046_o_m_n_a.png,O,z,544,8,1,1563.199999988079,669714.6000000238,7810,NNB,A,6
5,test,2,0.0,2-Back,1.0,m,Fri May 29 2026 14:11:36 GMT-0500 (Central Daylight Time),673039.6000000238,008_y_m_n_a.png,O,m,745,9,1,1759.300000011921,671280.3000000119,7810,NNB,A,7
5,test,2,0.0,2-Back,0.0,m,Fri May 29 2026 14:11:36 GMT-0500 (Central Daylight Time),674826.6999999881,008_y_m_n_a.png,O,z,781,10,1,1784.7999999523163,673041.9000000358,7810,NNB,A,8
6,test,2,0.0,2-Back,1.0,m,Fri May 29 2026 14:11:36 GMT-0500 (Central Daylight Time),676492.8000000119,043_m_f_n_a.png,O,m,646,11,1,1663.5,674829.3000000119,7810,NNB,A,9
6,test,2,0.0,2-Back,0.0,m,Fri May 29 2026 14:11:36 GMT-0500 (Central Daylight Time),678359.0,010_y_f_n_a.png,O,z,835,12,1,1863.5999999642372,676495.4000000358,7810,NNB,A,10
7,test,2,1.0,2-Back,1.0,z,Fri May 29 2026 14:11:36 GMT-0500 (Central Daylight Time),680158.4000000358,043_m_f_n_a.png,O,z,769,13,1,1796.800000011921,678361.6000000238,7810,NNB,A,11
8,test,2,0.0,2-Back,1.0,m,Fri May 29 2026 14:11:36 GMT-0500 (Central Daylight Time),681841.1000000238,053_o_m_n_a.png,O,m,658,14,1,1679.699999988079,680161.4000000358,7810,NNB,A,12
9,test,2,0.0,2-Back,1.0,m,Fri May 29 2026 14:11:36 GMT-0500 (Central Daylight Time),683507.1999999881,053_o_m_n_a.png,O,m,639,15,1,1663.3999999761581,681843.8000000119,7810,NNB,A,13
9,test,2,0.0,2-Back,0.0,m,Fri May 29 2026 14:11:36 GMT-0500 (Central Daylight Time),685190.0,044_o_f_n_a.png,O,z,653,16,1,1680.0,683510.0,7810,NNB,A,14
9,test,2,0.0,2-Back,0.0,m,Fri May 29 2026 14:11:36 GMT-0500 (Central Daylight Time),686922.6000000238,058_m_m_n_a.png,O,z,714,17,1,1729.800000011921,685192.8000000119,7810,NNB,A,15
10,test,2,1.0,2-Back,1.0,z,Fri May 29 2026 14:11:36 GMT-0500 (Central Daylight Time),688755.6999999881,044_o_f_n_a.png,O,z,806,18,1,1830.5999999642372,686925.1000000238,7810,NNB,A,16
0,test,3,1.0,2-Back,,,Fri May 29 2026 14:11:36 GMT-0500 (Central Daylight Time),688755.6999999881,041_y_m_n_a.png,O,space,1421,1,1,1830.5999999642372,686925.1000000238,7810,NNB,A,0
0,test,3,1.0,2-Back,,,Fri May 29 2026 14:11:36 GMT-0500 (Central Daylight Time),688755.6999999881,041_y_m_n_a.png,O,space,1421,2,1,1830.5999999642372,686925.1000000238,7810,NNB,A,0
1,test,3,0.0,2-Back,1.0,m,Fri May 29 2026 14:11:36 GMT-0500 (Central Daylight Time),697052.8000000119,044_o_f_n_a.png,O,m,779,3,1,1796.699999988079,695256.1000000238,7810,NNB,A,1
2,test,3,0.0,2-Back,1.0,m,Fri May 29 2026 14:11:36 GMT-0500 (Central Daylight Time),698802.4000000358,045_m_m_n_a.png,O,m,731,4,1,1746.9000000357628,697055.5,7810,NNB,A,2
3,test,3,1.0,2-Back,1.0,z,Fri May 29 2026 14:11:36 GMT-0500 (Central Daylight Time),700452.1999999881,044_o_f_n_a.png,O,z,622,5,1,1646.5999999642372,698805.6000000238,7810,NNB,A,3
4,test,3,0.0,2-Back,1.0,m,Fri May 29 2026 14:11:36 GMT-0500 (Central Daylight Time),702267.9000000358,008_y_m_n_a.png,O,m,788,6,1,1813.0,700454.9000000358,7810,NNB,A,4
4,test,3,0.0,2-Back,0.0,m,Fri May 29 2026 14:11:36 GMT-0500 (Central Daylight Time),703867.6999999881,045_m_m_n_a.png,O,z,571,7,1,1597.0,702270.6999999881,7810,NNB,A,5
5,test,3,1.0,2-Back,1.0,z,Fri May 29 2026 14:11:36 GMT-0500 (Central Daylight Time),705701.5,008_y_m_n_a.png,O,z,805,8,1,1831.199999988079,703870.3000000119,7810,NNB,A,6
6,test,3,0.0,2-Back,1.0,m,Fri May 29 2026 14:11:36 GMT-0500 (Central Daylight Time),707416.9000000358,010_y_f_n_a.png,O,m,683,9,1,1712.6000000238419,705704.3000000119,7810,NNB,A,7
6,test,3,0.0,2-Back,0.0,m,Fri May 29 2026 14:11:36 GMT-0500 (Central Daylight Time),709416.0,058_m_m_n_a.png,O,z,976,10,1,1996.5,707419.5,7810,NNB,A,8
7,test,3,1.0,2-Back,1.0,z,Fri May 29 2026 14:11:36 GMT-0500 (Central Daylight Time),710815.3000000119,010_y_f_n_a.png,O,z,377,11,1,1396.800000011921,709418.5,7810,NNB,A,9
7,test,3,1.0,2-Back,0.0,z,Fri May 29 2026 14:11:36 GMT-0500 (Central Daylight Time),712465.1999999881,058_m_m_n_a.png,O,m,633,12,1,1647.5,710817.6999999881,7810,NNB,A,10
8,test,3,0.0,2-Back,1.0,m,Fri May 29 2026 14:11:36 GMT-0500 (Central Daylight Time),714497.8000000119,044_o_f_n_a.png,O,m,1008,13,1,2030.3999999761581,712467.4000000358,7810,NNB,A,11
9,test,3,0.0,2-Back,1.0,m,Fri May 29 2026 14:11:36 GMT-0500 (Central Daylight Time),716430.3000000119,050_m_f_n_a.png,O,m,903,14,1,1929.8999999761581,714500.4000000358,7810,NNB,A,12
10,test,3,0.0,2-Back,1.0,m,Fri May 29 2026 14:11:36 GMT-0500 (Central Daylight Time),718129.5,046_o_m_n_a.png,O,m,682,15,1,1696.5999999642372,716432.9000000358,7810,NNB,A,13
11,test,3,1.0,2-Back,1.0,z,Fri May 29 2026 14:11:36 GMT-0500 (Central Daylight Time),719929.0,050_m_f_n_a.png,O,z,775,16,1,1797.199999988079,718131.8000000119,7810,NNB,A,14
12,test,3,0.0,2-Back,1.0,m,Fri May 29 2026 14:11:36 GMT-0500 (Central Daylight Time),721595.3000000119,047_o_f_n_a.png,O,m,640,17,1,1663.6000000238419,719931.6999999881,7810,NNB,A,15
12,test,3,0.0,2-Back,0.0,m,Fri May 29 2026 14:11:36 GMT-0500 (Central Daylight Time),723344.8000000119,047_o_f_n_a.png,O,z,724,18,1,1747.199999988079,721597.6000000238,7810,NNB,A,16
0,test,4,0.0,2-Back,,,Fri May 29 2026 14:11:36 GMT-0500 (Central Daylight Time),723344.8000000119,053_o_m_n_a.png,O,space,1080,1,1,1747.199999988079,721597.6000000238,7810,NNB,A,0
0,test,4,0.0,2-Back,,,Fri May 29 2026 14:11:36 GMT-0500 (Central Daylight Time),723344.8000000119,063_y_f_n_a.png,O,space,1080,2,1,1747.199999988079,721597.6000000238,7810,NNB,A,0
1,test,4,1.0,2-Back,1.0,z,Fri May 29 2026 14:11:36 GMT-0500 (Central Daylight Time),731325.6999999881,053_o_m_n_a.png,O,z,770,3,1,1797.199999988079,729528.5,7810,NNB,A,1
2,test,4,1.0,2-Back,1.0,z,Fri May 29 2026 14:11:36 GMT-0500 (Central Daylight Time),733258.3000000119,063_y_f_n_a.png,O,z,907,4,1,1930.199999988079,731328.1000000238,7810,NNB,A,2
3,test,4,0.0,2-Back,1.0,m,Fri May 29 2026 14:11:36 GMT-0500 (Central Daylight Time),734941.3000000119,044_o_f_n_a.png,O,m,653,5,1,1680.6000000238419,733260.6999999881,7810,NNB,A,3
4,test,4,0.0,2-Back,1.0,m,Fri May 29 2026 14:11:36 GMT-0500 (Central Daylight Time),736873.8000000119,044_o_f_n_a.png,O,m,907,6,1,1929.6000000238419,734944.1999999881,7810,NNB,A,4
4,test,4,0.0,2-Back,0.0,m,Fri May 29 2026 14:11:36 GMT-0500 (Central Daylight Time),738756.6999999881,043_m_f_n_a.png,O,z,862,7,1,1878.5999999642372,736878.1000000238,7810,NNB,A,5
5,test,4,0.0,2-Back,1.0,m,Fri May 29 2026 14:11:36 GMT-0500 (Central Daylight Time),740472.6999999881,008_y_m_n_a.png,O,m,684,8,1,1713.2999999523163,738759.4000000358,7810,NNB,A,6
6,test,4,1.0,2-Back,1.0,z,Fri May 29 2026 14:11:36 GMT-0500 (Central Daylight Time),742255.6000000238,043_m_f_n_a.png,O,z,752,9,1,1780.4000000357628,740475.1999999881,7810,NNB,A,7
7,test,4,0.0,2-Back,1.0,m,Fri May 29 2026 14:11:36 GMT-0500 (Central Daylight Time),744038.3000000119,058_m_m_n_a.png,O,m,761,10,1,1780.199999988079,742258.1000000238,7810,NNB,A,8
8,test,4,0.0,2-Back,1.0,m,Fri May 29 2026 14:11:36 GMT-0500 (Central Daylight Time),746170.9000000358,008_y_m_n_a.png,O,m,1105,11,1,2130.0,744040.9000000358,7810,NNB,A,9
8,test,4,0.0,2-Back,0.0,m,Fri May 29 2026 14:11:36 GMT-0500 (Central Daylight Time),747770.1999999881,047_o_f_n_a.png,O,z,580,12,1,1596.699999988079,746173.5,7810,NNB,A,10
9,test,4,0.0,2-Back,1.0,m,Fri May 29 2026 14:11:36 GMT-0500 (Central Daylight Time),749503.3000000119,041_y_m_n_a.png,O,m,702,13,1,1730.800000011921,747772.5,7810,NNB,A,11
9,test,4,1.0,2-Back,0.0,z,Fri May 29 2026 14:11:36 GMT-0500 (Central Daylight Time),751136.1000000238,047_o_f_n_a.png,O,m,601,14,1,1630.1000000238419,749506.0,7810,NNB,A,12
10,test,4,1.0,2-Back,1.0,z,Fri May 29 2026 14:11:36 GMT-0500 (Central Daylight Time),752885.6000000238,041_y_m_n_a.png,O,z,720,15,1,1747.1000000238419,751138.5,7810,NNB,A,13
11,test,4,0.0,2-Back,1.0,m,Fri May 29 2026 14:11:36 GMT-0500 (Central Daylight Time),754685.1000000238,045_m_m_n_a.png,O,m,771,16,1,1797.1000000238419,752888.0,7810,NNB,A,14
11,test,4,0.0,2-Back,0.0,m,Fri May 29 2026 14:11:36 GMT-0500 (Central Daylight Time),756701.0,050_m_f_n_a.png,O,z,987,17,1,2013.3999999761581,754687.6000000238,7810,NNB,A,15
11,test,4,1.0,2-Back,0.0,z,Fri May 29 2026 14:11:36 GMT-0500 (Central Daylight Time),758367.1999999881,045_m_m_n_a.png,O,m,643,18,1,1663.7999999523163,756703.4000000358,7810,NNB,A,16
0,test,5,1.0,2-Back,,,Fri May 29 2026 14:11:36 GMT-0500 (Central Daylight Time),758367.1999999881,041_y_m_n_a.png,O,space,1161,1,1,1663.7999999523163,756703.4000000358,7810,NNB,A,0
0,test,5,1.0,2-Back,,,Fri May 29 2026 14:11:36 GMT-0500 (Central Daylight Time),758367.1999999881,050_m_f_n_a.png,O,space,1161,2,1,1663.7999999523163,756703.4000000358,7810,NNB,A,0
1,test,5,1.0,2-Back,1.0,z,Fri May 29 2026 14:11:36 GMT-0500 (Central Daylight Time),766281.0,041_y_m_n_a.png,O,z,683,3,1,1696.800000011921,764584.1999999881,7810,NNB,A,1
2,test,5,1.0,2-Back,1.0,z,Fri May 29 2026 14:11:36 GMT-0500 (Central Daylight Time),767947.5,050_m_f_n_a.png,O,z,629,4,1,1664.199999988079,766283.3000000119,7810,NNB,A,2
3,test,5,0.0,2-Back,1.0,m,Fri May 29 2026 14:11:36 GMT-0500 (Central Daylight Time),769613.6999999881,047_o_f_n_a.png,O,m,637,5,1,1663.7999999523163,767949.9000000358,7810,NNB,A,3
3,test,5,0.0,2-Back,0.0,m,Fri May 29 2026 14:11:36 GMT-0500 (Central Daylight Time),771446.3000000119,041_y_m_n_a.png,O,z,803,6,1,1830.0,769616.3000000119,7810,NNB,A,4
4,test,5,0.0,2-Back,1.0,m,Fri May 29 2026 14:11:36 GMT-0500 (Central Daylight Time),773212.6000000238,010_y_f_n_a.png,O,m,746,7,1,1763.800000011921,771448.8000000119,7810,NNB,A,5
4,test,5,0.0,2-Back,0.0,m,Fri May 29 2026 14:11:36 GMT-0500 (Central Daylight Time),775478.6000000238,047_o_f_n_a.png,O,z,1244,8,1,2263.300000011921,773215.3000000119,7810,NNB,A,6
5,test,5,1.0,2-Back,1.0,z,Fri May 29 2026 14:11:36 GMT-0500 (Central Daylight Time),777461.3000000119,010_y_f_n_a.png,O,z,953,9,1,1980.300000011921,775481.0,7810,NNB,A,7
6,test,5,0.0,2-Back,1.0,m,Fri May 29 2026 14:11:36 GMT-0500 (Central Daylight Time),779110.4000000358,046_o_m_n_a.png,O,m,619,10,1,1646.7000000476837,777463.6999999881,7810,NNB,A,8
7,test,5,0.0,2-Back,1.0,m,Fri May 29 2026 14:11:36 GMT-0500 (Central Daylight Time),780910.0,043_m_f_n_a.png,O,m,778,11,1,1797.199999988079,779112.8000000119,7810,NNB,A,9
7,test,5,0.0,2-Back,0.0,m,Fri May 29 2026 14:11:36 GMT-0500 (Central Daylight Time),782592.8000000119,058_m_m_n_a.png,O,z,666,12,1,1680.3999999761581,780912.4000000358,7810,NNB,A,10
7,test,5,0.0,2-Back,0.0,m,Fri May 29 2026 14:11:36 GMT-0500 (Central Daylight Time),784442.6000000238,046_o_m_n_a.png,O,z,825,13,1,1847.6000000238419,782595.0,7810,NNB,A,11
7,test,5,1.0,2-Back,0.0,z,Fri May 29 2026 14:11:36 GMT-0500 (Central Daylight Time),786391.6000000238,058_m_m_n_a.png,O,m,926,14,1,1946.4000000357628,784445.1999999881,7810,NNB,A,12
8,test,5,0.0,2-Back,1.0,m,Fri May 29 2026 14:11:36 GMT-0500 (Central Daylight Time),788290.8000000119,063_y_f_n_a.png,O,m,873,15,1,1896.800000011921,786394.0,7810,NNB,A,13
9,test,5,0.0,2-Back,1.0,m,Fri May 29 2026 14:11:36 GMT-0500 (Central Daylight Time),790023.6999999881,053_o_m_n_a.png,O,m,701,16,1,1730.5999999642372,788293.1000000238,7810,NNB,A,14
9,test,5,0.0,2-Back,0.0,m,Fri May 29 2026 14:11:36 GMT-0500 (Central Daylight Time),791589.6999999881,043_m_f_n_a.png,O,z,541,17,1,1563.5999999642372,790026.1000000238,7810,NNB,A,15
9,test,5,1.0,2-Back,0.0,z,Fri May 29 2026 14:11:36 GMT-0500 (Central Daylight Time),793306.1000000238,053_o_m_n_a.png,O,m,689,18,1,1714.199999988079,791591.9000000358,7810,NNB,A,16
