acc_sum,block,block_c,condition,correct,correct_response,datetime,endtime,flanker,jitter,project,response,response_test_buffer_response,response_test_target_response,response_time,response_time_test_buffer_response,response_time_test_target_response,row_sel,session_number,start_end,starttime,subject_id,target,task,task_vers,time_test_buffer,time_test_buffer_response,time_test_constants,time_test_flanker,time_test_jitter,time_test_logger,time_test_target,time_test_target_response,time_test_variables,trial
0,prac,1,con,0,m,Fri Apr 03 2026 09:56:54 GMT-0500 (Central Daylight Time),126979.89999997616,bell,1000,O,None,,,1816,,,3,,5093.699999988079,121886.19999998808,7771,bell,AF,A,,,,,,,,,,1
1,prac,1,con,1,m,Fri Apr 03 2026 09:56:54 GMT-0500 (Central Daylight Time),130461.39999997616,jacket,800,O,m,,,1366,,,5,,3475.0,126986.39999997616,7771,jacket,AF,A,,,,,,,,,,2
2,prac,1,inc,1,z,Fri Apr 03 2026 09:56:54 GMT-0500 (Central Daylight Time),133543.79999998212,film,900,O,z,,,882,,,14,,3074.199999988079,130469.59999999404,7771,hate,AF,A,,,,,,,,,,3
3,prac,1,inc,1,m,Fri Apr 03 2026 09:56:54 GMT-0500 (Central Daylight Time),136359.79999998212,kind,900,O,m,,,616,,,2,,2810.5999999940395,133549.19999998808,7771,rock,AF,A,,,,,,,,,,4
4,prac,1,con,1,z,Fri Apr 03 2026 09:56:54 GMT-0500 (Central Daylight Time),139175.59999999404,rage,1000,O,z,,,508,,,15,,2808.800000011921,136366.79999998212,7771,rage,AF,A,,,,,,,,,,5
5,prac,1,inc,1,m,Fri Apr 03 2026 09:56:54 GMT-0500 (Central Daylight Time),142174.09999999404,hate,1100,O,m,,,596,,,4,,2993.300000011921,139180.79999998212,7771,film,AF,A,,,,,,,,,,6
6,prac,1,inc,1,m,Fri Apr 03 2026 09:56:54 GMT-0500 (Central Daylight Time),145355.5,brutal,1100,O,m,,,768,,,8,,3174.4000000059605,142181.09999999404,7771,window,AF,A,,,,,,,,,,7
7,prac,1,inc,1,m,Fri Apr 03 2026 09:56:54 GMT-0500 (Central Daylight Time),148287.19999998808,elated,900,O,m,,,715,,,6,,2927.9000000059605,145359.29999998212,7771,napkin,AF,A,,,,,,,,,,8
8,prac,1,con,1,m,Fri Apr 03 2026 09:56:54 GMT-0500 (Central Daylight Time),151471.89999997616,remote,1000,O,m,,,882,,,7,,3181.0999999940395,148290.79999998212,7771,remote,AF,A,,,,,,,,,,9
9,prac,1,inc,1,z,Fri Apr 03 2026 09:56:54 GMT-0500 (Central Daylight Time),154187.19999998808,rock,900,O,z,,,517,,,10,,2709.800000011921,151477.39999997616,7771,kind,AF,A,,,,,,,,,,10
10,prac,1,inc,1,z,Fri Apr 03 2026 09:56:54 GMT-0500 (Central Daylight Time),157353.59999999404,window,1100,O,z,,,765,,,16,,3160.300000011921,154193.29999998212,7771,temper,AF,A,,,,,,,,,,11
11,prac,1,inc,1,z,Fri Apr 03 2026 09:56:54 GMT-0500 (Central Daylight Time),160817.89999997616,napkin,1100,O,z,,,1063,,,12,,3457.699999988079,157360.19999998808,7771,friend,AF,A,,,,,,,,,,12
11,prac,1,con,0,z,Fri Apr 03 2026 09:56:54 GMT-0500 (Central Daylight Time),163399.69999998808,brutal,800,O,m,,,472,,,13,,2575.199999988079,160824.5,7771,brutal,AF,A,,,,,,,,,,13
12,prac,1,con,1,z,Fri Apr 03 2026 09:56:54 GMT-0500 (Central Daylight Time),166432.79999998212,love,1000,O,z,,,745,,,11,,3028.7999999821186,163404.0,7771,love,AF,A,,,,,,,,,,14
13,prac,1,con,1,z,Fri Apr 03 2026 09:56:54 GMT-0500 (Central Daylight Time),169065.19999998808,elated,800,O,z,,,517,,,9,,2627.0999999940395,166438.09999999404,7771,elated,AF,A,,,,,,,,,,15
14,prac,1,con,1,m,Fri Apr 03 2026 09:56:54 GMT-0500 (Central Daylight Time),172382.19999998808,step,800,O,m,,,1200,,,1,,3311.4000000059605,169070.79999998212,7771,step,AF,A,,,,,,,,,,16
1,test,1,con,1,z,Fri Apr 03 2026 09:56:54 GMT-0500 (Central Daylight Time),183610.89999997616,brutal,800,O,z,z,None,748,548.0,200.0,33,,2077.2999999821186,181533.59999999404,7771,brutal,AF,A,180715,180715,179188,179999,179188,181265,180515,180515,181265,1
2,test,1,inc,1,m,Fri Apr 03 2026 09:56:54 GMT-0500 (Central Daylight Time),185876.09999999404,friend,1100,O,m,m,None,636,435.0,201.0,112,,2259.5999999940395,183616.5,7771,napkin,AF,A,183082,183082,181271,182379,181271,183530,182881,182881,183530,2
3,test,1,con,1,m,Fri Apr 03 2026 09:56:54 GMT-0500 (Central Daylight Time),187810.69999998808,napkin,900,O,m,m,None,489,287.0,202.0,106,,1929.9000000059605,185880.79999998212,7771,napkin,AF,A,185166,185166,183535,184449,183535,185465,184963,184963,185465,3
4,test,1,inc,1,m,Fri Apr 03 2026 09:56:54 GMT-0500 (Central Daylight Time),189941.69999998808,brutal,900,O,m,m,None,701,501.0,200.0,118,,2125.0,187816.69999998808,7771,remote,AF,A,187081,187081,185471,186379,185471,187596,186881,186881,187596,4
5,test,1,con,1,m,Fri Apr 03 2026 09:56:54 GMT-0500 (Central Daylight Time),191841.0,film,800,O,m,m,None,572,373.0,199.0,89,,1891.800000011921,189949.19999998808,7771,film,AF,A,189113,189113,187603,188413,187604,189495,188914,188914,189495,5
6,test,1,con,1,z,Fri Apr 03 2026 09:56:54 GMT-0500 (Central Daylight Time),193691.09999999404,friend,800,O,z,z,None,505,290.0,215.0,25,,1843.7000000178814,191847.39999997616,7771,friend,AF,A,191044,191044,189501,190315,189502,191345,190829,190829,191345,6
7,test,1,inc,1,z,Fri Apr 03 2026 09:56:54 GMT-0500 (Central Daylight Time),195809.0,window,1100,O,z,z,None,484,284.0,200.0,64,,2113.100000023842,193695.89999997616,7771,temper,AF,A,193179,193179,191350,192461,191350,193463,192978,192978,193463,7
8,test,1,con,1,m,Fri Apr 03 2026 09:56:54 GMT-0500 (Central Daylight Time),198156.0,film,1100,O,m,m,None,702,489.0,213.0,92,,2342.4000000059605,195813.59999999404,7771,film,AF,A,195310,195310,193468,194579,193468,195810,195097,195097,195810,8
9,test,1,inc,1,z,Fri Apr 03 2026 09:56:54 GMT-0500 (Central Daylight Time),200439.09999999404,window,1100,O,z,z,None,641,439.0,202.0,40,,2277.300000011921,198161.79999998212,7771,brutal,AF,A,197646,197646,195816,196928,195816,198093,197443,197443,198093,9
10,test,1,con,1,z,Fri Apr 03 2026 09:56:54 GMT-0500 (Central Daylight Time),202288.79999998212,elated,800,O,z,z,None,507,307.0,200.0,1,,1843.699999988079,200445.09999999404,7771,elated,AF,A,199627,199627,198099,198910,198099,199943,199427,199427,199943,10
11,test,1,inc,1,z,Fri Apr 03 2026 09:56:54 GMT-0500 (Central Daylight Time),204270.29999998212,napkin,900,O,z,z,None,535,335.0,200.0,38,,1975.5999999940395,202294.69999998808,7771,brutal,AF,A,201575,201575,199949,200859,199949,201924,201375,201375,201924,11
12,test,1,inc,1,z,Fri Apr 03 2026 09:56:54 GMT-0500 (Central Daylight Time),206337.19999998808,bell,1000,O,z,z,None,532,333.0,199.0,23,,2060.5,204276.69999998808,7771,love,AF,A,203658,203658,201931,202942,201931,203991,203458,203458,203991,12
13,test,1,inc,1,z,Fri Apr 03 2026 09:56:54 GMT-0500 (Central Daylight Time),208452.09999999404,window,1100,O,z,z,None,493,279.0,214.0,8,,2110.5999999940395,206341.5,7771,elated,AF,A,205823,205823,203996,205108,203996,206106,205609,205609,206106,13
14,test,1,con,1,z,Fri Apr 03 2026 09:56:54 GMT-0500 (Central Daylight Time),210569.0,friend,900,O,z,z,None,676,476.0,200.0,26,,2112.600000023842,208456.39999997616,7771,friend,AF,A,207739,207739,206110,207024,206111,208223,207539,207539,208223,14
15,test,1,inc,1,m,Fri Apr 03 2026 09:56:54 GMT-0500 (Central Daylight Time),212651.29999998212,friend,1100,O,m,m,None,437,238.0,199.0,104,,2075.0,210576.29999998212,7771,jacket,AF,A,210057,210057,208230,209340,208231,210305,209857,209857,210305,15
16,test,1,con,1,z,Fri Apr 03 2026 09:56:54 GMT-0500 (Central Daylight Time),214932.79999998212,elated,1100,O,z,z,None,643,442.0,201.0,4,,2277.699999988079,212655.09999999404,7771,elated,AF,A,212140,212140,210309,211422,210309,212587,211938,211938,212587,16
17,test,1,inc,1,z,Fri Apr 03 2026 09:56:54 GMT-0500 (Central Daylight Time),217067.69999998808,rock,900,O,z,z,None,697,498.0,199.0,54,,2128.800000011921,214938.89999997616,7771,rage,AF,A,214221,214221,212593,213505,212593,214722,214022,214022,214722,17
18,test,1,inc,1,m,Fri Apr 03 2026 09:56:54 GMT-0500 (Central Daylight Time),218931.79999998212,elated,800,O,m,m,None,526,325.0,201.0,101,,1856.7999999821186,217075.0,7771,jacket,AF,A,216256,216256,214729,215538,214729,216586,216055,216055,216586,18
19,test,1,con,1,m,Fri Apr 03 2026 09:56:54 GMT-0500 (Central Daylight Time),221066.19999998808,bell,1100,O,m,m,None,497,283.0,214.0,84,,2131.300000011921,218934.89999997616,7771,bell,AF,A,218437,218437,216589,217705,216589,218720,218222,218222,218720,19
20,test,1,inc,1,m,Fri Apr 03 2026 09:56:54 GMT-0500 (Central Daylight Time),223099.29999998212,brutal,900,O,m,m,None,594,381.0,213.0,110,,2027.4000000059605,221071.89999997616,7771,napkin,AF,A,220369,220370,218726,219639,218726,220753,220156,220156,220753,20
21,test,1,inc,1,m,Fri Apr 03 2026 09:56:54 GMT-0500 (Central Daylight Time),225380.29999998212,hate,1100,O,m,m,None,643,442.0,201.0,96,,2275.0,223105.29999998212,7771,film,AF,A,222587,222587,220759,221870,220759,223034,222386,222386,223034,21
22,test,1,inc,1,z,Fri Apr 03 2026 09:56:54 GMT-0500 (Central Daylight Time),227479.69999998808,bell,1000,O,z,z,None,571,357.0,214.0,15,,2095.300000011921,225384.39999997616,7771,kind,AF,A,224768,224768,223038,224051,223039,225134,224553,224553,225134,22
23,test,1,inc,1,z,Fri Apr 03 2026 09:56:54 GMT-0500 (Central Daylight Time),229630.19999998808,film,1100,O,z,z,None,503,302.0,201.0,48,,2147.5999999940395,227482.59999999404,7771,hate,AF,A,226968,226968,225137,226251,225137,227284,226767,226767,227284,23
24,test,1,con,1,m,Fri Apr 03 2026 09:56:54 GMT-0500 (Central Daylight Time),231645.0,remote,1000,O,m,m,None,475,276.0,199.0,115,,2011.800000011921,229633.19999998808,7771,remote,AF,A,229017,229017,227287,228301,227287,229299,228817,228817,229299,24
25,test,1,con,1,m,Fri Apr 03 2026 09:56:54 GMT-0500 (Central Daylight Time),233727.09999999404,bell,900,O,m,m,None,658,458.0,200.0,82,,2079.2000000178814,231647.89999997616,7771,bell,AF,A,230916,230916,229302,230214,229302,231381,230716,230716,231381,25
26,test,1,inc,1,m,Fri Apr 03 2026 09:56:54 GMT-0500 (Central Daylight Time),236027.79999998212,hate,1100,O,m,m,None,665,464.0,201.0,72,,2295.199999988079,233732.59999999404,7771,step,AF,A,233218,233218,231387,232504,231387,233682,233017,233017,233682,26
27,test,1,con,1,z,Fri Apr 03 2026 09:56:54 GMT-0500 (Central Daylight Time),237976.59999999404,love,800,O,z,z,None,614,415.0,199.0,17,,1943.9000000059605,236032.69999998808,7771,love,AF,A,235215,235215,233687,234499,233687,235631,235016,235016,235631,27
28,test,1,con,1,z,Fri Apr 03 2026 09:56:54 GMT-0500 (Central Daylight Time),239826.09999999404,temper,800,O,z,z,None,504,289.0,215.0,57,,1846.2000000178814,237979.89999997616,7771,temper,AF,A,237181,237181,235634,236448,235634,237480,236965,236965,237480,28
29,test,1,con,1,z,Fri Apr 03 2026 09:56:54 GMT-0500 (Central Daylight Time),241925.59999999404,friend,1000,O,z,z,None,557,344.0,213.0,27,,2094.2000000178814,239831.39999997616,7771,friend,AF,A,239230,239230,237485,238497,237486,239580,239016,239016,239580,29
30,test,1,inc,1,z,Fri Apr 03 2026 09:56:54 GMT-0500 (Central Daylight Time),243925.69999998808,step,800,O,z,z,None,665,466.0,199.0,45,,1995.300000011921,241930.39999997616,7771,hate,AF,A,241096,241096,239584,240396,239585,241580,240897,240897,241580,30
31,test,1,inc,1,m,Fri Apr 03 2026 09:56:54 GMT-0500 (Central Daylight Time),245759.19999998808,elated,800,O,m,m,None,492,292.0,200.0,109,,1827.4000000059605,243931.79999998212,7771,napkin,AF,A,243113,243113,241586,242399,241586,243413,242912,242912,243413,31
32,test,1,con,1,m,Fri Apr 03 2026 09:56:54 GMT-0500 (Central Daylight Time),247757.0,step,800,O,m,m,None,651,436.0,215.0,65,,1994.7000000178814,245762.29999998212,7771,step,AF,A,244961,244962,243416,244229,243417,245411,244746,244746,245411,32
33,test,1,inc,1,m,Fri Apr 03 2026 09:56:54 GMT-0500 (Central Daylight Time),249755.39999997616,rage,800,O,m,m,None,678,479.0,199.0,77,,1994.5,247760.89999997616,7771,rock,AF,A,246928,246928,245415,246227,245415,247410,246729,246729,247409,33
34,test,1,inc,1,m,Fri Apr 03 2026 09:56:54 GMT-0500 (Central Daylight Time),251723.19999998808,rage,800,O,m,m,None,638,437.0,201.0,69,,1964.4000000059605,249758.79999998212,7771,step,AF,A,248929,248929,247413,248227,247413,249377,248728,248728,249377,34
35,test,1,con,1,m,Fri Apr 03 2026 09:56:54 GMT-0500 (Central Daylight Time),253839.29999998212,remote,1100,O,m,m,None,484,269.0,215.0,116,,2112.699999988079,251726.59999999404,7771,remote,AF,A,251209,251209,249381,250492,249381,251493,250994,250994,251493,35
36,test,1,con,1,m,Fri Apr 03 2026 09:56:54 GMT-0500 (Central Daylight Time),256138.09999999404,step,1100,O,m,m,None,664,445.0,219.0,68,,2295.9000000059605,253842.19999998808,7771,step,AF,A,253346,253346,251496,252610,251496,253792,253127,253127,253792,36
37,test,1,inc,1,z,Fri Apr 03 2026 09:56:54 GMT-0500 (Central Daylight Time),257920.09999999404,step,800,O,z,z,None,431,232.0,199.0,13,,1778.7000000178814,256141.39999997616,7771,kind,AF,A,255325,255325,253795,254608,253796,255574,255126,255126,255574,37
38,test,1,inc,1,m,Fri Apr 03 2026 09:56:54 GMT-0500 (Central Daylight Time),260169.89999997616,temper,1000,O,m,m,None,707,506.0,201.0,103,,2244.199999988079,257925.69999998808,7771,jacket,AF,A,257308,257308,255580,256593,255580,257824,257106,257106,257824,38
39,test,1,inc,1,z,Fri Apr 03 2026 09:56:54 GMT-0500 (Central Daylight Time),262585.2999999821,remote,1000,O,z,z,None,873,672.0,201.0,7,,2412.7999999821186,260172.5,7771,elated,AF,A,259557,259557,257827,258842,257827,260239,259356,259356,260239,39
40,test,1,inc,1,z,Fri Apr 03 2026 09:56:54 GMT-0500 (Central Daylight Time),264666.7999999821,jacket,800,O,z,z,None,759,545.0,214.0,61,,2077.9000000059605,262588.89999997616,7771,temper,AF,A,261772,261772,260243,261057,260243,262321,261558,261558,262321,40
41,test,1,con,1,z,Fri Apr 03 2026 09:56:54 GMT-0500 (Central Daylight Time),266651.1999999881,rage,800,O,z,z,None,639,440.0,199.0,49,,1980.699999988079,264670.5,7771,rage,AF,A,263854,263854,262325,263140,262325,264305,263655,263655,264305,41
42,test,1,inc,1,z,Fri Apr 03 2026 09:56:54 GMT-0500 (Central Daylight Time),268699.89999997616,film,1100,O,z,z,None,401,202.0,199.0,24,,2045.699999988079,266654.1999999881,7771,love,AF,A,266139,266139,264308,265423,264308,266354,265939,265939,266354,42
43,test,1,inc,1,z,Fri Apr 03 2026 09:56:54 GMT-0500 (Central Daylight Time),270548.7999999821,step,800,O,z,z,None,511,309.0,202.0,53,,1844.5999999940395,268704.1999999881,7771,rage,AF,A,267888,267888,266358,267170,266359,268203,267685,267685,268203,43
44,test,1,inc,1,m,Fri Apr 03 2026 09:56:54 GMT-0500 (Central Daylight Time),272633.1999999881,love,1000,O,m,m,None,541,340.0,201.0,95,,2080.800000011921,270552.39999997616,7771,film,AF,A,269938,269938,268206,269220,268207,270287,269737,269737,270287,44
45,test,1,inc,1,z,Fri Apr 03 2026 09:56:54 GMT-0500 (Central Daylight Time),274483.1999999881,jacket,800,O,z,z,None,506,306.0,200.0,5,,1845.199999988079,272638.0,7771,elated,AF,A,271820,271820,270292,271102,270292,272137,271619,271619,272137,45
46,test,1,con,1,z,Fri Apr 03 2026 09:56:54 GMT-0500 (Central Daylight Time),276348.1999999881,hate,900,O,z,z,None,442,227.0,215.0,42,,1861.0,274487.1999999881,7771,hate,AF,A,273770,273770,272141,273052,272141,274002,273554,273554,274002,46
47,test,1,con,1,m,Fri Apr 03 2026 09:56:54 GMT-0500 (Central Daylight Time),278097.1999999881,rock,800,O,m,m,None,423,208.0,215.0,73,,1745.5999999940395,276351.59999999404,7771,rock,AF,A,275535,275535,274006,274819,274006,275751,275320,275320,275751,47
48,test,1,con,1,m,Fri Apr 03 2026 09:56:54 GMT-0500 (Central Daylight Time),279964.0,remote,900,O,m,m,None,416,216.0,200.0,114,,1862.7000000178814,278101.2999999821,7771,remote,AF,A,277385,277385,275755,276669,275756,277618,277185,277185,277618,48
49,test,1,inc,1,z,Fri Apr 03 2026 09:56:54 GMT-0500 (Central Daylight Time),281894.89999997616,napkin,900,O,z,z,None,484,284.0,200.0,30,,1925.5,279969.39999997616,7771,friend,AF,A,279249,279249,277623,278535,277624,279549,279049,279049,279549,49
50,test,1,con,1,m,Fri Apr 03 2026 09:56:54 GMT-0500 (Central Daylight Time),283896.59999999404,window,900,O,m,m,None,550,334.0,216.0,122,,1998.5999999940395,281898.0,7771,window,AF,A,281200,281200,279552,280467,279552,281551,280984,280984,281551,50
51,test,1,con,1,m,Fri Apr 03 2026 09:56:54 GMT-0500 (Central Daylight Time),286179.6999999881,window,1100,O,m,m,None,635,433.0,202.0,124,,2277.5,283902.1999999881,7771,window,AF,A,283384,283384,281556,282666,281557,283834,283182,283182,283834,51
52,test,1,con,1,z,Fri Apr 03 2026 09:56:54 GMT-0500 (Central Daylight Time),287994.09999999404,kind,800,O,z,z,None,472,273.0,199.0,9,,1809.5999999940395,286184.5,7771,kind,AF,A,285366,285366,283839,284650,283839,285648,285167,285167,285648,52
53,test,1,con,1,z,Fri Apr 03 2026 09:56:54 GMT-0500 (Central Daylight Time),290126.2999999821,rage,900,O,z,z,None,692,492.0,200.0,50,,2128.0,287998.2999999821,7771,rage,AF,A,287283,287283,285652,286565,285653,287780,287082,287082,287780,53
54,test,1,con,1,m,Fri Apr 03 2026 09:56:54 GMT-0500 (Central Daylight Time),291925.89999997616,window,800,O,m,m,None,449,235.0,214.0,121,,1795.699999988079,290130.1999999881,7771,window,AF,A,289330,289330,287784,288598,287784,289580,289115,289115,289580,54
55,test,1,inc,1,m,Fri Apr 03 2026 09:56:54 GMT-0500 (Central Daylight Time),293774.7999999821,elated,800,O,m,m,None,499,299.0,200.0,125,,1842.9000000059605,291931.89999997616,7771,window,AF,A,291114,291114,289586,290397,289586,291429,290914,290914,291429,55
56,test,1,con,1,z,Fri Apr 03 2026 09:56:54 GMT-0500 (Central Daylight Time),295809.89999997616,love,1100,O,z,z,None,416,217.0,199.0,20,,2030.5999999940395,293779.2999999821,7771,love,AF,A,293246,293246,291433,292546,291434,293464,293047,293047,293464,56
57,test,1,inc,1,m,Fri Apr 03 2026 09:56:54 GMT-0500 (Central Daylight Time),298024.59999999404,love,1000,O,m,m,None,682,481.0,201.0,87,,2209.7000000178814,295814.89999997616,7771,bell,AF,A,295197,295197,293469,294479,293469,295679,294996,294996,295679,57
58,test,1,con,1,m,Fri Apr 03 2026 09:56:54 GMT-0500 (Central Daylight Time),300041.5,jacket,800,O,m,m,None,683,482.0,201.0,97,,2010.9000000059605,298030.59999999404,7771,jacket,AF,A,297213,297213,295685,296495,295685,297696,297012,297012,297696,58
59,test,1,inc,1,z,Fri Apr 03 2026 09:56:54 GMT-0500 (Central Daylight Time),301971.6999999881,rock,900,O,z,z,None,493,294.0,199.0,22,,1924.5999999940395,300047.09999999404,7771,love,AF,A,299327,299327,297701,298612,297701,299626,299128,299128,299626,59
60,test,1,con,1,z,Fri Apr 03 2026 09:56:54 GMT-0500 (Central Daylight Time),303989.5,rage,1000,O,z,z,None,470,253.0,217.0,51,,2014.9000000059605,301974.59999999404,7771,rage,AF,A,301378,301378,299629,300646,299629,301644,301161,301161,301644,60
61,test,1,inc,1,m,Fri Apr 03 2026 09:56:54 GMT-0500 (Central Daylight Time),306137.59999999404,temper,1000,O,m,m,None,606,398.0,208.0,119,,2142.2000000178814,303995.39999997616,7771,remote,AF,A,303383,303383,301649,302661,301650,303792,303175,303175,303792,61
62,test,1,inc,1,m,Fri Apr 03 2026 09:56:54 GMT-0500 (Central Daylight Time),308371.5,friend,1100,O,m,m,None,589,389.0,200.0,128,,2231.0,306140.5,7771,window,AF,A,305625,305625,303795,304909,303795,306026,305425,305425,306025,62
63,test,1,con,1,m,Fri Apr 03 2026 09:56:54 GMT-0500 (Central Daylight Time),310303.6999999881,remote,800,O,m,m,None,591,392.0,199.0,113,,1927.0999999940395,308376.59999999404,7771,remote,AF,A,307558,307558,306031,306841,306031,307958,307358,307358,307958,63
64,test,1,inc,1,m,Fri Apr 03 2026 09:56:54 GMT-0500 (Central Daylight Time),312136.59999999404,rage,800,O,m,m,None,500,300.0,200.0,85,,1825.5999999940395,310311.0,7771,bell,AF,A,309490,309490,307965,308774,307965,309791,309290,309290,309791,64
65,test,1,con,1,m,Fri Apr 03 2026 09:56:54 GMT-0500 (Central Daylight Time),314535.1999999881,rock,1100,O,m,m,None,759,559.0,200.0,76,,2392.5,312142.6999999881,7771,rock,AF,A,311623,311623,309797,310907,309797,312189,311423,311423,312189,65
66,test,1,inc,1,m,Fri Apr 03 2026 09:56:54 GMT-0500 (Central Daylight Time),316768.6999999881,temper,1000,O,m,m,None,698,499.0,199.0,111,,2227.5999999940395,314541.09999999404,7771,napkin,AF,A,313923,313923,312195,313206,312195,314423,313723,313723,314423,66
67,test,1,con,1,m,Fri Apr 03 2026 09:56:54 GMT-0500 (Central Daylight Time),318950.39999997616,napkin,1100,O,m,m,None,534,334.0,200.0,108,,2175.699999988079,316774.6999999881,7771,napkin,AF,A,316256,316256,314429,315538,314429,316604,316055,316055,316604,67
68,test,1,inc,1,m,Fri Apr 03 2026 09:56:54 GMT-0500 (Central Daylight Time),320983.89999997616,love,1000,O,m,m,None,483,284.0,199.0,71,,2025.0,318958.89999997616,7771,step,AF,A,318338,318338,316613,317621,316613,318638,318138,318138,318638,68
69,test,1,inc,1,z,Fri Apr 03 2026 09:56:54 GMT-0500 (Central Daylight Time),322783.1999999881,step,800,O,z,z,None,450,251.0,199.0,21,,1794.0,320989.1999999881,7771,love,AF,A,320171,320171,318643,319454,318643,320437,319971,319971,320437,69
70,test,1,inc,1,z,Fri Apr 03 2026 09:56:54 GMT-0500 (Central Daylight Time),324816.5,bell,1000,O,z,z,None,500,301.0,199.0,47,,2028.0,322788.5,7771,hate,AF,A,322153,322153,320443,321453,320443,322471,321954,321954,322471,70
71,test,1,con,1,m,Fri Apr 03 2026 09:56:54 GMT-0500 (Central Daylight Time),326981.89999997616,step,1000,O,m,m,None,626,411.0,215.0,67,,2157.899999976158,324824.0,7771,step,AF,A,324219,324219,322478,323487,322478,324636,324004,324004,324636,71
72,test,1,inc,1,z,Fri Apr 03 2026 09:56:54 GMT-0500 (Central Daylight Time),328997.6999999881,napkin,900,O,z,z,None,568,353.0,215.0,62,,2012.0,326985.6999999881,7771,temper,AF,A,326285,326285,324640,325552,324640,326652,326070,326070,326652,72
73,test,1,inc,1,m,Fri Apr 03 2026 09:56:54 GMT-0500 (Central Daylight Time),331079.89999997616,kind,900,O,m,m,None,657,442.0,215.0,86,,2078.7999999821186,329001.09999999404,7771,bell,AF,A,328284,328284,326655,327567,326655,328734,328069,328069,328734,73
74,test,1,con,1,z,Fri Apr 03 2026 09:56:54 GMT-0500 (Central Daylight Time),333079.2999999821,kind,1000,O,z,z,None,450,251.0,199.0,11,,1994.7999999821186,331084.5,7771,kind,AF,A,330467,330467,328739,329751,328739,330733,330268,330268,330733,74
75,test,1,inc,1,m,Fri Apr 03 2026 09:56:54 GMT-0500 (Central Daylight Time),335228.09999999404,friend,1100,O,m,m,None,511,311.0,200.0,120,,2143.5,333084.59999999404,7771,remote,AF,A,332567,332567,330739,331850,330739,332882,332367,332367,332882,75
76,test,1,con,1,z,Fri Apr 03 2026 09:56:54 GMT-0500 (Central Daylight Time),337162.59999999404,love,1000,O,z,z,None,391,191.0,200.0,19,,1929.4000000059605,335233.1999999881,7771,love,AF,A,334616,334616,332887,333899,332888,334817,334416,334416,334817,76
76,test,1,con,0,z,Fri Apr 03 2026 09:56:54 GMT-0500 (Central Daylight Time),338961.59999999404,kind,900,O,m,m,None,356,156.0,200.0,10,,1794.0,337167.59999999404,7771,kind,AF,A,336450,336450,334822,335733,334822,336616,336249,336249,336616,77
77,test,1,con,1,z,Fri Apr 03 2026 09:56:54 GMT-0500 (Central Daylight Time),340977.5,love,900,O,z,z,None,573,374.0,199.0,18,,2009.9000000059605,338967.59999999404,7771,love,AF,A,338248,338248,336622,337532,336622,338632,338049,338049,338632,78
78,test,1,con,1,z,Fri Apr 03 2026 09:56:54 GMT-0500 (Central Daylight Time),343059.7999999821,rage,1100,O,z,z,None,438,236.0,202.0,52,,2077.0999999940395,340982.6999999881,7771,rage,AF,A,340466,340466,338637,339750,338637,340714,340264,340264,340714,79
79,test,1,inc,1,z,Fri Apr 03 2026 09:56:54 GMT-0500 (Central Daylight Time),345143.09999999404,napkin,900,O,z,z,None,643,443.0,200.0,6,,2075.9000000059605,343067.1999999881,7771,elated,AF,A,342347,342347,340721,341631,340721,342797,342147,342147,342797,80
80,test,1,con,1,m,Fri Apr 03 2026 09:56:54 GMT-0500 (Central Daylight Time),347290.6999999881,napkin,1000,O,m,m,None,611,412.0,199.0,107,,2140.9000000059605,345149.7999999821,7771,napkin,AF,A,344530,344530,342804,343814,342804,344945,344330,344330,344945,81
81,test,1,inc,1,m,Fri Apr 03 2026 09:56:54 GMT-0500 (Central Daylight Time),349357.59999999404,kind,900,O,m,m,None,616,416.0,200.0,94,,2062.800000011921,347294.7999999821,7771,film,AF,A,346581,346581,344949,345863,344949,347012,346380,346380,347012,82
82,test,1,inc,1,m,Fri Apr 03 2026 09:56:54 GMT-0500 (Central Daylight Time),351489.89999997616,love,1000,O,m,m,None,598,399.0,199.0,79,,2128.7999999821186,349361.09999999404,7771,rock,AF,A,348745,348745,347015,348030,347015,349144,348546,348546,349144,83
83,test,1,inc,1,m,Fri Apr 03 2026 09:56:54 GMT-0500 (Central Daylight Time),353456.6999999881,brutal,900,O,m,m,None,536,325.0,211.0,102,,1961.0999999940395,351495.59999999404,7771,jacket,AF,A,350778,350778,349150,350061,349150,351111,350563,350567,351111,84
84,test,1,inc,1,z,Fri Apr 03 2026 09:56:54 GMT-0500 (Central Daylight Time),355339.09999999404,jacket,800,O,z,z,None,537,337.0,200.0,29,,1877.7000000178814,353461.39999997616,7771,friend,AF,A,352645,352645,351115,351928,351116,352993,352444,352444,352993,85
85,test,1,con,1,z,Fri Apr 03 2026 09:56:54 GMT-0500 (Central Daylight Time),357238.7999999821,temper,1000,O,z,z,None,358,159.0,199.0,59,,1894.699999988079,355344.09999999404,7771,temper,AF,A,354726,354726,352998,354011,352998,354893,354527,354527,354893,86
86,test,1,con,1,z,Fri Apr 03 2026 09:56:54 GMT-0500 (Central Daylight Time),359305.59999999404,brutal,1100,O,z,z,None,433,231.0,202.0,36,,2061.0,357244.59999999404,7771,brutal,AF,A,356727,356727,354899,356008,354899,356960,356525,356525,356960,87
87,test,1,inc,1,m,Fri Apr 03 2026 09:56:54 GMT-0500 (Central Daylight Time),361286.89999997616,temper,1000,O,m,m,None,435,233.0,202.0,127,,1975.8999999761581,359311.0,7771,window,AF,A,358693,358693,356965,357975,356965,358941,358491,358491,358941,88
88,test,1,con,1,z,Fri Apr 03 2026 09:56:54 GMT-0500 (Central Daylight Time),363670.1999999881,kind,1100,O,z,z,None,734,534.0,200.0,12,,2378.5999999940395,361291.59999999404,7771,kind,AF,A,360774,360775,358946,360058,358946,361324,360574,360574,361324,89
89,test,1,inc,1,z,Fri Apr 03 2026 09:56:54 GMT-0500 (Central Daylight Time),365536.0,rock,900,O,z,z,None,418,218.0,200.0,14,,1860.6000000238419,363675.39999997616,7771,kind,AF,A,362957,362957,361329,362241,361330,363190,362757,362757,363190,90
90,test,1,con,1,m,Fri Apr 03 2026 09:56:54 GMT-0500 (Central Daylight Time),367536.0,bell,1000,O,m,m,None,465,250.0,215.0,83,,1994.0,365542.0,7771,bell,AF,A,364940,364940,363196,364207,363196,365190,364724,364725,365190,91
91,test,1,con,1,m,Fri Apr 03 2026 09:56:54 GMT-0500 (Central Daylight Time),369435.2999999821,jacket,900,O,m,m,None,448,233.0,215.0,98,,1894.9000000059605,367540.39999997616,7771,jacket,AF,A,366840,366840,365194,366107,365195,367089,366624,366624,367089,92
92,test,1,con,1,m,Fri Apr 03 2026 09:56:54 GMT-0500 (Central Daylight Time),371534.1999999881,window,1000,O,m,m,None,553,351.0,202.0,123,,2093.300000011921,369440.89999997616,7771,window,AF,A,368822,368822,367095,368106,367095,369188,368620,368620,369188,93
93,test,1,con,1,m,Fri Apr 03 2026 09:56:54 GMT-0500 (Central Daylight Time),373700.6999999881,jacket,1100,O,m,m,None,537,337.0,200.0,100,,2162.0999999940395,371538.59999999404,7771,jacket,AF,A,371005,371005,369193,370304,369193,371355,370805,370805,371355,94
94,test,1,con,1,z,Fri Apr 03 2026 09:56:54 GMT-0500 (Central Daylight Time),375582.39999997616,elated,900,O,z,z,None,435,234.0,201.0,2,,1877.5,373704.89999997616,7771,elated,AF,A,372988,372988,371359,372272,371359,373237,372787,372787,373236,95
95,test,1,inc,1,m,Fri Apr 03 2026 09:56:54 GMT-0500 (Central Daylight Time),377566.2999999821,kind,900,O,m,m,None,536,335.0,201.0,78,,1978.199999988079,375588.09999999404,7771,rock,AF,A,374870,374870,373242,374159,373242,375220,374669,374669,375220,96
96,test,1,con,1,z,Fri Apr 03 2026 09:56:54 GMT-0500 (Central Daylight Time),379531.89999997616,brutal,900,O,z,z,None,530,315.0,215.0,34,,1961.5,377570.39999997616,7771,brutal,AF,A,376870,376870,375224,376137,375225,377186,376654,376654,377186,97
97,test,1,con,1,z,Fri Apr 03 2026 09:56:54 GMT-0500 (Central Daylight Time),381464.7999999821,hate,1000,O,z,z,None,393,192.0,201.0,43,,1928.0,379536.7999999821,7771,hate,AF,A,378919,378919,377191,378203,377191,379119,378718,378718,379119,98
98,test,1,con,1,z,Fri Apr 03 2026 09:56:54 GMT-0500 (Central Daylight Time),383345.89999997616,temper,900,O,z,z,None,437,237.0,200.0,58,,1876.5,381469.39999997616,7771,temper,AF,A,380752,380752,379123,380036,379124,381000,380551,380551,381000,99
99,test,1,con,1,m,Fri Apr 03 2026 09:56:54 GMT-0500 (Central Daylight Time),385579.09999999404,rock,1000,O,m,m,None,697,495.0,202.0,75,,2230.4000000059605,383348.6999999881,7771,rock,AF,A,382735,382735,381003,382017,381003,383233,382533,382533,383233,100
100,test,1,con,1,z,Fri Apr 03 2026 09:56:54 GMT-0500 (Central Daylight Time),387713.0,hate,1100,O,z,z,None,490,290.0,200.0,44,,2130.0,385583.0,7771,hate,AF,A,385067,385068,383237,384351,383237,385367,384867,384867,385367,101
100,test,1,inc,0,m,Fri Apr 03 2026 09:56:54 GMT-0500 (Central Daylight Time),389428.7999999821,hate,1100,O,z,z,z,69,290.0,69.0,88,,1711.2999999821186,387717.5,7771,bell,AF,A,385067,385068,385372,386484,385372,387083,387000,387000,387083,102
101,test,1,con,1,m,Fri Apr 03 2026 09:56:54 GMT-0500 (Central Daylight Time),391344.39999997616,step,900,O,m,m,None,474,259.0,215.0,66,,1911.699999988079,389432.6999999881,7771,step,AF,A,388731,388731,387087,388001,387087,388998,388516,388516,388998,103
102,test,1,inc,1,z,Fri Apr 03 2026 09:56:54 GMT-0500 (Central Daylight Time),393477.39999997616,remote,1000,O,z,z,None,595,394.0,201.0,31,,2127.699999988079,391349.6999999881,7771,friend,AF,A,390732,390732,389004,390015,389004,391131,390531,390531,391131,104
103,test,1,inc,1,m,Fri Apr 03 2026 09:56:54 GMT-0500 (Central Daylight Time),395727.0,hate,1100,O,m,m,None,599,383.0,216.0,80,,2245.4000000059605,393481.59999999404,7771,rock,AF,A,392982,392982,391136,392249,391136,393381,392765,392765,393381,105
104,test,1,con,1,z,Fri Apr 03 2026 09:56:54 GMT-0500 (Central Daylight Time),397658.6999999881,brutal,1000,O,z,z,None,395,195.0,200.0,35,,1926.4000000059605,395732.2999999821,7771,brutal,AF,A,395114,395114,393386,394397,393387,395313,394914,394914,395313,106
105,test,1,inc,1,z,Fri Apr 03 2026 09:56:54 GMT-0500 (Central Daylight Time),399948.59999999404,remote,1000,O,z,z,None,751,552.0,199.0,63,,2287.2000000178814,397661.39999997616,7771,temper,AF,A,397046,397046,395315,396331,395316,397603,396847,396847,397603,107
106,test,1,inc,1,z,Fri Apr 03 2026 09:56:54 GMT-0500 (Central Daylight Time),402057.89999997616,film,1100,O,z,z,None,474,273.0,201.0,56,,2102.7999999821186,399955.09999999404,7771,rage,AF,A,399430,399430,397609,398712,397609,399712,399229,399229,399712,108
107,test,1,con,1,z,Fri Apr 03 2026 09:56:54 GMT-0500 (Central Daylight Time),404007.6999999881,elated,1000,O,z,z,None,401,201.0,200.0,3,,1944.199999988079,402063.5,7771,elated,AF,A,401445,401445,399718,400729,399718,401662,401245,401245,401662,109
108,test,1,inc,1,m,Fri Apr 03 2026 09:56:54 GMT-0500 (Central Daylight Time),406090.7999999821,kind,900,O,m,m,None,648,449.0,199.0,70,,2077.7999999821186,404013.0,7771,step,AF,A,403295,403295,401667,402578,401667,403745,403096,403096,403745,110
109,test,1,inc,1,m,Fri Apr 03 2026 09:56:54 GMT-0500 (Central Daylight Time),407989.7999999821,brutal,900,O,m,m,None,460,244.0,216.0,126,,1894.699999988079,406095.09999999404,7771,window,AF,A,405394,405394,403749,404660,403749,405644,405178,405178,405644,111
110,test,1,inc,1,z,Fri Apr 03 2026 09:56:54 GMT-0500 (Central Daylight Time),410071.5,remote,1000,O,z,z,None,542,342.0,200.0,39,,2078.100000023842,407993.39999997616,7771,brutal,AF,A,407377,407377,405647,406660,405648,407726,407177,407177,407726,112
110,test,1,con,0,m,Fri Apr 03 2026 09:56:54 GMT-0500 (Central Daylight Time),411938.0,rock,900,O,z,z,None,422,223.0,199.0,74,,1863.0,410075.0,7771,rock,AF,A,409359,409359,407729,408643,407729,409592,409159,409159,409592,113
111,test,1,inc,1,z,Fri Apr 03 2026 09:56:54 GMT-0500 (Central Daylight Time),413920.5,jacket,800,O,z,z,None,648,448.0,200.0,37,,1978.800000011921,411941.6999999881,7771,brutal,AF,A,411126,411126,409596,410409,409596,411575,410925,410925,411575,114
112,test,1,inc,1,z,Fri Apr 03 2026 09:56:54 GMT-0500 (Central Daylight Time),415954.7999999821,bell,1000,O,z,z,None,500,284.0,216.0,55,,2031.7999999821186,413923.0,7771,rage,AF,A,413325,413325,411577,412591,411577,413609,413109,413109,413609,115
113,test,1,con,1,m,Fri Apr 03 2026 09:56:54 GMT-0500 (Central Daylight Time),418002.89999997616,jacket,1000,O,m,m,None,504,288.0,216.0,99,,2042.699999988079,415960.1999999881,7771,jacket,AF,A,415357,415357,413614,414625,413614,415657,415141,415141,415657,116
114,test,1,con,1,m,Fri Apr 03 2026 09:56:54 GMT-0500 (Central Daylight Time),419935.1999999881,napkin,800,O,m,m,None,614,415.0,199.0,105,,1928.0999999940395,418007.09999999404,7771,napkin,AF,A,417174,417174,415661,416473,415661,417589,416974,416974,417589,117
115,test,1,inc,1,m,Fri Apr 03 2026 09:56:54 GMT-0500 (Central Daylight Time),421918.0,elated,800,O,m,m,None,644,443.0,201.0,117,,1979.300000011921,419938.6999999881,7771,remote,AF,A,419124,419124,417593,418406,417593,419572,418923,418923,419572,118
116,test,1,inc,1,m,Fri Apr 03 2026 09:56:54 GMT-0500 (Central Daylight Time),423766.5,rage,800,O,m,m,None,508,308.0,200.0,93,,1844.6000000238419,421921.89999997616,7771,film,AF,A,421105,421105,419576,420388,419576,421421,420905,420905,421420,119
117,test,1,inc,1,z,Fri Apr 03 2026 09:56:54 GMT-0500 (Central Daylight Time),425867.6999999881,rock,900,O,z,z,None,682,482.0,200.0,46,,2097.0,423770.6999999881,7771,hate,AF,A,423039,423039,421425,422338,421425,423522,422839,422839,423522,120
118,test,1,con,1,z,Fri Apr 03 2026 09:56:54 GMT-0500 (Central Daylight Time),428115.09999999404,temper,1100,O,z,z,None,602,403.0,199.0,60,,2241.5,425873.59999999404,7771,temper,AF,A,425354,425354,423528,424637,423528,425769,425154,425154,425769,121
119,test,1,con,1,z,Fri Apr 03 2026 09:56:54 GMT-0500 (Central Daylight Time),430166.39999997616,friend,1100,O,z,z,None,409,194.0,215.0,28,,2046.8999999761581,428119.5,7771,friend,AF,A,427620,427620,425774,426887,425774,427820,427404,427404,427820,122
119,test,1,inc,0,z,Fri Apr 03 2026 09:56:54 GMT-0500 (Central Daylight Time),432114.5,film,1100,O,m,m,None,314,113.0,201.0,16,,1942.6000000238419,430171.89999997616,7771,kind,AF,A,429653,429653,427826,428936,427826,429769,429452,429452,429768,123
120,test,1,con,1,z,Fri Apr 03 2026 09:56:54 GMT-0500 (Central Daylight Time),433881.09999999404,hate,800,O,z,z,None,432,232.0,200.0,41,,1763.2000000178814,432117.89999997616,7771,hate,AF,A,431302,431302,429772,430585,429772,431535,431102,431102,431535,124
121,test,1,con,1,m,Fri Apr 03 2026 09:56:54 GMT-0500 (Central Daylight Time),435947.2999999821,film,900,O,m,m,None,620,421.0,199.0,90,,2060.2999999821186,433887.0,7771,film,AF,A,433168,433168,431541,432451,431541,433601,432968,432968,433601,125
122,test,1,inc,1,z,Fri Apr 03 2026 09:56:54 GMT-0500 (Central Daylight Time),438129.5,window,1100,O,z,z,None,547,332.0,215.0,32,,2178.800000011921,435950.6999999881,7771,friend,AF,A,435451,435451,433605,434717,433605,435784,435235,435235,435784,126
123,test,1,con,1,m,Fri Apr 03 2026 09:56:54 GMT-0500 (Central Daylight Time),440211.5,film,1000,O,m,m,None,559,344.0,215.0,91,,2074.0,438137.5,7771,film,AF,A,437517,437517,435792,436800,435792,437866,437302,437302,437866,127
124,test,1,con,1,m,Fri Apr 03 2026 09:56:54 GMT-0500 (Central Daylight Time),442012.5,bell,800,O,m,m,None,454,255.0,199.0,81,,1794.9000000059605,440217.59999999404,7771,bell,AF,A,439399,439399,437872,438683,437872,439667,439199,439199,439666,128
