block_c,block_dur,condition,countdown,datetime,endtime,list,multichar_response,project,response,response_time,session_number,start_end,starttime,subject_id,task,task_vers,trial
,,,,Fri May 29 2026 15:24:13 GMT-0400 (Eastern Daylight Time),,,,I,space,845,1,,,9082,WL,C,
prac,,0,,Fri May 29 2026 15:24:13 GMT-0400 (Eastern Daylight Time),,NA,b,I,b,7428,1,,,9082,WL,C,1.0
prac,,0,,Fri May 29 2026 15:24:13 GMT-0400 (Eastern Daylight Time),,NA,bo,I,o,205,1,,,9082,WL,C,1.0
prac,,0,,Fri May 29 2026 15:24:13 GMT-0400 (Eastern Daylight Time),,NA,boo,I,o,165,1,,,9082,WL,C,1.0
prac,,0,,Fri May 29 2026 15:24:13 GMT-0400 (Eastern Daylight Time),,NA,boos,I,s,142,1,,,9082,WL,C,1.0
prac,,0,,Fri May 29 2026 15:24:13 GMT-0400 (Eastern Daylight Time),,NA,boost,I,t,231,1,,,9082,WL,C,1.0
prac,,0,,Fri May 29 2026 15:24:13 GMT-0400 (Eastern Daylight Time),,NA,boostenter,I,enter,318,1,,,9082,WL,C,1.0
1,1.065999984741211,learn,58934.00001525879,Fri May 29 2026 15:24:13 GMT-0400 (Eastern Daylight Time),133303.19999980927,A,t,I,t,1047,1,1066.0,132237.19999980927,9082,WL,C,1.0
1,1.2000000476837158,learn,58799.999952316284,Fri May 29 2026 15:24:13 GMT-0400 (Eastern Daylight Time),133436.2999997139,A,to,I,o,107,1,1199.0999999046326,132237.19999980927,9082,WL,C,1.0
1,1.2829999923706055,learn,58717.000007629395,Fri May 29 2026 15:24:13 GMT-0400 (Eastern Daylight Time),133519.19999980927,A,tow,I,w,72,1,1282.0,132237.19999980927,9082,WL,C,1.0
1,1.432999849319458,learn,58567.00015068054,Fri May 29 2026 15:24:13 GMT-0400 (Eastern Daylight Time),133669.39999961853,A,towe,I,e,123,1,1432.1999998092651,132237.19999980927,9082,WL,C,1.0
1,1.5329999923706055,learn,58467.000007629395,Fri May 29 2026 15:24:13 GMT-0400 (Eastern Daylight Time),133769.59999990463,A,tower,I,r,66,1,1532.4000000953674,132237.19999980927,9082,WL,C,1.0
1,1.7990000247955322,learn,58200.99997520447,Fri May 29 2026 15:24:13 GMT-0400 (Eastern Daylight Time),134035.69999980927,A,towerenter,I,enter,239,1,1798.5,132237.19999980927,9082,WL,C,1.0
1,3.3999998569488525,learn,56600.00014305115,Fri May 29 2026 15:24:13 GMT-0400 (Eastern Daylight Time),135636.19999980927,A,w,I,w,1585,1,1599.8000001907349,134036.39999961853,9082,WL,C,2.0
1,3.5169999599456787,learn,56483.00004005432,Fri May 29 2026 15:24:13 GMT-0400 (Eastern Daylight Time),135753.69999980927,A,wh,I,h,96,1,1717.3000001907349,134036.39999961853,9082,WL,C,2.0
1,3.632999897003174,learn,56367.000102996826,Fri May 29 2026 15:24:13 GMT-0400 (Eastern Daylight Time),135869.59999990463,A,whe,I,e,79,1,1833.2000002861023,134036.39999961853,9082,WL,C,2.0
1,3.815999984741211,learn,56184.00001525879,Fri May 29 2026 15:24:13 GMT-0400 (Eastern Daylight Time),136052.89999961853,A,whee,I,e,157,1,2016.5,134036.39999961853,9082,WL,C,2.0
1,4.165999889373779,learn,55834.00011062622,Fri May 29 2026 15:24:13 GMT-0400 (Eastern Daylight Time),136402.7999997139,A,whe,I,backspace,333,1,2366.4000000953674,134036.39999961853,9082,WL,C,2.0
1,4.2829999923706055,learn,55717.000007629395,Fri May 29 2026 15:24:13 GMT-0400 (Eastern Daylight Time),136519.5,A,whea,I,a,96,1,2483.1000003814697,134036.39999961853,9082,WL,C,2.0
1,4.365999937057495,learn,55634.000062942505,Fri May 29 2026 15:24:13 GMT-0400 (Eastern Daylight Time),136602.39999961853,A,wheat,I,t,49,1,2566.0,134036.39999961853,9082,WL,C,2.0
1,4.748999834060669,learn,55251.00016593933,Fri May 29 2026 15:24:13 GMT-0400 (Eastern Daylight Time),136985.59999990463,A,wheatenter,I,enter,358,1,2949.2000002861023,134036.39999961853,9082,WL,C,2.0
1,6.516000032424927,learn,53483.99996757507,Fri May 29 2026 15:24:13 GMT-0400 (Eastern Daylight Time),138752.7999997139,A,q,I,q,1757,1,1766.6999998092651,136986.09999990463,9082,WL,C,3.0
1,6.7159998416900635,learn,53284.00015830994,Fri May 29 2026 15:24:13 GMT-0400 (Eastern Daylight Time),138953.0,A,qu,I,u,178,1,1966.9000000953674,136986.09999990463,9082,WL,C,3.0
1,6.865999937057495,learn,53134.000062942505,Fri May 29 2026 15:24:13 GMT-0400 (Eastern Daylight Time),139102.89999961853,A,que,I,e,111,1,2116.7999997138977,136986.09999990463,9082,WL,C,3.0
1,7.016000032424927,learn,52983.99996757507,Fri May 29 2026 15:24:13 GMT-0400 (Eastern Daylight Time),139252.7999997139,A,quee,I,e,123,1,2266.699999809265,136986.09999990463,9082,WL,C,3.0
1,7.165999889373779,learn,52834.00011062622,Fri May 29 2026 15:24:13 GMT-0400 (Eastern Daylight Time),139402.89999961853,A,queen,I,n,127,1,2416.7999997138977,136986.09999990463,9082,WL,C,3.0
1,7.931999921798706,learn,52068.000078201294,Fri May 29 2026 15:24:13 GMT-0400 (Eastern Daylight Time),140169.0,A,queenenter,I,enter,732,1,3182.9000000953674,136986.09999990463,9082,WL,C,3.0
1,9.465999841690063,learn,50534.00015830994,Fri May 29 2026 15:24:13 GMT-0400 (Eastern Daylight Time),141702.89999961853,A,b,I,b,1517,1,1533.2999997138977,140169.59999990463,9082,WL,C,4.0
1,9.715999841690063,learn,50284.00015830994,Fri May 29 2026 15:24:13 GMT-0400 (Eastern Daylight Time),141952.69999980927,A,bo,I,o,226,1,1783.0999999046326,140169.59999990463,9082,WL,C,4.0
1,9.950000047683716,learn,50049.999952316284,Fri May 29 2026 15:24:13 GMT-0400 (Eastern Daylight Time),142186.19999980927,A,boy,I,y,211,1,2016.5999999046326,140169.59999990463,9082,WL,C,4.0
1,10.348999977111816,learn,49651.00002288818,Fri May 29 2026 15:24:13 GMT-0400 (Eastern Daylight Time),142585.59999990463,A,boyenter,I,enter,377,1,2416.0,140169.59999990463,9082,WL,C,4.0
1,10.75,learn,49250.0,Fri May 29 2026 15:24:13 GMT-0400 (Eastern Daylight Time),142986.2999997139,A,c,I,c,381,1,400.2999997138977,142586.0,9082,WL,C,5.0
1,10.882999897003174,learn,49117.000102996826,Fri May 29 2026 15:24:13 GMT-0400 (Eastern Daylight Time),143119.39999961853,A,ca,I,a,119,1,533.3999996185303,142586.0,9082,WL,C,5.0
1,11.016000032424927,learn,48983.99996757507,Fri May 29 2026 15:24:13 GMT-0400 (Eastern Daylight Time),143252.7999997139,A,cam,I,m,116,1,666.7999997138977,142586.0,9082,WL,C,5.0
1,11.266000032424927,learn,48733.99996757507,Fri May 29 2026 15:24:13 GMT-0400 (Eastern Daylight Time),143503.0,A,camp,I,p,239,1,917.0,142586.0,9082,WL,C,5.0
1,11.815999984741211,learn,48184.00001525879,Fri May 29 2026 15:24:13 GMT-0400 (Eastern Daylight Time),144052.39999961853,A,campenter,I,enter,522,1,1466.3999996185303,142586.0,9082,WL,C,5.0
1,12.132999897003174,learn,47867.000102996826,Fri May 29 2026 15:24:13 GMT-0400 (Eastern Daylight Time),144369.59999990463,A,l,I,l,306,1,316.80000019073486,144052.7999997139,9082,WL,C,6.0
1,12.282999992370605,learn,47717.000007629395,Fri May 29 2026 15:24:13 GMT-0400 (Eastern Daylight Time),144519.59999990463,A,le,I,e,130,1,466.80000019073486,144052.7999997139,9082,WL,C,6.0
1,12.432999849319458,learn,47567.00015068054,Fri May 29 2026 15:24:13 GMT-0400 (Eastern Daylight Time),144669.59999990463,A,let,I,t,115,1,616.8000001907349,144052.7999997139,9082,WL,C,6.0
1,12.615999937057495,learn,47384.000062942505,Fri May 29 2026 15:24:13 GMT-0400 (Eastern Daylight Time),144852.69999980927,A,lett,I,t,161,1,799.9000000953674,144052.7999997139,9082,WL,C,6.0
1,12.83299994468689,learn,47167.00005531311,Fri May 29 2026 15:24:13 GMT-0400 (Eastern Daylight Time),145069.5,A,lette,I,e,188,1,1016.7000002861023,144052.7999997139,9082,WL,C,6.0
1,12.882999897003174,learn,47117.000102996826,Fri May 29 2026 15:24:13 GMT-0400 (Eastern Daylight Time),145119.59999990463,A,letter,I,r,28,1,1066.8000001907349,144052.7999997139,9082,WL,C,6.0
1,13.182999849319458,learn,46817.00015068054,Fri May 29 2026 15:24:13 GMT-0400 (Eastern Daylight Time),145419.09999990463,A,letterenter,I,enter,279,1,1366.3000001907349,144052.7999997139,9082,WL,C,6.0
1,18.615999937057495,learn,41384.000062942505,Fri May 29 2026 15:24:13 GMT-0400 (Eastern Daylight Time),150852.89999961853,A,c,I,c,5420,1,5433.299999713898,145419.59999990463,9082,WL,C,7.0
1,18.700000047683716,learn,41299.999952316284,Fri May 29 2026 15:24:13 GMT-0400 (Eastern Daylight Time),150936.2999997139,A,co,I,o,63,1,5516.699999809265,145419.59999990463,9082,WL,C,7.0
1,18.882999897003174,learn,41117.000102996826,Fri May 29 2026 15:24:13 GMT-0400 (Eastern Daylight Time),151119.19999980927,A,cor,I,r,172,1,5699.599999904633,145419.59999990463,9082,WL,C,7.0
1,19.0,learn,41000.0,Fri May 29 2026 15:24:13 GMT-0400 (Eastern Daylight Time),151236.19999980927,A,corn,I,n,91,1,5816.599999904633,145419.59999990463,9082,WL,C,7.0
1,19.31599998474121,learn,40684.00001525879,Fri May 29 2026 15:24:13 GMT-0400 (Eastern Daylight Time),151552.39999961853,A,cornenter,I,enter,304,1,6132.799999713898,145419.59999990463,9082,WL,C,7.0
1,24.348999977111816,learn,35651.00002288818,Fri May 29 2026 15:24:13 GMT-0400 (Eastern Daylight Time),156586.09999990463,A,b,I,b,5015,1,5033.300000190735,151552.7999997139,9082,WL,C,8.0
1,24.48300004005432,learn,35516.99995994568,Fri May 29 2026 15:24:13 GMT-0400 (Eastern Daylight Time),156719.09999990463,A,bo,I,o,122,1,5166.300000190735,151552.7999997139,9082,WL,C,8.0
1,24.649999856948853,learn,35350.00014305115,Fri May 29 2026 15:24:13 GMT-0400 (Eastern Daylight Time),156886.09999990463,A,bod,I,d,148,1,5333.300000190735,151552.7999997139,9082,WL,C,8.0
1,24.74899983406067,learn,35251.00016593933,Fri May 29 2026 15:24:13 GMT-0400 (Eastern Daylight Time),156986.0,A,body,I,y,78,1,5433.200000286102,151552.7999997139,9082,WL,C,8.0
1,24.965999841690063,learn,35034.00015830994,Fri May 29 2026 15:24:13 GMT-0400 (Eastern Daylight Time),157202.2999997139,A,bodyenter,I,enter,202,1,5649.5,151552.7999997139,9082,WL,C,8.0
1,31.16599988937378,learn,28834.00011062622,Fri May 29 2026 15:24:13 GMT-0400 (Eastern Daylight Time),163402.89999961853,A,s,I,s,6180,1,6200.099999904633,157202.7999997139,9082,WL,C,9.0
1,31.23300004005432,learn,28766.99995994568,Fri May 29 2026 15:24:13 GMT-0400 (Eastern Daylight Time),163469.89999961853,A,sh,I,h,57,1,6267.099999904633,157202.7999997139,9082,WL,C,9.0
1,31.31599998474121,learn,28684.00001525879,Fri May 29 2026 15:24:13 GMT-0400 (Eastern Daylight Time),163552.7999997139,A,sho,I,o,71,1,6350.0,157202.7999997139,9082,WL,C,9.0
1,31.41599988937378,learn,28584.00011062622,Fri May 29 2026 15:24:13 GMT-0400 (Eastern Daylight Time),163652.7999997139,A,shor,I,r,84,1,6450.0,157202.7999997139,9082,WL,C,9.0
1,31.532999992370605,learn,28467.000007629395,Fri May 29 2026 15:24:13 GMT-0400 (Eastern Daylight Time),163769.59999990463,A,shore,I,e,85,1,6566.800000190735,157202.7999997139,9082,WL,C,9.0
1,31.68400001525879,learn,28315.99998474121,Fri May 29 2026 15:24:13 GMT-0400 (Eastern Daylight Time),163920.19999980927,A,shoreenter,I,enter,130,1,6717.400000095367,157202.7999997139,9082,WL,C,9.0
1,60.01699995994568,learn,-16.99995994567871,Fri May 29 2026 15:24:13 GMT-0400 (Eastern Daylight Time),192253.09999990463,A,None,I,None,28326,1,28332.5,163920.59999990463,9082,WL,C,10.0
2,2.1010000705718994,learn,57898.9999294281,Fri May 29 2026 15:24:13 GMT-0400 (Eastern Daylight Time),267503.19999980927,A,t,I,t,2091,1,2099.699999809265,265403.5,9082,WL,C,1.0
2,2.200000047683716,learn,57799.999952316284,Fri May 29 2026 15:24:13 GMT-0400 (Eastern Daylight Time),267602.89999961853,A,to,I,o,86,1,2199.3999996185303,265403.5,9082,WL,C,1.0
2,2.367000102996826,learn,57632.999897003174,Fri May 29 2026 15:24:13 GMT-0400 (Eastern Daylight Time),267769.59999990463,A,tow,I,w,145,1,2366.0999999046326,265403.5,9082,WL,C,1.0
2,2.5,learn,57500.0,Fri May 29 2026 15:24:13 GMT-0400 (Eastern Daylight Time),267903.0,A,towe,I,e,97,1,2499.5,265403.5,9082,WL,C,1.0
2,2.617000102996826,learn,57382.999897003174,Fri May 29 2026 15:24:13 GMT-0400 (Eastern Daylight Time),268019.59999990463,A,tower,I,r,91,1,2616.0999999046326,265403.5,9082,WL,C,1.0
2,2.933000087738037,learn,57066.99991226196,Fri May 29 2026 15:24:13 GMT-0400 (Eastern Daylight Time),268335.69999980927,A,towerenter,I,enter,303,1,2932.199999809265,265403.5,9082,WL,C,1.0
2,3.5,learn,56500.0,Fri May 29 2026 15:24:13 GMT-0400 (Eastern Daylight Time),268902.89999961853,A,w,I,w,552,1,566.7999997138977,268336.09999990463,9082,WL,C,2.0
2,3.617000102996826,learn,56382.999897003174,Fri May 29 2026 15:24:13 GMT-0400 (Eastern Daylight Time),269019.19999980927,A,wh,I,h,93,1,683.0999999046326,268336.09999990463,9082,WL,C,2.0
2,3.7170000076293945,learn,56282.999992370605,Fri May 29 2026 15:24:13 GMT-0400 (Eastern Daylight Time),269119.19999980927,A,whe,I,e,91,1,783.0999999046326,268336.09999990463,9082,WL,C,2.0
2,3.9170000553131104,learn,56082.99994468689,Fri May 29 2026 15:24:13 GMT-0400 (Eastern Daylight Time),269319.69999980927,A,whea,I,a,173,1,983.5999999046326,268336.09999990463,9082,WL,C,2.0
2,4.0340001583099365,learn,55965.99984169006,Fri May 29 2026 15:24:13 GMT-0400 (Eastern Daylight Time),269436.39999961853,A,wheat,I,t,91,1,1100.2999997138977,268336.09999990463,9082,WL,C,2.0
2,4.133000135421753,learn,55866.99986457825,Fri May 29 2026 15:24:13 GMT-0400 (Eastern Daylight Time),269535.7999997139,A,wheatenter,I,enter,78,1,1199.6999998092651,268336.09999990463,9082,WL,C,2.0
2,4.950000047683716,learn,55049.999952316284,Fri May 29 2026 15:24:13 GMT-0400 (Eastern Daylight Time),270352.89999961853,A,q,I,q,808,1,816.7999997138977,269536.09999990463,9082,WL,C,3.0
2,5.049999952316284,learn,54950.000047683716,Fri May 29 2026 15:24:13 GMT-0400 (Eastern Daylight Time),270452.89999961853,A,qu,I,u,83,1,916.7999997138977,269536.09999990463,9082,WL,C,3.0
2,5.2170000076293945,learn,54782.999992370605,Fri May 29 2026 15:24:13 GMT-0400 (Eastern Daylight Time),270619.59999990463,A,que,I,e,143,1,1083.5,269536.09999990463,9082,WL,C,3.0
2,5.367000102996826,learn,54632.999897003174,Fri May 29 2026 15:24:13 GMT-0400 (Eastern Daylight Time),270769.59999990463,A,quee,I,e,128,1,1233.5,269536.09999990463,9082,WL,C,3.0
2,5.450000047683716,learn,54549.999952316284,Fri May 29 2026 15:24:13 GMT-0400 (Eastern Daylight Time),270852.89999961853,A,queen,I,n,66,1,1316.7999997138977,269536.09999990463,9082,WL,C,3.0
2,5.700000047683716,learn,54299.999952316284,Fri May 29 2026 15:24:13 GMT-0400 (Eastern Daylight Time),271102.19999980927,A,queenenter,I,enter,237,1,1566.0999999046326,269536.09999990463,9082,WL,C,3.0
2,6.400000095367432,learn,53599.99990463257,Fri May 29 2026 15:24:13 GMT-0400 (Eastern Daylight Time),271803.0,A,h,I,h,681,1,700.4000000953674,271102.59999990463,9082,WL,C,4.0
2,6.501000165939331,learn,53498.99983406067,Fri May 29 2026 15:24:13 GMT-0400 (Eastern Daylight Time),271903.19999980927,A,ho,I,o,74,1,800.5999999046326,271102.59999990463,9082,WL,C,4.0
2,6.66700005531311,learn,53332.99994468689,Fri May 29 2026 15:24:13 GMT-0400 (Eastern Daylight Time),272069.69999980927,A,hom,I,m,139,1,967.0999999046326,271102.59999990463,9082,WL,C,4.0
2,6.799999952316284,learn,53200.000047683716,Fri May 29 2026 15:24:13 GMT-0400 (Eastern Daylight Time),272203.0,A,home,I,e,101,1,1100.4000000953674,271102.59999990463,9082,WL,C,4.0
2,7.0,learn,53000.0,Fri May 29 2026 15:24:13 GMT-0400 (Eastern Daylight Time),272402.39999961853,A,homeenter,I,enter,186,1,1299.7999997138977,271102.59999990463,9082,WL,C,4.0
2,7.900000095367432,learn,52099.99990463257,Fri May 29 2026 15:24:13 GMT-0400 (Eastern Daylight Time),273303.0,A,s,I,s,884,1,900.2000002861023,272402.7999997139,9082,WL,C,5.0
2,7.933000087738037,learn,52066.99991226196,Fri May 29 2026 15:24:13 GMT-0400 (Eastern Daylight Time),273335.89999961853,A,sh,I,h,11,1,933.0999999046326,272402.7999997139,9082,WL,C,5.0
2,8.034000158309937,learn,51965.99984169006,Fri May 29 2026 15:24:13 GMT-0400 (Eastern Daylight Time),273436.2999997139,A,sho,I,o,80,1,1033.5,272402.7999997139,9082,WL,C,5.0
2,8.284000158309937,learn,51715.99984169006,Fri May 29 2026 15:24:13 GMT-0400 (Eastern Daylight Time),273686.19999980927,A,shor,I,r,224,1,1283.4000000953674,272402.7999997139,9082,WL,C,5.0
2,8.516999959945679,learn,51483.00004005432,Fri May 29 2026 15:24:13 GMT-0400 (Eastern Daylight Time),273919.2999997139,A,shore,I,e,212,1,1516.5,272402.7999997139,9082,WL,C,5.0
2,9.016999959945679,learn,50983.00004005432,Fri May 29 2026 15:24:13 GMT-0400 (Eastern Daylight Time),274419.09999990463,A,shoreenter,I,enter,484,1,2016.3000001907349,272402.7999997139,9082,WL,C,5.0
2,9.350000143051147,learn,50649.99985694885,Fri May 29 2026 15:24:13 GMT-0400 (Eastern Daylight Time),274752.89999961853,A,s,I,s,324,1,333.3999996185303,274419.5,9082,WL,C,6.0
2,9.483999967575073,learn,50516.00003242493,Fri May 29 2026 15:24:13 GMT-0400 (Eastern Daylight Time),274886.2999997139,A,su,I,u,114,1,466.7999997138977,274419.5,9082,WL,C,6.0
2,9.684000015258789,learn,50315.99998474121,Fri May 29 2026 15:24:13 GMT-0400 (Eastern Daylight Time),275086.09999990463,A,sug,I,g,168,1,666.5999999046326,274419.5,9082,WL,C,6.0
2,9.867000102996826,learn,50132.999897003174,Fri May 29 2026 15:24:13 GMT-0400 (Eastern Daylight Time),275269.59999990463,A,suga,I,a,167,1,850.0999999046326,274419.5,9082,WL,C,6.0
2,9.983999967575073,learn,50016.00003242493,Fri May 29 2026 15:24:13 GMT-0400 (Eastern Daylight Time),275386.39999961853,A,sugar,I,r,94,1,966.8999996185303,274419.5,9082,WL,C,6.0
2,10.266999959945679,learn,49733.00004005432,Fri May 29 2026 15:24:13 GMT-0400 (Eastern Daylight Time),275669.19999980927,A,sugarenter,I,enter,267,1,1249.6999998092651,274419.5,9082,WL,C,6.0
2,10.58299994468689,learn,49417.00005531311,Fri May 29 2026 15:24:13 GMT-0400 (Eastern Daylight Time),275985.7999997139,A,b,I,b,306,1,316.19999980926514,275669.59999990463,9082,WL,C,7.0
2,10.799999952316284,learn,49200.000047683716,Fri May 29 2026 15:24:13 GMT-0400 (Eastern Daylight Time),276202.89999961853,A,bo,I,o,197,1,533.2999997138977,275669.59999990463,9082,WL,C,7.0
2,11.016999959945679,learn,48983.00004005432,Fri May 29 2026 15:24:13 GMT-0400 (Eastern Daylight Time),276419.59999990463,A,boy,I,y,200,1,750.0,275669.59999990463,9082,WL,C,7.0
2,11.299999952316284,learn,48700.000047683716,Fri May 29 2026 15:24:13 GMT-0400 (Eastern Daylight Time),276702.2999997139,A,boyenter,I,enter,271,1,1032.6999998092651,275669.59999990463,9082,WL,C,7.0
2,11.516999959945679,learn,48483.00004005432,Fri May 29 2026 15:24:13 GMT-0400 (Eastern Daylight Time),276919.59999990463,A,d,I,d,201,1,217.0,276702.59999990463,9082,WL,C,8.0
2,11.66700005531311,learn,48332.99994468689,Fri May 29 2026 15:24:13 GMT-0400 (Eastern Daylight Time),277069.5,A,do,I,o,123,1,366.90000009536743,276702.59999990463,9082,WL,C,8.0
2,11.784000158309937,learn,48215.99984169006,Fri May 29 2026 15:24:13 GMT-0400 (Eastern Daylight Time),277186.19999980927,A,doc,I,c,103,1,483.59999990463257,276702.59999990463,9082,WL,C,8.0
2,12.049999952316284,learn,47950.000047683716,Fri May 29 2026 15:24:13 GMT-0400 (Eastern Daylight Time),277453.09999990463,A,doct,I,t,233,1,750.5,276702.59999990463,9082,WL,C,8.0
2,12.134000062942505,learn,47865.999937057495,Fri May 29 2026 15:24:13 GMT-0400 (Eastern Daylight Time),277536.19999980927,A,docto,I,o,71,1,833.5999999046326,276702.59999990463,9082,WL,C,8.0
2,12.284000158309937,learn,47715.99984169006,Fri May 29 2026 15:24:13 GMT-0400 (Eastern Daylight Time),277686.2999997139,A,doctor,I,r,124,1,983.6999998092651,276702.59999990463,9082,WL,C,8.0
2,12.516000032424927,learn,47483.99996757507,Fri May 29 2026 15:24:13 GMT-0400 (Eastern Daylight Time),277919.0,A,doctorenter,I,enter,216,1,1216.4000000953674,276702.59999990463,9082,WL,C,8.0
2,14.600000143051147,learn,45399.99985694885,Fri May 29 2026 15:24:13 GMT-0400 (Eastern Daylight Time),280002.89999961853,A,n,I,n,2072,1,2083.5,277919.39999961853,9082,WL,C,9.0
2,14.75,learn,45250.0,Fri May 29 2026 15:24:13 GMT-0400 (Eastern Daylight Time),280152.89999961853,A,na,I,a,128,1,2233.5,277919.39999961853,9082,WL,C,9.0
2,14.815999984741211,learn,45184.00001525879,Fri May 29 2026 15:24:13 GMT-0400 (Eastern Daylight Time),280218.89999961853,A,nai,I,i,34,1,2299.5,277919.39999961853,9082,WL,C,9.0
2,14.983999967575073,learn,45016.00003242493,Fri May 29 2026 15:24:13 GMT-0400 (Eastern Daylight Time),280386.19999980927,A,nail,I,l,156,1,2466.800000190735,277919.39999961853,9082,WL,C,9.0
2,15.266999959945679,learn,44733.00004005432,Fri May 29 2026 15:24:13 GMT-0400 (Eastern Daylight Time),280669.09999990463,A,nailenter,I,enter,257,1,2749.7000002861023,277919.39999961853,9082,WL,C,9.0
2,16.01699995994568,learn,43983.00004005432,Fri May 29 2026 15:24:13 GMT-0400 (Eastern Daylight Time),281419.5,A,c,I,c,730,1,750.0,280669.5,9082,WL,C,10.0
2,16.15000009536743,learn,43849.99990463257,Fri May 29 2026 15:24:13 GMT-0400 (Eastern Daylight Time),281552.89999961853,A,ca,I,a,121,1,883.3999996185303,280669.5,9082,WL,C,10.0
2,16.299999952316284,learn,43700.000047683716,Fri May 29 2026 15:24:13 GMT-0400 (Eastern Daylight Time),281703.0,A,cat,I,t,121,1,1033.5,280669.5,9082,WL,C,10.0
2,16.483999967575073,learn,43516.00003242493,Fri May 29 2026 15:24:13 GMT-0400 (Eastern Daylight Time),281886.2999997139,A,catt,I,t,156,1,1216.7999997138977,280669.5,9082,WL,C,10.0
2,16.634000062942505,learn,43365.999937057495,Fri May 29 2026 15:24:13 GMT-0400 (Eastern Daylight Time),282036.2999997139,A,cattl,I,l,135,1,1366.7999997138977,280669.5,9082,WL,C,10.0
2,16.784000158309937,learn,43215.99984169006,Fri May 29 2026 15:24:13 GMT-0400 (Eastern Daylight Time),282186.2999997139,A,cattle,I,e,128,1,1516.7999997138977,280669.5,9082,WL,C,10.0
2,17.0,learn,43000.0,Fri May 29 2026 15:24:13 GMT-0400 (Eastern Daylight Time),282402.5,A,cattleenter,I,enter,201,1,1733.0,280669.5,9082,WL,C,10.0
2,22.384000062942505,learn,37615.999937057495,Fri May 29 2026 15:24:13 GMT-0400 (Eastern Daylight Time),287786.2999997139,A,s,I,s,5366,1,5383.400000095367,282402.89999961853,9082,WL,C,11.0
2,22.450000047683716,learn,37549.999952316284,Fri May 29 2026 15:24:13 GMT-0400 (Eastern Daylight Time),287852.89999961853,A,sh,I,h,42,1,5450.0,282402.89999961853,9082,WL,C,11.0
2,22.51699995994568,learn,37483.00004005432,Fri May 29 2026 15:24:13 GMT-0400 (Eastern Daylight Time),287920.0,A,sho,I,o,51,1,5517.10000038147,282402.89999961853,9082,WL,C,11.0
2,22.600000143051147,learn,37399.99985694885,Fri May 29 2026 15:24:13 GMT-0400 (Eastern Daylight Time),288002.89999961853,A,shor,I,r,70,1,5600.0,282402.89999961853,9082,WL,C,11.0
2,22.700000047683716,learn,37299.999952316284,Fri May 29 2026 15:24:13 GMT-0400 (Eastern Daylight Time),288103.0,A,shore,I,e,72,1,5700.10000038147,282402.89999961853,9082,WL,C,11.0
2,22.867000102996826,learn,37132.999897003174,Fri May 29 2026 15:24:13 GMT-0400 (Eastern Daylight Time),288269.19999980927,A,shoreenter,I,enter,132,1,5866.300000190735,282402.89999961853,9082,WL,C,11.0
2,27.950000047683716,learn,32049.999952316284,Fri May 29 2026 15:24:13 GMT-0400 (Eastern Daylight Time),293352.89999961853,A,f,I,f,5067,1,5083.299999713898,288269.59999990463,9082,WL,C,12.0
2,28.067000150680542,learn,31932.999849319458,Fri May 29 2026 15:24:13 GMT-0400 (Eastern Daylight Time),293469.69999980927,A,fl,I,l,90,1,5200.099999904633,288269.59999990463,9082,WL,C,12.0
2,28.15000009536743,learn,31849.99990463257,Fri May 29 2026 15:24:13 GMT-0400 (Eastern Daylight Time),293552.5,A,fla,I,a,60,1,5282.900000095367,288269.59999990463,9082,WL,C,12.0
2,28.467000007629395,learn,31532.999992370605,Fri May 29 2026 15:24:13 GMT-0400 (Eastern Daylight Time),293869.5,A,flag,I,g,292,1,5599.900000095367,288269.59999990463,9082,WL,C,12.0
2,28.66700005531311,learn,31332.99994468689,Fri May 29 2026 15:24:13 GMT-0400 (Eastern Daylight Time),294069.09999990463,A,flagenter,I,enter,182,1,5799.5,288269.59999990463,9082,WL,C,12.0
2,28.91700005531311,learn,31082.99994468689,Fri May 29 2026 15:24:13 GMT-0400 (Eastern Daylight Time),294319.19999980927,A,c,I,c,242,1,249.69999980926514,294069.5,9082,WL,C,13.0
2,29.067000150680542,learn,30932.999849319458,Fri May 29 2026 15:24:13 GMT-0400 (Eastern Daylight Time),294469.59999990463,A,ca,I,a,132,1,400.09999990463257,294069.5,9082,WL,C,13.0
2,29.16700005531311,learn,30832.99994468689,Fri May 29 2026 15:24:13 GMT-0400 (Eastern Daylight Time),294569.69999980927,A,cam,I,m,75,1,500.19999980926514,294069.5,9082,WL,C,13.0
2,29.350000143051147,learn,30649.999856948853,Fri May 29 2026 15:24:13 GMT-0400 (Eastern Daylight Time),294752.7999997139,A,camp,I,p,170,1,683.2999997138977,294069.5,9082,WL,C,13.0
2,29.617000102996826,learn,30382.999897003174,Fri May 29 2026 15:24:13 GMT-0400 (Eastern Daylight Time),295019.09999990463,A,campenter,I,enter,243,1,949.5999999046326,294069.5,9082,WL,C,13.0
2,36.60000014305115,learn,23399.999856948853,Fri May 29 2026 15:24:13 GMT-0400 (Eastern Daylight Time),302002.5,A,enter,I,enter,6972,1,6983.0,295019.5,9082,WL,C,14.0
2,41.5,learn,18500.0,Fri May 29 2026 15:24:13 GMT-0400 (Eastern Daylight Time),306902.89999961853,A,f,I,f,4885,1,4899.89999961853,302003.0,9082,WL,C,15.0
2,41.58400011062622,learn,18415.99988937378,Fri May 29 2026 15:24:13 GMT-0400 (Eastern Daylight Time),306986.09999990463,A,fl,I,l,60,1,4983.099999904633,302003.0,9082,WL,C,15.0
2,41.68400001525879,learn,18315.99998474121,Fri May 29 2026 15:24:13 GMT-0400 (Eastern Daylight Time),307086.19999980927,A,fla,I,a,74,1,5083.199999809265,302003.0,9082,WL,C,15.0
2,41.85000014305115,learn,18149.999856948853,Fri May 29 2026 15:24:13 GMT-0400 (Eastern Daylight Time),307253.0,A,flag,I,g,150,1,5250.0,302003.0,9082,WL,C,15.0
2,41.967000007629395,learn,18032.999992370605,Fri May 29 2026 15:24:13 GMT-0400 (Eastern Daylight Time),307369.09999990463,A,flagenter,I,enter,94,1,5366.099999904633,302003.0,9082,WL,C,15.0
3,0.5169999599456787,learn,59483.00004005432,Fri May 29 2026 15:24:13 GMT-0400 (Eastern Daylight Time),380119.7999997139,A,c,I,c,500,1,516.2999997138977,379603.5,9082,WL,C,1.0
3,0.6500000953674316,learn,59349.99990463257,Fri May 29 2026 15:24:13 GMT-0400 (Eastern Daylight Time),380253.0,A,co,I,o,105,1,649.5,379603.5,9082,WL,C,1.0
3,0.7999999523162842,learn,59200.000047683716,Fri May 29 2026 15:24:13 GMT-0400 (Eastern Daylight Time),380403.0,A,cor,I,r,126,1,799.5,379603.5,9082,WL,C,1.0
3,0.8840000629425049,learn,59115.999937057495,Fri May 29 2026 15:24:13 GMT-0400 (Eastern Daylight Time),380486.39999961853,A,corn,I,n,65,1,882.8999996185303,379603.5,9082,WL,C,1.0
3,1.5,learn,58500.0,Fri May 29 2026 15:24:13 GMT-0400 (Eastern Daylight Time),381102.2999997139,A,cornenter,I,enter,596,1,1498.7999997138977,379603.5,9082,WL,C,1.0
3,1.9670000076293945,learn,58032.999992370605,Fri May 29 2026 15:24:13 GMT-0400 (Eastern Daylight Time),381569.69999980927,A,n,I,n,458,1,467.09999990463257,381102.59999990463,9082,WL,C,2.0
3,2.3499999046325684,learn,57650.00009536743,Fri May 29 2026 15:24:13 GMT-0400 (Eastern Daylight Time),381953.0,A,na,I,a,368,1,850.4000000953674,381102.59999990463,9082,WL,C,2.0
3,2.4839999675750732,learn,57516.00003242493,Fri May 29 2026 15:24:13 GMT-0400 (Eastern Daylight Time),382086.19999980927,A,nai,I,i,116,1,983.5999999046326,381102.59999990463,9082,WL,C,2.0
3,2.5999999046325684,learn,57400.00009536743,Fri May 29 2026 15:24:13 GMT-0400 (Eastern Daylight Time),382203.09999990463,A,nail,I,l,95,1,1100.5,381102.59999990463,9082,WL,C,2.0
3,2.8499999046325684,learn,57150.00009536743,Fri May 29 2026 15:24:13 GMT-0400 (Eastern Daylight Time),382452.59999990463,A,nailenter,I,enter,223,1,1350.0,381102.59999990463,9082,WL,C,2.0
3,3.25,learn,56750.0,Fri May 29 2026 15:24:13 GMT-0400 (Eastern Daylight Time),382853.0,A,s,I,s,387,1,400.0,382453.0,9082,WL,C,3.0
3,3.3499999046325684,learn,56650.00009536743,Fri May 29 2026 15:24:13 GMT-0400 (Eastern Daylight Time),382953.09999990463,A,sh,I,h,79,1,500.09999990463257,382453.0,9082,WL,C,3.0
3,3.4170000553131104,learn,56582.99994468689,Fri May 29 2026 15:24:13 GMT-0400 (Eastern Daylight Time),383019.39999961853,A,sho,I,o,43,1,566.3999996185303,382453.0,9082,WL,C,3.0
3,3.5339999198913574,learn,56466.00008010864,Fri May 29 2026 15:24:13 GMT-0400 (Eastern Daylight Time),383136.19999980927,A,shor,I,r,103,1,683.1999998092651,382453.0,9082,WL,C,3.0
3,3.634000062942505,learn,56365.999937057495,Fri May 29 2026 15:24:13 GMT-0400 (Eastern Daylight Time),383236.2999997139,A,shore,I,e,85,1,783.2999997138977,382453.0,9082,WL,C,3.0
3,3.7669999599456787,learn,56233.00004005432,Fri May 29 2026 15:24:13 GMT-0400 (Eastern Daylight Time),383369.2999997139,A,shoreenter,I,enter,102,1,916.2999997138977,382453.0,9082,WL,C,3.0
3,4.016999959945679,learn,55983.00004005432,Fri May 29 2026 15:24:13 GMT-0400 (Eastern Daylight Time),383619.59999990463,A,b,I,b,239,1,250.09999990463257,383369.5,9082,WL,C,4.0
3,4.2170000076293945,learn,55782.999992370605,Fri May 29 2026 15:24:13 GMT-0400 (Eastern Daylight Time),383819.69999980927,A,bo,I,o,177,1,450.19999980926514,383369.5,9082,WL,C,4.0
3,4.41700005531311,learn,55582.99994468689,Fri May 29 2026 15:24:13 GMT-0400 (Eastern Daylight Time),384019.59999990463,A,bod,I,d,183,1,650.0999999046326,383369.5,9082,WL,C,4.0
3,4.599999904632568,learn,55400.00009536743,Fri May 29 2026 15:24:13 GMT-0400 (Eastern Daylight Time),384203.0,A,body,I,y,161,1,833.5,383369.5,9082,WL,C,4.0
3,4.799999952316284,learn,55200.000047683716,Fri May 29 2026 15:24:13 GMT-0400 (Eastern Daylight Time),384402.59999990463,A,bodyenter,I,enter,175,1,1033.0999999046326,383369.5,9082,WL,C,4.0
3,5.2170000076293945,learn,54782.999992370605,Fri May 29 2026 15:24:13 GMT-0400 (Eastern Daylight Time),384819.59999990463,A,d,I,d,406,1,416.5,384403.09999990463,9082,WL,C,5.0
3,5.483999967575073,learn,54516.00003242493,Fri May 29 2026 15:24:13 GMT-0400 (Eastern Daylight Time),385087.0,A,do,I,o,238,1,683.9000000953674,384403.09999990463,9082,WL,C,5.0
3,5.566999912261963,learn,54433.00008773804,Fri May 29 2026 15:24:13 GMT-0400 (Eastern Daylight Time),385169.59999990463,A,doc,I,c,71,1,766.5,384403.09999990463,9082,WL,C,5.0
3,5.816999912261963,learn,54183.00008773804,Fri May 29 2026 15:24:13 GMT-0400 (Eastern Daylight Time),385419.59999990463,A,doct,I,t,219,1,1016.5,384403.09999990463,9082,WL,C,5.0
3,6.016999959945679,learn,53983.00004005432,Fri May 29 2026 15:24:13 GMT-0400 (Eastern Daylight Time),385619.2999997139,A,docto,I,o,175,1,1216.1999998092651,384403.09999990463,9082,WL,C,5.0
3,6.150000095367432,learn,53849.99990463257,Fri May 29 2026 15:24:13 GMT-0400 (Eastern Daylight Time),385753.0,A,doctor,I,r,115,1,1349.9000000953674,384403.09999990463,9082,WL,C,5.0
3,6.349999904632568,learn,53650.00009536743,Fri May 29 2026 15:24:13 GMT-0400 (Eastern Daylight Time),385952.5,A,doctorenter,I,enter,185,1,1549.4000000953674,384403.09999990463,9082,WL,C,5.0
3,6.700999975204468,learn,53299.00002479553,Fri May 29 2026 15:24:13 GMT-0400 (Eastern Daylight Time),386303.19999980927,A,c,I,c,343,1,350.40000009536743,385952.7999997139,9082,WL,C,6.0
3,6.849999904632568,learn,53150.00009536743,Fri May 29 2026 15:24:13 GMT-0400 (Eastern Daylight Time),386453.0,A,ca,I,a,134,1,500.2000002861023,385952.7999997139,9082,WL,C,6.0
3,6.950000047683716,learn,53049.999952316284,Fri May 29 2026 15:24:13 GMT-0400 (Eastern Daylight Time),386553.09999990463,A,cam,I,m,69,1,600.3000001907349,385952.7999997139,9082,WL,C,6.0
3,7.150000095367432,learn,52849.99990463257,Fri May 29 2026 15:24:13 GMT-0400 (Eastern Daylight Time),386753.0,A,camp,I,p,181,1,800.2000002861023,385952.7999997139,9082,WL,C,6.0
3,7.382999897003174,learn,52617.000102996826,Fri May 29 2026 15:24:13 GMT-0400 (Eastern Daylight Time),386985.7999997139,A,campenter,I,enter,211,1,1033.0,385952.7999997139,9082,WL,C,6.0
3,8.08400011062622,learn,51915.99988937378,Fri May 29 2026 15:24:13 GMT-0400 (Eastern Daylight Time),387686.2999997139,A,f,I,f,687,1,700.0,386986.2999997139,9082,WL,C,7.0
3,8.16700005531311,learn,51832.99994468689,Fri May 29 2026 15:24:13 GMT-0400 (Eastern Daylight Time),387769.69999980927,A,fl,I,l,61,1,783.4000000953674,386986.2999997139,9082,WL,C,7.0
3,8.33400011062622,learn,51665.99988937378,Fri May 29 2026 15:24:13 GMT-0400 (Eastern Daylight Time),387936.19999980927,A,fla,I,a,153,1,949.9000000953674,386986.2999997139,9082,WL,C,7.0
3,8.533999919891357,learn,51466.00008010864,Fri May 29 2026 15:24:13 GMT-0400 (Eastern Daylight Time),388136.2999997139,A,flag,I,g,172,1,1150.0,386986.2999997139,9082,WL,C,7.0
3,8.700000047683716,learn,51299.999952316284,Fri May 29 2026 15:24:13 GMT-0400 (Eastern Daylight Time),388302.39999961853,A,flagenter,I,enter,147,1,1316.0999999046326,386986.2999997139,9082,WL,C,7.0
3,9.033999919891357,learn,50966.00008010864,Fri May 29 2026 15:24:13 GMT-0400 (Eastern Daylight Time),388636.2999997139,A,l,I,l,314,1,333.59999990463257,388302.69999980927,9082,WL,C,8.0
3,9.134000062942505,learn,50865.999937057495,Fri May 29 2026 15:24:13 GMT-0400 (Eastern Daylight Time),388736.19999980927,A,le,I,e,90,1,433.5,388302.69999980927,9082,WL,C,8.0
3,9.283999919891357,learn,50716.00008010864,Fri May 29 2026 15:24:13 GMT-0400 (Eastern Daylight Time),388886.2999997139,A,let,I,t,123,1,583.5999999046326,388302.69999980927,9082,WL,C,8.0
3,9.467000007629395,learn,50532.999992370605,Fri May 29 2026 15:24:13 GMT-0400 (Eastern Daylight Time),389069.69999980927,A,lett,I,t,148,1,767.0,388302.69999980927,9082,WL,C,8.0
3,9.599999904632568,learn,50400.00009536743,Fri May 29 2026 15:24:13 GMT-0400 (Eastern Daylight Time),389203.09999990463,A,lette,I,e,118,1,900.4000000953674,388302.69999980927,9082,WL,C,8.0
3,9.66599988937378,learn,50334.00011062622,Fri May 29 2026 15:24:13 GMT-0400 (Eastern Daylight Time),389269.09999990463,A,letter,I,r,39,1,966.4000000953674,388302.69999980927,9082,WL,C,8.0
3,9.816999912261963,learn,50183.00008773804,Fri May 29 2026 15:24:13 GMT-0400 (Eastern Daylight Time),389419.19999980927,A,letterenter,I,enter,130,1,1116.5,388302.69999980927,9082,WL,C,8.0
3,11.033999919891357,learn,48966.00008010864,Fri May 29 2026 15:24:13 GMT-0400 (Eastern Daylight Time),390636.2999997139,A,q,I,q,1197,1,1216.7999997138977,389419.5,9082,WL,C,9.0
3,11.16700005531311,learn,48832.99994468689,Fri May 29 2026 15:24:13 GMT-0400 (Eastern Daylight Time),390769.59999990463,A,qu,I,u,120,1,1350.0999999046326,389419.5,9082,WL,C,9.0
3,11.349999904632568,learn,48650.00009536743,Fri May 29 2026 15:24:13 GMT-0400 (Eastern Daylight Time),390952.7999997139,A,que,I,e,161,1,1533.2999997138977,389419.5,9082,WL,C,9.0
3,11.500999927520752,learn,48499.00007247925,Fri May 29 2026 15:24:13 GMT-0400 (Eastern Daylight Time),391103.09999990463,A,quee,I,e,138,1,1683.5999999046326,389419.5,9082,WL,C,9.0
3,11.634000062942505,learn,48365.999937057495,Fri May 29 2026 15:24:13 GMT-0400 (Eastern Daylight Time),391236.39999961853,A,queen,I,n,119,1,1816.8999996185303,389419.5,9082,WL,C,9.0
3,12.617000102996826,learn,47382.999897003174,Fri May 29 2026 15:24:13 GMT-0400 (Eastern Daylight Time),392219.19999980927,A,queenenter,I,enter,959,1,2799.699999809265,389419.5,9082,WL,C,9.0
3,13.33400011062622,learn,46665.99988937378,Fri May 29 2026 15:24:13 GMT-0400 (Eastern Daylight Time),392936.2999997139,A,t,I,t,701,1,716.6999998092651,392219.59999990463,9082,WL,C,10.0
3,13.400000095367432,learn,46599.99990463257,Fri May 29 2026 15:24:13 GMT-0400 (Eastern Daylight Time),393003.0,A,to,I,o,44,1,783.4000000953674,392219.59999990463,9082,WL,C,10.0
3,13.566999912261963,learn,46433.00008773804,Fri May 29 2026 15:24:13 GMT-0400 (Eastern Daylight Time),393169.7999997139,A,tow,I,w,154,1,950.1999998092651,392219.59999990463,9082,WL,C,10.0
3,13.684000015258789,learn,46315.99998474121,Fri May 29 2026 15:24:13 GMT-0400 (Eastern Daylight Time),393286.2999997139,A,towe,I,e,89,1,1066.6999998092651,392219.59999990463,9082,WL,C,10.0
3,13.766999959945679,learn,46233.00004005432,Fri May 29 2026 15:24:13 GMT-0400 (Eastern Daylight Time),393369.59999990463,A,tower,I,r,63,1,1150.0,392219.59999990463,9082,WL,C,10.0
3,13.983999967575073,learn,46016.00003242493,Fri May 29 2026 15:24:13 GMT-0400 (Eastern Daylight Time),393586.89999961853,A,towerenter,I,enter,193,1,1367.2999997138977,392219.59999990463,9082,WL,C,10.0
3,14.200000047683716,learn,45799.999952316284,Fri May 29 2026 15:24:13 GMT-0400 (Eastern Daylight Time),393803.0,A,w,I,w,197,1,215.7000002861023,393587.2999997139,9082,WL,C,11.0
3,14.33400011062622,learn,45665.99988937378,Fri May 29 2026 15:24:13 GMT-0400 (Eastern Daylight Time),393936.09999990463,A,wh,I,h,115,1,348.80000019073486,393587.2999997139,9082,WL,C,11.0
3,14.450000047683716,learn,45549.999952316284,Fri May 29 2026 15:24:13 GMT-0400 (Eastern Daylight Time),394053.0,A,whe,I,e,101,1,465.7000002861023,393587.2999997139,9082,WL,C,11.0
3,14.717000007629395,learn,45282.999992370605,Fri May 29 2026 15:24:13 GMT-0400 (Eastern Daylight Time),394319.5,A,whea,I,a,247,1,732.2000002861023,393587.2999997139,9082,WL,C,11.0
3,14.91700005531311,learn,45082.99994468689,Fri May 29 2026 15:24:13 GMT-0400 (Eastern Daylight Time),394519.59999990463,A,wheat,I,t,179,1,932.3000001907349,393587.2999997139,9082,WL,C,11.0
3,15.117000102996826,learn,44882.999897003174,Fri May 29 2026 15:24:13 GMT-0400 (Eastern Daylight Time),394719.09999990463,A,wheatenter,I,enter,188,1,1131.8000001907349,393587.2999997139,9082,WL,C,11.0
3,15.367000102996826,learn,44632.999897003174,Fri May 29 2026 15:24:13 GMT-0400 (Eastern Daylight Time),394969.7999997139,A,s,I,s,234,1,250.40000009536743,394719.39999961853,9082,WL,C,12.0
3,15.500999927520752,learn,44499.00007247925,Fri May 29 2026 15:24:13 GMT-0400 (Eastern Daylight Time),395103.19999980927,A,su,I,u,123,1,383.80000019073486,394719.39999961853,9082,WL,C,12.0
3,15.684000015258789,learn,44315.99998474121,Fri May 29 2026 15:24:13 GMT-0400 (Eastern Daylight Time),395286.2999997139,A,sug,I,g,159,1,566.9000000953674,394719.39999961853,9082,WL,C,12.0
3,15.867000102996826,learn,44132.999897003174,Fri May 29 2026 15:24:13 GMT-0400 (Eastern Daylight Time),395469.59999990463,A,suga,I,a,148,1,750.2000002861023,394719.39999961853,9082,WL,C,12.0
3,16.134000062942505,learn,43865.999937057495,Fri May 29 2026 15:24:13 GMT-0400 (Eastern Daylight Time),395736.2999997139,A,sugar,I,r,245,1,1016.9000000953674,394719.39999961853,9082,WL,C,12.0
3,16.41700005531311,learn,43582.99994468689,Fri May 29 2026 15:24:13 GMT-0400 (Eastern Daylight Time),396019.19999980927,A,sugarenter,I,enter,257,1,1299.8000001907349,394719.39999961853,9082,WL,C,12.0
3,16.700000047683716,learn,43299.999952316284,Fri May 29 2026 15:24:13 GMT-0400 (Eastern Daylight Time),396303.09999990463,A,b,I,b,277,1,283.40000009536743,396019.69999980927,9082,WL,C,13.0
3,16.91700005531311,learn,43082.99994468689,Fri May 29 2026 15:24:13 GMT-0400 (Eastern Daylight Time),396519.69999980927,A,bo,I,o,198,1,500.0,396019.69999980927,9082,WL,C,13.0
3,17.117000102996826,learn,42882.999897003174,Fri May 29 2026 15:24:13 GMT-0400 (Eastern Daylight Time),396719.5,A,boy,I,y,180,1,699.8000001907349,396019.69999980927,9082,WL,C,13.0
3,17.683000087738037,learn,42316.99991226196,Fri May 29 2026 15:24:13 GMT-0400 (Eastern Daylight Time),397285.89999961853,A,boyenter,I,enter,539,1,1266.1999998092651,396019.69999980927,9082,WL,C,13.0
3,23.617000102996826,learn,36382.999897003174,Fri May 29 2026 15:24:13 GMT-0400 (Eastern Daylight Time),403219.59999990463,A,c,I,c,5923,1,5933.5,397286.09999990463,9082,WL,C,14.0
3,24.68400001525879,learn,35315.99998474121,Fri May 29 2026 15:24:13 GMT-0400 (Eastern Daylight Time),404286.39999961853,A,co,I,o,1039,1,7000.299999713898,397286.09999990463,9082,WL,C,14.0
3,24.801000118255615,learn,35198.999881744385,Fri May 29 2026 15:24:13 GMT-0400 (Eastern Daylight Time),404403.09999990463,A,cor,I,r,99,1,7117.0,397286.09999990463,9082,WL,C,14.0
3,24.91700005531311,learn,35082.99994468689,Fri May 29 2026 15:24:13 GMT-0400 (Eastern Daylight Time),404519.69999980927,A,corn,I,n,97,1,7233.599999904633,397286.09999990463,9082,WL,C,14.0
3,25.15000009536743,learn,34849.99990463257,Fri May 29 2026 15:24:13 GMT-0400 (Eastern Daylight Time),404752.5,A,cornenter,I,enter,211,1,7466.400000095367,397286.09999990463,9082,WL,C,14.0
3,27.40000009536743,learn,32599.99990463257,Fri May 29 2026 15:24:13 GMT-0400 (Eastern Daylight Time),407003.0,A,d,I,d,2231,1,2250.1000003814697,404752.89999961853,9082,WL,C,15.0
3,27.483999967575073,learn,32516.000032424927,Fri May 29 2026 15:24:13 GMT-0400 (Eastern Daylight Time),407086.09999990463,A,do,I,o,54,1,2333.2000002861023,404752.89999961853,9082,WL,C,15.0
3,27.617000102996826,learn,32382.999897003174,Fri May 29 2026 15:24:13 GMT-0400 (Eastern Daylight Time),407219.69999980927,A,doc,I,c,118,1,2466.800000190735,404752.89999961853,9082,WL,C,15.0
3,28.066999912261963,learn,31933.000087738037,Fri May 29 2026 15:24:13 GMT-0400 (Eastern Daylight Time),407669.7999997139,A,do,I,backspace,433,1,2916.9000000953674,404752.89999961853,9082,WL,C,15.0
3,28.233999967575073,learn,31766.000032424927,Fri May 29 2026 15:24:13 GMT-0400 (Eastern Daylight Time),407836.39999961853,A,d,I,backspace,144,1,3083.5,404752.89999961853,9082,WL,C,15.0
3,28.384000062942505,learn,31615.999937057495,Fri May 29 2026 15:24:13 GMT-0400 (Eastern Daylight Time),407986.2999997139,A,,I,backspace,128,1,3233.4000000953674,404752.89999961853,9082,WL,C,15.0
3,28.533999919891357,learn,31466.000080108643,Fri May 29 2026 15:24:13 GMT-0400 (Eastern Daylight Time),408136.2999997139,A,,I,backspace,129,1,3383.4000000953674,404752.89999961853,9082,WL,C,15.0
3,37.73399996757507,learn,22266.000032424927,Fri May 29 2026 15:24:13 GMT-0400 (Eastern Daylight Time),417336.5,A,s,I,s,9172,1,12583.60000038147,404752.89999961853,9082,WL,C,15.0
3,37.81699991226196,learn,22183.000087738037,Fri May 29 2026 15:24:13 GMT-0400 (Eastern Daylight Time),417419.69999980927,A,sh,I,h,60,1,12666.800000190735,404752.89999961853,9082,WL,C,15.0
3,37.90000009536743,learn,22099.99990463257,Fri May 29 2026 15:24:13 GMT-0400 (Eastern Daylight Time),417502.69999980927,A,sho,I,o,56,1,12749.800000190735,404752.89999961853,9082,WL,C,15.0
3,37.98399996757507,learn,22016.000032424927,Fri May 29 2026 15:24:13 GMT-0400 (Eastern Daylight Time),417586.09999990463,A,shor,I,r,70,1,12833.200000286102,404752.89999961853,9082,WL,C,15.0
3,38.049999952316284,learn,21950.000047683716,Fri May 29 2026 15:24:13 GMT-0400 (Eastern Daylight Time),417653.09999990463,A,shore,I,e,41,1,12900.200000286102,404752.89999961853,9082,WL,C,15.0
3,38.382999897003174,learn,21617.000102996826,Fri May 29 2026 15:24:13 GMT-0400 (Eastern Daylight Time),417986.0,A,shoreenter,I,enter,311,1,13233.10000038147,404752.89999961853,9082,WL,C,15.0
4,0.41700005531311035,learn,59582.99994468689,Fri May 29 2026 15:24:13 GMT-0400 (Eastern Daylight Time),487286.5,A,c,I,c,400,1,416.30000019073486,486870.19999980927,9082,WL,C,1.0
4,0.6330001354217529,learn,59366.99986457825,Fri May 29 2026 15:24:13 GMT-0400 (Eastern Daylight Time),487503.09999990463,A,ca,I,a,191,1,632.9000000953674,486870.19999980927,9082,WL,C,1.0
4,0.75,learn,59250.0,Fri May 29 2026 15:24:13 GMT-0400 (Eastern Daylight Time),487619.7999997139,A,cat,I,t,102,1,749.5999999046326,486870.19999980927,9082,WL,C,1.0
4,0.9340000152587891,learn,59065.99998474121,Fri May 29 2026 15:24:13 GMT-0400 (Eastern Daylight Time),487803.0,A,catl,I,l,152,1,932.8000001907349,486870.19999980927,9082,WL,C,1.0
4,1.25,learn,58750.0,Fri May 29 2026 15:24:13 GMT-0400 (Eastern Daylight Time),488119.69999980927,A,cat,I,backspace,298,1,1249.5,486870.19999980927,9082,WL,C,1.0
4,1.4000000953674316,learn,58599.99990463257,Fri May 29 2026 15:24:13 GMT-0400 (Eastern Daylight Time),488269.69999980927,A,catt,I,t,125,1,1399.5,486870.19999980927,9082,WL,C,1.0
4,1.567000150680542,learn,58432.99984931946,Fri May 29 2026 15:24:13 GMT-0400 (Eastern Daylight Time),488436.19999980927,A,cattl,I,l,150,1,1566.0,486870.19999980927,9082,WL,C,1.0
4,1.7000000476837158,learn,58299.999952316284,Fri May 29 2026 15:24:13 GMT-0400 (Eastern Daylight Time),488569.7999997139,A,cattle,I,e,113,1,1699.5999999046326,486870.19999980927,9082,WL,C,1.0
4,4.865999937057495,learn,55134.000062942505,Fri May 29 2026 15:24:13 GMT-0400 (Eastern Daylight Time),491736.0,A,cattleenter,I,enter,3138,1,4865.800000190735,486870.19999980927,9082,WL,C,1.0
4,5.400000095367432,learn,54599.99990463257,Fri May 29 2026 15:24:13 GMT-0400 (Eastern Daylight Time),492269.89999961853,A,s,I,s,512,1,533.5999999046326,491736.2999997139,9082,WL,C,2.0
4,5.483000040054321,learn,54516.99995994568,Fri May 29 2026 15:24:13 GMT-0400 (Eastern Daylight Time),492353.0,A,sh,I,h,69,1,616.7000002861023,491736.2999997139,9082,WL,C,2.0
4,5.549999952316284,learn,54450.000047683716,Fri May 29 2026 15:24:13 GMT-0400 (Eastern Daylight Time),492419.5,A,sho,I,o,50,1,683.2000002861023,491736.2999997139,9082,WL,C,2.0
4,5.700000047683716,learn,54299.999952316284,Fri May 29 2026 15:24:13 GMT-0400 (Eastern Daylight Time),492569.59999990463,A,shor,I,r,130,1,833.3000001907349,491736.2999997139,9082,WL,C,2.0
4,5.7829999923706055,learn,54217.000007629395,Fri May 29 2026 15:24:13 GMT-0400 (Eastern Daylight Time),492653.0,A,shore,I,e,58,1,916.7000002861023,491736.2999997139,9082,WL,C,2.0
4,7.299999952316284,learn,52700.000047683716,Fri May 29 2026 15:24:13 GMT-0400 (Eastern Daylight Time),494169.19999980927,A,shoreenter,I,enter,1486,1,2432.9000000953674,491736.2999997139,9082,WL,C,2.0
4,7.634000062942505,learn,52365.999937057495,Fri May 29 2026 15:24:13 GMT-0400 (Eastern Daylight Time),494503.09999990463,A,b,I,b,319,1,333.59999990463257,494169.5,9082,WL,C,3.0
4,7.868000030517578,learn,52131.99996948242,Fri May 29 2026 15:24:13 GMT-0400 (Eastern Daylight Time),494737.39999961853,A,bo,I,o,220,1,567.8999996185303,494169.5,9082,WL,C,3.0
4,8.08299994468689,learn,51917.00005531311,Fri May 29 2026 15:24:13 GMT-0400 (Eastern Daylight Time),494953.09999990463,A,bod,I,d,194,1,783.5999999046326,494169.5,9082,WL,C,3.0
4,8.266999959945679,learn,51733.00004005432,Fri May 29 2026 15:24:13 GMT-0400 (Eastern Daylight Time),495136.19999980927,A,body,I,y,172,1,966.6999998092651,494169.5,9082,WL,C,3.0
4,8.600000143051147,learn,51399.99985694885,Fri May 29 2026 15:24:13 GMT-0400 (Eastern Daylight Time),495469.2999997139,A,bodyenter,I,enter,299,1,1299.7999997138977,494169.5,9082,WL,C,3.0
4,8.967000007629395,learn,51032.999992370605,Fri May 29 2026 15:24:13 GMT-0400 (Eastern Daylight Time),495836.5,A,l,I,l,346,1,366.7000002861023,495469.7999997139,9082,WL,C,4.0
4,9.08299994468689,learn,50917.00005531311,Fri May 29 2026 15:24:13 GMT-0400 (Eastern Daylight Time),495952.7999997139,A,le,I,e,106,1,483.0,495469.7999997139,9082,WL,C,4.0
4,9.25,learn,50750.0,Fri May 29 2026 15:24:13 GMT-0400 (Eastern Daylight Time),496119.69999980927,A,let,I,t,148,1,649.9000000953674,495469.7999997139,9082,WL,C,4.0
4,9.434000015258789,learn,50565.99998474121,Fri May 29 2026 15:24:13 GMT-0400 (Eastern Daylight Time),496303.2999997139,A,lett,I,t,171,1,833.5,495469.7999997139,9082,WL,C,4.0
4,9.600000143051147,learn,50399.99985694885,Fri May 29 2026 15:24:13 GMT-0400 (Eastern Daylight Time),496469.69999980927,A,lette,I,e,141,1,999.9000000953674,495469.7999997139,9082,WL,C,4.0
4,9.683000087738037,learn,50316.99991226196,Fri May 29 2026 15:24:13 GMT-0400 (Eastern Daylight Time),496553.0,A,letter,I,r,63,1,1083.2000002861023,495469.7999997139,9082,WL,C,4.0
4,9.850000143051147,learn,50149.99985694885,Fri May 29 2026 15:24:13 GMT-0400 (Eastern Daylight Time),496719.19999980927,A,letterenter,I,enter,145,1,1249.4000000953674,495469.7999997139,9082,WL,C,4.0
4,10.16700005531311,learn,49832.99994468689,Fri May 29 2026 15:24:13 GMT-0400 (Eastern Daylight Time),497036.39999961853,A,c,I,c,297,1,316.7999997138977,496719.59999990463,9082,WL,C,5.0
4,10.233000040054321,learn,49766.99995994568,Fri May 29 2026 15:24:13 GMT-0400 (Eastern Daylight Time),497102.69999980927,A,co,I,o,54,1,383.09999990463257,496719.59999990463,9082,WL,C,5.0
4,10.467000007629395,learn,49532.999992370605,Fri May 29 2026 15:24:13 GMT-0400 (Eastern Daylight Time),497336.39999961853,A,cor,I,r,214,1,616.7999997138977,496719.59999990463,9082,WL,C,5.0
4,10.58400011062622,learn,49415.99988937378,Fri May 29 2026 15:24:13 GMT-0400 (Eastern Daylight Time),497453.19999980927,A,corn,I,n,91,1,733.5999999046326,496719.59999990463,9082,WL,C,5.0
4,11.150000095367432,learn,48849.99990463257,Fri May 29 2026 15:24:13 GMT-0400 (Eastern Daylight Time),498019.2999997139,A,cornenter,I,enter,551,1,1299.6999998092651,496719.59999990463,9082,WL,C,5.0
4,11.433000087738037,learn,48566.99991226196,Fri May 29 2026 15:24:13 GMT-0400 (Eastern Daylight Time),498303.0,A,n,I,n,261,1,283.30000019073486,498019.69999980927,9082,WL,C,6.0
4,11.600000143051147,learn,48399.99985694885,Fri May 29 2026 15:24:13 GMT-0400 (Eastern Daylight Time),498469.7999997139,A,na,I,a,148,1,450.09999990463257,498019.69999980927,9082,WL,C,6.0
4,11.700000047683716,learn,48299.999952316284,Fri May 29 2026 15:24:13 GMT-0400 (Eastern Daylight Time),498569.69999980927,A,nai,I,i,77,1,550.0,498019.69999980927,9082,WL,C,6.0
4,11.83299994468689,learn,48167.00005531311,Fri May 29 2026 15:24:13 GMT-0400 (Eastern Daylight Time),498702.89999961853,A,nail,I,l,98,1,683.1999998092651,498019.69999980927,9082,WL,C,6.0
4,12.100000143051147,learn,47899.99985694885,Fri May 29 2026 15:24:13 GMT-0400 (Eastern Daylight Time),498969.2999997139,A,nailenter,I,enter,234,1,949.5999999046326,498019.69999980927,9082,WL,C,6.0
4,15.383000135421753,learn,44616.99986457825,Fri May 29 2026 15:24:13 GMT-0400 (Eastern Daylight Time),502253.0,A,d,I,d,3263,1,3283.4000000953674,498969.59999990463,9082,WL,C,7.0
4,15.5,learn,44500.0,Fri May 29 2026 15:24:13 GMT-0400 (Eastern Daylight Time),502369.69999980927,A,do,I,o,102,1,3400.0999999046326,498969.59999990463,9082,WL,C,7.0
4,15.650000095367432,learn,44349.99990463257,Fri May 29 2026 15:24:13 GMT-0400 (Eastern Daylight Time),502519.59999990463,A,doc,I,c,121,1,3550.0,498969.59999990463,9082,WL,C,7.0
4,15.900000095367432,learn,44099.99990463257,Fri May 29 2026 15:24:13 GMT-0400 (Eastern Daylight Time),502769.69999980927,A,doct,I,t,227,1,3800.0999999046326,498969.59999990463,9082,WL,C,7.0
4,16.0,learn,44000.0,Fri May 29 2026 15:24:13 GMT-0400 (Eastern Daylight Time),502869.69999980927,A,docto,I,o,84,1,3900.0999999046326,498969.59999990463,9082,WL,C,7.0
4,16.16700005531311,learn,43832.99994468689,Fri May 29 2026 15:24:13 GMT-0400 (Eastern Daylight Time),503036.5,A,doctor,I,r,133,1,4066.9000000953674,498969.59999990463,9082,WL,C,7.0
4,17.25,learn,42750.0,Fri May 29 2026 15:24:13 GMT-0400 (Eastern Daylight Time),504119.2999997139,A,doctorenter,I,enter,1053,1,5149.699999809265,498969.59999990463,9082,WL,C,7.0
4,18.350000143051147,learn,41649.99985694885,Fri May 29 2026 15:24:13 GMT-0400 (Eastern Daylight Time),505219.59999990463,A,c,I,c,1089,1,1099.9000000953674,504119.69999980927,9082,WL,C,8.0
4,18.5,learn,41500.0,Fri May 29 2026 15:24:13 GMT-0400 (Eastern Daylight Time),505369.69999980927,A,ca,I,a,129,1,1250.0,504119.69999980927,9082,WL,C,8.0
4,18.549999952316284,learn,41450.000047683716,Fri May 29 2026 15:24:13 GMT-0400 (Eastern Daylight Time),505419.09999990463,A,cam,I,m,27,1,1299.4000000953674,504119.69999980927,9082,WL,C,8.0
4,18.799999952316284,learn,41200.000047683716,Fri May 29 2026 15:24:13 GMT-0400 (Eastern Daylight Time),505669.7999997139,A,camp,I,p,234,1,1550.0999999046326,504119.69999980927,9082,WL,C,8.0
4,19.049999952316284,learn,40950.000047683716,Fri May 29 2026 15:24:13 GMT-0400 (Eastern Daylight Time),505919.19999980927,A,campenter,I,enter,237,1,1799.5,504119.69999980927,9082,WL,C,8.0
4,19.317000150680542,learn,40682.99984931946,Fri May 29 2026 15:24:13 GMT-0400 (Eastern Daylight Time),506186.39999961853,A,f,I,f,249,1,266.8999996185303,505919.5,9082,WL,C,9.0
4,19.41700005531311,learn,40582.99994468689,Fri May 29 2026 15:24:13 GMT-0400 (Eastern Daylight Time),506286.39999961853,A,fl,I,l,74,1,366.8999996185303,505919.5,9082,WL,C,9.0
4,19.600000143051147,learn,40399.99985694885,Fri May 29 2026 15:24:13 GMT-0400 (Eastern Daylight Time),506469.69999980927,A,fla,I,a,167,1,550.1999998092651,505919.5,9082,WL,C,9.0
4,19.817000150680542,learn,40182.99984931946,Fri May 29 2026 15:24:13 GMT-0400 (Eastern Daylight Time),506686.5,A,flag,I,g,190,1,767.0,505919.5,9082,WL,C,9.0
4,19.966000080108643,learn,40033.99991989136,Fri May 29 2026 15:24:13 GMT-0400 (Eastern Daylight Time),506836.0,A,flagenter,I,enter,132,1,916.5,505919.5,9082,WL,C,9.0
4,21.41700005531311,learn,38582.99994468689,Fri May 29 2026 15:24:13 GMT-0400 (Eastern Daylight Time),508286.2999997139,A,b,I,b,1428,1,1449.9000000953674,506836.39999961853,9082,WL,C,10.0
4,21.58400011062622,learn,38415.99988937378,Fri May 29 2026 15:24:13 GMT-0400 (Eastern Daylight Time),508453.09999990463,A,bo,I,o,149,1,1616.7000002861023,506836.39999961853,9082,WL,C,10.0
4,21.784000158309937,learn,38215.99984169006,Fri May 29 2026 15:24:13 GMT-0400 (Eastern Daylight Time),508653.09999990463,A,boy,I,y,167,1,1816.7000002861023,506836.39999961853,9082,WL,C,10.0
4,22.049999952316284,learn,37950.000047683716,Fri May 29 2026 15:24:13 GMT-0400 (Eastern Daylight Time),508919.2999997139,A,boyenter,I,enter,247,1,2082.9000000953674,506836.39999961853,9082,WL,C,10.0
4,22.950000047683716,learn,37049.999952316284,Fri May 29 2026 15:24:13 GMT-0400 (Eastern Daylight Time),509819.7999997139,A,h,I,h,881,1,900.1999998092651,508919.59999990463,9082,WL,C,11.0
4,23.049999952316284,learn,36950.000047683716,Fri May 29 2026 15:24:13 GMT-0400 (Eastern Daylight Time),509919.7999997139,A,ho,I,o,74,1,1000.1999998092651,508919.59999990463,9082,WL,C,11.0
4,23.23300004005432,learn,36766.99995994568,Fri May 29 2026 15:24:13 GMT-0400 (Eastern Daylight Time),510103.09999990463,A,hom,I,m,156,1,1183.5,508919.59999990463,9082,WL,C,11.0
4,23.317000150680542,learn,36682.99984931946,Fri May 29 2026 15:24:13 GMT-0400 (Eastern Daylight Time),510186.19999980927,A,home,I,e,54,1,1266.5999999046326,508919.59999990463,9082,WL,C,11.0
4,23.683000087738037,learn,36316.99991226196,Fri May 29 2026 15:24:13 GMT-0400 (Eastern Daylight Time),510552.69999980927,A,homeenter,I,enter,341,1,1633.0999999046326,508919.59999990463,9082,WL,C,11.0
4,24.233999967575073,learn,35766.00003242493,Fri May 29 2026 15:24:13 GMT-0400 (Eastern Daylight Time),511103.19999980927,A,s,I,s,544,1,550.1999998092651,510553.0,9082,WL,C,12.0
4,24.383000135421753,learn,35616.99986457825,Fri May 29 2026 15:24:13 GMT-0400 (Eastern Daylight Time),511252.89999961853,A,su,I,u,130,1,699.8999996185303,510553.0,9082,WL,C,12.0
4,24.534000158309937,learn,35465.99984169006,Fri May 29 2026 15:24:13 GMT-0400 (Eastern Daylight Time),511403.09999990463,A,sur,I,r,119,1,850.0999999046326,510553.0,9082,WL,C,12.0
4,24.733999967575073,learn,35266.00003242493,Fri May 29 2026 15:24:13 GMT-0400 (Eastern Daylight Time),511603.19999980927,A,surg,I,g,176,1,1050.1999998092651,510553.0,9082,WL,C,12.0
4,25.100000143051147,learn,34899.99985694885,Fri May 29 2026 15:24:13 GMT-0400 (Eastern Daylight Time),511969.7999997139,A,sur,I,backspace,353,1,1416.7999997138977,510553.0,9082,WL,C,12.0
4,25.25,learn,34750.0,Fri May 29 2026 15:24:13 GMT-0400 (Eastern Daylight Time),512119.7999997139,A,su,I,backspace,132,1,1566.7999997138977,510553.0,9082,WL,C,12.0
4,25.83400011062622,learn,34165.99988937378,Fri May 29 2026 15:24:13 GMT-0400 (Eastern Daylight Time),512703.2999997139,A,sug,I,g,574,1,2150.2999997138977,510553.0,9082,WL,C,12.0
4,26.01699995994568,learn,33983.00004005432,Fri May 29 2026 15:24:13 GMT-0400 (Eastern Daylight Time),512886.5,A,suga,I,a,167,1,2333.5,510553.0,9082,WL,C,12.0
4,26.100000143051147,learn,33899.99985694885,Fri May 29 2026 15:24:13 GMT-0400 (Eastern Daylight Time),512969.7999997139,A,sugar,I,r,63,1,2416.7999997138977,510553.0,9082,WL,C,12.0
4,26.350000143051147,learn,33649.99985694885,Fri May 29 2026 15:24:13 GMT-0400 (Eastern Daylight Time),513219.2999997139,A,sugarenter,I,enter,234,1,2666.2999997138977,510553.0,9082,WL,C,12.0
4,29.25,learn,30750.0,Fri May 29 2026 15:24:13 GMT-0400 (Eastern Daylight Time),516119.69999980927,A,w,I,w,2884,1,2900.0999999046326,513219.59999990463,9082,WL,C,13.0
4,29.367000102996826,learn,30632.999897003174,Fri May 29 2026 15:24:13 GMT-0400 (Eastern Daylight Time),516236.39999961853,A,wh,I,h,92,1,3016.7999997138977,513219.59999990463,9082,WL,C,13.0
4,29.83400011062622,learn,30165.99988937378,Fri May 29 2026 15:24:13 GMT-0400 (Eastern Daylight Time),516703.09999990463,A,whe,I,e,441,1,3483.5,513219.59999990463,9082,WL,C,13.0
4,30.01699995994568,learn,29983.00004005432,Fri May 29 2026 15:24:13 GMT-0400 (Eastern Daylight Time),516886.39999961853,A,whea,I,a,166,1,3666.7999997138977,513219.59999990463,9082,WL,C,13.0
4,30.100000143051147,learn,29899.999856948853,Fri May 29 2026 15:24:13 GMT-0400 (Eastern Daylight Time),516969.69999980927,A,wheat,I,t,61,1,3750.0999999046326,513219.59999990463,9082,WL,C,13.0
4,30.633000135421753,learn,29366.999864578247,Fri May 29 2026 15:24:13 GMT-0400 (Eastern Daylight Time),517502.59999990463,A,wheatenter,I,enter,497,1,4283.0,513219.59999990463,9082,WL,C,13.0
4,31.217000007629395,learn,28782.999992370605,Fri May 29 2026 15:24:13 GMT-0400 (Eastern Daylight Time),518086.2999997139,A,q,I,q,569,1,583.2999997138977,517503.0,9082,WL,C,14.0
4,31.350000143051147,learn,28649.999856948853,Fri May 29 2026 15:24:13 GMT-0400 (Eastern Daylight Time),518219.7999997139,A,qu,I,u,109,1,716.7999997138977,517503.0,9082,WL,C,14.0
4,31.41700005531311,learn,28582.99994468689,Fri May 29 2026 15:24:13 GMT-0400 (Eastern Daylight Time),518286.59999990463,A,qui,I,i,55,1,783.5999999046326,517503.0,9082,WL,C,14.0
4,31.600000143051147,learn,28399.999856948853,Fri May 29 2026 15:24:13 GMT-0400 (Eastern Daylight Time),518469.7999997139,A,quie,I,e,167,1,966.7999997138977,517503.0,9082,WL,C,14.0
4,31.93400001525879,learn,28065.99998474121,Fri May 29 2026 15:24:13 GMT-0400 (Eastern Daylight Time),518803.09999990463,A,qui,I,backspace,319,1,1300.0999999046326,517503.0,9082,WL,C,14.0
4,32.06700015068054,learn,27932.999849319458,Fri May 29 2026 15:24:13 GMT-0400 (Eastern Daylight Time),518936.39999961853,A,qu,I,backspace,114,1,1433.3999996185303,517503.0,9082,WL,C,14.0
4,32.18400001525879,learn,27815.99998474121,Fri May 29 2026 15:24:13 GMT-0400 (Eastern Daylight Time),519053.09999990463,A,que,I,e,91,1,1550.0999999046326,517503.0,9082,WL,C,14.0
4,32.384000062942505,learn,27615.999937057495,Fri May 29 2026 15:24:13 GMT-0400 (Eastern Daylight Time),519253.19999980927,A,quee,I,e,175,1,1750.1999998092651,517503.0,9082,WL,C,14.0
4,32.48399996757507,learn,27516.000032424927,Fri May 29 2026 15:24:13 GMT-0400 (Eastern Daylight Time),519353.09999990463,A,queen,I,n,77,1,1850.0999999046326,517503.0,9082,WL,C,14.0
4,32.88300013542175,learn,27116.999864578247,Fri May 29 2026 15:24:13 GMT-0400 (Eastern Daylight Time),519752.69999980927,A,queenenter,I,enter,376,1,2249.699999809265,517503.0,9082,WL,C,14.0
4,33.134000062942505,learn,26865.999937057495,Fri May 29 2026 15:24:13 GMT-0400 (Eastern Daylight Time),520003.09999990463,A,t,I,t,239,1,250.2000002861023,519752.89999961853,9082,WL,C,15.0
4,33.217000007629395,learn,26782.999992370605,Fri May 29 2026 15:24:13 GMT-0400 (Eastern Daylight Time),520086.2999997139,A,to,I,o,66,1,333.40000009536743,519752.89999961853,9082,WL,C,15.0
4,33.367000102996826,learn,26632.999897003174,Fri May 29 2026 15:24:13 GMT-0400 (Eastern Daylight Time),520236.5,A,tow,I,w,122,1,483.6000003814697,519752.89999961853,9082,WL,C,15.0
4,33.450000047683716,learn,26549.999952316284,Fri May 29 2026 15:24:13 GMT-0400 (Eastern Daylight Time),520319.69999980927,A,towe,I,e,66,1,566.8000001907349,519752.89999961853,9082,WL,C,15.0
4,33.51600003242493,learn,26483.999967575073,Fri May 29 2026 15:24:13 GMT-0400 (Eastern Daylight Time),520386.0,A,tower,I,r,43,1,633.1000003814697,519752.89999961853,9082,WL,C,15.0
4,33.865999937057495,learn,26134.000062942505,Fri May 29 2026 15:24:13 GMT-0400 (Eastern Daylight Time),520735.89999961853,A,towerenter,I,enter,342,1,983.0,519752.89999961853,9082,WL,C,15.0
5,0.9010000228881836,learn,60000.0,Fri May 29 2026 15:24:13 GMT-0400 (Eastern Daylight Time),591153.3999996185,A,t,I,t,893,1,900.5999999046326,590252.7999997139,9082,WL,C,1.0
5,1.0339999198913574,learn,60000.0,Fri May 29 2026 15:24:13 GMT-0400 (Eastern Daylight Time),591286.5999999046,A,to,I,o,116,1,1033.8000001907349,590252.7999997139,9082,WL,C,1.0
5,1.1999998092651367,learn,60000.0,Fri May 29 2026 15:24:13 GMT-0400 (Eastern Daylight Time),591453.0,A,tow,I,w,135,1,1200.2000002861023,590252.7999997139,9082,WL,C,1.0
5,1.2839999198913574,learn,60000.0,Fri May 29 2026 15:24:13 GMT-0400 (Eastern Daylight Time),591536.2999997139,A,towe,I,e,73,1,1283.5,590252.7999997139,9082,WL,C,1.0
5,1.3499999046325684,learn,60000.0,Fri May 29 2026 15:24:13 GMT-0400 (Eastern Daylight Time),591602.5,A,tower,I,r,44,1,1349.7000002861023,590252.7999997139,9082,WL,C,1.0
5,1.5839998722076416,learn,60000.0,Fri May 29 2026 15:24:13 GMT-0400 (Eastern Daylight Time),591836.0999999046,A,towerenter,I,enter,214,1,1583.3000001907349,590252.7999997139,9082,WL,C,1.0
5,2.116999864578247,learn,60000.0,Fri May 29 2026 15:24:13 GMT-0400 (Eastern Daylight Time),592369.7999997139,A,w,I,w,524,1,533.4000000953674,591836.3999996185,9082,WL,C,2.0
5,2.2669999599456787,learn,60000.0,Fri May 29 2026 15:24:13 GMT-0400 (Eastern Daylight Time),592519.7999997139,A,wh,I,h,131,1,683.4000000953674,591836.3999996185,9082,WL,C,2.0
5,2.4010000228881836,learn,60000.0,Fri May 29 2026 15:24:13 GMT-0400 (Eastern Daylight Time),592653.1999998093,A,whe,I,e,99,1,816.8000001907349,591836.3999996185,9082,WL,C,2.0
5,2.550999879837036,learn,60000.0,Fri May 29 2026 15:24:13 GMT-0400 (Eastern Daylight Time),592803.1999998093,A,whea,I,a,126,1,966.8000001907349,591836.3999996185,9082,WL,C,2.0
5,2.684000015258789,learn,60000.0,Fri May 29 2026 15:24:13 GMT-0400 (Eastern Daylight Time),592936.5,A,wheat,I,t,112,1,1100.1000003814697,591836.3999996185,9082,WL,C,2.0
5,2.882999897003174,learn,60000.0,Fri May 29 2026 15:24:13 GMT-0400 (Eastern Daylight Time),593136.0,A,wheatenter,I,enter,185,1,1299.6000003814697,591836.3999996185,9082,WL,C,2.0
5,3.250999927520752,learn,60000.0,Fri May 29 2026 15:24:13 GMT-0400 (Eastern Daylight Time),593503.5,A,q,I,q,360,1,367.2000002861023,593136.2999997139,9082,WL,C,3.0
5,3.4010000228881836,learn,60000.0,Fri May 29 2026 15:24:13 GMT-0400 (Eastern Daylight Time),593653.1999998093,A,qu,I,u,133,1,516.9000000953674,593136.2999997139,9082,WL,C,3.0
5,3.566999912261963,learn,60000.0,Fri May 29 2026 15:24:13 GMT-0400 (Eastern Daylight Time),593819.8999996185,A,que,I,e,143,1,683.5999999046326,593136.2999997139,9082,WL,C,3.0
5,3.7839999198913574,learn,60000.0,Fri May 29 2026 15:24:13 GMT-0400 (Eastern Daylight Time),594036.5,A,quen,I,n,202,1,900.2000002861023,593136.2999997139,9082,WL,C,3.0
5,4.266999959945679,learn,60000.0,Fri May 29 2026 15:24:13 GMT-0400 (Eastern Daylight Time),594519.7999997139,A,que,I,backspace,454,1,1383.5,593136.2999997139,9082,WL,C,3.0
5,4.349999904632568,learn,60000.0,Fri May 29 2026 15:24:13 GMT-0400 (Eastern Daylight Time),594602.8999996185,A,quee,I,e,57,1,1466.5999999046326,593136.2999997139,9082,WL,C,3.0
5,4.483999967575073,learn,60000.0,Fri May 29 2026 15:24:13 GMT-0400 (Eastern Daylight Time),594736.3999996185,A,queen,I,n,122,1,1600.0999999046326,593136.2999997139,9082,WL,C,3.0
5,5.516999959945679,learn,60000.0,Fri May 29 2026 15:24:13 GMT-0400 (Eastern Daylight Time),595769.3999996185,A,queenenter,I,enter,1000,1,2633.0999999046326,593136.2999997139,9082,WL,C,3.0
5,5.883999824523926,learn,60000.0,Fri May 29 2026 15:24:13 GMT-0400 (Eastern Daylight Time),596136.3999996185,A,s,I,s,351,1,366.69999980926514,595769.6999998093,9082,WL,C,4.0
5,5.983999967575073,learn,60000.0,Fri May 29 2026 15:24:13 GMT-0400 (Eastern Daylight Time),596236.3999996185,A,su,I,u,76,1,466.69999980926514,595769.6999998093,9082,WL,C,4.0
5,6.166999816894531,learn,60000.0,Fri May 29 2026 15:24:13 GMT-0400 (Eastern Daylight Time),596419.6999998093,A,sug,I,g,168,1,650.0,595769.6999998093,9082,WL,C,4.0
5,6.35099983215332,learn,60000.0,Fri May 29 2026 15:24:13 GMT-0400 (Eastern Daylight Time),596603.1999998093,A,suga,I,a,161,1,833.5,595769.6999998093,9082,WL,C,4.0
5,6.449999809265137,learn,60000.0,Fri May 29 2026 15:24:13 GMT-0400 (Eastern Daylight Time),596702.5999999046,A,sugar,I,r,80,1,932.9000000953674,595769.6999998093,9082,WL,C,4.0
5,6.699999809265137,learn,60000.0,Fri May 29 2026 15:24:13 GMT-0400 (Eastern Daylight Time),596952.6999998093,A,sugarenter,I,enter,230,1,1183.0,595769.6999998093,9082,WL,C,4.0
5,6.983999967575073,learn,60000.0,Fri May 29 2026 15:24:13 GMT-0400 (Eastern Daylight Time),597236.5,A,h,I,h,271,1,283.40000009536743,596953.0999999046,9082,WL,C,5.0
5,7.116999864578247,learn,60000.0,Fri May 29 2026 15:24:13 GMT-0400 (Eastern Daylight Time),597369.7999997139,A,ho,I,o,111,1,416.69999980926514,596953.0999999046,9082,WL,C,5.0
5,7.266999959945679,learn,60000.0,Fri May 29 2026 15:24:13 GMT-0400 (Eastern Daylight Time),597519.5,A,hom,I,m,130,1,566.4000000953674,596953.0999999046,9082,WL,C,5.0
5,7.383999824523926,learn,60000.0,Fri May 29 2026 15:24:13 GMT-0400 (Eastern Daylight Time),597636.5999999046,A,home,I,e,95,1,683.5,596953.0999999046,9082,WL,C,5.0
5,7.816999912261963,learn,60000.0,Fri May 29 2026 15:24:13 GMT-0400 (Eastern Daylight Time),598069.3999996185,A,homeenter,I,enter,407,1,1116.2999997138977,596953.0999999046,9082,WL,C,5.0
5,8.316999912261963,learn,60000.0,Fri May 29 2026 15:24:13 GMT-0400 (Eastern Daylight Time),598569.6999998093,A,b,I,b,483,1,500.0,598069.6999998093,9082,WL,C,6.0
5,8.500999927520752,learn,60000.0,Fri May 29 2026 15:24:13 GMT-0400 (Eastern Daylight Time),598753.0,A,bo,I,o,171,1,683.3000001907349,598069.6999998093,9082,WL,C,6.0
5,8.684000015258789,learn,60000.0,Fri May 29 2026 15:24:13 GMT-0400 (Eastern Daylight Time),598936.5,A,boy,I,y,163,1,866.8000001907349,598069.6999998093,9082,WL,C,6.0
5,9.016999959945679,learn,60000.0,Fri May 29 2026 15:24:13 GMT-0400 (Eastern Daylight Time),599269.1999998093,A,boyenter,I,enter,314,1,1199.5,598069.6999998093,9082,WL,C,6.0
5,9.333999872207642,learn,60000.0,Fri May 29 2026 15:24:13 GMT-0400 (Eastern Daylight Time),599586.3999996185,A,d,I,d,307,1,316.7999997138977,599269.5999999046,9082,WL,C,7.0
5,9.416999816894531,learn,60000.0,Fri May 29 2026 15:24:13 GMT-0400 (Eastern Daylight Time),599669.7999997139,A,do,I,o,65,1,400.19999980926514,599269.5999999046,9082,WL,C,7.0
5,9.583999872207642,learn,60000.0,Fri May 29 2026 15:24:13 GMT-0400 (Eastern Daylight Time),599836.5,A,doc,I,c,142,1,566.9000000953674,599269.5999999046,9082,WL,C,7.0
5,9.799999952316284,learn,60000.0,Fri May 29 2026 15:24:13 GMT-0400 (Eastern Daylight Time),600053.0,A,doct,I,t,201,1,783.4000000953674,599269.5999999046,9082,WL,C,7.0
5,9.934000015258789,learn,60000.0,Fri May 29 2026 15:24:13 GMT-0400 (Eastern Daylight Time),600186.5,A,docto,I,o,111,1,916.9000000953674,599269.5999999046,9082,WL,C,7.0
5,10.049999952316284,learn,60000.0,Fri May 29 2026 15:24:13 GMT-0400 (Eastern Daylight Time),600303.0999999046,A,doctor,I,r,81,1,1033.5,599269.5999999046,9082,WL,C,7.0
5,10.25,learn,60000.0,Fri May 29 2026 15:24:13 GMT-0400 (Eastern Daylight Time),600502.7999997139,A,doctorenter,I,enter,172,1,1233.1999998092651,599269.5999999046,9082,WL,C,7.0
5,10.566999912261963,learn,60000.0,Fri May 29 2026 15:24:13 GMT-0400 (Eastern Daylight Time),600819.6999998093,A,c,I,c,305,1,316.69999980926514,600503.0,9082,WL,C,8.0
5,10.717000007629395,learn,60000.0,Fri May 29 2026 15:24:13 GMT-0400 (Eastern Daylight Time),600969.7999997139,A,ca,I,a,121,1,466.7999997138977,600503.0,9082,WL,C,8.0
5,10.833999872207642,learn,60000.0,Fri May 29 2026 15:24:13 GMT-0400 (Eastern Daylight Time),601086.2999997139,A,cam,I,m,82,1,583.2999997138977,600503.0,9082,WL,C,8.0
5,11.033999919891357,learn,60000.0,Fri May 29 2026 15:24:13 GMT-0400 (Eastern Daylight Time),601286.5,A,camp,I,p,182,1,783.5,600503.0,9082,WL,C,8.0
5,11.282999992370605,learn,60000.0,Fri May 29 2026 15:24:13 GMT-0400 (Eastern Daylight Time),601536.0,A,campenter,I,enter,227,1,1033.0,600503.0,9082,WL,C,8.0
5,11.666999816894531,learn,60000.0,Fri May 29 2026 15:24:13 GMT-0400 (Eastern Daylight Time),601919.5999999046,A,f,I,f,377,1,383.40000009536743,601536.1999998093,9082,WL,C,9.0
5,11.800999879837036,learn,60000.0,Fri May 29 2026 15:24:13 GMT-0400 (Eastern Daylight Time),602053.1999998093,A,fl,I,l,116,1,517.0,601536.1999998093,9082,WL,C,9.0
5,12.016999959945679,learn,60000.0,Fri May 29 2026 15:24:13 GMT-0400 (Eastern Daylight Time),602269.7999997139,A,fla,I,a,191,1,733.5999999046326,601536.1999998093,9082,WL,C,9.0
5,12.217000007629395,learn,60000.0,Fri May 29 2026 15:24:13 GMT-0400 (Eastern Daylight Time),602469.8999996185,A,flag,I,g,183,1,933.6999998092651,601536.1999998093,9082,WL,C,9.0
5,13.033999919891357,learn,60000.0,Fri May 29 2026 15:24:13 GMT-0400 (Eastern Daylight Time),603286.0999999046,A,flagenter,I,enter,797,1,1749.9000000953674,601536.1999998093,9082,WL,C,9.0
5,14.800999879837036,learn,60000.0,Fri May 29 2026 15:24:13 GMT-0400 (Eastern Daylight Time),605053.2999997139,A,l,I,l,1746,1,1766.7999997138977,603286.5,9082,WL,C,10.0
5,14.883999824523926,learn,60000.0,Fri May 29 2026 15:24:13 GMT-0400 (Eastern Daylight Time),605136.2999997139,A,le,I,e,72,1,1849.7999997138977,603286.5,9082,WL,C,10.0
5,15.066999912261963,learn,60000.0,Fri May 29 2026 15:24:13 GMT-0400 (Eastern Daylight Time),605319.7999997139,A,let,I,t,163,1,2033.2999997138977,603286.5,9082,WL,C,10.0
5,15.250999927520752,learn,60000.0,Fri May 29 2026 15:24:13 GMT-0400 (Eastern Daylight Time),605503.1999998093,A,lett,I,t,157,1,2216.699999809265,603286.5,9082,WL,C,10.0
5,15.366999864578247,learn,60000.0,Fri May 29 2026 15:24:13 GMT-0400 (Eastern Daylight Time),605619.6999998093,A,lette,I,e,102,1,2333.199999809265,603286.5,9082,WL,C,10.0
5,15.467000007629395,learn,60000.0,Fri May 29 2026 15:24:13 GMT-0400 (Eastern Daylight Time),605719.5999999046,A,letter,I,r,72,1,2433.0999999046326,603286.5,9082,WL,C,10.0
5,15.699999809265137,learn,60000.0,Fri May 29 2026 15:24:13 GMT-0400 (Eastern Daylight Time),605952.5999999046,A,letterenter,I,enter,216,1,2666.0999999046326,603286.5,9082,WL,C,10.0
5,16.050999879837036,learn,60000.0,Fri May 29 2026 15:24:13 GMT-0400 (Eastern Daylight Time),606303.3999996185,A,c,I,c,344,1,350.3999996185303,605953.0,9082,WL,C,11.0
5,16.16699981689453,learn,60000.0,Fri May 29 2026 15:24:13 GMT-0400 (Eastern Daylight Time),606419.7999997139,A,co,I,o,101,1,466.7999997138977,605953.0,9082,WL,C,11.0
5,16.366999864578247,learn,60000.0,Fri May 29 2026 15:24:13 GMT-0400 (Eastern Daylight Time),606619.7999997139,A,cor,I,r,175,1,666.7999997138977,605953.0,9082,WL,C,11.0
5,16.483999967575073,learn,60000.0,Fri May 29 2026 15:24:13 GMT-0400 (Eastern Daylight Time),606736.2999997139,A,corn,I,n,98,1,783.2999997138977,605953.0,9082,WL,C,11.0
5,17.116999864578247,learn,60000.0,Fri May 29 2026 15:24:13 GMT-0400 (Eastern Daylight Time),607369.3999996185,A,cornenter,I,enter,603,1,1416.3999996185303,605953.0,9082,WL,C,11.0
5,17.383999824523926,learn,60000.0,Fri May 29 2026 15:24:13 GMT-0400 (Eastern Daylight Time),607636.5,A,n,I,n,255,1,266.7000002861023,607369.7999997139,9082,WL,C,12.0
5,17.58399987220764,learn,60000.0,Fri May 29 2026 15:24:13 GMT-0400 (Eastern Daylight Time),607836.3999996185,A,na,I,a,176,1,466.59999990463257,607369.7999997139,9082,WL,C,12.0
5,17.66699981689453,learn,60000.0,Fri May 29 2026 15:24:13 GMT-0400 (Eastern Daylight Time),607919.2999997139,A,nai,I,i,62,1,549.5,607369.7999997139,9082,WL,C,12.0
5,17.750999927520752,learn,60000.0,Fri May 29 2026 15:24:13 GMT-0400 (Eastern Daylight Time),608003.0999999046,A,nail,I,l,70,1,633.3000001907349,607369.7999997139,9082,WL,C,12.0
5,18.133999824523926,learn,60000.0,Fri May 29 2026 15:24:13 GMT-0400 (Eastern Daylight Time),608386.0999999046,A,nailenter,I,enter,359,1,1016.3000001907349,607369.7999997139,9082,WL,C,12.0
5,23.616999864578247,learn,60000.0,Fri May 29 2026 15:24:13 GMT-0400 (Eastern Daylight Time),613869.8999996185,A,c,I,c,5462,1,5483.5,608386.3999996185,9082,WL,C,13.0
5,23.950999975204468,learn,60000.0,Fri May 29 2026 15:24:13 GMT-0400 (Eastern Daylight Time),614203.2999997139,A,ca,I,a,312,1,5816.900000095367,608386.3999996185,9082,WL,C,13.0
5,24.116999864578247,learn,60000.0,Fri May 29 2026 15:24:13 GMT-0400 (Eastern Daylight Time),614369.6999998093,A,cat,I,t,152,1,5983.300000190735,608386.3999996185,9082,WL,C,13.0
5,24.33399987220764,learn,60000.0,Fri May 29 2026 15:24:13 GMT-0400 (Eastern Daylight Time),614586.3999996185,A,catt,I,t,195,1,6200.0,608386.3999996185,9082,WL,C,13.0
5,25.26699995994568,learn,60000.0,Fri May 29 2026 15:24:13 GMT-0400 (Eastern Daylight Time),615520.0,A,cattl,I,l,897,1,7133.60000038147,608386.3999996185,9082,WL,C,13.0
5,25.750999927520752,learn,60000.0,Fri May 29 2026 15:24:13 GMT-0400 (Eastern Daylight Time),616003.1999998093,A,cattle,I,e,467,1,7616.800000190735,608386.3999996185,9082,WL,C,13.0
5,26.049999952316284,learn,60000.0,Fri May 29 2026 15:24:13 GMT-0400 (Eastern Daylight Time),616302.6999998093,A,cattleenter,I,enter,272,1,7916.300000190735,608386.3999996185,9082,WL,C,13.0
5,26.283999919891357,learn,60000.0,Fri May 29 2026 15:24:13 GMT-0400 (Eastern Daylight Time),616536.5,A,s,I,s,218,1,233.40000009536743,616303.0999999046,9082,WL,C,14.0
5,26.41699981689453,learn,60000.0,Fri May 29 2026 15:24:13 GMT-0400 (Eastern Daylight Time),616669.8999996185,A,sh,I,h,107,1,366.7999997138977,616303.0999999046,9082,WL,C,14.0
5,26.483999967575073,learn,60000.0,Fri May 29 2026 15:24:13 GMT-0400 (Eastern Daylight Time),616736.2999997139,A,sho,I,o,55,1,433.19999980926514,616303.0999999046,9082,WL,C,14.0
5,26.60099983215332,learn,60000.0,Fri May 29 2026 15:24:13 GMT-0400 (Eastern Daylight Time),616853.0999999046,A,shor,I,r,100,1,550.0,616303.0999999046,9082,WL,C,14.0
5,26.68400001525879,learn,60000.0,Fri May 29 2026 15:24:13 GMT-0400 (Eastern Daylight Time),616936.5999999046,A,shore,I,e,64,1,633.5,616303.0999999046,9082,WL,C,14.0
5,26.901000022888184,learn,60000.0,Fri May 29 2026 15:24:13 GMT-0400 (Eastern Daylight Time),617153.7999997139,A,shoreenter,I,enter,203,1,850.6999998092651,616303.0999999046,9082,WL,C,14.0
5,27.233999967575073,learn,60000.0,Fri May 29 2026 15:24:13 GMT-0400 (Eastern Daylight Time),617486.3999996185,A,b,I,b,310,1,332.2999997138977,617154.0999999046,9082,WL,C,15.0
5,27.43400001525879,learn,60000.0,Fri May 29 2026 15:24:13 GMT-0400 (Eastern Daylight Time),617686.5,A,bo,I,o,182,1,532.4000000953674,617154.0999999046,9082,WL,C,15.0
5,27.651000022888184,learn,60000.0,Fri May 29 2026 15:24:13 GMT-0400 (Eastern Daylight Time),617903.3999996185,A,bod,I,d,204,1,749.2999997138977,617154.0999999046,9082,WL,C,15.0
5,27.816999912261963,learn,60000.0,Fri May 29 2026 15:24:13 GMT-0400 (Eastern Daylight Time),618069.7999997139,A,body,I,y,141,1,915.6999998092651,617154.0999999046,9082,WL,C,15.0
5,28.049999952316284,learn,60000.0,Fri May 29 2026 15:24:13 GMT-0400 (Eastern Daylight Time),618302.6999998093,A,bodyenter,I,enter,207,1,1148.5999999046326,617154.0999999046,9082,WL,C,15.0
6,0.5,distr,59500.0,Fri May 29 2026 15:24:13 GMT-0400 (Eastern Daylight Time),698103.3999996185,B,m,I,m,483,1,499.69999980926514,697603.6999998093,9082,WL,C,1.0
6,0.8830001354217529,distr,59116.99986457825,Fri May 29 2026 15:24:13 GMT-0400 (Eastern Daylight Time),698486.5,B,mo,I,o,362,1,882.8000001907349,697603.6999998093,9082,WL,C,1.0
6,1.0830001831054688,distr,58916.99981689453,Fri May 29 2026 15:24:13 GMT-0400 (Eastern Daylight Time),698686.5,B,mon,I,n,172,1,1082.8000001907349,697603.6999998093,9082,WL,C,1.0
6,1.2160000801086426,distr,58783.99991989136,Fri May 29 2026 15:24:13 GMT-0400 (Eastern Daylight Time),698819.7999997139,B,mone,I,e,118,1,1216.0999999046326,697603.6999998093,9082,WL,C,1.0
6,1.3500001430511475,distr,58649.99985694885,Fri May 29 2026 15:24:13 GMT-0400 (Eastern Daylight Time),698953.1999998093,B,money,I,y,112,1,1349.5,697603.6999998093,9082,WL,C,1.0
6,1.8990001678466797,distr,58100.99983215332,Fri May 29 2026 15:24:13 GMT-0400 (Eastern Daylight Time),699502.7999997139,B,moneyenter,I,enter,523,1,1899.0999999046326,697603.6999998093,9082,WL,C,1.0
6,2.2660000324249268,distr,57733.99996757507,Fri May 29 2026 15:24:13 GMT-0400 (Eastern Daylight Time),699869.8999996185,B,h,I,h,346,1,366.7999997138977,699503.0999999046,9082,WL,C,2.0
6,2.366000175476074,distr,57633.999824523926,Fri May 29 2026 15:24:13 GMT-0400 (Eastern Daylight Time),699969.6999998093,B,ho,I,o,88,1,466.59999990463257,699503.0999999046,9082,WL,C,2.0
6,2.6000001430511475,distr,57399.99985694885,Fri May 29 2026 15:24:13 GMT-0400 (Eastern Daylight Time),700203.1999998093,B,hot,I,t,201,1,700.0999999046326,699503.0999999046,9082,WL,C,2.0
6,2.75,distr,57250.0,Fri May 29 2026 15:24:13 GMT-0400 (Eastern Daylight Time),700353.1999998093,B,hote,I,e,129,1,850.0999999046326,699503.0999999046,9082,WL,C,2.0
6,2.8330001831054688,distr,57166.99981689453,Fri May 29 2026 15:24:13 GMT-0400 (Eastern Daylight Time),700436.5,B,hotel,I,l,65,1,933.4000000953674,699503.0999999046,9082,WL,C,2.0
6,3.0989999771118164,distr,56901.00002288818,Fri May 29 2026 15:24:13 GMT-0400 (Eastern Daylight Time),700702.7999997139,B,hotelenter,I,enter,246,1,1199.6999998092651,699503.0999999046,9082,WL,C,2.0
6,3.383000135421753,distr,56616.99986457825,Fri May 29 2026 15:24:13 GMT-0400 (Eastern Daylight Time),700986.5999999046,B,s,I,s,266,1,283.59999990463257,700703.0,9082,WL,C,3.0
6,3.449000120162964,distr,56550.999879837036,Fri May 29 2026 15:24:13 GMT-0400 (Eastern Daylight Time),701052.8999996185,B,sk,I,k,40,1,349.8999996185303,700703.0,9082,WL,C,3.0
6,3.700000047683716,distr,56299.999952316284,Fri May 29 2026 15:24:13 GMT-0400 (Eastern Daylight Time),701303.2999997139,B,sky,I,y,232,1,600.2999997138977,700703.0,9082,WL,C,3.0
6,5.049000024795532,distr,54950.99997520447,Fri May 29 2026 15:24:13 GMT-0400 (Eastern Daylight Time),702652.7999997139,B,skyenter,I,enter,1324,1,1949.7999997138977,700703.0,9082,WL,C,3.0
6,5.583000183105469,distr,54416.99981689453,Fri May 29 2026 15:24:13 GMT-0400 (Eastern Daylight Time),703186.3999996185,B,d,I,d,524,1,533.2999997138977,702653.0999999046,9082,WL,C,4.0
6,5.75,distr,54250.0,Fri May 29 2026 15:24:13 GMT-0400 (Eastern Daylight Time),703353.1999998093,B,do,I,o,146,1,700.0999999046326,702653.0999999046,9082,WL,C,4.0
6,6.666000127792358,distr,53333.99987220764,Fri May 29 2026 15:24:13 GMT-0400 (Eastern Daylight Time),704269.8999996185,B,dol,I,l,891,1,1616.7999997138977,702653.0999999046,9082,WL,C,4.0
6,6.833000183105469,distr,53166.99981689453,Fri May 29 2026 15:24:13 GMT-0400 (Eastern Daylight Time),704436.5,B,doll,I,l,151,1,1783.4000000953674,702653.0999999046,9082,WL,C,4.0
6,7.016000032424927,distr,52983.99996757507,Fri May 29 2026 15:24:13 GMT-0400 (Eastern Daylight Time),704619.6999998093,B,dolla,I,a,160,1,1966.5999999046326,702653.0999999046,9082,WL,C,4.0
6,7.1000001430511475,distr,52899.99985694885,Fri May 29 2026 15:24:13 GMT-0400 (Eastern Daylight Time),704703.1999998093,B,dollar,I,r,65,1,2050.0999999046326,702653.0999999046,9082,WL,C,4.0
6,9.565999984741211,distr,50434.00001525879,Fri May 29 2026 15:24:13 GMT-0400 (Eastern Daylight Time),707169.3999996185,B,dollarenter,I,enter,2445,1,4516.299999713898,702653.0999999046,9082,WL,C,4.0
6,10.050000190734863,distr,49949.99980926514,Fri May 29 2026 15:24:13 GMT-0400 (Eastern Daylight Time),707653.2999997139,B,v,I,v,471,1,483.59999990463257,707169.6999998093,9082,WL,C,5.0
6,10.200000047683716,distr,49799.999952316284,Fri May 29 2026 15:24:13 GMT-0400 (Eastern Daylight Time),707803.2999997139,B,va,I,a,128,1,633.5999999046326,707169.6999998093,9082,WL,C,5.0
6,10.333000183105469,distr,49666.99981689453,Fri May 29 2026 15:24:13 GMT-0400 (Eastern Daylight Time),707936.2999997139,B,val,I,l,117,1,766.5999999046326,707169.6999998093,9082,WL,C,5.0
6,10.483000040054321,distr,49516.99995994568,Fri May 29 2026 15:24:13 GMT-0400 (Eastern Daylight Time),708086.3999996185,B,vall,I,l,133,1,916.6999998092651,707169.6999998093,9082,WL,C,5.0
6,10.616000175476074,distr,49383.999824523926,Fri May 29 2026 15:24:13 GMT-0400 (Eastern Daylight Time),708219.8999996185,B,valle,I,e,102,1,1050.1999998092651,707169.6999998093,9082,WL,C,5.0
6,10.766000032424927,distr,49233.99996757507,Fri May 29 2026 15:24:13 GMT-0400 (Eastern Daylight Time),708369.8999996185,B,valley,I,y,126,1,1200.1999998092651,707169.6999998093,9082,WL,C,5.0
6,11.116000175476074,distr,48883.999824523926,Fri May 29 2026 15:24:13 GMT-0400 (Eastern Daylight Time),708719.3999996185,B,valleyenter,I,enter,339,1,1549.6999998092651,707169.6999998093,9082,WL,C,5.0
6,11.400000095367432,distr,48599.99990463257,Fri May 29 2026 15:24:13 GMT-0400 (Eastern Daylight Time),709003.1999998093,B,m,I,m,265,1,283.5,708719.6999998093,9082,WL,C,6.0
6,11.565999984741211,distr,48434.00001525879,Fri May 29 2026 15:24:13 GMT-0400 (Eastern Daylight Time),709169.8999996185,B,mo,I,o,152,1,450.19999980926514,708719.6999998093,9082,WL,C,6.0
6,11.683000087738037,distr,48316.99991226196,Fri May 29 2026 15:24:13 GMT-0400 (Eastern Daylight Time),709286.5,B,mot,I,t,99,1,566.8000001907349,708719.6999998093,9082,WL,C,6.0
6,11.815999984741211,distr,48184.00001525879,Fri May 29 2026 15:24:13 GMT-0400 (Eastern Daylight Time),709419.8999996185,B,moth,I,h,109,1,700.1999998092651,708719.6999998093,9082,WL,C,6.0
6,12.016000032424927,distr,47983.99996757507,Fri May 29 2026 15:24:13 GMT-0400 (Eastern Daylight Time),709620.0,B,mothe,I,e,176,1,900.3000001907349,708719.6999998093,9082,WL,C,6.0
6,12.100000143051147,distr,47899.99985694885,Fri May 29 2026 15:24:13 GMT-0400 (Eastern Daylight Time),709703.1999998093,B,mother,I,r,65,1,983.5,708719.6999998093,9082,WL,C,6.0
6,12.432000160217285,distr,47567.999839782715,Fri May 29 2026 15:24:13 GMT-0400 (Eastern Daylight Time),710036.0,B,motherenter,I,enter,308,1,1316.3000001907349,708719.6999998093,9082,WL,C,6.0
6,13.266000032424927,distr,46733.99996757507,Fri May 29 2026 15:24:13 GMT-0400 (Eastern Daylight Time),710870.0,B,c,I,c,821,1,833.7000002861023,710036.2999997139,9082,WL,C,7.0
6,13.366000175476074,distr,46633.999824523926,Fri May 29 2026 15:24:13 GMT-0400 (Eastern Daylight Time),710969.7999997139,B,ch,I,h,79,1,933.5,710036.2999997139,9082,WL,C,7.0
6,13.550000190734863,distr,46449.99980926514,Fri May 29 2026 15:24:13 GMT-0400 (Eastern Daylight Time),711153.1999998093,B,chr,I,r,173,1,1116.9000000953674,710036.2999997139,9082,WL,C,7.0
6,14.0,distr,46000.0,Fri May 29 2026 15:24:13 GMT-0400 (Eastern Daylight Time),711603.2999997139,B,ch,I,backspace,435,1,1567.0,710036.2999997139,9082,WL,C,7.0
6,14.183000087738037,distr,45816.99991226196,Fri May 29 2026 15:24:13 GMT-0400 (Eastern Daylight Time),711786.5999999046,B,c,I,backspace,159,1,1750.3000001907349,710036.2999997139,9082,WL,C,7.0
6,14.315999984741211,distr,45684.00001525879,Fri May 29 2026 15:24:13 GMT-0400 (Eastern Daylight Time),711919.5999999046,B,,I,backspace,121,1,1883.3000001907349,710036.2999997139,9082,WL,C,7.0
6,14.633000135421753,distr,45366.99986457825,Fri May 29 2026 15:24:13 GMT-0400 (Eastern Daylight Time),712236.5999999046,B,c,I,c,291,1,2200.300000190735,710036.2999997139,9082,WL,C,7.0
6,15.100000143051147,distr,44899.99985694885,Fri May 29 2026 15:24:13 GMT-0400 (Eastern Daylight Time),712703.5,B,,I,backspace,456,1,2667.2000002861023,710036.2999997139,9082,WL,C,7.0
6,15.25,distr,44750.0,Fri May 29 2026 15:24:13 GMT-0400 (Eastern Daylight Time),712853.1999998093,B,,I,backspace,135,1,2816.9000000953674,710036.2999997139,9082,WL,C,7.0
6,15.299000024795532,distr,44700.99997520447,Fri May 29 2026 15:24:13 GMT-0400 (Eastern Daylight Time),712902.7999997139,B,w,I,w,30,1,2866.5,710036.2999997139,9082,WL,C,7.0
6,15.516000032424927,distr,44483.99996757507,Fri May 29 2026 15:24:13 GMT-0400 (Eastern Daylight Time),713119.8999996185,B,wi,I,i,194,1,3083.5999999046326,710036.2999997139,9082,WL,C,7.0
6,15.650000095367432,distr,44349.99990463257,Fri May 29 2026 15:24:13 GMT-0400 (Eastern Daylight Time),713253.2999997139,B,win,I,n,117,1,3217.0,710036.2999997139,9082,WL,C,7.0
6,15.766000032424927,distr,44233.99996757507,Fri May 29 2026 15:24:13 GMT-0400 (Eastern Daylight Time),713369.8999996185,B,wint,I,t,94,1,3333.5999999046326,710036.2999997139,9082,WL,C,7.0
6,15.916000127792358,distr,44083.99987220764,Fri May 29 2026 15:24:13 GMT-0400 (Eastern Daylight Time),713519.8999996185,B,winte,I,e,130,1,3483.5999999046326,710036.2999997139,9082,WL,C,7.0
6,16.0,distr,44000.0,Fri May 29 2026 15:24:13 GMT-0400 (Eastern Daylight Time),713603.1999998093,B,winter,I,r,67,1,3566.9000000953674,710036.2999997139,9082,WL,C,7.0
6,17.499000072479248,distr,42500.99992752075,Fri May 29 2026 15:24:13 GMT-0400 (Eastern Daylight Time),715102.7999997139,B,winterenter,I,enter,1473,1,5066.5,710036.2999997139,9082,WL,C,7.0
6,25.83300018310547,distr,34166.99981689453,Fri May 29 2026 15:24:13 GMT-0400 (Eastern Daylight Time),723436.5999999046,B,b,I,b,8314,1,8333.5,715103.0999999046,9082,WL,C,8.0
6,26.050000190734863,distr,33949.99980926514,Fri May 29 2026 15:24:13 GMT-0400 (Eastern Daylight Time),723653.1999998093,B,bu,I,u,200,1,8550.099999904633,715103.0999999046,9082,WL,C,8.0
6,26.216000080108643,distr,33783.99991989136,Fri May 29 2026 15:24:13 GMT-0400 (Eastern Daylight Time),723819.8999996185,B,but,I,t,136,1,8716.799999713898,715103.0999999046,9082,WL,C,8.0
6,26.366000175476074,distr,33633.999824523926,Fri May 29 2026 15:24:13 GMT-0400 (Eastern Daylight Time),723969.8999996185,B,butt,I,t,128,1,8866.799999713898,715103.0999999046,9082,WL,C,8.0
6,26.550000190734863,distr,33449.99980926514,Fri May 29 2026 15:24:13 GMT-0400 (Eastern Daylight Time),724153.3999996185,B,butte,I,e,154,1,9050.299999713898,715103.0999999046,9082,WL,C,8.0
6,26.616000175476074,distr,33383.999824523926,Fri May 29 2026 15:24:13 GMT-0400 (Eastern Daylight Time),724219.5999999046,B,butter,I,r,41,1,9116.5,715103.0999999046,9082,WL,C,8.0
6,26.848999977111816,distr,33151.00002288818,Fri May 29 2026 15:24:13 GMT-0400 (Eastern Daylight Time),724452.7999997139,B,butterenter,I,enter,217,1,9349.699999809265,715103.0999999046,9082,WL,C,8.0
6,27.850000143051147,distr,32149.999856948853,Fri May 29 2026 15:24:13 GMT-0400 (Eastern Daylight Time),725453.1999998093,B,h,I,h,980,1,1000.0999999046326,724453.0999999046,9082,WL,C,9.0
6,28.0,distr,32000.0,Fri May 29 2026 15:24:13 GMT-0400 (Eastern Daylight Time),725603.0999999046,B,ha,I,a,133,1,1150.0,724453.0999999046,9082,WL,C,9.0
6,28.200000047683716,distr,31799.999952316284,Fri May 29 2026 15:24:13 GMT-0400 (Eastern Daylight Time),725803.1999998093,B,hal,I,l,177,1,1350.0999999046326,724453.0999999046,9082,WL,C,9.0
6,28.366000175476074,distr,31633.999824523926,Fri May 29 2026 15:24:13 GMT-0400 (Eastern Daylight Time),725969.8999996185,B,hall,I,l,145,1,1516.7999997138977,724453.0999999046,9082,WL,C,9.0
6,28.66600012779236,distr,31333.99987220764,Fri May 29 2026 15:24:13 GMT-0400 (Eastern Daylight Time),726269.5,B,hallenter,I,enter,264,1,1816.4000000953674,724453.0999999046,9082,WL,C,9.0
6,29.032999992370605,distr,30967.000007629395,Fri May 29 2026 15:24:13 GMT-0400 (Eastern Daylight Time),726636.5999999046,B,d,I,d,347,1,366.80000019073486,726269.7999997139,9082,WL,C,10.0
6,29.133000135421753,distr,30866.999864578247,Fri May 29 2026 15:24:13 GMT-0400 (Eastern Daylight Time),726736.3999996185,B,di,I,i,85,1,466.59999990463257,726269.7999997139,9082,WL,C,10.0
6,29.25,distr,30750.0,Fri May 29 2026 15:24:13 GMT-0400 (Eastern Daylight Time),726853.2999997139,B,dia,I,a,101,1,583.5,726269.7999997139,9082,WL,C,10.0
6,29.433000087738037,distr,30566.999912261963,Fri May 29 2026 15:24:13 GMT-0400 (Eastern Daylight Time),727036.6999998093,B,diam,I,m,150,1,766.9000000953674,726269.7999997139,9082,WL,C,10.0
6,29.600000143051147,distr,30399.999856948853,Fri May 29 2026 15:24:13 GMT-0400 (Eastern Daylight Time),727203.2999997139,B,diamo,I,o,143,1,933.5,726269.7999997139,9082,WL,C,10.0
6,29.75,distr,30250.0,Fri May 29 2026 15:24:13 GMT-0400 (Eastern Daylight Time),727353.2999997139,B,diamon,I,n,120,1,1083.5,726269.7999997139,9082,WL,C,10.0
6,29.91600012779236,distr,30083.99987220764,Fri May 29 2026 15:24:13 GMT-0400 (Eastern Daylight Time),727519.5,B,diamond,I,d,156,1,1249.7000002861023,726269.7999997139,9082,WL,C,10.0
6,30.299000024795532,distr,29700.999975204468,Fri May 29 2026 15:24:13 GMT-0400 (Eastern Daylight Time),727902.7999997139,B,diamondenter,I,enter,348,1,1633.0,726269.7999997139,9082,WL,C,10.0
6,36.282999992370605,distr,23717.000007629395,Fri May 29 2026 15:24:13 GMT-0400 (Eastern Daylight Time),733886.5999999046,B,f,I,f,5962,1,5983.400000095367,727903.1999998093,9082,WL,C,11.0
6,36.366000175476074,distr,23633.999824523926,Fri May 29 2026 15:24:13 GMT-0400 (Eastern Daylight Time),733969.8999996185,B,fo,I,o,70,1,6066.699999809265,727903.1999998093,9082,WL,C,11.0
6,36.48300004005432,distr,23516.99995994568,Fri May 29 2026 15:24:13 GMT-0400 (Eastern Daylight Time),734086.5,B,for,I,r,100,1,6183.300000190735,727903.1999998093,9082,WL,C,11.0
6,36.616000175476074,distr,23383.999824523926,Fri May 29 2026 15:24:13 GMT-0400 (Eastern Daylight Time),734219.7999997139,B,fore,I,e,103,1,6316.599999904633,727903.1999998093,9082,WL,C,11.0
6,36.782999992370605,distr,23217.000007629395,Fri May 29 2026 15:24:13 GMT-0400 (Eastern Daylight Time),734386.8999996185,B,fores,I,s,143,1,6483.699999809265,727903.1999998093,9082,WL,C,11.0
6,36.96600008010864,distr,23033.999919891357,Fri May 29 2026 15:24:13 GMT-0400 (Eastern Daylight Time),734569.8999996185,B,forest,I,t,165,1,6666.699999809265,727903.1999998093,9082,WL,C,11.0
6,37.23200011253357,distr,22767.99988746643,Fri May 29 2026 15:24:13 GMT-0400 (Eastern Daylight Time),734836.0,B,forestenter,I,enter,249,1,6932.800000190735,727903.1999998093,9082,WL,C,11.0
6,41.25,distr,18750.0,Fri May 29 2026 15:24:13 GMT-0400 (Eastern Daylight Time),738853.2999997139,B,p,I,p,4004,1,4016.9000000953674,734836.3999996185,9082,WL,C,12.0
6,41.46600008010864,distr,18533.999919891357,Fri May 29 2026 15:24:13 GMT-0400 (Eastern Daylight Time),739069.8999996185,B,pl,I,l,191,1,4233.5,734836.3999996185,9082,WL,C,12.0
6,41.68300008773804,distr,18316.999912261963,Fri May 29 2026 15:24:13 GMT-0400 (Eastern Daylight Time),739286.5999999046,B,pla,I,a,198,1,4450.200000286102,734836.3999996185,9082,WL,C,12.0
6,41.83300018310547,distr,18166.99981689453,Fri May 29 2026 15:24:13 GMT-0400 (Eastern Daylight Time),739436.5999999046,B,plan,I,n,126,1,4600.200000286102,734836.3999996185,9082,WL,C,12.0
6,42.23300004005432,distr,17766.99995994568,Fri May 29 2026 15:24:13 GMT-0400 (Eastern Daylight Time),739836.5999999046,B,plant,I,t,376,1,5000.200000286102,734836.3999996185,9082,WL,C,12.0
6,42.73300004005432,distr,17266.99995994568,Fri May 29 2026 15:24:13 GMT-0400 (Eastern Daylight Time),740336.0,B,plantenter,I,enter,488,1,5499.60000038147,734836.3999996185,9082,WL,C,12.0
6,44.282999992370605,distr,15717.000007629395,Fri May 29 2026 15:24:13 GMT-0400 (Eastern Daylight Time),741886.6999998093,B,t,I,t,1528,1,1550.3000001907349,740336.3999996185,9082,WL,C,13.0
6,44.348999977111816,distr,15651.000022888184,Fri May 29 2026 15:24:13 GMT-0400 (Eastern Daylight Time),741953.0,B,to,I,o,53,1,1616.6000003814697,740336.3999996185,9082,WL,C,13.0
6,44.5,distr,15500.0,Fri May 29 2026 15:24:13 GMT-0400 (Eastern Daylight Time),742103.2999997139,B,too,I,o,132,1,1766.9000000953674,740336.3999996185,9082,WL,C,13.0
6,44.73300004005432,distr,15266.999959945679,Fri May 29 2026 15:24:13 GMT-0400 (Eastern Daylight Time),742336.2999997139,B,tool,I,l,212,1,1999.9000000953674,740336.3999996185,9082,WL,C,13.0
6,45.06599998474121,distr,14934.000015258789,Fri May 29 2026 15:24:13 GMT-0400 (Eastern Daylight Time),742669.3999996185,B,toolenter,I,enter,306,1,2333.0,740336.3999996185,9082,WL,C,13.0
6,51.06599998474121,distr,8934.000015258789,Fri May 29 2026 15:24:13 GMT-0400 (Eastern Daylight Time),748670.0,B,y,I,y,5979,1,6000.300000190735,742669.6999998093,9082,WL,C,14.0
6,51.18300008773804,distr,8816.999912261963,Fri May 29 2026 15:24:13 GMT-0400 (Eastern Daylight Time),748786.5999999046,B,ya,I,a,102,1,6116.900000095367,742669.6999998093,9082,WL,C,14.0
6,51.35000014305115,distr,8649.999856948853,Fri May 29 2026 15:24:13 GMT-0400 (Eastern Daylight Time),748953.1999998093,B,yaw,I,w,137,1,6283.5,742669.6999998093,9082,WL,C,14.0
6,51.58300018310547,distr,8416.999816894531,Fri May 29 2026 15:24:13 GMT-0400 (Eastern Daylight Time),749186.5999999046,B,yawn,I,n,219,1,6516.900000095367,742669.6999998093,9082,WL,C,14.0
6,51.950000047683716,distr,8049.999952316284,Fri May 29 2026 15:24:13 GMT-0400 (Eastern Daylight Time),749553.8999996185,B,yawnenter,I,enter,355,1,6884.199999809265,742669.6999998093,9082,WL,C,14.0
6,60.01700019836426,distr,-17.000198364257812,Fri May 29 2026 15:24:13 GMT-0400 (Eastern Daylight Time),757620.0999999046,B,None,I,None,8059,1,8065.700000286102,749554.3999996185,9082,WL,C,15.0
7,2.7170000076293945,immed,57282.999992370605,Fri May 29 2026 15:24:13 GMT-0400 (Eastern Daylight Time),771803.2999997139,A,t,I,t,2695,1,2716.2999997138977,769087.0,9082,WL,C,1.0
7,2.817000150680542,immed,57182.99984931946,Fri May 29 2026 15:24:13 GMT-0400 (Eastern Daylight Time),771903.1999998093,A,to,I,o,73,1,2816.199999809265,769087.0,9082,WL,C,1.0
7,2.950000047683716,immed,57049.999952316284,Fri May 29 2026 15:24:13 GMT-0400 (Eastern Daylight Time),772036.6999998093,A,tow,I,w,110,1,2949.699999809265,769087.0,9082,WL,C,1.0
7,3.0829999446868896,immed,56917.00005531311,Fri May 29 2026 15:24:13 GMT-0400 (Eastern Daylight Time),772170.0999999046,A,towe,I,e,103,1,3083.0999999046326,769087.0,9082,WL,C,1.0
7,3.1500000953674316,immed,56849.99990463257,Fri May 29 2026 15:24:13 GMT-0400 (Eastern Daylight Time),772236.5999999046,A,tower,I,r,43,1,3149.5999999046326,769087.0,9082,WL,C,1.0
7,5.049999952316284,immed,54950.000047683716,Fri May 29 2026 15:24:13 GMT-0400 (Eastern Daylight Time),774136.0999999046,A,towerenter,I,enter,1871,1,5049.099999904633,769087.0,9082,WL,C,1.0
7,5.650000095367432,immed,54349.99990463257,Fri May 29 2026 15:24:13 GMT-0400 (Eastern Daylight Time),774736.3999996185,A,w,I,w,593,1,600.0,774136.3999996185,9082,WL,C,2.0
7,5.83299994468689,immed,54167.00005531311,Fri May 29 2026 15:24:13 GMT-0400 (Eastern Daylight Time),774920.0,A,wh,I,h,164,1,783.6000003814697,774136.3999996185,9082,WL,C,2.0
7,5.983000040054321,immed,54016.99995994568,Fri May 29 2026 15:24:13 GMT-0400 (Eastern Daylight Time),775070.0,A,whe,I,e,123,1,933.6000003814697,774136.3999996185,9082,WL,C,2.0
7,6.150000095367432,immed,53849.99990463257,Fri May 29 2026 15:24:13 GMT-0400 (Eastern Daylight Time),775236.5999999046,A,whea,I,a,151,1,1100.2000002861023,774136.3999996185,9082,WL,C,2.0
7,6.299999952316284,immed,53700.000047683716,Fri May 29 2026 15:24:13 GMT-0400 (Eastern Daylight Time),775386.5999999046,A,wheat,I,t,119,1,1250.2000002861023,774136.3999996185,9082,WL,C,2.0
7,6.483000040054321,immed,53516.99995994568,Fri May 29 2026 15:24:13 GMT-0400 (Eastern Daylight Time),775569.5,A,wheatenter,I,enter,159,1,1433.1000003814697,774136.3999996185,9082,WL,C,2.0
7,6.933000087738037,immed,53066.99991226196,Fri May 29 2026 15:24:13 GMT-0400 (Eastern Daylight Time),776020.0,A,q,I,q,439,1,450.2000002861023,775569.7999997139,9082,WL,C,3.0
7,7.08299994468689,immed,52917.00005531311,Fri May 29 2026 15:24:13 GMT-0400 (Eastern Daylight Time),776170.0,A,qu,I,u,129,1,600.2000002861023,775569.7999997139,9082,WL,C,3.0
7,7.233000040054321,immed,52766.99995994568,Fri May 29 2026 15:24:13 GMT-0400 (Eastern Daylight Time),776319.6999998093,A,que,I,e,132,1,749.9000000953674,775569.7999997139,9082,WL,C,3.0
7,7.41700005531311,immed,52582.99994468689,Fri May 29 2026 15:24:13 GMT-0400 (Eastern Daylight Time),776503.2999997139,A,quee,I,e,163,1,933.5,775569.7999997139,9082,WL,C,3.0
7,7.58299994468689,immed,52417.00005531311,Fri May 29 2026 15:24:13 GMT-0400 (Eastern Daylight Time),776670.0,A,queen,I,n,133,1,1100.2000002861023,775569.7999997139,9082,WL,C,3.0
7,7.883000135421753,immed,52116.99986457825,Fri May 29 2026 15:24:13 GMT-0400 (Eastern Daylight Time),776969.5999999046,A,queenenter,I,enter,277,1,1399.8000001907349,775569.7999997139,9082,WL,C,3.0
7,10.717000007629395,immed,49282.999992370605,Fri May 29 2026 15:24:13 GMT-0400 (Eastern Daylight Time),779803.2999997139,A,s,I,s,2815,1,2833.5,776969.7999997139,9082,WL,C,4.0
7,10.850000143051147,immed,49149.99985694885,Fri May 29 2026 15:24:13 GMT-0400 (Eastern Daylight Time),779936.6999998093,A,su,I,u,120,1,2966.9000000953674,776969.7999997139,9082,WL,C,4.0
7,11.117000102996826,immed,48882.999897003174,Fri May 29 2026 15:24:13 GMT-0400 (Eastern Daylight Time),780203.2999997139,A,sug,I,g,234,1,3233.5,776969.7999997139,9082,WL,C,4.0
7,11.350000143051147,immed,48649.99985694885,Fri May 29 2026 15:24:13 GMT-0400 (Eastern Daylight Time),780436.5999999046,A,suga,I,a,217,1,3466.800000190735,776969.7999997139,9082,WL,C,4.0
7,11.467000007629395,immed,48532.999992370605,Fri May 29 2026 15:24:13 GMT-0400 (Eastern Daylight Time),780553.1999998093,A,sugar,I,r,96,1,3583.4000000953674,776969.7999997139,9082,WL,C,4.0
7,11.83299994468689,immed,48167.00005531311,Fri May 29 2026 15:24:13 GMT-0400 (Eastern Daylight Time),780919.5999999046,A,sugarenter,I,enter,346,1,3949.800000190735,776969.7999997139,9082,WL,C,4.0
7,12.766999959945679,immed,47233.00004005432,Fri May 29 2026 15:24:13 GMT-0400 (Eastern Daylight Time),781853.2999997139,A,b,I,b,913,1,933.4000000953674,780919.8999996185,9082,WL,C,5.0
7,12.950000047683716,immed,47049.999952316284,Fri May 29 2026 15:24:13 GMT-0400 (Eastern Daylight Time),782036.7999997139,A,bo,I,o,168,1,1116.9000000953674,780919.8999996185,9082,WL,C,5.0
7,13.299999952316284,immed,46700.000047683716,Fri May 29 2026 15:24:13 GMT-0400 (Eastern Daylight Time),782386.5999999046,A,boy,I,y,326,1,1466.7000002861023,780919.8999996185,9082,WL,C,5.0
7,13.683000087738037,immed,46316.99991226196,Fri May 29 2026 15:24:13 GMT-0400 (Eastern Daylight Time),782769.5,A,boyenter,I,enter,367,1,1849.6000003814697,780919.8999996185,9082,WL,C,5.0
7,14.08299994468689,immed,45917.00005531311,Fri May 29 2026 15:24:13 GMT-0400 (Eastern Daylight Time),783170.0,A,h,I,h,391,1,400.2000002861023,782769.7999997139,9082,WL,C,6.0
7,14.233000040054321,immed,45766.99995994568,Fri May 29 2026 15:24:13 GMT-0400 (Eastern Daylight Time),783320.0,A,ho,I,o,131,1,550.2000002861023,782769.7999997139,9082,WL,C,6.0
7,14.41700005531311,immed,45582.99994468689,Fri May 29 2026 15:24:13 GMT-0400 (Eastern Daylight Time),783503.2999997139,A,hom,I,m,171,1,733.5,782769.7999997139,9082,WL,C,6.0
7,14.549999952316284,immed,45450.000047683716,Fri May 29 2026 15:24:13 GMT-0400 (Eastern Daylight Time),783636.5999999046,A,home,I,e,117,1,866.8000001907349,782769.7999997139,9082,WL,C,6.0
7,14.766000032424927,immed,45233.99996757507,Fri May 29 2026 15:24:13 GMT-0400 (Eastern Daylight Time),783852.7999997139,A,homeenter,I,enter,192,1,1083.0,782769.7999997139,9082,WL,C,6.0
7,15.0,immed,45000.0,Fri May 29 2026 15:24:13 GMT-0400 (Eastern Daylight Time),784086.3999996185,A,d,I,d,219,1,233.19999980926514,783853.1999998093,9082,WL,C,7.0
7,15.100000143051147,immed,44899.99985694885,Fri May 29 2026 15:24:13 GMT-0400 (Eastern Daylight Time),784186.5999999046,A,do,I,o,79,1,333.40000009536743,783853.1999998093,9082,WL,C,7.0
7,15.233000040054321,immed,44766.99995994568,Fri May 29 2026 15:24:13 GMT-0400 (Eastern Daylight Time),784320.0999999046,A,doc,I,c,107,1,466.90000009536743,783853.1999998093,9082,WL,C,7.0
7,15.483000040054321,immed,44516.99995994568,Fri May 29 2026 15:24:13 GMT-0400 (Eastern Daylight Time),784570.0,A,doct,I,t,220,1,716.8000001907349,783853.1999998093,9082,WL,C,7.0
7,15.650000095367432,immed,44349.99990463257,Fri May 29 2026 15:24:13 GMT-0400 (Eastern Daylight Time),784736.5,A,docto,I,o,155,1,883.3000001907349,783853.1999998093,9082,WL,C,7.0
7,15.867000102996826,immed,44132.999897003174,Fri May 29 2026 15:24:13 GMT-0400 (Eastern Daylight Time),784953.0999999046,A,doctor,I,r,197,1,1099.9000000953674,783853.1999998093,9082,WL,C,7.0
7,16.365999937057495,immed,43634.000062942505,Fri May 29 2026 15:24:13 GMT-0400 (Eastern Daylight Time),785452.8999996185,A,doctorenter,I,enter,473,1,1599.6999998092651,783853.1999998093,9082,WL,C,7.0
7,16.617000102996826,immed,43382.999897003174,Fri May 29 2026 15:24:13 GMT-0400 (Eastern Daylight Time),785703.3999996185,A,c,I,c,235,1,250.19999980926514,785453.1999998093,9082,WL,C,8.0
7,16.76699995994568,immed,43233.00004005432,Fri May 29 2026 15:24:13 GMT-0400 (Eastern Daylight Time),785853.2999997139,A,ca,I,a,125,1,400.09999990463257,785453.1999998093,9082,WL,C,8.0
7,16.850000143051147,immed,43149.99985694885,Fri May 29 2026 15:24:13 GMT-0400 (Eastern Daylight Time),785936.2999997139,A,cam,I,m,70,1,483.09999990463257,785453.1999998093,9082,WL,C,8.0
