block_c,block_dur,condition,countdown,datetime,endtime,list,multichar_response,project,response,response_time,session_number,start_end,starttime,subject_id,task,task_vers,trial
,,,,Wed May 28 2025 17:10:16 GMT-0400 (Eastern Daylight Time),,,,I,space,1310,1,,,9019,WL,A,
prac,,0,,Wed May 28 2025 17:10:16 GMT-0400 (Eastern Daylight Time),,NA,b,I,b,2020,1,,,9019,WL,A,1.0
prac,,0,,Wed May 28 2025 17:10:16 GMT-0400 (Eastern Daylight Time),,NA,bo,I,o,362,1,,,9019,WL,A,1.0
prac,,0,,Wed May 28 2025 17:10:16 GMT-0400 (Eastern Daylight Time),,NA,boo,I,o,78,1,,,9019,WL,A,1.0
prac,,0,,Wed May 28 2025 17:10:16 GMT-0400 (Eastern Daylight Time),,NA,boos,I,s,119,1,,,9019,WL,A,1.0
prac,,0,,Wed May 28 2025 17:10:16 GMT-0400 (Eastern Daylight Time),,NA,boost,I,t,75,1,,,9019,WL,A,1.0
prac,,0,,Wed May 28 2025 17:10:16 GMT-0400 (Eastern Daylight Time),,NA,boostenter,I,enter,2349,1,,,9019,WL,A,1.0
1,1.8680000305175781,learn,58131.99996948242,Wed May 28 2025 17:10:16 GMT-0400 (Eastern Daylight Time),121901.0,A,b,I,b,1845,1,1867.5,120033.5,9019,WL,A,1.0
1,2.500999927520752,learn,57499.00007247925,Wed May 28 2025 17:10:16 GMT-0400 (Eastern Daylight Time),122534.39999997616,A,bo,I,o,607,1,2500.899999976158,120033.5,9019,WL,A,1.0
1,2.6510000228881836,learn,57348.99997711182,Wed May 28 2025 17:10:16 GMT-0400 (Eastern Daylight Time),122683.89999997616,A,boo,I,o,125,1,2650.399999976158,120033.5,9019,WL,A,1.0
1,2.867000102996826,learn,57132.999897003174,Wed May 28 2025 17:10:16 GMT-0400 (Eastern Daylight Time),122900.60000002384,A,book,I,k,180,1,2867.100000023842,120033.5,9019,WL,A,1.0
1,3.933000087738037,learn,56066.99991226196,Wed May 28 2025 17:10:16 GMT-0400 (Eastern Daylight Time),123966.69999998808,A,bookenter,I,enter,1046,1,3933.199999988079,120033.5,9019,WL,A,1.0
1,4.700999975204468,learn,55299.00002479553,Wed May 28 2025 17:10:16 GMT-0400 (Eastern Daylight Time),124733.80000001192,A,f,I,f,743,1,766.5,123967.30000001192,9019,WL,A,2.0
1,4.851000070571899,learn,55148.9999294281,Wed May 28 2025 17:10:16 GMT-0400 (Eastern Daylight Time),124883.89999997616,A,fl,I,l,133,1,916.5999999642372,123967.30000001192,9019,WL,A,2.0
1,5.016999959945679,learn,54983.00004005432,Wed May 28 2025 17:10:16 GMT-0400 (Eastern Daylight Time),125050.5,A,flo,I,o,141,1,1083.199999988079,123967.30000001192,9019,WL,A,2.0
1,5.316999912261963,learn,54683.00008773804,Wed May 28 2025 17:10:16 GMT-0400 (Eastern Daylight Time),125350.60000002384,A,flow,I,w,262,1,1383.300000011921,123967.30000001192,9019,WL,A,2.0
1,5.41700005531311,learn,54582.99994468689,Wed May 28 2025 17:10:16 GMT-0400 (Eastern Daylight Time),125450.60000002384,A,flowe,I,e,76,1,1483.300000011921,123967.30000001192,9019,WL,A,2.0
1,5.5,learn,54500.0,Wed May 28 2025 17:10:16 GMT-0400 (Eastern Daylight Time),125533.60000002384,A,flower,I,r,50,1,1566.300000011921,123967.30000001192,9019,WL,A,2.0
1,5.91700005531311,learn,54082.99994468689,Wed May 28 2025 17:10:16 GMT-0400 (Eastern Daylight Time),125950.0,A,flowerenter,I,enter,388,1,1982.699999988079,123967.30000001192,9019,WL,A,2.0
1,6.549999952316284,learn,53450.000047683716,Wed May 28 2025 17:10:16 GMT-0400 (Eastern Daylight Time),126583.60000002384,A,t,I,t,624,1,633.0,125950.60000002384,9019,WL,A,3.0
1,6.7179999351501465,learn,53282.00006484985,Wed May 28 2025 17:10:16 GMT-0400 (Eastern Daylight Time),126750.80000001192,A,tr,I,r,154,1,800.1999999880791,125950.60000002384,9019,WL,A,3.0
1,6.917999982833862,learn,53082.00001716614,Wed May 28 2025 17:10:16 GMT-0400 (Eastern Daylight Time),126950.89999997616,A,tra,I,a,187,1,1000.2999999523163,125950.60000002384,9019,WL,A,3.0
1,7.066999912261963,learn,52933.00008773804,Wed May 28 2025 17:10:16 GMT-0400 (Eastern Daylight Time),127100.5,A,trai,I,i,132,1,1149.8999999761581,125950.60000002384,9019,WL,A,3.0
1,7.184000015258789,learn,52815.99998474121,Wed May 28 2025 17:10:16 GMT-0400 (Eastern Daylight Time),127217.30000001192,A,train,I,n,87,1,1266.699999988079,125950.60000002384,9019,WL,A,3.0
1,7.900000095367432,learn,52099.99990463257,Wed May 28 2025 17:10:16 GMT-0400 (Eastern Daylight Time),127933.39999997616,A,trainenter,I,enter,688,1,1982.7999999523163,125950.60000002384,9019,WL,A,3.0
1,8.849999904632568,learn,51150.00009536743,Wed May 28 2025 17:10:16 GMT-0400 (Eastern Daylight Time),128883.30000001192,A,n,I,n,929,1,949.4000000357628,127933.89999997616,9019,WL,A,4.0
1,9.016999959945679,learn,50983.00004005432,Wed May 28 2025 17:10:16 GMT-0400 (Eastern Daylight Time),129050.39999997616,A,ne,I,e,155,1,1116.5,127933.89999997616,9019,WL,A,4.0
1,9.867000102996826,learn,50132.999897003174,Wed May 28 2025 17:10:16 GMT-0400 (Eastern Daylight Time),129900.19999998808,A,n,I,backspace,814,1,1966.300000011921,127933.89999997616,9019,WL,A,4.0
1,10.0,learn,50000.0,Wed May 28 2025 17:10:16 GMT-0400 (Eastern Daylight Time),130033.69999998808,A,,I,backspace,112,1,2099.800000011921,127933.89999997616,9019,WL,A,4.0
1,11.016999959945679,learn,48983.00004005432,Wed May 28 2025 17:10:16 GMT-0400 (Eastern Daylight Time),131050.30000001192,A,m,I,m,993,1,3116.400000035763,127933.89999997616,9019,WL,A,4.0
1,11.217000007629395,learn,48782.999992370605,Wed May 28 2025 17:10:16 GMT-0400 (Eastern Daylight Time),131250.39999997616,A,me,I,e,176,1,3316.5,127933.89999997616,9019,WL,A,4.0
1,11.450999975204468,learn,48549.00002479553,Wed May 28 2025 17:10:16 GMT-0400 (Eastern Daylight Time),131483.89999997616,A,mea,I,a,216,1,3550.0,127933.89999997616,9019,WL,A,4.0
1,11.617000102996826,learn,48382.999897003174,Wed May 28 2025 17:10:16 GMT-0400 (Eastern Daylight Time),131650.39999997616,A,mead,I,d,143,1,3716.5,127933.89999997616,9019,WL,A,4.0
1,11.801000118255615,learn,48198.999881744385,Wed May 28 2025 17:10:16 GMT-0400 (Eastern Daylight Time),131834.0,A,meado,I,o,161,1,3900.100000023842,127933.89999997616,9019,WL,A,4.0
1,12.200999975204468,learn,47799.00002479553,Wed May 28 2025 17:10:16 GMT-0400 (Eastern Daylight Time),132233.80000001192,A,meadow,I,w,385,1,4299.900000035763,127933.89999997616,9019,WL,A,4.0
1,13.066999912261963,learn,46933.00008773804,Wed May 28 2025 17:10:16 GMT-0400 (Eastern Daylight Time),133100.0,A,meadowenter,I,enter,842,1,5166.100000023842,127933.89999997616,9019,WL,A,4.0
1,13.900000095367432,learn,46099.99990463257,Wed May 28 2025 17:10:16 GMT-0400 (Eastern Daylight Time),133933.30000001192,A,r,I,r,809,1,832.8000000119209,133100.5,9019,WL,A,5.0
1,14.033999919891357,learn,45966.00008010864,Wed May 28 2025 17:10:16 GMT-0400 (Eastern Daylight Time),134067.30000001192,A,ru,I,u,113,1,966.8000000119209,133100.5,9019,WL,A,5.0
1,14.16700005531311,learn,45832.99994468689,Wed May 28 2025 17:10:16 GMT-0400 (Eastern Daylight Time),134200.5,A,rug,I,g,108,1,1100.0,133100.5,9019,WL,A,5.0
1,14.299999952316284,learn,45700.000047683716,Wed May 28 2025 17:10:16 GMT-0400 (Eastern Daylight Time),134333.30000001192,A,rugenter,I,enter,105,1,1232.800000011921,133100.5,9019,WL,A,5.0
1,15.051000118255615,learn,44948.999881744385,Wed May 28 2025 17:10:16 GMT-0400 (Eastern Daylight Time),135083.89999997616,A,h,I,h,736,1,750.0999999642372,134333.80000001192,9019,WL,A,6.0
1,15.200000047683716,learn,44799.999952316284,Wed May 28 2025 17:10:16 GMT-0400 (Eastern Daylight Time),135233.69999998808,A,ha,I,a,133,1,899.8999999761581,134333.80000001192,9019,WL,A,6.0
1,15.533999919891357,learn,44466.00008010864,Wed May 28 2025 17:10:16 GMT-0400 (Eastern Daylight Time),135567.10000002384,A,har,I,r,316,1,1233.300000011921,134333.80000001192,9019,WL,A,6.0
1,16.118000030517578,learn,43881.99996948242,Wed May 28 2025 17:10:16 GMT-0400 (Eastern Daylight Time),136151.0,A,harp,I,p,573,1,1817.199999988079,134333.80000001192,9019,WL,A,6.0
1,16.367000102996826,learn,43632.999897003174,Wed May 28 2025 17:10:16 GMT-0400 (Eastern Daylight Time),136400.0,A,harpenter,I,enter,228,1,2066.199999988079,134333.80000001192,9019,WL,A,6.0
1,16.551000118255615,learn,43448.999881744385,Wed May 28 2025 17:10:16 GMT-0400 (Eastern Daylight Time),136583.89999997616,A,s,I,s,167,1,183.5,136400.39999997616,9019,WL,A,7.0
1,16.717000007629395,learn,43282.999992370605,Wed May 28 2025 17:10:16 GMT-0400 (Eastern Daylight Time),136750.60000002384,A,sa,I,a,131,1,350.2000000476837,136400.39999997616,9019,WL,A,7.0
1,16.867000102996826,learn,43132.999897003174,Wed May 28 2025 17:10:16 GMT-0400 (Eastern Daylight Time),136900.60000002384,A,sal,I,l,116,1,500.2000000476837,136400.39999997616,9019,WL,A,7.0
1,17.08400011062622,learn,42915.99988937378,Wed May 28 2025 17:10:16 GMT-0400 (Eastern Daylight Time),137117.19999998808,A,salt,I,t,200,1,716.8000000119209,136400.39999997616,9019,WL,A,7.0
1,17.26699995994568,learn,42733.00004005432,Wed May 28 2025 17:10:16 GMT-0400 (Eastern Daylight Time),137300.0,A,saltenter,I,enter,150,1,899.6000000238419,136400.39999997616,9019,WL,A,7.0
1,17.500999927520752,learn,42499.00007247925,Wed May 28 2025 17:10:16 GMT-0400 (Eastern Daylight Time),137533.89999997616,A,f,I,f,219,1,233.5999999642372,137300.30000001192,9019,WL,A,8.0
1,17.66700005531311,learn,42332.99994468689,Wed May 28 2025 17:10:16 GMT-0400 (Eastern Daylight Time),137700.39999997616,A,fi,I,i,139,1,400.0999999642372,137300.30000001192,9019,WL,A,8.0
1,17.783999919891357,learn,42216.00008010864,Wed May 28 2025 17:10:16 GMT-0400 (Eastern Daylight Time),137817.19999998808,A,fin,I,n,86,1,516.8999999761581,137300.30000001192,9019,WL,A,8.0
1,17.901000022888184,learn,42098.99997711182,Wed May 28 2025 17:10:16 GMT-0400 (Eastern Daylight Time),137933.89999997616,A,fing,I,g,99,1,633.5999999642372,137300.30000001192,9019,WL,A,8.0
1,18.066999912261963,learn,41933.00008773804,Wed May 28 2025 17:10:16 GMT-0400 (Eastern Daylight Time),138100.60000002384,A,finge,I,e,139,1,800.3000000119209,137300.30000001192,9019,WL,A,8.0
1,18.151000022888184,learn,41848.99997711182,Wed May 28 2025 17:10:16 GMT-0400 (Eastern Daylight Time),138183.89999997616,A,finger,I,r,62,1,883.5999999642372,137300.30000001192,9019,WL,A,8.0
1,18.34999990463257,learn,41650.00009536743,Wed May 28 2025 17:10:16 GMT-0400 (Eastern Daylight Time),138383.39999997616,A,fingerenter,I,enter,177,1,1083.0999999642372,137300.30000001192,9019,WL,A,8.0
1,18.967000007629395,learn,41032.999992370605,Wed May 28 2025 17:10:16 GMT-0400 (Eastern Daylight Time),139000.0,A,l,I,l,607,1,616.1999999880791,138383.80000001192,9019,WL,A,9.0
1,19.217000007629395,learn,40782.999992370605,Wed May 28 2025 17:10:16 GMT-0400 (Eastern Daylight Time),139250.39999997616,A,lo,I,o,237,1,866.5999999642372,138383.80000001192,9019,WL,A,9.0
1,20.01699995994568,learn,39983.00004005432,Wed May 28 2025 17:10:16 GMT-0400 (Eastern Daylight Time),140050.69999998808,A,log,I,g,777,1,1666.8999999761581,138383.80000001192,9019,WL,A,9.0
1,20.200000047683716,learn,39799.999952316284,Wed May 28 2025 17:10:16 GMT-0400 (Eastern Daylight Time),140233.30000001192,A,logenter,I,enter,151,1,1849.5,138383.80000001192,9019,WL,A,9.0
1,20.43400001525879,learn,39565.99998474121,Wed May 28 2025 17:10:16 GMT-0400 (Eastern Daylight Time),140467.19999998808,A,c,I,c,222,1,233.5,140233.69999998808,9019,WL,A,10.0
1,20.6010000705719,learn,39398.9999294281,Wed May 28 2025 17:10:16 GMT-0400 (Eastern Daylight Time),140633.80000001192,A,ch,I,h,151,1,400.10000002384186,140233.69999998808,9019,WL,A,10.0
1,20.783999919891357,learn,39216.00008010864,Wed May 28 2025 17:10:16 GMT-0400 (Eastern Daylight Time),140817.19999998808,A,chi,I,i,161,1,583.5,140233.69999998808,9019,WL,A,10.0
1,20.950000047683716,learn,39049.999952316284,Wed May 28 2025 17:10:16 GMT-0400 (Eastern Daylight Time),140983.60000002384,A,chim,I,m,156,1,749.9000000357628,140233.69999998808,9019,WL,A,10.0
1,21.18400001525879,learn,38815.99998474121,Wed May 28 2025 17:10:16 GMT-0400 (Eastern Daylight Time),141217.39999997616,A,chimn,I,n,210,1,983.6999999880791,140233.69999998808,9019,WL,A,10.0
1,21.316999912261963,learn,38683.00008773804,Wed May 28 2025 17:10:16 GMT-0400 (Eastern Daylight Time),141350.39999997616,A,chimne,I,e,115,1,1116.699999988079,140233.69999998808,9019,WL,A,10.0
1,21.483999967575073,learn,38516.00003242493,Wed May 28 2025 17:10:16 GMT-0400 (Eastern Daylight Time),141517.10000002384,A,chimney,I,y,133,1,1283.4000000357628,140233.69999998808,9019,WL,A,10.0
1,25.51699995994568,learn,34483.00004005432,Wed May 28 2025 17:10:16 GMT-0400 (Eastern Daylight Time),145550.0,A,chimneyenter,I,enter,4014,1,5316.300000011921,140233.69999998808,9019,WL,A,10.0
1,35.467000007629395,learn,24532.999992370605,Wed May 28 2025 17:10:16 GMT-0400 (Eastern Daylight Time),155500.60000002384,A,k,I,k,9938,1,9950.200000047684,145550.39999997616,9019,WL,A,11.0
1,35.901000022888184,learn,24098.999977111816,Wed May 28 2025 17:10:16 GMT-0400 (Eastern Daylight Time),155933.80000001192,A,ke,I,e,406,1,10383.400000035763,145550.39999997616,9019,WL,A,11.0
1,36.43400001525879,learn,23565.99998474121,Wed May 28 2025 17:10:16 GMT-0400 (Eastern Daylight Time),156467.19999998808,A,key,I,y,510,1,10916.800000011921,145550.39999997616,9019,WL,A,11.0
1,37.51699995994568,learn,22483.00004005432,Wed May 28 2025 17:10:16 GMT-0400 (Eastern Daylight Time),157550.0,A,keyenter,I,enter,1057,1,11999.600000023842,145550.39999997616,9019,WL,A,11.0
1,60.01699995994568,learn,-16.99995994567871,Wed May 28 2025 17:10:16 GMT-0400 (Eastern Daylight Time),180050.69999998808,A,None,I,None,22493,1,22500.30000001192,157550.39999997616,9019,WL,A,12.0
2,0.8829998970031738,learn,59117.000102996826,Wed May 28 2025 17:10:16 GMT-0400 (Eastern Daylight Time),255217.39999997616,A,b,I,b,871,1,882.7999999523163,254334.60000002384,9019,WL,A,1.0
2,1.3499999046325684,learn,58650.00009536743,Wed May 28 2025 17:10:16 GMT-0400 (Eastern Daylight Time),255684.0,A,bo,I,o,451,1,1349.3999999761581,254334.60000002384,9019,WL,A,1.0
2,1.5,learn,58500.0,Wed May 28 2025 17:10:16 GMT-0400 (Eastern Daylight Time),255833.89999997616,A,boo,I,o,137,1,1499.2999999523163,254334.60000002384,9019,WL,A,1.0
2,1.815999984741211,learn,58184.00001525879,Wed May 28 2025 17:10:16 GMT-0400 (Eastern Daylight Time),256150.10000002384,A,book,I,k,296,1,1815.5,254334.60000002384,9019,WL,A,1.0
2,2.9489998817443848,learn,57051.000118255615,Wed May 28 2025 17:10:16 GMT-0400 (Eastern Daylight Time),257283.5,A,bookenter,I,enter,1114,1,2948.899999976158,254334.60000002384,9019,WL,A,1.0
2,3.232999801635742,learn,56767.00019836426,Wed May 28 2025 17:10:16 GMT-0400 (Eastern Daylight Time),257567.30000001192,A,f,I,f,268,1,283.30000001192093,257284.0,9019,WL,A,2.0
2,3.4159998893737793,learn,56584.00011062622,Wed May 28 2025 17:10:16 GMT-0400 (Eastern Daylight Time),257750.60000002384,A,fl,I,l,158,1,466.60000002384186,257284.0,9019,WL,A,2.0
2,3.615999937057495,learn,56384.000062942505,Wed May 28 2025 17:10:16 GMT-0400 (Eastern Daylight Time),257950.60000002384,A,flo,I,o,174,1,666.6000000238419,257284.0,9019,WL,A,2.0
2,3.8329999446868896,learn,56167.00005531311,Wed May 28 2025 17:10:16 GMT-0400 (Eastern Daylight Time),258167.39999997616,A,flow,I,w,195,1,883.3999999761581,257284.0,9019,WL,A,2.0
2,3.932999849319458,learn,56067.00015068054,Wed May 28 2025 17:10:16 GMT-0400 (Eastern Daylight Time),258267.19999998808,A,flowe,I,e,77,1,983.1999999880791,257284.0,9019,WL,A,2.0
2,4.015999794006348,learn,55984.00020599365,Wed May 28 2025 17:10:16 GMT-0400 (Eastern Daylight Time),258350.60000002384,A,flower,I,r,64,1,1066.6000000238419,257284.0,9019,WL,A,2.0
2,4.565999984741211,learn,55434.00001525879,Wed May 28 2025 17:10:16 GMT-0400 (Eastern Daylight Time),258900.10000002384,A,flowerenter,I,enter,525,1,1616.1000000238419,257284.0,9019,WL,A,2.0
2,5.25,learn,54750.0,Wed May 28 2025 17:10:16 GMT-0400 (Eastern Daylight Time),259584.0,A,t,I,t,667,1,683.6000000238419,258900.39999997616,9019,WL,A,3.0
2,5.4659998416900635,learn,54534.00015830994,Wed May 28 2025 17:10:16 GMT-0400 (Eastern Daylight Time),259800.69999998808,A,tr,I,r,191,1,900.3000000119209,258900.39999997616,9019,WL,A,3.0
2,5.682999849319458,learn,54317.00015068054,Wed May 28 2025 17:10:16 GMT-0400 (Eastern Daylight Time),260017.30000001192,A,tra,I,a,186,1,1116.9000000357628,258900.39999997616,9019,WL,A,3.0
2,5.848999977111816,learn,54151.00002288818,Wed May 28 2025 17:10:16 GMT-0400 (Eastern Daylight Time),260183.69999998808,A,trai,I,i,155,1,1283.300000011921,258900.39999997616,9019,WL,A,3.0
2,6.065999984741211,learn,53934.00001525879,Wed May 28 2025 17:10:16 GMT-0400 (Eastern Daylight Time),260400.60000002384,A,train,I,n,204,1,1500.2000000476837,258900.39999997616,9019,WL,A,3.0
2,6.665999889373779,learn,53334.00011062622,Wed May 28 2025 17:10:16 GMT-0400 (Eastern Daylight Time),261000.10000002384,A,trainenter,I,enter,580,1,2099.7000000476837,258900.39999997616,9019,WL,A,3.0
2,7.25,learn,52750.0,Wed May 28 2025 17:10:16 GMT-0400 (Eastern Daylight Time),261584.0,A,r,I,r,567,1,583.3999999761581,261000.60000002384,9019,WL,A,4.0
2,7.4659998416900635,learn,52534.00015830994,Wed May 28 2025 17:10:16 GMT-0400 (Eastern Daylight Time),261800.60000002384,A,ru,I,u,203,1,800.0,261000.60000002384,9019,WL,A,4.0
2,7.75,learn,52250.0,Wed May 28 2025 17:10:16 GMT-0400 (Eastern Daylight Time),262084.0,A,rug,I,g,259,1,1083.3999999761581,261000.60000002384,9019,WL,A,4.0
2,8.365999937057495,learn,51634.000062942505,Wed May 28 2025 17:10:16 GMT-0400 (Eastern Daylight Time),262700.1999999881,A,rugenter,I,enter,592,1,1699.5999999642372,261000.60000002384,9019,WL,A,4.0
2,8.83299994468689,learn,51167.00005531311,Wed May 28 2025 17:10:16 GMT-0400 (Eastern Daylight Time),263167.39999997616,A,h,I,h,460,1,466.7999999523163,262700.60000002384,9019,WL,A,5.0
2,9.048999786376953,learn,50951.00021362305,Wed May 28 2025 17:10:16 GMT-0400 (Eastern Daylight Time),263383.60000002384,A,ha,I,a,205,1,683.0,262700.60000002384,9019,WL,A,5.0
2,9.315999984741211,learn,50684.00001525879,Wed May 28 2025 17:10:16 GMT-0400 (Eastern Daylight Time),263650.60000002384,A,har,I,r,244,1,950.0,262700.60000002384,9019,WL,A,5.0
2,9.6489999294281,learn,50351.0000705719,Wed May 28 2025 17:10:16 GMT-0400 (Eastern Daylight Time),263983.6999999881,A,harp,I,p,312,1,1283.0999999642372,262700.60000002384,9019,WL,A,5.0
2,10.348999977111816,learn,49651.00002288818,Wed May 28 2025 17:10:16 GMT-0400 (Eastern Daylight Time),264683.39999997616,A,harpenter,I,enter,685,1,1982.7999999523163,262700.60000002384,9019,WL,A,5.0
2,11.41599988937378,learn,48584.00011062622,Wed May 28 2025 17:10:16 GMT-0400 (Eastern Daylight Time),265750.60000002384,A,s,I,s,1052,1,1066.800000011921,264683.8000000119,9019,WL,A,6.0
2,11.782999992370605,learn,48217.000007629395,Wed May 28 2025 17:10:16 GMT-0400 (Eastern Daylight Time),266117.3000000119,A,sa,I,a,341,1,1433.5,264683.8000000119,9019,WL,A,6.0
2,12.099999904632568,learn,47900.00009536743,Wed May 28 2025 17:10:16 GMT-0400 (Eastern Daylight Time),266434.0,A,sal,I,l,294,1,1750.199999988079,264683.8000000119,9019,WL,A,6.0
2,12.565999984741211,learn,47434.00001525879,Wed May 28 2025 17:10:16 GMT-0400 (Eastern Daylight Time),266900.60000002384,A,salt,I,t,448,1,2216.800000011921,264683.8000000119,9019,WL,A,6.0
2,12.848999977111816,learn,47151.00002288818,Wed May 28 2025 17:10:16 GMT-0400 (Eastern Daylight Time),267183.5,A,saltenter,I,enter,264,1,2499.699999988079,264683.8000000119,9019,WL,A,6.0
2,13.265999794006348,learn,46734.00020599365,Wed May 28 2025 17:10:16 GMT-0400 (Eastern Daylight Time),267600.3000000119,A,r,I,r,408,1,416.5,267183.8000000119,9019,WL,A,7.0
2,13.532999992370605,learn,46467.000007629395,Wed May 28 2025 17:10:16 GMT-0400 (Eastern Daylight Time),267867.1999999881,A,ra,I,a,252,1,683.3999999761581,267183.8000000119,9019,WL,A,7.0
2,13.765999794006348,learn,46234.00020599365,Wed May 28 2025 17:10:16 GMT-0400 (Eastern Daylight Time),268100.6999999881,A,rat,I,t,217,1,916.8999999761581,267183.8000000119,9019,WL,A,7.0
2,13.91599988937378,learn,46084.00011062622,Wed May 28 2025 17:10:16 GMT-0400 (Eastern Daylight Time),268250.6999999881,A,ratt,I,t,127,1,1066.8999999761581,267183.8000000119,9019,WL,A,7.0
2,14.098999977111816,learn,45901.00002288818,Wed May 28 2025 17:10:16 GMT-0400 (Eastern Daylight Time),268433.60000002384,A,rattl,I,l,151,1,1249.800000011921,267183.8000000119,9019,WL,A,7.0
2,14.799999952316284,learn,45200.000047683716,Wed May 28 2025 17:10:16 GMT-0400 (Eastern Daylight Time),269134.0,A,rattle,I,e,681,1,1950.199999988079,267183.8000000119,9019,WL,A,7.0
2,15.215999841690063,learn,44784.00015830994,Wed May 28 2025 17:10:16 GMT-0400 (Eastern Daylight Time),269550.1999999881,A,rattleenter,I,enter,404,1,2366.399999976158,267183.8000000119,9019,WL,A,7.0
2,15.515999794006348,learn,44484.00020599365,Wed May 28 2025 17:10:16 GMT-0400 (Eastern Daylight Time),269850.60000002384,A,b,I,b,282,1,300.2000000476837,269550.39999997616,9019,WL,A,8.0
2,15.699999809265137,learn,44300.00019073486,Wed May 28 2025 17:10:16 GMT-0400 (Eastern Daylight Time),270034.0,A,bu,I,u,161,1,483.60000002384186,269550.39999997616,9019,WL,A,8.0
2,15.982999801635742,learn,44017.00019836426,Wed May 28 2025 17:10:16 GMT-0400 (Eastern Daylight Time),270317.39999997616,A,but,I,t,258,1,767.0,269550.39999997616,9019,WL,A,8.0
2,16.115999937057495,learn,43884.000062942505,Wed May 28 2025 17:10:16 GMT-0400 (Eastern Daylight Time),270450.3000000119,A,butt,I,t,111,1,899.9000000357628,269550.39999997616,9019,WL,A,8.0
2,16.41699981689453,learn,43583.00018310547,Wed May 28 2025 17:10:16 GMT-0400 (Eastern Daylight Time),270750.8000000119,A,butto,I,o,281,1,1200.4000000357628,269550.39999997616,9019,WL,A,8.0
2,16.632999897003174,learn,43367.000102996826,Wed May 28 2025 17:10:16 GMT-0400 (Eastern Daylight Time),270967.3000000119,A,button,I,n,190,1,1416.9000000357628,269550.39999997616,9019,WL,A,8.0
2,16.848999977111816,learn,43151.00002288818,Wed May 28 2025 17:10:16 GMT-0400 (Eastern Daylight Time),271183.5,A,buttonenter,I,enter,197,1,1633.1000000238419,269550.39999997616,9019,WL,A,8.0
2,17.08299994468689,learn,42917.00005531311,Wed May 28 2025 17:10:16 GMT-0400 (Eastern Daylight Time),271417.0,A,k,I,k,215,1,233.19999998807907,271183.8000000119,9019,WL,A,9.0
2,17.265999794006348,learn,42734.00020599365,Wed May 28 2025 17:10:16 GMT-0400 (Eastern Daylight Time),271600.5,A,ke,I,e,171,1,416.69999998807907,271183.8000000119,9019,WL,A,9.0
2,17.448999881744385,learn,42551.000118255615,Wed May 28 2025 17:10:16 GMT-0400 (Eastern Daylight Time),271783.6999999881,A,key,I,y,172,1,599.8999999761581,271183.8000000119,9019,WL,A,9.0
2,17.798999786376953,learn,42201.00021362305,Wed May 28 2025 17:10:16 GMT-0400 (Eastern Daylight Time),272133.5,A,keyenter,I,enter,324,1,949.6999999880791,271183.8000000119,9019,WL,A,9.0
2,18.25,learn,41750.0,Wed May 28 2025 17:10:16 GMT-0400 (Eastern Daylight Time),272584.0,A,g,I,g,433,1,450.10000002384186,272133.89999997616,9019,WL,A,10.0
2,18.432999849319458,learn,41567.00015068054,Wed May 28 2025 17:10:16 GMT-0400 (Eastern Daylight Time),272767.1999999881,A,go,I,o,166,1,633.3000000119209,272133.89999997616,9019,WL,A,10.0
2,18.782999992370605,learn,41217.000007629395,Wed May 28 2025 17:10:16 GMT-0400 (Eastern Daylight Time),273117.3000000119,A,gol,I,l,328,1,983.4000000357628,272133.89999997616,9019,WL,A,10.0
2,19.715999841690063,learn,40284.00015830994,Wed May 28 2025 17:10:16 GMT-0400 (Eastern Daylight Time),274050.6999999881,A,gold,I,d,919,1,1916.800000011921,272133.89999997616,9019,WL,A,10.0
2,20.432999849319458,learn,39567.00015068054,Wed May 28 2025 17:10:16 GMT-0400 (Eastern Daylight Time),274766.8000000119,A,goldenter,I,enter,695,1,2632.900000035763,272133.89999997616,9019,WL,A,10.0
2,20.848999977111816,learn,39151.00002288818,Wed May 28 2025 17:10:16 GMT-0400 (Eastern Daylight Time),275183.6999999881,A,m,I,m,409,1,416.5999999642372,274767.10000002384,9019,WL,A,11.0
2,21.032999992370605,learn,38967.000007629395,Wed May 28 2025 17:10:16 GMT-0400 (Eastern Daylight Time),275367.3000000119,A,me,I,e,165,1,600.1999999880791,274767.10000002384,9019,WL,A,11.0
2,21.265999794006348,learn,38734.00020599365,Wed May 28 2025 17:10:16 GMT-0400 (Eastern Daylight Time),275600.60000002384,A,mea,I,a,212,1,833.5,274767.10000002384,9019,WL,A,11.0
2,21.449999809265137,learn,38550.00019073486,Wed May 28 2025 17:10:16 GMT-0400 (Eastern Daylight Time),275784.0,A,mead,I,d,162,1,1016.8999999761581,274767.10000002384,9019,WL,A,11.0
2,21.699999809265137,learn,38300.00019073486,Wed May 28 2025 17:10:16 GMT-0400 (Eastern Daylight Time),276034.0,A,meado,I,o,228,1,1266.8999999761581,274767.10000002384,9019,WL,A,11.0
2,22.0,learn,38000.0,Wed May 28 2025 17:10:16 GMT-0400 (Eastern Daylight Time),276334.0,A,meadow,I,w,274,1,1566.8999999761581,274767.10000002384,9019,WL,A,11.0
2,22.848999977111816,learn,37151.00002288818,Wed May 28 2025 17:10:16 GMT-0400 (Eastern Daylight Time),277183.5,A,meadowenter,I,enter,831,1,2416.399999976158,274767.10000002384,9019,WL,A,11.0
2,28.83299994468689,learn,31167.00005531311,Wed May 28 2025 17:10:16 GMT-0400 (Eastern Daylight Time),283167.3000000119,A,c,I,c,5967,1,5983.300000011921,277184.0,9019,WL,A,12.0
2,28.965999841690063,learn,31034.000158309937,Wed May 28 2025 17:10:16 GMT-0400 (Eastern Daylight Time),283300.6999999881,A,ch,I,h,108,1,6116.699999988079,277184.0,9019,WL,A,12.0
2,29.09999990463257,learn,30900.00009536743,Wed May 28 2025 17:10:16 GMT-0400 (Eastern Daylight Time),283433.89999997616,A,chi,I,i,120,1,6249.899999976158,277184.0,9019,WL,A,12.0
2,29.282999992370605,learn,30717.000007629395,Wed May 28 2025 17:10:16 GMT-0400 (Eastern Daylight Time),283617.1999999881,A,chim,I,m,154,1,6433.199999988079,277184.0,9019,WL,A,12.0
2,29.816999912261963,learn,30183.000087738037,Wed May 28 2025 17:10:16 GMT-0400 (Eastern Daylight Time),284151.0,A,chimn,I,n,516,1,6967.0,277184.0,9019,WL,A,12.0
2,30.015999794006348,learn,29984.000205993652,Wed May 28 2025 17:10:16 GMT-0400 (Eastern Daylight Time),284350.60000002384,A,chimne,I,e,176,1,7166.600000023842,277184.0,9019,WL,A,12.0
2,30.232999801635742,learn,29767.000198364258,Wed May 28 2025 17:10:16 GMT-0400 (Eastern Daylight Time),284567.10000002384,A,chimney,I,y,182,1,7383.100000023842,277184.0,9019,WL,A,12.0
2,31.41599988937378,learn,28584.00011062622,Wed May 28 2025 17:10:16 GMT-0400 (Eastern Daylight Time),285750.1999999881,A,chimneyenter,I,enter,1165,1,8566.199999988079,277184.0,9019,WL,A,12.0
2,31.732999801635742,learn,28267.000198364258,Wed May 28 2025 17:10:16 GMT-0400 (Eastern Daylight Time),286067.3000000119,A,f,I,f,298,1,316.80000001192093,285750.5,9019,WL,A,13.0
2,31.899999856948853,learn,28100.000143051147,Wed May 28 2025 17:10:16 GMT-0400 (Eastern Daylight Time),286234.0,A,fi,I,i,144,1,483.5,285750.5,9019,WL,A,13.0
2,32.01599979400635,learn,27984.000205993652,Wed May 28 2025 17:10:16 GMT-0400 (Eastern Daylight Time),286350.6999999881,A,fin,I,n,92,1,600.1999999880791,285750.5,9019,WL,A,13.0
2,32.132999897003174,learn,27867.000102996826,Wed May 28 2025 17:10:16 GMT-0400 (Eastern Daylight Time),286467.39999997616,A,fing,I,g,84,1,716.8999999761581,285750.5,9019,WL,A,13.0
2,32.33299994468689,learn,27667.00005531311,Wed May 28 2025 17:10:16 GMT-0400 (Eastern Daylight Time),286667.3000000119,A,finge,I,e,175,1,916.8000000119209,285750.5,9019,WL,A,13.0
2,32.43299984931946,learn,27567.000150680542,Wed May 28 2025 17:10:16 GMT-0400 (Eastern Daylight Time),286767.39999997616,A,finger,I,r,82,1,1016.8999999761581,285750.5,9019,WL,A,13.0
2,32.91599988937378,learn,27084.00011062622,Wed May 28 2025 17:10:16 GMT-0400 (Eastern Daylight Time),287250.10000002384,A,fingerenter,I,enter,457,1,1499.6000000238419,285750.5,9019,WL,A,13.0
2,39.365999937057495,learn,20634.000062942505,Wed May 28 2025 17:10:16 GMT-0400 (Eastern Daylight Time),293700.1999999881,A,a,I,a,6437,1,6449.699999988079,287250.5,9019,WL,A,14.0
2,39.48299980163574,learn,20517.000198364258,Wed May 28 2025 17:10:16 GMT-0400 (Eastern Daylight Time),293817.5,A,ap,I,p,98,1,6567.0,287250.5,9019,WL,A,14.0
2,39.59999990463257,learn,20400.00009536743,Wed May 28 2025 17:10:16 GMT-0400 (Eastern Daylight Time),293934.10000002384,A,app,I,p,89,1,6683.600000023842,287250.5,9019,WL,A,14.0
2,39.79899978637695,learn,20201.000213623047,Wed May 28 2025 17:10:16 GMT-0400 (Eastern Daylight Time),294133.5,A,appl,I,l,166,1,6883.0,287250.5,9019,WL,A,14.0
2,39.93299984931946,learn,20067.000150680542,Wed May 28 2025 17:10:16 GMT-0400 (Eastern Daylight Time),294267.3000000119,A,apple,I,e,115,1,7016.800000011921,287250.5,9019,WL,A,14.0
2,41.93299984931946,learn,18067.000150680542,Wed May 28 2025 17:10:16 GMT-0400 (Eastern Daylight Time),296266.89999997616,A,appleenter,I,enter,1977,1,9016.399999976158,287250.5,9019,WL,A,14.0
2,49.365999937057495,learn,10634.000062942505,Wed May 28 2025 17:10:16 GMT-0400 (Eastern Daylight Time),303700.6999999881,A,l,I,l,7412,1,7433.5,296267.1999999881,9019,WL,A,15.0
2,49.532999992370605,learn,10467.000007629395,Wed May 28 2025 17:10:16 GMT-0400 (Eastern Daylight Time),303867.39999997616,A,lo,I,o,144,1,7600.199999988079,296267.1999999881,9019,WL,A,15.0
2,50.33299994468689,learn,9667.00005531311,Wed May 28 2025 17:10:16 GMT-0400 (Eastern Daylight Time),304667.3000000119,A,log,I,g,776,1,8400.100000023842,296267.1999999881,9019,WL,A,15.0
2,51.16599988937378,learn,8834.00011062622,Wed May 28 2025 17:10:16 GMT-0400 (Eastern Daylight Time),305500.1999999881,A,logenter,I,enter,810,1,9233.0,296267.1999999881,9019,WL,A,15.0
3,0.36700010299682617,learn,59632.999897003174,Wed May 28 2025 17:10:16 GMT-0400 (Eastern Daylight Time),376934.1999999881,A,b,I,b,345,1,367.0,376567.1999999881,9019,WL,A,1.0
3,0.7840001583099365,learn,59215.99984169006,Wed May 28 2025 17:10:16 GMT-0400 (Eastern Daylight Time),377351.0,A,bo,I,o,390,1,783.8000000119209,376567.1999999881,9019,WL,A,1.0
3,0.9340000152587891,learn,59065.99998474121,Wed May 28 2025 17:10:16 GMT-0400 (Eastern Daylight Time),377500.8000000119,A,boo,I,o,134,1,933.6000000238419,376567.1999999881,9019,WL,A,1.0
3,1.1170001029968262,learn,58882.999897003174,Wed May 28 2025 17:10:16 GMT-0400 (Eastern Daylight Time),377684.1999999881,A,book,I,k,150,1,1117.0,376567.1999999881,9019,WL,A,1.0
3,2.0329999923706055,learn,57967.000007629395,Wed May 28 2025 17:10:16 GMT-0400 (Eastern Daylight Time),378600.3000000119,A,bookenter,I,enter,887,1,2033.1000000238419,376567.1999999881,9019,WL,A,1.0
3,2.4670000076293945,learn,57532.999992370605,Wed May 28 2025 17:10:16 GMT-0400 (Eastern Daylight Time),379034.10000002384,A,f,I,f,416,1,433.4000000357628,378600.6999999881,9019,WL,A,2.0
3,2.6000001430511475,learn,57399.99985694885,Wed May 28 2025 17:10:16 GMT-0400 (Eastern Daylight Time),379167.3000000119,A,fl,I,l,113,1,566.6000000238419,378600.6999999881,9019,WL,A,2.0
3,2.7840001583099365,learn,57215.99984169006,Wed May 28 2025 17:10:16 GMT-0400 (Eastern Daylight Time),379350.8000000119,A,flo,I,o,150,1,750.1000000238419,378600.6999999881,9019,WL,A,2.0
3,2.9000000953674316,learn,57099.99990463257,Wed May 28 2025 17:10:16 GMT-0400 (Eastern Daylight Time),379467.39999997616,A,flow,I,w,95,1,866.6999999880791,378600.6999999881,9019,WL,A,2.0
3,2.9839999675750732,learn,57016.00003242493,Wed May 28 2025 17:10:16 GMT-0400 (Eastern Daylight Time),379550.8000000119,A,flowe,I,e,56,1,950.1000000238419,378600.6999999881,9019,WL,A,2.0
3,3.0329999923706055,learn,56967.000007629395,Wed May 28 2025 17:10:16 GMT-0400 (Eastern Daylight Time),379600.1999999881,A,flower,I,r,21,1,999.5,378600.6999999881,9019,WL,A,2.0
3,3.383000135421753,learn,56616.99986457825,Wed May 28 2025 17:10:16 GMT-0400 (Eastern Daylight Time),379950.3000000119,A,flowerenter,I,enter,335,1,1349.6000000238419,378600.6999999881,9019,WL,A,2.0
3,3.9170000553131104,learn,56082.99994468689,Wed May 28 2025 17:10:16 GMT-0400 (Eastern Daylight Time),380484.10000002384,A,t,I,t,513,1,533.3000000119209,379950.8000000119,9019,WL,A,3.0
3,4.117000102996826,learn,55882.999897003174,Wed May 28 2025 17:10:16 GMT-0400 (Eastern Daylight Time),380684.10000002384,A,tr,I,r,177,1,733.3000000119209,379950.8000000119,9019,WL,A,3.0
3,4.2829999923706055,learn,55717.000007629395,Wed May 28 2025 17:10:16 GMT-0400 (Eastern Daylight Time),380850.6999999881,A,tra,I,a,140,1,899.8999999761581,379950.8000000119,9019,WL,A,3.0
3,4.41700005531311,learn,55582.99994468689,Wed May 28 2025 17:10:16 GMT-0400 (Eastern Daylight Time),380983.8000000119,A,trai,I,i,124,1,1033.0,379950.8000000119,9019,WL,A,3.0
3,4.5329999923706055,learn,55467.000007629395,Wed May 28 2025 17:10:16 GMT-0400 (Eastern Daylight Time),381100.6999999881,A,train,I,n,93,1,1149.8999999761581,379950.8000000119,9019,WL,A,3.0
3,4.75,learn,55250.0,Wed May 28 2025 17:10:16 GMT-0400 (Eastern Daylight Time),381316.89999997616,A,trainenter,I,enter,191,1,1366.0999999642372,379950.8000000119,9019,WL,A,3.0
3,5.333000183105469,learn,54666.99981689453,Wed May 28 2025 17:10:16 GMT-0400 (Eastern Daylight Time),381900.6999999881,A,r,I,r,572,1,583.5,381317.1999999881,9019,WL,A,4.0
3,5.517000198364258,learn,54482.99980163574,Wed May 28 2025 17:10:16 GMT-0400 (Eastern Daylight Time),382084.10000002384,A,ru,I,u,161,1,766.9000000357628,381317.1999999881,9019,WL,A,4.0
3,5.800000190734863,learn,54199.99980926514,Wed May 28 2025 17:10:16 GMT-0400 (Eastern Daylight Time),382367.5,A,rug,I,g,266,1,1050.300000011921,381317.1999999881,9019,WL,A,4.0
3,6.233000040054321,learn,53766.99995994568,Wed May 28 2025 17:10:16 GMT-0400 (Eastern Daylight Time),382800.1999999881,A,rugenter,I,enter,414,1,1483.0,381317.1999999881,9019,WL,A,4.0
3,6.75,learn,53250.0,Wed May 28 2025 17:10:16 GMT-0400 (Eastern Daylight Time),383317.39999997616,A,h,I,h,494,1,516.6999999880791,382800.6999999881,9019,WL,A,5.0
3,6.950000047683716,learn,53049.999952316284,Wed May 28 2025 17:10:16 GMT-0400 (Eastern Daylight Time),383517.5,A,ha,I,a,175,1,716.8000000119209,382800.6999999881,9019,WL,A,5.0
3,7.3500001430511475,learn,52649.99985694885,Wed May 28 2025 17:10:16 GMT-0400 (Eastern Daylight Time),383917.3000000119,A,har,I,r,366,1,1116.6000000238419,382800.6999999881,9019,WL,A,5.0
3,7.700000047683716,learn,52299.999952316284,Wed May 28 2025 17:10:16 GMT-0400 (Eastern Daylight Time),384267.39999997616,A,harp,I,p,326,1,1466.699999988079,382800.6999999881,9019,WL,A,5.0
3,7.933000087738037,learn,52066.99991226196,Wed May 28 2025 17:10:16 GMT-0400 (Eastern Daylight Time),384500.3000000119,A,harpenter,I,enter,217,1,1699.6000000238419,382800.6999999881,9019,WL,A,5.0
3,8.150000095367432,learn,51849.99990463257,Wed May 28 2025 17:10:16 GMT-0400 (Eastern Daylight Time),384717.5,A,s,I,s,195,1,216.89999997615814,384500.60000002384,9019,WL,A,6.0
3,8.317000150680542,learn,51682.99984931946,Wed May 28 2025 17:10:16 GMT-0400 (Eastern Daylight Time),384884.1999999881,A,sa,I,a,144,1,383.5999999642372,384500.60000002384,9019,WL,A,6.0
3,8.483999967575073,learn,51516.00003242493,Wed May 28 2025 17:10:16 GMT-0400 (Eastern Daylight Time),385050.8000000119,A,sal,I,l,152,1,550.1999999880791,384500.60000002384,9019,WL,A,6.0
3,8.700000047683716,learn,51299.999952316284,Wed May 28 2025 17:10:16 GMT-0400 (Eastern Daylight Time),385267.5,A,salt,I,t,195,1,766.8999999761581,384500.60000002384,9019,WL,A,6.0
3,8.883000135421753,learn,51116.99986457825,Wed May 28 2025 17:10:16 GMT-0400 (Eastern Daylight Time),385450.3000000119,A,saltenter,I,enter,152,1,949.6999999880791,384500.60000002384,9019,WL,A,6.0
3,9.483999967575073,learn,50516.00003242493,Wed May 28 2025 17:10:16 GMT-0400 (Eastern Daylight Time),386050.8000000119,A,f,I,f,589,1,600.1999999880791,385450.60000002384,9019,WL,A,7.0
3,9.950000047683716,learn,50049.999952316284,Wed May 28 2025 17:10:16 GMT-0400 (Eastern Daylight Time),386517.39999997616,A,fi,I,i,440,1,1066.7999999523163,385450.60000002384,9019,WL,A,7.0
3,10.032999992370605,learn,49967.000007629395,Wed May 28 2025 17:10:16 GMT-0400 (Eastern Daylight Time),386600.60000002384,A,fin,I,n,62,1,1150.0,385450.60000002384,9019,WL,A,7.0
3,10.150000095367432,learn,49849.99990463257,Wed May 28 2025 17:10:16 GMT-0400 (Eastern Daylight Time),386717.5,A,fing,I,g,101,1,1266.8999999761581,385450.60000002384,9019,WL,A,7.0
3,10.384000062942505,learn,49615.999937057495,Wed May 28 2025 17:10:16 GMT-0400 (Eastern Daylight Time),386950.8000000119,A,finge,I,e,207,1,1500.199999988079,385450.60000002384,9019,WL,A,7.0
3,10.433000087738037,learn,49566.99991226196,Wed May 28 2025 17:10:16 GMT-0400 (Eastern Daylight Time),387000.39999997616,A,finger,I,r,27,1,1549.7999999523163,385450.60000002384,9019,WL,A,7.0
3,11.583000183105469,learn,48416.99981689453,Wed May 28 2025 17:10:16 GMT-0400 (Eastern Daylight Time),388150.3000000119,A,fingerenter,I,enter,1126,1,2699.699999988079,385450.60000002384,9019,WL,A,7.0
3,13.534000158309937,learn,46465.99984169006,Wed May 28 2025 17:10:16 GMT-0400 (Eastern Daylight Time),390100.8000000119,A,g,I,g,1938,1,1950.1000000238419,388150.6999999881,9019,WL,A,8.0
3,13.600000143051147,learn,46399.99985694885,Wed May 28 2025 17:10:16 GMT-0400 (Eastern Daylight Time),390167.39999997616,A,go,I,o,53,1,2016.699999988079,388150.6999999881,9019,WL,A,8.0
3,13.75,learn,46250.0,Wed May 28 2025 17:10:16 GMT-0400 (Eastern Daylight Time),390317.39999997616,A,gol,I,l,133,1,2166.699999988079,388150.6999999881,9019,WL,A,8.0
3,13.91700005531311,learn,46082.99994468689,Wed May 28 2025 17:10:16 GMT-0400 (Eastern Daylight Time),390484.1999999881,A,gold,I,d,144,1,2333.5,388150.6999999881,9019,WL,A,8.0
3,14.032999992370605,learn,45967.000007629395,Wed May 28 2025 17:10:16 GMT-0400 (Eastern Daylight Time),390600.1999999881,A,goldenter,I,enter,94,1,2449.5,388150.6999999881,9019,WL,A,8.0
3,14.367000102996826,learn,45632.999897003174,Wed May 28 2025 17:10:16 GMT-0400 (Eastern Daylight Time),390934.10000002384,A,b,I,b,311,1,333.5,390600.60000002384,9019,WL,A,9.0
3,14.600000143051147,learn,45399.99985694885,Wed May 28 2025 17:10:16 GMT-0400 (Eastern Daylight Time),391167.39999997616,A,bu,I,u,215,1,566.7999999523163,390600.60000002384,9019,WL,A,9.0
3,14.767000198364258,learn,45232.99980163574,Wed May 28 2025 17:10:16 GMT-0400 (Eastern Daylight Time),391334.3000000119,A,but,I,t,149,1,733.6999999880791,390600.60000002384,9019,WL,A,9.0
3,14.91700005531311,learn,45082.99994468689,Wed May 28 2025 17:10:16 GMT-0400 (Eastern Daylight Time),391484.10000002384,A,butt,I,t,123,1,883.5,390600.60000002384,9019,WL,A,9.0
3,15.034000158309937,learn,44965.99984169006,Wed May 28 2025 17:10:16 GMT-0400 (Eastern Daylight Time),391600.8000000119,A,butto,I,o,97,1,1000.1999999880791,390600.60000002384,9019,WL,A,9.0
3,15.150000095367432,learn,44849.99990463257,Wed May 28 2025 17:10:16 GMT-0400 (Eastern Daylight Time),391716.89999997616,A,button,I,n,92,1,1116.2999999523163,390600.60000002384,9019,WL,A,9.0
3,15.315999984741211,learn,44684.00001525879,Wed May 28 2025 17:10:16 GMT-0400 (Eastern Daylight Time),391883.6999999881,A,buttonenter,I,enter,154,1,1283.0999999642372,390600.60000002384,9019,WL,A,9.0
3,15.450000047683716,learn,44549.999952316284,Wed May 28 2025 17:10:16 GMT-0400 (Eastern Daylight Time),392017.39999997616,A,r,I,r,116,1,133.29999995231628,391884.10000002384,9019,WL,A,10.0
3,15.650000095367432,learn,44349.99990463257,Wed May 28 2025 17:10:16 GMT-0400 (Eastern Daylight Time),392217.5,A,ra,I,a,176,1,333.39999997615814,391884.10000002384,9019,WL,A,10.0
3,15.850000143051147,learn,44149.99985694885,Wed May 28 2025 17:10:16 GMT-0400 (Eastern Daylight Time),392417.39999997616,A,rat,I,t,177,1,533.2999999523163,391884.10000002384,9019,WL,A,10.0
3,15.983999967575073,learn,44016.00003242493,Wed May 28 2025 17:10:16 GMT-0400 (Eastern Daylight Time),392551.0,A,ratt,I,t,124,1,666.8999999761581,391884.10000002384,9019,WL,A,10.0
3,16.317000150680542,learn,43682.99984931946,Wed May 28 2025 17:10:16 GMT-0400 (Eastern Daylight Time),392884.10000002384,A,rattl,I,l,310,1,1000.0,391884.10000002384,9019,WL,A,10.0
3,16.517000198364258,learn,43482.99980163574,Wed May 28 2025 17:10:16 GMT-0400 (Eastern Daylight Time),393083.89999997616,A,rattle,I,e,185,1,1199.7999999523163,391884.10000002384,9019,WL,A,10.0
3,17.6010000705719,learn,42398.9999294281,Wed May 28 2025 17:10:16 GMT-0400 (Eastern Daylight Time),394168.0,A,rattleenter,I,enter,1071,1,2283.899999976158,391884.10000002384,9019,WL,A,10.0
3,17.850000143051147,learn,42149.99985694885,Wed May 28 2025 17:10:16 GMT-0400 (Eastern Daylight Time),394417.5,A,c,I,c,231,1,249.19999998807907,394168.3000000119,9019,WL,A,11.0
3,18.017000198364258,learn,41982.99980163574,Wed May 28 2025 17:10:16 GMT-0400 (Eastern Daylight Time),394583.89999997616,A,ch,I,h,154,1,415.5999999642372,394168.3000000119,9019,WL,A,11.0
3,18.300000190734863,learn,41699.99980926514,Wed May 28 2025 17:10:16 GMT-0400 (Eastern Daylight Time),394867.5,A,chi,I,i,260,1,699.1999999880791,394168.3000000119,9019,WL,A,11.0
3,18.433000087738037,learn,41566.99991226196,Wed May 28 2025 17:10:16 GMT-0400 (Eastern Daylight Time),395000.6999999881,A,chin,I,n,112,1,832.3999999761581,394168.3000000119,9019,WL,A,11.0
3,19.817000150680542,learn,40182.99984931946,Wed May 28 2025 17:10:16 GMT-0400 (Eastern Daylight Time),396384.10000002384,A,chi,I,backspace,1357,1,2215.800000011921,394168.3000000119,9019,WL,A,11.0
3,20.967000007629395,learn,39032.999992370605,Wed May 28 2025 17:10:16 GMT-0400 (Eastern Daylight Time),397534.1999999881,A,chim,I,m,1134,1,3365.899999976158,394168.3000000119,9019,WL,A,11.0
3,21.350000143051147,learn,38649.99985694885,Wed May 28 2025 17:10:16 GMT-0400 (Eastern Daylight Time),397917.5,A,chimn,I,n,367,1,3749.199999988079,394168.3000000119,9019,WL,A,11.0
3,22.267000198364258,learn,37732.99980163574,Wed May 28 2025 17:10:16 GMT-0400 (Eastern Daylight Time),398833.8000000119,A,chimne,I,e,900,1,4665.5,394168.3000000119,9019,WL,A,11.0
3,22.40000009536743,learn,37599.99990463257,Wed May 28 2025 17:10:16 GMT-0400 (Eastern Daylight Time),398967.5,A,chimney,I,y,108,1,4799.199999988079,394168.3000000119,9019,WL,A,11.0
3,22.98300004005432,learn,37016.99995994568,Wed May 28 2025 17:10:16 GMT-0400 (Eastern Daylight Time),399550.3000000119,A,chimneyenter,I,enter,553,1,5382.0,394168.3000000119,9019,WL,A,11.0
3,23.300000190734863,learn,36699.99980926514,Wed May 28 2025 17:10:16 GMT-0400 (Eastern Daylight Time),399867.5,A,l,I,l,306,1,316.89999997615814,399550.60000002384,9019,WL,A,12.0
3,23.75,learn,36250.0,Wed May 28 2025 17:10:16 GMT-0400 (Eastern Daylight Time),400317.60000002384,A,lo,I,o,424,1,767.0,399550.60000002384,9019,WL,A,12.0
3,23.93400001525879,learn,36065.99998474121,Wed May 28 2025 17:10:16 GMT-0400 (Eastern Daylight Time),400500.8000000119,A,log,I,g,168,1,950.1999999880791,399550.60000002384,9019,WL,A,12.0
3,24.050000190734863,learn,35949.99980926514,Wed May 28 2025 17:10:16 GMT-0400 (Eastern Daylight Time),400617.0,A,logenter,I,enter,95,1,1066.3999999761581,399550.60000002384,9019,WL,A,12.0
3,24.25,learn,35750.0,Wed May 28 2025 17:10:16 GMT-0400 (Eastern Daylight Time),400817.10000002384,A,k,I,k,182,1,199.80000001192093,400617.3000000119,9019,WL,A,13.0
3,24.5,learn,35500.0,Wed May 28 2025 17:10:16 GMT-0400 (Eastern Daylight Time),401067.5,A,ke,I,e,240,1,450.19999998807907,400617.3000000119,9019,WL,A,13.0
3,25.23300004005432,learn,34766.99995994568,Wed May 28 2025 17:10:16 GMT-0400 (Eastern Daylight Time),401800.6999999881,A,key,I,y,713,1,1183.3999999761581,400617.3000000119,9019,WL,A,13.0
3,28.31599998474121,learn,31684.00001525879,Wed May 28 2025 17:10:16 GMT-0400 (Eastern Daylight Time),404883.6999999881,A,keyenter,I,enter,3062,1,4266.399999976158,400617.3000000119,9019,WL,A,13.0
3,37.032999992370605,learn,22967.000007629395,Wed May 28 2025 17:10:16 GMT-0400 (Eastern Daylight Time),413600.60000002384,A,m,I,m,8709,1,8716.600000023842,404884.0,9019,WL,A,14.0
3,37.16700005531311,learn,22832.99994468689,Wed May 28 2025 17:10:16 GMT-0400 (Eastern Daylight Time),413734.1999999881,A,me,I,e,107,1,8850.199999988079,404884.0,9019,WL,A,14.0
3,37.41700005531311,learn,22582.99994468689,Wed May 28 2025 17:10:16 GMT-0400 (Eastern Daylight Time),413983.89999997616,A,mea,I,a,231,1,9099.899999976158,404884.0,9019,WL,A,14.0
3,37.55000019073486,learn,22449.999809265137,Wed May 28 2025 17:10:16 GMT-0400 (Eastern Daylight Time),414117.3000000119,A,mead,I,d,116,1,9233.300000011921,404884.0,9019,WL,A,14.0
3,37.75,learn,22250.0,Wed May 28 2025 17:10:16 GMT-0400 (Eastern Daylight Time),414317.39999997616,A,meado,I,o,175,1,9433.399999976158,404884.0,9019,WL,A,14.0
3,38.10000014305115,learn,21899.999856948853,Wed May 28 2025 17:10:16 GMT-0400 (Eastern Daylight Time),414667.5,A,meadow,I,w,336,1,9783.5,404884.0,9019,WL,A,14.0
3,39.23300004005432,learn,20766.99995994568,Wed May 28 2025 17:10:16 GMT-0400 (Eastern Daylight Time),415800.3000000119,A,meadowenter,I,enter,1113,1,10916.300000011921,404884.0,9019,WL,A,14.0
3,40.967000007629395,learn,19032.999992370605,Wed May 28 2025 17:10:16 GMT-0400 (Eastern Daylight Time),417534.1999999881,A,s,I,s,1711,1,1733.5999999642372,415800.60000002384,9019,WL,A,15.0
3,41.10000014305115,learn,18899.999856948853,Wed May 28 2025 17:10:16 GMT-0400 (Eastern Daylight Time),417667.39999997616,A,sa,I,a,107,1,1866.7999999523163,415800.60000002384,9019,WL,A,15.0
3,41.200000047683716,learn,18799.999952316284,Wed May 28 2025 17:10:16 GMT-0400 (Eastern Daylight Time),417766.8000000119,A,sal,I,l,79,1,1966.199999988079,415800.60000002384,9019,WL,A,15.0
3,41.41700005531311,learn,18582.99994468689,Wed May 28 2025 17:10:16 GMT-0400 (Eastern Daylight Time),417984.10000002384,A,salt,I,t,198,1,2183.5,415800.60000002384,9019,WL,A,15.0
3,41.98300004005432,learn,18016.99995994568,Wed May 28 2025 17:10:16 GMT-0400 (Eastern Daylight Time),418550.39999997616,A,saltenter,I,enter,545,1,2749.7999999523163,415800.60000002384,9019,WL,A,15.0
4,0.5329999923706055,learn,59467.000007629395,Wed May 28 2025 17:10:16 GMT-0400 (Eastern Daylight Time),487067.60000002384,A,b,I,b,520,1,532.8000000119209,486534.8000000119,9019,WL,A,1.0
4,0.9330000877380371,learn,59066.99991226196,Wed May 28 2025 17:10:16 GMT-0400 (Eastern Daylight Time),487467.60000002384,A,bo,I,o,384,1,932.8000000119209,486534.8000000119,9019,WL,A,1.0
4,1.2330000400543213,learn,58766.99995994568,Wed May 28 2025 17:10:16 GMT-0400 (Eastern Daylight Time),487767.5,A,boo,I,o,273,1,1232.699999988079,486534.8000000119,9019,WL,A,1.0
4,1.4670000076293945,learn,58532.999992370605,Wed May 28 2025 17:10:16 GMT-0400 (Eastern Daylight Time),488000.89999997616,A,book,I,k,215,1,1466.0999999642372,486534.8000000119,9019,WL,A,1.0
4,3.2160000801086426,learn,56783.99991989136,Wed May 28 2025 17:10:16 GMT-0400 (Eastern Daylight Time),489750.39999997616,A,bookenter,I,enter,1723,1,3215.599999964237,486534.8000000119,9019,WL,A,1.0
4,5.233000040054321,learn,54766.99995994568,Wed May 28 2025 17:10:16 GMT-0400 (Eastern Daylight Time),491767.60000002384,A,g,I,g,1993,1,2016.800000011921,489750.8000000119,9019,WL,A,2.0
4,5.434000015258789,learn,54565.99998474121,Wed May 28 2025 17:10:16 GMT-0400 (Eastern Daylight Time),491967.89999997616,A,go,I,o,190,1,2217.099999964237,489750.8000000119,9019,WL,A,2.0
4,5.683000087738037,learn,54316.99991226196,Wed May 28 2025 17:10:16 GMT-0400 (Eastern Daylight Time),492217.60000002384,A,gol,I,l,228,1,2466.800000011921,489750.8000000119,9019,WL,A,2.0
4,6.2829999923706055,learn,53717.000007629395,Wed May 28 2025 17:10:16 GMT-0400 (Eastern Daylight Time),492817.39999997616,A,gold,I,d,585,1,3066.599999964237,489750.8000000119,9019,WL,A,2.0
4,6.834000110626221,learn,53165.99988937378,Wed May 28 2025 17:10:16 GMT-0400 (Eastern Daylight Time),493368.10000002384,A,goldenter,I,enter,540,1,3617.300000011921,489750.8000000119,9019,WL,A,2.0
4,7.200000047683716,learn,52799.999952316284,Wed May 28 2025 17:10:16 GMT-0400 (Eastern Daylight Time),493734.1999999881,A,r,I,r,352,1,365.69999998807907,493368.5,9019,WL,A,3.0
4,7.383000135421753,learn,52616.99986457825,Wed May 28 2025 17:10:16 GMT-0400 (Eastern Daylight Time),493917.60000002384,A,ra,I,a,168,1,549.1000000238419,493368.5,9019,WL,A,3.0
4,7.617000102996826,learn,52382.999897003174,Wed May 28 2025 17:10:16 GMT-0400 (Eastern Daylight Time),494150.89999997616,A,rat,I,t,208,1,782.3999999761581,493368.5,9019,WL,A,3.0
4,7.800000190734863,learn,52199.99980926514,Wed May 28 2025 17:10:16 GMT-0400 (Eastern Daylight Time),494334.39999997616,A,ratt,I,t,158,1,965.8999999761581,493368.5,9019,WL,A,3.0
4,8.400000095367432,learn,51599.99990463257,Wed May 28 2025 17:10:16 GMT-0400 (Eastern Daylight Time),494934.3000000119,A,rattl,I,l,573,1,1565.800000011921,493368.5,9019,WL,A,3.0
4,8.650000095367432,learn,51349.99990463257,Wed May 28 2025 17:10:16 GMT-0400 (Eastern Daylight Time),495184.1999999881,A,rattle,I,e,230,1,1815.699999988079,493368.5,9019,WL,A,3.0
4,8.966000080108643,learn,51033.99991989136,Wed May 28 2025 17:10:16 GMT-0400 (Eastern Daylight Time),495500.39999997616,A,rattleenter,I,enter,286,1,2131.899999976158,493368.5,9019,WL,A,3.0
4,9.617000102996826,learn,50382.999897003174,Wed May 28 2025 17:10:16 GMT-0400 (Eastern Daylight Time),496151.1999999881,A,b,I,b,644,1,650.3999999761581,495500.8000000119,9019,WL,A,4.0
4,9.833000183105469,learn,50166.99981689453,Wed May 28 2025 17:10:16 GMT-0400 (Eastern Daylight Time),496367.60000002384,A,bu,I,u,205,1,866.8000000119209,495500.8000000119,9019,WL,A,4.0
4,10.282999992370605,learn,49717.000007629395,Wed May 28 2025 17:10:16 GMT-0400 (Eastern Daylight Time),496817.60000002384,A,but,I,t,420,1,1316.800000011921,495500.8000000119,9019,WL,A,4.0
4,10.433000087738037,learn,49566.99991226196,Wed May 28 2025 17:10:16 GMT-0400 (Eastern Daylight Time),496967.60000002384,A,butt,I,t,124,1,1466.800000011921,495500.8000000119,9019,WL,A,4.0
4,10.567000150680542,learn,49432.99984931946,Wed May 28 2025 17:10:16 GMT-0400 (Eastern Daylight Time),497100.6999999881,A,butto,I,o,109,1,1599.8999999761581,495500.8000000119,9019,WL,A,4.0
4,10.782999992370605,learn,49217.000007629395,Wed May 28 2025 17:10:16 GMT-0400 (Eastern Daylight Time),497317.60000002384,A,button,I,n,201,1,1816.800000011921,495500.8000000119,9019,WL,A,4.0
4,11.216000080108643,learn,48783.99991989136,Wed May 28 2025 17:10:16 GMT-0400 (Eastern Daylight Time),497750.39999997616,A,buttonenter,I,enter,415,1,2249.599999964237,495500.8000000119,9019,WL,A,4.0
4,11.600000143051147,learn,48399.99985694885,Wed May 28 2025 17:10:16 GMT-0400 (Eastern Daylight Time),498134.1999999881,A,a,I,a,369,1,383.5,497750.6999999881,9019,WL,A,5.0
4,11.833000183105469,learn,48166.99981689453,Wed May 28 2025 17:10:16 GMT-0400 (Eastern Daylight Time),498367.5,A,ap,I,p,224,1,616.8000000119209,497750.6999999881,9019,WL,A,5.0
4,11.983000040054321,learn,48016.99995994568,Wed May 28 2025 17:10:16 GMT-0400 (Eastern Daylight Time),498517.60000002384,A,app,I,p,134,1,766.9000000357628,497750.6999999881,9019,WL,A,5.0
4,12.217000007629395,learn,47782.999992370605,Wed May 28 2025 17:10:16 GMT-0400 (Eastern Daylight Time),498751.0,A,appl,I,l,208,1,1000.3000000119209,497750.6999999881,9019,WL,A,5.0
4,12.400000095367432,learn,47599.99990463257,Wed May 28 2025 17:10:16 GMT-0400 (Eastern Daylight Time),498933.89999997616,A,apple,I,e,149,1,1183.199999988079,497750.6999999881,9019,WL,A,5.0
4,12.75,learn,47250.0,Wed May 28 2025 17:10:16 GMT-0400 (Eastern Daylight Time),499283.6999999881,A,appleenter,I,enter,322,1,1533.0,497750.6999999881,9019,WL,A,5.0
4,13.067000150680542,learn,46932.99984931946,Wed May 28 2025 17:10:16 GMT-0400 (Eastern Daylight Time),499600.89999997616,A,f,I,f,309,1,316.7999999523163,499284.10000002384,9019,WL,A,6.0
4,13.483000040054321,learn,46516.99995994568,Wed May 28 2025 17:10:16 GMT-0400 (Eastern Daylight Time),500017.5,A,fi,I,i,405,1,733.3999999761581,499284.10000002384,9019,WL,A,6.0
4,13.583000183105469,learn,46416.99981689453,Wed May 28 2025 17:10:16 GMT-0400 (Eastern Daylight Time),500117.5,A,fin,I,n,82,1,833.3999999761581,499284.10000002384,9019,WL,A,6.0
4,13.683000087738037,learn,46316.99991226196,Wed May 28 2025 17:10:16 GMT-0400 (Eastern Daylight Time),500217.5,A,fing,I,g,77,1,933.3999999761581,499284.10000002384,9019,WL,A,6.0
4,14.600000143051147,learn,45399.99985694885,Wed May 28 2025 17:10:16 GMT-0400 (Eastern Daylight Time),501134.39999997616,A,finge,I,e,890,1,1850.2999999523163,499284.10000002384,9019,WL,A,6.0
4,14.683000087738037,learn,45316.99991226196,Wed May 28 2025 17:10:16 GMT-0400 (Eastern Daylight Time),501217.5,A,finger,I,r,70,1,1933.3999999761581,499284.10000002384,9019,WL,A,6.0
4,16.183000087738037,learn,43816.99991226196,Wed May 28 2025 17:10:16 GMT-0400 (Eastern Daylight Time),502717.10000002384,A,fingerenter,I,enter,1475,1,3433.0,499284.10000002384,9019,WL,A,6.0
4,17.73300004005432,learn,42266.99995994568,Wed May 28 2025 17:10:16 GMT-0400 (Eastern Daylight Time),504267.5,A,l,I,l,1540,1,1550.1000000238419,502717.39999997616,9019,WL,A,7.0
4,17.91600012779236,learn,42083.99987220764,Wed May 28 2025 17:10:16 GMT-0400 (Eastern Daylight Time),504450.60000002384,A,lo,I,o,160,1,1733.2000000476837,502717.39999997616,9019,WL,A,7.0
4,18.26699995994568,learn,41733.00004005432,Wed May 28 2025 17:10:16 GMT-0400 (Eastern Daylight Time),504800.8000000119,A,log,I,g,327,1,2083.400000035763,502717.39999997616,9019,WL,A,7.0
4,18.466000080108643,learn,41533.99991989136,Wed May 28 2025 17:10:16 GMT-0400 (Eastern Daylight Time),505000.39999997616,A,logenter,I,enter,179,1,2283.0,502717.39999997616,9019,WL,A,7.0
4,19.133000135421753,learn,40866.99986457825,Wed May 28 2025 17:10:16 GMT-0400 (Eastern Daylight Time),505667.5,A,k,I,k,656,1,666.8000000119209,505000.6999999881,9019,WL,A,8.0
4,19.282999992370605,learn,40717.000007629395,Wed May 28 2025 17:10:16 GMT-0400 (Eastern Daylight Time),505817.5,A,ke,I,e,128,1,816.8000000119209,505000.6999999881,9019,WL,A,8.0
4,19.449000120162964,learn,40550.999879837036,Wed May 28 2025 17:10:16 GMT-0400 (Eastern Daylight Time),505983.6999999881,A,key,I,y,154,1,983.0,505000.6999999881,9019,WL,A,8.0
4,20.08300018310547,learn,39916.99981689453,Wed May 28 2025 17:10:16 GMT-0400 (Eastern Daylight Time),506617.10000002384,A,keyenter,I,enter,624,1,1616.4000000357628,505000.6999999881,9019,WL,A,8.0
4,20.567000150680542,learn,39432.99984931946,Wed May 28 2025 17:10:16 GMT-0400 (Eastern Daylight Time),507101.0,A,a,I,a,472,1,483.60000002384186,506617.39999997616,9019,WL,A,9.0
4,21.01699995994568,learn,38983.00004005432,Wed May 28 2025 17:10:16 GMT-0400 (Eastern Daylight Time),507550.8000000119,A,,I,backspace,430,1,933.4000000357628,506617.39999997616,9019,WL,A,9.0
4,21.800000190734863,learn,38199.99980926514,Wed May 28 2025 17:10:16 GMT-0400 (Eastern Daylight Time),508334.1999999881,A,m,I,m,764,1,1716.800000011921,506617.39999997616,9019,WL,A,9.0
4,21.950000047683716,learn,38049.999952316284,Wed May 28 2025 17:10:16 GMT-0400 (Eastern Daylight Time),508483.8000000119,A,me,I,e,125,1,1866.4000000357628,506617.39999997616,9019,WL,A,9.0
4,22.100000143051147,learn,37899.99985694885,Wed May 28 2025 17:10:16 GMT-0400 (Eastern Daylight Time),508634.0,A,mea,I,a,138,1,2016.6000000238419,506617.39999997616,9019,WL,A,9.0
4,22.217000007629395,learn,37782.999992370605,Wed May 28 2025 17:10:16 GMT-0400 (Eastern Daylight Time),508750.89999997616,A,mead,I,d,88,1,2133.5,506617.39999997616,9019,WL,A,9.0
4,22.782999992370605,learn,37217.000007629395,Wed May 28 2025 17:10:16 GMT-0400 (Eastern Daylight Time),509317.60000002384,A,meado,I,o,531,1,2700.2000000476837,506617.39999997616,9019,WL,A,9.0
4,22.91700005531311,learn,37082.99994468689,Wed May 28 2025 17:10:16 GMT-0400 (Eastern Daylight Time),509450.8000000119,A,meadow,I,w,120,1,2833.400000035763,506617.39999997616,9019,WL,A,9.0
4,23.64900016784668,learn,36350.99983215332,Wed May 28 2025 17:10:16 GMT-0400 (Eastern Daylight Time),510183.6999999881,A,meadowenter,I,enter,714,1,3566.300000011921,506617.39999997616,9019,WL,A,9.0
4,23.90000009536743,learn,36099.99990463257,Wed May 28 2025 17:10:16 GMT-0400 (Eastern Daylight Time),510434.1999999881,A,t,I,t,241,1,250.19999998807907,510184.0,9019,WL,A,10.0
4,24.08300018310547,learn,35916.99981689453,Wed May 28 2025 17:10:16 GMT-0400 (Eastern Daylight Time),510617.60000002384,A,tr,I,r,162,1,433.60000002384186,510184.0,9019,WL,A,10.0
4,24.300000190734863,learn,35699.99980926514,Wed May 28 2025 17:10:16 GMT-0400 (Eastern Daylight Time),510834.39999997616,A,tra,I,a,196,1,650.3999999761581,510184.0,9019,WL,A,10.0
4,24.532999992370605,learn,35467.000007629395,Wed May 28 2025 17:10:16 GMT-0400 (Eastern Daylight Time),511067.3000000119,A,trai,I,i,207,1,883.3000000119209,510184.0,9019,WL,A,10.0
4,24.717000007629395,learn,35282.999992370605,Wed May 28 2025 17:10:16 GMT-0400 (Eastern Daylight Time),511250.8000000119,A,train,I,n,162,1,1066.800000011921,510184.0,9019,WL,A,10.0
4,25.383000135421753,learn,34616.99986457825,Wed May 28 2025 17:10:16 GMT-0400 (Eastern Daylight Time),511917.10000002384,A,trainenter,I,enter,643,1,1733.1000000238419,510184.0,9019,WL,A,10.0
4,54.31700015068054,learn,5682.999849319458,Wed May 28 2025 17:10:16 GMT-0400 (Eastern Daylight Time),540850.8999999762,A,s,I,s,28915,1,28933.5,511917.39999997616,9019,WL,A,11.0
4,54.58300018310547,learn,5416.999816894531,Wed May 28 2025 17:10:16 GMT-0400 (Eastern Daylight Time),541117.6999999881,A,sa,I,a,239,1,29200.30000001192,511917.39999997616,9019,WL,A,11.0
4,54.75,learn,5250.0,Wed May 28 2025 17:10:16 GMT-0400 (Eastern Daylight Time),541284.5,A,sal,I,l,144,1,29367.100000023842,511917.39999997616,9019,WL,A,11.0
4,55.367000102996826,learn,4632.999897003174,Wed May 28 2025 17:10:16 GMT-0400 (Eastern Daylight Time),541900.8999999762,A,salt,I,t,585,1,29983.5,511917.39999997616,9019,WL,A,11.0
4,56.73300004005432,learn,3266.9999599456787,Wed May 28 2025 17:10:16 GMT-0400 (Eastern Daylight Time),543267.1000000238,A,saltenter,I,enter,1351,1,31349.700000047684,511917.39999997616,9019,WL,A,11.0
4,57.38300013542175,learn,2616.999864578247,Wed May 28 2025 17:10:16 GMT-0400 (Eastern Daylight Time),543917.6999999881,A,h,I,h,630,1,650.3000000119209,543267.3999999762,9019,WL,A,12.0
4,57.5,learn,2500.0,Wed May 28 2025 17:10:16 GMT-0400 (Eastern Daylight Time),544034.3000000119,A,ha,I,a,103,1,766.9000000357628,543267.3999999762,9019,WL,A,12.0
4,57.68300008773804,learn,2316.999912261963,Wed May 28 2025 17:10:16 GMT-0400 (Eastern Daylight Time),544217.6000000238,A,har,I,r,164,1,950.2000000476837,543267.3999999762,9019,WL,A,12.0
4,58.06700015068054,learn,1932.999849319458,Wed May 28 2025 17:10:16 GMT-0400 (Eastern Daylight Time),544600.8000000119,A,harp,I,p,364,1,1333.4000000357628,543267.3999999762,9019,WL,A,12.0
4,58.38300013542175,learn,1616.999864578247,Wed May 28 2025 17:10:16 GMT-0400 (Eastern Daylight Time),544917.1000000238,A,harpenter,I,enter,300,1,1649.7000000476837,543267.3999999762,9019,WL,A,12.0
4,60.01699995994568,learn,-16.99995994567871,Wed May 28 2025 17:10:16 GMT-0400 (Eastern Daylight Time),546551.1000000238,A,None,I,None,1626,1,1633.6000000238419,544917.5,9019,WL,A,13.0
5,0.4500000476837158,learn,60000.0,Wed May 28 2025 17:10:16 GMT-0400 (Eastern Daylight Time),616851.5,A,b,I,b,437,1,450.0,616401.5,9019,WL,A,1.0
5,0.6670000553131104,learn,60000.0,Wed May 28 2025 17:10:16 GMT-0400 (Eastern Daylight Time),617068.1000000238,A,bo,I,o,194,1,666.6000000238419,616401.5,9019,WL,A,1.0
5,0.7829999923706055,learn,60000.0,Wed May 28 2025 17:10:16 GMT-0400 (Eastern Daylight Time),617184.5,A,boo,I,o,89,1,783.0,616401.5,9019,WL,A,1.0
5,0.9830000400543213,learn,60000.0,Wed May 28 2025 17:10:16 GMT-0400 (Eastern Daylight Time),617384.1000000238,A,book,I,k,182,1,982.6000000238419,616401.5,9019,WL,A,1.0
5,1.565999984741211,learn,60000.0,Wed May 28 2025 17:10:16 GMT-0400 (Eastern Daylight Time),617967.3000000119,A,bookenter,I,enter,564,1,1565.800000011921,616401.5,9019,WL,A,1.0
5,1.9159998893737793,learn,60000.0,Wed May 28 2025 17:10:16 GMT-0400 (Eastern Daylight Time),618317.6999999881,A,f,I,f,329,1,350.0999999642372,617967.6000000238,9019,WL,A,2.0
5,2.049999952316284,learn,60000.0,Wed May 28 2025 17:10:16 GMT-0400 (Eastern Daylight Time),618451.0,A,fl,I,l,120,1,483.39999997615814,617967.6000000238,9019,WL,A,2.0
5,2.2170000076293945,learn,60000.0,Wed May 28 2025 17:10:16 GMT-0400 (Eastern Daylight Time),618617.8000000119,A,flo,I,o,144,1,650.1999999880791,617967.6000000238,9019,WL,A,2.0
5,2.366999864578247,learn,60000.0,Wed May 28 2025 17:10:16 GMT-0400 (Eastern Daylight Time),618767.8000000119,A,flow,I,w,140,1,800.1999999880791,617967.6000000238,9019,WL,A,2.0
5,2.4660000801086426,learn,60000.0,Wed May 28 2025 17:10:16 GMT-0400 (Eastern Daylight Time),618867.6999999881,A,flowe,I,e,77,1,900.0999999642372,617967.6000000238,9019,WL,A,2.0
5,2.5490000247955322,learn,60000.0,Wed May 28 2025 17:10:16 GMT-0400 (Eastern Daylight Time),618950.8000000119,A,flower,I,r,47,1,983.1999999880791,617967.6000000238,9019,WL,A,2.0
5,3.0989999771118164,learn,60000.0,Wed May 28 2025 17:10:16 GMT-0400 (Eastern Daylight Time),619500.5,A,flowerenter,I,enter,523,1,1532.8999999761581,617967.6000000238,9019,WL,A,2.0
5,3.3499999046325684,learn,60000.0,Wed May 28 2025 17:10:16 GMT-0400 (Eastern Daylight Time),619750.8999999762,A,t,I,t,235,1,250.0,619500.8999999762,9019,WL,A,3.0
5,3.5160000324249268,learn,60000.0,Wed May 28 2025 17:10:16 GMT-0400 (Eastern Daylight Time),619917.6999999881,A,tr,I,r,150,1,416.80000001192093,619500.8999999762,9019,WL,A,3.0
5,3.7160000801086426,learn,60000.0,Wed May 28 2025 17:10:16 GMT-0400 (Eastern Daylight Time),620117.6000000238,A,tra,I,a,168,1,616.7000000476837,619500.8999999762,9019,WL,A,3.0
5,3.8999998569488525,learn,60000.0,Wed May 28 2025 17:10:16 GMT-0400 (Eastern Daylight Time),620301.1999999881,A,trai,I,i,160,1,800.3000000119209,619500.8999999762,9019,WL,A,3.0
5,4.016000032424927,learn,60000.0,Wed May 28 2025 17:10:16 GMT-0400 (Eastern Daylight Time),620417.6000000238,A,train,I,n,93,1,916.7000000476837,619500.8999999762,9019,WL,A,3.0
5,5.398999929428101,learn,60000.0,Wed May 28 2025 17:10:16 GMT-0400 (Eastern Daylight Time),621800.6000000238,A,trainenter,I,enter,1358,1,2299.7000000476837,619500.8999999762,9019,WL,A,3.0
5,7.5,learn,60000.0,Wed May 28 2025 17:10:16 GMT-0400 (Eastern Daylight Time),623901.0,A,m,I,m,2088,1,2100.100000023842,621800.8999999762,9019,WL,A,4.0
5,7.6499998569488525,learn,60000.0,Wed May 28 2025 17:10:16 GMT-0400 (Eastern Daylight Time),624051.1000000238,A,me,I,e,126,1,2250.2000000476837,621800.8999999762,9019,WL,A,4.0
5,8.132999897003174,learn,60000.0,Wed May 28 2025 17:10:16 GMT-0400 (Eastern Daylight Time),624534.3999999762,A,mea,I,a,464,1,2733.5,621800.8999999762,9019,WL,A,4.0
5,8.266000032424927,learn,60000.0,Wed May 28 2025 17:10:16 GMT-0400 (Eastern Daylight Time),624667.6999999881,A,mead,I,d,120,1,2866.800000011921,621800.8999999762,9019,WL,A,4.0
5,8.799999952316284,learn,60000.0,Wed May 28 2025 17:10:16 GMT-0400 (Eastern Daylight Time),625201.0,A,meado,I,o,505,1,3400.100000023842,621800.8999999762,9019,WL,A,4.0
5,8.966000080108643,learn,60000.0,Wed May 28 2025 17:10:16 GMT-0400 (Eastern Daylight Time),625367.6000000238,A,meadow,I,w,150,1,3566.7000000476837,621800.8999999762,9019,WL,A,4.0
5,9.3989999294281,learn,60000.0,Wed May 28 2025 17:10:16 GMT-0400 (Eastern Daylight Time),625800.5,A,meadowenter,I,enter,421,1,3999.600000023842,621800.8999999762,9019,WL,A,4.0
5,10.032999992370605,learn,60000.0,Wed May 28 2025 17:10:16 GMT-0400 (Eastern Daylight Time),626434.3999999762,A,h,I,h,616,1,633.5,625800.8999999762,9019,WL,A,5.0
5,10.200000047683716,learn,60000.0,Wed May 28 2025 17:10:16 GMT-0400 (Eastern Daylight Time),626601.0,A,ha,I,a,147,1,800.1000000238419,625800.8999999762,9019,WL,A,5.0
5,10.649999856948853,learn,60000.0,Wed May 28 2025 17:10:16 GMT-0400 (Eastern Daylight Time),627051.0,A,hap,I,p,436,1,1250.1000000238419,625800.8999999762,9019,WL,A,5.0
5,12.649999856948853,learn,60000.0,Wed May 28 2025 17:10:16 GMT-0400 (Eastern Daylight Time),629051.1000000238,A,ha,I,backspace,1985,1,3250.2000000476837,625800.8999999762,9019,WL,A,5.0
5,12.866999864578247,learn,60000.0,Wed May 28 2025 17:10:16 GMT-0400 (Eastern Daylight Time),629267.8000000119,A,har,I,r,200,1,3466.900000035763,625800.8999999762,9019,WL,A,5.0
5,13.365999937057495,learn,60000.0,Wed May 28 2025 17:10:16 GMT-0400 (Eastern Daylight Time),629767.6999999881,A,harp,I,p,482,1,3966.800000011921,625800.8999999762,9019,WL,A,5.0
5,13.799000024795532,learn,60000.0,Wed May 28 2025 17:10:16 GMT-0400 (Eastern Daylight Time),630200.5,A,harpenter,I,enter,420,1,4399.600000023842,625800.8999999762,9019,WL,A,5.0
5,14.25,learn,60000.0,Wed May 28 2025 17:10:16 GMT-0400 (Eastern Daylight Time),630651.1000000238,A,s,I,s,432,1,450.30000001192093,630200.8000000119,9019,WL,A,6.0
5,14.399999856948853,learn,60000.0,Wed May 28 2025 17:10:16 GMT-0400 (Eastern Daylight Time),630800.8999999762,A,sa,I,a,137,1,600.0999999642372,630200.8000000119,9019,WL,A,6.0
5,14.599999904632568,learn,60000.0,Wed May 28 2025 17:10:16 GMT-0400 (Eastern Daylight Time),631001.0,A,sal,I,l,180,1,800.1999999880791,630200.8000000119,9019,WL,A,6.0
5,15.299999952316284,learn,60000.0,Wed May 28 2025 17:10:16 GMT-0400 (Eastern Daylight Time),631701.0,A,salt,I,t,677,1,1500.199999988079,630200.8000000119,9019,WL,A,6.0
5,16.016000032424927,learn,60000.0,Wed May 28 2025 17:10:16 GMT-0400 (Eastern Daylight Time),632417.1999999881,A,saltenter,I,enter,695,1,2216.399999976158,630200.8000000119,9019,WL,A,6.0
5,16.450000047683716,learn,60000.0,Wed May 28 2025 17:10:16 GMT-0400 (Eastern Daylight Time),632851.1999999881,A,f,I,f,424,1,433.69999998807907,632417.5,9019,WL,A,7.0
5,16.66599988937378,learn,60000.0,Wed May 28 2025 17:10:16 GMT-0400 (Eastern Daylight Time),633067.6999999881,A,fi,I,i,192,1,650.1999999880791,632417.5,9019,WL,A,7.0
5,16.782999992370605,learn,60000.0,Wed May 28 2025 17:10:16 GMT-0400 (Eastern Daylight Time),633184.1000000238,A,fin,I,n,105,1,766.6000000238419,632417.5,9019,WL,A,7.0
5,16.899999856948853,learn,60000.0,Wed May 28 2025 17:10:16 GMT-0400 (Eastern Daylight Time),633301.1000000238,A,fing,I,g,101,1,883.6000000238419,632417.5,9019,WL,A,7.0
5,17.632999897003174,learn,60000.0,Wed May 28 2025 17:10:16 GMT-0400 (Eastern Daylight Time),634034.5,A,finge,I,e,702,1,1617.0,632417.5,9019,WL,A,7.0
5,17.716000080108643,learn,60000.0,Wed May 28 2025 17:10:16 GMT-0400 (Eastern Daylight Time),634117.6999999881,A,finger,I,r,66,1,1700.199999988079,632417.5,9019,WL,A,7.0
5,17.882999897003174,learn,60000.0,Wed May 28 2025 17:10:16 GMT-0400 (Eastern Daylight Time),634283.8999999762,A,fingerenter,I,enter,140,1,1866.3999999761581,632417.5,9019,WL,A,7.0
5,18.16599988937378,learn,60000.0,Wed May 28 2025 17:10:16 GMT-0400 (Eastern Daylight Time),634567.6999999881,A,c,I,c,277,1,283.5,634284.1999999881,9019,WL,A,8.0
5,18.365999937057495,learn,60000.0,Wed May 28 2025 17:10:16 GMT-0400 (Eastern Daylight Time),634767.6999999881,A,ch,I,h,181,1,483.5,634284.1999999881,9019,WL,A,8.0
5,18.58299994468689,learn,60000.0,Wed May 28 2025 17:10:16 GMT-0400 (Eastern Daylight Time),634984.1000000238,A,chi,I,i,206,1,699.9000000357628,634284.1999999881,9019,WL,A,8.0
5,18.83299994468689,learn,60000.0,Wed May 28 2025 17:10:16 GMT-0400 (Eastern Daylight Time),635234.3999999762,A,chim,I,m,230,1,950.1999999880791,634284.1999999881,9019,WL,A,8.0
5,19.59999990463257,learn,60000.0,Wed May 28 2025 17:10:16 GMT-0400 (Eastern Daylight Time),636001.1000000238,A,chimn,I,n,746,1,1716.9000000357628,634284.1999999881,9019,WL,A,8.0
5,19.799999952316284,learn,60000.0,Wed May 28 2025 17:10:16 GMT-0400 (Eastern Daylight Time),636201.0,A,chimne,I,e,181,1,1916.800000011921,634284.1999999881,9019,WL,A,8.0
5,20.0,learn,60000.0,Wed May 28 2025 17:10:16 GMT-0400 (Eastern Daylight Time),636400.8999999762,A,chimney,I,y,180,1,2116.699999988079,634284.1999999881,9019,WL,A,8.0
5,20.56599998474121,learn,60000.0,Wed May 28 2025 17:10:16 GMT-0400 (Eastern Daylight Time),636967.3000000119,A,chimneyenter,I,enter,540,1,2683.100000023842,634284.1999999881,9019,WL,A,8.0
5,21.649999856948853,learn,60000.0,Wed May 28 2025 17:10:16 GMT-0400 (Eastern Daylight Time),638051.1000000238,A,a,I,a,1072,1,1083.2000000476837,636967.8999999762,9019,WL,A,9.0
5,21.782999992370605,learn,60000.0,Wed May 28 2025 17:10:16 GMT-0400 (Eastern Daylight Time),638184.0,A,ap,I,p,119,1,1216.1000000238419,636967.8999999762,9019,WL,A,9.0
5,21.950000047683716,learn,60000.0,Wed May 28 2025 17:10:16 GMT-0400 (Eastern Daylight Time),638351.0,A,app,I,p,139,1,1383.1000000238419,636967.8999999762,9019,WL,A,9.0
5,22.216000080108643,learn,60000.0,Wed May 28 2025 17:10:16 GMT-0400 (Eastern Daylight Time),638617.6000000238,A,appl,I,l,238,1,1649.7000000476837,636967.8999999762,9019,WL,A,9.0
5,22.450000047683716,learn,60000.0,Wed May 28 2025 17:10:16 GMT-0400 (Eastern Daylight Time),638850.8999999762,A,apple,I,e,211,1,1883.0,636967.8999999762,9019,WL,A,9.0
5,22.83299994468689,learn,60000.0,Wed May 28 2025 17:10:16 GMT-0400 (Eastern Daylight Time),639234.0,A,appleenter,I,enter,369,1,2266.100000023842,636967.8999999762,9019,WL,A,9.0
5,23.200000047683716,learn,60000.0,Wed May 28 2025 17:10:16 GMT-0400 (Eastern Daylight Time),639601.1999999881,A,b,I,b,351,1,366.80000001192093,639234.3999999762,9019,WL,A,10.0
5,23.382999897003174,learn,60000.0,Wed May 28 2025 17:10:16 GMT-0400 (Eastern Daylight Time),639784.3999999762,A,bu,I,u,172,1,550.0,639234.3999999762,9019,WL,A,10.0
5,23.58299994468689,learn,60000.0,Wed May 28 2025 17:10:16 GMT-0400 (Eastern Daylight Time),639984.1000000238,A,but,I,t,189,1,749.7000000476837,639234.3999999762,9019,WL,A,10.0
5,23.73300004005432,learn,60000.0,Wed May 28 2025 17:10:16 GMT-0400 (Eastern Daylight Time),640134.3999999762,A,butt,I,t,124,1,900.0,639234.3999999762,9019,WL,A,10.0
5,24.466000080108643,learn,60000.0,Wed May 28 2025 17:10:16 GMT-0400 (Eastern Daylight Time),640867.8000000119,A,butto,I,o,703,1,1633.4000000357628,639234.3999999762,9019,WL,A,10.0
5,24.66599988937378,learn,60000.0,Wed May 28 2025 17:10:16 GMT-0400 (Eastern Daylight Time),641067.8000000119,A,button,I,n,178,1,1833.4000000357628,639234.3999999762,9019,WL,A,10.0
5,24.865999937057495,learn,60000.0,Wed May 28 2025 17:10:16 GMT-0400 (Eastern Daylight Time),641267.3000000119,A,buttonenter,I,enter,175,1,2032.9000000357628,639234.3999999762,9019,WL,A,10.0
5,25.049999952316284,learn,60000.0,Wed May 28 2025 17:10:16 GMT-0400 (Eastern Daylight Time),641451.1999999881,A,r,I,r,173,1,183.5999999642372,641267.6000000238,9019,WL,A,11.0
5,25.23300004005432,learn,60000.0,Wed May 28 2025 17:10:16 GMT-0400 (Eastern Daylight Time),641634.3999999762,A,ra,I,a,169,1,366.7999999523163,641267.6000000238,9019,WL,A,11.0
5,25.382999897003174,learn,60000.0,Wed May 28 2025 17:10:16 GMT-0400 (Eastern Daylight Time),641784.1000000238,A,rat,I,t,129,1,516.5,641267.6000000238,9019,WL,A,11.0
5,25.549999952316284,learn,60000.0,Wed May 28 2025 17:10:16 GMT-0400 (Eastern Daylight Time),641951.1000000238,A,ratt,I,t,133,1,683.5,641267.6000000238,9019,WL,A,11.0
5,25.782999992370605,learn,60000.0,Wed May 28 2025 17:10:16 GMT-0400 (Eastern Daylight Time),642183.8999999762,A,rattl,I,l,220,1,916.2999999523163,641267.6000000238,9019,WL,A,11.0
5,26.098999977111816,learn,60000.0,Wed May 28 2025 17:10:16 GMT-0400 (Eastern Daylight Time),642500.6000000238,A,rattle,I,e,292,1,1233.0,641267.6000000238,9019,WL,A,11.0
5,28.049000024795532,learn,60000.0,Wed May 28 2025 17:10:16 GMT-0400 (Eastern Daylight Time),644450.6000000238,A,rattleenter,I,enter,1938,1,3183.0,641267.6000000238,9019,WL,A,11.0
5,28.41599988937378,learn,60000.0,Wed May 28 2025 17:10:16 GMT-0400 (Eastern Daylight Time),644817.8000000119,A,l,I,l,350,1,366.9000000357628,644450.8999999762,9019,WL,A,12.0
5,28.649999856948853,learn,60000.0,Wed May 28 2025 17:10:16 GMT-0400 (Eastern Daylight Time),645051.0,A,lo,I,o,211,1,600.1000000238419,644450.8999999762,9019,WL,A,12.0
5,29.032999992370605,learn,60000.0,Wed May 28 2025 17:10:16 GMT-0400 (Eastern Daylight Time),645434.3000000119,A,log,I,g,362,1,983.4000000357628,644450.8999999762,9019,WL,A,12.0
5,30.433000087738037,learn,60000.0,Wed May 28 2025 17:10:16 GMT-0400 (Eastern Daylight Time),646833.8999999762,A,logenter,I,enter,1387,1,2383.0,644450.8999999762,9019,WL,A,12.0
5,31.200000047683716,learn,60000.0,Wed May 28 2025 17:10:16 GMT-0400 (Eastern Daylight Time),647601.1000000238,A,k,I,k,751,1,766.9000000357628,646834.1999999881,9019,WL,A,13.0
5,31.75,learn,60000.0,Wed May 28 2025 17:10:16 GMT-0400 (Eastern Daylight Time),648151.0,A,ke,I,e,516,1,1316.800000011921,646834.1999999881,9019,WL,A,13.0
5,32.049999952316284,learn,60000.0,Wed May 28 2025 17:10:16 GMT-0400 (Eastern Daylight Time),648451.0,A,key,I,y,275,1,1616.800000011921,646834.1999999881,9019,WL,A,13.0
5,32.43300008773804,learn,60000.0,Wed May 28 2025 17:10:16 GMT-0400 (Eastern Daylight Time),648833.8999999762,A,keyenter,I,enter,359,1,1999.699999988079,646834.1999999881,9019,WL,A,13.0
5,33.16599988937378,learn,60000.0,Wed May 28 2025 17:10:16 GMT-0400 (Eastern Daylight Time),649567.1999999881,A,g,I,g,717,1,733.0,648834.1999999881,9019,WL,A,14.0
5,33.34999990463257,learn,60000.0,Wed May 28 2025 17:10:16 GMT-0400 (Eastern Daylight Time),649751.0,A,go,I,o,160,1,916.8000000119209,648834.1999999881,9019,WL,A,14.0
5,33.58299994468689,learn,60000.0,Wed May 28 2025 17:10:16 GMT-0400 (Eastern Daylight Time),649984.0,A,gol,I,l,219,1,1149.800000011921,648834.1999999881,9019,WL,A,14.0
5,33.93300008773804,learn,60000.0,Wed May 28 2025 17:10:16 GMT-0400 (Eastern Daylight Time),650334.5,A,gold,I,d,326,1,1500.300000011921,648834.1999999881,9019,WL,A,14.0
5,35.16799998283386,learn,60000.0,Wed May 28 2025 17:10:16 GMT-0400 (Eastern Daylight Time),651569.3000000119,A,goldenter,I,enter,1222,1,2735.100000023842,648834.1999999881,9019,WL,A,14.0
5,36.51600003242493,learn,60000.0,Wed May 28 2025 17:10:16 GMT-0400 (Eastern Daylight Time),652917.8000000119,A,m,I,m,1327,1,1348.199999988079,651569.6000000238,9019,WL,A,15.0
5,36.64999985694885,learn,60000.0,Wed May 28 2025 17:10:16 GMT-0400 (Eastern Daylight Time),653050.8999999762,A,me,I,e,112,1,1481.2999999523163,651569.6000000238,9019,WL,A,15.0
5,36.83299994468689,learn,60000.0,Wed May 28 2025 17:10:16 GMT-0400 (Eastern Daylight Time),653234.3000000119,A,mea,I,a,162,1,1664.699999988079,651569.6000000238,9019,WL,A,15.0
5,36.98300004005432,learn,60000.0,Wed May 28 2025 17:10:16 GMT-0400 (Eastern Daylight Time),653384.1999999881,A,mead,I,d,139,1,1814.5999999642372,651569.6000000238,9019,WL,A,15.0
5,37.18300008773804,learn,60000.0,Wed May 28 2025 17:10:16 GMT-0400 (Eastern Daylight Time),653584.1999999881,A,meado,I,o,181,1,2014.5999999642372,651569.6000000238,9019,WL,A,15.0
5,37.34999990463257,learn,60000.0,Wed May 28 2025 17:10:16 GMT-0400 (Eastern Daylight Time),653751.1000000238,A,meadow,I,w,139,1,2181.5,651569.6000000238,9019,WL,A,15.0
5,37.79900002479553,learn,60000.0,Wed May 28 2025 17:10:16 GMT-0400 (Eastern Daylight Time),654200.6000000238,A,meadowenter,I,enter,429,1,2631.0,651569.6000000238,9019,WL,A,15.0
6,0.31599998474121094,distr,59684.00001525879,Wed May 28 2025 17:10:16 GMT-0400 (Eastern Daylight Time),731467.5,B,b,I,b,295,1,316.0,731151.5,9019,WL,A,1.0
6,0.8669998645782471,distr,59133.00013542175,Wed May 28 2025 17:10:16 GMT-0400 (Eastern Daylight Time),732017.8000000119,B,bo,I,o,533,1,866.3000000119209,731151.5,9019,WL,A,1.0
6,1.116999864578247,distr,58883.00013542175,Wed May 28 2025 17:10:16 GMT-0400 (Eastern Daylight Time),732267.8000000119,B,bow,I,w,235,1,1116.300000011921,731151.5,9019,WL,A,1.0
6,1.5499999523162842,distr,58450.000047683716,Wed May 28 2025 17:10:16 GMT-0400 (Eastern Daylight Time),732701.1999999881,B,bowl,I,l,410,1,1549.699999988079,731151.5,9019,WL,A,1.0
6,2.5329999923706055,distr,57467.000007629395,Wed May 28 2025 17:10:16 GMT-0400 (Eastern Daylight Time),733684.0,B,bowlenter,I,enter,967,1,2532.5,731151.5,9019,WL,A,1.0
6,3.132999897003174,distr,56867.000102996826,Wed May 28 2025 17:10:16 GMT-0400 (Eastern Daylight Time),734284.5,B,d,I,d,589,1,600.1999999880791,733684.3000000119,9019,WL,A,2.0
6,3.4670000076293945,distr,56532.999992370605,Wed May 28 2025 17:10:16 GMT-0400 (Eastern Daylight Time),734617.8000000119,B,da,I,a,312,1,933.5,733684.3000000119,9019,WL,A,2.0
6,3.6499998569488525,distr,56350.00014305115,Wed May 28 2025 17:10:16 GMT-0400 (Eastern Daylight Time),734801.1000000238,B,daw,I,w,163,1,1116.800000011921,733684.3000000119,9019,WL,A,2.0
6,4.450000047683716,distr,55549.999952316284,Wed May 28 2025 17:10:16 GMT-0400 (Eastern Daylight Time),735601.1000000238,B,dawn,I,n,789,1,1916.800000011921,733684.3000000119,9019,WL,A,2.0
6,4.966000080108643,distr,55033.99991989136,Wed May 28 2025 17:10:16 GMT-0400 (Eastern Daylight Time),736117.3999999762,B,dawnenter,I,enter,492,1,2433.099999964237,733684.3000000119,9019,WL,A,2.0
6,5.266999959945679,distr,54733.00004005432,Wed May 28 2025 17:10:16 GMT-0400 (Eastern Daylight Time),736417.8000000119,B,j,I,j,291,1,300.10000002384186,736117.6999999881,9019,WL,A,3.0
6,5.41700005531311,distr,54582.99994468689,Wed May 28 2025 17:10:16 GMT-0400 (Eastern Daylight Time),736567.6999999881,B,ju,I,u,140,1,450.0,736117.6999999881,9019,WL,A,3.0
6,5.58299994468689,distr,54417.00005531311,Wed May 28 2025 17:10:16 GMT-0400 (Eastern Daylight Time),736734.5,B,jud,I,d,134,1,616.8000000119209,736117.6999999881,9019,WL,A,3.0
6,5.766999959945679,distr,54233.00004005432,Wed May 28 2025 17:10:16 GMT-0400 (Eastern Daylight Time),736917.8000000119,B,judj,I,j,167,1,800.1000000238419,736117.6999999881,9019,WL,A,3.0
6,6.1499998569488525,distr,53850.00014305115,Wed May 28 2025 17:10:16 GMT-0400 (Eastern Daylight Time),737301.1000000238,B,judje,I,e,353,1,1183.4000000357628,736117.6999999881,9019,WL,A,3.0
6,6.7829999923706055,distr,53217.000007629395,Wed May 28 2025 17:10:16 GMT-0400 (Eastern Daylight Time),737934.5,B,judj,I,backspace,606,1,1816.800000011921,736117.6999999881,9019,WL,A,3.0
6,6.933000087738037,distr,53066.99991226196,Wed May 28 2025 17:10:16 GMT-0400 (Eastern Daylight Time),738084.3999999762,B,jud,I,backspace,124,1,1966.699999988079,736117.6999999881,9019,WL,A,3.0
6,7.483000040054321,distr,52516.99995994568,Wed May 28 2025 17:10:16 GMT-0400 (Eastern Daylight Time),738634.5,B,judg,I,g,530,1,2516.800000011921,736117.6999999881,9019,WL,A,3.0
6,7.58299994468689,distr,52417.00005531311,Wed May 28 2025 17:10:16 GMT-0400 (Eastern Daylight Time),738734.3999999762,B,judge,I,e,84,1,2616.699999988079,736117.6999999881,9019,WL,A,3.0
6,7.948999881744385,distr,52051.000118255615,Wed May 28 2025 17:10:16 GMT-0400 (Eastern Daylight Time),739100.6999999881,B,judgeenter,I,enter,340,1,2983.0,736117.6999999881,9019,WL,A,3.0
6,8.849999904632568,distr,51150.00009536743,Wed May 28 2025 17:10:16 GMT-0400 (Eastern Daylight Time),740001.1000000238,B,i,I,i,892,1,900.1000000238419,739101.0,9019,WL,A,4.0
6,8.966000080108643,distr,51033.99991989136,Wed May 28 2025 17:10:16 GMT-0400 (Eastern Daylight Time),740117.6999999881,B,in,I,n,93,1,1016.6999999880791,739101.0,9019,WL,A,4.0
6,9.149999856948853,distr,50850.00014305115,Wed May 28 2025 17:10:16 GMT-0400 (Eastern Daylight Time),740301.1999999881,B,ins,I,s,160,1,1200.199999988079,739101.0,9019,WL,A,4.0
6,9.233000040054321,distr,50766.99995994568,Wed May 28 2025 17:10:16 GMT-0400 (Eastern Daylight Time),740384.1000000238,B,insc,I,c,63,1,1283.1000000238419,739101.0,9019,WL,A,4.0
6,9.616999864578247,distr,50383.00013542175,Wed May 28 2025 17:10:16 GMT-0400 (Eastern Daylight Time),740767.8999999762,B,insce,I,e,355,1,1666.8999999761581,739101.0,9019,WL,A,4.0
6,9.733000040054321,distr,50266.99995994568,Wed May 28 2025 17:10:16 GMT-0400 (Eastern Daylight Time),740884.6000000238,B,inscet,I,t,92,1,1783.6000000238419,739101.0,9019,WL,A,4.0
6,10.849999904632568,distr,49150.00009536743,Wed May 28 2025 17:10:16 GMT-0400 (Eastern Daylight Time),742001.0,B,insce,I,backspace,1102,1,2900.0,739101.0,9019,WL,A,4.0
6,11.016999959945679,distr,48983.00004005432,Wed May 28 2025 17:10:16 GMT-0400 (Eastern Daylight Time),742167.8000000119,B,insc,I,backspace,147,1,3066.800000011921,739101.0,9019,WL,A,4.0
6,11.16700005531311,distr,48832.99994468689,Wed May 28 2025 17:10:16 GMT-0400 (Eastern Daylight Time),742317.8000000119,B,ins,I,backspace,131,1,3216.800000011921,739101.0,9019,WL,A,4.0
6,11.866999864578247,distr,48133.00013542175,Wed May 28 2025 17:10:16 GMT-0400 (Eastern Daylight Time),743017.8000000119,B,inse,I,e,687,1,3916.800000011921,739101.0,9019,WL,A,4.0
6,12.16700005531311,distr,47832.99994468689,Wed May 28 2025 17:10:16 GMT-0400 (Eastern Daylight Time),743317.8000000119,B,insec,I,c,284,1,4216.800000011921,739101.0,9019,WL,A,4.0
6,12.433000087738037,distr,47566.99991226196,Wed May 28 2025 17:10:16 GMT-0400 (Eastern Daylight Time),743584.1000000238,B,insect,I,t,256,1,4483.100000023842,739101.0,9019,WL,A,4.0
6,13.032999992370605,distr,46967.000007629395,Wed May 28 2025 17:10:16 GMT-0400 (Eastern Daylight Time),744184.0,B,insectenter,I,enter,590,1,5083.0,739101.0,9019,WL,A,4.0
6,14.032999992370605,distr,45967.000007629395,Wed May 28 2025 17:10:16 GMT-0400 (Eastern Daylight Time),745184.5,B,p,I,p,984,1,1000.1000000238419,744184.3999999762,9019,WL,A,5.0
6,14.116999864578247,distr,45883.00013542175,Wed May 28 2025 17:10:16 GMT-0400 (Eastern Daylight Time),745267.6999999881,B,pe,I,e,68,1,1083.300000011921,744184.3999999762,9019,WL,A,5.0
6,14.366999864578247,distr,45633.00013542175,Wed May 28 2025 17:10:16 GMT-0400 (Eastern Daylight Time),745517.8999999762,B,pea,I,a,228,1,1333.5,744184.3999999762,9019,WL,A,5.0
6,14.75,distr,45250.0,Wed May 28 2025 17:10:16 GMT-0400 (Eastern Daylight Time),745901.1999999881,B,peac,I,c,367,1,1716.800000011921,744184.3999999762,9019,WL,A,5.0
6,15.33299994468689,distr,44667.00005531311,Wed May 28 2025 17:10:16 GMT-0400 (Eastern Daylight Time),746484.6000000238,B,peach,I,h,557,1,2300.2000000476837,744184.3999999762,9019,WL,A,5.0
6,17.249000072479248,distr,42750.99992752075,Wed May 28 2025 17:10:16 GMT-0400 (Eastern Daylight Time),748400.6000000238,B,peachenter,I,enter,1904,1,4216.200000047684,744184.3999999762,9019,WL,A,5.0
6,19.700000047683716,distr,40299.999952316284,Wed May 28 2025 17:10:16 GMT-0400 (Eastern Daylight Time),750851.1000000238,B,c,I,c,2440,1,2450.100000023842,748401.0,9019,WL,A,6.0
6,19.816999912261963,distr,40183.00008773804,Wed May 28 2025 17:10:16 GMT-0400 (Eastern Daylight Time),750967.8999999762,B,ch,I,h,105,1,2566.899999976158,748401.0,9019,WL,A,6.0
6,19.967000007629395,distr,40032.999992370605,Wed May 28 2025 17:10:16 GMT-0400 (Eastern Daylight Time),751117.8000000119,B,cha,I,a,124,1,2716.800000011921,748401.0,9019,WL,A,6.0
6,20.116999864578247,distr,39883.00013542175,Wed May 28 2025 17:10:16 GMT-0400 (Eastern Daylight Time),751267.8999999762,B,chai,I,i,126,1,2866.899999976158,748401.0,9019,WL,A,6.0
6,20.26699995994568,distr,39733.00004005432,Wed May 28 2025 17:10:16 GMT-0400 (Eastern Daylight Time),751417.8999999762,B,chair,I,r,121,1,3016.899999976158,748401.0,9019,WL,A,6.0
6,20.848999977111816,distr,39151.00002288818,Wed May 28 2025 17:10:16 GMT-0400 (Eastern Daylight Time),752000.6000000238,B,chairenter,I,enter,571,1,3599.600000023842,748401.0,9019,WL,A,6.0
6,60.01600003242493,distr,-16.000032424926758,Wed May 28 2025 17:10:16 GMT-0400 (Eastern Daylight Time),791167.5,B,None,I,None,39160,1,39166.60000002384,752000.8999999762,9019,WL,A,7.0
7,1.4830000400543213,immed,58516.99995994568,Wed May 28 2025 17:10:16 GMT-0400 (Eastern Daylight Time),802167.6999999881,A,b,I,b,1458,1,1482.5,800685.1999999881,9019,WL,A,1.0
7,1.815999984741211,immed,58184.00001525879,Wed May 28 2025 17:10:16 GMT-0400 (Eastern Daylight Time),802501.1999999881,A,bo,I,o,310,1,1816.0,800685.1999999881,9019,WL,A,1.0
7,1.9500000476837158,immed,58049.999952316284,Wed May 28 2025 17:10:16 GMT-0400 (Eastern Daylight Time),802634.8000000119,A,boo,I,o,113,1,1949.6000000238419,800685.1999999881,9019,WL,A,1.0
7,2.1490001678466797,immed,57850.99983215332,Wed May 28 2025 17:10:16 GMT-0400 (Eastern Daylight Time),802834.5,A,book,I,k,187,1,2149.300000011921,800685.1999999881,9019,WL,A,1.0
7,2.7660000324249268,immed,57233.99996757507,Wed May 28 2025 17:10:16 GMT-0400 (Eastern Daylight Time),803450.8000000119,A,bookenter,I,enter,595,1,2765.600000023842,800685.1999999881,9019,WL,A,1.0
7,3.0490000247955322,immed,56950.99997520447,Wed May 28 2025 17:10:16 GMT-0400 (Eastern Daylight Time),803734.5,A,f,I,f,269,1,283.39999997615814,803451.1000000238,9019,WL,A,2.0
7,3.183000087738037,immed,56816.99991226196,Wed May 28 2025 17:10:16 GMT-0400 (Eastern Daylight Time),803867.8999999762,A,fl,I,l,119,1,416.7999999523163,803451.1000000238,9019,WL,A,2.0
7,3.383000135421753,immed,56616.99986457825,Wed May 28 2025 17:10:16 GMT-0400 (Eastern Daylight Time),804067.8999999762,A,flo,I,o,178,1,616.7999999523163,803451.1000000238,9019,WL,A,2.0
7,3.749000072479248,immed,56250.99992752075,Wed May 28 2025 17:10:16 GMT-0400 (Eastern Daylight Time),804434.5,A,flow,I,w,346,1,983.3999999761581,803451.1000000238,9019,WL,A,2.0
7,3.865999937057495,immed,56134.000062942505,Wed May 28 2025 17:10:16 GMT-0400 (Eastern Daylight Time),804551.1999999881,A,flowe,I,e,100,1,1100.0999999642372,803451.1000000238,9019,WL,A,2.0
7,3.949000120162964,immed,56050.999879837036,Wed May 28 2025 17:10:16 GMT-0400 (Eastern Daylight Time),804634.3000000119,A,flower,I,r,50,1,1183.199999988079,803451.1000000238,9019,WL,A,2.0
7,4.666000127792358,immed,55333.99987220764,Wed May 28 2025 17:10:16 GMT-0400 (Eastern Daylight Time),805350.8000000119,A,flowerenter,I,enter,690,1,1899.699999988079,803451.1000000238,9019,WL,A,2.0
7,4.933000087738037,immed,55066.99991226196,Wed May 28 2025 17:10:16 GMT-0400 (Eastern Daylight Time),805617.8999999762,A,t,I,t,250,1,266.7999999523163,805351.1000000238,9019,WL,A,3.0
7,5.098999977111816,immed,54901.00002288818,Wed May 28 2025 17:10:16 GMT-0400 (Eastern Daylight Time),805784.5,A,tr,I,r,147,1,433.39999997615814,805351.1000000238,9019,WL,A,3.0
7,5.2829999923706055,immed,54717.000007629395,Wed May 28 2025 17:10:16 GMT-0400 (Eastern Daylight Time),805967.8999999762,A,tra,I,a,165,1,616.7999999523163,805351.1000000238,9019,WL,A,3.0
7,5.433000087738037,immed,54566.99991226196,Wed May 28 2025 17:10:16 GMT-0400 (Eastern Daylight Time),806118.0,A,trai,I,i,125,1,766.8999999761581,805351.1000000238,9019,WL,A,3.0
7,5.598999977111816,immed,54401.00002288818,Wed May 28 2025 17:10:16 GMT-0400 (Eastern Daylight Time),806284.3000000119,A,train,I,n,141,1,933.1999999880791,805351.1000000238,9019,WL,A,3.0
7,6.466000080108643,immed,53533.99991989136,Wed May 28 2025 17:10:16 GMT-0400 (Eastern Daylight Time),807150.6999999881,A,trainenter,I,enter,839,1,1799.5999999642372,805351.1000000238,9019,WL,A,3.0
7,6.966000080108643,immed,53033.99991989136,Wed May 28 2025 17:10:16 GMT-0400 (Eastern Daylight Time),807651.1999999881,A,m,I,m,481,1,500.19999998807907,807151.0,9019,WL,A,4.0
7,7.133000135421753,immed,52866.99986457825,Wed May 28 2025 17:10:16 GMT-0400 (Eastern Daylight Time),807817.8000000119,A,me,I,e,154,1,666.8000000119209,807151.0,9019,WL,A,4.0
7,7.565999984741211,immed,52434.00001525879,Wed May 28 2025 17:10:16 GMT-0400 (Eastern Daylight Time),808251.3000000119,A,mea,I,a,410,1,1100.300000011921,807151.0,9019,WL,A,4.0
7,7.933000087738037,immed,52066.99991226196,Wed May 28 2025 17:10:16 GMT-0400 (Eastern Daylight Time),808618.0,A,mead,I,d,354,1,1467.0,807151.0,9019,WL,A,4.0
7,8.282999992370605,immed,51717.000007629395,Wed May 28 2025 17:10:16 GMT-0400 (Eastern Daylight Time),808967.8999999762,A,meado,I,o,337,1,1816.8999999761581,807151.0,9019,WL,A,4.0
7,9.233000040054321,immed,50766.99995994568,Wed May 28 2025 17:10:16 GMT-0400 (Eastern Daylight Time),809917.8999999762,A,meadow,I,w,931,1,2766.899999976158,807151.0,9019,WL,A,4.0
7,10.332000017166138,immed,49667.99998283386,Wed May 28 2025 17:10:16 GMT-0400 (Eastern Daylight Time),811017.3999999762,A,meadowenter,I,enter,1079,1,3866.399999976158,807151.0,9019,WL,A,4.0
7,10.699000120162964,immed,49300.999879837036,Wed May 28 2025 17:10:16 GMT-0400 (Eastern Daylight Time),811384.1999999881,A,l,I,l,350,1,366.5,811017.6999999881,9019,WL,A,5.0
7,10.89900016784668,immed,49100.99983215332,Wed May 28 2025 17:10:16 GMT-0400 (Eastern Daylight Time),811584.3000000119,A,lo,I,o,191,1,566.6000000238419,811017.6999999881,9019,WL,A,5.0
7,11.39900016784668,immed,48600.99983215332,Wed May 28 2025 17:10:16 GMT-0400 (Eastern Daylight Time),812084.6000000238,A,log,I,g,476,1,1066.9000000357628,811017.6999999881,9019,WL,A,5.0
7,11.615999937057495,immed,48384.000062942505,Wed May 28 2025 17:10:16 GMT-0400 (Eastern Daylight Time),812300.8000000119,A,logenter,I,enter,191,1,1283.1000000238419,811017.6999999881,9019,WL,A,5.0
7,11.865999937057495,immed,48134.000062942505,Wed May 28 2025 17:10:16 GMT-0400 (Eastern Daylight Time),812551.3000000119,A,k,I,k,236,1,250.19999998807907,812301.1000000238,9019,WL,A,6.0
7,12.08299994468689,immed,47917.00005531311,Wed May 28 2025 17:10:16 GMT-0400 (Eastern Daylight Time),812768.1000000238,A,ke,I,e,207,1,467.0,812301.1000000238,9019,WL,A,6.0
7,12.282999992370605,immed,47717.000007629395,Wed May 28 2025 17:10:16 GMT-0400 (Eastern Daylight Time),812967.8999999762,A,key,I,y,174,1,666.7999999523163,812301.1000000238,9019,WL,A,6.0
7,12.782000064849854,immed,47217.99993515015,Wed May 28 2025 17:10:16 GMT-0400 (Eastern Daylight Time),813467.5,A,keyenter,I,enter,476,1,1166.3999999761581,812301.1000000238,9019,WL,A,6.0
7,13.049000024795532,immed,46950.99997520447,Wed May 28 2025 17:10:16 GMT-0400 (Eastern Daylight Time),813734.6000000238,A,b,I,b,244,1,266.7000000476837,813467.8999999762,9019,WL,A,7.0
7,13.282999992370605,immed,46717.000007629395,Wed May 28 2025 17:10:16 GMT-0400 (Eastern Daylight Time),813967.8999999762,A,bu,I,u,207,1,500.0,813467.8999999762,9019,WL,A,7.0
7,13.483000040054321,immed,46516.99995994568,Wed May 28 2025 17:10:16 GMT-0400 (Eastern Daylight Time),814168.0,A,but,I,t,180,1,700.1000000238419,813467.8999999762,9019,WL,A,7.0
7,13.633000135421753,immed,46366.99986457825,Wed May 28 2025 17:10:16 GMT-0400 (Eastern Daylight Time),814317.8999999762,A,butt,I,t,133,1,850.0,813467.8999999762,9019,WL,A,7.0
7,13.749000072479248,immed,46250.99992752075,Wed May 28 2025 17:10:16 GMT-0400 (Eastern Daylight Time),814434.6000000238,A,butto,I,o,95,1,966.7000000476837,813467.8999999762,9019,WL,A,7.0
7,13.916000127792358,immed,46083.99987220764,Wed May 28 2025 17:10:16 GMT-0400 (Eastern Daylight Time),814601.1999999881,A,button,I,n,145,1,1133.300000011921,813467.8999999762,9019,WL,A,7.0
7,14.166000127792358,immed,45833.99987220764,Wed May 28 2025 17:10:16 GMT-0400 (Eastern Daylight Time),814850.8000000119,A,buttonenter,I,enter,227,1,1382.9000000357628,813467.8999999762,9019,WL,A,7.0
7,14.416000127792358,immed,45583.99987220764,Wed May 28 2025 17:10:16 GMT-0400 (Eastern Daylight Time),815101.3999999762,A,r,I,r,230,1,250.29999995231628,814851.1000000238,9019,WL,A,8.0
7,14.58299994468689,immed,45417.00005531311,Wed May 28 2025 17:10:16 GMT-0400 (Eastern Daylight Time),815267.8999999762,A,ra,I,a,149,1,416.7999999523163,814851.1000000238,9019,WL,A,8.0
7,14.766000032424927,immed,45233.99996757507,Wed May 28 2025 17:10:16 GMT-0400 (Eastern Daylight Time),815451.1999999881,A,rat,I,t,161,1,600.0999999642372,814851.1000000238,9019,WL,A,8.0
7,14.89900016784668,immed,45100.99983215332,Wed May 28 2025 17:10:16 GMT-0400 (Eastern Daylight Time),815584.3000000119,A,ratt,I,t,121,1,733.1999999880791,814851.1000000238,9019,WL,A,8.0
7,15.065999984741211,immed,44934.00001525879,Wed May 28 2025 17:10:16 GMT-0400 (Eastern Daylight Time),815751.3000000119,A,rattl,I,l,150,1,900.1999999880791,814851.1000000238,9019,WL,A,8.0
7,15.315999984741211,immed,44684.00001525879,Wed May 28 2025 17:10:16 GMT-0400 (Eastern Daylight Time),816001.1000000238,A,rattle,I,e,220,1,1150.0,814851.1000000238,9019,WL,A,8.0
7,15.949000120162964,immed,44050.999879837036,Wed May 28 2025 17:10:16 GMT-0400 (Eastern Daylight Time),816634.1000000238,A,rattleenter,I,enter,619,1,1783.0,814851.1000000238,9019,WL,A,8.0
7,16.199000120162964,immed,43800.999879837036,Wed May 28 2025 17:10:16 GMT-0400 (Eastern Daylight Time),816884.6000000238,A,g,I,g,239,1,250.20000004768372,816634.3999999762,9019,WL,A,9.0
7,16.33299994468689,immed,43667.00005531311,Wed May 28 2025 17:10:16 GMT-0400 (Eastern Daylight Time),817018.0,A,go,I,o,112,1,383.60000002384186,816634.3999999762,9019,WL,A,9.0
7,16.499000072479248,immed,43500.99992752075,Wed May 28 2025 17:10:16 GMT-0400 (Eastern Daylight Time),817184.3999999762,A,gol,I,l,145,1,550.0,816634.3999999762,9019,WL,A,9.0
7,16.949000120162964,immed,43050.999879837036,Wed May 28 2025 17:10:16 GMT-0400 (Eastern Daylight Time),817634.6999999881,A,gold,I,d,429,1,1000.3000000119209,816634.3999999762,9019,WL,A,9.0
7,18.049000024795532,immed,41950.99997520447,Wed May 28 2025 17:10:16 GMT-0400 (Eastern Daylight Time),818734.0,A,goldenter,I,enter,1082,1,2099.600000023842,816634.3999999762,9019,WL,A,9.0
7,18.348999977111816,immed,41651.00002288818,Wed May 28 2025 17:10:16 GMT-0400 (Eastern Daylight Time),819034.6000000238,A,f,I,f,290,1,300.2000000476837,818734.3999999762,9019,WL,A,10.0
7,18.699000120162964,immed,41300.999879837036,Wed May 28 2025 17:10:16 GMT-0400 (Eastern Daylight Time),819384.6999999881,A,fi,I,i,329,1,650.3000000119209,818734.3999999762,9019,WL,A,10.0
7,18.83299994468689,immed,41167.00005531311,Wed May 28 2025 17:10:16 GMT-0400 (Eastern Daylight Time),819518.0,A,fin,I,n,117,1,783.6000000238419,818734.3999999762,9019,WL,A,10.0
7,18.881999969482422,immed,41118.00003051758,Wed May 28 2025 17:10:16 GMT-0400 (Eastern Daylight Time),819567.5,A,fing,I,g,29,1,833.1000000238419,818734.3999999762,9019,WL,A,10.0
7,19.098999977111816,immed,40901.00002288818,Wed May 28 2025 17:10:16 GMT-0400 (Eastern Daylight Time),819784.6000000238,A,finge,I,e,201,1,1050.2000000476837,818734.3999999762,9019,WL,A,10.0
7,19.183000087738037,immed,40816.99991226196,Wed May 28 2025 17:10:16 GMT-0400 (Eastern Daylight Time),819867.8999999762,A,finger,I,r,69,1,1133.5,818734.3999999762,9019,WL,A,10.0
7,19.66600012779236,immed,40333.99987220764,Wed May 28 2025 17:10:16 GMT-0400 (Eastern Daylight Time),820350.8000000119,A,fingerenter,I,enter,455,1,1616.4000000357628,818734.3999999762,9019,WL,A,10.0
7,19.949000120162964,immed,40050.999879837036,Wed May 28 2025 17:10:16 GMT-0400 (Eastern Daylight Time),820634.6000000238,A,c,I,c,273,1,283.5,820351.1000000238,9019,WL,A,11.0
7,20.133000135421753,immed,39866.99986457825,Wed May 28 2025 17:10:16 GMT-0400 (Eastern Daylight Time),820818.0,A,ch,I,h,163,1,466.89999997615814,820351.1000000238,9019,WL,A,11.0
7,20.449000120162964,immed,39550.999879837036,Wed May 28 2025 17:10:16 GMT-0400 (Eastern Daylight Time),821134.6000000238,A,chi,I,i,290,1,783.5,820351.1000000238,9019,WL,A,11.0
7,20.66600012779236,immed,39333.99987220764,Wed May 28 2025 17:10:16 GMT-0400 (Eastern Daylight Time),821351.3000000119,A,chim,I,m,190,1,1000.1999999880791,820351.1000000238,9019,WL,A,11.0
7,20.865999937057495,immed,39134.000062942505,Wed May 28 2025 17:10:16 GMT-0400 (Eastern Daylight Time),821551.1999999881,A,chimn,I,n,182,1,1200.0999999642372,820351.1000000238,9019,WL,A,11.0
7,21.133000135421753,immed,38866.99986457825,Wed May 28 2025 17:10:16 GMT-0400 (Eastern Daylight Time),821818.0,A,chimne,I,e,246,1,1466.8999999761581,820351.1000000238,9019,WL,A,11.0
7,21.633000135421753,immed,38366.99986457825,Wed May 28 2025 17:10:16 GMT-0400 (Eastern Daylight Time),822317.8999999762,A,chimney,I,y,481,1,1966.7999999523163,820351.1000000238,9019,WL,A,11.0
7,23.39900016784668,immed,36600.99983215332,Wed May 28 2025 17:10:16 GMT-0400 (Eastern Daylight Time),824084.0,A,chimneyenter,I,enter,1742,1,3732.899999976158,820351.1000000238,9019,WL,A,11.0
7,28.299000024795532,immed,31700.999975204468,Wed May 28 2025 17:10:16 GMT-0400 (Eastern Daylight Time),828984.1999999881,A,s,I,s,4893,1,4900.0,824084.1999999881,9019,WL,A,12.0
7,28.532999992370605,immed,31467.000007629395,Wed May 28 2025 17:10:16 GMT-0400 (Eastern Daylight Time),829217.8999999762,A,sa,I,a,220,1,5133.699999988079,824084.1999999881,9019,WL,A,12.0
7,29.133000135421753,immed,30866.999864578247,Wed May 28 2025 17:10:16 GMT-0400 (Eastern Daylight Time),829817.8999999762,A,sal,I,l,588,1,5733.699999988079,824084.1999999881,9019,WL,A,12.0
7,29.598999977111816,immed,30401.000022888184,Wed May 28 2025 17:10:16 GMT-0400 (Eastern Daylight Time),830284.6000000238,A,salt,I,t,452,1,6200.400000035763,824084.1999999881,9019,WL,A,12.0
7,31.549000024795532,immed,28450.999975204468,Wed May 28 2025 17:10:16 GMT-0400 (Eastern Daylight Time),832234.1000000238,A,saltenter,I,enter,1936,1,8149.900000035763,824084.1999999881,9019,WL,A,12.0
7,31.81599998474121,immed,28184.00001525879,Wed May 28 2025 17:10:16 GMT-0400 (Eastern Daylight Time),832501.3000000119,A,h,I,h,253,1,266.9000000357628,832234.3999999762,9019,WL,A,13.0
7,31.999000072479248,immed,28000.999927520752,Wed May 28 2025 17:10:16 GMT-0400 (Eastern Daylight Time),832684.6000000238,A,ha,I,a,158,1,450.2000000476837,832234.3999999762,9019,WL,A,13.0
7,32.282999992370605,immed,27717.000007629395,Wed May 28 2025 17:10:16 GMT-0400 (Eastern Daylight Time),832968.1000000238,A,har,I,r,263,1,733.7000000476837,832234.3999999762,9019,WL,A,13.0
7,32.73300004005432,immed,27266.99995994568,Wed May 28 2025 17:10:16 GMT-0400 (Eastern Daylight Time),833417.8999999762,A,harp,I,p,438,1,1183.5,832234.3999999762,9019,WL,A,13.0
7,33.56599998474121,immed,26434.00001525879,Wed May 28 2025 17:10:16 GMT-0400 (Eastern Daylight Time),834250.8999999762,A,harpenter,I,enter,811,1,2016.5,832234.3999999762,9019,WL,A,13.0
7,37.949000120162964,immed,22050.999879837036,Wed May 28 2025 17:10:16 GMT-0400 (Eastern Daylight Time),838634.6000000238,A,t,I,t,4366,1,4383.400000035763,834251.1999999881,9019,WL,A,14.0
7,38.14900016784668,immed,21850.99983215332,Wed May 28 2025 17:10:16 GMT-0400 (Eastern Daylight Time),838834.6000000238,A,tr,I,r,177,1,4583.400000035763,834251.1999999881,9019,WL,A,14.0
7,38.33299994468689,immed,21667.00005531311,Wed May 28 2025 17:10:16 GMT-0400 (Eastern Daylight Time),839017.8999999762,A,tra,I,a,172,1,4766.699999988079,834251.1999999881,9019,WL,A,14.0
7,38.449000120162964,immed,21550.999879837036,Wed May 28 2025 17:10:16 GMT-0400 (Eastern Daylight Time),839134.6000000238,A,trai,I,i,88,1,4883.400000035763,834251.1999999881,9019,WL,A,14.0
7,38.54900002479553,immed,21450.999975204468,Wed May 28 2025 17:10:16 GMT-0400 (Eastern Daylight Time),839234.1999999881,A,train,I,n,78,1,4983.0,834251.1999999881,9019,WL,A,14.0
7,39.199000120162964,immed,20800.999879837036,Wed May 28 2025 17:10:16 GMT-0400 (Eastern Daylight Time),839884.1000000238,A,trainenter,I,enter,629,1,5632.900000035763,834251.1999999881,9019,WL,A,14.0
7,60.01600003242493,immed,-16.000032424926758,Wed May 28 2025 17:10:16 GMT-0400 (Eastern Daylight Time),860701.3000000119,A,None,I,None,20810,1,20816.80000001192,839884.5,9019,WL,A,15.0
