acc_sum,block,block_c,condition,correct,correct_response,datetime,endtime,flanker,jitter,project,response,response_test_buffer_response,response_test_target_response,response_time,response_time_test_buffer_response,response_time_test_target_response,row_sel,session_number,start_end,starttime,subject_id,target,task,task_vers,time_test_buffer,time_test_buffer_response,time_test_constants,time_test_flanker,time_test_jitter,time_test_logger,time_test_target,time_test_target_response,time_test_variables,trial
0,prac,1,inc,0,z,Thu Feb 19 2026 15:02:22 GMT-0600 (Central Standard Time),202566.90000000596,cobalt,1100,I,None,,,1799,,,4,1,5158.9000000059605,197408.0,1511,raisin,NF,C,,,,,,,,,,1
0,prac,1,inc,0,z,Thu Feb 19 2026 15:02:22 GMT-0600 (Central Standard Time),205250.40000000596,iron,900,I,m,,,470,,,6,1,2675.300000011921,202575.09999999404,1511,pear,NF,C,,,,,,,,,,2
0,prac,1,inc,0,z,Thu Feb 19 2026 15:02:22 GMT-0600 (Central Standard Time),209297.69999998808,lead,1100,I,m,,,1644,,,8,1,4042.5,205255.19999998808,1511,plum,NF,C,,,,,,,,,,3
0,prac,1,inc,0,m,Thu Feb 19 2026 15:02:22 GMT-0600 (Central Standard Time),212096.90000000596,cherry,900,I,z,,,605,,,10,1,2792.2000000178814,209304.69999998808,1511,copper,NF,C,,,,,,,,,,4
1,prac,1,con,1,z,Thu Feb 19 2026 15:02:22 GMT-0600 (Central Standard Time),214795.69999998808,orange,1000,I,z,,,394,,,3,1,2691.199999988079,212104.5,1511,orange,NF,C,,,,,,,,,,5
2,prac,1,con,1,z,Thu Feb 19 2026 15:02:22 GMT-0600 (Central Standard Time),217278.69999998808,banana,800,I,z,,,375,,,1,1,2474.399999976158,214804.30000001192,1511,banana,NF,C,,,,,,,,,,6
3,prac,1,con,1,m,Thu Feb 19 2026 15:02:22 GMT-0600 (Central Standard Time),220561.30000001192,gold,800,I,m,,,1181,,,13,1,3278.600000023842,217282.69999998808,1511,gold,NF,C,,,,,,,,,,7
3,prac,1,inc,0,m,Thu Feb 19 2026 15:02:22 GMT-0600 (Central Standard Time),223476.90000000596,plum,1100,I,z,,,502,,,16,1,2908.800000011921,220568.09999999404,1511,lead,NF,C,,,,,,,,,,8
4,prac,1,con,1,z,Thu Feb 19 2026 15:02:22 GMT-0600 (Central Standard Time),225992.5,lime,800,I,z,,,418,,,5,1,2507.9000000059605,223484.59999999404,1511,lime,NF,C,,,,,,,,,,9
5,prac,1,con,1,m,Thu Feb 19 2026 15:02:22 GMT-0600 (Central Standard Time),228375.19999998808,zinc,1000,I,m,,,82,,,15,1,2375.699999988079,225999.5,1511,zinc,NF,C,,,,,,,,,,10
6,prac,1,con,1,m,Thu Feb 19 2026 15:02:22 GMT-0600 (Central Standard Time),230674.5,bronze,800,I,m,,,187,,,9,1,2291.199999988079,228383.30000001192,1511,bronze,NF,C,,,,,,,,,,11
6,prac,1,inc,0,z,Thu Feb 19 2026 15:02:22 GMT-0600 (Central Standard Time),233026.30000001192,copper,900,I,m,,,149,,,2,1,2345.4000000059605,230680.90000000596,1511,cherry,NF,C,,,,,,,,,,12
7,prac,1,con,1,m,Thu Feb 19 2026 15:02:22 GMT-0600 (Central Standard Time),235591.40000000596,silver,1000,I,m,,,250,,,11,1,2560.0999999940395,233031.30000001192,1511,silver,NF,C,,,,,,,,,,13
7,prac,1,inc,0,m,Thu Feb 19 2026 15:02:22 GMT-0600 (Central Standard Time),237972.40000000596,pear,900,I,z,,,169,,,14,1,2376.0999999940395,235596.30000001192,1511,iron,NF,C,,,,,,,,,,14
7,prac,1,con,0,z,Thu Feb 19 2026 15:02:22 GMT-0600 (Central Standard Time),243070.5,kiwi,1000,I,None,,,1816,,,7,1,5089.4000000059605,237981.09999999404,1511,kiwi,NF,C,,,,,,,,,,15
7,prac,1,inc,0,m,Thu Feb 19 2026 15:02:22 GMT-0600 (Central Standard Time),248235.90000000596,raisin,1100,I,None,,,1815,,,12,1,5161.0,243074.90000000596,1511,cobalt,NF,C,,,,,,,,,,16
0,prac,2,inc,0,z,Thu Feb 19 2026 15:02:22 GMT-0600 (Central Standard Time),256849.69999998808,cobalt,1100,I,m,,,531,,,4,1,2928.5,253921.19999998808,1511,raisin,NF,C,,,,,,,,,,1
1,prac,2,con,1,z,Thu Feb 19 2026 15:02:22 GMT-0600 (Central Standard Time),259582.40000000596,lime,800,I,z,,,616,,,5,1,2727.5,256854.90000000596,1511,lime,NF,C,,,,,,,,,,2
2,prac,2,con,1,z,Thu Feb 19 2026 15:02:22 GMT-0600 (Central Standard Time),262214.40000000596,banana,800,I,z,,,542,,,1,1,2627.7000000178814,259586.69999998808,1511,banana,NF,C,,,,,,,,,,3
2,prac,2,con,0,m,Thu Feb 19 2026 15:02:22 GMT-0600 (Central Standard Time),264680.8000000119,gold,800,I,z,,,381,,,13,1,2460.9000000059605,262219.90000000596,1511,gold,NF,C,,,,,,,,,,4
3,prac,2,con,1,m,Thu Feb 19 2026 15:02:22 GMT-0600 (Central Standard Time),267248.90000000596,zinc,1000,I,m,,,251,,,15,1,2565.2000000178814,264683.6999999881,1511,zinc,NF,C,,,,,,,,,,5
3,prac,2,inc,0,z,Thu Feb 19 2026 15:02:22 GMT-0600 (Central Standard Time),269762.90000000596,copper,900,I,m,,,304,,,2,1,2508.4000000059605,267254.5,1511,cherry,NF,C,,,,,,,,,,6
3,prac,2,inc,0,z,Thu Feb 19 2026 15:02:22 GMT-0600 (Central Standard Time),272328.3000000119,iron,900,I,m,,,365,,,6,1,2561.2000000178814,269767.09999999404,1511,pear,NF,C,,,,,,,,,,7
4,prac,2,inc,1,m,Thu Feb 19 2026 15:02:22 GMT-0600 (Central Standard Time),275176.40000000596,cherry,900,I,m,,,649,,,10,1,2843.9000000059605,272332.5,1511,copper,NF,C,,,,,,,,,,8
5,prac,2,con,1,m,Thu Feb 19 2026 15:02:22 GMT-0600 (Central Standard Time),278076.5,silver,1000,I,m,,,586,,,11,1,2897.0999999940395,275179.40000000596,1511,silver,NF,C,,,,,,,,,,9
5,prac,2,inc,0,z,Thu Feb 19 2026 15:02:22 GMT-0600 (Central Standard Time),280994.5,lead,1100,I,m,,,500,,,8,1,2911.9000000059605,278082.59999999404,1511,plum,NF,C,,,,,,,,,,10
5,prac,2,con,0,z,Thu Feb 19 2026 15:02:22 GMT-0600 (Central Standard Time),283790.8000000119,kiwi,1000,I,m,,,499,,,7,1,2791.9000000059605,280998.90000000596,1511,kiwi,NF,C,,,,,,,,,,11
6,prac,2,con,1,m,Thu Feb 19 2026 15:02:22 GMT-0600 (Central Standard Time),286140.40000000596,bronze,800,I,m,,,237,,,9,1,2344.2000000178814,283796.1999999881,1511,bronze,NF,C,,,,,,,,,,12
6,prac,2,inc,0,m,Thu Feb 19 2026 15:02:22 GMT-0600 (Central Standard Time),288738.5,raisin,1100,I,z,,,185,,,12,1,2594.300000011921,286144.1999999881,1511,cobalt,NF,C,,,,,,,,,,13
6,prac,2,con,0,z,Thu Feb 19 2026 15:02:22 GMT-0600 (Central Standard Time),291505.5,orange,1000,I,m,,,463,,,3,1,2762.300000011921,288743.1999999881,1511,orange,NF,C,,,,,,,,,,14
7,prac,2,inc,1,m,Thu Feb 19 2026 15:02:22 GMT-0600 (Central Standard Time),294820.90000000596,plum,1100,I,m,,,918,,,16,1,3310.300000011921,291510.59999999404,1511,lead,NF,C,,,,,,,,,,15
8,prac,2,inc,1,m,Thu Feb 19 2026 15:02:22 GMT-0600 (Central Standard Time),297504.0,pear,900,I,m,,,466,,,14,1,2679.0,294825.0,1511,iron,NF,C,,,,,,,,,,16
0,test,1,inc,0,z,Thu Feb 19 2026 15:02:22 GMT-0600 (Central Standard Time),331375.8000000119,lead,1100,I,m,m,None,589,376.0,213.0,40,1,2227.7000000178814,329148.09999999404,1511,lime,NF,C,325959,325959,324114,325226,324114,326342,325745,325745,326342,1
1,test,1,con,1,z,Thu Feb 19 2026 15:02:22 GMT-0600 (Central Standard Time),333442.59999999404,orange,1100,I,z,z,None,440,241.0,199.0,20,1,2061.4000000059605,331381.1999999881,1511,orange,NF,C,328158,328158,326347,327457,326347,328409,327958,327958,328409,2
2,test,1,con,1,m,Thu Feb 19 2026 15:02:22 GMT-0600 (Central Standard Time),335540.8000000119,silver,1100,I,m,m,None,476,261.0,215.0,84,1,2093.7000000178814,333447.09999999404,1511,silver,NF,C,330241,330241,328413,329524,328413,330507,330026,330026,330507,3
3,test,1,con,1,m,Thu Feb 19 2026 15:02:22 GMT-0600 (Central Standard Time),337673.90000000596,zinc,1100,I,m,m,None,499,299.0,200.0,116,1,2130.300000011921,335543.59999999404,1511,zinc,NF,C,332340,332340,330510,331625,330510,332640,332139,332140,332640,4
4,test,1,inc,1,z,Thu Feb 19 2026 15:02:22 GMT-0600 (Central Standard Time),339858.90000000596,cobalt,1100,I,z,z,None,533,334.0,199.0,8,1,2181.300000011921,337677.59999999404,1511,banana,NF,C,334473,334473,332644,333757,332644,334825,334274,334274,334825,5
5,test,1,inc,1,m,Thu Feb 19 2026 15:02:22 GMT-0600 (Central Standard Time),341855.5,kiwi,1000,I,m,m,None,458,258.0,200.0,111,1,1990.5,339865.0,1511,iron,NF,C,336556,336556,334831,335839,334831,336822,336355,336355,336822,6
6,test,1,con,1,z,Thu Feb 19 2026 15:02:22 GMT-0600 (Central Standard Time),343688.6999999881,banana,900,I,z,z,None,389,190.0,199.0,2,1,1829.0999999940395,341859.59999999404,1511,banana,NF,C,338456,338456,336826,337738,336826,338655,338256,338256,338655,7
7,test,1,inc,1,m,Thu Feb 19 2026 15:02:22 GMT-0600 (Central Standard Time),345687.0,orange,1000,I,m,m,None,457,258.0,199.0,87,1,1995.199999988079,343691.8000000119,1511,silver,NF,C,340388,340388,338658,339672,338658,340653,340188,340188,340653,8
7,test,1,inc,0,z,Thu Feb 19 2026 15:02:22 GMT-0600 (Central Standard Time),347455.90000000596,gold,800,I,m,m,None,418,219.0,199.0,37,1,1764.300000011921,345691.59999999404,1511,lime,NF,C,342187,342187,340658,341471,340658,342422,341988,341988,342422,9
8,test,1,inc,1,m,Thu Feb 19 2026 15:02:22 GMT-0600 (Central Standard Time),349621.40000000596,raisin,1100,I,m,m,None,522,323.0,199.0,72,1,2160.2000000178814,347461.1999999881,1511,bronze,NF,C,344253,344253,342427,343541,342428,344587,344054,344054,344587,10
9,test,1,inc,1,z,Thu Feb 19 2026 15:02:22 GMT-0600 (Central Standard Time),351403.8000000119,bronze,800,I,z,z,None,462,246.0,216.0,21,1,1776.1000000238419,349627.6999999881,1511,orange,NF,C,346121,346121,344594,345403,344594,346370,345905,345905,346370,11
10,test,1,con,1,z,Thu Feb 19 2026 15:02:22 GMT-0600 (Central Standard Time),353253.0,cherry,900,I,z,z,None,405,203.0,202.0,10,1,1846.4000000059605,351406.59999999404,1511,cherry,NF,C,348004,348004,346373,347286,346373,348219,347802,347802,348219,12
10,test,1,inc,0,m,Thu Feb 19 2026 15:02:22 GMT-0600 (Central Standard Time),355337.40000000596,raisin,1100,I,z,z,None,435,235.0,200.0,80,1,2078.0999999940395,353259.3000000119,1511,copper,NF,C,350053,350053,348225,349335,348226,350303,349852,349852,350303,13
11,test,1,inc,1,m,Thu Feb 19 2026 15:02:22 GMT-0600 (Central Standard Time),357367.59999999404,cherry,900,I,m,m,None,584,384.0,200.0,78,1,2025.9000000059605,355341.6999999881,1511,copper,NF,C,351934,351934,350308,351219,350308,352334,351734,351734,352334,14
12,test,1,con,1,m,Thu Feb 19 2026 15:02:22 GMT-0600 (Central Standard Time),359303.1999999881,silver,1000,I,m,m,None,395,196.0,199.0,83,1,1932.0999999940395,357371.09999999404,1511,silver,NF,C,354067,354067,352337,353352,352337,354269,353867,353867,354269,15
13,test,1,con,1,z,Thu Feb 19 2026 15:02:22 GMT-0600 (Central Standard Time),361066.0,raisin,800,I,z,z,None,432,233.0,199.0,25,1,1760.199999988079,359305.8000000119,1511,raisin,NF,C,355783,355783,354272,355082,354272,356032,355584,355584,356032,16
14,test,1,con,1,z,Thu Feb 19 2026 15:02:22 GMT-0600 (Central Standard Time),363132.6999999881,banana,1100,I,z,z,None,429,230.0,199.0,4,1,2060.399999976158,361072.3000000119,1511,banana,NF,C,357865,357865,356038,357150,356039,358099,357666,357666,358099,17
15,test,1,inc,1,z,Thu Feb 19 2026 15:02:22 GMT-0600 (Central Standard Time),365017.09999999404,bronze,800,I,z,z,None,535,336.0,199.0,13,1,1880.2999999821186,363136.8000000119,1511,cherry,NF,C,359631,359631,358103,358915,358103,359983,359432,359432,359983,18
16,test,1,con,1,m,Thu Feb 19 2026 15:02:22 GMT-0600 (Central Standard Time),366881.59999999404,copper,800,I,m,m,None,532,332.0,200.0,73,1,1860.4000000059605,365021.1999999881,1511,copper,NF,C,361515,361515,359987,360799,359987,361848,361314,361314,361848,19
17,test,1,inc,1,z,Thu Feb 19 2026 15:02:22 GMT-0600 (Central Standard Time),368946.6999999881,zinc,1000,I,z,z,None,528,328.0,200.0,55,1,2060.399999976158,366886.3000000119,1511,kiwi,NF,C,363581,363582,361852,362864,361853,363913,363381,363381,363913,20
18,test,1,con,1,z,Thu Feb 19 2026 15:02:22 GMT-0600 (Central Standard Time),370946.3000000119,orange,900,I,z,z,None,580,381.0,199.0,18,1,1996.7000000178814,368949.59999999404,1511,orange,NF,C,365529,365530,363916,364829,363916,365912,365330,365330,365912,21
19,test,1,inc,1,m,Thu Feb 19 2026 15:02:22 GMT-0600 (Central Standard Time),372862.5,pear,900,I,m,m,None,467,267.0,200.0,102,1,1910.9000000059605,370951.59999999404,1511,gold,NF,C,367547,367547,365918,366830,365918,367829,367346,367346,367828,22
20,test,1,con,1,m,Thu Feb 19 2026 15:02:22 GMT-0600 (Central Standard Time),374660.90000000596,lead,800,I,m,m,None,452,252.0,200.0,121,1,1793.800000011921,372867.09999999404,1511,lead,NF,C,369362,369362,367833,368647,367833,369627,369162,369162,369627,23
21,test,1,inc,1,m,Thu Feb 19 2026 15:02:22 GMT-0600 (Central Standard Time),376661.59999999404,cherry,900,I,m,m,None,566,352.0,214.0,94,1,1997.7999999821186,374663.8000000119,1511,cobalt,NF,C,371262,371262,369630,370545,369630,371628,371047,371047,371628,24
22,test,1,inc,1,m,Thu Feb 19 2026 15:02:22 GMT-0600 (Central Standard Time),378662.5,lime,800,I,m,m,None,662,461.0,201.0,125,1,1997.5999999940395,376664.90000000596,1511,lead,NF,C,373162,373162,371631,372448,371631,373629,372960,372960,373628,25
23,test,1,inc,1,z,Thu Feb 19 2026 15:02:22 GMT-0600 (Central Standard Time),380578.5,copper,900,I,z,z,None,466,266.0,200.0,30,1,1911.300000011921,378667.1999999881,1511,raisin,NF,C,375260,375260,373633,374544,373634,375545,375060,375060,375544,26
24,test,1,con,1,z,Thu Feb 19 2026 15:02:22 GMT-0600 (Central Standard Time),382428.0,plum,900,I,z,z,None,416,216.0,200.0,58,1,1844.699999988079,380583.3000000119,1511,plum,NF,C,377176,377176,375549,376459,375550,377394,376976,376976,377394,27
25,test,1,inc,1,z,Thu Feb 19 2026 15:02:22 GMT-0600 (Central Standard Time),384542.0,silver,1000,I,z,z,None,571,370.0,201.0,23,1,2110.0999999940395,382431.90000000596,1511,orange,NF,C,379125,379125,377398,378408,377398,379508,378924,378924,379508,28
26,test,1,inc,1,z,Thu Feb 19 2026 15:02:22 GMT-0600 (Central Standard Time),386609.0,copper,900,I,z,z,None,625,425.0,200.0,14,1,2061.300000011921,384547.6999999881,1511,cherry,NF,C,381142,381142,379514,380425,379514,381575,380941,380941,381575,29
27,test,1,con,1,m,Thu Feb 19 2026 15:02:22 GMT-0600 (Central Standard Time),388474.8000000119,bronze,900,I,m,m,None,448,231.0,217.0,66,1,1859.9000000059605,386614.90000000596,1511,bronze,NF,C,383210,383210,381581,382490,381581,383441,382993,382993,383441,30
28,test,1,inc,1,z,Thu Feb 19 2026 15:02:22 GMT-0600 (Central Standard Time),390423.0,copper,900,I,z,z,None,508,293.0,215.0,6,1,1944.4000000059605,388478.59999999404,1511,banana,NF,C,385090,385090,383445,384357,383445,385389,384875,384875,385389,31
28,test,1,inc,0,z,Thu Feb 19 2026 15:02:22 GMT-0600 (Central Standard Time),392507.3000000119,lead,1100,I,m,m,None,452,251.0,201.0,56,1,2080.800000011921,390426.5,1511,kiwi,NF,C,387222,387222,385393,386506,385393,387473,387021,387021,387473,32
29,test,1,inc,1,m,Thu Feb 19 2026 15:02:22 GMT-0600 (Central Standard Time),394638.40000000596,banana,800,I,m,m,None,801,601.0,200.0,85,1,2126.5999999940395,392511.8000000119,1511,silver,NF,C,388989,388989,387478,388288,387478,389605,388789,388789,389604,33
30,test,1,con,1,z,Thu Feb 19 2026 15:02:22 GMT-0600 (Central Standard Time),396738.5,pear,1000,I,z,z,None,557,357.0,200.0,43,1,2094.699999988079,394643.8000000119,1511,pear,NF,C,391338,391338,389610,390621,389610,391705,391138,391138,391705,34
31,test,1,con,1,m,Thu Feb 19 2026 15:02:22 GMT-0600 (Central Standard Time),398537.8000000119,gold,800,I,m,m,None,467,266.0,201.0,97,1,1796.2000000178814,396741.59999999404,1511,gold,NF,C,393238,393238,391708,392522,391708,393504,393037,393037,393504,35
32,test,1,inc,1,z,Thu Feb 19 2026 15:02:22 GMT-0600 (Central Standard Time),400804.3000000119,silver,1000,I,z,z,None,733,534.0,199.0,7,1,2263.300000011921,398541.0,1511,banana,NF,C,395236,395236,393507,394520,393507,395770,395037,395037,395770,36
33,test,1,con,1,z,Thu Feb 19 2026 15:02:22 GMT-0600 (Central Standard Time),402769.8000000119,kiwi,1000,I,z,z,None,422,223.0,199.0,51,1,1962.1000000238419,400807.6999999881,1511,kiwi,NF,C,397504,397504,395774,396786,395774,397736,397305,397305,397736,37
34,test,1,con,1,m,Thu Feb 19 2026 15:02:22 GMT-0600 (Central Standard Time),404736.3000000119,copper,1100,I,m,m,None,347,133.0,214.0,76,1,1963.4000000059605,402772.90000000596,1511,copper,NF,C,399569,399569,397739,398852,397739,399702,399355,399355,399702,38
35,test,1,con,1,m,Thu Feb 19 2026 15:02:22 GMT-0600 (Central Standard Time),406971.3000000119,cobalt,900,I,m,m,None,806,591.0,215.0,90,1,2231.4000000059605,404739.90000000596,1511,cobalt,NF,C,401335,401335,399706,400618,399706,401937,401120,401120,401937,39
36,test,1,con,1,z,Thu Feb 19 2026 15:02:22 GMT-0600 (Central Standard Time),408950.59999999404,cherry,1000,I,z,z,None,434,234.0,200.0,11,1,1976.199999988079,406974.40000000596,1511,cherry,NF,C,403668,403668,401940,402952,401941,403917,403467,403467,403917,40
37,test,1,con,1,z,Thu Feb 19 2026 15:02:22 GMT-0600 (Central Standard Time),410968.09999999404,lime,1000,I,z,z,None,476,276.0,200.0,35,1,2013.0999999940395,408955.0,1511,lime,NF,C,405651,405651,403921,404933,403921,405934,405451,405451,405934,41
38,test,1,con,1,z,Thu Feb 19 2026 15:02:22 GMT-0600 (Central Standard Time),412965.8000000119,lime,1100,I,z,z,None,360,161.0,199.0,36,1,1992.5,410973.3000000119,1511,lime,NF,C,407766,407766,405939,407051,405939,407932,407566,407566,407932,42
39,test,1,con,1,m,Thu Feb 19 2026 15:02:22 GMT-0600 (Central Standard Time),414731.09999999404,cobalt,800,I,m,m,None,429,229.0,200.0,89,1,1762.0,412969.09999999404,1511,cobalt,NF,C,409466,409466,407935,408750,407935,409697,409265,409265,409697,43
40,test,1,con,1,z,Thu Feb 19 2026 15:02:22 GMT-0600 (Central Standard Time),416483.40000000596,orange,800,I,z,z,None,405,206.0,199.0,17,1,1748.5,414734.90000000596,1511,orange,NF,C,411232,411232,409701,410516,409701,411449,411033,411033,411449,44
41,test,1,con,1,z,Thu Feb 19 2026 15:02:22 GMT-0600 (Central Standard Time),418331.8000000119,kiwi,900,I,z,z,None,430,214.0,216.0,50,1,1844.800000011921,416487.0,1511,kiwi,NF,C,413082,413082,411453,412365,411453,413298,412866,412866,413298,45
42,test,1,con,1,z,Thu Feb 19 2026 15:02:22 GMT-0600 (Central Standard Time),420348.90000000596,raisin,1100,I,z,z,None,382,181.0,201.0,28,1,2013.9000000059605,418335.0,1511,raisin,NF,C,415131,415131,413301,414415,413301,415315,414930,414930,415315,46
43,test,1,con,1,m,Thu Feb 19 2026 15:02:22 GMT-0600 (Central Standard Time),422264.6999999881,iron,1000,I,m,m,None,368,169.0,199.0,107,1,1912.8999999761581,420351.8000000119,1511,iron,NF,C,417046,417046,415318,416330,415318,417231,416847,416847,417231,47
44,test,1,inc,1,z,Thu Feb 19 2026 15:02:22 GMT-0600 (Central Standard Time),424179.1999999881,bronze,800,I,z,z,None,582,367.0,215.0,5,1,1909.5,422269.6999999881,1511,banana,NF,C,418778,418778,417236,418049,417236,419145,418563,418563,419145,48
45,test,1,inc,1,z,Thu Feb 19 2026 15:02:22 GMT-0600 (Central Standard Time),426245.09999999404,iron,900,I,z,z,None,620,421.0,199.0,62,1,2063.4000000059605,424181.6999999881,1511,plum,NF,C,420778,420778,419148,420064,419148,421211,420579,420579,421211,49
46,test,1,con,1,m,Thu Feb 19 2026 15:02:22 GMT-0600 (Central Standard Time),428345.1999999881,cobalt,1000,I,m,m,None,547,333.0,214.0,91,1,2095.5999999940395,426249.59999999404,1511,cobalt,NF,C,422962,422962,421216,422227,421216,423311,422748,422748,423311,50
47,test,1,con,1,z,Thu Feb 19 2026 15:02:22 GMT-0600 (Central Standard Time),430211.90000000596,kiwi,800,I,z,z,None,522,322.0,200.0,49,1,1861.0999999940395,428350.8000000119,1511,kiwi,NF,C,424845,424845,423317,424128,423317,425178,424645,424645,425178,51
48,test,1,inc,1,z,Thu Feb 19 2026 15:02:22 GMT-0600 (Central Standard Time),432161.5,silver,1000,I,z,z,None,416,214.0,202.0,31,1,1945.9000000059605,430215.59999999404,1511,raisin,NF,C,426913,426913,425182,426195,425182,427128,426710,426710,427128,52
49,test,1,con,1,z,Thu Feb 19 2026 15:02:22 GMT-0600 (Central Standard Time),434126.0,orange,1000,I,z,z,None,427,228.0,199.0,19,1,1958.199999988079,432167.8000000119,1511,orange,NF,C,428859,428859,427134,428143,427134,429092,428660,428660,429092,53
50,test,1,inc,1,m,Thu Feb 19 2026 15:02:22 GMT-0600 (Central Standard Time),436025.6999999881,cherry,900,I,m,m,None,465,265.0,200.0,70,1,1896.8999999761581,434128.8000000119,1511,bronze,NF,C,430725,430725,429095,430009,429095,430992,430525,430525,430992,54
51,test,1,inc,1,z,Thu Feb 19 2026 15:02:22 GMT-0600 (Central Standard Time),438025.3000000119,iron,900,I,z,z,None,567,368.0,199.0,46,1,1996.0,436029.3000000119,1511,pear,NF,C,432608,432608,430995,431908,430996,432991,432409,432409,432991,55
52,test,1,inc,1,m,Thu Feb 19 2026 15:02:22 GMT-0600 (Central Standard Time),440075.3000000119,kiwi,1000,I,m,m,None,516,315.0,201.0,119,1,2044.4000000059605,438030.90000000596,1511,zinc,NF,C,434725,434725,432997,434007,432997,435041,434524,434524,435041,56
53,test,1,con,1,m,Thu Feb 19 2026 15:02:22 GMT-0600 (Central Standard Time),441975.1999999881,copper,900,I,m,m,None,453,254.0,199.0,74,1,1896.8999999761581,440078.3000000119,1511,copper,NF,C,436673,436673,435044,435957,435044,436941,436474,436474,436941,57
54,test,1,inc,1,m,Thu Feb 19 2026 15:02:22 GMT-0600 (Central Standard Time),444040.5,plum,1100,I,m,m,None,418,217.0,201.0,112,1,2062.0999999940395,441978.40000000596,1511,iron,NF,C,438774,438774,436944,438057,436945,439007,438573,438573,439007,58
55,test,1,inc,1,m,Thu Feb 19 2026 15:02:22 GMT-0600 (Central Standard Time),445988.6999999881,banana,800,I,m,m,None,603,404.0,199.0,77,1,1942.0999999940395,444046.59999999404,1511,copper,NF,C,440539,440539,439013,439822,439013,440955,440340,440340,440955,59
56,test,1,con,1,m,Thu Feb 19 2026 15:02:22 GMT-0600 (Central Standard Time),447905.3000000119,lead,1000,I,m,m,None,382,183.0,199.0,123,1,1913.4000000059605,445991.90000000596,1511,lead,NF,C,442688,442688,440958,441972,440958,442871,442489,442489,442871,60
57,test,1,inc,1,m,Thu Feb 19 2026 15:02:22 GMT-0600 (Central Standard Time),449887.6999999881,kiwi,1000,I,m,m,None,443,243.0,200.0,103,1,1975.8999999761581,447911.8000000119,1511,gold,NF,C,444604,444604,442878,443888,442878,444854,444404,444404,444854,61
58,test,1,con,1,z,Thu Feb 19 2026 15:02:22 GMT-0600 (Central Standard Time),451903.90000000596,banana,1000,I,z,z,None,468,268.0,200.0,3,1,2010.800000011921,449893.09999999404,1511,banana,NF,C,446587,446587,444859,445871,444859,446870,446386,446386,446870,62
59,test,1,con,1,z,Thu Feb 19 2026 15:02:22 GMT-0600 (Central Standard Time),453620.40000000596,banana,800,I,z,z,None,380,180.0,200.0,1,1,1709.2000000178814,451911.1999999881,1511,banana,NF,C,448403,448403,446877,447686,446878,448586,448203,448203,448586,63
60,test,1,con,1,z,Thu Feb 19 2026 15:02:22 GMT-0600 (Central Standard Time),455820.6999999881,kiwi,1100,I,z,z,None,563,349.0,214.0,52,1,2194.5999999940395,453626.09999999404,1511,kiwi,NF,C,450420,450420,448592,449702,448592,450787,450205,450205,450787,64
60,test,1,inc,0,z,Thu Feb 19 2026 15:02:22 GMT-0600 (Central Standard Time),457735.6999999881,bronze,800,I,m,m,None,575,376.0,199.0,29,1,1907.2999999821186,455828.40000000596,1511,raisin,NF,C,452319,452319,450794,451603,450795,452702,452119,452119,452702,65
61,test,1,inc,1,z,Thu Feb 19 2026 15:02:22 GMT-0600 (Central Standard Time),459818.1999999881,silver,1000,I,z,z,None,548,348.0,200.0,15,1,2078.0999999940395,457740.09999999404,1511,cherry,NF,C,454435,454435,452706,453719,452706,454784,454234,454234,454784,66
62,test,1,inc,1,m,Thu Feb 19 2026 15:02:22 GMT-0600 (Central Standard Time),461901.0,orange,1000,I,m,m,None,546,346.0,200.0,95,1,2078.0999999940395,459822.90000000596,1511,cobalt,NF,C,456517,456517,454789,455801,454789,456867,456317,456317,456867,67
63,test,1,inc,1,z,Thu Feb 19 2026 15:02:22 GMT-0600 (Central Standard Time),464100.5,cobalt,1100,I,z,z,None,562,358.0,204.0,16,1,2196.199999988079,461904.3000000119,1511,cherry,NF,C,458705,458705,456870,457983,456871,459067,458501,458501,459067,68
64,test,1,inc,1,z,Thu Feb 19 2026 15:02:22 GMT-0600 (Central Standard Time),466449.8000000119,lead,1100,I,z,z,None,707,506.0,201.0,48,1,2343.0,464106.8000000119,1511,pear,NF,C,460901,460901,459073,460183,459073,461416,460699,460699,461416,69
65,test,1,con,1,z,Thu Feb 19 2026 15:02:22 GMT-0600 (Central Standard Time),468348.3000000119,pear,800,I,z,z,None,561,343.0,218.0,41,1,1894.1000000238419,466454.1999999881,1511,pear,NF,C,462968,462968,461420,462232,461421,463314,462750,462750,463314,70
66,test,1,inc,1,m,Thu Feb 19 2026 15:02:22 GMT-0600 (Central Standard Time),470514.59999999404,raisin,1100,I,m,m,None,531,331.0,200.0,88,1,2157.2999999821186,468357.3000000119,1511,silver,NF,C,465148,465148,463323,464433,463324,465481,464948,464948,465481,71
67,test,1,inc,1,m,Thu Feb 19 2026 15:02:22 GMT-0600 (Central Standard Time),472430.3000000119,banana,800,I,m,m,None,568,367.0,201.0,93,1,1908.9000000059605,470521.40000000596,1511,cobalt,NF,C,467015,467015,465487,466298,465488,467396,466814,466814,467396,72
68,test,1,inc,1,m,Thu Feb 19 2026 15:02:22 GMT-0600 (Central Standard Time),474396.90000000596,pear,900,I,m,m,None,536,337.0,199.0,110,1,1960.9000000059605,472436.0,1511,iron,NF,C,469013,469014,467402,468313,467402,469363,468814,468814,469363,73
69,test,1,inc,1,m,Thu Feb 19 2026 15:02:22 GMT-0600 (Central Standard Time),476297.09999999404,pear,900,I,m,m,None,451,251.0,200.0,118,1,1894.0999999940395,474403.0,1511,zinc,NF,C,470996,470996,469369,470280,469369,471263,470796,470796,471263,74
70,test,1,con,1,m,Thu Feb 19 2026 15:02:22 GMT-0600 (Central Standard Time),478145.40000000596,iron,800,I,m,m,None,515,315.0,200.0,105,1,1841.9000000059605,476303.5,1511,iron,NF,C,472795,472795,471270,472079,471270,473112,472595,472595,473111,75
71,test,1,con,1,m,Thu Feb 19 2026 15:02:22 GMT-0600 (Central Standard Time),480277.90000000596,iron,1100,I,m,m,None,493,277.0,216.0,108,1,2130.0,478147.90000000596,1511,iron,NF,C,474962,474962,473114,474229,473114,475244,474746,474746,475244,76
72,test,1,inc,1,z,Thu Feb 19 2026 15:02:22 GMT-0600 (Central Standard Time),482312.59999999404,iron,900,I,z,z,None,585,383.0,202.0,38,1,2030.4000000059605,480282.1999999881,1511,lime,NF,C,476879,476879,475248,476161,475249,477279,476677,476677,477279,77
73,test,1,con,1,z,Thu Feb 19 2026 15:02:22 GMT-0600 (Central Standard Time),484160.0,lime,800,I,z,z,None,508,309.0,199.0,33,1,1842.4000000059605,482317.59999999404,1511,lime,NF,C,478811,478811,477284,478094,477284,479126,478611,478611,479126,78
74,test,1,inc,1,z,Thu Feb 19 2026 15:02:22 GMT-0600 (Central Standard Time),486076.3000000119,gold,800,I,z,z,None,579,380.0,199.0,61,1,1912.9000000059605,484163.40000000596,1511,plum,NF,C,480659,480659,479129,479943,479130,481043,480460,480460,481042,79
75,test,1,con,1,z,Thu Feb 19 2026 15:02:22 GMT-0600 (Central Standard Time),488043.1999999881,plum,1000,I,z,z,None,431,231.0,200.0,59,1,1962.8999999761581,486080.3000000119,1511,plum,NF,C,482776,482776,481046,482060,481047,483009,482575,482575,483009,80
76,test,1,inc,1,m,Thu Feb 19 2026 15:02:22 GMT-0600 (Central Standard Time),489925.0,lime,800,I,m,m,None,545,345.0,200.0,117,1,1875.9000000059605,488049.09999999404,1511,zinc,NF,C,484542,484542,483015,483824,483015,484891,484342,484342,484891,81
76,test,1,inc,0,m,Thu Feb 19 2026 15:02:22 GMT-0600 (Central Standard Time),493557.8000000119,plum,1100,I,None,None,None,1800,1800.0,200.0,104,1,3626.800000011921,489931.0,1511,gold,NF,C,486724,486724,484897,486009,484897,488524,486524,486524,488524,82
77,test,1,inc,1,m,Thu Feb 19 2026 15:02:22 GMT-0600 (Central Standard Time),495673.6999999881,lime,800,I,m,m,None,783,583.0,200.0,101,1,2111.5999999940395,493562.09999999404,1511,gold,NF,C,490056,490056,488528,489341,488528,490640,489856,489856,490640,83
78,test,1,inc,1,z,Thu Feb 19 2026 15:02:22 GMT-0600 (Central Standard Time),497939.0,cobalt,1100,I,z,z,None,622,421.0,201.0,32,1,2261.0,495678.0,1511,raisin,NF,C,492473,492473,490644,491756,490644,492905,492272,492272,492905,84
79,test,1,con,1,m,Thu Feb 19 2026 15:02:22 GMT-0600 (Central Standard Time),500154.8000000119,lead,1100,I,m,m,None,573,373.0,200.0,124,1,2212.300000011921,497942.5,1511,lead,NF,C,494739,494739,492909,494022,492909,495121,494538,494538,495121,85
80,test,1,con,1,m,Thu Feb 19 2026 15:02:22 GMT-0600 (Central Standard Time),501905.5,zinc,800,I,m,m,None,417,215.0,202.0,113,1,1746.0,500159.5,1511,zinc,NF,C,496656,496656,495126,495939,495126,496872,496454,496454,496872,86
81,test,1,con,1,m,Thu Feb 19 2026 15:02:22 GMT-0600 (Central Standard Time),504020.59999999404,gold,1100,I,m,m,None,479,280.0,199.0,100,1,2109.5999999940395,501911.0,1511,gold,NF,C,498703,498703,496877,497988,496877,498987,498504,498504,498987,87
82,test,1,con,1,m,Thu Feb 19 2026 15:02:22 GMT-0600 (Central Standard Time),505937.8000000119,bronze,800,I,m,m,None,584,384.0,200.0,65,1,1914.4000000059605,504023.40000000596,1511,bronze,NF,C,500520,500520,498989,499804,498990,500904,500320,500320,500904,88
83,test,1,con,1,z,Thu Feb 19 2026 15:02:22 GMT-0600 (Central Standard Time),508003.0,raisin,900,I,z,z,None,623,423.0,200.0,26,1,2058.9000000059605,505944.09999999404,1511,raisin,NF,C,502537,502537,500910,501820,500910,502969,502336,502336,502969,89
84,test,1,con,1,m,Thu Feb 19 2026 15:02:22 GMT-0600 (Central Standard Time),510035.5,iron,900,I,m,m,None,599,400.0,199.0,106,1,2029.9000000059605,508005.59999999404,1511,iron,NF,C,504601,504601,502972,503886,502972,505002,504402,504402,505002,90
85,test,1,inc,1,z,Thu Feb 19 2026 15:02:22 GMT-0600 (Central Standard Time),511967.6999999881,copper,900,I,z,z,None,501,302.0,199.0,22,1,1928.5999999940395,510039.09999999404,1511,orange,NF,C,506616,506616,505005,505908,505005,506934,506417,506417,506934,91
86,test,1,con,1,m,Thu Feb 19 2026 15:02:22 GMT-0600 (Central Standard Time),514183.6999999881,gold,1000,I,m,m,None,675,475.0,200.0,99,1,2211.0,511972.6999999881,1511,gold,NF,C,508668,508668,506939,507952,506939,509150,508467,508467,509150,92
87,test,1,inc,1,m,Thu Feb 19 2026 15:02:22 GMT-0600 (Central Standard Time),516266.8000000119,orange,1000,I,m,m,None,540,339.0,201.0,71,1,2078.800000011921,514188.0,1511,bronze,NF,C,510884,510884,509154,510167,509154,511233,510682,510682,511233,93
88,test,1,inc,1,m,Thu Feb 19 2026 15:02:22 GMT-0600 (Central Standard Time),518448.90000000596,orange,1000,I,m,m,None,649,448.0,201.0,79,1,2179.300000011921,516269.59999999404,1511,copper,NF,C,512967,512967,511236,512251,511236,513415,512766,512766,513415,94
89,test,1,con,1,m,Thu Feb 19 2026 15:02:22 GMT-0600 (Central Standard Time),520465.1999999881,bronze,1000,I,m,m,None,465,264.0,201.0,67,1,2011.2999999821186,518453.90000000596,1511,bronze,NF,C,515151,515151,513420,514433,513420,515431,514950,514950,515431,95
90,test,1,inc,1,z,Thu Feb 19 2026 15:02:22 GMT-0600 (Central Standard Time),522414.90000000596,zinc,1000,I,z,z,None,426,227.0,199.0,47,1,1945.5999999940395,520469.3000000119,1511,pear,NF,C,517148,517148,515435,516448,515436,517381,516949,516949,517381,96
91,test,1,con,1,m,Thu Feb 19 2026 15:02:22 GMT-0600 (Central Standard Time),524615.3000000119,bronze,1100,I,m,m,None,553,352.0,201.0,68,1,2197.4000000059605,522417.90000000596,1511,bronze,NF,C,519214,519214,517384,518497,517384,519581,519013,519013,519581,97
92,test,1,inc,1,m,Thu Feb 19 2026 15:02:22 GMT-0600 (Central Standard Time),526748.0,kiwi,1000,I,m,m,None,599,400.0,199.0,127,1,2128.199999988079,524619.8000000119,1511,lead,NF,C,521314,521314,519586,520597,519586,521714,521114,521114,521714,98
93,test,1,inc,1,m,Thu Feb 19 2026 15:02:22 GMT-0600 (Central Standard Time),528995.6999999881,lime,800,I,m,m,None,918,703.0,215.0,109,1,2243.699999988079,526752.0,1511,iron,NF,C,523247,523247,521718,522529,521718,523962,523031,523031,523962,99
94,test,1,inc,1,m,Thu Feb 19 2026 15:02:22 GMT-0600 (Central Standard Time),530979.900000006,cherry,900,I,m,m,None,550,351.0,199.0,86,1,1980.9000000059605,528999.0,1511,silver,NF,C,525595,525595,523965,524880,523965,525946,525396,525396,525946,100
95,test,1,inc,1,m,Thu Feb 19 2026 15:02:22 GMT-0600 (Central Standard Time),533045.099999994,plum,1100,I,m,m,None,417,206.0,211.0,128,1,2060.2999999821186,530984.8000000119,1511,lead,NF,C,527793,527793,525951,527062,525951,528011,527582,527582,528011,101
96,test,1,inc,1,z,Thu Feb 19 2026 15:02:22 GMT-0600 (Central Standard Time),534913.1999999881,gold,800,I,z,z,None,540,340.0,200.0,45,1,1864.0,533049.1999999881,1511,pear,NF,C,529530,529530,528015,528828,528016,529879,529330,529330,529879,102
97,test,1,con,1,z,Thu Feb 19 2026 15:02:22 GMT-0600 (Central Standard Time),536910.3000000119,raisin,1000,I,z,z,None,451,251.0,200.0,27,1,1994.4000000059605,534915.900000006,1511,raisin,NF,C,531611,531611,529882,530894,529882,531876,531410,531410,531876,103
98,test,1,con,1,z,Thu Feb 19 2026 15:02:22 GMT-0600 (Central Standard Time),538994.3000000119,cherry,1100,I,z,z,None,433,234.0,199.0,12,1,2081.300000011921,536913.0,1511,cherry,NF,C,533710,533710,531879,532996,531879,533960,533510,533510,533960,104
99,test,1,con,1,m,Thu Feb 19 2026 15:02:22 GMT-0600 (Central Standard Time),540925.400000006,zinc,1000,I,m,m,None,410,196.0,214.0,115,1,1927.800000011921,538997.599999994,1511,zinc,NF,C,535691,535691,533964,534976,533964,535891,535477,535477,535891,105
100,test,1,inc,1,z,Thu Feb 19 2026 15:02:22 GMT-0600 (Central Standard Time),543025.599999994,zinc,1000,I,z,z,None,565,366.0,199.0,39,1,2096.0999999940395,540929.5,1511,lime,NF,C,537625,537625,535896,536908,535896,537992,537425,537425,537992,106
101,test,1,con,1,m,Thu Feb 19 2026 15:02:22 GMT-0600 (Central Standard Time),544974.1999999881,silver,900,I,m,m,None,510,310.0,200.0,82,1,1944.8999999761581,543029.3000000119,1511,silver,NF,C,539625,539625,537995,538908,537996,539940,539425,539425,539940,107
102,test,1,inc,1,m,Thu Feb 19 2026 15:02:22 GMT-0600 (Central Standard Time),547140.400000006,plum,1100,I,m,m,None,517,317.0,200.0,120,1,2162.800000011921,544977.599999994,1511,zinc,NF,C,541774,541774,539944,541058,539944,542106,541574,541574,542106,108
103,test,1,inc,1,m,Thu Feb 19 2026 15:02:22 GMT-0600 (Central Standard Time),549139.400000006,pear,900,I,m,m,None,555,356.0,199.0,126,1,1994.300000011921,547145.099999994,1511,lead,NF,C,543739,543739,542111,543025,542111,544105,543540,543540,544105,109
104,test,1,con,1,m,Thu Feb 19 2026 15:02:22 GMT-0600 (Central Standard Time),551055.8000000119,gold,900,I,m,m,None,475,275.0,200.0,98,1,1913.1000000238419,549142.6999999881,1511,gold,NF,C,545740,545740,544109,545023,544109,546022,545540,545540,546022,110
105,test,1,con,1,m,Thu Feb 19 2026 15:02:22 GMT-0600 (Central Standard Time),553005.099999994,silver,800,I,m,m,None,611,410.0,201.0,81,1,1944.5,551060.599999994,1511,silver,NF,C,547556,547556,546027,546839,546027,547971,547355,547355,547971,111
106,test,1,inc,1,z,Thu Feb 19 2026 15:02:22 GMT-0600 (Central Standard Time),555022.099999994,iron,900,I,z,z,None,588,388.0,200.0,54,1,2012.9000000059605,553009.1999999881,1511,kiwi,NF,C,549588,549588,547975,548887,547976,549988,549388,549388,549988,112
107,test,1,inc,1,m,Thu Feb 19 2026 15:02:22 GMT-0600 (Central Standard Time),556971.900000006,banana,800,I,m,m,None,606,406.0,200.0,69,1,1945.4000000059605,555026.5,1511,bronze,NF,C,551521,551521,549993,550804,549993,551938,551320,551320,551938,113
108,test,1,con,1,z,Thu Feb 19 2026 15:02:22 GMT-0600 (Central Standard Time),558837.400000006,pear,900,I,z,z,None,422,222.0,200.0,42,1,1860.4000000059605,556977.0,1511,pear,NF,C,553569,553569,551943,552855,551943,553803,553369,553369,553803,114
109,test,1,con,1,m,Thu Feb 19 2026 15:02:22 GMT-0600 (Central Standard Time),560968.6999999881,copper,1000,I,m,m,None,598,397.0,201.0,75,1,2126.7999999821186,558841.900000006,1511,copper,NF,C,555537,555537,553808,554820,553808,555935,555336,555336,555935,115
110,test,1,con,1,m,Thu Feb 19 2026 15:02:22 GMT-0600 (Central Standard Time),563118.1999999881,lead,900,I,m,m,None,727,526.0,201.0,122,1,2146.0999999940395,560972.099999994,1511,lead,NF,C,557553,557553,555938,556851,555938,558084,557352,557352,558084,116
111,test,1,con,1,z,Thu Feb 19 2026 15:02:22 GMT-0600 (Central Standard Time),564969.5,lime,900,I,z,z,None,410,210.0,200.0,34,1,1847.5999999940395,563121.900000006,1511,lime,NF,C,559718,559718,558088,559001,558088,559936,559517,559518,559936,117
112,test,1,inc,1,z,Thu Feb 19 2026 15:02:22 GMT-0600 (Central Standard Time),567383.8000000119,lead,1100,I,z,z,None,768,568.0,200.0,64,1,2410.5,564973.3000000119,1511,plum,NF,C,561767,561767,559939,561050,559940,562350,561567,561567,562350,118
113,test,1,con,1,z,Thu Feb 19 2026 15:02:22 GMT-0600 (Central Standard Time),569233.900000006,plum,800,I,z,z,None,532,333.0,199.0,57,1,1843.9000000059605,567390.0,1511,plum,NF,C,563866,563866,562356,563166,562356,564200,563667,563667,564200,119
114,test,1,inc,1,z,Thu Feb 19 2026 15:02:22 GMT-0600 (Central Standard Time),571367.1999999881,zinc,1000,I,z,z,None,591,377.0,214.0,63,1,2127.0999999940395,569240.099999994,1511,plum,NF,C,565949,565949,564206,565216,564206,566333,565734,565734,566333,120
115,test,1,inc,1,z,Thu Feb 19 2026 15:02:22 GMT-0600 (Central Standard Time),573531.3000000119,cobalt,1100,I,z,z,None,521,321.0,200.0,24,1,2158.2000000178814,571373.099999994,1511,orange,NF,C,568166,568166,566339,567449,566340,568497,567965,567965,568497,121
116,test,1,con,1,z,Thu Feb 19 2026 15:02:22 GMT-0600 (Central Standard Time),575430.900000006,cherry,800,I,z,z,None,559,359.0,200.0,9,1,1893.800000011921,573537.099999994,1511,cherry,NF,C,570032,570032,568503,569316,568503,570397,569831,569831,570397,122
117,test,1,con,1,z,Thu Feb 19 2026 15:02:22 GMT-0600 (Central Standard Time),577531.900000006,pear,1100,I,z,z,None,450,251.0,199.0,44,1,2095.300000011921,575436.599999994,1511,pear,NF,C,572231,572231,570403,571514,570403,572498,572031,572031,572498,123
118,test,1,con,1,z,Thu Feb 19 2026 15:02:22 GMT-0600 (Central Standard Time),579812.6999999881,plum,1100,I,z,z,None,653,454.0,199.0,60,1,2273.5999999940395,577539.099999994,1511,plum,NF,C,574313,574313,572505,573613,572505,574779,574114,574114,574779,124
119,test,1,inc,1,z,Thu Feb 19 2026 15:02:22 GMT-0600 (Central Standard Time),581633.6999999881,gold,800,I,z,z,None,471,272.0,199.0,53,1,1815.5999999940395,579818.099999994,1511,kiwi,NF,C,576312,576312,574784,575596,574784,576600,576112,576112,576600,125
120,test,1,con,1,m,Thu Feb 19 2026 15:02:22 GMT-0600 (Central Standard Time),583645.3000000119,cobalt,1100,I,m,m,None,370,171.0,199.0,92,1,2007.2000000178814,581638.099999994,1511,cobalt,NF,C,578428,578428,576604,577712,576604,578611,578229,578229,578611,126
121,test,1,inc,1,m,Thu Feb 19 2026 15:02:22 GMT-0600 (Central Standard Time),585727.8000000119,raisin,1100,I,m,m,None,442,243.0,199.0,96,1,2076.9000000059605,583650.900000006,1511,cobalt,NF,C,580444,580444,578617,579729,578617,580694,580245,580245,580694,127
122,test,1,con,1,m,Thu Feb 19 2026 15:02:22 GMT-0600 (Central Standard Time),587627.8000000119,zinc,900,I,m,m,None,462,263.0,199.0,114,1,1894.5,585733.3000000119,1511,zinc,NF,C,582328,582328,580699,581610,580700,582594,582128,582128,582594,128
