Number,acc_sum,block,block_c,block_cond,con_img,correct,correct_response,datetime,endtime,jitter,project,response,response_time,row_sel,session_number,start_end,starttime,subject_id,task,task_vers,trial
4,0,prac,1,A,circle.png,0,z,Mon May 11 2026 16:59:30 GMT-0500 (Central Daylight Time),52116.90000009537,1400,I,None,1515,4,3,3692.600000023842,48424.300000071526,8066,NTS,B,1
8,1,prac,1,A,circle.png,1,m,Mon May 11 2026 16:59:30 GMT-0500 (Central Daylight Time),55199.300000071526,1600,I,m,699,7,3,3073.2000000476837,52126.10000002384,8066,NTS,B,2
2,2,prac,1,A,circle.png,1,z,Mon May 11 2026 16:59:30 GMT-0500 (Central Daylight Time),58548.200000047684,2000,I,z,560,2,3,3342.7999999523163,55205.40000009537,8066,NTS,B,3
3,3,prac,1,A,circle.png,1,z,Mon May 11 2026 16:59:30 GMT-0500 (Central Daylight Time),61080.800000071526,1200,I,z,539,3,3,2526.5,58554.300000071526,8066,NTS,B,4
1,4,prac,1,A,circle.png,1,z,Mon May 11 2026 16:59:30 GMT-0500 (Central Daylight Time),63480.10000002384,1000,I,z,615,1,3,2392.600000023842,61087.5,8066,NTS,B,5
7,5,prac,1,A,circle.png,1,m,Mon May 11 2026 16:59:30 GMT-0500 (Central Daylight Time),66529.10000002384,1700,I,m,564,6,3,3043.1999999284744,63485.90000009537,8066,NTS,B,6
1,6,prac,1,A,circle.png,1,z,Mon May 11 2026 16:59:30 GMT-0500 (Central Daylight Time),68761.80000007153,1000,I,z,438,1,3,2227.399999976158,66534.40000009537,8066,NTS,B,7
6,7,prac,1,A,circle.png,1,m,Mon May 11 2026 16:59:30 GMT-0500 (Central Daylight Time),71993.90000009537,1900,I,m,562,5,3,3226.3000000715256,68767.60000002384,8066,NTS,B,8
8,8,prac,1,A,circle.png,1,m,Mon May 11 2026 16:59:30 GMT-0500 (Central Daylight Time),74843.0,1600,I,m,462,7,3,2843.5999999046326,71999.40000009537,8066,NTS,B,9
4,9,prac,1,A,circle.png,1,z,Mon May 11 2026 16:59:30 GMT-0500 (Central Daylight Time),77458.90000009537,1400,I,z,421,4,3,2610.3000000715256,74848.60000002384,8066,NTS,B,10
9,10,prac,1,A,circle.png,1,m,Mon May 11 2026 16:59:30 GMT-0500 (Central Daylight Time),80274.70000004768,1500,I,m,521,8,3,2810.2999999523163,77464.40000009537,8066,NTS,B,11
7,11,prac,1,A,circle.png,1,m,Mon May 11 2026 16:59:30 GMT-0500 (Central Daylight Time),83307.0,1700,I,m,545,6,3,3027.5,80279.5,8066,NTS,B,12
8,1,prac,1,B,triangle.png,1,m,Mon May 11 2026 16:59:30 GMT-0500 (Central Daylight Time),114580.80000007153,1200,I,m,1485,7,3,3477.899999976158,111102.90000009537,8066,NTS,B,1
4,2,prac,1,B,triangle.png,1,m,Mon May 11 2026 16:59:30 GMT-0500 (Central Daylight Time),117430.0,1500,I,m,552,4,3,2842.2999999523163,114587.70000004768,8066,NTS,B,2
2,3,prac,1,B,triangle.png,1,m,Mon May 11 2026 16:59:30 GMT-0500 (Central Daylight Time),120695.40000009537,1700,I,m,783,2,3,3258.9000000953674,117436.5,8066,NTS,B,3
3,4,prac,1,B,triangle.png,1,z,Mon May 11 2026 16:59:30 GMT-0500 (Central Daylight Time),123544.40000009537,1600,I,z,456,3,3,2843.600000023842,120700.80000007153,8066,NTS,B,4
3,5,prac,1,B,triangle.png,1,z,Mon May 11 2026 16:59:30 GMT-0500 (Central Daylight Time),126510.10000002384,1600,I,z,568,3,3,2959.5,123550.60000002384,8066,NTS,B,5
1,6,prac,1,B,triangle.png,1,z,Mon May 11 2026 16:59:30 GMT-0500 (Central Daylight Time),129742.5,1900,I,z,542,1,3,3226.6999999284744,126515.80000007153,8066,NTS,B,6
6,7,prac,1,B,triangle.png,1,m,Mon May 11 2026 16:59:30 GMT-0500 (Central Daylight Time),132158.40000009537,1000,I,m,618,5,3,2410.7000000476837,129747.70000004768,8066,NTS,B,7
2,8,prac,1,B,triangle.png,1,m,Mon May 11 2026 16:59:30 GMT-0500 (Central Daylight Time),135324.10000002384,1700,I,m,678,2,3,3160.6999999284744,132163.40000009537,8066,NTS,B,8
7,9,prac,1,B,triangle.png,1,z,Mon May 11 2026 16:59:30 GMT-0500 (Central Daylight Time),138689.60000002384,2000,I,z,572,6,3,3360.100000023842,135329.5,8066,NTS,B,9
4,10,prac,1,B,triangle.png,1,m,Mon May 11 2026 16:59:30 GMT-0500 (Central Daylight Time),141488.90000009537,1500,I,m,515,4,3,2794.2000000476837,138694.70000004768,8066,NTS,B,10
9,11,prac,1,B,triangle.png,1,z,Mon May 11 2026 16:59:30 GMT-0500 (Central Daylight Time),144504.60000002384,1400,I,z,831,8,3,3010.100000023842,141494.5,8066,NTS,B,11
1,12,prac,1,B,triangle.png,1,z,Mon May 11 2026 16:59:30 GMT-0500 (Central Daylight Time),147803.5,1900,I,z,604,1,3,3293.5999999046326,144509.90000009537,8066,NTS,B,12
3,1,test,1,A,circle.png,1,z,Mon May 11 2026 16:59:30 GMT-0500 (Central Daylight Time),167065.20000004768,1200,I,z,684,3,3,1912.7999999523163,165152.40000009537,8066,NTS,B,1
3,2,test,1,A,circle.png,1,z,Mon May 11 2026 16:59:30 GMT-0500 (Central Daylight Time),168763.60000002384,1200,I,z,470,3,3,1693.1999999284744,167070.40000009537,8066,NTS,B,2
8,3,test,1,A,circle.png,1,m,Mon May 11 2026 16:59:30 GMT-0500 (Central Daylight Time),170896.20000004768,1600,I,m,500,7,3,2128.7999999523163,168767.40000009537,8066,NTS,B,3
1,4,test,1,A,circle.png,1,z,Mon May 11 2026 16:59:30 GMT-0500 (Central Daylight Time),172495.80000007153,1000,I,z,567,1,3,1595.8999999761581,170899.90000009537,8066,NTS,B,4
7,5,test,1,A,circle.png,1,m,Mon May 11 2026 16:59:30 GMT-0500 (Central Daylight Time),174728.40000009537,1700,I,m,509,6,3,2228.100000023842,172500.30000007153,8066,NTS,B,5
4,6,test,1,A,circle.png,1,z,Mon May 11 2026 16:59:30 GMT-0500 (Central Daylight Time),176661.20000004768,1400,I,z,504,4,3,1929.2999999523163,174731.90000009537,8066,NTS,B,6
2,7,test,1,A,circle.png,1,z,Mon May 11 2026 16:59:30 GMT-0500 (Central Daylight Time),179143.80000007153,2000,I,z,458,2,3,2478.5,176665.30000007153,8066,NTS,B,7
9,8,test,1,A,circle.png,1,m,Mon May 11 2026 16:59:30 GMT-0500 (Central Daylight Time),181209.60000002384,1500,I,m,548,8,3,2061.399999976158,179148.20000004768,8066,NTS,B,8
2,9,test,1,A,circle.png,1,z,Mon May 11 2026 16:59:30 GMT-0500 (Central Daylight Time),183909.0,2000,I,z,670,2,3,2695.7999999523163,181213.20000004768,8066,NTS,B,9
8,10,test,1,A,circle.png,1,m,Mon May 11 2026 16:59:30 GMT-0500 (Central Daylight Time),186024.80000007153,1600,I,m,484,7,3,2111.3000000715256,183913.5,8066,NTS,B,10
3,11,test,1,A,circle.png,1,z,Mon May 11 2026 16:59:30 GMT-0500 (Central Daylight Time),187840.90000009537,1200,I,z,583,3,3,1812.1000000238419,186028.80000007153,8066,NTS,B,11
4,11,test,1,A,circle.png,0,z,Mon May 11 2026 16:59:30 GMT-0500 (Central Daylight Time),189723.60000002384,1400,I,m,461,4,3,1879.0,187844.60000002384,8066,NTS,B,12
1,12,test,1,A,circle.png,1,z,Mon May 11 2026 16:59:30 GMT-0500 (Central Daylight Time),191289.80000007153,1000,I,z,548,1,3,1562.5,189727.30000007153,8066,NTS,B,13
7,13,test,1,A,circle.png,1,m,Mon May 11 2026 16:59:30 GMT-0500 (Central Daylight Time),193555.70000004768,1700,I,m,546,6,3,2262.2999999523163,191293.40000009537,8066,NTS,B,14
6,14,test,1,A,circle.png,1,m,Mon May 11 2026 16:59:30 GMT-0500 (Central Daylight Time),196104.90000009537,1900,I,m,617,5,3,2544.9000000953674,193560.0,8066,NTS,B,15
6,15,test,1,A,circle.png,1,m,Mon May 11 2026 16:59:30 GMT-0500 (Central Daylight Time),198587.60000002384,1900,I,m,563,5,3,2479.1999999284744,196108.40000009537,8066,NTS,B,16
9,16,test,1,A,circle.png,1,m,Mon May 11 2026 16:59:30 GMT-0500 (Central Daylight Time),200687.0,1500,I,m,569,8,3,2095.7999999523163,198591.20000004768,8066,NTS,B,17
8,17,test,1,A,circle.png,1,m,Mon May 11 2026 16:59:30 GMT-0500 (Central Daylight Time),202769.5,1600,I,m,465,7,3,2078.0,200691.5,8066,NTS,B,18
7,18,test,1,A,circle.png,1,m,Mon May 11 2026 16:59:30 GMT-0500 (Central Daylight Time),205019.10000002384,1700,I,m,530,6,3,2246.100000023842,202773.0,8066,NTS,B,19
9,19,test,1,A,circle.png,1,m,Mon May 11 2026 16:59:30 GMT-0500 (Central Daylight Time),207084.80000007153,1500,I,m,537,8,3,2060.600000023842,205024.20000004768,8066,NTS,B,20
9,20,test,1,A,circle.png,1,m,Mon May 11 2026 16:59:30 GMT-0500 (Central Daylight Time),209150.90000009537,1500,I,m,544,8,3,2062.4000000953674,207088.5,8066,NTS,B,21
4,21,test,1,A,circle.png,1,z,Mon May 11 2026 16:59:30 GMT-0500 (Central Daylight Time),211150.40000009537,1400,I,z,577,4,3,1995.9000000953674,209154.5,8066,NTS,B,22
4,22,test,1,A,circle.png,1,z,Mon May 11 2026 16:59:30 GMT-0500 (Central Daylight Time),213133.20000004768,1400,I,z,499,4,3,1978.7999999523163,211154.40000009537,8066,NTS,B,23
8,23,test,1,A,circle.png,1,m,Mon May 11 2026 16:59:30 GMT-0500 (Central Daylight Time),215299.0,1600,I,m,547,7,3,2162.0,213137.0,8066,NTS,B,24
1,1,test,1,B,triangle.png,1,z,Mon May 11 2026 16:59:30 GMT-0500 (Central Daylight Time),231044.0,1400,I,z,630,9,3,2046.1999999284744,228997.80000007153,8066,NTS,B,1
7,2,test,1,B,triangle.png,1,z,Mon May 11 2026 16:59:30 GMT-0500 (Central Daylight Time),233793.10000002384,2000,I,z,724,6,3,2745.100000023842,231048.0,8066,NTS,B,2
7,3,test,1,B,triangle.png,1,z,Mon May 11 2026 16:59:30 GMT-0500 (Central Daylight Time),235925.80000007153,1600,I,z,511,14,3,2129.100000023842,233796.70000004768,8066,NTS,B,3
1,4,test,1,B,triangle.png,1,z,Mon May 11 2026 16:59:30 GMT-0500 (Central Daylight Time),238325.20000004768,1900,I,z,471,1,3,2395.7000000476837,235929.5,8066,NTS,B,4
6,5,test,1,B,triangle.png,1,m,Mon May 11 2026 16:59:30 GMT-0500 (Central Daylight Time),240358.0,1500,I,m,503,13,3,2029.1999999284744,238328.80000007153,8066,NTS,B,5
4,6,test,1,B,triangle.png,1,m,Mon May 11 2026 16:59:30 GMT-0500 (Central Daylight Time),242323.90000009537,1500,I,m,447,4,3,1962.4000000953674,240361.5,8066,NTS,B,6
2,7,test,1,B,triangle.png,1,m,Mon May 11 2026 16:59:30 GMT-0500 (Central Daylight Time),244139.90000009537,1200,I,m,596,10,3,1812.2000000476837,242327.70000004768,8066,NTS,B,7
4,8,test,1,B,triangle.png,1,m,Mon May 11 2026 16:59:30 GMT-0500 (Central Daylight Time),245689.40000009537,1000,I,m,532,12,3,1545.2000000476837,244144.20000004768,8066,NTS,B,8
2,9,test,1,B,triangle.png,1,m,Mon May 11 2026 16:59:30 GMT-0500 (Central Daylight Time),247905.60000002384,1700,I,m,491,2,3,2212.600000023842,245693.0,8066,NTS,B,9
8,10,test,1,B,triangle.png,1,m,Mon May 11 2026 16:59:30 GMT-0500 (Central Daylight Time),250121.5,1700,I,m,499,15,3,2211.7999999523163,247909.70000004768,8066,NTS,B,10
7,11,test,1,B,triangle.png,1,z,Mon May 11 2026 16:59:30 GMT-0500 (Central Daylight Time),252737.5,2000,I,z,591,6,3,2612.2999999523163,250125.20000004768,8066,NTS,B,11
6,12,test,1,B,triangle.png,1,m,Mon May 11 2026 16:59:30 GMT-0500 (Central Daylight Time),254453.40000009537,1000,I,m,687,5,3,1711.7000000476837,252741.70000004768,8066,NTS,B,12
9,13,test,1,B,triangle.png,1,z,Mon May 11 2026 16:59:30 GMT-0500 (Central Daylight Time),256919.30000007153,1400,I,z,1035,8,3,2462.3000000715256,254457.0,8066,NTS,B,13
8,14,test,1,B,triangle.png,1,m,Mon May 11 2026 16:59:30 GMT-0500 (Central Daylight Time),258735.30000007153,1200,I,m,585,7,3,1812.1000000238419,256923.20000004768,8066,NTS,B,14
3,15,test,1,B,triangle.png,1,z,Mon May 11 2026 16:59:30 GMT-0500 (Central Daylight Time),261051.20000004768,1600,I,z,689,3,3,2311.899999976158,258739.30000007153,8066,NTS,B,15
6,16,test,1,B,triangle.png,1,m,Mon May 11 2026 16:59:30 GMT-0500 (Central Daylight Time),263134.0,1500,I,m,552,13,3,2079.0999999046326,261054.90000009537,8066,NTS,B,16
1,17,test,1,B,triangle.png,1,z,Mon May 11 2026 16:59:30 GMT-0500 (Central Daylight Time),265116.7000000477,1400,I,z,554,9,3,1978.3999999761581,263138.3000000715,8066,NTS,B,17
4,18,test,1,B,triangle.png,1,m,Mon May 11 2026 16:59:30 GMT-0500 (Central Daylight Time),267449.2000000477,1500,I,m,808,4,3,2328.7999999523163,265120.40000009537,8066,NTS,B,18
3,19,test,1,B,triangle.png,1,z,Mon May 11 2026 16:59:30 GMT-0500 (Central Daylight Time),269665.3000000715,1600,I,z,591,3,3,2211.8000000715256,267453.5,8066,NTS,B,19
3,20,test,1,B,triangle.png,1,z,Mon May 11 2026 16:59:30 GMT-0500 (Central Daylight Time),272231.3000000715,2000,I,z,535,11,3,2562.600000023842,269668.7000000477,8066,NTS,B,20
8,21,test,1,B,triangle.png,1,m,Mon May 11 2026 16:59:30 GMT-0500 (Central Daylight Time),273964.3000000715,1200,I,m,505,7,3,1728.8999999761581,272235.40000009537,8066,NTS,B,21
9,22,test,1,B,triangle.png,1,z,Mon May 11 2026 16:59:30 GMT-0500 (Central Daylight Time),276713.10000002384,1900,I,z,824,16,3,2744.7999999523163,273968.3000000715,8066,NTS,B,22
1,23,test,1,B,triangle.png,1,z,Mon May 11 2026 16:59:30 GMT-0500 (Central Daylight Time),279229.10000002384,1900,I,z,588,1,3,2511.5,276717.60000002384,8066,NTS,B,23
8,24,test,1,B,triangle.png,1,m,Mon May 11 2026 16:59:30 GMT-0500 (Central Daylight Time),281611.5,1700,I,m,655,15,3,2378.6999999284744,279232.8000000715,8066,NTS,B,24
6,0,prac,1,C,circle.png,0,m,Mon May 11 2026 16:59:30 GMT-0500 (Central Daylight Time),330346.3000000715,2000,I,None,1516,5,3,4294.0,326052.3000000715,8066,NTS,B,1
8,1,prac,1,C,triangle.png,1,m,Mon May 11 2026 16:59:30 GMT-0500 (Central Daylight Time),333728.7000000477,1400,I,m,1190,7,3,3375.399999976158,330353.3000000715,8066,NTS,B,2
1,2,prac,1,C,circle.png,1,z,Mon May 11 2026 16:59:30 GMT-0500 (Central Daylight Time),337312.0,1700,I,z,1084,1,3,3578.399999976158,333733.60000002384,8066,NTS,B,3
6,3,prac,1,C,circle.png,1,m,Mon May 11 2026 16:59:30 GMT-0500 (Central Daylight Time),340893.3000000715,2000,I,m,794,5,3,3576.399999976158,337316.90000009537,8066,NTS,B,4
2,4,prac,1,C,triangle.png,1,m,Mon May 11 2026 16:59:30 GMT-0500 (Central Daylight Time),344158.7000000477,1600,I,m,867,2,3,3260.2000000476837,340898.5,8066,NTS,B,5
4,4,prac,1,C,circle.png,0,z,Mon May 11 2026 16:59:30 GMT-0500 (Central Daylight Time),347057.7000000477,1000,I,m,1106,4,3,2893.5,344164.2000000477,8066,NTS,B,6
3,5,prac,1,C,triangle.png,1,z,Mon May 11 2026 16:59:30 GMT-0500 (Central Daylight Time),350240.2000000477,1500,I,z,899,3,3,3177.2999999523163,347062.90000009537,8066,NTS,B,7
9,6,prac,1,C,circle.png,1,m,Mon May 11 2026 16:59:30 GMT-0500 (Central Daylight Time),354303.5,1900,I,m,1373,8,3,4058.399999976158,350245.10000002384,8066,NTS,B,8
9,7,prac,1,C,circle.png,1,m,Mon May 11 2026 16:59:30 GMT-0500 (Central Daylight Time),357937.8000000715,1900,I,m,947,8,3,3628.7000000476837,354309.10000002384,8066,NTS,B,9
2,8,prac,1,C,triangle.png,1,m,Mon May 11 2026 16:59:30 GMT-0500 (Central Daylight Time),361186.60000002384,1600,I,m,855,2,3,3243.7999999523163,357942.8000000715,8066,NTS,B,10
7,8,prac,1,C,triangle.png,0,z,Mon May 11 2026 16:59:30 GMT-0500 (Central Daylight Time),364685.5,1200,I,None,1516,6,3,3494.0,361191.5,8066,NTS,B,11
4,9,prac,1,C,circle.png,1,z,Mon May 11 2026 16:59:30 GMT-0500 (Central Daylight Time),367634.60000002384,1000,I,z,1155,4,3,2944.1999999284744,364690.40000009537,8066,NTS,B,12
3,1,test,1,C,circle.png,1,z,Mon May 11 2026 16:59:30 GMT-0500 (Central Daylight Time),385062.5,1600,I,z,1086,11,3,2712.5999999046326,382349.90000009537,8066,NTS,B,1
9,2,test,1,C,circle.png,1,m,Mon May 11 2026 16:59:30 GMT-0500 (Central Daylight Time),387511.7000000477,1500,I,m,918,8,3,2445.0,385066.7000000477,8066,NTS,B,2
9,3,test,1,C,triangle.png,1,z,Mon May 11 2026 16:59:30 GMT-0500 (Central Daylight Time),389978.7000000477,1400,I,z,1049,16,3,2463.100000023842,387515.60000002384,8066,NTS,B,3
6,4,test,1,C,circle.png,1,m,Mon May 11 2026 16:59:30 GMT-0500 (Central Daylight Time),392726.7000000477,1900,I,m,827,21,3,2744.0,389982.7000000477,8066,NTS,B,4
9,5,test,1,C,circle.png,1,m,Mon May 11 2026 16:59:30 GMT-0500 (Central Daylight Time),395026.0,1500,I,m,781,24,3,2294.6999999284744,392731.3000000715,8066,NTS,B,5
1,6,test,1,C,triangle.png,1,z,Mon May 11 2026 16:59:30 GMT-0500 (Central Daylight Time),397625.3000000715,1900,I,z,667,9,3,2595.399999976158,395029.90000009537,8066,NTS,B,6
7,7,test,1,C,circle.png,1,m,Mon May 11 2026 16:59:30 GMT-0500 (Central Daylight Time),400875.3000000715,2000,I,m,1231,14,3,3245.899999976158,397629.40000009537,8066,NTS,B,7
6,8,test,1,C,circle.png,1,m,Mon May 11 2026 16:59:30 GMT-0500 (Central Daylight Time),403556.8000000715,1900,I,m,763,5,3,2677.100000023842,400879.7000000477,8066,NTS,B,8
7,9,test,1,C,triangle.png,1,z,Mon May 11 2026 16:59:30 GMT-0500 (Central Daylight Time),406239.40000009537,1700,I,z,952,22,3,2677.8000000715256,403561.60000002384,8066,NTS,B,9
6,10,test,1,C,triangle.png,1,m,Mon May 11 2026 16:59:30 GMT-0500 (Central Daylight Time),408088.7000000477,1000,I,m,825,13,3,1844.7000000476837,406244.0,8066,NTS,B,10
3,11,test,1,C,circle.png,1,z,Mon May 11 2026 16:59:30 GMT-0500 (Central Daylight Time),410354.5,1600,I,z,640,19,3,2262.0999999046326,408092.40000009537,8066,NTS,B,11
7,12,test,1,C,triangle.png,1,z,Mon May 11 2026 16:59:30 GMT-0500 (Central Daylight Time),413120.3000000715,1700,I,z,1034,6,3,2762.2000000476837,410358.10000002384,8066,NTS,B,12
1,13,test,1,C,circle.png,1,z,Mon May 11 2026 16:59:30 GMT-0500 (Central Daylight Time),415236.3000000715,1000,I,z,1088,1,3,2112.100000023842,413124.2000000477,8066,NTS,B,13
2,13,test,1,C,triangle.png,0,m,Mon May 11 2026 16:59:30 GMT-0500 (Central Daylight Time),418202.3000000715,2000,I,z,940,2,3,2962.0,415240.3000000715,8066,NTS,B,14
8,13,test,1,C,triangle.png,0,m,Mon May 11 2026 16:59:30 GMT-0500 (Central Daylight Time),421334.5,1600,I,None,1515,7,3,3128.399999976158,418206.10000002384,8066,NTS,B,15
4,14,test,1,C,triangle.png,1,m,Mon May 11 2026 16:59:30 GMT-0500 (Central Daylight Time),423817.10000002384,1500,I,m,958,20,3,2478.899999976158,421338.2000000477,8066,NTS,B,16
3,15,test,1,C,triangle.png,1,z,Mon May 11 2026 16:59:30 GMT-0500 (Central Daylight Time),426183.10000002384,1200,I,z,1142,3,3,2362.100000023842,423821.0,8066,NTS,B,17
2,16,test,1,C,circle.png,1,z,Mon May 11 2026 16:59:30 GMT-0500 (Central Daylight Time),428565.60000002384,1700,I,z,654,18,3,2378.399999976158,426187.2000000477,8066,NTS,B,18
8,16,test,1,C,triangle.png,0,m,Mon May 11 2026 16:59:30 GMT-0500 (Central Daylight Time),431698.0,1600,I,None,1516,23,3,3128.6999999284744,428569.3000000715,8066,NTS,B,19
4,17,test,1,C,triangle.png,1,m,Mon May 11 2026 16:59:30 GMT-0500 (Central Daylight Time),433997.0,1500,I,m,779,12,3,2295.0999999046326,431701.90000009537,8066,NTS,B,20
8,18,test,1,C,circle.png,1,m,Mon May 11 2026 16:59:30 GMT-0500 (Central Daylight Time),436446.60000002384,1200,I,m,1227,15,3,2445.5,434001.10000002384,8066,NTS,B,21
4,19,test,1,C,circle.png,1,z,Mon May 11 2026 16:59:30 GMT-0500 (Central Daylight Time),438978.90000009537,1400,I,z,1106,4,3,2528.3000000715256,436450.60000002384,8066,NTS,B,22
1,20,test,1,C,triangle.png,1,z,Mon May 11 2026 16:59:30 GMT-0500 (Central Daylight Time),441644.7000000477,1900,I,z,746,17,3,2661.899999976158,438982.8000000715,8066,NTS,B,23
2,21,test,1,C,circle.png,1,z,Mon May 11 2026 16:59:30 GMT-0500 (Central Daylight Time),444344.0,1700,I,z,976,10,3,2695.2999999523163,441648.7000000477,8066,NTS,B,24
3,1,test,2,C,circle.png,1,z,Mon May 11 2026 16:59:30 GMT-0500 (Central Daylight Time),448975.8000000715,1600,I,z,951,11,3,2579.399999976158,446396.40000009537,8066,NTS,B,1
4,2,test,2,C,triangle.png,1,m,Mon May 11 2026 16:59:30 GMT-0500 (Central Daylight Time),451591.7000000477,1500,I,m,1093,20,3,2611.2999999523163,448980.40000009537,8066,NTS,B,2
7,3,test,2,C,triangle.png,1,z,Mon May 11 2026 16:59:30 GMT-0500 (Central Daylight Time),454257.5,1700,I,z,941,6,3,2662.0999999046326,451595.40000009537,8066,NTS,B,3
2,4,test,2,C,circle.png,1,z,Mon May 11 2026 16:59:30 GMT-0500 (Central Daylight Time),456689.90000009537,1700,I,z,715,10,3,2427.7000000476837,454262.2000000477,8066,NTS,B,4
9,5,test,2,C,triangle.png,1,z,Mon May 11 2026 16:59:30 GMT-0500 (Central Daylight Time),459122.60000002384,1400,I,z,1007,24,3,2428.7999999523163,456693.8000000715,8066,NTS,B,5
6,6,test,2,C,triangle.png,1,m,Mon May 11 2026 16:59:30 GMT-0500 (Central Daylight Time),461188.8000000715,1000,I,m,1046,13,3,2062.0,459126.8000000715,8066,NTS,B,6
1,7,test,2,C,triangle.png,1,z,Mon May 11 2026 16:59:30 GMT-0500 (Central Daylight Time),463821.0,1900,I,z,712,9,3,2628.2999999523163,461192.7000000477,8066,NTS,B,7
6,8,test,2,C,triangle.png,1,m,Mon May 11 2026 16:59:30 GMT-0500 (Central Daylight Time),465504.0,1000,I,m,651,21,3,1679.0999999046326,463824.90000009537,8066,NTS,B,8
9,9,test,2,C,triangle.png,1,z,Mon May 11 2026 16:59:30 GMT-0500 (Central Daylight Time),467703.2000000477,1400,I,z,777,16,3,2195.2000000476837,465508.0,8066,NTS,B,9
3,10,test,2,C,circle.png,1,z,Mon May 11 2026 16:59:30 GMT-0500 (Central Daylight Time),469902.60000002384,1600,I,z,577,19,3,2195.399999976158,467707.2000000477,8066,NTS,B,10
9,11,test,2,C,circle.png,1,m,Mon May 11 2026 16:59:30 GMT-0500 (Central Daylight Time),472368.5,1500,I,m,934,8,3,2461.899999976158,469906.60000002384,8066,NTS,B,11
8,12,test,2,C,triangle.png,1,m,Mon May 11 2026 16:59:30 GMT-0500 (Central Daylight Time),474884.3000000715,1600,I,m,896,7,3,2511.5,472372.8000000715,8066,NTS,B,12
7,13,test,2,C,circle.png,1,m,Mon May 11 2026 16:59:30 GMT-0500 (Central Daylight Time),478116.8000000715,2000,I,m,1212,14,3,3228.8000000715256,474888.0,8066,NTS,B,13
6,14,test,2,C,circle.png,1,m,Mon May 11 2026 16:59:30 GMT-0500 (Central Daylight Time),481099.0,1900,I,m,1064,5,3,2978.0,478121.0,8066,NTS,B,14
2,15,test,2,C,circle.png,1,z,Mon May 11 2026 16:59:30 GMT-0500 (Central Daylight Time),483448.2000000477,1700,I,z,626,18,3,2345.2000000476837,481103.0,8066,NTS,B,15
7,16,test,2,C,circle.png,1,m,Mon May 11 2026 16:59:30 GMT-0500 (Central Daylight Time),486697.40000009537,2000,I,m,1224,22,3,3245.100000023842,483452.3000000715,8066,NTS,B,16
2,17,test,2,C,triangle.png,1,m,Mon May 11 2026 16:59:30 GMT-0500 (Central Daylight Time),489846.3000000715,2000,I,m,1127,2,3,3144.899999976158,486701.40000009537,8066,NTS,B,17
8,18,test,2,C,circle.png,1,m,Mon May 11 2026 16:59:30 GMT-0500 (Central Daylight Time),491845.8000000715,1200,I,m,770,23,3,1995.7000000476837,489850.10000002384,8066,NTS,B,18
8,19,test,2,C,circle.png,1,m,Mon May 11 2026 16:59:30 GMT-0500 (Central Daylight Time),493894.90000009537,1200,I,m,827,15,3,2044.2000000476837,491850.7000000477,8066,NTS,B,19
4,20,test,2,C,circle.png,1,z,Mon May 11 2026 16:59:30 GMT-0500 (Central Daylight Time),496094.5,1400,I,z,769,4,3,2195.7999999523163,493898.7000000477,8066,NTS,B,20
1,21,test,2,C,circle.png,1,z,Mon May 11 2026 16:59:30 GMT-0500 (Central Daylight Time),497777.10000002384,1000,I,z,666,1,3,1678.7999999523163,496098.3000000715,8066,NTS,B,21
1,22,test,2,C,triangle.png,1,z,Mon May 11 2026 16:59:30 GMT-0500 (Central Daylight Time),500776.2000000477,1900,I,z,1074,17,3,2995.399999976158,497780.8000000715,8066,NTS,B,22
4,23,test,2,C,triangle.png,1,m,Mon May 11 2026 16:59:30 GMT-0500 (Central Daylight Time),503542.0,1500,I,m,1236,12,3,2762.1999999284744,500779.8000000715,8066,NTS,B,23
3,24,test,2,C,triangle.png,1,z,Mon May 11 2026 16:59:30 GMT-0500 (Central Daylight Time),505807.90000009537,1200,I,z,1035,3,3,2261.5,503546.40000009537,8066,NTS,B,24
4,1,test,3,C,triangle.png,1,m,Mon May 11 2026 16:59:30 GMT-0500 (Central Daylight Time),510040.2000000477,1500,I,m,1218,12,3,2746.2000000476837,507294.0,8066,NTS,B,1
3,2,test,3,C,triangle.png,1,z,Mon May 11 2026 16:59:30 GMT-0500 (Central Daylight Time),511872.7000000477,1200,I,z,600,19,3,1828.7999999523163,510043.90000009537,8066,NTS,B,2
2,3,test,3,C,triangle.png,1,m,Mon May 11 2026 16:59:30 GMT-0500 (Central Daylight Time),514771.8000000715,2000,I,m,872,2,3,2895.600000023842,511876.2000000477,8066,NTS,B,3
7,4,test,3,C,triangle.png,1,z,Mon May 11 2026 16:59:30 GMT-0500 (Central Daylight Time),517321.10000002384,1700,I,z,833,22,3,2544.5,514776.60000002384,8066,NTS,B,4
2,5,test,3,C,triangle.png,1,m,Mon May 11 2026 16:59:30 GMT-0500 (Central Daylight Time),520636.8000000715,2000,I,m,1245,18,3,3311.899999976158,517324.90000009537,8066,NTS,B,5
6,6,test,3,C,triangle.png,1,m,Mon May 11 2026 16:59:30 GMT-0500 (Central Daylight Time),522336.10000002384,1000,I,m,676,13,3,1695.6000000238419,520640.5,8066,NTS,B,6
6,7,test,3,C,circle.png,1,m,Mon May 11 2026 16:59:30 GMT-0500 (Central Daylight Time),525301.9000000954,1900,I,m,1044,21,3,2961.9000000953674,522340.0,8066,NTS,B,7
9,8,test,3,C,triangle.png,1,z,Mon May 11 2026 16:59:30 GMT-0500 (Central Daylight Time),527617.9000000954,1400,I,z,899,16,3,2311.9000000953674,525306.0,8066,NTS,B,8
9,9,test,3,C,circle.png,1,m,Mon May 11 2026 16:59:30 GMT-0500 (Central Daylight Time),530083.6000000238,1500,I,m,947,8,3,2461.899999976158,527621.7000000477,8066,NTS,B,9
2,10,test,3,C,circle.png,1,z,Mon May 11 2026 16:59:30 GMT-0500 (Central Daylight Time),532949.6000000238,1700,I,z,1137,10,3,2861.399999976158,530088.2000000477,8066,NTS,B,10
3,11,test,3,C,circle.png,1,z,Mon May 11 2026 16:59:30 GMT-0500 (Central Daylight Time),535315.4000000954,1600,I,z,747,11,3,2362.0,532953.4000000954,8066,NTS,B,11
8,12,test,3,C,triangle.png,1,m,Mon May 11 2026 16:59:30 GMT-0500 (Central Daylight Time),537964.7000000477,1600,I,m,1028,23,3,2645.100000023842,535319.6000000238,8066,NTS,B,12
1,13,test,3,C,triangle.png,1,z,Mon May 11 2026 16:59:30 GMT-0500 (Central Daylight Time),540647.1000000238,1900,I,z,752,9,3,2678.6999999284744,537968.4000000954,8066,NTS,B,13
6,14,test,3,C,circle.png,1,m,Mon May 11 2026 16:59:30 GMT-0500 (Central Daylight Time),543312.9000000954,1900,I,m,742,5,3,2661.8000000715256,540651.1000000238,8066,NTS,B,14
7,15,test,3,C,circle.png,1,m,Mon May 11 2026 16:59:30 GMT-0500 (Central Daylight Time),546362.0,2000,I,m,1031,14,3,3045.5,543316.5,8066,NTS,B,15
1,16,test,3,C,circle.png,1,z,Mon May 11 2026 16:59:30 GMT-0500 (Central Daylight Time),548228.1000000238,1000,I,z,845,1,3,1861.1999999284744,546366.9000000954,8066,NTS,B,16
4,17,test,3,C,circle.png,1,z,Mon May 11 2026 16:59:30 GMT-0500 (Central Daylight Time),550677.3000000715,1400,I,z,1021,4,3,2445.100000023842,548232.2000000477,8066,NTS,B,17
3,18,test,3,C,triangle.png,1,z,Mon May 11 2026 16:59:30 GMT-0500 (Central Daylight Time),552693.2000000477,1200,I,z,795,3,3,2012.2000000476837,550681.0,8066,NTS,B,18
1,19,test,3,C,circle.png,1,z,Mon May 11 2026 16:59:30 GMT-0500 (Central Daylight Time),554692.7000000477,1000,I,z,971,17,3,1995.3999999761581,552697.3000000715,8066,NTS,B,19
8,19,test,3,C,triangle.png,0,m,Mon May 11 2026 16:59:30 GMT-0500 (Central Daylight Time),557625.1000000238,1600,I,z,1316,7,3,2928.5,554696.6000000238,8066,NTS,B,20
8,20,test,3,C,circle.png,1,m,Mon May 11 2026 16:59:30 GMT-0500 (Central Daylight Time),559724.4000000954,1200,I,m,871,15,3,2094.9000000953674,557629.5,8066,NTS,B,21
9,21,test,3,C,circle.png,1,m,Mon May 11 2026 16:59:30 GMT-0500 (Central Daylight Time),562706.8000000715,1500,I,m,1455,24,3,2978.7000000476837,559728.1000000238,8066,NTS,B,22
4,22,test,3,C,circle.png,1,z,Mon May 11 2026 16:59:30 GMT-0500 (Central Daylight Time),564772.7000000477,1400,I,z,646,20,3,2062.399999976158,562710.3000000715,8066,NTS,B,23
7,23,test,3,C,triangle.png,1,z,Mon May 11 2026 16:59:30 GMT-0500 (Central Daylight Time),567788.5,1700,I,z,1179,6,3,3012.0,564776.5,8066,NTS,B,24
6,1,test,4,C,triangle.png,1,m,Mon May 11 2026 16:59:30 GMT-0500 (Central Daylight Time),571237.5,1000,I,m,928,13,3,1946.0999999046326,569291.4000000954,8066,NTS,B,1
9,2,test,4,C,triangle.png,1,z,Mon May 11 2026 16:59:30 GMT-0500 (Central Daylight Time),573703.4000000954,1400,I,z,1043,16,3,2461.7000000476837,571241.7000000477,8066,NTS,B,2
2,3,test,4,C,triangle.png,1,m,Mon May 11 2026 16:59:30 GMT-0500 (Central Daylight Time),576569.1000000238,2000,I,m,841,2,3,2861.2999999523163,573707.8000000715,8066,NTS,B,3
7,4,test,4,C,triangle.png,1,z,Mon May 11 2026 16:59:30 GMT-0500 (Central Daylight Time),579185.0,1700,I,z,891,22,3,2611.2999999523163,576573.7000000477,8066,NTS,B,4
3,5,test,4,C,triangle.png,1,z,Mon May 11 2026 16:59:30 GMT-0500 (Central Daylight Time),581201.1000000238,1200,I,z,791,3,3,2012.1000000238419,579189.0,8066,NTS,B,5
3,6,test,4,C,triangle.png,1,z,Mon May 11 2026 16:59:30 GMT-0500 (Central Daylight Time),583233.8000000715,1200,I,z,815,19,3,2028.6000000238419,581205.2000000477,8066,NTS,B,6
3,7,test,4,C,circle.png,1,z,Mon May 11 2026 16:59:30 GMT-0500 (Central Daylight Time),585866.1000000238,1600,I,z,1015,11,3,2627.899999976158,583238.2000000477,8066,NTS,B,7
4,8,test,4,C,triangle.png,1,m,Mon May 11 2026 16:59:30 GMT-0500 (Central Daylight Time),588432.3000000715,1500,I,m,1042,12,3,2562.5,585869.8000000715,8066,NTS,B,8
1,9,test,4,C,circle.png,1,z,Mon May 11 2026 16:59:30 GMT-0500 (Central Daylight Time),590431.5,1000,I,z,968,1,3,1995.6999999284744,588435.8000000715,8066,NTS,B,9
2,10,test,4,C,circle.png,1,z,Mon May 11 2026 16:59:30 GMT-0500 (Central Daylight Time),592880.6000000238,1700,I,z,725,10,3,2445.0,590435.6000000238,8066,NTS,B,10
1,11,test,4,C,triangle.png,1,z,Mon May 11 2026 16:59:30 GMT-0500 (Central Daylight Time),595663.3000000715,1900,I,z,852,9,3,2778.7000000476837,592884.6000000238,8066,NTS,B,11
6,12,test,4,C,circle.png,1,m,Mon May 11 2026 16:59:30 GMT-0500 (Central Daylight Time),598412.4000000954,1900,I,m,830,21,3,2744.9000000953674,595667.5,8066,NTS,B,12
6,13,test,4,C,circle.png,1,m,Mon May 11 2026 16:59:30 GMT-0500 (Central Daylight Time),601161.7000000477,1900,I,m,824,5,3,2745.7000000476837,598416.0,8066,NTS,B,13
8,14,test,4,C,circle.png,1,m,Mon May 11 2026 16:59:30 GMT-0500 (Central Daylight Time),603094.3000000715,1200,I,m,703,15,3,1928.7000000476837,601165.6000000238,8066,NTS,B,14
2,15,test,4,C,triangle.png,1,m,Mon May 11 2026 16:59:30 GMT-0500 (Central Daylight Time),606160.1000000238,2000,I,m,1043,18,3,3062.0,603098.1000000238,8066,NTS,B,15
9,16,test,4,C,circle.png,1,m,Mon May 11 2026 16:59:30 GMT-0500 (Central Daylight Time),608559.1000000238,1500,I,m,877,24,3,2393.899999976158,606165.2000000477,8066,NTS,B,16
1,17,test,4,C,circle.png,1,z,Mon May 11 2026 16:59:30 GMT-0500 (Central Daylight Time),610408.5,1000,I,z,825,17,3,1845.0,608563.5,8066,NTS,B,17
8,18,test,4,C,triangle.png,1,m,Mon May 11 2026 16:59:30 GMT-0500 (Central Daylight Time),613057.7000000477,1600,I,m,1024,23,3,2645.2999999523163,610412.4000000954,8066,NTS,B,18
7,19,test,4,C,triangle.png,1,z,Mon May 11 2026 16:59:30 GMT-0500 (Central Daylight Time),615773.6000000238,1700,I,z,987,6,3,2711.899999976158,613061.7000000477,8066,NTS,B,19
4,20,test,4,C,circle.png,1,z,Mon May 11 2026 16:59:30 GMT-0500 (Central Daylight Time),618089.4000000954,1400,I,z,899,20,3,2312.100000023842,615777.3000000715,8066,NTS,B,20
4,20,test,4,C,circle.png,0,z,Mon May 11 2026 16:59:30 GMT-0500 (Central Daylight Time),620755.4000000954,1400,I,m,1247,4,3,2661.7000000476837,618093.7000000477,8066,NTS,B,21
7,21,test,4,C,circle.png,1,m,Mon May 11 2026 16:59:30 GMT-0500 (Central Daylight Time),623987.7000000477,2000,I,m,1205,14,3,3228.7000000476837,620759.0,8066,NTS,B,22
8,22,test,4,C,triangle.png,1,m,Mon May 11 2026 16:59:30 GMT-0500 (Central Daylight Time),626803.5,1600,I,m,1197,7,3,2810.899999976158,623992.6000000238,8066,NTS,B,23
9,23,test,4,C,circle.png,1,m,Mon May 11 2026 16:59:30 GMT-0500 (Central Daylight Time),629252.7000000477,1500,I,m,921,8,3,2445.0,626807.7000000477,8066,NTS,B,24
