acc_sum,block,block_c,condition,correct,correct_response,datetime,endtime,flanker,jitter,project,response,response_test_buffer_response,response_test_target_response,response_time,response_time_test_buffer_response,response_time_test_target_response,row_sel,session_number,start_end,starttime,subject_id,target,task,task_vers,time_test_buffer,time_test_buffer_response,time_test_constants,time_test_flanker,time_test_jitter,time_test_logger,time_test_target,time_test_target_response,time_test_variables,trial
1,prac,1,inc,1,m,Tue Sep 02 2025 08:45:02 GMT-0500 (Central Daylight Time),92921.29999995232,hate,1100,I,m,,,648,,,4,1,3043.2999999523163,89878.0,8058,film,AF,C,,,,,,,,,,1
2,prac,1,inc,1,m,Tue Sep 02 2025 08:45:02 GMT-0500 (Central Daylight Time),95753.5,elated,900,I,m,,,623,,,6,1,2826.7000000476837,92926.79999995232,8058,napkin,AF,C,,,,,,,,,,2
3,prac,1,con,1,z,Tue Sep 02 2025 08:45:02 GMT-0500 (Central Daylight Time),98619.5,rage,1000,I,z,,,552,,,15,1,2861.600000023842,95757.89999997616,8058,rage,AF,C,,,,,,,,,,3
4,prac,1,con,1,m,Tue Sep 02 2025 08:45:02 GMT-0500 (Central Daylight Time),101318.69999992847,bell,1000,I,m,,,392,,,3,1,2694.5,98624.19999992847,8058,bell,AF,C,,,,,,,,,,4
5,prac,1,inc,1,z,Tue Sep 02 2025 08:45:02 GMT-0500 (Central Daylight Time),104301.10000002384,window,1100,I,z,,,575,,,16,1,2978.100000023842,101323.0,8058,temper,AF,C,,,,,,,,,,5
6,prac,1,con,1,z,Tue Sep 02 2025 08:45:02 GMT-0500 (Central Daylight Time),106933.5,elated,800,I,z,,,534,,,9,1,2628.100000023842,104305.39999997616,8058,elated,AF,C,,,,,,,,,,6
7,prac,1,con,1,m,Tue Sep 02 2025 08:45:02 GMT-0500 (Central Daylight Time),109632.69999992847,remote,1000,I,m,,,398,,,7,1,2695.0999999046326,106937.60000002384,8058,remote,AF,C,,,,,,,,,,7
8,prac,1,con,1,m,Tue Sep 02 2025 08:45:02 GMT-0500 (Central Daylight Time),112381.69999992847,step,800,I,m,,,643,,,1,1,2744.2999999523163,109637.39999997616,8058,step,AF,C,,,,,,,,,,8
9,prac,1,con,1,z,Tue Sep 02 2025 08:45:02 GMT-0500 (Central Daylight Time),115064.19999992847,love,1000,I,z,,,374,,,11,1,2677.899999976158,112386.29999995232,8058,love,AF,C,,,,,,,,,,9
10,prac,1,con,1,m,Tue Sep 02 2025 08:45:02 GMT-0500 (Central Daylight Time),117596.89999997616,jacket,800,I,m,,,419,,,5,1,2527.5,115069.39999997616,8058,jacket,AF,C,,,,,,,,,,10
11,prac,1,inc,1,z,Tue Sep 02 2025 08:45:02 GMT-0500 (Central Daylight Time),120329.39999997616,film,900,I,z,,,531,,,14,1,2728.7000000476837,117600.69999992847,8058,hate,AF,C,,,,,,,,,,11
12,prac,1,inc,1,z,Tue Sep 02 2025 08:45:02 GMT-0500 (Central Daylight Time),123328.19999992847,napkin,1100,I,z,,,599,,,12,1,2994.5,120333.69999992847,8058,friend,AF,C,,,,,,,,,,12
13,prac,1,inc,1,z,Tue Sep 02 2025 08:45:02 GMT-0500 (Central Daylight Time),126194.0,rock,900,I,z,,,654,,,10,1,2862.0,123332.0,8058,kind,AF,C,,,,,,,,,,13
14,prac,1,inc,1,m,Tue Sep 02 2025 08:45:02 GMT-0500 (Central Daylight Time),128943.29999995232,kind,900,I,m,,,533,,,2,1,2745.0,126198.29999995232,8058,rock,AF,C,,,,,,,,,,14
15,prac,1,con,1,z,Tue Sep 02 2025 08:45:02 GMT-0500 (Central Daylight Time),131575.79999995232,brutal,800,I,z,,,533,,,13,1,2628.1999999284744,128947.60000002384,8058,brutal,AF,C,,,,,,,,,,15
16,prac,1,inc,1,m,Tue Sep 02 2025 08:45:02 GMT-0500 (Central Daylight Time),134624.69999992847,brutal,1100,I,m,,,638,,,8,1,3044.899999976158,131579.79999995232,8058,window,AF,C,,,,,,,,,,16
1,test,1,inc,1,z,Tue Sep 02 2025 08:45:02 GMT-0500 (Central Daylight Time),145521.5,napkin,900,I,z,z,None,658,458.0,200.0,30,1,2096.2000000476837,143425.29999995232,8058,friend,AF,C,140925,140925,139295,140209,139296,141392,140725,140725,141392,1
2,test,1,inc,1,z,Tue Sep 02 2025 08:45:02 GMT-0500 (Central Daylight Time),147420.79999995232,jacket,800,I,z,z,None,553,354.0,199.0,61,1,1894.6999999284744,145526.10000002384,8058,temper,AF,C,142924,142924,141396,142208,141397,143291,142725,142725,143291,2
3,test,1,inc,1,z,Tue Sep 02 2025 08:45:02 GMT-0500 (Central Daylight Time),149371.10000002384,step,800,I,z,z,None,615,415.0,200.0,53,1,1946.3000000715256,147424.79999995232,8058,rage,AF,C,144824,144824,143295,144107,143295,145241,144624,144624,145241,3
4,test,1,con,1,m,Tue Sep 02 2025 08:45:02 GMT-0500 (Central Daylight Time),151602.79999995232,jacket,1100,I,m,m,None,590,390.0,200.0,100,1,2227.5,149375.29999995232,8058,jacket,AF,C,147073,147073,145245,146357,145246,147473,146873,146873,147473,4
5,test,1,con,1,z,Tue Sep 02 2025 08:45:02 GMT-0500 (Central Daylight Time),153602.10000002384,rage,800,I,z,z,None,656,314.0,342.0,49,1,1995.3000000715256,151606.79999995232,8058,rage,AF,C,149148,149148,147477,148289,147477,149472,148806,148806,149472,5
6,test,1,con,1,m,Tue Sep 02 2025 08:45:02 GMT-0500 (Central Daylight Time),155701.79999995232,rock,1100,I,m,m,None,454,254.0,200.0,76,1,2095.1999999284744,153606.60000002384,8058,rock,AF,C,151305,151305,149477,150589,149477,151572,151105,151105,151572,6
7,test,1,inc,1,m,Tue Sep 02 2025 08:45:02 GMT-0500 (Central Daylight Time),157784.0,brutal,900,I,m,m,None,642,442.0,200.0,126,1,2078.0,155706.0,8058,window,AF,C,153205,153205,151576,152488,151576,153654,153004,153004,153654,7
8,test,1,con,1,z,Tue Sep 02 2025 08:45:02 GMT-0500 (Central Daylight Time),159900.0,brutal,1000,I,z,z,None,579,379.0,200.0,35,1,2112.0,157788.0,8058,brutal,AF,C,155387,155387,153658,154671,153658,155770,155187,155187,155770,8
9,test,1,con,1,m,Tue Sep 02 2025 08:45:02 GMT-0500 (Central Daylight Time),162032.60000002384,bell,1000,I,m,m,None,599,399.0,200.0,83,1,2128.600000023842,159904.0,8058,bell,AF,C,157503,157503,155774,156787,155774,157903,157303,157303,157903,9
10,test,1,con,1,z,Tue Sep 02 2025 08:45:02 GMT-0500 (Central Daylight Time),164282.0,elated,1100,I,z,z,None,607,407.0,200.0,4,1,2245.100000023842,162036.89999997616,8058,elated,AF,C,159736,159736,157907,159020,157907,160152,159536,159536,160152,10
11,test,1,inc,1,m,Tue Sep 02 2025 08:45:02 GMT-0500 (Central Daylight Time),166248.19999992847,kind,900,I,m,m,None,517,317.0,200.0,86,1,1962.0999999046326,164286.10000002384,8058,bell,AF,C,161785,161785,160156,161069,160156,162118,161585,161585,162118,11
12,test,1,inc,1,m,Tue Sep 02 2025 08:45:02 GMT-0500 (Central Daylight Time),168447.39999997616,hate,1100,I,m,m,None,560,360.0,200.0,88,1,2195.0,166252.39999997616,8058,bell,AF,C,163951,163951,162122,163234,162123,164317,163751,163751,164317,12
13,test,1,con,1,m,Tue Sep 02 2025 08:45:02 GMT-0500 (Central Daylight Time),170580.10000002384,remote,800,I,m,m,None,786,587.0,199.0,113,1,2128.8000000715256,168451.29999995232,8058,remote,AF,C,165851,165851,164321,165134,164322,166450,165651,165651,166450,13
14,test,1,inc,1,z,Tue Sep 02 2025 08:45:02 GMT-0500 (Central Daylight Time),172546.10000002384,rock,900,I,z,z,None,524,324.0,200.0,22,1,1961.8000000715256,170584.29999995232,8058,love,AF,C,168083,168083,166454,167367,166455,168416,167883,167883,168416,14
15,test,1,con,1,m,Tue Sep 02 2025 08:45:02 GMT-0500 (Central Daylight Time),174561.79999995232,remote,900,I,m,m,None,582,382.0,200.0,114,1,2011.7999999523163,172550.0,8058,remote,AF,C,170049,170049,168420,169333,168420,170432,169849,169849,170432,15
16,test,1,inc,1,z,Tue Sep 02 2025 08:45:02 GMT-0500 (Central Daylight Time),176561.29999995232,napkin,900,I,z,z,None,557,357.0,200.0,62,1,1995.6999999284744,174565.60000002384,8058,temper,AF,C,172065,172065,170436,171349,170436,172431,171865,171865,172431,16
17,test,1,con,1,z,Tue Sep 02 2025 08:45:02 GMT-0500 (Central Daylight Time),178694.39999997616,brutal,900,I,z,z,None,685,485.0,200.0,34,1,2128.7000000476837,176565.69999992847,8058,brutal,AF,C,174064,174065,172436,173348,172436,174564,173864,173864,174564,17
17,test,1,inc,0,m,Tue Sep 02 2025 08:45:02 GMT-0500 (Central Daylight Time),180860.5,temper,1000,I,z,z,None,622,422.0,200.0,119,1,2162.3000000715256,178698.19999992847,8058,remote,AF,C,176297,176297,174568,175581,174569,176731,176097,176097,176730,18
18,test,1,inc,1,z,Tue Sep 02 2025 08:45:02 GMT-0500 (Central Daylight Time),183043.0,film,1100,I,z,z,None,540,340.0,200.0,48,1,2178.600000023842,180864.39999997616,8058,hate,AF,C,178563,178563,176734,177846,176735,178913,178363,178363,178913,19
19,test,1,inc,1,m,Tue Sep 02 2025 08:45:02 GMT-0500 (Central Daylight Time),185292.39999997616,friend,1100,I,m,m,None,605,405.0,200.0,128,1,2245.2000000476837,183047.19999992847,8058,window,AF,C,180746,180746,178917,180029,178918,181162,180546,180546,181162,20
20,test,1,inc,1,z,Tue Sep 02 2025 08:45:02 GMT-0500 (Central Daylight Time),187424.79999995232,remote,1000,I,z,z,None,584,384.0,200.0,31,1,2127.1999999284744,185297.60000002384,8058,friend,AF,C,182895,182895,181168,182179,181168,183295,182695,182695,183295,21
21,test,1,con,1,z,Tue Sep 02 2025 08:45:02 GMT-0500 (Central Daylight Time),189640.79999995232,rage,1000,I,z,z,None,666,467.0,199.0,51,1,2211.7999999523163,187429.0,8058,rage,AF,C,185028,185028,183299,184312,183299,185511,184828,184828,185511,22
22,test,1,con,1,z,Tue Sep 02 2025 08:45:02 GMT-0500 (Central Daylight Time),191889.89999997616,brutal,1100,I,z,z,None,613,414.0,199.0,36,1,2245.100000023842,189644.79999995232,8058,brutal,AF,C,187344,187344,185515,186627,185515,187760,187144,187144,187760,23
23,test,1,con,1,z,Tue Sep 02 2025 08:45:02 GMT-0500 (Central Daylight Time),193956.19999992847,temper,1100,I,z,z,None,421,222.0,199.0,60,1,2062.5,191893.69999992847,8058,temper,AF,C,189593,189593,187764,188877,187764,189826,189394,189394,189826,24
24,test,1,con,1,m,Tue Sep 02 2025 08:45:02 GMT-0500 (Central Daylight Time),196205.69999992847,bell,1100,I,m,m,None,612,412.0,200.0,84,1,2245.399999976158,193960.29999995232,8058,bell,AF,C,191659,191659,189830,190943,189831,192076,191459,191459,192076,25
25,test,1,con,1,m,Tue Sep 02 2025 08:45:02 GMT-0500 (Central Daylight Time),198188.29999995232,rock,900,I,m,m,None,545,346.0,199.0,74,1,1978.7999999523163,196209.5,8058,rock,AF,C,193709,193709,192080,192992,192080,194058,193509,193509,194058,26
26,test,1,inc,1,z,Tue Sep 02 2025 08:45:02 GMT-0500 (Central Daylight Time),200433.0,rock,900,I,z,z,None,665,465.0,200.0,54,1,2240.899999976158,198192.10000002384,8058,rage,AF,C,195691,195691,194062,194975,194062,196303,195491,195491,196303,27
27,test,1,con,1,z,Tue Sep 02 2025 08:45:02 GMT-0500 (Central Daylight Time),202553.19999992847,temper,900,I,z,z,None,680,481.0,199.0,58,1,2115.899999976158,200437.29999995232,8058,temper,AF,C,197940,197941,196307,197224,196308,198423,197741,197741,198423,28
28,test,1,con,1,z,Tue Sep 02 2025 08:45:02 GMT-0500 (Central Daylight Time),204319.5,hate,800,I,z,z,None,425,226.0,199.0,41,1,1762.8000000715256,202556.69999992847,8058,hate,AF,C,199957,199957,198427,199240,198427,200190,199757,199757,200190,29
29,test,1,con,1,m,Tue Sep 02 2025 08:45:02 GMT-0500 (Central Daylight Time),206185.19999992847,jacket,900,I,m,m,None,430,231.0,199.0,98,1,1862.0,204323.19999992847,8058,jacket,AF,C,201823,201823,200193,201106,200193,202055,201623,201623,202055,30
30,test,1,con,1,m,Tue Sep 02 2025 08:45:02 GMT-0500 (Central Daylight Time),208201.29999995232,step,800,I,m,m,None,680,481.0,199.0,65,1,2012.2999999523163,206189.0,8058,step,AF,C,203589,203589,202059,202872,202059,204071,203389,203389,204071,31
31,test,1,inc,1,z,Tue Sep 02 2025 08:45:02 GMT-0500 (Central Daylight Time),210367.60000002384,film,1100,I,z,z,None,516,317.0,199.0,56,1,2162.2000000476837,208205.39999997616,8058,rage,AF,C,205905,205905,204075,205188,204076,206238,205705,205705,206238,32
32,test,1,con,1,m,Tue Sep 02 2025 08:45:02 GMT-0500 (Central Daylight Time),212483.5,step,900,I,m,m,None,670,471.0,199.0,66,1,2112.100000023842,210371.39999997616,8058,step,AF,C,207871,207871,206241,207154,206242,208354,207671,207671,208354,33
33,test,1,con,1,z,Tue Sep 02 2025 08:45:02 GMT-0500 (Central Daylight Time),214416.19999992847,friend,900,I,z,z,None,490,291.0,199.0,26,1,1928.7999999523163,212487.39999997616,8058,friend,AF,C,209987,209987,208357,209270,208358,210286,209787,209787,210286,34
34,test,1,con,1,z,Tue Sep 02 2025 08:45:02 GMT-0500 (Central Daylight Time),216282.39999997616,elated,900,I,z,z,None,423,224.0,199.0,2,1,1862.1000000238419,214420.29999995232,8058,elated,AF,C,211919,211919,210290,211203,210291,212153,211720,211720,212152,35
35,test,1,con,1,z,Tue Sep 02 2025 08:45:02 GMT-0500 (Central Daylight Time),218231.79999995232,rage,900,I,z,z,None,499,300.0,199.0,50,1,1945.6999999284744,216286.10000002384,8058,rage,AF,C,213786,213786,212156,213069,212156,214102,213586,213586,214102,36
36,test,1,inc,1,m,Tue Sep 02 2025 08:45:02 GMT-0500 (Central Daylight Time),220347.69999992847,love,1000,I,m,m,None,571,371.0,200.0,71,1,2112.1999999284744,218235.5,8058,step,AF,C,215835,215835,214106,215118,214106,216218,215635,215635,216218,37
37,test,1,inc,1,z,Tue Sep 02 2025 08:45:02 GMT-0500 (Central Daylight Time),222297.19999992847,jacket,800,I,z,z,None,607,407.0,200.0,29,1,1945.5,220351.69999992847,8058,friend,AF,C,217751,217751,216222,217034,216222,218167,217551,217551,218167,38
38,test,1,inc,1,m,Tue Sep 02 2025 08:45:02 GMT-0500 (Central Daylight Time),224496.60000002384,love,1000,I,m,m,None,604,397.0,207.0,79,1,2195.9000000953674,222300.69999992847,8058,rock,AF,C,219954,219954,218171,219184,218171,220367,219746,219746,220367,39
39,test,1,con,1,z,Tue Sep 02 2025 08:45:02 GMT-0500 (Central Daylight Time),226562.5,hate,900,I,z,z,None,631,431.0,200.0,42,1,2062.3000000715256,224500.19999992847,8058,hate,AF,C,221999,221999,220370,221283,220370,222433,221799,221799,222433,40
40,test,1,con,1,m,Tue Sep 02 2025 08:45:02 GMT-0500 (Central Daylight Time),228545.0,napkin,800,I,m,m,None,647,448.0,199.0,105,1,1978.8000000715256,226566.19999992847,8058,napkin,AF,C,223966,223966,222436,223249,222436,224415,223766,223766,224415,41
41,test,1,inc,1,z,Tue Sep 02 2025 08:45:02 GMT-0500 (Central Daylight Time),230661.19999992847,window,1100,I,z,z,None,478,278.0,200.0,40,1,2112.5,228548.69999992847,8058,brutal,AF,C,226248,226249,224419,225532,224419,226531,226048,226048,226531,42
42,test,1,con,1,m,Tue Sep 02 2025 08:45:02 GMT-0500 (Central Daylight Time),232744.19999992847,step,1000,I,m,m,None,543,343.0,200.0,67,1,2079.1999999284744,230665.0,8058,step,AF,C,228264,228264,226535,227548,226535,228614,228064,228064,228614,43
43,test,1,inc,1,z,Tue Sep 02 2025 08:45:02 GMT-0500 (Central Daylight Time),234543.69999992847,jacket,800,I,z,z,None,451,251.0,200.0,5,1,1795.8999999761581,232747.79999995232,8058,elated,AF,C,230147,230147,228618,229431,228618,230414,229947,229947,230414,44
44,test,1,con,1,z,Tue Sep 02 2025 08:45:02 GMT-0500 (Central Daylight Time),236625.79999995232,love,1100,I,z,z,None,440,240.0,200.0,20,1,2078.1999999284744,234547.60000002384,8058,love,AF,C,232247,232247,230418,231530,230418,232496,232046,232046,232496,45
45,test,1,inc,1,m,Tue Sep 02 2025 08:45:02 GMT-0500 (Central Daylight Time),238593.39999997616,kind,900,I,m,m,None,517,317.0,200.0,70,1,1963.7000000476837,236629.69999992847,8058,step,AF,C,234129,234129,232500,233413,232500,234463,233929,233929,234463,46
46,test,1,inc,1,m,Tue Sep 02 2025 08:45:02 GMT-0500 (Central Daylight Time),240474.89999997616,rage,800,I,m,m,None,548,348.0,200.0,93,1,1877.3999999761581,238597.5,8058,film,AF,C,235995,235995,234468,235279,234468,236345,235795,235795,236345,47
47,test,1,con,1,z,Tue Sep 02 2025 08:45:02 GMT-0500 (Central Daylight Time),242674.10000002384,kind,1000,I,z,z,None,664,464.0,200.0,11,1,2195.5,240478.60000002384,8058,kind,AF,C,238078,238078,236349,237361,236349,238544,237878,237878,238544,48
48,test,1,con,1,m,Tue Sep 02 2025 08:45:02 GMT-0500 (Central Daylight Time),244723.60000002384,window,1100,I,m,m,None,414,214.0,200.0,124,1,2045.8000000715256,242677.79999995232,8058,window,AF,C,240377,240377,238548,239661,238548,240594,240177,240177,240594,49
49,test,1,inc,1,m,Tue Sep 02 2025 08:45:02 GMT-0500 (Central Daylight Time),246906.19999992847,hate,1100,I,m,m,None,540,341.0,199.0,80,1,2178.899999976158,244727.29999995232,8058,rock,AF,C,242426,242426,240597,241710,240598,242776,242227,242227,242776,50
50,test,1,inc,1,z,Tue Sep 02 2025 08:45:02 GMT-0500 (Central Daylight Time),248788.89999997616,jacket,800,I,z,z,None,545,345.0,200.0,37,1,1879.1000000238419,246909.79999995232,8058,brutal,AF,C,244309,244309,242780,243594,242780,244659,244109,244109,244659,51
51,test,1,inc,1,m,Tue Sep 02 2025 08:45:02 GMT-0500 (Central Daylight Time),250855.0,temper,1000,I,m,m,None,518,318.0,200.0,103,1,2062.3000000715256,248792.69999992847,8058,jacket,AF,C,246392,246392,244663,245676,244663,246725,246192,246192,246725,52
52,test,1,con,1,m,Tue Sep 02 2025 08:45:02 GMT-0500 (Central Daylight Time),252771.0,window,800,I,m,m,None,581,381.0,200.0,121,1,1912.2000000476837,250858.79999995232,8058,window,AF,C,248258,248258,246729,247541,246729,248641,248058,248058,248641,53
53,test,1,con,1,z,Tue Sep 02 2025 08:45:02 GMT-0500 (Central Daylight Time),254687.10000002384,elated,1000,I,z,z,None,377,177.0,200.0,3,1,1912.2000000476837,252774.89999997616,8058,elated,AF,C,250374,250374,248645,249658,248645,250557,250174,250174,250557,54
54,test,1,con,1,m,Tue Sep 02 2025 08:45:02 GMT-0500 (Central Daylight Time),256603.10000002384,bell,800,I,m,m,None,581,381.0,200.0,81,1,1912.4000000953674,254690.69999992847,8058,bell,AF,C,252090,252090,250561,251374,250561,252473,251890,251890,252473,55
55,test,1,con,1,z,Tue Sep 02 2025 08:45:02 GMT-0500 (Central Daylight Time),258835.79999995232,kind,1100,I,z,z,None,589,389.0,200.0,12,1,2228.6999999284744,256607.10000002384,8058,kind,AF,C,254306,254306,252477,253590,252477,254706,254106,254106,254706,56
56,test,1,inc,1,m,Tue Sep 02 2025 08:45:02 GMT-0500 (Central Daylight Time),260651.79999995232,elated,800,I,m,m,None,480,280.0,200.0,125,1,1812.1000000238419,258839.69999992847,8058,window,AF,C,256239,256239,254710,255522,254710,256522,256039,256039,256522,57
57,test,1,inc,1,z,Tue Sep 02 2025 08:45:02 GMT-0500 (Central Daylight Time),262701.2999999523,bell,1000,I,z,z,None,503,303.0,200.0,55,1,2045.8999999761581,260655.39999997616,8058,rage,AF,C,258255,258255,256525,257538,256526,258571,258055,258055,258571,58
58,test,1,inc,1,m,Tue Sep 02 2025 08:45:02 GMT-0500 (Central Daylight Time),264867.2999999523,friend,1100,I,m,m,None,523,323.0,200.0,104,1,2162.2999999523163,262705.0,8058,jacket,AF,C,260404,260404,258575,259688,258575,260737,260204,260204,260737,59
59,test,1,inc,1,z,Tue Sep 02 2025 08:45:02 GMT-0500 (Central Daylight Time),266850.10000002384,step,800,I,z,z,None,641,441.0,200.0,21,1,1979.2000000476837,264870.89999997616,8058,love,AF,C,262270,262270,260741,261554,260741,262720,262070,262070,262720,60
60,test,1,inc,1,m,Tue Sep 02 2025 08:45:02 GMT-0500 (Central Daylight Time),268716.0,elated,800,I,m,m,None,522,321.0,201.0,101,1,1862.5,266853.5,8058,jacket,AF,C,264254,264254,262724,263537,262724,264586,264053,264053,264586,61
61,test,1,inc,1,m,Tue Sep 02 2025 08:45:02 GMT-0500 (Central Daylight Time),270848.6999999285,temper,1000,I,m,m,None,592,392.0,200.0,111,1,2129.1999999284744,268719.5,8058,napkin,AF,C,266319,266319,264590,265603,264590,266719,266119,266119,266719,62
62,test,1,inc,1,m,Tue Sep 02 2025 08:45:02 GMT-0500 (Central Daylight Time),272864.5,brutal,900,I,m,m,None,573,374.0,199.0,118,1,2011.8000000715256,270852.6999999285,8058,remote,AF,C,268351,268352,266723,267635,266723,268735,268152,268152,268735,63
63,test,1,inc,1,m,Tue Sep 02 2025 08:45:02 GMT-0500 (Central Daylight Time),274997.2999999523,friend,1100,I,m,m,None,493,294.0,199.0,120,1,2129.0,272868.2999999523,8058,remote,AF,C,270568,270568,268738,269851,268739,270867,270368,270368,270867,64
64,test,1,inc,1,m,Tue Sep 02 2025 08:45:02 GMT-0500 (Central Daylight Time),277246.5,hate,1100,I,m,m,None,603,403.0,200.0,72,1,2244.8000000715256,275001.6999999285,8058,step,AF,C,272700,272700,270872,271984,270872,273117,272500,272500,273117,65
65,test,1,inc,1,z,Tue Sep 02 2025 08:45:02 GMT-0500 (Central Daylight Time),279312.7999999523,window,1100,I,z,z,None,416,217.0,199.0,8,1,2062.2999999523163,277250.5,8058,elated,AF,C,274950,274950,273121,274233,273121,275183,274750,274750,275183,66
66,test,1,inc,1,m,Tue Sep 02 2025 08:45:02 GMT-0500 (Central Daylight Time),281228.60000002384,brutal,900,I,m,m,None,470,271.0,199.0,102,1,1911.9000000953674,279316.6999999285,8058,jacket,AF,C,276815,276815,275187,276099,275187,277099,276616,276616,277099,67
67,test,1,con,1,z,Tue Sep 02 2025 08:45:02 GMT-0500 (Central Daylight Time),283095.0,love,800,I,z,z,None,527,327.0,200.0,17,1,1862.3000000715256,281232.6999999285,8058,love,AF,C,278632,278632,277103,277915,277103,278965,278432,278432,278965,68
68,test,1,inc,1,z,Tue Sep 02 2025 08:45:02 GMT-0500 (Central Daylight Time),285194.5,bell,1000,I,z,z,None,556,357.0,199.0,15,1,2095.899999976158,283098.60000002384,8058,kind,AF,C,280698,280698,278969,279981,278969,281065,280498,280498,281064,69
68,test,1,con,0,m,Tue Sep 02 2025 08:45:02 GMT-0500 (Central Daylight Time),287326.89999997616,remote,1100,I,z,z,None,486,286.0,200.0,116,1,2128.399999976158,285198.5,8058,remote,AF,C,282897,282897,281069,282181,281069,283197,282697,282697,283197,70
69,test,1,con,1,z,Tue Sep 02 2025 08:45:02 GMT-0500 (Central Daylight Time),289259.2999999523,love,1000,I,z,z,None,396,196.0,200.0,19,1,1928.7999999523163,287330.5,8058,love,AF,C,284930,284930,283201,284213,283201,285129,284730,284730,285129,71
70,test,1,inc,1,m,Tue Sep 02 2025 08:45:02 GMT-0500 (Central Daylight Time),291192.0,rage,800,I,m,m,None,582,383.0,199.0,69,1,1929.1000000238419,289262.89999997616,8058,step,AF,C,286663,286663,285133,285946,285133,287062,286463,286463,287062,72
71,test,1,inc,1,m,Tue Sep 02 2025 08:45:02 GMT-0500 (Central Daylight Time),293042.10000002384,rage,800,I,m,m,None,507,308.0,199.0,77,1,1846.4000000953674,291195.6999999285,8058,rock,AF,C,288595,288595,287066,287879,287066,288912,288396,288396,288912,73
72,test,1,con,1,m,Tue Sep 02 2025 08:45:02 GMT-0500 (Central Daylight Time),295241.10000002384,napkin,900,I,m,m,None,638,430.0,208.0,106,1,2195.3000000715256,293045.7999999523,8058,napkin,AF,C,290681,290681,288916,289828,288916,291111,290473,290473,291111,74
73,test,1,inc,1,m,Tue Sep 02 2025 08:45:02 GMT-0500 (Central Daylight Time),297357.0,love,1000,I,m,m,None,579,379.0,200.0,87,1,2112.399999976158,295244.60000002384,8058,bell,AF,C,292844,292844,291115,292129,291115,293227,292644,292644,293227,75
74,test,1,inc,1,m,Tue Sep 02 2025 08:45:02 GMT-0500 (Central Daylight Time),299223.0,elated,800,I,m,m,None,527,327.0,200.0,109,1,1862.3000000715256,297360.6999999285,8058,napkin,AF,C,294760,294760,293231,294044,293231,295093,294560,294560,295093,76
75,test,1,inc,1,m,Tue Sep 02 2025 08:45:02 GMT-0500 (Central Daylight Time),301205.60000002384,kind,900,I,m,m,None,544,344.0,200.0,78,1,1979.0,299226.60000002384,8058,rock,AF,C,296726,296726,295097,296010,295097,297076,296526,296526,297076,77
76,test,1,con,1,m,Tue Sep 02 2025 08:45:02 GMT-0500 (Central Daylight Time),303471.60000002384,step,1100,I,m,m,None,617,417.0,200.0,68,1,2262.4000000953674,301209.1999999285,8058,step,AF,C,298909,298909,297079,298192,297079,299342,298709,298709,299342,78
77,test,1,con,1,m,Tue Sep 02 2025 08:45:02 GMT-0500 (Central Daylight Time),305304.60000002384,film,900,I,m,m,None,383,183.0,200.0,90,1,1828.8000000715256,303475.7999999523,8058,film,AF,C,300975,300975,299346,300258,299346,301175,300775,300775,301175,79
78,test,1,con,1,m,Tue Sep 02 2025 08:45:02 GMT-0500 (Central Daylight Time),307270.60000002384,rock,1000,I,m,m,None,418,218.0,200.0,75,1,1962.3000000715256,305308.2999999523,8058,rock,AF,C,302908,302908,301178,302191,301179,303141,302707,302707,303141,80
79,test,1,inc,1,z,Tue Sep 02 2025 08:45:02 GMT-0500 (Central Daylight Time),309353.1999999285,window,1100,I,z,z,None,439,240.0,199.0,32,1,2079.0,307274.1999999285,8058,friend,AF,C,304973,304974,303144,304257,303145,305223,304774,304774,305223,81
80,test,1,con,1,m,Tue Sep 02 2025 08:45:02 GMT-0500 (Central Daylight Time),311335.7999999523,remote,1000,I,m,m,None,434,234.0,200.0,115,1,1978.6000000238419,309357.1999999285,8058,remote,AF,C,306956,306956,305227,306240,305228,307206,306756,306756,307206,82
81,test,1,con,1,m,Tue Sep 02 2025 08:45:02 GMT-0500 (Central Daylight Time),313418.60000002384,napkin,1100,I,m,m,None,440,240.0,200.0,108,1,2079.100000023842,311339.5,8058,napkin,AF,C,309039,309039,307210,308322,307210,309289,308839,308839,309289,83
82,test,1,inc,1,m,Tue Sep 02 2025 08:45:02 GMT-0500 (Central Daylight Time),315634.39999997616,hate,1100,I,m,m,None,580,381.0,199.0,96,1,2212.0,313422.39999997616,8058,film,AF,C,311122,311122,309292,310405,309293,311505,310922,310922,311504,84
83,test,1,con,1,z,Tue Sep 02 2025 08:45:02 GMT-0500 (Central Daylight Time),317633.7999999523,kind,800,I,z,z,None,656,457.0,199.0,9,1,1995.5,315638.2999999523,8058,kind,AF,C,313038,313038,311508,312321,311509,313504,312838,312838,313504,85
84,test,1,inc,1,m,Tue Sep 02 2025 08:45:02 GMT-0500 (Central Daylight Time),319516.7999999523,elated,800,I,m,m,None,546,346.0,200.0,117,1,1879.3999999761581,317637.39999997616,8058,remote,AF,C,315037,315037,313507,314320,313508,315387,314837,314837,315387,86
84,test,1,con,0,z,Tue Sep 02 2025 08:45:02 GMT-0500 (Central Daylight Time),321433.2999999523,love,900,I,m,m,None,474,275.0,199.0,18,1,1912.6999999284744,319520.60000002384,8058,love,AF,C,317020,317020,315391,316303,315391,317303,316820,316820,317303,87
85,test,1,con,1,z,Tue Sep 02 2025 08:45:02 GMT-0500 (Central Daylight Time),323182.39999997616,brutal,800,I,z,z,None,402,202.0,200.0,33,1,1745.7000000476837,321436.6999999285,8058,brutal,AF,C,318836,318836,317307,318119,317307,319052,318636,318636,319052,88
86,test,1,inc,1,z,Tue Sep 02 2025 08:45:02 GMT-0500 (Central Daylight Time),325081.60000002384,step,800,I,z,z,None,566,366.0,200.0,13,1,1895.5,323186.10000002384,8058,kind,AF,C,320585,320585,319056,319869,319056,320952,320385,320385,320952,89
87,test,1,inc,1,z,Tue Sep 02 2025 08:45:02 GMT-0500 (Central Daylight Time),326981.10000002384,step,800,I,z,z,None,553,354.0,199.0,45,1,1896.0,325085.10000002384,8058,hate,AF,C,322485,322485,320955,321768,320955,322851,322285,322285,322851,90
88,test,1,inc,1,z,Tue Sep 02 2025 08:45:02 GMT-0500 (Central Daylight Time),329130.2999999523,remote,1000,I,z,z,None,614,414.0,200.0,63,1,2145.2999999523163,326985.0,8058,temper,AF,C,324584,324584,322855,323868,322855,325000,324384,324384,325000,91
89,test,1,con,1,m,Tue Sep 02 2025 08:45:02 GMT-0500 (Central Daylight Time),331296.39999997616,napkin,1000,I,m,m,None,618,418.0,200.0,107,1,2162.5,329133.89999997616,8058,napkin,AF,C,326733,326733,325004,326017,325004,327166,326533,326533,327166,92
90,test,1,con,1,z,Tue Sep 02 2025 08:45:02 GMT-0500 (Central Daylight Time),333445.6999999285,friend,1100,I,z,z,None,511,312.0,199.0,28,1,2145.5999999046326,331300.10000002384,8058,friend,AF,C,328999,328999,327170,328283,327170,329316,328800,328800,329316,93
91,test,1,inc,1,z,Tue Sep 02 2025 08:45:02 GMT-0500 (Central Daylight Time),335544.6999999285,remote,1000,I,z,z,None,564,365.0,199.0,7,1,2095.2999999523163,333449.39999997616,8058,elated,AF,C,331049,331049,329319,330332,329320,331415,330849,330849,331415,94
92,test,1,inc,1,z,Tue Sep 02 2025 08:45:02 GMT-0500 (Central Daylight Time),337511.0,napkin,900,I,z,z,None,518,318.0,200.0,38,1,1962.3000000715256,335548.6999999285,8058,brutal,AF,C,333048,333048,331419,332331,331419,333381,332848,332848,333381,95
93,test,1,con,1,m,Tue Sep 02 2025 08:45:02 GMT-0500 (Central Daylight Time),339343.60000002384,jacket,800,I,m,m,None,484,284.0,200.0,97,1,1828.9000000953674,337514.6999999285,8058,jacket,AF,C,334914,334914,333385,334198,333385,335214,334714,334714,335214,96
94,test,1,inc,1,z,Tue Sep 02 2025 08:45:02 GMT-0500 (Central Daylight Time),341393.0,remote,1000,I,z,z,None,515,316.0,199.0,39,1,2045.8999999761581,339347.10000002384,8058,brutal,AF,C,336947,336947,335217,336231,335217,337263,336747,336747,337263,97
95,test,1,con,1,m,Tue Sep 02 2025 08:45:02 GMT-0500 (Central Daylight Time),343425.6999999285,film,1000,I,m,m,None,491,291.0,200.0,91,1,2029.0,341396.6999999285,8058,film,AF,C,338996,338996,337267,338280,337267,339296,338796,338796,339296,98
96,test,1,inc,1,z,Tue Sep 02 2025 08:45:02 GMT-0500 (Central Daylight Time),345608.39999997616,film,1100,I,z,z,None,540,341.0,199.0,16,1,2178.899999976158,343429.5,8058,kind,AF,C,341129,341129,339300,340412,339300,341479,340929,340929,341478,99
97,test,1,con,1,m,Tue Sep 02 2025 08:45:02 GMT-0500 (Central Daylight Time),347591.39999997616,window,900,I,m,m,None,543,344.0,199.0,122,1,1979.2999999523163,345612.10000002384,8058,window,AF,C,343111,343111,341482,342395,341482,343461,342912,342912,343461,100
98,test,1,con,1,z,Tue Sep 02 2025 08:45:02 GMT-0500 (Central Daylight Time),349657.10000002384,hate,1000,I,z,z,None,524,325.0,199.0,43,1,2061.8000000715256,347595.2999999523,8058,hate,AF,C,345194,345194,343465,344478,343466,345527,344994,344995,345527,101
99,test,1,inc,1,m,Tue Sep 02 2025 08:45:02 GMT-0500 (Central Daylight Time),351623.39999997616,love,1000,I,m,m,None,418,218.0,200.0,95,1,1962.5,349660.89999997616,8058,film,AF,C,347260,347260,345531,346544,345531,347494,347060,347060,347493,102
100,test,1,con,1,z,Tue Sep 02 2025 08:45:02 GMT-0500 (Central Daylight Time),353389.5,temper,800,I,z,z,None,427,228.0,199.0,57,1,1762.5,351627.0,8058,temper,AF,C,349027,349027,347497,348310,347497,349260,348826,348827,349260,103
100,test,1,con,0,z,Tue Sep 02 2025 08:45:02 GMT-0500 (Central Daylight Time),355805.10000002384,friend,1000,I,m,m,None,871,671.0,200.0,27,1,2412.100000023842,353393.0,8058,friend,AF,C,350992,350992,349263,350276,349263,351675,350792,350792,351675,104
101,test,1,con,1,m,Tue Sep 02 2025 08:45:02 GMT-0500 (Central Daylight Time),357488.10000002384,rock,800,I,m,m,None,349,134.0,215.0,73,1,1679.3000000715256,355808.7999999523,8058,rock,AF,C,353208,353208,351679,352492,351679,353358,352993,352993,353358,105
102,test,1,inc,1,z,Tue Sep 02 2025 08:45:02 GMT-0500 (Central Daylight Time),359454.1999999285,rock,900,I,z,z,None,528,328.0,200.0,14,1,1962.2999999523163,357491.89999997616,8058,kind,AF,C,354991,354991,353362,354275,353362,355324,354791,354791,355324,106
103,test,1,con,1,m,Tue Sep 02 2025 08:45:02 GMT-0500 (Central Daylight Time),361853.5,film,1100,I,m,m,None,762,562.0,200.0,92,1,2395.3000000715256,359458.1999999285,8058,film,AF,C,357157,357157,355328,356441,355328,357724,356957,356957,357723,107
104,test,1,inc,1,z,Tue Sep 02 2025 08:45:02 GMT-0500 (Central Daylight Time),363935.7999999523,window,1100,I,z,z,None,433,234.0,199.0,64,1,2078.6999999284744,361857.10000002384,8058,temper,AF,C,359556,359556,357727,358840,357727,359806,359357,359357,359806,108
105,test,1,con,1,m,Tue Sep 02 2025 08:45:02 GMT-0500 (Central Daylight Time),366018.89999997616,jacket,1000,I,m,m,None,487,281.0,206.0,99,1,2078.7999999523163,363940.10000002384,8058,jacket,AF,C,361606,361606,359810,360823,359811,361889,361399,361399,361889,109
106,test,1,inc,1,z,Tue Sep 02 2025 08:45:02 GMT-0500 (Central Daylight Time),367918.2999999523,napkin,900,I,z,z,None,452,253.0,199.0,6,1,1895.3999999761581,366022.89999997616,8058,elated,AF,C,363522,363522,361893,362805,361893,363788,363322,363322,363788,110
106,test,1,con,0,z,Tue Sep 02 2025 08:45:02 GMT-0500 (Central Daylight Time),369784.0,friend,800,I,m,m,None,516,316.0,200.0,25,1,1861.6000000238419,367922.39999997616,8058,friend,AF,C,365322,365322,363792,364605,363793,365654,365121,365121,365654,111
107,test,1,inc,1,m,Tue Sep 02 2025 08:45:02 GMT-0500 (Central Daylight Time),371750.10000002384,temper,1000,I,m,m,None,418,218.0,200.0,127,1,1961.5,369788.60000002384,8058,window,AF,C,367387,367388,365659,366671,365659,367620,367187,367187,367620,112
108,test,1,inc,1,z,Tue Sep 02 2025 08:45:02 GMT-0500 (Central Daylight Time),373799.6999999285,bell,1000,I,z,z,None,500,301.0,199.0,23,1,2046.0999999046326,371753.60000002384,8058,love,AF,C,369353,369353,367624,368637,367624,369670,369154,369154,369670,113
109,test,1,inc,1,m,Tue Sep 02 2025 08:45:02 GMT-0500 (Central Daylight Time),375715.60000002384,kind,900,I,m,m,None,480,280.0,200.0,94,1,1912.4000000953674,373803.1999999285,8058,film,AF,C,371303,371303,369673,370586,369674,371586,371103,371103,371586,114
110,test,1,inc,1,z,Tue Sep 02 2025 08:45:02 GMT-0500 (Central Daylight Time),377881.7999999523,bell,1000,I,z,z,None,622,423.0,199.0,47,1,2162.600000023842,375719.1999999285,8058,hate,AF,C,373319,373319,371589,372602,371589,373752,373119,373119,373752,115
111,test,1,con,1,m,Tue Sep 02 2025 08:45:02 GMT-0500 (Central Daylight Time),379681.0,film,800,I,m,m,None,466,266.0,200.0,89,1,1795.7000000476837,377885.2999999523,8058,film,AF,C,375285,375285,373755,374568,373756,375551,375085,375085,375551,116
112,test,1,con,1,z,Tue Sep 02 2025 08:45:02 GMT-0500 (Central Daylight Time),381563.89999997616,elated,800,I,z,z,None,546,346.0,200.0,1,1,1879.3999999761581,379684.5,8058,elated,AF,C,377084,377084,375555,376368,375555,377434,376884,376884,377434,117
112,test,1,con,0,z,Tue Sep 02 2025 08:45:02 GMT-0500 (Central Daylight Time),383713.5,temper,1000,I,m,m,None,607,407.0,200.0,59,1,2145.7000000476837,381567.7999999523,8058,temper,AF,C,379167,379167,377438,378450,377438,379584,378967,378967,379584,118
113,test,1,inc,1,z,Tue Sep 02 2025 08:45:02 GMT-0500 (Central Daylight Time),385762.2999999523,film,1100,I,z,z,None,416,216.0,200.0,24,1,2045.1999999284744,383717.10000002384,8058,love,AF,C,381416,381416,379587,380700,379587,381632,381216,381216,381632,119
114,test,1,inc,1,m,Tue Sep 02 2025 08:45:02 GMT-0500 (Central Daylight Time),387612.10000002384,rage,800,I,m,m,None,512,313.0,199.0,85,1,1846.4000000953674,385765.6999999285,8058,bell,AF,C,383166,383166,381636,382449,381636,383482,382966,382966,383482,120
114,test,1,inc,0,m,Tue Sep 02 2025 08:45:02 GMT-0500 (Central Daylight Time),389579.10000002384,brutal,900,I,z,z,None,456,248.0,208.0,110,1,1963.2000000476837,387615.89999997616,8058,napkin,AF,C,385199,385199,383486,384399,383486,385449,384990,384990,385449,121
115,test,1,con,1,m,Tue Sep 02 2025 08:45:02 GMT-0500 (Central Daylight Time),391510.89999997616,bell,900,I,m,m,None,494,294.0,200.0,82,1,1928.0,389582.89999997616,8058,bell,AF,C,387081,387081,385453,386366,385453,387381,386881,386881,387381,122
116,test,1,inc,1,m,Tue Sep 02 2025 08:45:02 GMT-0500 (Central Daylight Time),393643.5,friend,1100,I,m,m,None,489,289.0,200.0,112,1,2129.0,391514.5,8058,napkin,AF,C,389214,389214,387385,388497,387385,389514,389014,389014,389514,123
117,test,1,con,1,z,Tue Sep 02 2025 08:45:02 GMT-0500 (Central Daylight Time),395776.5,hate,1100,I,z,z,None,482,282.0,200.0,44,1,2129.2000000476837,393647.2999999523,8058,hate,AF,C,391348,391348,389517,390630,389518,391647,391147,391147,391647,124
118,test,1,con,1,z,Tue Sep 02 2025 08:45:02 GMT-0500 (Central Daylight Time),398008.7999999523,rage,1100,I,z,z,None,584,384.0,200.0,52,1,2228.399999976158,395780.39999997616,8058,rage,AF,C,393479,393479,391650,392763,391651,393879,393279,393279,393879,125
119,test,1,inc,1,z,Tue Sep 02 2025 08:45:02 GMT-0500 (Central Daylight Time),399958.1999999285,rock,900,I,z,z,None,519,320.0,199.0,46,1,1945.7999999523163,398012.39999997616,8058,hate,AF,C,395495,395495,393882,394795,393883,395828,395296,395296,395828,126
120,test,1,con,1,z,Tue Sep 02 2025 08:45:02 GMT-0500 (Central Daylight Time),401891.10000002384,kind,900,I,z,z,None,498,298.0,200.0,10,1,1929.3000000715256,399961.7999999523,8058,kind,AF,C,397461,397461,395832,396745,395832,397761,397261,397261,397761,127
121,test,1,con,1,m,Tue Sep 02 2025 08:45:02 GMT-0500 (Central Daylight Time),403973.2999999523,window,1000,I,m,m,None,536,336.0,200.0,123,1,2078.5,401894.7999999523,8058,window,AF,C,399494,399494,397765,398778,397765,399843,399294,399294,399843,128
