acc_sum,block,block_c,condition,correct,correct_response,datetime,endtime,flanker,jitter,project,response,response_test_buffer_response,response_test_target_response,response_time,response_time_test_buffer_response,response_time_test_target_response,row_sel,session_number,start_end,starttime,subject_id,target,task,task_vers,time_test_buffer,time_test_buffer_response,time_test_constants,time_test_flanker,time_test_jitter,time_test_logger,time_test_target,time_test_target_response,time_test_variables,trial
1,prac,1,inc,1,z,Tue Feb 10 2026 10:05:01 GMT-0500 (Eastern Standard Time),205738.0,film,900,I,z,,,780,,,14,1,2973.8999996185303,202764.10000038147,9051,hate,AF,A,,,,,,,,,,1
2,prac,1,con,1,z,Tue Feb 10 2026 10:05:01 GMT-0500 (Eastern Standard Time),209071.0,brutal,800,I,z,,,1224,,,13,1,3320.8999996185303,205750.10000038147,9051,brutal,AF,A,,,,,,,,,,2
3,prac,1,inc,1,z,Tue Feb 10 2026 10:05:01 GMT-0500 (Eastern Standard Time),212254.39999961853,window,1100,I,z,,,775,,,16,1,3172.3999996185303,209082.0,9051,temper,AF,A,,,,,,,,,,3
4,prac,1,con,1,z,Tue Feb 10 2026 10:05:01 GMT-0500 (Eastern Standard Time),215021.19999980927,love,1000,I,z,,,461,,,11,1,2756.800000190735,212264.39999961853,9051,love,AF,A,,,,,,,,,,4
5,prac,1,con,1,z,Tue Feb 10 2026 10:05:01 GMT-0500 (Eastern Standard Time),217804.5,elated,800,I,z,,,677,,,9,1,2773.1000003814697,215031.39999961853,9051,elated,AF,A,,,,,,,,,,5
6,prac,1,inc,1,z,Tue Feb 10 2026 10:05:01 GMT-0500 (Eastern Standard Time),220737.69999980927,rock,900,I,z,,,723,,,10,1,2921.199999809265,217816.5,9051,kind,AF,A,,,,,,,,,,6
7,prac,1,inc,1,m,Tue Feb 10 2026 10:05:01 GMT-0500 (Eastern Standard Time),223704.30000019073,kind,900,I,m,,,750,,,2,1,2955.9000005722046,220748.39999961853,9051,rock,AF,A,,,,,,,,,,7
8,prac,1,inc,1,m,Tue Feb 10 2026 10:05:01 GMT-0500 (Eastern Standard Time),226521.0,elated,900,I,m,,,615,,,6,1,2806.300000190735,223714.69999980927,9051,napkin,AF,A,,,,,,,,,,8
9,prac,1,inc,1,z,Tue Feb 10 2026 10:05:01 GMT-0500 (Eastern Standard Time),229637.60000038147,napkin,1100,I,z,,,701,,,12,1,3106.9000005722046,226530.69999980927,9051,friend,AF,A,,,,,,,,,,9
10,prac,1,con,1,m,Tue Feb 10 2026 10:05:01 GMT-0500 (Eastern Standard Time),232487.39999961853,jacket,800,I,m,,,733,,,5,1,2838.8999996185303,229648.5,9051,jacket,AF,A,,,,,,,,,,10
11,prac,1,con,1,m,Tue Feb 10 2026 10:05:01 GMT-0500 (Eastern Standard Time),235471.10000038147,step,800,I,m,,,875,,,1,1,2973.4000005722046,232497.69999980927,9051,step,AF,A,,,,,,,,,,11
12,prac,1,con,1,m,Tue Feb 10 2026 10:05:01 GMT-0500 (Eastern Standard Time),238221.0,bell,1000,I,m,,,444,,,3,1,2738.1000003814697,235482.89999961853,9051,bell,AF,A,,,,,,,,,,12
13,prac,1,inc,1,m,Tue Feb 10 2026 10:05:01 GMT-0500 (Eastern Standard Time),241387.5,brutal,1100,I,m,,,761,,,8,1,3154.5,238233.0,9051,window,AF,A,,,,,,,,,,13
14,prac,1,con,1,m,Tue Feb 10 2026 10:05:01 GMT-0500 (Eastern Standard Time),244387.60000038147,remote,1000,I,m,,,687,,,7,1,2989.0,241398.60000038147,9051,remote,AF,A,,,,,,,,,,14
15,prac,1,inc,1,m,Tue Feb 10 2026 10:05:01 GMT-0500 (Eastern Standard Time),247570.89999961853,hate,1100,I,m,,,771,,,4,1,3174.5999994277954,244396.30000019073,9051,film,AF,A,,,,,,,,,,15
16,prac,1,con,1,z,Tue Feb 10 2026 10:05:01 GMT-0500 (Eastern Standard Time),250371.0,rage,1000,I,z,,,488,,,15,1,2791.199999809265,247579.80000019073,9051,rage,AF,A,,,,,,,,,,16
1,test,1,inc,1,z,Tue Feb 10 2026 10:05:01 GMT-0500 (Eastern Standard Time),271237.60000038147,bell,1000,I,z,z,None,703,503.0,200.0,15,1,2242.2000007629395,268995.39999961853,9051,kind,AF,A,262861,262861,261134,262144,261135,263377,262660,262660,263376,1
2,test,1,inc,1,z,Tue Feb 10 2026 10:05:01 GMT-0500 (Eastern Standard Time),273254.10000038147,bell,1000,I,z,z,None,469,269.0,200.0,23,1,2004.6000003814697,271249.5,9051,love,AF,A,265110,265111,263389,264394,263389,265393,264910,264910,265393,2
3,test,1,inc,1,m,Tue Feb 10 2026 10:05:01 GMT-0500 (Eastern Standard Time),275570.80000019073,friend,1100,I,m,m,None,672,473.0,199.0,112,1,2306.9000005722046,273263.89999961853,9051,napkin,AF,A,267227,267227,265403,266510,265403,267710,267027,267027,267710,3
4,test,1,inc,1,z,Tue Feb 10 2026 10:05:01 GMT-0500 (Eastern Standard Time),277787.5,film,1100,I,z,z,None,579,380.0,199.0,24,1,2208.1000003814697,275579.39999961853,9051,love,AF,A,269544,269544,267718,268827,267719,269927,269344,269344,269926,4
5,test,1,con,1,m,Tue Feb 10 2026 10:05:01 GMT-0500 (Eastern Standard Time),279920.80000019073,film,1000,I,m,m,None,592,392.0,200.0,91,1,2123.699999809265,277797.10000038147,9051,film,AF,A,271660,271661,269936,270944,269936,272060,271460,271460,272060,5
6,test,1,inc,1,m,Tue Feb 10 2026 10:05:01 GMT-0500 (Eastern Standard Time),281854.19999980927,elated,800,I,m,m,None,593,394.0,199.0,125,1,1924.8999996185303,279929.30000019073,9051,window,AF,A,273594,273594,272068,272876,272069,273993,273394,273394,273993,6
7,test,1,inc,1,z,Tue Feb 10 2026 10:05:01 GMT-0500 (Eastern Standard Time),284137.19999980927,window,1100,I,z,z,None,632,433.0,199.0,8,1,2273.800000190735,281863.39999961853,9051,elated,AF,A,275827,275827,274002,275110,274003,276276,275627,275627,276276,7
8,test,1,inc,1,z,Tue Feb 10 2026 10:05:01 GMT-0500 (Eastern Standard Time),286454.10000038147,film,1100,I,z,z,None,669,469.0,200.0,56,1,2311.4000005722046,284142.69999980927,9051,rage,AF,A,278110,278111,276282,277394,276282,278593,277910,277910,278593,8
9,test,1,con,1,m,Tue Feb 10 2026 10:05:01 GMT-0500 (Eastern Standard Time),288620.69999980927,bell,900,I,m,m,None,728,529.0,199.0,82,1,2157.199999809265,286463.5,9051,bell,AF,A,280227,280227,278603,279510,278603,280760,280027,280027,280760,9
10,test,1,con,1,m,Tue Feb 10 2026 10:05:01 GMT-0500 (Eastern Standard Time),290520.80000019073,remote,900,I,m,m,None,449,250.0,199.0,114,1,1890.5,288630.30000019073,9051,remote,AF,A,282394,282394,280769,281677,280770,282660,282194,282194,282660,10
11,test,1,inc,1,z,Tue Feb 10 2026 10:05:01 GMT-0500 (Eastern Standard Time),292704.19999980927,napkin,900,I,z,z,None,741,542.0,199.0,6,1,2174.5,290529.69999980927,9051,elated,AF,A,284294,284294,282669,283577,282669,284843,284094,284094,284843,11
12,test,1,inc,1,z,Tue Feb 10 2026 10:05:01 GMT-0500 (Eastern Standard Time),294887.5,rock,900,I,z,z,None,734,535.0,199.0,46,1,2174.5,292713.0,9051,hate,AF,A,286477,286477,284852,285760,284852,287027,286277,286277,287026,12
13,test,1,inc,1,z,Tue Feb 10 2026 10:05:01 GMT-0500 (Eastern Standard Time),297003.80000019073,napkin,900,I,z,z,None,681,481.0,200.0,62,1,2108.1000003814697,294895.69999980927,9051,temper,AF,A,288660,288660,287035,287943,287035,289143,288460,288460,289143,13
14,test,1,con,1,m,Tue Feb 10 2026 10:05:01 GMT-0500 (Eastern Standard Time),299220.80000019073,jacket,1100,I,m,m,None,570,371.0,199.0,100,1,2208.9000005722046,297011.89999961853,9051,jacket,AF,A,290977,290977,289151,290260,289151,291360,290777,290777,291360,14
15,test,1,con,1,m,Tue Feb 10 2026 10:05:01 GMT-0500 (Eastern Standard Time),301320.69999980927,window,1000,I,m,m,None,549,350.0,199.0,123,1,2091.800000190735,299228.89999961853,9051,window,AF,A,293094,293094,291368,292377,291368,293460,292894,292894,293460,15
16,test,1,con,1,m,Tue Feb 10 2026 10:05:01 GMT-0500 (Eastern Standard Time),303370.39999961853,bell,1000,I,m,m,None,513,314.0,199.0,83,1,2039.1999998092651,301331.19999980927,9051,bell,AF,A,295194,295194,293470,294477,293471,295510,294994,294994,295509,16
17,test,1,con,1,z,Tue Feb 10 2026 10:05:01 GMT-0500 (Eastern Standard Time),305320.80000019073,hate,900,I,z,z,None,499,300.0,199.0,42,1,1940.1999998092651,303380.60000038147,9051,hate,AF,A,297144,297144,295520,296426,295520,297460,296944,296944,297460,17
18,test,1,inc,1,z,Tue Feb 10 2026 10:05:01 GMT-0500 (Eastern Standard Time),307387.10000038147,step,800,I,z,z,None,730,530.0,200.0,45,1,2056.7000007629395,305330.39999961853,9051,hate,AF,A,298994,298994,297469,298277,297470,299526,298793,298793,299526,18
19,test,1,con,1,m,Tue Feb 10 2026 10:05:01 GMT-0500 (Eastern Standard Time),309804.0,film,1100,I,m,m,None,780,580.0,200.0,92,1,2405.3999996185303,307398.60000038147,9051,film,AF,A,301360,301360,299538,300643,299538,301943,301160,301160,301943,19
20,test,1,con,1,z,Tue Feb 10 2026 10:05:01 GMT-0500 (Eastern Standard Time),312787.39999961853,friend,900,I,z,z,None,1539,1340.0,199.0,26,1,2974.199999809265,309813.19999980927,9051,friend,AF,A,303577,303577,301952,302860,301953,304927,303377,303377,304926,20
21,test,1,inc,1,z,Tue Feb 10 2026 10:05:01 GMT-0500 (Eastern Standard Time),315170.80000019073,remote,1000,I,z,z,None,839,639.0,200.0,39,1,2372.1000003814697,312798.69999980927,9051,brutal,AF,A,306660,306661,304938,305944,304938,307310,306460,306460,307310,21
22,test,1,con,1,z,Tue Feb 10 2026 10:05:01 GMT-0500 (Eastern Standard Time),317354.0,kind,900,I,z,z,None,747,548.0,199.0,10,1,2172.1000003814697,315181.89999961853,9051,kind,AF,A,308944,308944,307321,308227,307321,309493,308744,308744,309493,22
23,test,1,con,1,z,Tue Feb 10 2026 10:05:01 GMT-0500 (Eastern Standard Time),319620.80000019073,love,1000,I,z,z,None,720,521.0,199.0,19,1,2258.199999809265,317362.60000038147,9051,love,AF,A,311227,311227,309502,310510,309502,311760,311027,311027,311760,23
24,test,1,con,1,m,Tue Feb 10 2026 10:05:01 GMT-0500 (Eastern Standard Time),321854.0,step,1000,I,m,m,None,693,494.0,199.0,67,1,2223.699999809265,319630.30000019073,9051,step,AF,A,313494,313494,311769,312777,311770,313993,313294,313294,313993,24
25,test,1,inc,1,z,Tue Feb 10 2026 10:05:01 GMT-0500 (Eastern Standard Time),324304.10000038147,remote,1000,I,z,z,None,909,710.0,199.0,63,1,2441.1000003814697,321863.0,9051,temper,AF,A,315727,315727,314002,315010,314002,316443,315527,315527,316443,25
26,test,1,con,1,z,Tue Feb 10 2026 10:05:01 GMT-0500 (Eastern Standard Time),326420.80000019073,brutal,800,I,z,z,None,770,571.0,199.0,33,1,2107.5,324313.30000019073,9051,brutal,AF,A,317977,317977,316452,317260,316453,318560,317777,317777,318560,26
27,test,1,inc,1,m,Tue Feb 10 2026 10:05:01 GMT-0500 (Eastern Standard Time),328571.5,temper,1000,I,m,m,None,613,414.0,199.0,103,1,2142.0,326429.5,9051,jacket,AF,A,320294,320294,318569,319577,318569,320711,320094,320094,320710,27
28,test,1,con,1,z,Tue Feb 10 2026 10:05:01 GMT-0500 (Eastern Standard Time),330954.0,temper,1000,I,z,z,None,848,648.0,200.0,59,1,2374.8999996185303,328579.10000038147,9051,temper,AF,A,322444,322444,320718,321727,320718,323093,322243,322243,323093,28
29,test,1,con,1,z,Tue Feb 10 2026 10:05:01 GMT-0500 (Eastern Standard Time),333204.0,rage,1100,I,z,z,None,604,405.0,199.0,52,1,2241.800000190735,330962.19999980927,9051,rage,AF,A,324927,324927,323101,324210,323102,325343,324727,324727,325343,29
30,test,1,con,1,z,Tue Feb 10 2026 10:05:01 GMT-0500 (Eastern Standard Time),335454.10000038147,kind,1000,I,z,z,None,711,512.0,199.0,11,1,2240.2000007629395,333213.89999961853,9051,kind,AF,A,327077,327077,325353,326360,325353,327593,326877,326877,327593,30
31,test,1,con,1,m,Tue Feb 10 2026 10:05:01 GMT-0500 (Eastern Standard Time),337254.19999980927,window,800,I,m,m,None,452,253.0,199.0,121,1,1791.0,335463.19999980927,9051,window,AF,A,329127,329127,327602,328410,327603,329393,328927,328927,329393,31
31,test,1,con,0,z,Tue Feb 10 2026 10:05:01 GMT-0500 (Eastern Standard Time),339403.89999961853,kind,1100,I,m,m,None,512,313.0,199.0,12,1,2141.5,337262.39999961853,9051,kind,AF,A,331227,331227,329401,330510,329402,331543,331027,331027,331543,32
32,test,1,inc,1,m,Tue Feb 10 2026 10:05:01 GMT-0500 (Eastern Standard Time),341803.89999961853,hate,1100,I,m,m,None,762,563.0,199.0,80,1,2391.0,339412.89999961853,9051,rock,AF,A,333377,333377,331552,332660,331552,333943,333177,333177,333943,33
33,test,1,inc,1,z,Tue Feb 10 2026 10:05:01 GMT-0500 (Eastern Standard Time),344203.80000019073,remote,1000,I,z,z,None,862,663.0,199.0,31,1,2388.800000190735,341815.0,9051,friend,AF,A,335677,335677,333954,334960,333954,336343,335477,335477,336343,34
34,test,1,inc,1,z,Tue Feb 10 2026 10:05:01 GMT-0500 (Eastern Standard Time),346437.39999961853,rock,900,I,z,z,None,787,588.0,199.0,54,1,2224.5,344212.89999961853,9051,rage,AF,A,337977,337977,336352,337260,336352,338577,337777,337777,338576,35
35,test,1,con,1,m,Tue Feb 10 2026 10:05:01 GMT-0500 (Eastern Standard Time),348487.39999961853,bell,800,I,m,m,None,702,502.0,200.0,81,1,2039.5999994277954,346447.80000019073,9051,bell,AF,A,340110,340110,338587,339393,338587,340627,339910,339910,340626,36
36,test,1,con,1,m,Tue Feb 10 2026 10:05:01 GMT-0500 (Eastern Standard Time),350754.0,rock,1100,I,m,m,None,624,424.0,200.0,76,1,2254.800000190735,348499.19999980927,9051,rock,AF,A,342460,342460,340638,341743,340639,342893,342260,342260,342893,37
37,test,1,con,1,z,Tue Feb 10 2026 10:05:01 GMT-0500 (Eastern Standard Time),353254.0,friend,1100,I,z,z,None,852,653.0,199.0,28,1,2490.8999996185303,350763.10000038147,9051,friend,AF,A,344727,344727,342902,344010,342902,345393,344527,344527,345393,38
38,test,1,con,1,z,Tue Feb 10 2026 10:05:01 GMT-0500 (Eastern Standard Time),355537.30000019073,temper,1100,I,z,z,None,640,441.0,199.0,60,1,2272.6000003814697,353264.69999980927,9051,temper,AF,A,347227,347227,345404,346510,345404,347676,347027,347027,347676,39
39,test,1,inc,1,m,Tue Feb 10 2026 10:05:01 GMT-0500 (Eastern Standard Time),357670.69999980927,elated,800,I,m,m,None,787,587.0,200.0,109,1,2124.5,355546.19999980927,9051,napkin,AF,A,349210,349210,347685,348493,347686,349810,349010,349010,349810,40
40,test,1,inc,1,z,Tue Feb 10 2026 10:05:01 GMT-0500 (Eastern Standard Time),359954.0,bell,1000,I,z,z,None,740,540.0,200.0,47,1,2272.6000003814697,357681.39999961853,9051,hate,AF,A,351544,351544,349820,350827,349821,352093,351343,351343,352093,41
41,test,1,inc,1,z,Tue Feb 10 2026 10:05:01 GMT-0500 (Eastern Standard Time),362220.60000038147,remote,1000,I,z,z,None,728,529.0,199.0,7,1,2256.300000190735,359964.30000019073,9051,elated,AF,A,353827,353827,352103,353110,352104,354360,353627,353627,354360,42
42,test,1,inc,1,m,Tue Feb 10 2026 10:05:01 GMT-0500 (Eastern Standard Time),364654.0,hate,1100,I,m,m,None,794,594.0,200.0,72,1,2424.1000003814697,362229.89999961853,9051,step,AF,A,356194,356194,354369,355477,354369,356793,355993,355993,356793,43
43,test,1,con,1,z,Tue Feb 10 2026 10:05:01 GMT-0500 (Eastern Standard Time),366937.60000038147,brutal,900,I,z,z,None,848,649.0,199.0,34,1,2274.9000005722046,364662.69999980927,9051,brutal,AF,A,358427,358427,356802,357710,356802,359077,358227,358227,359077,44
44,test,1,con,1,z,Tue Feb 10 2026 10:05:01 GMT-0500 (Eastern Standard Time),369237.30000019073,brutal,1100,I,z,z,None,654,454.0,200.0,36,1,2288.9000005722046,366948.39999961853,9051,brutal,AF,A,360910,360910,359087,360194,359088,361377,360710,360710,361376,45
45,test,1,inc,1,m,Tue Feb 10 2026 10:05:01 GMT-0500 (Eastern Standard Time),371337.39999961853,kind,900,I,m,m,None,650,450.0,200.0,78,1,2091.0,369246.39999961853,9051,rock,AF,A,363010,363010,361385,362294,361386,363476,362810,362810,363476,46
46,test,1,inc,1,m,Tue Feb 10 2026 10:05:01 GMT-0500 (Eastern Standard Time),373420.69999980927,rage,800,I,m,m,None,746,546.0,200.0,93,1,2073.5,371347.19999980927,9051,film,AF,A,365010,365010,363486,364294,363487,365560,364810,364810,365560,47
47,test,1,inc,1,m,Tue Feb 10 2026 10:05:01 GMT-0500 (Eastern Standard Time),375587.39999961853,temper,1000,I,m,m,None,621,422.0,199.0,111,1,2156.3999996185303,373431.0,9051,napkin,AF,A,367294,367294,365570,366577,365570,367726,367094,367094,367726,48
48,test,1,con,1,z,Tue Feb 10 2026 10:05:01 GMT-0500 (Eastern Standard Time),377637.39999961853,elated,900,I,z,z,None,604,404.0,200.0,2,1,2042.3999996185303,375595.0,9051,elated,AF,A,369360,369360,367734,368643,367734,369776,369160,369160,369776,49
49,test,1,inc,1,z,Tue Feb 10 2026 10:05:01 GMT-0500 (Eastern Standard Time),379870.69999980927,napkin,900,I,z,z,None,795,595.0,200.0,38,1,2222.8999996185303,377647.80000019073,9051,brutal,AF,A,371410,371410,369787,370693,369787,372010,371210,371210,372010,50
50,test,1,inc,1,z,Tue Feb 10 2026 10:05:01 GMT-0500 (Eastern Standard Time),381953.89999961853,napkin,900,I,z,z,None,639,440.0,199.0,30,1,2071.8999996185303,379882.0,9051,friend,AF,A,373644,373644,372021,372927,372021,374093,373443,373444,374093,51
51,test,1,con,1,m,Tue Feb 10 2026 10:05:01 GMT-0500 (Eastern Standard Time),384070.69999980927,jacket,900,I,m,m,None,668,469.0,199.0,98,1,2105.800000190735,381964.89999961853,9051,jacket,AF,A,375727,375727,374104,375010,374104,376210,375527,375527,376210,52
52,test,1,con,1,m,Tue Feb 10 2026 10:05:01 GMT-0500 (Eastern Standard Time),386537.19999980927,napkin,1100,I,m,m,None,815,616.0,199.0,108,1,2456.8999996185303,384080.30000019073,9051,napkin,AF,A,378044,378044,376219,377327,376220,378676,377843,377844,378676,53
53,test,1,con,1,z,Tue Feb 10 2026 10:05:01 GMT-0500 (Eastern Standard Time),388854.10000038147,rage,1000,I,z,z,None,770,570.0,200.0,51,1,2308.0,386546.10000038147,9051,rage,AF,A,380410,380410,378685,379693,378685,380993,380210,380210,380993,54
54,test,1,inc,1,m,Tue Feb 10 2026 10:05:01 GMT-0500 (Eastern Standard Time),391154.0,hate,1100,I,m,m,None,657,458.0,199.0,96,1,2291.199999809265,388862.80000019073,9051,film,AF,A,382827,382827,381002,382110,381002,383293,382627,382627,383293,55
55,test,1,con,1,z,Tue Feb 10 2026 10:05:01 GMT-0500 (Eastern Standard Time),393270.69999980927,love,900,I,z,z,None,668,469.0,199.0,18,1,2107.300000190735,391163.39999961853,9051,love,AF,A,384927,384927,383302,384210,383303,385410,384727,384727,385410,56
56,test,1,con,1,m,Tue Feb 10 2026 10:05:01 GMT-0500 (Eastern Standard Time),395420.60000038147,napkin,1000,I,m,m,None,612,413.0,199.0,107,1,2138.800000190735,393281.80000019073,9051,napkin,AF,A,387143,387143,385421,386427,385421,387560,386943,386944,387560,57
57,test,1,inc,1,m,Tue Feb 10 2026 10:05:01 GMT-0500 (Eastern Standard Time),397737.19999980927,love,1000,I,m,m,None,765,566.0,199.0,71,1,2308.699999809265,395428.5,9051,step,AF,A,389294,389294,387568,388577,387568,389876,389093,389094,389876,58
58,test,1,con,1,m,Tue Feb 10 2026 10:05:01 GMT-0500 (Eastern Standard Time),399987.30000019073,bell,1100,I,m,m,None,606,406.0,200.0,84,1,2241.5,397745.80000019073,9051,bell,AF,A,391710,391710,389885,390993,389885,392126,391510,391510,392126,59
59,test,1,con,1,z,Tue Feb 10 2026 10:05:01 GMT-0500 (Eastern Standard Time),402070.60000038147,temper,900,I,z,z,None,637,437.0,200.0,58,1,2072.800000190735,399997.80000019073,9051,temper,AF,A,393760,393760,392137,393043,392137,394210,393560,393560,394210,60
60,test,1,con,1,m,Tue Feb 10 2026 10:05:01 GMT-0500 (Eastern Standard Time),403987.30000019073,jacket,800,I,m,m,None,572,373.0,199.0,97,1,1901.9000005722046,402085.39999961853,9051,jacket,AF,A,395743,395743,394224,395027,394225,396126,395543,395543,396126,61
61,test,1,con,1,z,Tue Feb 10 2026 10:05:01 GMT-0500 (Eastern Standard Time),406187.0,temper,800,I,z,z,None,864,664.0,200.0,57,1,2188.5,403998.5,9051,temper,AF,A,397660,397660,396138,396944,396138,398326,397460,397460,398326,62
62,test,1,inc,1,m,Tue Feb 10 2026 10:05:01 GMT-0500 (Eastern Standard Time),408203.69999980927,elated,800,I,m,m,None,680,480.0,200.0,101,1,2007.5,406196.19999980927,9051,jacket,AF,A,399860,399860,398335,399143,398335,400343,399660,399660,400343,63
63,test,1,con,1,m,Tue Feb 10 2026 10:05:01 GMT-0500 (Eastern Standard Time),410354.0,jacket,1000,I,m,m,None,606,407.0,199.0,99,1,2136.300000190735,408217.69999980927,9051,jacket,AF,A,402077,402077,400357,401360,400357,402493,401877,401877,402493,64
64,test,1,con,1,m,Tue Feb 10 2026 10:05:01 GMT-0500 (Eastern Standard Time),412370.5,rock,800,I,m,m,None,673,474.0,199.0,73,1,2007.1000003814697,410363.39999961853,9051,rock,AF,A,404027,404027,402502,403310,402503,404510,403827,403827,404509,65
65,test,1,inc,1,m,Tue Feb 10 2026 10:05:01 GMT-0500 (Eastern Standard Time),414603.69999980927,elated,800,I,m,m,None,896,696.0,200.0,117,1,2223.300000190735,412380.39999961853,9051,remote,AF,A,406044,406044,404519,405327,404520,406743,405843,405843,406743,66
66,test,1,inc,1,z,Tue Feb 10 2026 10:05:01 GMT-0500 (Eastern Standard Time),416987.10000038147,window,1100,I,z,z,None,746,547.0,199.0,32,1,2373.1000003814697,414614.0,9051,friend,AF,A,408577,408577,406753,407860,406753,409126,408377,408377,409126,67
67,test,1,con,1,m,Tue Feb 10 2026 10:05:01 GMT-0500 (Eastern Standard Time),419320.69999980927,remote,1100,I,m,m,None,684,484.0,200.0,116,1,2323.5,416997.19999980927,9051,remote,AF,A,410960,410960,409136,410243,409137,411460,410760,410760,411460,68
68,test,1,con,1,m,Tue Feb 10 2026 10:05:01 GMT-0500 (Eastern Standard Time),421704.0,rock,1000,I,m,m,None,834,634.0,200.0,75,1,2372.699999809265,419331.30000019073,9051,rock,AF,A,413193,413194,411470,412477,411471,413843,412993,412993,413843,69
69,test,1,con,1,m,Tue Feb 10 2026 10:05:01 GMT-0500 (Eastern Standard Time),423753.89999961853,step,800,I,m,m,None,699,500.0,199.0,65,1,2039.5999994277954,421714.30000019073,9051,step,AF,A,415377,415377,413853,414660,413854,415893,415177,415177,415893,70
70,test,1,inc,1,m,Tue Feb 10 2026 10:05:01 GMT-0500 (Eastern Standard Time),425920.5,kind,900,I,m,m,None,724,525.0,199.0,86,1,2157.6000003814697,423762.89999961853,9051,bell,AF,A,417527,417527,415902,416810,415902,418060,417327,417327,418060,71
71,test,1,con,1,z,Tue Feb 10 2026 10:05:01 GMT-0500 (Eastern Standard Time),428253.89999961853,elated,1100,I,z,z,None,694,494.0,200.0,4,1,2324.2999992370605,425929.60000038147,9051,elated,AF,A,419893,419894,418069,419177,418069,420393,419693,419693,420393,72
72,test,1,inc,1,m,Tue Feb 10 2026 10:05:01 GMT-0500 (Eastern Standard Time),430420.60000038147,love,1000,I,m,m,None,620,421.0,199.0,95,1,2157.4000005722046,428263.19999980927,9051,film,AF,A,422127,422127,420402,421410,420403,422560,421927,421927,422560,73
73,test,1,con,1,m,Tue Feb 10 2026 10:05:01 GMT-0500 (Eastern Standard Time),432570.39999961853,window,1100,I,m,m,None,514,315.0,199.0,124,1,2138.699999809265,430431.69999980927,9051,window,AF,A,424393,424393,422571,423677,422571,424709,424193,424194,424709,74
74,test,1,inc,1,m,Tue Feb 10 2026 10:05:01 GMT-0500 (Eastern Standard Time),434837.19999980927,temper,1000,I,m,m,None,719,520.0,199.0,119,1,2257.699999809265,432579.5,9051,remote,AF,A,426443,426444,424719,425727,424719,426976,426243,426244,426976,75
75,test,1,con,1,m,Tue Feb 10 2026 10:05:01 GMT-0500 (Eastern Standard Time),436953.89999961853,napkin,900,I,m,m,None,666,466.0,200.0,106,1,2107.5999994277954,434846.30000019073,9051,napkin,AF,A,428610,428610,426985,427893,426986,429093,428410,428410,429093,76
76,test,1,inc,1,z,Tue Feb 10 2026 10:05:01 GMT-0500 (Eastern Standard Time),439003.80000019073,jacket,800,I,z,z,None,712,513.0,199.0,37,1,2038.8000001907349,436965.0,9051,brutal,AF,A,430627,430627,429104,429910,429104,431143,430427,430427,431143,77
77,test,1,con,1,m,Tue Feb 10 2026 10:05:01 GMT-0500 (Eastern Standard Time),441053.89999961853,window,900,I,m,m,None,610,411.0,199.0,122,1,2039.5,439014.39999961853,9051,window,AF,A,432777,432777,431153,432060,431154,433193,432577,432577,433193,78
78,test,1,inc,1,z,Tue Feb 10 2026 10:05:01 GMT-0500 (Eastern Standard Time),443254.0,bell,1000,I,z,z,None,652,453.0,199.0,55,1,2189.699999809265,441064.30000019073,9051,rage,AF,A,434927,434927,433203,434210,433204,435393,434727,434727,435393,79
79,test,1,con,1,z,Tue Feb 10 2026 10:05:01 GMT-0500 (Eastern Standard Time),445537.30000019073,hate,1100,I,z,z,None,641,442.0,199.0,44,1,2272.6000003814697,443264.69999980927,9051,hate,AF,A,437227,437227,435404,436510,435404,437676,437027,437027,437676,80
80,test,1,inc,1,m,Tue Feb 10 2026 10:05:01 GMT-0500 (Eastern Standard Time),447587.30000019073,rage,800,I,m,m,None,706,506.0,200.0,69,1,2040.6999998092651,445546.60000038147,9051,step,AF,A,439210,439210,437686,438493,437686,439726,439010,439010,439726,81
81,test,1,inc,1,m,Tue Feb 10 2026 10:05:01 GMT-0500 (Eastern Standard Time),449703.89999961853,kind,900,I,m,m,None,668,468.0,200.0,70,1,2108.7999992370605,447595.10000038147,9051,step,AF,A,441360,441360,439734,440643,439734,441843,441160,441160,441843,82
82,test,1,inc,1,m,Tue Feb 10 2026 10:05:01 GMT-0500 (Eastern Standard Time),451954.0,friend,1100,I,m,m,None,606,407.0,199.0,128,1,2240.8999996185303,449713.10000038147,9051,window,AF,A,443677,443677,441852,442960,441852,444093,443477,443477,444093,83
83,test,1,con,1,z,Tue Feb 10 2026 10:05:01 GMT-0500 (Eastern Standard Time),453853.89999961853,love,800,I,z,z,None,560,361.0,199.0,17,1,1885.7999992370605,451968.10000038147,9051,love,AF,A,445627,445627,444107,444910,444108,445993,445427,445427,445993,84
84,test,1,inc,1,m,Tue Feb 10 2026 10:05:01 GMT-0500 (Eastern Standard Time),456020.60000038147,love,1000,I,m,m,None,621,422.0,199.0,79,1,2155.7000007629395,453864.89999961853,9051,rock,AF,A,447727,447727,446004,447010,446004,448160,447527,447527,448160,85
85,test,1,inc,1,z,Tue Feb 10 2026 10:05:01 GMT-0500 (Eastern Standard Time),458053.89999961853,step,800,I,z,z,None,686,486.0,200.0,53,1,2023.5,456030.39999961853,9051,rage,AF,A,449693,449694,448169,448977,448170,450193,449493,449493,450193,86
86,test,1,con,1,z,Tue Feb 10 2026 10:05:01 GMT-0500 (Eastern Standard Time),460370.60000038147,rage,900,I,z,z,None,872,673.0,199.0,50,1,2307.5,458063.10000038147,9051,rage,AF,A,451827,451827,450202,451110,450202,452510,451627,451627,452510,87
87,test,1,con,1,z,Tue Feb 10 2026 10:05:01 GMT-0500 (Eastern Standard Time),462637.19999980927,hate,1000,I,z,z,None,729,529.0,200.0,43,1,2257.8999996185303,460379.30000019073,9051,hate,AF,A,454243,454243,452518,453527,452519,454776,454043,454043,454776,88
88,test,1,con,1,z,Tue Feb 10 2026 10:05:01 GMT-0500 (Eastern Standard Time),464870.60000038147,elated,1000,I,z,z,None,686,486.0,200.0,3,1,2224.9000005722046,462645.69999980927,9051,elated,AF,A,456510,456510,454785,455793,454785,457010,456310,456310,457010,89
89,test,1,inc,1,m,Tue Feb 10 2026 10:05:01 GMT-0500 (Eastern Standard Time),466970.19999980927,rage,800,I,m,m,None,766,566.0,200.0,77,1,2089.0,464881.19999980927,9051,rock,AF,A,458543,458543,457020,457827,457021,459109,458343,458343,459109,90
90,test,1,con,1,z,Tue Feb 10 2026 10:05:01 GMT-0500 (Eastern Standard Time),469337.30000019073,brutal,1000,I,z,z,None,817,617.0,200.0,35,1,2356.4000005722046,466980.89999961853,9051,brutal,AF,A,460843,460843,459120,460127,459120,461476,460643,460643,461476,91
91,test,1,inc,1,m,Tue Feb 10 2026 10:05:01 GMT-0500 (Eastern Standard Time),471586.89999961853,love,1000,I,m,m,None,706,506.0,200.0,87,1,2239.0,469347.89999961853,9051,bell,AF,A,463210,463210,461487,462493,461487,463726,463010,463010,463726,92
92,test,1,con,1,m,Tue Feb 10 2026 10:05:01 GMT-0500 (Eastern Standard Time),473637.30000019073,film,900,I,m,m,None,604,404.0,200.0,90,1,2045.4000005722046,471591.89999961853,9051,film,AF,A,465360,465360,463731,464643,463731,465776,465160,465160,465776,93
93,test,1,inc,1,m,Tue Feb 10 2026 10:05:01 GMT-0500 (Eastern Standard Time),475704.0,brutal,900,I,m,m,None,617,418.0,199.0,102,1,2056.1000003814697,473647.89999961853,9051,jacket,AF,A,467410,467410,465787,466693,465787,467843,467210,467210,467843,94
94,test,1,inc,1,z,Tue Feb 10 2026 10:05:01 GMT-0500 (Eastern Standard Time),477803.69999980927,rock,900,I,z,z,None,662,463.0,199.0,14,1,2088.5,475715.19999980927,9051,kind,AF,A,469477,469477,467854,468760,467855,469943,469277,469277,469943,95
95,test,1,con,1,m,Tue Feb 10 2026 10:05:01 GMT-0500 (Eastern Standard Time),479803.69999980927,rock,900,I,m,m,None,562,363.0,199.0,74,1,1990.5,477813.19999980927,9051,rock,AF,A,471577,471577,469952,470860,469952,471943,471377,471377,471943,96
96,test,1,inc,1,z,Tue Feb 10 2026 10:05:01 GMT-0500 (Eastern Standard Time),481870.5,rock,900,I,z,z,None,626,427.0,199.0,22,1,2056.0,479814.5,9051,love,AF,A,473577,473577,471954,472860,471954,474010,473377,473377,474010,97
97,test,1,inc,1,m,Tue Feb 10 2026 10:05:01 GMT-0500 (Eastern Standard Time),483987.30000019073,brutal,900,I,m,m,None,672,472.0,200.0,126,1,2107.199999809265,481880.10000038147,9051,window,AF,A,475644,475644,474019,474927,474019,476126,475443,475443,476126,98
98,test,1,inc,1,m,Tue Feb 10 2026 10:05:01 GMT-0500 (Eastern Standard Time),486103.69999980927,brutal,900,I,m,m,None,667,467.0,200.0,118,1,2107.0999994277954,483996.60000038147,9051,remote,AF,A,477760,477761,476136,477044,476136,478243,477560,477560,478243,99
99,test,1,con,1,z,Tue Feb 10 2026 10:05:01 GMT-0500 (Eastern Standard Time),488287.19999980927,rage,800,I,z,z,None,842,643.0,199.0,49,1,2171.300000190735,486115.89999961853,9051,rage,AF,A,479777,479777,478255,479060,478255,480426,479577,479577,480426,100
100,test,1,inc,1,z,Tue Feb 10 2026 10:05:01 GMT-0500 (Eastern Standard Time),490920.39999961853,window,1100,I,z,z,None,984,784.0,200.0,40,1,2622.0999994277954,488298.30000019073,9051,brutal,AF,A,482260,482260,480437,481543,480438,483060,482060,482060,483059,101
101,test,1,con,1,m,Tue Feb 10 2026 10:05:01 GMT-0500 (Eastern Standard Time),492937.80000019073,step,900,I,m,m,None,582,382.0,200.0,66,1,2007.1000003814697,490930.69999980927,9051,step,AF,A,484693,484694,483070,483976,483070,485077,484493,484493,485077,102
102,test,1,con,1,z,Tue Feb 10 2026 10:05:01 GMT-0500 (Eastern Standard Time),494837.30000019073,hate,800,I,z,z,None,554,354.0,200.0,41,1,1888.0,492949.30000019073,9051,hate,AF,A,486610,486610,485088,485893,485089,486976,486410,486410,486976,103
103,test,1,inc,1,z,Tue Feb 10 2026 10:05:01 GMT-0500 (Eastern Standard Time),497120.5,window,1100,I,z,z,None,642,442.0,200.0,64,1,2272.699999809265,494847.80000019073,9051,temper,AF,A,488810,488810,486987,488093,486987,489260,488610,488610,489260,104
104,test,1,con,1,m,Tue Feb 10 2026 10:05:01 GMT-0500 (Eastern Standard Time),499403.60000038147,step,1100,I,m,m,None,647,447.0,200.0,68,1,2272.5,497131.10000038147,9051,step,AF,A,491093,491093,489270,490377,489270,491543,490893,490893,491543,105
105,test,1,inc,1,z,Tue Feb 10 2026 10:05:01 GMT-0500 (Eastern Standard Time),501437.39999961853,jacket,800,I,z,z,None,694,495.0,199.0,5,1,2026.7999992370605,499410.60000038147,9051,elated,AF,A,493077,493077,491550,492360,491550,493576,492877,492877,493576,106
106,test,1,inc,1,m,Tue Feb 10 2026 10:05:01 GMT-0500 (Eastern Standard Time),503570.60000038147,temper,1000,I,m,m,None,589,390.0,199.0,127,1,2123.300000190735,501447.30000019073,9051,window,AF,A,495310,495310,493586,494593,493587,495710,495110,495110,495710,107
107,test,1,inc,1,m,Tue Feb 10 2026 10:05:01 GMT-0500 (Eastern Standard Time),505653.89999961853,brutal,900,I,m,m,None,637,437.0,200.0,110,1,2073.699999809265,503580.19999980927,9051,napkin,AF,A,497343,497343,495719,496627,495720,497793,497143,497143,497793,108
108,test,1,inc,1,m,Tue Feb 10 2026 10:05:01 GMT-0500 (Eastern Standard Time),508070.60000038147,friend,1100,I,m,m,None,768,569.0,199.0,104,1,2407.4000005722046,505663.19999980927,9051,jacket,AF,A,499627,499627,497802,498910,497803,500210,499427,499427,500210,109
109,test,1,con,1,m,Tue Feb 10 2026 10:05:01 GMT-0500 (Eastern Standard Time),510103.89999961853,remote,800,I,m,m,None,685,485.0,200.0,113,1,2021.1999998092651,508082.69999980927,9051,remote,AF,A,501743,501743,500222,501027,500222,502243,501543,501543,502243,110
110,test,1,inc,1,m,Tue Feb 10 2026 10:05:01 GMT-0500 (Eastern Standard Time),512170.30000019073,kind,900,I,m,m,None,630,431.0,199.0,94,1,2057.6000003814697,510112.69999980927,9051,film,AF,A,503877,503877,502252,503159,502252,504309,503677,503677,504309,111
111,test,1,inc,1,z,Tue Feb 10 2026 10:05:01 GMT-0500 (Eastern Standard Time),514270.5,step,800,I,z,z,None,761,561.0,200.0,13,1,2093.1000003814697,512177.39999961853,9051,kind,AF,A,505843,505843,504316,505126,504317,506410,505643,505643,506410,112
112,test,1,con,1,z,Tue Feb 10 2026 10:05:01 GMT-0500 (Eastern Standard Time),516537.19999980927,friend,800,I,z,z,None,917,717.0,200.0,25,1,2256.0999994277954,514281.10000038147,9051,friend,AF,A,507943,507943,506420,507226,506420,508676,507743,507743,508676,113
113,test,1,con,1,m,Tue Feb 10 2026 10:05:01 GMT-0500 (Eastern Standard Time),518553.69999980927,napkin,800,I,m,m,None,681,482.0,199.0,105,1,2007.8999996185303,516545.80000019073,9051,napkin,AF,A,510210,510210,508685,509493,508685,510693,510010,510010,510693,114
114,test,1,inc,1,m,Tue Feb 10 2026 10:05:01 GMT-0500 (Eastern Standard Time),521720.60000038147,friend,1100,I,m,m,None,1516,1317.0,199.0,120,1,3159.4000005722046,518561.19999980927,9051,remote,AF,A,512527,512527,510700,511810,510700,513860,512327,512327,513860,115
115,test,1,inc,1,m,Tue Feb 10 2026 10:05:01 GMT-0500 (Eastern Standard Time),523770.19999980927,rage,800,I,m,m,None,715,515.0,200.0,85,1,2040.5,521729.69999980927,9051,bell,AF,A,515393,515393,513869,514677,513869,515909,515193,515193,515909,116
116,test,1,inc,1,m,Tue Feb 10 2026 10:05:01 GMT-0500 (Eastern Standard Time),526103.6999998093,hate,1100,I,m,m,None,685,485.0,200.0,88,1,2323.0,523780.69999980927,9051,bell,AF,A,517743,517743,515920,517027,515920,518243,517543,517543,518243,117
117,test,1,inc,1,z,Tue Feb 10 2026 10:05:01 GMT-0500 (Eastern Standard Time),528553.8000001907,film,1100,I,z,z,None,814,615.0,199.0,16,1,2441.199999809265,526112.6000003815,9051,kind,AF,A,520077,520077,518252,519360,518252,520693,519877,519877,520693,118
118,test,1,inc,1,z,Tue Feb 10 2026 10:05:01 GMT-0500 (Eastern Standard Time),530903.8999996185,film,1100,I,z,z,None,700,501.0,199.0,48,1,2339.8999996185303,528564.0,9051,hate,AF,A,522527,522527,520703,521810,520703,523043,522327,522327,523043,119
119,test,1,con,1,z,Tue Feb 10 2026 10:05:01 GMT-0500 (Eastern Standard Time),533187.1999998093,love,1100,I,z,z,None,639,439.0,200.0,20,1,2275.199999809265,530912.0,9051,love,AF,A,524877,524877,523051,524160,523051,525326,524676,524676,525326,120
120,test,1,inc,1,z,Tue Feb 10 2026 10:05:01 GMT-0500 (Eastern Standard Time),535220.6000003815,step,800,I,z,z,None,687,488.0,199.0,21,1,2023.5,533197.1000003815,9051,love,AF,A,526860,526860,525336,526143,525336,527360,526660,526660,527360,121
121,test,1,inc,1,z,Tue Feb 10 2026 10:05:01 GMT-0500 (Eastern Standard Time),537303.6999998093,jacket,800,I,z,z,None,735,535.0,200.0,61,1,2074.0,535229.6999998093,9051,temper,AF,A,528893,528893,527369,528177,527369,529443,528693,528693,529443,122
122,test,1,con,1,z,Tue Feb 10 2026 10:05:01 GMT-0500 (Eastern Standard Time),539553.8000001907,friend,1000,I,z,z,None,706,507.0,199.0,27,1,2241.1000003814697,537312.6999998093,9051,friend,AF,A,531177,531177,529452,530460,529452,531693,530977,530977,531693,123
123,test,1,con,1,z,Tue Feb 10 2026 10:05:01 GMT-0500 (Eastern Standard Time),541720.5,kind,800,I,z,z,None,816,617.0,199.0,9,1,2155.1000003814697,539565.3999996185,9051,kind,AF,A,533226,533227,531704,532510,531705,533860,533027,533027,533860,124
124,test,1,con,1,m,Tue Feb 10 2026 10:05:01 GMT-0500 (Eastern Standard Time),543754.1000003815,film,800,I,m,m,None,699,499.0,200.0,89,1,2022.1000003814697,541732.0,9051,film,AF,A,535393,535393,533871,534677,533871,535893,535193,535193,535893,125
125,test,1,inc,1,z,Tue Feb 10 2026 10:05:01 GMT-0500 (Eastern Standard Time),545853.8000001907,jacket,800,I,z,z,None,760,561.0,199.0,29,1,2092.300000190735,543761.5,9051,friend,AF,A,537427,537427,535901,536710,535901,537993,537227,537227,537993,126
126,test,1,con,1,z,Tue Feb 10 2026 10:05:01 GMT-0500 (Eastern Standard Time),547887.0,elated,800,I,z,z,None,710,510.0,200.0,1,1,2024.3000001907349,545862.6999998093,9051,elated,AF,A,539510,539510,538002,538809,538002,540026,539310,539310,540026,127
126,test,1,con,0,m,Tue Feb 10 2026 10:05:01 GMT-0500 (Eastern Standard Time),550320.3999996185,remote,1000,I,z,z,None,892,692.0,200.0,115,1,2422.7999992370605,547897.6000003815,9051,remote,AF,A,541760,541760,540037,541043,540037,542460,541560,541560,542459,128
