block_c,block_dur,condition,countdown,datetime,endtime,list,multichar_response,project,response,response_time,session_number,start_end,starttime,subject_id,task,task_vers,trial
,,,,Thu Jun 05 2025 16:25:22 GMT-0500 (Central Daylight Time),,,,I,space,449,1,,,8048,WL,A,
prac,,0,,Thu Jun 05 2025 16:25:22 GMT-0500 (Central Daylight Time),,NA,b,I,b,4238,1,,,8048,WL,A,1.0
prac,,0,,Thu Jun 05 2025 16:25:22 GMT-0500 (Central Daylight Time),,NA,bo,I,o,849,1,,,8048,WL,A,1.0
prac,,0,,Thu Jun 05 2025 16:25:22 GMT-0500 (Central Daylight Time),,NA,boo,I,o,143,1,,,8048,WL,A,1.0
prac,,0,,Thu Jun 05 2025 16:25:22 GMT-0500 (Central Daylight Time),,NA,boos,I,s,389,1,,,8048,WL,A,1.0
prac,,0,,Thu Jun 05 2025 16:25:22 GMT-0500 (Central Daylight Time),,NA,boost,I,t,105,1,,,8048,WL,A,1.0
prac,,0,,Thu Jun 05 2025 16:25:22 GMT-0500 (Central Daylight Time),,NA,boostenter,I,enter,245,1,,,8048,WL,A,1.0
1,0.6000001430511475,learn,59399.99985694885,Thu Jun 05 2025 16:25:22 GMT-0500 (Central Daylight Time),120150.19999998808,A,f,I,f,586,1,599.5999999940395,119550.59999999404,8048,WL,A,1.0
1,0.7000000476837158,learn,59299.999952316284,Thu Jun 05 2025 16:25:22 GMT-0500 (Central Daylight Time),120250.19999998808,A,fi,I,i,81,1,699.5999999940395,119550.59999999404,8048,WL,A,1.0
1,0.7669999599456787,learn,59233.00004005432,Thu Jun 05 2025 16:25:22 GMT-0500 (Central Daylight Time),120316.89999997616,A,fin,I,n,55,1,766.2999999821186,119550.59999999404,8048,WL,A,1.0
1,0.9330000877380371,learn,59066.99991226196,Thu Jun 05 2025 16:25:22 GMT-0500 (Central Daylight Time),120483.09999999404,A,fing,I,g,155,1,932.5,119550.59999999404,8048,WL,A,1.0
1,1.1000001430511475,learn,58899.99985694885,Thu Jun 05 2025 16:25:22 GMT-0500 (Central Daylight Time),120649.89999997616,A,finge,I,e,157,1,1099.2999999821186,119550.59999999404,8048,WL,A,1.0
1,1.2000000476837158,learn,58799.999952316284,Thu Jun 05 2025 16:25:22 GMT-0500 (Central Daylight Time),120749.89999997616,A,finger,I,r,79,1,1199.2999999821186,119550.59999999404,8048,WL,A,1.0
1,1.565999984741211,learn,58434.00001525879,Thu Jun 05 2025 16:25:22 GMT-0500 (Central Daylight Time),121116.5,A,fingerenter,I,enter,355,1,1565.9000000059605,119550.59999999404,8048,WL,A,1.0
1,1.8329999446868896,learn,58167.00005531311,Thu Jun 05 2025 16:25:22 GMT-0500 (Central Daylight Time),121382.89999997616,A,h,I,h,259,1,265.69999998807907,121117.19999998808,8048,WL,A,2.0
1,1.9660000801086426,learn,58033.99991989136,Thu Jun 05 2025 16:25:22 GMT-0500 (Central Daylight Time),121516.29999998212,A,ha,I,a,122,1,399.09999999403954,121117.19999998808,8048,WL,A,2.0
1,2.0829999446868896,learn,57917.00005531311,Thu Jun 05 2025 16:25:22 GMT-0500 (Central Daylight Time),121633.09999999404,A,har,I,r,108,1,515.9000000059605,121117.19999998808,8048,WL,A,2.0
1,2.4160001277923584,learn,57583.99987220764,Thu Jun 05 2025 16:25:22 GMT-0500 (Central Daylight Time),121966.09999999404,A,harp,I,p,319,1,848.9000000059605,121117.19999998808,8048,WL,A,2.0
1,2.8320000171661377,learn,57167.99998283386,Thu Jun 05 2025 16:25:22 GMT-0500 (Central Daylight Time),122382.59999999404,A,harpenter,I,enter,402,1,1265.4000000059605,121117.19999998808,8048,WL,A,2.0
1,3.133000135421753,learn,56866.99986457825,Thu Jun 05 2025 16:25:22 GMT-0500 (Central Daylight Time),122682.69999998808,A,b,I,b,290,1,299.5,122383.19999998808,8048,WL,A,3.0
1,3.3320000171661377,learn,56667.99998283386,Thu Jun 05 2025 16:25:22 GMT-0500 (Central Daylight Time),122882.5,A,bo,I,o,182,1,499.30000001192093,122383.19999998808,8048,WL,A,3.0
1,3.433000087738037,learn,56566.99991226196,Thu Jun 05 2025 16:25:22 GMT-0500 (Central Daylight Time),122982.59999999404,A,boo,I,o,94,1,599.4000000059605,122383.19999998808,8048,WL,A,3.0
1,3.7320001125335693,learn,56267.99988746643,Thu Jun 05 2025 16:25:22 GMT-0500 (Central Daylight Time),123282.39999997616,A,book,I,k,282,1,899.1999999880791,122383.19999998808,8048,WL,A,3.0
1,3.949000120162964,learn,56050.999879837036,Thu Jun 05 2025 16:25:22 GMT-0500 (Central Daylight Time),123499.09999999404,A,bookenter,I,enter,199,1,1115.9000000059605,122383.19999998808,8048,WL,A,3.0
1,4.265000104904175,learn,55734.999895095825,Thu Jun 05 2025 16:25:22 GMT-0500 (Central Daylight Time),123815.39999997616,A,t,I,t,310,1,315.7999999821186,123499.59999999404,8048,WL,A,4.0
1,4.83299994468689,learn,55167.00005531311,Thu Jun 05 2025 16:25:22 GMT-0500 (Central Daylight Time),124383.0,A,tr,I,r,546,1,883.4000000059605,123499.59999999404,8048,WL,A,4.0
1,4.881999969482422,learn,55118.00003051758,Thu Jun 05 2025 16:25:22 GMT-0500 (Central Daylight Time),124431.79999998212,A,tra,I,a,34,1,932.1999999880791,123499.59999999404,8048,WL,A,4.0
1,5.049000024795532,learn,54950.99997520447,Thu Jun 05 2025 16:25:22 GMT-0500 (Central Daylight Time),124598.69999998808,A,trai,I,i,145,1,1099.0999999940395,123499.59999999404,8048,WL,A,4.0
1,5.164999961853027,learn,54835.00003814697,Thu Jun 05 2025 16:25:22 GMT-0500 (Central Daylight Time),124715.29999998212,A,train,I,n,98,1,1215.699999988079,123499.59999999404,8048,WL,A,4.0
1,5.447999954223633,learn,54552.00004577637,Thu Jun 05 2025 16:25:22 GMT-0500 (Central Daylight Time),124998.09999999404,A,trainenter,I,enter,270,1,1498.5,123499.59999999404,8048,WL,A,4.0
1,5.715000152587891,learn,54284.99984741211,Thu Jun 05 2025 16:25:22 GMT-0500 (Central Daylight Time),125265.0,A,l,I,l,259,1,266.5,124998.5,8048,WL,A,5.0
1,5.881999969482422,learn,54118.00003051758,Thu Jun 05 2025 16:25:22 GMT-0500 (Central Daylight Time),125431.59999999404,A,lo,I,o,160,1,433.09999999403954,124998.5,8048,WL,A,5.0
1,5.998000144958496,learn,54001.999855041504,Thu Jun 05 2025 16:25:22 GMT-0500 (Central Daylight Time),125548.5,A,log,I,g,97,1,550.0,124998.5,8048,WL,A,5.0
1,6.265000104904175,learn,53734.999895095825,Thu Jun 05 2025 16:25:22 GMT-0500 (Central Daylight Time),125814.69999998808,A,logenter,I,enter,260,1,816.1999999880791,124998.5,8048,WL,A,5.0
1,6.498000144958496,learn,53501.999855041504,Thu Jun 05 2025 16:25:22 GMT-0500 (Central Daylight Time),126048.19999998808,A,r,I,r,226,1,233.19999998807907,125815.0,8048,WL,A,6.0
1,6.615000009536743,learn,53384.99999046326,Thu Jun 05 2025 16:25:22 GMT-0500 (Central Daylight Time),126164.69999998808,A,ra,I,a,97,1,349.69999998807907,125815.0,8048,WL,A,6.0
1,6.730999946594238,learn,53269.00005340576,Thu Jun 05 2025 16:25:22 GMT-0500 (Central Daylight Time),126281.19999998808,A,rat,I,t,100,1,466.19999998807907,125815.0,8048,WL,A,6.0
1,6.88100004196167,learn,53118.99995803833,Thu Jun 05 2025 16:25:22 GMT-0500 (Central Daylight Time),126431.09999999404,A,ratt,I,t,144,1,616.0999999940395,125815.0,8048,WL,A,6.0
1,7.081000089645386,learn,52918.999910354614,Thu Jun 05 2025 16:25:22 GMT-0500 (Central Daylight Time),126631.5,A,rattl,I,l,185,1,816.5,125815.0,8048,WL,A,6.0
1,7.180999994277954,learn,52819.000005722046,Thu Jun 05 2025 16:25:22 GMT-0500 (Central Daylight Time),126731.39999997616,A,rattle,I,e,89,1,916.3999999761581,125815.0,8048,WL,A,6.0
1,7.398000001907349,learn,52601.99999809265,Thu Jun 05 2025 16:25:22 GMT-0500 (Central Daylight Time),126947.89999997616,A,rattleenter,I,enter,198,1,1132.8999999761581,125815.0,8048,WL,A,6.0
1,10.58899998664856,learn,49411.00001335144,Thu Jun 05 2025 16:25:22 GMT-0500 (Central Daylight Time),130138.69999998808,A,j,I,j,3184,1,3190.5,126948.19999998808,8048,WL,A,7.0
1,10.648000001907349,learn,49351.99999809265,Thu Jun 05 2025 16:25:22 GMT-0500 (Central Daylight Time),130198.5,A,je,I,e,37,1,3250.300000011921,126948.19999998808,8048,WL,A,7.0
1,11.213000059127808,learn,48786.99994087219,Thu Jun 05 2025 16:25:22 GMT-0500 (Central Daylight Time),130763.29999998212,A,j,I,backspace,546,1,3815.0999999940395,126948.19999998808,8048,WL,A,7.0
1,11.330000162124634,learn,48669.999837875366,Thu Jun 05 2025 16:25:22 GMT-0500 (Central Daylight Time),130880.09999999404,A,,I,backspace,102,1,3931.9000000059605,126948.19999998808,8048,WL,A,7.0
1,11.546000003814697,learn,48453.9999961853,Thu Jun 05 2025 16:25:22 GMT-0500 (Central Daylight Time),131096.59999999404,A,m,I,m,201,1,4148.4000000059605,126948.19999998808,8048,WL,A,7.0
1,11.630000114440918,learn,48369.99988555908,Thu Jun 05 2025 16:25:22 GMT-0500 (Central Daylight Time),131180.09999999404,A,me,I,e,65,1,4231.9000000059605,126948.19999998808,8048,WL,A,7.0
1,11.730000019073486,learn,48269.999980926514,Thu Jun 05 2025 16:25:22 GMT-0500 (Central Daylight Time),131279.89999997616,A,mea,I,a,85,1,4331.699999988079,126948.19999998808,8048,WL,A,7.0
1,11.930000066757202,learn,48069.9999332428,Thu Jun 05 2025 16:25:22 GMT-0500 (Central Daylight Time),131479.59999999404,A,mead,I,d,185,1,4531.4000000059605,126948.19999998808,8048,WL,A,7.0
1,12.062999963760376,learn,47937.000036239624,Thu Jun 05 2025 16:25:22 GMT-0500 (Central Daylight Time),131613.09999999404,A,meado,I,o,114,1,4664.9000000059605,126948.19999998808,8048,WL,A,7.0
1,12.312999963760376,learn,47687.000036239624,Thu Jun 05 2025 16:25:22 GMT-0500 (Central Daylight Time),131862.69999998808,A,meadow,I,w,244,1,4914.5,126948.19999998808,8048,WL,A,7.0
1,12.513000011444092,learn,47486.99998855591,Thu Jun 05 2025 16:25:22 GMT-0500 (Central Daylight Time),132062.79999998212,A,meadowenter,I,enter,195,1,5114.5999999940395,126948.19999998808,8048,WL,A,7.0
1,12.812999963760376,learn,47187.000036239624,Thu Jun 05 2025 16:25:22 GMT-0500 (Central Daylight Time),132362.89999997616,A,b,I,b,290,1,299.7999999821186,132063.09999999404,8048,WL,A,8.0
1,13.246000051498413,learn,46753.99994850159,Thu Jun 05 2025 16:25:22 GMT-0500 (Central Daylight Time),132796.09999999404,A,,I,backspace,414,1,733.0,132063.09999999404,8048,WL,A,8.0
1,15.978000164031982,learn,44021.99983596802,Thu Jun 05 2025 16:25:22 GMT-0500 (Central Daylight Time),135528.39999997616,A,g,I,g,2717,1,3465.2999999821186,132063.09999999404,8048,WL,A,8.0
1,16.045000076293945,learn,43954.999923706055,Thu Jun 05 2025 16:25:22 GMT-0500 (Central Daylight Time),135595.09999999404,A,go,I,o,49,1,3532.0,132063.09999999404,8048,WL,A,8.0
1,16.32800006866455,learn,43671.99993133545,Thu Jun 05 2025 16:25:22 GMT-0500 (Central Daylight Time),135878.39999997616,A,gol,I,l,270,1,3815.2999999821186,132063.09999999404,8048,WL,A,8.0
1,16.545000076293945,learn,43454.999923706055,Thu Jun 05 2025 16:25:22 GMT-0500 (Central Daylight Time),136094.89999997616,A,gold,I,d,211,1,4031.7999999821186,132063.09999999404,8048,WL,A,8.0
1,16.67799997329712,learn,43322.00002670288,Thu Jun 05 2025 16:25:22 GMT-0500 (Central Daylight Time),136228.5,A,goldenter,I,enter,122,1,4165.4000000059605,132063.09999999404,8048,WL,A,8.0
1,21.460000038146973,learn,38539.99996185303,Thu Jun 05 2025 16:25:22 GMT-0500 (Central Daylight Time),141010.19999998808,A,c,I,c,4772,1,4781.300000011921,136228.89999997616,8048,WL,A,9.0
1,21.5770001411438,learn,38422.9998588562,Thu Jun 05 2025 16:25:22 GMT-0500 (Central Daylight Time),141126.89999997616,A,ch,I,h,102,1,4898.0,136228.89999997616,8048,WL,A,9.0
1,21.97699999809265,learn,38023.00000190735,Thu Jun 05 2025 16:25:22 GMT-0500 (Central Daylight Time),141526.69999998808,A,chi,I,i,379,1,5297.800000011921,136228.89999997616,8048,WL,A,9.0
1,22.110000133514404,learn,37889.999866485596,Thu Jun 05 2025 16:25:22 GMT-0500 (Central Daylight Time),141659.89999997616,A,chim,I,m,114,1,5431.0,136228.89999997616,8048,WL,A,9.0
1,22.493000030517578,learn,37506.99996948242,Thu Jun 05 2025 16:25:22 GMT-0500 (Central Daylight Time),142043.19999998808,A,chimn,I,n,365,1,5814.300000011921,136228.89999997616,8048,WL,A,9.0
1,22.64300012588501,learn,37356.99987411499,Thu Jun 05 2025 16:25:22 GMT-0500 (Central Daylight Time),142193.5,A,chimne,I,e,134,1,5964.600000023842,136228.89999997616,8048,WL,A,9.0
1,23.12600016593933,learn,36873.99983406067,Thu Jun 05 2025 16:25:22 GMT-0500 (Central Daylight Time),142676.29999998212,A,chimney,I,y,464,1,6447.4000000059605,136228.89999997616,8048,WL,A,9.0
1,23.343000173568726,learn,36656.999826431274,Thu Jun 05 2025 16:25:22 GMT-0500 (Central Daylight Time),142892.79999998212,A,chimneyenter,I,enter,205,1,6663.9000000059605,136228.89999997616,8048,WL,A,9.0
1,34.25699996948242,learn,25743.000030517578,Thu Jun 05 2025 16:25:22 GMT-0500 (Central Daylight Time),153806.89999997616,A,l,I,l,10894,1,10913.699999988079,142893.19999998808,8048,WL,A,10.0
1,35.18900012969971,learn,24810.999870300293,Thu Jun 05 2025 16:25:22 GMT-0500 (Central Daylight Time),154739.19999998808,A,lo,I,o,919,1,11846.0,142893.19999998808,8048,WL,A,10.0
1,35.32200002670288,learn,24677.99997329712,Thu Jun 05 2025 16:25:22 GMT-0500 (Central Daylight Time),154872.5,A,log,I,g,126,1,11979.300000011921,142893.19999998808,8048,WL,A,10.0
1,35.58899998664856,learn,24411.00001335144,Thu Jun 05 2025 16:25:22 GMT-0500 (Central Daylight Time),155139.0,A,logenter,I,enter,249,1,12245.800000011921,142893.19999998808,8048,WL,A,10.0
1,45.80200004577637,learn,14197.999954223633,Thu Jun 05 2025 16:25:22 GMT-0500 (Central Daylight Time),165352.29999998212,A,enter,I,enter,10206,1,10212.90000000596,155139.39999997616,8048,WL,A,11.0
1,46.35300016403198,learn,13646.999835968018,Thu Jun 05 2025 16:25:22 GMT-0500 (Central Daylight Time),165902.89999997616,A,enter,I,enter,536,1,550.0999999940395,165352.79999998212,8048,WL,A,12.0
1,46.60199999809265,learn,13398.000001907349,Thu Jun 05 2025 16:25:22 GMT-0500 (Central Daylight Time),166152.0,A,enter,I,enter,234,1,248.7000000178814,165903.29999998212,8048,WL,A,13.0
1,46.91900014877319,learn,13080.999851226807,Thu Jun 05 2025 16:25:22 GMT-0500 (Central Daylight Time),166468.69999998808,A,enter,I,enter,297,1,316.30000001192093,166152.39999997616,8048,WL,A,14.0
1,47.41799998283386,learn,12582.000017166138,Thu Jun 05 2025 16:25:22 GMT-0500 (Central Daylight Time),166968.29999998212,A,enter,I,enter,485,1,499.09999999403954,166469.19999998808,8048,WL,A,15.0
2,0.41700005531311035,learn,59582.99994468689,Thu Jun 05 2025 16:25:22 GMT-0500 (Central Daylight Time),232165.19999998808,A,a,I,a,405,1,416.5,231748.69999998808,8048,WL,A,1.0
2,0.5329999923706055,learn,59467.000007629395,Thu Jun 05 2025 16:25:22 GMT-0500 (Central Daylight Time),232281.29999998212,A,ap,I,p,99,1,532.5999999940395,231748.69999998808,8048,WL,A,1.0
2,0.9830000400543213,learn,59016.99995994568,Thu Jun 05 2025 16:25:22 GMT-0500 (Central Daylight Time),232731.29999998212,A,app,I,p,440,1,982.5999999940395,231748.69999998808,8048,WL,A,1.0
2,1.183000087738037,learn,58816.99991226196,Thu Jun 05 2025 16:25:22 GMT-0500 (Central Daylight Time),232931.39999997616,A,appl,I,l,190,1,1182.699999988079,231748.69999998808,8048,WL,A,1.0
2,1.3000001907348633,learn,58699.99980926514,Thu Jun 05 2025 16:25:22 GMT-0500 (Central Daylight Time),233048.0,A,apple,I,e,102,1,1299.300000011921,231748.69999998808,8048,WL,A,1.0
2,1.5160000324249268,learn,58483.99996757507,Thu Jun 05 2025 16:25:22 GMT-0500 (Central Daylight Time),233264.5,A,appleenter,I,enter,201,1,1515.800000011921,231748.69999998808,8048,WL,A,1.0
2,1.8330001831054688,learn,58166.99981689453,Thu Jun 05 2025 16:25:22 GMT-0500 (Central Daylight Time),233581.29999998212,A,r,I,r,305,1,316.5,233264.79999998212,8048,WL,A,2.0
2,1.9660000801086426,learn,58033.99991989136,Thu Jun 05 2025 16:25:22 GMT-0500 (Central Daylight Time),233714.39999997616,A,ru,I,u,124,1,449.59999999403954,233264.79999998212,8048,WL,A,2.0
2,2.1660001277923584,learn,57833.99987220764,Thu Jun 05 2025 16:25:22 GMT-0500 (Central Daylight Time),233914.59999999404,A,rug,I,g,191,1,649.8000000119209,233264.79999998212,8048,WL,A,2.0
2,2.3490002155303955,learn,57650.999784469604,Thu Jun 05 2025 16:25:22 GMT-0500 (Central Daylight Time),234097.59999999404,A,rugenter,I,enter,175,1,832.8000000119209,233264.79999998212,8048,WL,A,2.0
2,2.6490001678466797,learn,57350.99983215332,Thu Jun 05 2025 16:25:22 GMT-0500 (Central Daylight Time),234397.5,A,s,I,s,288,1,299.60000002384186,234097.89999997616,8048,WL,A,3.0
2,2.8490002155303955,learn,57150.999784469604,Thu Jun 05 2025 16:25:22 GMT-0500 (Central Daylight Time),234597.39999997616,A,sa,I,a,188,1,499.5,234097.89999997616,8048,WL,A,3.0
2,2.9820001125335693,learn,57017.99988746643,Thu Jun 05 2025 16:25:22 GMT-0500 (Central Daylight Time),234730.69999998808,A,sal,I,l,116,1,632.8000000119209,234097.89999997616,8048,WL,A,3.0
2,3.199000120162964,learn,56800.999879837036,Thu Jun 05 2025 16:25:22 GMT-0500 (Central Daylight Time),234947.59999999404,A,salt,I,t,198,1,849.7000000178814,234097.89999997616,8048,WL,A,3.0
2,3.3990001678466797,learn,56600.99983215332,Thu Jun 05 2025 16:25:22 GMT-0500 (Central Daylight Time),235147.39999997616,A,saltenter,I,enter,190,1,1049.5,234097.89999997616,8048,WL,A,3.0
2,3.7320001125335693,learn,56267.99988746643,Thu Jun 05 2025 16:25:22 GMT-0500 (Central Daylight Time),235480.5,A,g,I,g,318,1,332.80000001192093,235147.69999998808,8048,WL,A,4.0
2,3.8490002155303955,learn,56150.999784469604,Thu Jun 05 2025 16:25:22 GMT-0500 (Central Daylight Time),235597.19999998808,A,go,I,o,97,1,449.5,235147.69999998808,8048,WL,A,4.0
2,4.049000024795532,learn,55950.99997520447,Thu Jun 05 2025 16:25:22 GMT-0500 (Central Daylight Time),235797.19999998808,A,gol,I,l,180,1,649.5,235147.69999998808,8048,WL,A,4.0
2,4.2820000648498535,learn,55717.99993515015,Thu Jun 05 2025 16:25:22 GMT-0500 (Central Daylight Time),236030.29999998212,A,gold,I,d,212,1,882.5999999940395,235147.69999998808,8048,WL,A,4.0
2,4.515000104904175,learn,55484.999895095825,Thu Jun 05 2025 16:25:22 GMT-0500 (Central Daylight Time),236263.59999999404,A,goldenter,I,enter,219,1,1115.9000000059605,235147.69999998808,8048,WL,A,4.0
2,4.765000104904175,learn,55234.999895095825,Thu Jun 05 2025 16:25:22 GMT-0500 (Central Daylight Time),236513.59999999404,A,b,I,b,242,1,249.59999999403954,236264.0,8048,WL,A,5.0
2,4.982000112533569,learn,55017.99988746643,Thu Jun 05 2025 16:25:22 GMT-0500 (Central Daylight Time),236730.19999998808,A,bu,I,u,208,1,466.19999998807907,236264.0,8048,WL,A,5.0
2,5.182000160217285,learn,54817.999839782715,Thu Jun 05 2025 16:25:22 GMT-0500 (Central Daylight Time),236930.09999999404,A,but,I,t,183,1,666.0999999940395,236264.0,8048,WL,A,5.0
2,5.29800009727478,learn,54701.99990272522,Thu Jun 05 2025 16:25:22 GMT-0500 (Central Daylight Time),237046.5,A,butt,I,t,111,1,782.5,236264.0,8048,WL,A,5.0
2,5.498000144958496,learn,54501.999855041504,Thu Jun 05 2025 16:25:22 GMT-0500 (Central Daylight Time),237246.5,A,butto,I,o,195,1,982.5,236264.0,8048,WL,A,5.0
2,5.581000089645386,learn,54418.999910354614,Thu Jun 05 2025 16:25:22 GMT-0500 (Central Daylight Time),237330.09999999404,A,button,I,n,75,1,1066.0999999940395,236264.0,8048,WL,A,5.0
2,6.414000034332275,learn,53585.999965667725,Thu Jun 05 2025 16:25:22 GMT-0500 (Central Daylight Time),238163.19999998808,A,buttonenter,I,enter,815,1,1899.199999988079,236264.0,8048,WL,A,5.0
2,8.44700002670288,learn,51552.99997329712,Thu Jun 05 2025 16:25:22 GMT-0500 (Central Daylight Time),240195.69999998808,A,t,I,t,2014,1,2032.199999988079,238163.5,8048,WL,A,6.0
2,8.630000114440918,learn,51369.99988555908,Thu Jun 05 2025 16:25:22 GMT-0500 (Central Daylight Time),240379.0,A,tr,I,r,174,1,2215.5,238163.5,8048,WL,A,6.0
2,8.71399998664856,learn,51286.00001335144,Thu Jun 05 2025 16:25:22 GMT-0500 (Central Daylight Time),240462.19999998808,A,tra,I,a,70,1,2298.699999988079,238163.5,8048,WL,A,6.0
2,8.847000122070312,learn,51152.99987792969,Thu Jun 05 2025 16:25:22 GMT-0500 (Central Daylight Time),240595.69999998808,A,trai,I,i,115,1,2432.199999988079,238163.5,8048,WL,A,6.0
2,8.913000106811523,learn,51086.99989318848,Thu Jun 05 2025 16:25:22 GMT-0500 (Central Daylight Time),240662.0,A,train,I,n,54,1,2498.5,238163.5,8048,WL,A,6.0
2,9.230000019073486,learn,50769.999980926514,Thu Jun 05 2025 16:25:22 GMT-0500 (Central Daylight Time),240978.69999998808,A,trainenter,I,enter,300,1,2815.199999988079,238163.5,8048,WL,A,6.0
2,9.547000169754028,learn,50452.99983024597,Thu Jun 05 2025 16:25:22 GMT-0500 (Central Daylight Time),241295.19999998808,A,m,I,m,303,1,316.19999998807907,240979.0,8048,WL,A,7.0
2,9.647000074386597,learn,50352.9999256134,Thu Jun 05 2025 16:25:22 GMT-0500 (Central Daylight Time),241395.29999998212,A,me,I,e,90,1,416.2999999821186,240979.0,8048,WL,A,7.0
2,9.747000217437744,learn,50252.999782562256,Thu Jun 05 2025 16:25:22 GMT-0500 (Central Daylight Time),241495.29999998212,A,mea,I,a,86,1,516.2999999821186,240979.0,8048,WL,A,7.0
2,9.94700002670288,learn,50052.99997329712,Thu Jun 05 2025 16:25:22 GMT-0500 (Central Daylight Time),241695.19999998808,A,mead,I,d,186,1,716.1999999880791,240979.0,8048,WL,A,7.0
2,10.130000114440918,learn,49869.99988555908,Thu Jun 05 2025 16:25:22 GMT-0500 (Central Daylight Time),241878.5,A,meado,I,o,170,1,899.5,240979.0,8048,WL,A,7.0
2,10.263000011444092,learn,49736.99998855591,Thu Jun 05 2025 16:25:22 GMT-0500 (Central Daylight Time),242012.0,A,meadow,I,w,115,1,1033.0,240979.0,8048,WL,A,7.0
2,10.497000217437744,learn,49502.999782562256,Thu Jun 05 2025 16:25:22 GMT-0500 (Central Daylight Time),242245.19999998808,A,meadowenter,I,enter,213,1,1266.199999988079,240979.0,8048,WL,A,7.0
2,11.380000114440918,learn,48619.99988555908,Thu Jun 05 2025 16:25:22 GMT-0500 (Central Daylight Time),243128.09999999404,A,b,I,b,876,1,882.5,242245.59999999404,8048,WL,A,8.0
2,11.563000202178955,learn,48436.999797821045,Thu Jun 05 2025 16:25:22 GMT-0500 (Central Daylight Time),243311.19999998808,A,bo,I,o,177,1,1065.5999999940395,242245.59999999404,8048,WL,A,8.0
2,11.696000099182129,learn,48303.99990081787,Thu Jun 05 2025 16:25:22 GMT-0500 (Central Daylight Time),243444.69999998808,A,boo,I,o,122,1,1199.0999999940395,242245.59999999404,8048,WL,A,8.0
2,11.828999996185303,learn,48171.0000038147,Thu Jun 05 2025 16:25:22 GMT-0500 (Central Daylight Time),243578.0,A,book,I,k,125,1,1332.4000000059605,242245.59999999404,8048,WL,A,8.0
2,12.063000202178955,learn,47936.999797821045,Thu Jun 05 2025 16:25:22 GMT-0500 (Central Daylight Time),243811.29999998212,A,bookenter,I,enter,223,1,1565.699999988079,242245.59999999404,8048,WL,A,8.0
2,12.463000059127808,learn,47536.99994087219,Thu Jun 05 2025 16:25:22 GMT-0500 (Central Daylight Time),244211.09999999404,A,f,I,f,382,1,399.40000000596046,243811.69999998808,8048,WL,A,9.0
2,12.646000146865845,learn,47353.999853134155,Thu Jun 05 2025 16:25:22 GMT-0500 (Central Daylight Time),244394.59999999404,A,fl,I,l,174,1,582.9000000059605,243811.69999998808,8048,WL,A,9.0
2,12.861999988555908,learn,47138.00001144409,Thu Jun 05 2025 16:25:22 GMT-0500 (Central Daylight Time),244610.79999998212,A,flo,I,o,199,1,799.0999999940395,243811.69999998808,8048,WL,A,9.0
2,12.979000091552734,learn,47020.999908447266,Thu Jun 05 2025 16:25:22 GMT-0500 (Central Daylight Time),244727.69999998808,A,flow,I,w,103,1,916.0,243811.69999998808,8048,WL,A,9.0
2,13.162000179290771,learn,46837.99982070923,Thu Jun 05 2025 16:25:22 GMT-0500 (Central Daylight Time),244910.79999998212,A,flowe,I,e,178,1,1099.0999999940395,243811.69999998808,8048,WL,A,9.0
2,13.26200008392334,learn,46737.99991607666,Thu Jun 05 2025 16:25:22 GMT-0500 (Central Daylight Time),245010.89999997616,A,flower,I,r,91,1,1199.199999988079,243811.69999998808,8048,WL,A,9.0
2,13.962000131607056,learn,46037.999868392944,Thu Jun 05 2025 16:25:22 GMT-0500 (Central Daylight Time),245710.89999997616,A,flowerenter,I,enter,694,1,1899.199999988079,243811.69999998808,8048,WL,A,9.0
2,18.294000148773193,learn,41705.99985122681,Thu Jun 05 2025 16:25:22 GMT-0500 (Central Daylight Time),250042.5,A,b,I,b,4315,1,4331.4000000059605,245711.09999999404,8048,WL,A,10.0
2,18.5770001411438,learn,41422.9998588562,Thu Jun 05 2025 16:25:22 GMT-0500 (Central Daylight Time),250325.69999998808,A,,I,backspace,271,1,4614.5999999940395,245711.09999999404,8048,WL,A,10.0
2,18.677000045776367,learn,41322.99995422363,Thu Jun 05 2025 16:25:22 GMT-0500 (Central Daylight Time),250425.89999997616,A,r,I,r,84,1,4714.799999982119,245711.09999999404,8048,WL,A,10.0
2,18.794000148773193,learn,41205.99985122681,Thu Jun 05 2025 16:25:22 GMT-0500 (Central Daylight Time),250542.29999998212,A,ra,I,a,104,1,4831.199999988079,245711.09999999404,8048,WL,A,10.0
2,18.91100001335144,learn,41088.99998664856,Thu Jun 05 2025 16:25:22 GMT-0500 (Central Daylight Time),250659.19999998808,A,rat,I,t,99,1,4948.0999999940395,245711.09999999404,8048,WL,A,10.0
2,19.0770001411438,learn,40922.9998588562,Thu Jun 05 2025 16:25:22 GMT-0500 (Central Daylight Time),250825.89999997616,A,ratt,I,t,158,1,5114.799999982119,245711.09999999404,8048,WL,A,10.0
2,19.259999990463257,learn,40740.00000953674,Thu Jun 05 2025 16:25:22 GMT-0500 (Central Daylight Time),251009.0,A,rattl,I,l,167,1,5297.9000000059605,245711.09999999404,8048,WL,A,10.0
2,19.41000008583069,learn,40589.99991416931,Thu Jun 05 2025 16:25:22 GMT-0500 (Central Daylight Time),251158.89999997616,A,rattle,I,e,144,1,5447.799999982119,245711.09999999404,8048,WL,A,10.0
2,19.710000038146973,learn,40289.99996185303,Thu Jun 05 2025 16:25:22 GMT-0500 (Central Daylight Time),251459.0,A,rattleenter,I,enter,291,1,5747.9000000059605,245711.09999999404,8048,WL,A,10.0
2,20.009999990463257,learn,39990.00000953674,Thu Jun 05 2025 16:25:22 GMT-0500 (Central Daylight Time),251758.59999999404,A,l,I,l,295,1,299.2000000178814,251459.39999997616,8048,WL,A,11.0
2,20.193000078201294,learn,39806.999921798706,Thu Jun 05 2025 16:25:22 GMT-0500 (Central Daylight Time),251942.0,A,lo,I,o,163,1,482.60000002384186,251459.39999997616,8048,WL,A,11.0
2,20.259999990463257,learn,39740.00000953674,Thu Jun 05 2025 16:25:22 GMT-0500 (Central Daylight Time),252008.59999999404,A,log,I,g,59,1,549.2000000178814,251459.39999997616,8048,WL,A,11.0
2,20.493000030517578,learn,39506.99996948242,Thu Jun 05 2025 16:25:22 GMT-0500 (Central Daylight Time),252241.79999998212,A,logenter,I,enter,225,1,782.4000000059605,251459.39999997616,8048,WL,A,11.0
2,21.926000118255615,learn,38073.999881744385,Thu Jun 05 2025 16:25:22 GMT-0500 (Central Daylight Time),253674.79999998212,A,c,I,c,1415,1,1432.699999988079,252242.09999999404,8048,WL,A,12.0
2,22.009999990463257,learn,37990.00000953674,Thu Jun 05 2025 16:25:22 GMT-0500 (Central Daylight Time),253758.29999998212,A,ch,I,h,62,1,1516.199999988079,252242.09999999404,8048,WL,A,12.0
2,22.14300012588501,learn,37856.99987411499,Thu Jun 05 2025 16:25:22 GMT-0500 (Central Daylight Time),253891.39999997616,A,chi,I,i,123,1,1649.2999999821186,252242.09999999404,8048,WL,A,12.0
2,22.343000173568726,learn,37656.999826431274,Thu Jun 05 2025 16:25:22 GMT-0500 (Central Daylight Time),254091.29999998212,A,chim,I,m,190,1,1849.199999988079,252242.09999999404,8048,WL,A,12.0
2,22.79300022125244,learn,37206.99977874756,Thu Jun 05 2025 16:25:22 GMT-0500 (Central Daylight Time),254541.19999998808,A,chime,I,e,430,1,2299.0999999940395,252242.09999999404,8048,WL,A,12.0
2,23.12600016593933,learn,36873.99983406067,Thu Jun 05 2025 16:25:22 GMT-0500 (Central Daylight Time),254874.59999999404,A,chim,I,backspace,324,1,2632.5,252242.09999999404,8048,WL,A,12.0
2,23.30900001525879,learn,36690.99998474121,Thu Jun 05 2025 16:25:22 GMT-0500 (Central Daylight Time),255057.69999998808,A,chimn,I,n,175,1,2815.5999999940395,252242.09999999404,8048,WL,A,12.0
2,23.409000158309937,learn,36590.99984169006,Thu Jun 05 2025 16:25:22 GMT-0500 (Central Daylight Time),255157.69999998808,A,chimne,I,e,87,1,2915.5999999940395,252242.09999999404,8048,WL,A,12.0
2,23.56000018119812,learn,36439.99981880188,Thu Jun 05 2025 16:25:22 GMT-0500 (Central Daylight Time),255308.79999998212,A,chimney,I,y,140,1,3066.699999988079,252242.09999999404,8048,WL,A,12.0
2,23.842000007629395,learn,36157.999992370605,Thu Jun 05 2025 16:25:22 GMT-0500 (Central Daylight Time),255590.79999998212,A,chimneyenter,I,enter,277,1,3348.699999988079,252242.09999999404,8048,WL,A,12.0
2,26.407999992370605,learn,33592.000007629395,Thu Jun 05 2025 16:25:22 GMT-0500 (Central Daylight Time),258156.79999998212,A,g,I,g,2554,1,2565.699999988079,255591.09999999404,8048,WL,A,13.0
2,26.475000143051147,learn,33524.99985694885,Thu Jun 05 2025 16:25:22 GMT-0500 (Central Daylight Time),258223.09999999404,A,go,I,o,60,1,2632.0,255591.09999999404,8048,WL,A,13.0
2,26.674000024795532,learn,33325.99997520447,Thu Jun 05 2025 16:25:22 GMT-0500 (Central Daylight Time),258423.09999999404,A,gol,I,l,186,1,2832.0,255591.09999999404,8048,WL,A,13.0
2,26.70800018310547,learn,33291.99981689453,Thu Jun 05 2025 16:25:22 GMT-0500 (Central Daylight Time),258456.59999999404,A,gold,I,d,26,1,2865.5,255591.09999999404,8048,WL,A,13.0
2,26.991000175476074,learn,33008.999824523926,Thu Jun 05 2025 16:25:22 GMT-0500 (Central Daylight Time),258739.79999998212,A,goldenter,I,enter,273,1,3148.699999988079,255591.09999999404,8048,WL,A,13.0
2,33.22200012207031,learn,26777.999877929688,Thu Jun 05 2025 16:25:22 GMT-0500 (Central Daylight Time),264970.89999997616,A,h,I,h,6222,1,6230.699999988079,258740.19999998808,8048,WL,A,14.0
2,33.372000217437744,learn,26627.999782562256,Thu Jun 05 2025 16:25:22 GMT-0500 (Central Daylight Time),265121.0,A,ha,I,a,134,1,6380.800000011921,258740.19999998808,8048,WL,A,14.0
2,33.48900008201599,learn,26510.99991798401,Thu Jun 05 2025 16:25:22 GMT-0500 (Central Daylight Time),265237.5,A,har,I,r,104,1,6497.300000011921,258740.19999998808,8048,WL,A,14.0
2,33.63900017738342,learn,26360.999822616577,Thu Jun 05 2025 16:25:22 GMT-0500 (Central Daylight Time),265387.5,A,harp,I,p,131,1,6647.300000011921,258740.19999998808,8048,WL,A,14.0
2,33.93900012969971,learn,26060.999870300293,Thu Jun 05 2025 16:25:22 GMT-0500 (Central Daylight Time),265687.1999999881,A,harpenter,I,enter,294,1,6947.0,258740.19999998808,8048,WL,A,14.0
2,34.805999994277954,learn,25194.000005722046,Thu Jun 05 2025 16:25:22 GMT-0500 (Central Daylight Time),266554.1999999881,A,f,I,f,858,1,866.6999999880791,265687.5,8048,WL,A,15.0
2,35.00600004196167,learn,24993.99995803833,Thu Jun 05 2025 16:25:22 GMT-0500 (Central Daylight Time),266754.1999999881,A,fi,I,i,191,1,1066.699999988079,265687.5,8048,WL,A,15.0
2,35.355000019073486,learn,24644.999980926514,Thu Jun 05 2025 16:25:22 GMT-0500 (Central Daylight Time),267104.0,A,fin,I,n,343,1,1416.5,265687.5,8048,WL,A,15.0
2,35.48900008201599,learn,24510.99991798401,Thu Jun 05 2025 16:25:22 GMT-0500 (Central Daylight Time),267237.2999999821,A,fing,I,g,121,1,1549.7999999821186,265687.5,8048,WL,A,15.0
2,35.605000019073486,learn,24394.999980926514,Thu Jun 05 2025 16:25:22 GMT-0500 (Central Daylight Time),267354.09999999404,A,finge,I,e,100,1,1666.5999999940395,265687.5,8048,WL,A,15.0
2,35.68900012969971,learn,24310.999870300293,Thu Jun 05 2025 16:25:22 GMT-0500 (Central Daylight Time),267437.39999997616,A,finger,I,r,63,1,1749.8999999761581,265687.5,8048,WL,A,15.0
2,35.82200002670288,learn,24177.99997329712,Thu Jun 05 2025 16:25:22 GMT-0500 (Central Daylight Time),267570.5,A,fingerenter,I,enter,124,1,1883.0,265687.5,8048,WL,A,15.0
3,1.1989998817443848,learn,58801.000118255615,Thu Jun 05 2025 16:25:22 GMT-0500 (Central Daylight Time),334633.09999999404,A,k,I,k,1184,1,1199.5,333433.59999999404,8048,WL,A,1.0
3,1.6159999370574951,learn,58384.000062942505,Thu Jun 05 2025 16:25:22 GMT-0500 (Central Daylight Time),335049.6999999881,A,ke,I,e,407,1,1616.0999999940395,333433.59999999404,8048,WL,A,1.0
3,1.7819998264312744,learn,58218.000173568726,Thu Jun 05 2025 16:25:22 GMT-0500 (Central Daylight Time),335216.1999999881,A,key,I,y,151,1,1782.5999999940395,333433.59999999404,8048,WL,A,1.0
3,2.0319998264312744,learn,57968.000173568726,Thu Jun 05 2025 16:25:22 GMT-0500 (Central Daylight Time),335466.1999999881,A,keyenter,I,enter,232,1,2032.5999999940395,333433.59999999404,8048,WL,A,1.0
3,2.6989998817443848,learn,57301.000118255615,Thu Jun 05 2025 16:25:22 GMT-0500 (Central Daylight Time),336132.7999999821,A,b,I,b,647,1,666.1999999880791,335466.59999999404,8048,WL,A,2.0
3,2.865000009536743,learn,57134.99999046326,Thu Jun 05 2025 16:25:22 GMT-0500 (Central Daylight Time),336299.1999999881,A,bo,I,o,156,1,832.5999999940395,335466.59999999404,8048,WL,A,2.0
3,3.248999834060669,learn,56751.00016593933,Thu Jun 05 2025 16:25:22 GMT-0500 (Central Daylight Time),336682.59999999404,A,boo,I,o,365,1,1216.0,335466.59999999404,8048,WL,A,2.0
3,3.3980000019073486,learn,56601.99999809265,Thu Jun 05 2025 16:25:22 GMT-0500 (Central Daylight Time),336832.09999999404,A,book,I,k,142,1,1365.5,335466.59999999404,8048,WL,A,2.0
3,3.6489999294281006,learn,56351.0000705719,Thu Jun 05 2025 16:25:22 GMT-0500 (Central Daylight Time),337082.39999997616,A,bookenter,I,enter,233,1,1615.7999999821186,335466.59999999404,8048,WL,A,2.0
3,3.9149999618530273,learn,56085.00003814697,Thu Jun 05 2025 16:25:22 GMT-0500 (Central Daylight Time),337348.6999999881,A,f,I,f,247,1,265.90000000596046,337082.7999999821,8048,WL,A,3.0
3,4.031999826431274,learn,55968.000173568726,Thu Jun 05 2025 16:25:22 GMT-0500 (Central Daylight Time),337465.5,A,fl,I,l,108,1,382.7000000178814,337082.7999999821,8048,WL,A,3.0
3,4.2149999141693115,learn,55785.00008583069,Thu Jun 05 2025 16:25:22 GMT-0500 (Central Daylight Time),337648.7999999821,A,flo,I,o,167,1,566.0,337082.7999999821,8048,WL,A,3.0
3,4.365000009536743,learn,55634.99999046326,Thu Jun 05 2025 16:25:22 GMT-0500 (Central Daylight Time),337798.59999999404,A,flow,I,w,129,1,715.8000000119209,337082.7999999821,8048,WL,A,3.0
3,4.56499981880188,learn,55435.00018119812,Thu Jun 05 2025 16:25:22 GMT-0500 (Central Daylight Time),337998.59999999404,A,flowe,I,e,186,1,915.8000000119209,337082.7999999821,8048,WL,A,3.0
3,4.631999969482422,learn,55368.00003051758,Thu Jun 05 2025 16:25:22 GMT-0500 (Central Daylight Time),338065.5,A,flower,I,r,58,1,982.7000000178814,337082.7999999821,8048,WL,A,3.0
3,4.914999961853027,learn,55085.00003814697,Thu Jun 05 2025 16:25:22 GMT-0500 (Central Daylight Time),338348.59999999404,A,flowerenter,I,enter,271,1,1265.800000011921,337082.7999999821,8048,WL,A,3.0
3,5.313999891281128,learn,54686.00010871887,Thu Jun 05 2025 16:25:22 GMT-0500 (Central Daylight Time),338748.1999999881,A,r,I,r,380,1,399.19999998807907,338349.0,8048,WL,A,4.0
3,5.414999961853027,learn,54585.00003814697,Thu Jun 05 2025 16:25:22 GMT-0500 (Central Daylight Time),338848.5,A,ru,I,u,93,1,499.5,338349.0,8048,WL,A,4.0
3,5.680999994277954,learn,54319.000005722046,Thu Jun 05 2025 16:25:22 GMT-0500 (Central Daylight Time),339114.89999997616,A,rug,I,g,248,1,765.8999999761581,338349.0,8048,WL,A,4.0
3,5.914000034332275,learn,54085.999965667725,Thu Jun 05 2025 16:25:22 GMT-0500 (Central Daylight Time),339348.39999997616,A,rugenter,I,enter,222,1,999.3999999761581,338349.0,8048,WL,A,4.0
3,6.180999994277954,learn,53819.000005722046,Thu Jun 05 2025 16:25:22 GMT-0500 (Central Daylight Time),339615.09999999404,A,t,I,t,253,1,266.40000000596046,339348.6999999881,8048,WL,A,5.0
3,6.380999803543091,learn,53619.00019645691,Thu Jun 05 2025 16:25:22 GMT-0500 (Central Daylight Time),339814.89999997616,A,tr,I,r,186,1,466.19999998807907,339348.6999999881,8048,WL,A,5.0
3,6.46399998664856,learn,53536.00001335144,Thu Jun 05 2025 16:25:22 GMT-0500 (Central Daylight Time),339898.09999999404,A,tra,I,a,66,1,549.4000000059605,339348.6999999881,8048,WL,A,5.0
3,6.580999851226807,learn,53419.00014877319,Thu Jun 05 2025 16:25:22 GMT-0500 (Central Daylight Time),340014.6999999881,A,trai,I,i,111,1,666.0,339348.6999999881,8048,WL,A,5.0
3,6.697999954223633,learn,53302.00004577637,Thu Jun 05 2025 16:25:22 GMT-0500 (Central Daylight Time),340131.39999997616,A,train,I,n,106,1,782.6999999880791,339348.6999999881,8048,WL,A,5.0
3,7.063999891281128,learn,52936.00010871887,Thu Jun 05 2025 16:25:22 GMT-0500 (Central Daylight Time),340497.89999997616,A,trainenter,I,enter,358,1,1149.199999988079,339348.6999999881,8048,WL,A,5.0
3,7.412999868392944,learn,52587.000131607056,Thu Jun 05 2025 16:25:22 GMT-0500 (Central Daylight Time),340847.2999999821,A,m,I,m,343,1,349.09999999403954,340498.1999999881,8048,WL,A,6.0
3,7.546999931335449,learn,52453.00006866455,Thu Jun 05 2025 16:25:22 GMT-0500 (Central Daylight Time),340981.0,A,me,I,e,122,1,482.80000001192093,340498.1999999881,8048,WL,A,6.0
3,7.664000034332275,learn,52335.999965667725,Thu Jun 05 2025 16:25:22 GMT-0500 (Central Daylight Time),341097.7999999821,A,mea,I,a,100,1,599.5999999940395,340498.1999999881,8048,WL,A,6.0
3,7.914000034332275,learn,52085.999965667725,Thu Jun 05 2025 16:25:22 GMT-0500 (Central Daylight Time),341347.5,A,mead,I,d,239,1,849.3000000119209,340498.1999999881,8048,WL,A,6.0
3,8.164000034332275,learn,51835.999965667725,Thu Jun 05 2025 16:25:22 GMT-0500 (Central Daylight Time),341597.6999999881,A,meado,I,o,230,1,1099.5,340498.1999999881,8048,WL,A,6.0
3,8.312999963760376,learn,51687.000036239624,Thu Jun 05 2025 16:25:22 GMT-0500 (Central Daylight Time),341747.1999999881,A,meadow,I,w,139,1,1249.0,340498.1999999881,8048,WL,A,6.0
3,8.75599980354309,learn,51244.00019645691,Thu Jun 05 2025 16:25:22 GMT-0500 (Central Daylight Time),342190.0,A,meadowenter,I,enter,438,1,1691.800000011921,340498.1999999881,8048,WL,A,6.0
3,9.129999876022339,learn,50870.00012397766,Thu Jun 05 2025 16:25:22 GMT-0500 (Central Daylight Time),342563.59999999404,A,s,I,s,352,1,373.2000000178814,342190.39999997616,8048,WL,A,7.0
3,9.263000011444092,learn,50736.99998855591,Thu Jun 05 2025 16:25:22 GMT-0500 (Central Daylight Time),342697.0,A,sa,I,a,118,1,506.60000002384186,342190.39999997616,8048,WL,A,7.0
3,9.396999835968018,learn,50603.00016403198,Thu Jun 05 2025 16:25:22 GMT-0500 (Central Daylight Time),342830.2999999821,A,sal,I,l,112,1,639.9000000059605,342190.39999997616,8048,WL,A,7.0
3,9.61299991607666,learn,50387.00008392334,Thu Jun 05 2025 16:25:22 GMT-0500 (Central Daylight Time),343047.0,A,salt,I,t,195,1,856.6000000238419,342190.39999997616,8048,WL,A,7.0
3,9.879999876022339,learn,50120.00012397766,Thu Jun 05 2025 16:25:22 GMT-0500 (Central Daylight Time),343313.5,A,saltenter,I,enter,251,1,1123.1000000238419,342190.39999997616,8048,WL,A,7.0
3,10.11299991607666,learn,49887.00008392334,Thu Jun 05 2025 16:25:22 GMT-0500 (Central Daylight Time),343546.89999997616,A,a,I,a,224,1,233.0,343313.89999997616,8048,WL,A,8.0
3,10.296000003814697,learn,49703.9999961853,Thu Jun 05 2025 16:25:22 GMT-0500 (Central Daylight Time),343730.0,A,ap,I,p,167,1,416.10000002384186,343313.89999997616,8048,WL,A,8.0
3,10.412999868392944,learn,49587.000131607056,Thu Jun 05 2025 16:25:22 GMT-0500 (Central Daylight Time),343846.59999999404,A,app,I,p,103,1,532.7000000178814,343313.89999997616,8048,WL,A,8.0
3,10.61299991607666,learn,49387.00008392334,Thu Jun 05 2025 16:25:22 GMT-0500 (Central Daylight Time),344046.6999999881,A,appl,I,l,195,1,732.8000000119209,343313.89999997616,8048,WL,A,8.0
3,10.845999956130981,learn,49154.00004386902,Thu Jun 05 2025 16:25:22 GMT-0500 (Central Daylight Time),344279.89999997616,A,apple,I,e,219,1,966.0,343313.89999997616,8048,WL,A,8.0
3,11.046000003814697,learn,48953.9999961853,Thu Jun 05 2025 16:25:22 GMT-0500 (Central Daylight Time),344479.6999999881,A,appleenter,I,enter,193,1,1165.800000011921,343313.89999997616,8048,WL,A,8.0
3,11.313999891281128,learn,48686.00010871887,Thu Jun 05 2025 16:25:22 GMT-0500 (Central Daylight Time),344748.0,A,l,I,l,250,1,267.80000001192093,344480.1999999881,8048,WL,A,9.0
3,11.478999853134155,learn,48521.000146865845,Thu Jun 05 2025 16:25:22 GMT-0500 (Central Daylight Time),344913.0,A,lo,I,o,157,1,432.80000001192093,344480.1999999881,8048,WL,A,9.0
3,11.59500002861023,learn,48404.99997138977,Thu Jun 05 2025 16:25:22 GMT-0500 (Central Daylight Time),345029.2999999821,A,log,I,g,105,1,549.0999999940395,344480.1999999881,8048,WL,A,9.0
3,11.796000003814697,learn,48203.9999961853,Thu Jun 05 2025 16:25:22 GMT-0500 (Central Daylight Time),345229.39999997616,A,logenter,I,enter,180,1,749.1999999880791,344480.1999999881,8048,WL,A,9.0
3,12.461999893188477,learn,47538.00010681152,Thu Jun 05 2025 16:25:22 GMT-0500 (Central Daylight Time),345896.0,A,c,I,c,660,1,666.1000000238419,345229.89999997616,8048,WL,A,10.0
3,12.578999996185303,learn,47421.0000038147,Thu Jun 05 2025 16:25:22 GMT-0500 (Central Daylight Time),346012.59999999404,A,ch,I,h,97,1,782.7000000178814,345229.89999997616,8048,WL,A,10.0
3,12.644999980926514,learn,47355.000019073486,Thu Jun 05 2025 16:25:22 GMT-0500 (Central Daylight Time),346078.89999997616,A,chh,I,h,53,1,849.0,345229.89999997616,8048,WL,A,10.0
3,13.144999980926514,learn,46855.000019073486,Thu Jun 05 2025 16:25:22 GMT-0500 (Central Daylight Time),346579.1999999881,A,ch,I,backspace,491,1,1349.300000011921,345229.89999997616,8048,WL,A,10.0
3,13.378000020980835,learn,46621.999979019165,Thu Jun 05 2025 16:25:22 GMT-0500 (Central Daylight Time),346812.2999999821,A,chi,I,i,214,1,1582.4000000059605,345229.89999997616,8048,WL,A,10.0
3,13.461999893188477,learn,46538.00010681152,Thu Jun 05 2025 16:25:22 GMT-0500 (Central Daylight Time),346895.5,A,chim,I,m,69,1,1665.6000000238419,345229.89999997616,8048,WL,A,10.0
3,13.911999940872192,learn,46088.00005912781,Thu Jun 05 2025 16:25:22 GMT-0500 (Central Daylight Time),347345.39999997616,A,chimn,I,n,442,1,2115.5,345229.89999997616,8048,WL,A,10.0
3,14.077999830245972,learn,45922.00016975403,Thu Jun 05 2025 16:25:22 GMT-0500 (Central Daylight Time),347512.1999999881,A,chimne,I,e,160,1,2282.300000011921,345229.89999997616,8048,WL,A,10.0
3,14.411999940872192,learn,45588.00005912781,Thu Jun 05 2025 16:25:22 GMT-0500 (Central Daylight Time),347845.2999999821,A,chimney,I,y,321,1,2615.4000000059605,345229.89999997616,8048,WL,A,10.0
3,15.227999925613403,learn,44772.0000743866,Thu Jun 05 2025 16:25:22 GMT-0500 (Central Daylight Time),348662.0,A,chimneyenter,I,enter,796,1,3432.100000023842,345229.89999997616,8048,WL,A,10.0
3,16.860999822616577,learn,43139.00017738342,Thu Jun 05 2025 16:25:22 GMT-0500 (Central Daylight Time),350294.59999999404,A,f,I,f,1620,1,1632.300000011921,348662.2999999821,8048,WL,A,11.0
3,16.92799997329712,learn,43072.00002670288,Thu Jun 05 2025 16:25:22 GMT-0500 (Central Daylight Time),350361.5,A,fi,I,i,59,1,1699.2000000178814,348662.2999999821,8048,WL,A,11.0
3,17.043999910354614,learn,42956.000089645386,Thu Jun 05 2025 16:25:22 GMT-0500 (Central Daylight Time),350477.7999999821,A,fin,I,n,104,1,1815.5,348662.2999999821,8048,WL,A,11.0
3,17.3439998626709,learn,42656.0001373291,Thu Jun 05 2025 16:25:22 GMT-0500 (Central Daylight Time),350777.7999999821,A,fing,I,g,292,1,2115.5,348662.2999999821,8048,WL,A,11.0
3,17.509999990463257,learn,42490.00000953674,Thu Jun 05 2025 16:25:22 GMT-0500 (Central Daylight Time),350944.1999999881,A,finge,I,e,160,1,2281.9000000059605,348662.2999999821,8048,WL,A,11.0
3,17.55999994277954,learn,42440.00005722046,Thu Jun 05 2025 16:25:22 GMT-0500 (Central Daylight Time),350994.2999999821,A,finger,I,r,33,1,2332.0,348662.2999999821,8048,WL,A,11.0
3,18.043999910354614,learn,41956.000089645386,Thu Jun 05 2025 16:25:22 GMT-0500 (Central Daylight Time),351477.39999997616,A,fingerenter,I,enter,471,1,2815.0999999940395,348662.2999999821,8048,WL,A,11.0
3,18.393999814987183,learn,41606.00018501282,Thu Jun 05 2025 16:25:22 GMT-0500 (Central Daylight Time),351827.39999997616,A,h,I,h,332,1,349.7999999821186,351477.59999999404,8048,WL,A,12.0
3,18.543999910354614,learn,41456.000089645386,Thu Jun 05 2025 16:25:22 GMT-0500 (Central Daylight Time),351977.5,A,ha,I,a,134,1,499.90000000596046,351477.59999999404,8048,WL,A,12.0
3,18.643999814987183,learn,41356.00018501282,Thu Jun 05 2025 16:25:22 GMT-0500 (Central Daylight Time),352077.39999997616,A,har,I,r,88,1,599.7999999821186,351477.59999999404,8048,WL,A,12.0
3,18.99399995803833,learn,41006.00004196167,Thu Jun 05 2025 16:25:22 GMT-0500 (Central Daylight Time),352427.39999997616,A,harp,I,p,340,1,949.7999999821186,351477.59999999404,8048,WL,A,12.0
3,19.276999950408936,learn,40723.000049591064,Thu Jun 05 2025 16:25:22 GMT-0500 (Central Daylight Time),352710.39999997616,A,harpenter,I,enter,270,1,1232.7999999821186,351477.59999999404,8048,WL,A,12.0
3,19.592999935150146,learn,40407.00006484985,Thu Jun 05 2025 16:25:22 GMT-0500 (Central Daylight Time),353027.09999999404,A,g,I,g,307,1,316.30000001192093,352710.7999999821,8048,WL,A,13.0
3,19.72699999809265,learn,40273.00000190735,Thu Jun 05 2025 16:25:22 GMT-0500 (Central Daylight Time),353160.39999997616,A,go,I,o,118,1,449.59999999403954,352710.7999999821,8048,WL,A,13.0
3,19.942999839782715,learn,40057.000160217285,Thu Jun 05 2025 16:25:22 GMT-0500 (Central Daylight Time),353376.89999997616,A,gol,I,l,201,1,666.0999999940395,352710.7999999821,8048,WL,A,13.0
3,20.05999994277954,learn,39940.00005722046,Thu Jun 05 2025 16:25:22 GMT-0500 (Central Daylight Time),353493.59999999404,A,gold,I,d,96,1,782.8000000119209,352710.7999999821,8048,WL,A,13.0
3,20.276000022888184,learn,39723.99997711182,Thu Jun 05 2025 16:25:22 GMT-0500 (Central Daylight Time),353710.1999999881,A,goldenter,I,enter,196,1,999.4000000059605,352710.7999999821,8048,WL,A,13.0
3,20.5939998626709,learn,39406.0001373291,Thu Jun 05 2025 16:25:22 GMT-0500 (Central Daylight Time),354027.6999999881,A,r,I,r,307,1,317.19999998807907,353710.5,8048,WL,A,14.0
3,20.692999839782715,learn,39307.000160217285,Thu Jun 05 2025 16:25:22 GMT-0500 (Central Daylight Time),354126.59999999404,A,ra,I,a,93,1,416.09999999403954,353710.5,8048,WL,A,14.0
3,21.158999919891357,learn,38841.00008010864,Thu Jun 05 2025 16:25:22 GMT-0500 (Central Daylight Time),354593.39999997616,A,rat,I,t,459,1,882.8999999761581,353710.5,8048,WL,A,14.0
3,21.325999975204468,learn,38674.00002479553,Thu Jun 05 2025 16:25:22 GMT-0500 (Central Daylight Time),354759.7999999821,A,ratt,I,t,152,1,1049.2999999821186,353710.5,8048,WL,A,14.0
3,21.493000030517578,learn,38506.99996948242,Thu Jun 05 2025 16:25:22 GMT-0500 (Central Daylight Time),354926.6999999881,A,rattl,I,l,161,1,1216.199999988079,353710.5,8048,WL,A,14.0
3,21.625999927520752,learn,38374.00007247925,Thu Jun 05 2025 16:25:22 GMT-0500 (Central Daylight Time),355060.0,A,rattle,I,e,115,1,1349.5,353710.5,8048,WL,A,14.0
3,21.89299988746643,learn,38107.00011253357,Thu Jun 05 2025 16:25:22 GMT-0500 (Central Daylight Time),355326.39999997616,A,rattleenter,I,enter,246,1,1615.8999999761581,353710.5,8048,WL,A,14.0
3,26.924000024795532,learn,33075.99997520447,Thu Jun 05 2025 16:25:22 GMT-0500 (Central Daylight Time),360358.09999999404,A,h,I,h,5011,1,5031.4000000059605,355326.6999999881,8048,WL,A,15.0
3,27.0239999294281,learn,32976.0000705719,Thu Jun 05 2025 16:25:22 GMT-0500 (Central Daylight Time),360458.1999999881,A,ha,I,a,83,1,5131.5,355326.6999999881,8048,WL,A,15.0
3,27.10800004005432,learn,32891.99995994568,Thu Jun 05 2025 16:25:22 GMT-0500 (Central Daylight Time),360541.59999999404,A,har,I,r,64,1,5214.9000000059605,355326.6999999881,8048,WL,A,15.0
3,27.406999826431274,learn,32593.000173568726,Thu Jun 05 2025 16:25:22 GMT-0500 (Central Daylight Time),360841.39999997616,A,harp,I,p,284,1,5514.699999988079,355326.6999999881,8048,WL,A,15.0
3,27.674000024795532,learn,32325.999975204468,Thu Jun 05 2025 16:25:22 GMT-0500 (Central Daylight Time),361107.7999999821,A,harpenter,I,enter,256,1,5781.0999999940395,355326.6999999881,8048,WL,A,15.0
4,0.7340002059936523,learn,59265.99979400635,Thu Jun 05 2025 16:25:22 GMT-0500 (Central Daylight Time),427403.89999997616,A,b,I,b,716,1,733.0,426670.89999997616,8048,WL,A,1.0
4,0.9170000553131104,learn,59082.99994468689,Thu Jun 05 2025 16:25:22 GMT-0500 (Central Daylight Time),427587.09999999404,A,bo,I,o,173,1,916.2000000178814,426670.89999997616,8048,WL,A,1.0
4,1.0500001907348633,learn,58949.99980926514,Thu Jun 05 2025 16:25:22 GMT-0500 (Central Daylight Time),427720.39999997616,A,boo,I,o,126,1,1049.5,426670.89999997616,8048,WL,A,1.0
4,1.2330000400543213,learn,58766.99995994568,Thu Jun 05 2025 16:25:22 GMT-0500 (Central Daylight Time),427903.59999999404,A,book,I,k,169,1,1232.7000000178814,426670.89999997616,8048,WL,A,1.0
4,1.5500001907348633,learn,58449.99980926514,Thu Jun 05 2025 16:25:22 GMT-0500 (Central Daylight Time),428220.1999999881,A,bookenter,I,enter,298,1,1549.300000011921,426670.89999997616,8048,WL,A,1.0
4,1.8500001430511475,learn,58149.99985694885,Thu Jun 05 2025 16:25:22 GMT-0500 (Central Daylight Time),428520.2999999821,A,f,I,f,285,1,299.7999999821186,428220.5,8048,WL,A,2.0
4,1.9830000400543213,learn,58016.99995994568,Thu Jun 05 2025 16:25:22 GMT-0500 (Central Daylight Time),428653.2999999821,A,fl,I,l,113,1,432.7999999821186,428220.5,8048,WL,A,2.0
4,2.1500000953674316,learn,57849.99990463257,Thu Jun 05 2025 16:25:22 GMT-0500 (Central Daylight Time),428819.7999999821,A,flo,I,o,148,1,599.2999999821186,428220.5,8048,WL,A,2.0
4,2.2160000801086426,learn,57783.99991989136,Thu Jun 05 2025 16:25:22 GMT-0500 (Central Daylight Time),428886.59999999404,A,flow,I,w,53,1,666.0999999940395,428220.5,8048,WL,A,2.0
4,2.317000150680542,learn,57682.99984931946,Thu Jun 05 2025 16:25:22 GMT-0500 (Central Daylight Time),428987.09999999404,A,flowe,I,e,83,1,766.5999999940395,428220.5,8048,WL,A,2.0
4,2.4160001277923584,learn,57583.99987220764,Thu Jun 05 2025 16:25:22 GMT-0500 (Central Daylight Time),429086.5,A,flower,I,r,86,1,866.0,428220.5,8048,WL,A,2.0
4,2.616000175476074,learn,57383.999824523926,Thu Jun 05 2025 16:25:22 GMT-0500 (Central Daylight Time),429286.59999999404,A,flowerenter,I,enter,180,1,1066.0999999940395,428220.5,8048,WL,A,2.0
4,2.8490002155303955,learn,57150.999784469604,Thu Jun 05 2025 16:25:22 GMT-0500 (Central Daylight Time),429519.59999999404,A,t,I,t,227,1,232.59999999403954,429287.0,8048,WL,A,3.0
4,3.0160000324249268,learn,56983.99996757507,Thu Jun 05 2025 16:25:22 GMT-0500 (Central Daylight Time),429686.5,A,tr,I,r,154,1,399.5,429287.0,8048,WL,A,3.0
4,3.0990002155303955,learn,56900.999784469604,Thu Jun 05 2025 16:25:22 GMT-0500 (Central Daylight Time),429769.59999999404,A,tra,I,a,67,1,482.59999999403954,429287.0,8048,WL,A,3.0
4,3.2330000400543213,learn,56766.99995994568,Thu Jun 05 2025 16:25:22 GMT-0500 (Central Daylight Time),429902.89999997616,A,trai,I,i,120,1,615.8999999761581,429287.0,8048,WL,A,3.0
4,3.3320000171661377,learn,56667.99998283386,Thu Jun 05 2025 16:25:22 GMT-0500 (Central Daylight Time),430002.7999999821,A,train,I,n,91,1,715.7999999821186,429287.0,8048,WL,A,3.0
4,3.699000120162964,learn,56300.999879837036,Thu Jun 05 2025 16:25:22 GMT-0500 (Central Daylight Time),430369.39999997616,A,trainenter,I,enter,359,1,1082.3999999761581,429287.0,8048,WL,A,3.0
4,4.0990002155303955,learn,55900.999784469604,Thu Jun 05 2025 16:25:22 GMT-0500 (Central Daylight Time),430769.39999997616,A,m,I,m,392,1,399.59999999403954,430369.7999999821,8048,WL,A,4.0
4,4.232000112533569,learn,55767.99988746643,Thu Jun 05 2025 16:25:22 GMT-0500 (Central Daylight Time),430902.59999999404,A,me,I,e,112,1,532.8000000119209,430369.7999999821,8048,WL,A,4.0
4,4.39900016784668,learn,55600.99983215332,Thu Jun 05 2025 16:25:22 GMT-0500 (Central Daylight Time),431069.39999997616,A,mea,I,a,147,1,699.5999999940395,430369.7999999821,8048,WL,A,4.0
4,4.632000207901001,learn,55367.999792099,Thu Jun 05 2025 16:25:22 GMT-0500 (Central Daylight Time),431302.7999999821,A,mead,I,d,220,1,933.0,430369.7999999821,8048,WL,A,4.0
4,5.0320000648498535,learn,54967.99993515015,Thu Jun 05 2025 16:25:22 GMT-0500 (Central Daylight Time),431702.39999997616,A,meado,I,o,387,1,1332.5999999940395,430369.7999999821,8048,WL,A,4.0
4,5.182000160217285,learn,54817.999839782715,Thu Jun 05 2025 16:25:22 GMT-0500 (Central Daylight Time),431852.5,A,meadow,I,w,139,1,1482.7000000178814,430369.7999999821,8048,WL,A,4.0
4,5.365000009536743,learn,54634.99999046326,Thu Jun 05 2025 16:25:22 GMT-0500 (Central Daylight Time),432035.6999999881,A,meadowenter,I,enter,173,1,1665.9000000059605,430369.7999999821,8048,WL,A,4.0
4,5.9150002002716064,learn,54084.99979972839,Thu Jun 05 2025 16:25:22 GMT-0500 (Central Daylight Time),432585.39999997616,A,r,I,r,542,1,549.5,432035.89999997616,8048,WL,A,5.0
4,6.04800009727478,learn,53951.99990272522,Thu Jun 05 2025 16:25:22 GMT-0500 (Central Daylight Time),432718.6999999881,A,ru,I,u,113,1,682.8000000119209,432035.89999997616,8048,WL,A,5.0
4,6.2820000648498535,learn,53717.99993515015,Thu Jun 05 2025 16:25:22 GMT-0500 (Central Daylight Time),432952.09999999404,A,run,I,n,227,1,916.2000000178814,432035.89999997616,8048,WL,A,5.0
4,6.448000192642212,learn,53551.99980735779,Thu Jun 05 2025 16:25:22 GMT-0500 (Central Daylight Time),433118.59999999404,A,rung,I,g,153,1,1082.7000000178814,432035.89999997616,8048,WL,A,5.0
4,7.04800009727478,learn,52951.99990272522,Thu Jun 05 2025 16:25:22 GMT-0500 (Central Daylight Time),433718.5,A,run,I,backspace,587,1,1682.6000000238419,432035.89999997616,8048,WL,A,5.0
4,7.248000144958496,learn,52751.999855041504,Thu Jun 05 2025 16:25:22 GMT-0500 (Central Daylight Time),433918.5,A,ru,I,backspace,195,1,1882.6000000238419,432035.89999997616,8048,WL,A,5.0
4,7.565000057220459,learn,52434.99994277954,Thu Jun 05 2025 16:25:22 GMT-0500 (Central Daylight Time),434235.0,A,rug,I,g,299,1,2199.100000023842,432035.89999997616,8048,WL,A,5.0
4,8.364000082015991,learn,51635.99991798401,Thu Jun 05 2025 16:25:22 GMT-0500 (Central Daylight Time),435034.7999999821,A,rugenter,I,enter,792,1,2998.9000000059605,432035.89999997616,8048,WL,A,5.0
4,9.824000120162964,learn,50175.999879837036,Thu Jun 05 2025 16:25:22 GMT-0500 (Central Daylight Time),436494.5,A,a,I,a,1454,1,1459.300000011921,435035.1999999881,8048,WL,A,6.0
4,9.981000185012817,learn,50018.99981498718,Thu Jun 05 2025 16:25:22 GMT-0500 (Central Daylight Time),436651.0,A,ap,I,p,139,1,1615.800000011921,435035.1999999881,8048,WL,A,6.0
4,10.114000082015991,learn,49885.99991798401,Thu Jun 05 2025 16:25:22 GMT-0500 (Central Daylight Time),436784.2999999821,A,app,I,p,127,1,1749.0999999940395,435035.1999999881,8048,WL,A,6.0
4,10.314000129699707,learn,49685.99987030029,Thu Jun 05 2025 16:25:22 GMT-0500 (Central Daylight Time),436984.2999999821,A,appl,I,l,185,1,1949.0999999940395,435035.1999999881,8048,WL,A,6.0
4,10.414000034332275,learn,49585.999965667725,Thu Jun 05 2025 16:25:22 GMT-0500 (Central Daylight Time),437084.0,A,apple,I,e,81,1,2048.800000011921,435035.1999999881,8048,WL,A,6.0
4,10.630000114440918,learn,49369.99988555908,Thu Jun 05 2025 16:25:22 GMT-0500 (Central Daylight Time),437300.59999999404,A,appleenter,I,enter,205,1,2265.4000000059605,435035.1999999881,8048,WL,A,6.0
4,10.930000066757202,learn,49069.9999332428,Thu Jun 05 2025 16:25:22 GMT-0500 (Central Daylight Time),437600.6999999881,A,s,I,s,293,1,299.80000001192093,437300.89999997616,8048,WL,A,7.0
4,11.147000074386597,learn,48852.9999256134,Thu Jun 05 2025 16:25:22 GMT-0500 (Central Daylight Time),437817.1999999881,A,sa,I,a,201,1,516.3000000119209,437300.89999997616,8048,WL,A,7.0
4,11.297000169754028,learn,48702.99983024597,Thu Jun 05 2025 16:25:22 GMT-0500 (Central Daylight Time),437967.39999997616,A,sal,I,l,136,1,666.5,437300.89999997616,8048,WL,A,7.0
4,11.53000020980835,learn,48469.99979019165,Thu Jun 05 2025 16:25:22 GMT-0500 (Central Daylight Time),438200.39999997616,A,salt,I,t,219,1,899.5,437300.89999997616,8048,WL,A,7.0
4,12.047000169754028,learn,47952.99983024597,Thu Jun 05 2025 16:25:22 GMT-0500 (Central Daylight Time),438716.7999999821,A,saltenter,I,enter,497,1,1415.9000000059605,437300.89999997616,8048,WL,A,7.0
4,12.796000003814697,learn,47203.9999961853,Thu Jun 05 2025 16:25:22 GMT-0500 (Central Daylight Time),439466.7999999821,A,g,I,g,733,1,749.6999999880791,438717.09999999404,8048,WL,A,8.0
4,12.896000146865845,learn,47103.999853134155,Thu Jun 05 2025 16:25:22 GMT-0500 (Central Daylight Time),439566.6999999881,A,go,I,o,80,1,849.5999999940395,438717.09999999404,8048,WL,A,8.0
4,13.129000186920166,learn,46870.999813079834,Thu Jun 05 2025 16:25:22 GMT-0500 (Central Daylight Time),439799.6999999881,A,gol,I,l,227,1,1082.5999999940395,438717.09999999404,8048,WL,A,8.0
4,13.36300015449524,learn,46636.99984550476,Thu Jun 05 2025 16:25:22 GMT-0500 (Central Daylight Time),440033.2999999821,A,gold,I,d,226,1,1316.199999988079,438717.09999999404,8048,WL,A,8.0
4,13.563000202178955,learn,46436.999797821045,Thu Jun 05 2025 16:25:22 GMT-0500 (Central Daylight Time),440233.09999999404,A,goldenter,I,enter,184,1,1516.0,438717.09999999404,8048,WL,A,8.0
4,13.828999996185303,learn,46171.0000038147,Thu Jun 05 2025 16:25:22 GMT-0500 (Central Daylight Time),440499.59999999404,A,k,I,k,256,1,266.2000000178814,440233.39999997616,8048,WL,A,9.0
4,13.946000099182129,learn,46053.99990081787,Thu Jun 05 2025 16:25:22 GMT-0500 (Central Daylight Time),440616.5,A,ke,I,e,110,1,383.10000002384186,440233.39999997616,8048,WL,A,9.0
4,14.163000106811523,learn,45836.99989318848,Thu Jun 05 2025 16:25:22 GMT-0500 (Central Daylight Time),440832.89999997616,A,key,I,y,209,1,599.5,440233.39999997616,8048,WL,A,9.0
4,14.529000043869019,learn,45470.99995613098,Thu Jun 05 2025 16:25:22 GMT-0500 (Central Daylight Time),441199.39999997616,A,keyenter,I,enter,353,1,966.0,440233.39999997616,8048,WL,A,9.0
4,14.861999988555908,learn,45138.00001144409,Thu Jun 05 2025 16:25:22 GMT-0500 (Central Daylight Time),441532.7999999821,A,l,I,l,315,1,333.09999999403954,441199.6999999881,8048,WL,A,10.0
4,15.03000020980835,learn,44969.99979019165,Thu Jun 05 2025 16:25:22 GMT-0500 (Central Daylight Time),441700.0,A,lo,I,o,157,1,500.30000001192093,441199.6999999881,8048,WL,A,10.0
4,15.129000186920166,learn,44870.999813079834,Thu Jun 05 2025 16:25:22 GMT-0500 (Central Daylight Time),441799.09999999404,A,log,I,g,94,1,599.4000000059605,441199.6999999881,8048,WL,A,10.0
4,15.361999988555908,learn,44638.00001144409,Thu Jun 05 2025 16:25:22 GMT-0500 (Central Daylight Time),442032.39999997616,A,logenter,I,enter,227,1,832.6999999880791,441199.6999999881,8048,WL,A,10.0
4,15.713000059127808,learn,44286.99994087219,Thu Jun 05 2025 16:25:22 GMT-0500 (Central Daylight Time),442383.09999999404,A,c,I,c,330,1,350.40000000596046,442032.6999999881,8048,WL,A,11.0
4,15.795000076293945,learn,44204.999923706055,Thu Jun 05 2025 16:25:22 GMT-0500 (Central Daylight Time),442465.59999999404,A,ch,I,h,67,1,432.90000000596046,442032.6999999881,8048,WL,A,11.0
4,16.01200008392334,learn,43987.99991607666,Thu Jun 05 2025 16:25:22 GMT-0500 (Central Daylight Time),442682.5,A,chi,I,i,200,1,649.8000000119209,442032.6999999881,8048,WL,A,11.0
4,16.180000066757202,learn,43819.9999332428,Thu Jun 05 2025 16:25:22 GMT-0500 (Central Daylight Time),442849.89999997616,A,chim,I,m,160,1,817.1999999880791,442032.6999999881,8048,WL,A,11.0
4,17.045000076293945,learn,42954.999923706055,Thu Jun 05 2025 16:25:22 GMT-0500 (Central Daylight Time),443715.1999999881,A,chimn,I,n,848,1,1682.5,442032.6999999881,8048,WL,A,11.0
4,17.295000076293945,learn,42704.999923706055,Thu Jun 05 2025 16:25:22 GMT-0500 (Central Daylight Time),443965.1999999881,A,chimne,I,e,230,1,1932.5,442032.6999999881,8048,WL,A,11.0
4,17.445000171661377,learn,42554.99982833862,Thu Jun 05 2025 16:25:22 GMT-0500 (Central Daylight Time),444115.0,A,chimney,I,y,141,1,2082.300000011921,442032.6999999881,8048,WL,A,11.0
4,18.194000005722046,learn,41805.999994277954,Thu Jun 05 2025 16:25:22 GMT-0500 (Central Daylight Time),444864.6999999881,A,chimneyenter,I,enter,735,1,2832.0,442032.6999999881,8048,WL,A,11.0
4,20.094000101089478,learn,39905.99989891052,Thu Jun 05 2025 16:25:22 GMT-0500 (Central Daylight Time),446764.6999999881,A,f,I,f,1881,1,1899.800000011921,444864.89999997616,8048,WL,A,12.0
4,20.14400005340576,learn,39855.99994659424,Thu Jun 05 2025 16:25:22 GMT-0500 (Central Daylight Time),446814.1999999881,A,fi,I,i,29,1,1949.300000011921,444864.89999997616,8048,WL,A,12.0
4,20.22699999809265,learn,39773.00000190735,Thu Jun 05 2025 16:25:22 GMT-0500 (Central Daylight Time),446897.59999999404,A,fin,I,n,75,1,2032.7000000178814,444864.89999997616,8048,WL,A,12.0
4,20.344000101089478,learn,39655.99989891052,Thu Jun 05 2025 16:25:22 GMT-0500 (Central Daylight Time),447014.5,A,fing,I,g,112,1,2149.600000023842,444864.89999997616,8048,WL,A,12.0
4,20.527000188827515,learn,39472.999811172485,Thu Jun 05 2025 16:25:22 GMT-0500 (Central Daylight Time),447197.39999997616,A,finge,I,e,171,1,2332.5,444864.89999997616,8048,WL,A,12.0
4,20.5770001411438,learn,39422.9998588562,Thu Jun 05 2025 16:25:22 GMT-0500 (Central Daylight Time),447247.6999999881,A,finger,I,r,36,1,2382.800000011921,444864.89999997616,8048,WL,A,12.0
4,20.844000101089478,learn,39155.99989891052,Thu Jun 05 2025 16:25:22 GMT-0500 (Central Daylight Time),447514.1999999881,A,fingerenter,I,enter,258,1,2649.300000011921,444864.89999997616,8048,WL,A,12.0
4,21.110000133514404,learn,38889.999866485596,Thu Jun 05 2025 16:25:22 GMT-0500 (Central Daylight Time),447780.6999999881,A,h,I,h,247,1,266.09999999403954,447514.59999999404,8048,WL,A,13.0
4,21.194000005722046,learn,38805.999994277954,Thu Jun 05 2025 16:25:22 GMT-0500 (Central Daylight Time),447864.1999999881,A,ha,I,a,69,1,349.59999999403954,447514.59999999404,8048,WL,A,13.0
4,21.294000148773193,learn,38705.99985122681,Thu Jun 05 2025 16:25:22 GMT-0500 (Central Daylight Time),447964.0,A,har,I,r,81,1,449.40000000596046,447514.59999999404,8048,WL,A,13.0
4,21.56000018119812,learn,38439.99981880188,Thu Jun 05 2025 16:25:22 GMT-0500 (Central Daylight Time),448230.59999999404,A,harp,I,p,245,1,716.0,447514.59999999404,8048,WL,A,13.0
4,23.110000133514404,learn,36889.999866485596,Thu Jun 05 2025 16:25:22 GMT-0500 (Central Daylight Time),449780.2999999821,A,harpenter,I,enter,1531,1,2265.699999988079,447514.59999999404,8048,WL,A,13.0
4,26.02500009536743,learn,33974.99990463257,Thu Jun 05 2025 16:25:22 GMT-0500 (Central Daylight Time),452695.7999999821,A,b,I,b,2901,1,2915.199999988079,449780.59999999404,8048,WL,A,14.0
4,26.242000102996826,learn,33757.999897003174,Thu Jun 05 2025 16:25:22 GMT-0500 (Central Daylight Time),452912.2999999821,A,bu,I,u,210,1,3131.699999988079,449780.59999999404,8048,WL,A,14.0
4,26.359000205993652,learn,33640.99979400635,Thu Jun 05 2025 16:25:22 GMT-0500 (Central Daylight Time),453029.1999999881,A,but,I,t,97,1,3248.5999999940395,449780.59999999404,8048,WL,A,14.0
4,26.492000102996826,learn,33507.999897003174,Thu Jun 05 2025 16:25:22 GMT-0500 (Central Daylight Time),453162.2999999821,A,butt,I,t,124,1,3381.699999988079,449780.59999999404,8048,WL,A,14.0
4,26.576000213623047,learn,33423.99978637695,Thu Jun 05 2025 16:25:22 GMT-0500 (Central Daylight Time),453246.0,A,butto,I,o,71,1,3465.4000000059605,449780.59999999404,8048,WL,A,14.0
4,26.642000198364258,learn,33357.99980163574,Thu Jun 05 2025 16:25:22 GMT-0500 (Central Daylight Time),453312.5,A,button,I,n,52,1,3531.9000000059605,449780.59999999404,8048,WL,A,14.0
4,26.942000150680542,learn,33057.99984931946,Thu Jun 05 2025 16:25:22 GMT-0500 (Central Daylight Time),453612.39999997616,A,buttonenter,I,enter,281,1,3831.7999999821186,449780.59999999404,8048,WL,A,14.0
4,29.758000135421753,learn,30241.999864578247,Thu Jun 05 2025 16:25:22 GMT-0500 (Central Daylight Time),456427.89999997616,A,c,I,c,2805,1,2815.0999999940395,453612.7999999821,8048,WL,A,15.0
4,30.257000207901,learn,29742.999792099,Thu Jun 05 2025 16:25:22 GMT-0500 (Central Daylight Time),456927.6999999881,A,,I,backspace,487,1,3314.9000000059605,453612.7999999821,8048,WL,A,15.0
4,32.307000160217285,learn,27692.999839782715,Thu Jun 05 2025 16:25:22 GMT-0500 (Central Daylight Time),458977.1999999881,A,r,I,r,2034,1,5364.4000000059605,453612.7999999821,8048,WL,A,15.0
4,32.42400002479553,learn,27575.999975204468,Thu Jun 05 2025 16:25:22 GMT-0500 (Central Daylight Time),459093.7999999821,A,ra,I,a,104,1,5481.0,453612.7999999821,8048,WL,A,15.0
4,32.557000160217285,learn,27442.999839782715,Thu Jun 05 2025 16:25:22 GMT-0500 (Central Daylight Time),459227.09999999404,A,rat,I,t,116,1,5614.300000011921,453612.7999999821,8048,WL,A,15.0
4,32.724000215530396,learn,27275.999784469604,Thu Jun 05 2025 16:25:22 GMT-0500 (Central Daylight Time),459393.89999997616,A,ratt,I,t,159,1,5781.0999999940395,453612.7999999821,8048,WL,A,15.0
4,32.95700001716614,learn,27042.999982833862,Thu Jun 05 2025 16:25:22 GMT-0500 (Central Daylight Time),459627.0,A,rattl,I,l,224,1,6014.200000017881,453612.7999999821,8048,WL,A,15.0
4,33.055999994277954,learn,26944.000005722046,Thu Jun 05 2025 16:25:22 GMT-0500 (Central Daylight Time),459726.6999999881,A,rattle,I,e,87,1,6113.9000000059605,453612.7999999821,8048,WL,A,15.0
4,33.271000146865845,learn,26728.999853134155,Thu Jun 05 2025 16:25:22 GMT-0500 (Central Daylight Time),459940.89999997616,A,rattleenter,I,enter,210,1,6328.0999999940395,453612.7999999821,8048,WL,A,15.0
5,0.7999999523162842,learn,60000.0,Thu Jun 05 2025 16:25:22 GMT-0500 (Central Daylight Time),525689.8999999762,A,b,I,b,784,1,799.7999999821186,524890.099999994,8048,WL,A,1.0
5,0.9839999675750732,learn,60000.0,Thu Jun 05 2025 16:25:22 GMT-0500 (Central Daylight Time),525873.0,A,bo,I,o,167,1,982.9000000059605,524890.099999994,8048,WL,A,1.0
5,1.1170001029968262,learn,60000.0,Thu Jun 05 2025 16:25:22 GMT-0500 (Central Daylight Time),526006.1999999881,A,boo,I,o,121,1,1116.0999999940395,524890.099999994,8048,WL,A,1.0
5,1.2669999599456787,learn,60000.0,Thu Jun 05 2025 16:25:22 GMT-0500 (Central Daylight Time),526156.2999999821,A,book,I,k,139,1,1266.199999988079,524890.099999994,8048,WL,A,1.0
5,1.5499999523162842,learn,60000.0,Thu Jun 05 2025 16:25:22 GMT-0500 (Central Daylight Time),526439.099999994,A,bookenter,I,enter,277,1,1549.0,524890.099999994,8048,WL,A,1.0
5,1.8670001029968262,learn,60000.0,Thu Jun 05 2025 16:25:22 GMT-0500 (Central Daylight Time),526755.8999999762,A,f,I,f,298,1,316.59999999403954,526439.2999999821,8048,WL,A,2.0
5,1.9500000476837158,learn,60000.0,Thu Jun 05 2025 16:25:22 GMT-0500 (Central Daylight Time),526839.2999999821,A,fl,I,l,69,1,400.0,526439.2999999821,8048,WL,A,2.0
5,2.117000102996826,learn,60000.0,Thu Jun 05 2025 16:25:22 GMT-0500 (Central Daylight Time),527006.0,A,flo,I,o,154,1,566.7000000178814,526439.2999999821,8048,WL,A,2.0
5,2.200000047683716,learn,60000.0,Thu Jun 05 2025 16:25:22 GMT-0500 (Central Daylight Time),527089.2999999821,A,flow,I,w,68,1,650.0,526439.2999999821,8048,WL,A,2.0
5,2.2829999923706055,learn,60000.0,Thu Jun 05 2025 16:25:22 GMT-0500 (Central Daylight Time),527172.3999999762,A,flowe,I,e,72,1,733.0999999940395,526439.2999999821,8048,WL,A,2.0
5,2.4000000953674316,learn,60000.0,Thu Jun 05 2025 16:25:22 GMT-0500 (Central Daylight Time),527289.1999999881,A,flower,I,r,101,1,849.9000000059605,526439.2999999821,8048,WL,A,2.0
5,2.5999999046325684,learn,60000.0,Thu Jun 05 2025 16:25:22 GMT-0500 (Central Daylight Time),527489.099999994,A,flowerenter,I,enter,192,1,1049.800000011921,526439.2999999821,8048,WL,A,2.0
5,2.950000047683716,learn,60000.0,Thu Jun 05 2025 16:25:22 GMT-0500 (Central Daylight Time),527838.8999999762,A,t,I,t,328,1,349.39999997615814,527489.5,8048,WL,A,3.0
5,3.115999937057495,learn,60000.0,Thu Jun 05 2025 16:25:22 GMT-0500 (Central Daylight Time),528005.5,A,tr,I,r,154,1,516.0,527489.5,8048,WL,A,3.0
5,3.183000087738037,learn,60000.0,Thu Jun 05 2025 16:25:22 GMT-0500 (Central Daylight Time),528072.599999994,A,tra,I,a,60,1,583.0999999940395,527489.5,8048,WL,A,3.0
5,3.2990000247955322,learn,60000.0,Thu Jun 05 2025 16:25:22 GMT-0500 (Central Daylight Time),528188.6999999881,A,trai,I,i,105,1,699.1999999880791,527489.5,8048,WL,A,3.0
5,3.433000087738037,learn,60000.0,Thu Jun 05 2025 16:25:22 GMT-0500 (Central Daylight Time),528322.0,A,train,I,n,117,1,832.5,527489.5,8048,WL,A,3.0
5,4.065999984741211,learn,60000.0,Thu Jun 05 2025 16:25:22 GMT-0500 (Central Daylight Time),528955.2999999821,A,trainenter,I,enter,624,1,1465.7999999821186,527489.5,8048,WL,A,3.0
5,4.348999977111816,learn,60000.0,Thu Jun 05 2025 16:25:22 GMT-0500 (Central Daylight Time),529238.3999999762,A,r,I,r,270,1,282.7999999821186,528955.599999994,8048,WL,A,4.0
5,4.499000072479248,learn,60000.0,Thu Jun 05 2025 16:25:22 GMT-0500 (Central Daylight Time),529388.7999999821,A,ru,I,u,131,1,433.19999998807907,528955.599999994,8048,WL,A,4.0
5,4.648999929428101,learn,60000.0,Thu Jun 05 2025 16:25:22 GMT-0500 (Central Daylight Time),529538.599999994,A,rug,I,g,141,1,583.0,528955.599999994,8048,WL,A,4.0
5,4.881999969482422,learn,60000.0,Thu Jun 05 2025 16:25:22 GMT-0500 (Central Daylight Time),529771.6999999881,A,rugenter,I,enter,215,1,816.0999999940395,528955.599999994,8048,WL,A,4.0
5,5.696000099182129,learn,60000.0,Thu Jun 05 2025 16:25:22 GMT-0500 (Central Daylight Time),530585.7999999821,A,m,I,m,809,1,813.7999999821186,529772.0,8048,WL,A,5.0
5,5.8429999351501465,learn,60000.0,Thu Jun 05 2025 16:25:22 GMT-0500 (Central Daylight Time),530732.6999999881,A,me,I,e,143,1,960.6999999880791,529772.0,8048,WL,A,5.0
5,6.0320000648498535,learn,60000.0,Thu Jun 05 2025 16:25:22 GMT-0500 (Central Daylight Time),530921.2999999821,A,mea,I,a,172,1,1149.2999999821186,529772.0,8048,WL,A,5.0
5,6.2820000648498535,learn,60000.0,Thu Jun 05 2025 16:25:22 GMT-0500 (Central Daylight Time),531171.099999994,A,mead,I,d,232,1,1399.0999999940395,529772.0,8048,WL,A,5.0
5,6.398000001907349,learn,60000.0,Thu Jun 05 2025 16:25:22 GMT-0500 (Central Daylight Time),531287.7999999821,A,meado,I,o,110,1,1515.7999999821186,529772.0,8048,WL,A,5.0
5,6.582000017166138,learn,60000.0,Thu Jun 05 2025 16:25:22 GMT-0500 (Central Daylight Time),531470.8999999762,A,meadow,I,w,177,1,1698.8999999761581,529772.0,8048,WL,A,5.0
5,7.315000057220459,learn,60000.0,Thu Jun 05 2025 16:25:22 GMT-0500 (Central Daylight Time),532204.1999999881,A,meadowenter,I,enter,715,1,2432.199999988079,529772.0,8048,WL,A,5.0
5,12.86299991607666,learn,60000.0,Thu Jun 05 2025 16:25:22 GMT-0500 (Central Daylight Time),537752.599999994,A,h,I,h,5533,1,5548.0999999940395,532204.5,8048,WL,A,6.0
5,12.979000091552734,learn,60000.0,Thu Jun 05 2025 16:25:22 GMT-0500 (Central Daylight Time),537869.0,A,ha,I,a,96,1,5664.5,532204.5,8048,WL,A,6.0
5,13.062999963760376,learn,60000.0,Thu Jun 05 2025 16:25:22 GMT-0500 (Central Daylight Time),537952.3999999762,A,har,I,r,76,1,5747.899999976158,532204.5,8048,WL,A,6.0
5,13.229000091552734,learn,60000.0,Thu Jun 05 2025 16:25:22 GMT-0500 (Central Daylight Time),538118.8999999762,A,harp,I,p,161,1,5914.399999976158,532204.5,8048,WL,A,6.0
5,13.628999948501587,learn,60000.0,Thu Jun 05 2025 16:25:22 GMT-0500 (Central Daylight Time),538518.8999999762,A,harpenter,I,enter,387,1,6314.399999976158,532204.5,8048,WL,A,6.0
5,13.928999900817871,learn,60000.0,Thu Jun 05 2025 16:25:22 GMT-0500 (Central Daylight Time),538818.7999999821,A,f,I,f,283,1,299.59999999403954,538519.1999999881,8048,WL,A,7.0
5,13.996000051498413,learn,60000.0,Thu Jun 05 2025 16:25:22 GMT-0500 (Central Daylight Time),538885.5,A,fi,I,i,47,1,366.30000001192093,538519.1999999881,8048,WL,A,7.0
5,14.078999996185303,learn,60000.0,Thu Jun 05 2025 16:25:22 GMT-0500 (Central Daylight Time),538968.7999999821,A,fin,I,n,76,1,449.59999999403954,538519.1999999881,8048,WL,A,7.0
5,14.229000091552734,learn,60000.0,Thu Jun 05 2025 16:25:22 GMT-0500 (Central Daylight Time),539118.8999999762,A,fing,I,g,136,1,599.6999999880791,538519.1999999881,8048,WL,A,7.0
5,14.51200008392334,learn,60000.0,Thu Jun 05 2025 16:25:22 GMT-0500 (Central Daylight Time),539402.0,A,finge,I,e,267,1,882.8000000119209,538519.1999999881,8048,WL,A,7.0
5,14.661999940872192,learn,60000.0,Thu Jun 05 2025 16:25:22 GMT-0500 (Central Daylight Time),539552.0,A,finger,I,r,136,1,1032.800000011921,538519.1999999881,8048,WL,A,7.0
5,15.078999996185303,learn,60000.0,Thu Jun 05 2025 16:25:22 GMT-0500 (Central Daylight Time),539968.599999994,A,fingerenter,I,enter,410,1,1449.4000000059605,538519.1999999881,8048,WL,A,7.0
5,15.778000116348267,learn,60000.0,Thu Jun 05 2025 16:25:22 GMT-0500 (Central Daylight Time),540668.1999999881,A,s,I,s,681,1,699.3000000119209,539968.8999999762,8048,WL,A,8.0
5,15.911999940872192,learn,60000.0,Thu Jun 05 2025 16:25:22 GMT-0500 (Central Daylight Time),540801.599999994,A,sa,I,a,125,1,832.7000000178814,539968.8999999762,8048,WL,A,8.0
5,16.09500002861023,learn,60000.0,Thu Jun 05 2025 16:25:22 GMT-0500 (Central Daylight Time),540984.6999999881,A,sal,I,l,176,1,1015.8000000119209,539968.8999999762,8048,WL,A,8.0
5,16.244999885559082,learn,60000.0,Thu Jun 05 2025 16:25:22 GMT-0500 (Central Daylight Time),541134.599999994,A,salt,I,t,145,1,1165.7000000178814,539968.8999999762,8048,WL,A,8.0
5,16.42799997329712,learn,60000.0,Thu Jun 05 2025 16:25:22 GMT-0500 (Central Daylight Time),541318.099999994,A,saltenter,I,enter,163,1,1349.2000000178814,539968.8999999762,8048,WL,A,8.0
5,16.812000036239624,learn,60000.0,Thu Jun 05 2025 16:25:22 GMT-0500 (Central Daylight Time),541701.3999999762,A,a,I,a,373,1,383.0,541318.3999999762,8048,WL,A,9.0
5,16.994999885559082,learn,60000.0,Thu Jun 05 2025 16:25:22 GMT-0500 (Central Daylight Time),541884.599999994,A,ap,I,p,164,1,566.2000000178814,541318.3999999762,8048,WL,A,9.0
5,17.128000020980835,learn,60000.0,Thu Jun 05 2025 16:25:22 GMT-0500 (Central Daylight Time),542017.7999999821,A,app,I,p,117,1,699.4000000059605,541318.3999999762,8048,WL,A,9.0
5,17.34500002861023,learn,60000.0,Thu Jun 05 2025 16:25:22 GMT-0500 (Central Daylight Time),542234.3999999762,A,appl,I,l,200,1,916.0,541318.3999999762,8048,WL,A,9.0
5,17.444999933242798,learn,60000.0,Thu Jun 05 2025 16:25:22 GMT-0500 (Central Daylight Time),542334.599999994,A,apple,I,e,79,1,1016.2000000178814,541318.3999999762,8048,WL,A,9.0
5,17.66100001335144,learn,60000.0,Thu Jun 05 2025 16:25:22 GMT-0500 (Central Daylight Time),542551.0,A,appleenter,I,enter,211,1,1232.6000000238419,541318.3999999762,8048,WL,A,9.0
5,17.977999925613403,learn,60000.0,Thu Jun 05 2025 16:25:22 GMT-0500 (Central Daylight Time),542867.7999999821,A,b,I,b,308,1,316.59999999403954,542551.1999999881,8048,WL,A,10.0
5,18.210999965667725,learn,60000.0,Thu Jun 05 2025 16:25:22 GMT-0500 (Central Daylight Time),543100.8999999762,A,bu,I,u,214,1,549.6999999880791,542551.1999999881,8048,WL,A,10.0
5,18.278000116348267,learn,60000.0,Thu Jun 05 2025 16:25:22 GMT-0500 (Central Daylight Time),543167.2999999821,A,but,I,t,61,1,616.0999999940395,542551.1999999881,8048,WL,A,10.0
5,18.460999965667725,learn,60000.0,Thu Jun 05 2025 16:25:22 GMT-0500 (Central Daylight Time),543350.5,A,butt,I,t,170,1,799.3000000119209,542551.1999999881,8048,WL,A,10.0
5,18.64400005340576,learn,60000.0,Thu Jun 05 2025 16:25:22 GMT-0500 (Central Daylight Time),543534.0,A,butto,I,o,163,1,982.8000000119209,542551.1999999881,8048,WL,A,10.0
5,18.694000005722046,learn,60000.0,Thu Jun 05 2025 16:25:22 GMT-0500 (Central Daylight Time),543583.8999999762,A,button,I,n,43,1,1032.699999988079,542551.1999999881,8048,WL,A,10.0
5,19.42799997329712,learn,60000.0,Thu Jun 05 2025 16:25:22 GMT-0500 (Central Daylight Time),544317.2999999821,A,buttonenter,I,enter,714,1,1766.0999999940395,542551.1999999881,8048,WL,A,10.0
5,20.26099991798401,learn,60000.0,Thu Jun 05 2025 16:25:22 GMT-0500 (Central Daylight Time),545150.2999999821,A,k,I,k,812,1,832.6999999880791,544317.599999994,8048,WL,A,11.0
5,20.361000061035156,learn,60000.0,Thu Jun 05 2025 16:25:22 GMT-0500 (Central Daylight Time),545250.1999999881,A,ke,I,e,91,1,932.5999999940395,544317.599999994,8048,WL,A,11.0
5,20.543999910354614,learn,60000.0,Thu Jun 05 2025 16:25:22 GMT-0500 (Central Daylight Time),545433.5,A,key,I,y,168,1,1115.9000000059605,544317.599999994,8048,WL,A,11.0
5,20.89400005340576,learn,60000.0,Thu Jun 05 2025 16:25:22 GMT-0500 (Central Daylight Time),545783.3999999762,A,keyenter,I,enter,336,1,1465.7999999821186,544317.599999994,8048,WL,A,11.0
5,21.14299988746643,learn,60000.0,Thu Jun 05 2025 16:25:22 GMT-0500 (Central Daylight Time),546033.1999999881,A,g,I,g,234,1,249.40000000596046,545783.7999999821,8048,WL,A,12.0
5,21.30999994277954,learn,60000.0,Thu Jun 05 2025 16:25:22 GMT-0500 (Central Daylight Time),546199.7999999821,A,go,I,o,160,1,416.0,545783.7999999821,8048,WL,A,12.0
5,21.526999950408936,learn,60000.0,Thu Jun 05 2025 16:25:22 GMT-0500 (Central Daylight Time),546416.599999994,A,gol,I,l,209,1,632.8000000119209,545783.7999999821,8048,WL,A,12.0
5,21.677000045776367,learn,60000.0,Thu Jun 05 2025 16:25:22 GMT-0500 (Central Daylight Time),546566.6999999881,A,gold,I,d,145,1,782.9000000059605,545783.7999999821,8048,WL,A,12.0
5,21.97699999809265,learn,60000.0,Thu Jun 05 2025 16:25:22 GMT-0500 (Central Daylight Time),546866.2999999821,A,goldenter,I,enter,291,1,1082.5,545783.7999999821,8048,WL,A,12.0
5,22.227999925613403,learn,60000.0,Thu Jun 05 2025 16:25:22 GMT-0500 (Central Daylight Time),547117.5,A,r,I,r,231,1,250.90000000596046,546866.599999994,8048,WL,A,13.0
5,22.30999994277954,learn,60000.0,Thu Jun 05 2025 16:25:22 GMT-0500 (Central Daylight Time),547199.599999994,A,ra,I,a,68,1,333.0,546866.599999994,8048,WL,A,13.0
5,22.51099991798401,learn,60000.0,Thu Jun 05 2025 16:25:22 GMT-0500 (Central Daylight Time),547400.6999999881,A,rat,I,t,194,1,534.0999999940395,546866.599999994,8048,WL,A,13.0
5,22.693000078201294,learn,60000.0,Thu Jun 05 2025 16:25:22 GMT-0500 (Central Daylight Time),547582.8999999762,A,ratt,I,t,161,1,716.2999999821186,546866.599999994,8048,WL,A,13.0
5,22.89299988746643,learn,60000.0,Thu Jun 05 2025 16:25:22 GMT-0500 (Central Daylight Time),547782.6999999881,A,rattl,I,l,187,1,916.0999999940395,546866.599999994,8048,WL,A,13.0
5,23.009999990463257,learn,60000.0,Thu Jun 05 2025 16:25:22 GMT-0500 (Central Daylight Time),547899.3999999762,A,rattle,I,e,99,1,1032.7999999821186,546866.599999994,8048,WL,A,13.0
5,23.759000062942505,learn,60000.0,Thu Jun 05 2025 16:25:22 GMT-0500 (Central Daylight Time),548649.099999994,A,rattleenter,I,enter,742,1,1782.5,546866.599999994,8048,WL,A,13.0
5,24.026000022888184,learn,60000.0,Thu Jun 05 2025 16:25:22 GMT-0500 (Central Daylight Time),548915.5,A,l,I,l,249,1,266.0,548649.5,8048,WL,A,14.0
5,24.193000078201294,learn,60000.0,Thu Jun 05 2025 16:25:22 GMT-0500 (Central Daylight Time),549082.3999999762,A,lo,I,o,150,1,432.89999997615814,548649.5,8048,WL,A,14.0
5,24.292999982833862,learn,60000.0,Thu Jun 05 2025 16:25:22 GMT-0500 (Central Daylight Time),549182.3999999762,A,log,I,g,79,1,532.8999999761581,548649.5,8048,WL,A,14.0
5,24.509000062942505,learn,60000.0,Thu Jun 05 2025 16:25:22 GMT-0500 (Central Daylight Time),549398.8999999762,A,logenter,I,enter,211,1,749.3999999761581,548649.5,8048,WL,A,14.0
5,24.908999919891357,learn,60000.0,Thu Jun 05 2025 16:25:22 GMT-0500 (Central Daylight Time),549798.8999999762,A,c,I,c,395,1,399.59999999403954,549399.2999999821,8048,WL,A,15.0
5,25.009000062942505,learn,60000.0,Thu Jun 05 2025 16:25:22 GMT-0500 (Central Daylight Time),549898.7999999821,A,ch,I,h,83,1,499.5,549399.2999999821,8048,WL,A,15.0
5,25.175999879837036,learn,60000.0,Thu Jun 05 2025 16:25:22 GMT-0500 (Central Daylight Time),550065.5,A,chi,I,i,158,1,666.2000000178814,549399.2999999821,8048,WL,A,15.0
5,25.325000047683716,learn,60000.0,Thu Jun 05 2025 16:25:22 GMT-0500 (Central Daylight Time),550215.099999994,A,chim,I,m,144,1,815.8000000119209,549399.2999999821,8048,WL,A,15.0
5,25.759000062942505,learn,60000.0,Thu Jun 05 2025 16:25:22 GMT-0500 (Central Daylight Time),550648.599999994,A,chimn,I,n,427,1,1249.300000011921,549399.2999999821,8048,WL,A,15.0
5,25.875999927520752,learn,60000.0,Thu Jun 05 2025 16:25:22 GMT-0500 (Central Daylight Time),550765.1999999881,A,chimne,I,e,97,1,1365.9000000059605,549399.2999999821,8048,WL,A,15.0
5,26.02500009536743,learn,60000.0,Thu Jun 05 2025 16:25:22 GMT-0500 (Central Daylight Time),550915.099999994,A,chimney,I,y,132,1,1515.800000011921,549399.2999999821,8048,WL,A,15.0
5,26.30900001525879,learn,60000.0,Thu Jun 05 2025 16:25:22 GMT-0500 (Central Daylight Time),551198.3999999762,A,chimneyenter,I,enter,262,1,1799.0999999940395,549399.2999999821,8048,WL,A,15.0
6,1.8989999294281006,distr,58101.0000705719,Thu Jun 05 2025 16:25:22 GMT-0500 (Central Daylight Time),621359.5,B,b,I,b,1894,1,1899.0,619460.5,8048,WL,A,1.0
6,2.065999984741211,distr,57934.00001525879,Thu Jun 05 2025 16:25:22 GMT-0500 (Central Daylight Time),621526.3999999762,B,bo,I,o,145,1,2065.899999976158,619460.5,8048,WL,A,1.0
6,2.1500000953674316,distr,57849.99990463257,Thu Jun 05 2025 16:25:22 GMT-0500 (Central Daylight Time),621609.5,B,bow,I,w,75,1,2149.0,619460.5,8048,WL,A,1.0
6,2.499000072479248,distr,57500.99992752075,Thu Jun 05 2025 16:25:22 GMT-0500 (Central Daylight Time),621959.3999999762,B,bowl,I,l,336,1,2498.899999976158,619460.5,8048,WL,A,1.0
6,2.882999897003174,distr,57117.000102996826,Thu Jun 05 2025 16:25:22 GMT-0500 (Central Daylight Time),622342.7999999821,B,bowlenter,I,enter,378,1,2882.2999999821186,619460.5,8048,WL,A,1.0
6,4.448999881744385,distr,55551.000118255615,Thu Jun 05 2025 16:25:22 GMT-0500 (Central Daylight Time),623908.7999999821,B,d,I,d,1555,1,1565.699999988079,622343.099999994,8048,WL,A,2.0
6,4.565000057220459,distr,55434.99994277954,Thu Jun 05 2025 16:25:22 GMT-0500 (Central Daylight Time),624025.5,B,da,I,a,110,1,1682.4000000059605,622343.099999994,8048,WL,A,2.0
6,4.931999921798706,distr,55068.000078201294,Thu Jun 05 2025 16:25:22 GMT-0500 (Central Daylight Time),624392.0,B,daw,I,w,353,1,2048.9000000059605,622343.099999994,8048,WL,A,2.0
6,5.08299994468689,distr,54917.00005531311,Thu Jun 05 2025 16:25:22 GMT-0500 (Central Daylight Time),624542.5,B,dawn,I,n,146,1,2199.4000000059605,622343.099999994,8048,WL,A,2.0
6,5.5269999504089355,distr,54473.000049591064,Thu Jun 05 2025 16:25:22 GMT-0500 (Central Daylight Time),624986.6999999881,B,dawnenter,I,enter,439,1,2643.5999999940395,622343.099999994,8048,WL,A,2.0
6,5.914999961853027,distr,54085.00003814697,Thu Jun 05 2025 16:25:22 GMT-0500 (Central Daylight Time),625375.0,B,c,I,c,373,1,387.80000001192093,624987.1999999881,8048,WL,A,3.0
6,6.015000104904175,distr,53984.999895095825,Thu Jun 05 2025 16:25:22 GMT-0500 (Central Daylight Time),625475.0,B,co,I,o,90,1,487.80000001192093,624987.1999999881,8048,WL,A,3.0
6,6.098999977111816,distr,53901.00002288818,Thu Jun 05 2025 16:25:22 GMT-0500 (Central Daylight Time),625558.599999994,B,cou,I,u,78,1,571.4000000059605,624987.1999999881,8048,WL,A,3.0
6,6.483000040054321,distr,53516.99995994568,Thu Jun 05 2025 16:25:22 GMT-0500 (Central Daylight Time),625942.6999999881,B,coun,I,n,363,1,955.5,624987.1999999881,8048,WL,A,3.0
6,6.664999961853027,distr,53335.00003814697,Thu Jun 05 2025 16:25:22 GMT-0500 (Central Daylight Time),626124.6999999881,B,count,I,t,171,1,1137.5,624987.1999999881,8048,WL,A,3.0
6,6.79800009727478,distr,53201.99990272522,Thu Jun 05 2025 16:25:22 GMT-0500 (Central Daylight Time),626258.099999994,B,county,I,y,117,1,1270.9000000059605,624987.1999999881,8048,WL,A,3.0
6,7.414999961853027,distr,52585.00003814697,Thu Jun 05 2025 16:25:22 GMT-0500 (Central Daylight Time),626874.599999994,B,countyenter,I,enter,600,1,1887.4000000059605,624987.1999999881,8048,WL,A,3.0
6,7.8480000495910645,distr,52151.999950408936,Thu Jun 05 2025 16:25:22 GMT-0500 (Central Daylight Time),627307.7999999821,B,j,I,j,423,1,432.90000000596046,626874.8999999762,8048,WL,A,4.0
6,8.13100004196167,distr,51868.99995803833,Thu Jun 05 2025 16:25:22 GMT-0500 (Central Daylight Time),627591.2999999821,B,ju,I,u,270,1,716.4000000059605,626874.8999999762,8048,WL,A,4.0
6,8.280999898910522,distr,51719.00010108948,Thu Jun 05 2025 16:25:22 GMT-0500 (Central Daylight Time),627741.0,B,jud,I,d,138,1,866.1000000238419,626874.8999999762,8048,WL,A,4.0
6,8.598000049591064,distr,51401.999950408936,Thu Jun 05 2025 16:25:22 GMT-0500 (Central Daylight Time),628057.6999999881,B,judg,I,g,300,1,1182.800000011921,626874.8999999762,8048,WL,A,4.0
6,8.846999883651733,distr,51153.00011634827,Thu Jun 05 2025 16:25:22 GMT-0500 (Central Daylight Time),628307.3999999762,B,judge,I,e,232,1,1432.5,626874.8999999762,8048,WL,A,4.0
6,9.063999891281128,distr,50936.00010871887,Thu Jun 05 2025 16:25:22 GMT-0500 (Central Daylight Time),628524.099999994,B,judgeenter,I,enter,207,1,1649.2000000178814,626874.8999999762,8048,WL,A,4.0
6,9.331000089645386,distr,50668.999910354614,Thu Jun 05 2025 16:25:22 GMT-0500 (Central Daylight Time),628790.5,B,g,I,g,254,1,266.10000002384186,628524.3999999762,8048,WL,A,5.0
6,9.513999938964844,distr,50486.000061035156,Thu Jun 05 2025 16:25:22 GMT-0500 (Central Daylight Time),628974.099999994,B,gr,I,r,163,1,449.7000000178814,628524.3999999762,8048,WL,A,5.0
6,9.614000082015991,distr,50385.99991798401,Thu Jun 05 2025 16:25:22 GMT-0500 (Central Daylight Time),629073.6999999881,B,gra,I,a,93,1,549.3000000119209,628524.3999999762,8048,WL,A,5.0
6,9.763999938964844,distr,50236.000061035156,Thu Jun 05 2025 16:25:22 GMT-0500 (Central Daylight Time),629223.6999999881,B,gran,I,n,144,1,699.3000000119209,628524.3999999762,8048,WL,A,5.0
6,10.013999938964844,distr,49986.000061035156,Thu Jun 05 2025 16:25:22 GMT-0500 (Central Daylight Time),629473.7999999821,B,grant,I,t,234,1,949.4000000059605,628524.3999999762,8048,WL,A,5.0
6,10.480000019073486,distr,49519.999980926514,Thu Jun 05 2025 16:25:22 GMT-0500 (Central Daylight Time),629940.2999999821,B,grantenter,I,enter,448,1,1415.9000000059605,628524.3999999762,8048,WL,A,5.0
6,11.463000059127808,distr,48536.99994087219,Thu Jun 05 2025 16:25:22 GMT-0500 (Central Daylight Time),630923.3999999762,B,s,I,s,966,1,982.7999999821186,629940.599999994,8048,WL,A,6.0
6,11.663000106811523,distr,48336.99989318848,Thu Jun 05 2025 16:25:22 GMT-0500 (Central Daylight Time),631123.3999999762,B,se,I,e,190,1,1182.7999999821186,629940.599999994,8048,WL,A,6.0
6,11.829999923706055,distr,48170.000076293945,Thu Jun 05 2025 16:25:22 GMT-0500 (Central Daylight Time),631289.7999999821,B,see,I,e,150,1,1349.199999988079,629940.599999994,8048,WL,A,6.0
6,12.180000066757202,distr,47819.9999332428,Thu Jun 05 2025 16:25:22 GMT-0500 (Central Daylight Time),631639.8999999762,B,seed,I,d,336,1,1699.2999999821186,629940.599999994,8048,WL,A,6.0
6,12.480000019073486,distr,47519.999980926514,Thu Jun 05 2025 16:25:22 GMT-0500 (Central Daylight Time),631939.599999994,B,seedenter,I,enter,291,1,1999.0,629940.599999994,8048,WL,A,6.0
6,13.36299991607666,distr,46637.00008392334,Thu Jun 05 2025 16:25:22 GMT-0500 (Central Daylight Time),632822.6999999881,B,s,I,s,863,1,882.6999999880791,631940.0,8048,WL,A,7.0
6,13.529000043869019,distr,46470.99995613098,Thu Jun 05 2025 16:25:22 GMT-0500 (Central Daylight Time),632989.2999999821,B,sh,I,h,147,1,1049.2999999821186,631940.0,8048,WL,A,7.0
6,13.812999963760376,distr,46187.000036239624,Thu Jun 05 2025 16:25:22 GMT-0500 (Central Daylight Time),633272.599999994,B,she,I,e,268,1,1332.5999999940395,631940.0,8048,WL,A,7.0
6,13.961999893188477,distr,46038.00010681152,Thu Jun 05 2025 16:25:22 GMT-0500 (Central Daylight Time),633422.5,B,shee,I,e,137,1,1482.5,631940.0,8048,WL,A,7.0
6,14.378999948501587,distr,45621.00005149841,Thu Jun 05 2025 16:25:22 GMT-0500 (Central Daylight Time),633839.0,B,sheep,I,p,396,1,1899.0,631940.0,8048,WL,A,7.0
6,15.145999908447266,distr,44854.000091552734,Thu Jun 05 2025 16:25:22 GMT-0500 (Central Daylight Time),634605.6999999881,B,sheepenter,I,enter,747,1,2665.699999988079,631940.0,8048,WL,A,7.0
6,15.661999940872192,distr,44338.00005912781,Thu Jun 05 2025 16:25:22 GMT-0500 (Central Daylight Time),635122.0,B,m,I,m,499,1,516.1000000238419,634605.8999999762,8048,WL,A,8.0
6,15.76200008392334,distr,44237.99991607666,Thu Jun 05 2025 16:25:22 GMT-0500 (Central Daylight Time),635221.7999999821,B,me,I,e,87,1,615.9000000059605,634605.8999999762,8048,WL,A,8.0
6,15.861999988555908,distr,44138.00001144409,Thu Jun 05 2025 16:25:22 GMT-0500 (Central Daylight Time),635322.0,B,mea,I,a,92,1,716.1000000238419,634605.8999999762,8048,WL,A,8.0
6,16.045000076293945,distr,43954.999923706055,Thu Jun 05 2025 16:25:22 GMT-0500 (Central Daylight Time),635505.2999999821,B,meal,I,l,176,1,899.4000000059605,634605.8999999762,8048,WL,A,8.0
6,16.461999893188477,distr,43538.00010681152,Thu Jun 05 2025 16:25:22 GMT-0500 (Central Daylight Time),635921.7999999821,B,mealenter,I,enter,408,1,1315.9000000059605,634605.8999999762,8048,WL,A,8.0
6,27.075000047683716,distr,32924.999952316284,Thu Jun 05 2025 16:25:22 GMT-0500 (Central Daylight Time),646535.2999999821,B,c,I,c,10601,1,10613.199999988079,635922.099999994,8048,WL,A,9.0
6,27.158999919891357,distr,32841.00008010864,Thu Jun 05 2025 16:25:22 GMT-0500 (Central Daylight Time),646618.599999994,B,ch,I,h,66,1,10696.5,635922.099999994,8048,WL,A,9.0
6,27.29200005531311,distr,32707.99994468689,Thu Jun 05 2025 16:25:22 GMT-0500 (Central Daylight Time),646751.599999994,B,cha,I,a,119,1,10829.5,635922.099999994,8048,WL,A,9.0
6,27.408999919891357,distr,32591.000080108643,Thu Jun 05 2025 16:25:22 GMT-0500 (Central Daylight Time),646868.599999994,B,chai,I,i,107,1,10946.5,635922.099999994,8048,WL,A,9.0
6,27.575000047683716,distr,32424.999952316284,Thu Jun 05 2025 16:25:22 GMT-0500 (Central Daylight Time),647035.0,B,chair,I,r,157,1,11112.90000000596,635922.099999994,8048,WL,A,9.0
6,27.875,distr,32125.0,Thu Jun 05 2025 16:25:22 GMT-0500 (Central Daylight Time),647334.7999999821,B,chairenter,I,enter,279,1,11412.699999988079,635922.099999994,8048,WL,A,9.0
6,28.657999992370605,distr,31342.000007629395,Thu Jun 05 2025 16:25:22 GMT-0500 (Central Daylight Time),648118.1999999881,B,b,I,b,762,1,783.0,647335.1999999881,8048,WL,A,10.0
6,29.085999965667725,distr,30914.000034332275,Thu Jun 05 2025 16:25:22 GMT-0500 (Central Daylight Time),648546.099999994,B,bt,I,t,276,1,1210.9000000059605,647335.1999999881,8048,WL,A,10.0
6,29.69099998474121,distr,30309.00001525879,Thu Jun 05 2025 16:25:22 GMT-0500 (Central Daylight Time),649150.8999999762,B,b,I,backspace,584,1,1815.699999988079,647335.1999999881,8048,WL,A,10.0
6,29.94099998474121,distr,30059.00001525879,Thu Jun 05 2025 16:25:22 GMT-0500 (Central Daylight Time),649400.8999999762,B,bo,I,o,234,1,2065.699999988079,647335.1999999881,8048,WL,A,10.0
6,30.091000080108643,distr,29908.999919891357,Thu Jun 05 2025 16:25:22 GMT-0500 (Central Daylight Time),649551.1999999881,B,bot,I,t,130,1,2216.0,647335.1999999881,8048,WL,A,10.0
6,30.323999881744385,distr,29676.000118255615,Thu Jun 05 2025 16:25:22 GMT-0500 (Central Daylight Time),649784.1999999881,B,bott,I,t,219,1,2449.0,647335.1999999881,8048,WL,A,10.0
6,30.808000087738037,distr,29191.999912261963,Thu Jun 05 2025 16:25:22 GMT-0500 (Central Daylight Time),650267.599999994,B,bottl,I,l,465,1,2932.4000000059605,647335.1999999881,8048,WL,A,10.0
6,30.957000017166138,distr,29042.999982833862,Thu Jun 05 2025 16:25:22 GMT-0500 (Central Daylight Time),650417.2999999821,B,bottle,I,e,133,1,3082.0999999940395,647335.1999999881,8048,WL,A,10.0
6,31.091000080108643,distr,28908.999919891357,Thu Jun 05 2025 16:25:22 GMT-0500 (Central Daylight Time),650550.8999999762,B,bottleenter,I,enter,129,1,3215.699999988079,647335.1999999881,8048,WL,A,10.0
6,31.657000064849854,distr,28342.999935150146,Thu Jun 05 2025 16:25:22 GMT-0500 (Central Daylight Time),651116.8999999762,B,p,I,p,546,1,565.5999999940395,650551.2999999821,8048,WL,A,11.0
6,31.7739999294281,distr,28226.0000705719,Thu Jun 05 2025 16:25:22 GMT-0500 (Central Daylight Time),651233.599999994,B,pe,I,e,101,1,682.3000000119209,650551.2999999821,8048,WL,A,11.0
6,31.890000104904175,distr,28109.999895095825,Thu Jun 05 2025 16:25:22 GMT-0500 (Central Daylight Time),651350.2999999821,B,pea,I,a,104,1,799.0,650551.2999999821,8048,WL,A,11.0
6,32.20700001716614,distr,27792.999982833862,Thu Jun 05 2025 16:25:22 GMT-0500 (Central Daylight Time),651667.099999994,B,peac,I,c,299,1,1115.800000011921,650551.2999999821,8048,WL,A,11.0
6,32.306999921798706,distr,27693.000078201294,Thu Jun 05 2025 16:25:22 GMT-0500 (Central Daylight Time),651767.099999994,B,peach,I,h,79,1,1215.800000011921,650551.2999999821,8048,WL,A,11.0
6,33.25699996948242,distr,26743.000030517578,Thu Jun 05 2025 16:25:22 GMT-0500 (Central Daylight Time),652716.5,B,peachenter,I,enter,938,1,2165.2000000178814,650551.2999999821,8048,WL,A,11.0
6,42.80200004577637,distr,17197.999954223633,Thu Jun 05 2025 16:25:22 GMT-0500 (Central Daylight Time),662263.6999999881,B,enter,I,enter,9533,1,9546.800000011921,652716.8999999762,8048,WL,A,12.0
6,43.069000005722046,distr,16930.999994277954,Thu Jun 05 2025 16:25:22 GMT-0500 (Central Daylight Time),662530.099999994,B,enter,I,enter,249,1,266.09999999403954,662264.0,8048,WL,A,13.0
6,43.36899995803833,distr,16631.00004196167,Thu Jun 05 2025 16:25:22 GMT-0500 (Central Daylight Time),662830.0,B,enter,I,enter,279,1,299.5,662530.5,8048,WL,A,14.0
6,43.901999950408936,distr,16098.000049591064,Thu Jun 05 2025 16:25:22 GMT-0500 (Central Daylight Time),663363.1999999881,B,enter,I,enter,525,1,532.9000000059605,662830.2999999821,8048,WL,A,15.0
7,0.9819998741149902,immed,59018.00012588501,Thu Jun 05 2025 16:25:22 GMT-0500 (Central Daylight Time),673660.0,A,b,I,b,973,1,981.8000000119209,672678.1999999881,8048,WL,A,1.0
7,1.181999921798706,immed,58818.000078201294,Thu Jun 05 2025 16:25:22 GMT-0500 (Central Daylight Time),673860.0,A,bo,I,o,181,1,1181.800000011921,672678.1999999881,8048,WL,A,1.0
7,1.2820000648498535,immed,58717.99993515015,Thu Jun 05 2025 16:25:22 GMT-0500 (Central Daylight Time),673959.7999999821,A,boo,I,o,93,1,1281.5999999940395,672678.1999999881,8048,WL,A,1.0
7,1.5149998664855957,immed,58485.000133514404,Thu Jun 05 2025 16:25:22 GMT-0500 (Central Daylight Time),674193.2999999821,A,book,I,k,218,1,1515.0999999940395,672678.1999999881,8048,WL,A,1.0
7,1.9479999542236328,immed,58052.00004577637,Thu Jun 05 2025 16:25:22 GMT-0500 (Central Daylight Time),674626.3999999762,A,bookenter,I,enter,416,1,1948.199999988079,672678.1999999881,8048,WL,A,1.0
7,2.2309999465942383,immed,57769.00005340576,Thu Jun 05 2025 16:25:22 GMT-0500 (Central Daylight Time),674909.599999994,A,f,I,f,263,1,282.80000001192093,674626.7999999821,8048,WL,A,2.0
7,2.315000057220459,immed,57684.99994277954,Thu Jun 05 2025 16:25:22 GMT-0500 (Central Daylight Time),674992.7999999821,A,fl,I,l,68,1,366.0,674626.7999999821,8048,WL,A,2.0
7,2.5149998664855957,immed,57485.000133514404,Thu Jun 05 2025 16:25:22 GMT-0500 (Central Daylight Time),675192.7999999821,A,flo,I,o,185,1,566.0,674626.7999999821,8048,WL,A,2.0
7,2.5980000495910645,immed,57401.999950408936,Thu Jun 05 2025 16:25:22 GMT-0500 (Central Daylight Time),675276.099999994,A,flow,I,w,66,1,649.3000000119209,674626.7999999821,8048,WL,A,2.0
7,2.7309999465942383,immed,57269.00005340576,Thu Jun 05 2025 16:25:22 GMT-0500 (Central Daylight Time),675409.5,A,flowe,I,e,117,1,782.7000000178814,674626.7999999821,8048,WL,A,2.0
7,2.8480000495910645,immed,57151.999950408936,Thu Jun 05 2025 16:25:22 GMT-0500 (Central Daylight Time),675526.099999994,A,flower,I,r,96,1,899.3000000119209,674626.7999999821,8048,WL,A,2.0
7,4.164000034332275,immed,55835.999965667725,Thu Jun 05 2025 16:25:22 GMT-0500 (Central Daylight Time),676842.3999999762,A,flowerenter,I,enter,1307,1,2215.5999999940395,674626.7999999821,8048,WL,A,2.0
7,5.197000026702881,immed,54802.99997329712,Thu Jun 05 2025 16:25:22 GMT-0500 (Central Daylight Time),677875.2999999821,A,r,I,r,1016,1,1032.699999988079,676842.599999994,8048,WL,A,3.0
7,5.296999931335449,immed,54703.00006866455,Thu Jun 05 2025 16:25:22 GMT-0500 (Central Daylight Time),677975.0,A,ru,I,u,94,1,1132.4000000059605,676842.599999994,8048,WL,A,3.0
7,5.430000066757202,immed,54569.9999332428,Thu Jun 05 2025 16:25:22 GMT-0500 (Central Daylight Time),678108.599999994,A,rug,I,g,123,1,1266.0,676842.599999994,8048,WL,A,3.0
7,5.664000034332275,immed,54335.999965667725,Thu Jun 05 2025 16:25:22 GMT-0500 (Central Daylight Time),678341.7999999821,A,rugenter,I,enter,213,1,1499.199999988079,676842.599999994,8048,WL,A,3.0
7,6.230000019073486,immed,53769.999980926514,Thu Jun 05 2025 16:25:22 GMT-0500 (Central Daylight Time),678908.3999999762,A,m,I,m,548,1,566.2999999821186,678342.099999994,8048,WL,A,4.0
7,6.312999963760376,immed,53687.000036239624,Thu Jun 05 2025 16:25:22 GMT-0500 (Central Daylight Time),678991.6999999881,A,me,I,e,70,1,649.5999999940395,678342.099999994,8048,WL,A,4.0
7,6.4649999141693115,immed,53535.00008583069,Thu Jun 05 2025 16:25:22 GMT-0500 (Central Daylight Time),679143.0,A,mea,I,a,130,1,800.9000000059605,678342.099999994,8048,WL,A,4.0
7,6.662999868392944,immed,53337.000131607056,Thu Jun 05 2025 16:25:22 GMT-0500 (Central Daylight Time),679341.5,A,mead,I,d,178,1,999.4000000059605,678342.099999994,8048,WL,A,4.0
7,7.046000003814697,immed,52953.9999961853,Thu Jun 05 2025 16:25:22 GMT-0500 (Central Daylight Time),679724.6999999881,A,meado,I,o,372,1,1382.5999999940395,678342.099999994,8048,WL,A,4.0
7,7.180000066757202,immed,52819.9999332428,Thu Jun 05 2025 16:25:22 GMT-0500 (Central Daylight Time),679858.0,A,meadow,I,w,126,1,1515.9000000059605,678342.099999994,8048,WL,A,4.0
7,7.463000059127808,immed,52536.99994087219,Thu Jun 05 2025 16:25:22 GMT-0500 (Central Daylight Time),680141.2999999821,A,meadowenter,I,enter,264,1,1799.199999988079,678342.099999994,8048,WL,A,4.0
7,7.763000011444092,immed,52236.99998855591,Thu Jun 05 2025 16:25:22 GMT-0500 (Central Daylight Time),680441.099999994,A,t,I,t,284,1,299.30000001192093,680141.7999999821,8048,WL,A,5.0
7,7.946000099182129,immed,52053.99990081787,Thu Jun 05 2025 16:25:22 GMT-0500 (Central Daylight Time),680624.5,A,tr,I,r,176,1,482.7000000178814,680141.7999999821,8048,WL,A,5.0
7,8.062999963760376,immed,51937.000036239624,Thu Jun 05 2025 16:25:22 GMT-0500 (Central Daylight Time),680741.0,A,tra,I,a,97,1,599.2000000178814,680141.7999999821,8048,WL,A,5.0
7,8.230000019073486,immed,51769.999980926514,Thu Jun 05 2025 16:25:22 GMT-0500 (Central Daylight Time),680907.8999999762,A,trai,I,i,149,1,766.0999999940395,680141.7999999821,8048,WL,A,5.0
7,8.312999963760376,immed,51687.000036239624,Thu Jun 05 2025 16:25:22 GMT-0500 (Central Daylight Time),680990.8999999762,A,train,I,n,63,1,849.0999999940395,680141.7999999821,8048,WL,A,5.0
7,8.678999900817871,immed,51321.00009918213,Thu Jun 05 2025 16:25:22 GMT-0500 (Central Daylight Time),681357.5,A,trainenter,I,enter,347,1,1215.7000000178814,680141.7999999821,8048,WL,A,5.0
7,8.928999900817871,immed,51071.00009918213,Thu Jun 05 2025 16:25:22 GMT-0500 (Central Daylight Time),681607.599999994,A,f,I,f,237,1,249.90000000596046,681357.6999999881,8048,WL,A,6.0
7,9.013000011444092,immed,50986.99998855591,Thu Jun 05 2025 16:25:22 GMT-0500 (Central Daylight Time),681690.6999999881,A,fi,I,i,75,1,333.0,681357.6999999881,8048,WL,A,6.0
7,9.111999988555908,immed,50888.00001144409,Thu Jun 05 2025 16:25:22 GMT-0500 (Central Daylight Time),681790.599999994,A,fin,I,n,87,1,432.90000000596046,681357.6999999881,8048,WL,A,6.0
7,9.196000099182129,immed,50803.99990081787,Thu Jun 05 2025 16:25:22 GMT-0500 (Central Daylight Time),681874.099999994,A,fing,I,g,75,1,516.4000000059605,681357.6999999881,8048,WL,A,6.0
7,9.361999988555908,immed,50638.00001144409,Thu Jun 05 2025 16:25:22 GMT-0500 (Central Daylight Time),682040.6999999881,A,finge,I,e,160,1,683.0,681357.6999999881,8048,WL,A,6.0
7,9.446000099182129,immed,50553.99990081787,Thu Jun 05 2025 16:25:22 GMT-0500 (Central Daylight Time),682123.8999999762,A,finger,I,r,73,1,766.1999999880791,681357.6999999881,8048,WL,A,6.0
7,9.662999868392944,immed,50337.000131607056,Thu Jun 05 2025 16:25:22 GMT-0500 (Central Daylight Time),682340.8999999762,A,fingerenter,I,enter,198,1,983.1999999880791,681357.6999999881,8048,WL,A,6.0
7,9.878999948501587,immed,50121.00005149841,Thu Jun 05 2025 16:25:22 GMT-0500 (Central Daylight Time),682557.5,A,h,I,h,205,1,216.40000000596046,682341.099999994,8048,WL,A,7.0
7,9.894999980926514,immed,50105.000019073486,Thu Jun 05 2025 16:25:22 GMT-0500 (Central Daylight Time),682573.599999994,A,hj,I,j,0,1,232.5,682341.099999994,8048,WL,A,7.0
7,10.328999996185303,immed,49671.0000038147,Thu Jun 05 2025 16:25:22 GMT-0500 (Central Daylight Time),683007.1999999881,A,h,I,backspace,413,1,666.0999999940395,682341.099999994,8048,WL,A,7.0
7,10.479000091552734,immed,49520.999908447266,Thu Jun 05 2025 16:25:22 GMT-0500 (Central Daylight Time),683157.1999999881,A,ha,I,a,130,1,816.0999999940395,682341.099999994,8048,WL,A,7.0
7,10.57800006866455,immed,49421.99993133545,Thu Jun 05 2025 16:25:22 GMT-0500 (Central Daylight Time),683256.6999999881,A,har,I,r,92,1,915.5999999940395,682341.099999994,8048,WL,A,7.0
7,10.795000076293945,immed,49204.999923706055,Thu Jun 05 2025 16:25:22 GMT-0500 (Central Daylight Time),683473.599999994,A,harp,I,p,201,1,1132.5,682341.099999994,8048,WL,A,7.0
7,11.211999893188477,immed,48788.00010681152,Thu Jun 05 2025 16:25:22 GMT-0500 (Central Daylight Time),683889.8999999762,A,harpenter,I,enter,409,1,1548.7999999821186,682341.099999994,8048,WL,A,7.0
7,12.510999917984009,immed,47489.00008201599,Thu Jun 05 2025 16:25:22 GMT-0500 (Central Daylight Time),685189.1999999881,A,s,I,s,1280,1,1299.0,683890.1999999881,8048,WL,A,8.0
