acc_sum,block,block_c,block_cond,con_img,correct,correct_response,datetime,endtime,face,jitter,line,project,response,response_time,row_sel,session_number,start_end,starttime,subject_id,task,task_vers,trial
1,prac,1,A,haborder.png,1,z,Tue May 20 2025 15:21:53 GMT-0500 (Central Daylight Time),59365.700000047684,CFD-BM-005-010-A.jpg,1600,solid,I,z,627,2,1,3015.7000000476837,56350.0,8050,ATS,A,1
2,prac,1,A,haborder.png,1,m,Tue May 20 2025 15:21:53 GMT-0500 (Central Daylight Time),62564.700000047684,CFD-WM-006-013-HC.jpg,1700,solid,I,m,712,9,1,6214.700000047684,56350.0,8050,ATS,A,2
3,prac,1,A,haborder.png,1,z,Tue May 20 2025 15:21:53 GMT-0500 (Central Daylight Time),65663.70000004768,CFD-WF-003-014-A.jpg,1600,solid,I,z,709,10,1,9313.700000047684,56350.0,8050,ATS,A,3
4,prac,1,A,haborder.png,1,m,Tue May 20 2025 15:21:53 GMT-0500 (Central Daylight Time),68563.10000002384,CFD-WM-004-005-HC.jpg,1400,solid,I,m,706,7,1,12213.100000023842,56350.0,8050,ATS,A,4
5,prac,1,A,haborder.png,1,z,Tue May 20 2025 15:21:53 GMT-0500 (Central Daylight Time),70980.5,CFD-WF-019-015-A.jpg,1000,solid,I,z,623,12,1,14630.5,56350.0,8050,ATS,A,5
6,prac,1,A,haborder.png,1,m,Tue May 20 2025 15:21:53 GMT-0500 (Central Daylight Time),74527.39999997616,CFD-BF-028-020-HC.jpg,2000,solid,I,m,751,5,1,18177.399999976158,56350.0,8050,ATS,A,6
7,prac,1,A,haborder.png,1,m,Tue May 20 2025 15:21:53 GMT-0500 (Central Daylight Time),77626.60000002384,CFD-BM-029-026-HC.jpg,1500,solid,I,m,814,3,1,21276.600000023842,56350.0,8050,ATS,A,7
8,prac,1,A,haborder.png,1,z,Tue May 20 2025 15:21:53 GMT-0500 (Central Daylight Time),80992.39999997616,CFD-WM-013-015-A.jpg,1900,solid,I,z,667,8,1,24642.399999976158,56350.0,8050,ATS,A,8
9,prac,1,A,haborder.png,1,z,Tue May 20 2025 15:21:53 GMT-0500 (Central Daylight Time),83425.0,CFD-BF-023-013-A.jpg,1000,solid,I,z,641,4,1,27075.0,56350.0,8050,ATS,A,9
10,prac,1,A,haborder.png,1,z,Tue May 20 2025 15:21:53 GMT-0500 (Central Daylight Time),86024.0,CFD-BF-039-039-A.jpg,1200,solid,I,z,600,6,1,29674.0,56350.0,8050,ATS,A,10
11,prac,1,A,haborder.png,1,m,Tue May 20 2025 15:21:53 GMT-0500 (Central Daylight Time),88989.79999995232,CFD-WF-017-016-HC.jpg,1500,solid,I,m,677,11,1,32639.799999952316,56350.0,8050,ATS,A,11
12,prac,1,A,haborder.png,1,m,Tue May 20 2025 15:21:53 GMT-0500 (Central Daylight Time),92305.5,CFD-BM-017-052-HC.jpg,1700,solid,I,m,816,1,1,35955.5,56350.0,8050,ATS,A,12
1,prac,1,B,mfborder.png,1,z,Tue May 20 2025 15:21:53 GMT-0500 (Central Daylight Time),113032.29999995232,CFD-BF-023-013-A.jpg,1000,dash,I,z,950,4,1,2749.1999999284744,110283.10000002384,8050,ATS,A,1
2,prac,1,B,mfborder.png,1,m,Tue May 20 2025 15:21:53 GMT-0500 (Central Daylight Time),116614.20000004768,CFD-BM-005-010-A.jpg,2000,dash,I,m,793,5,1,6331.100000023842,110283.10000002384,8050,ATS,A,2
3,prac,1,B,mfborder.png,1,z,Tue May 20 2025 15:21:53 GMT-0500 (Central Daylight Time),119463.60000002384,CFD-BF-010-005-HC.jpg,1500,dash,I,z,556,3,1,9180.5,110283.10000002384,8050,ATS,A,3
4,prac,1,B,mfborder.png,1,m,Tue May 20 2025 15:21:53 GMT-0500 (Central Daylight Time),122496.0,CFD-WM-019-013-A.jpg,1200,dash,I,m,1042,6,1,12212.899999976158,110283.10000002384,8050,ATS,A,4
5,prac,1,B,mfborder.png,1,m,Tue May 20 2025 15:21:53 GMT-0500 (Central Daylight Time),125411.70000004768,CFD-BM-010-019-A.jpg,1600,dash,I,m,521,2,1,15128.600000023842,110283.10000002384,8050,ATS,A,5
6,prac,1,B,mfborder.png,1,m,Tue May 20 2025 15:21:53 GMT-0500 (Central Daylight Time),128410.79999995232,CFD-WM-013-015-A.jpg,1700,dash,I,m,506,9,1,18127.699999928474,110283.10000002384,8050,ATS,A,6
7,prac,1,B,mfborder.png,1,z,Tue May 20 2025 15:21:53 GMT-0500 (Central Daylight Time),131976.29999995232,CFD-WF-002-008-HC.jpg,1900,dash,I,z,876,8,1,21693.199999928474,110283.10000002384,8050,ATS,A,7
8,prac,1,B,mfborder.png,1,m,Tue May 20 2025 15:21:53 GMT-0500 (Central Daylight Time),135175.10000002384,CFD-WM-006-013-HC.jpg,1600,dash,I,m,809,10,1,24892.0,110283.10000002384,8050,ATS,A,8
9,prac,1,B,mfborder.png,1,z,Tue May 20 2025 15:21:53 GMT-0500 (Central Daylight Time),137907.79999995232,CFD-WF-017-016-HC.jpg,1000,dash,I,z,946,12,1,27624.699999928474,110283.10000002384,8050,ATS,A,9
10,prac,1,B,mfborder.png,1,z,Tue May 20 2025 15:21:53 GMT-0500 (Central Daylight Time),141156.5,CFD-WF-003-014-A.jpg,1500,dash,I,z,962,11,1,30873.399999976158,110283.10000002384,8050,ATS,A,10
11,prac,1,B,mfborder.png,1,z,Tue May 20 2025 15:21:53 GMT-0500 (Central Daylight Time),143889.29999995232,CFD-BF-028-020-HC.jpg,1400,dash,I,z,534,7,1,33606.199999928474,110283.10000002384,8050,ATS,A,11
12,prac,1,B,mfborder.png,1,m,Tue May 20 2025 15:21:53 GMT-0500 (Central Daylight Time),147221.60000002384,CFD-BM-029-026-HC.jpg,1700,dash,I,m,836,1,1,36938.5,110283.10000002384,8050,ATS,A,12
1,test,1,A,haborder.png,1,m,Tue May 20 2025 15:21:53 GMT-0500 (Central Daylight Time),181310.29999995232,CFD-WF-017-016-HC.jpg,1500,solid,I,m,749,11,1,2282.1999999284744,179028.10000002384,8050,ATS,A,1
2,test,1,A,haborder.png,1,z,Tue May 20 2025 15:21:53 GMT-0500 (Central Daylight Time),182860.20000004768,CFD-WF-019-015-A.jpg,1000,solid,I,z,520,12,1,3832.100000023842,179028.10000002384,8050,ATS,A,2
3,test,1,A,haborder.png,1,m,Tue May 20 2025 15:21:53 GMT-0500 (Central Daylight Time),184926.39999997616,CFD-WM-004-005-HC.jpg,1400,solid,I,m,637,7,1,5898.299999952316,179028.10000002384,8050,ATS,A,3
4,test,1,A,haborder.png,1,z,Tue May 20 2025 15:21:53 GMT-0500 (Central Daylight Time),187042.5,CFD-WF-003-014-A.jpg,1600,solid,I,z,499,10,1,8014.399999976158,179028.10000002384,8050,ATS,A,4
5,test,1,A,haborder.png,1,m,Tue May 20 2025 15:21:53 GMT-0500 (Central Daylight Time),189324.60000002384,CFD-WM-006-013-HC.jpg,1700,solid,I,m,564,9,1,10296.5,179028.10000002384,8050,ATS,A,5
6,test,1,A,haborder.png,1,z,Tue May 20 2025 15:21:53 GMT-0500 (Central Daylight Time),190974.39999997616,CFD-BF-023-013-A.jpg,1000,solid,I,z,617,4,1,11946.299999952316,179028.10000002384,8050,ATS,A,6
7,test,1,A,haborder.png,1,z,Tue May 20 2025 15:21:53 GMT-0500 (Central Daylight Time),192523.89999997616,CFD-WF-019-015-A.jpg,1000,solid,I,z,531,12,1,13495.799999952316,179028.10000002384,8050,ATS,A,7
8,test,1,A,haborder.png,1,m,Tue May 20 2025 15:21:53 GMT-0500 (Central Daylight Time),195223.0,CFD-BF-028-020-HC.jpg,2000,solid,I,m,670,5,1,16194.899999976158,179028.10000002384,8050,ATS,A,8
9,test,1,A,haborder.png,1,m,Tue May 20 2025 15:21:53 GMT-0500 (Central Daylight Time),197356.79999995232,CFD-WF-017-016-HC.jpg,1500,solid,I,m,614,11,1,18328.699999928474,179028.10000002384,8050,ATS,A,9
10,test,1,A,haborder.png,1,z,Tue May 20 2025 15:21:53 GMT-0500 (Central Daylight Time),199604.89999997616,CFD-BM-005-010-A.jpg,1600,solid,I,z,623,2,1,20576.799999952316,179028.10000002384,8050,ATS,A,10
11,test,1,A,haborder.png,1,z,Tue May 20 2025 15:21:53 GMT-0500 (Central Daylight Time),202087.60000002384,CFD-WM-013-015-A.jpg,1900,solid,I,z,560,8,1,23059.5,179028.10000002384,8050,ATS,A,11
12,test,1,A,haborder.png,1,m,Tue May 20 2025 15:21:53 GMT-0500 (Central Daylight Time),204620.20000004768,CFD-BM-017-052-HC.jpg,1700,solid,I,m,806,1,1,25592.100000023842,179028.10000002384,8050,ATS,A,12
13,test,1,A,haborder.png,1,z,Tue May 20 2025 15:21:53 GMT-0500 (Central Daylight Time),207152.70000004768,CFD-WM-013-015-A.jpg,1900,solid,I,z,610,8,1,28124.600000023842,179028.10000002384,8050,ATS,A,13
14,test,1,A,haborder.png,1,z,Tue May 20 2025 15:21:53 GMT-0500 (Central Daylight Time),209335.29999995232,CFD-WF-003-014-A.jpg,1600,solid,I,z,553,10,1,30307.199999928474,179028.10000002384,8050,ATS,A,14
15,test,1,A,haborder.png,1,m,Tue May 20 2025 15:21:53 GMT-0500 (Central Daylight Time),211434.70000004768,CFD-WM-004-005-HC.jpg,1400,solid,I,m,679,7,1,32406.600000023842,179028.10000002384,8050,ATS,A,15
16,test,1,A,haborder.png,1,z,Tue May 20 2025 15:21:53 GMT-0500 (Central Daylight Time),213250.79999995232,CFD-BF-039-039-A.jpg,1200,solid,I,z,598,6,1,34222.699999928474,179028.10000002384,8050,ATS,A,16
17,test,1,A,haborder.png,1,z,Tue May 20 2025 15:21:53 GMT-0500 (Central Daylight Time),215616.60000002384,CFD-BM-005-010-A.jpg,1600,solid,I,z,743,2,1,36588.5,179028.10000002384,8050,ATS,A,17
18,test,1,A,haborder.png,1,m,Tue May 20 2025 15:21:53 GMT-0500 (Central Daylight Time),217782.60000002384,CFD-BM-029-026-HC.jpg,1500,solid,I,m,644,3,1,38754.5,179028.10000002384,8050,ATS,A,18
19,test,1,A,haborder.png,1,m,Tue May 20 2025 15:21:53 GMT-0500 (Central Daylight Time),220315.20000004768,CFD-WM-006-013-HC.jpg,1700,solid,I,m,807,9,1,41287.10000002384,179028.10000002384,8050,ATS,A,19
20,test,1,A,haborder.png,1,m,Tue May 20 2025 15:21:53 GMT-0500 (Central Daylight Time),223031.10000002384,CFD-BM-017-052-HC.jpg,1700,solid,I,m,995,1,1,44003.0,179028.10000002384,8050,ATS,A,20
21,test,1,A,haborder.png,1,z,Tue May 20 2025 15:21:53 GMT-0500 (Central Daylight Time),224830.5,CFD-BF-039-039-A.jpg,1200,solid,I,z,570,6,1,45802.39999997616,179028.10000002384,8050,ATS,A,21
22,test,1,A,haborder.png,1,z,Tue May 20 2025 15:21:53 GMT-0500 (Central Daylight Time),226479.89999997616,CFD-BF-023-013-A.jpg,1000,solid,I,z,618,4,1,47451.799999952316,179028.10000002384,8050,ATS,A,22
23,test,1,A,haborder.png,1,m,Tue May 20 2025 15:21:53 GMT-0500 (Central Daylight Time),229178.89999997616,CFD-BF-028-020-HC.jpg,2000,solid,I,m,675,5,1,50150.799999952316,179028.10000002384,8050,ATS,A,23
24,test,1,A,haborder.png,1,m,Tue May 20 2025 15:21:53 GMT-0500 (Central Daylight Time),231478.29999995232,CFD-BM-029-026-HC.jpg,1500,solid,I,m,779,3,1,52450.199999928474,179028.10000002384,8050,ATS,A,24
1,test,1,B,mfborder.png,1,m,Tue May 20 2025 15:21:53 GMT-0500 (Central Daylight Time),250705.70000004768,CFD-BM-010-019-A.jpg,1600,dash,I,m,583,2,1,2216.0,248489.70000004768,8050,ATS,A,1
2,test,1,B,mfborder.png,1,m,Tue May 20 2025 15:21:53 GMT-0500 (Central Daylight Time),253054.89999997616,CFD-WM-006-013-HC.jpg,1600,dash,I,m,716,10,1,4565.199999928474,248489.70000004768,8050,ATS,A,2
3,test,1,B,mfborder.png,1,z,Tue May 20 2025 15:21:53 GMT-0500 (Central Daylight Time),254554.60000002384,CFD-WF-017-016-HC.jpg,1000,dash,I,z,467,12,1,6064.899999976158,248489.70000004768,8050,ATS,A,3
4,test,1,B,mfborder.png,1,z,Tue May 20 2025 15:21:53 GMT-0500 (Central Daylight Time),256687.0,CFD-WF-003-014-A.jpg,1500,dash,I,z,612,11,1,8197.299999952316,248489.70000004768,8050,ATS,A,4
5,test,1,B,mfborder.png,1,m,Tue May 20 2025 15:21:53 GMT-0500 (Central Daylight Time),258370.0,CFD-WM-019-013-A.jpg,1200,dash,I,m,458,6,1,9880.299999952316,248489.70000004768,8050,ATS,A,5
6,test,1,B,mfborder.png,1,z,Tue May 20 2025 15:21:53 GMT-0500 (Central Daylight Time),260002.79999995232,CFD-WF-017-016-HC.jpg,1000,dash,I,z,608,12,1,11513.099999904633,248489.70000004768,8050,ATS,A,6
7,test,1,B,mfborder.png,1,z,Tue May 20 2025 15:21:53 GMT-0500 (Central Daylight Time),261602.29999995232,CFD-BF-023-013-A.jpg,1000,dash,I,z,567,4,1,13112.599999904633,248489.70000004768,8050,ATS,A,7
8,test,1,B,mfborder.png,1,z,Tue May 20 2025 15:21:53 GMT-0500 (Central Daylight Time),263535.2000000477,CFD-BF-028-020-HC.jpg,1400,dash,I,z,511,7,1,15045.5,248489.70000004768,8050,ATS,A,8
9,test,1,B,mfborder.png,1,z,Tue May 20 2025 15:21:53 GMT-0500 (Central Daylight Time),265884.2000000477,CFD-WF-002-008-HC.jpg,1900,dash,I,z,430,8,1,17394.5,248489.70000004768,8050,ATS,A,9
10,test,1,B,mfborder.png,1,m,Tue May 20 2025 15:21:53 GMT-0500 (Central Daylight Time),268433.60000002384,CFD-BM-005-010-A.jpg,2000,dash,I,m,519,5,1,19943.899999976158,248489.70000004768,8050,ATS,A,10
11,test,1,B,mfborder.png,1,m,Tue May 20 2025 15:21:53 GMT-0500 (Central Daylight Time),270532.89999997616,CFD-BM-010-019-A.jpg,1600,dash,I,m,481,2,1,22043.199999928474,248489.70000004768,8050,ATS,A,11
12,test,1,B,mfborder.png,1,m,Tue May 20 2025 15:21:53 GMT-0500 (Central Daylight Time),273148.5,CFD-BM-005-010-A.jpg,2000,dash,I,m,597,5,1,24658.799999952316,248489.70000004768,8050,ATS,A,12
13,test,1,B,mfborder.png,1,z,Tue May 20 2025 15:21:53 GMT-0500 (Central Daylight Time),275198.10000002384,CFD-BF-028-020-HC.jpg,1400,dash,I,z,622,7,1,26708.399999976158,248489.70000004768,8050,ATS,A,13
14,test,1,B,mfborder.png,1,m,Tue May 20 2025 15:21:53 GMT-0500 (Central Daylight Time),277080.7000000477,CFD-WM-019-013-A.jpg,1200,dash,I,m,659,6,1,28591.0,248489.70000004768,8050,ATS,A,14
15,test,1,B,mfborder.png,1,z,Tue May 20 2025 15:21:53 GMT-0500 (Central Daylight Time),280179.7000000477,CFD-WF-002-008-HC.jpg,1900,dash,I,z,1173,8,1,31690.0,248489.70000004768,8050,ATS,A,15
16,test,1,B,mfborder.png,1,z,Tue May 20 2025 15:21:53 GMT-0500 (Central Daylight Time),282312.5,CFD-BF-010-005-HC.jpg,1500,dash,I,z,601,3,1,33822.799999952316,248489.70000004768,8050,ATS,A,16
17,test,1,B,mfborder.png,1,m,Tue May 20 2025 15:21:53 GMT-0500 (Central Daylight Time),284994.7000000477,CFD-BM-029-026-HC.jpg,1700,dash,I,m,965,1,1,36505.0,248489.70000004768,8050,ATS,A,17
18,test,1,B,mfborder.png,1,m,Tue May 20 2025 15:21:53 GMT-0500 (Central Daylight Time),287244.39999997616,CFD-WM-006-013-HC.jpg,1600,dash,I,m,630,10,1,38754.699999928474,248489.70000004768,8050,ATS,A,18
19,test,1,B,mfborder.png,1,z,Tue May 20 2025 15:21:53 GMT-0500 (Central Daylight Time),289426.89999997616,CFD-BF-010-005-HC.jpg,1500,dash,I,z,666,3,1,40937.199999928474,248489.70000004768,8050,ATS,A,19
20,test,1,B,mfborder.png,1,m,Tue May 20 2025 15:21:53 GMT-0500 (Central Daylight Time),291892.7000000477,CFD-WM-013-015-A.jpg,1700,dash,I,m,738,9,1,43403.0,248489.70000004768,8050,ATS,A,20
21,test,1,B,mfborder.png,1,m,Tue May 20 2025 15:21:53 GMT-0500 (Central Daylight Time),294192.10000002384,CFD-BM-029-026-HC.jpg,1700,dash,I,m,570,1,1,45702.39999997616,248489.70000004768,8050,ATS,A,21
22,test,1,B,mfborder.png,1,z,Tue May 20 2025 15:21:53 GMT-0500 (Central Daylight Time),295908.0,CFD-BF-023-013-A.jpg,1000,dash,I,z,698,4,1,47418.299999952316,248489.70000004768,8050,ATS,A,22
23,test,1,B,mfborder.png,1,z,Tue May 20 2025 15:21:53 GMT-0500 (Central Daylight Time),298007.39999997616,CFD-WF-003-014-A.jpg,1500,dash,I,z,572,11,1,49517.699999928474,248489.70000004768,8050,ATS,A,23
24,test,1,B,mfborder.png,1,m,Tue May 20 2025 15:21:53 GMT-0500 (Central Daylight Time),300390.10000002384,CFD-WM-013-015-A.jpg,1700,dash,I,m,662,9,1,51900.39999997616,248489.70000004768,8050,ATS,A,24
0,prac,1,C,mfborder.png,0,m,Tue May 20 2025 15:21:53 GMT-0500 (Central Daylight Time),348225.2000000477,CFD-BM-017-052-HC.jpg,2000,solid,I,None,1512,4,1,4298.700000047684,343926.5,8050,ATS,A,1
1,prac,1,C,mfborder.png,1,m,Tue May 20 2025 15:21:53 GMT-0500 (Central Daylight Time),351324.2999999523,CFD-WM-013-015-A.jpg,1700,solid,I,m,605,6,1,7397.799999952316,343926.5,8050,ATS,A,2
2,prac,1,C,haborder.png,1,m,Tue May 20 2025 15:21:53 GMT-0500 (Central Daylight Time),354623.2999999523,CFD-WM-004-005-HC.jpg,1400,solid,I,m,1101,12,1,10696.799999952316,343926.5,8050,ATS,A,3
2,prac,1,C,mfborder.png,0,z,Tue May 20 2025 15:21:53 GMT-0500 (Central Daylight Time),358238.7000000477,CFD-WF-019-015-A.jpg,1500,solid,I,m,1327,2,1,14312.200000047684,343926.5,8050,ATS,A,4
3,prac,1,C,mfborder.png,1,z,Tue May 20 2025 15:21:53 GMT-0500 (Central Daylight Time),361187.39999997616,CFD-BF-028-020-HC.jpg,1000,dash,I,z,1154,3,1,17260.899999976158,343926.5,8050,ATS,A,5
3,prac,1,C,haborder.png,0,z,Tue May 20 2025 15:21:53 GMT-0500 (Central Daylight Time),365069.89999997616,CFD-WF-003-014-A.jpg,1600,dash,I,m,1487,9,1,21143.399999976158,343926.5,8050,ATS,A,6
4,prac,1,C,haborder.png,1,z,Tue May 20 2025 15:21:53 GMT-0500 (Central Daylight Time),369251.7999999523,CFD-BF-023-013-A.jpg,1900,dash,I,z,1488,7,1,25325.299999952316,343926.5,8050,ATS,A,7
5,prac,1,C,mfborder.png,1,z,Tue May 20 2025 15:21:53 GMT-0500 (Central Daylight Time),373100.7000000477,CFD-WF-017-016-HC.jpg,1600,dash,I,z,1455,1,1,29174.200000047684,343926.5,8050,ATS,A,8
5,prac,1,C,haborder.png,0,m,Tue May 20 2025 15:21:53 GMT-0500 (Central Daylight Time),376399.60000002384,CFD-WM-004-005-HC.jpg,1000,dash,I,None,1516,11,1,32473.100000023842,343926.5,8050,ATS,A,9
6,prac,1,C,haborder.png,1,z,Tue May 20 2025 15:21:53 GMT-0500 (Central Daylight Time),379948.60000002384,CFD-BF-039-039-A.jpg,1700,solid,I,z,1061,8,1,36022.10000002384,343926.5,8050,ATS,A,10
7,prac,1,C,mfborder.png,1,m,Tue May 20 2025 15:21:53 GMT-0500 (Central Daylight Time),383247.5,CFD-BM-005-010-A.jpg,1200,dash,I,m,1301,5,1,39321.0,343926.5,8050,ATS,A,11
8,prac,1,C,haborder.png,1,m,Tue May 20 2025 15:21:53 GMT-0500 (Central Daylight Time),386929.60000002384,CFD-BM-029-026-HC.jpg,1500,solid,I,m,1390,10,1,43003.10000002384,343926.5,8050,ATS,A,12
1,test,1,C,haborder.png,1,z,Tue May 20 2025 15:21:53 GMT-0500 (Central Daylight Time),417770.10000002384,CFD-BM-005-010-A.jpg,1900,solid,I,z,1075,8,1,2999.2000000476837,414770.89999997616,8050,ATS,A,1
2,test,1,C,haborder.png,1,m,Tue May 20 2025 15:21:53 GMT-0500 (Central Daylight Time),419719.5,CFD-WF-017-016-HC.jpg,1000,solid,I,m,919,12,1,4948.600000023842,414770.89999997616,8050,ATS,A,2
3,test,1,C,mfborder.png,1,z,Tue May 20 2025 15:21:53 GMT-0500 (Central Daylight Time),422018.2999999523,CFD-WF-003-014-A.jpg,1500,dash,I,z,774,3,1,7247.399999976158,414770.89999997616,8050,ATS,A,3
4,test,1,C,haborder.png,1,m,Tue May 20 2025 15:21:53 GMT-0500 (Central Daylight Time),424817.60000002384,CFD-BF-028-020-HC.jpg,1600,solid,I,m,1175,10,1,10046.700000047684,414770.89999997616,8050,ATS,A,4
5,test,1,C,mfborder.png,1,z,Tue May 20 2025 15:21:53 GMT-0500 (Central Daylight Time),427366.5,CFD-BF-023-013-A.jpg,1600,dash,I,z,920,2,1,12595.600000023842,414770.89999997616,8050,ATS,A,5
6,test,1,C,mfborder.png,1,z,Tue May 20 2025 15:21:53 GMT-0500 (Central Daylight Time),429949.39999997616,CFD-BF-010-005-HC.jpg,1700,dash,I,z,863,1,1,15178.5,414770.89999997616,8050,ATS,A,6
6,test,1,C,haborder.png,0,z,Tue May 20 2025 15:21:53 GMT-0500 (Central Daylight Time),432548.60000002384,CFD-WM-013-015-A.jpg,1400,solid,I,m,1172,7,1,17777.700000047684,414770.89999997616,8050,ATS,A,7
6,test,1,C,mfborder.png,0,m,Tue May 20 2025 15:21:53 GMT-0500 (Central Daylight Time),435081.39999997616,CFD-WM-006-013-HC.jpg,1000,dash,I,None,1516,4,1,20310.5,414770.89999997616,8050,ATS,A,8
6,test,1,C,haborder.png,0,m,Tue May 20 2025 15:21:53 GMT-0500 (Central Daylight Time),438113.60000002384,CFD-WF-002-008-HC.jpg,1500,solid,I,None,1516,11,1,23342.700000047684,414770.89999997616,8050,ATS,A,9
7,test,1,C,haborder.png,1,z,Tue May 20 2025 15:21:53 GMT-0500 (Central Daylight Time),440946.0,CFD-BM-005-010-A.jpg,1900,solid,I,z,908,8,1,26175.100000023842,414770.89999997616,8050,ATS,A,10
7,test,1,C,mfborder.png,0,m,Tue May 20 2025 15:21:53 GMT-0500 (Central Daylight Time),443678.2999999523,CFD-BM-029-026-HC.jpg,1200,dash,I,None,1515,6,1,28907.399999976158,414770.89999997616,8050,ATS,A,11
7,test,1,C,haborder.png,0,z,Tue May 20 2025 15:21:53 GMT-0500 (Central Daylight Time),446910.60000002384,CFD-BM-010-019-A.jpg,1700,solid,I,None,1516,9,1,32139.700000047684,414770.89999997616,8050,ATS,A,12
8,test,1,C,haborder.png,1,m,Tue May 20 2025 15:21:53 GMT-0500 (Central Daylight Time),449276.60000002384,CFD-WF-017-016-HC.jpg,1000,solid,I,m,1338,12,1,34505.700000047684,414770.89999997616,8050,ATS,A,13
9,test,1,C,mfborder.png,1,m,Tue May 20 2025 15:21:53 GMT-0500 (Central Daylight Time),451675.7999999523,CFD-WM-006-013-HC.jpg,1000,dash,I,m,1373,4,1,36904.89999997616,414770.89999997616,8050,ATS,A,14
10,test,1,C,mfborder.png,1,m,Tue May 20 2025 15:21:53 GMT-0500 (Central Daylight Time),455074.89999997616,CFD-WM-019-013-A.jpg,2000,dash,I,m,1373,5,1,40304.0,414770.89999997616,8050,ATS,A,15
11,test,1,C,haborder.png,1,z,Tue May 20 2025 15:21:53 GMT-0500 (Central Daylight Time),457474.2000000477,CFD-WM-013-015-A.jpg,1400,solid,I,z,974,7,1,42703.300000071526,414770.89999997616,8050,ATS,A,16
12,test,1,C,haborder.png,1,m,Tue May 20 2025 15:21:53 GMT-0500 (Central Daylight Time),459823.39999997616,CFD-WF-002-008-HC.jpg,1500,solid,I,m,828,11,1,45052.5,414770.89999997616,8050,ATS,A,17
12,test,1,C,mfborder.png,0,z,Tue May 20 2025 15:21:53 GMT-0500 (Central Daylight Time),462439.39999997616,CFD-WF-003-014-A.jpg,1500,dash,I,m,1094,3,1,47668.5,414770.89999997616,8050,ATS,A,18
12,test,1,C,mfborder.png,0,z,Tue May 20 2025 15:21:53 GMT-0500 (Central Daylight Time),465574.5,CFD-BF-023-013-A.jpg,1600,dash,I,None,1515,2,1,50803.60000002384,414770.89999997616,8050,ATS,A,19
13,test,1,C,haborder.png,1,m,Tue May 20 2025 15:21:53 GMT-0500 (Central Daylight Time),468337.60000002384,CFD-BF-028-020-HC.jpg,1600,solid,I,m,1134,10,1,53566.700000047684,414770.89999997616,8050,ATS,A,20
14,test,1,C,haborder.png,1,z,Tue May 20 2025 15:21:53 GMT-0500 (Central Daylight Time),471186.89999997616,CFD-BM-010-019-A.jpg,1700,solid,I,z,1133,9,1,56416.0,414770.89999997616,8050,ATS,A,21
15,test,1,C,mfborder.png,1,m,Tue May 20 2025 15:21:53 GMT-0500 (Central Daylight Time),474518.7999999523,CFD-WM-019-013-A.jpg,2000,dash,I,m,1247,5,1,59747.89999997616,414770.89999997616,8050,ATS,A,22
15,test,1,C,mfborder.png,0,m,Tue May 20 2025 15:21:53 GMT-0500 (Central Daylight Time),476901.5,CFD-BM-029-026-HC.jpg,1200,dash,I,z,1154,6,1,62130.60000002384,414770.89999997616,8050,ATS,A,23
16,test,1,C,mfborder.png,1,z,Tue May 20 2025 15:21:53 GMT-0500 (Central Daylight Time),479683.7999999523,CFD-BF-010-005-HC.jpg,1700,dash,I,z,1057,1,1,64912.89999997616,414770.89999997616,8050,ATS,A,24
1,test,2,C,haborder.png,1,m,Tue May 20 2025 15:21:53 GMT-0500 (Central Daylight Time),515739.2999999523,CFD-WM-004-005-HC.jpg,1000,solid,I,m,770,12,1,1799.6999999284744,513939.60000002384,8050,ATS,A,1
2,test,2,C,haborder.png,1,z,Tue May 20 2025 15:21:53 GMT-0500 (Central Daylight Time),518971.60000002384,CFD-BF-039-039-A.jpg,1900,solid,I,z,1303,8,1,5032.0,513939.60000002384,8050,ATS,A,2
3,test,2,C,mfborder.png,1,m,Tue May 20 2025 15:21:53 GMT-0500 (Central Daylight Time),521187.2999999523,CFD-BM-017-052-HC.jpg,1000,dash,I,m,1197,4,1,7247.699999928474,513939.60000002384,8050,ATS,A,3
4,test,2,C,mfborder.png,1,z,Tue May 20 2025 15:21:53 GMT-0500 (Central Daylight Time),523853.39999997616,CFD-BF-028-020-HC.jpg,1500,dash,I,z,1138,3,1,9913.799999952316,513939.60000002384,8050,ATS,A,4
4,test,2,C,mfborder.png,0,m,Tue May 20 2025 15:21:53 GMT-0500 (Central Daylight Time),526586.0,CFD-WM-013-015-A.jpg,1200,dash,I,None,1516,6,1,12646.399999976158,513939.60000002384,8050,ATS,A,5
5,test,2,C,haborder.png,1,m,Tue May 20 2025 15:21:53 GMT-0500 (Central Daylight Time),529135.1000000238,CFD-BM-029-026-HC.jpg,1600,solid,I,m,928,10,1,15195.5,513939.60000002384,8050,ATS,A,6
6,test,2,C,mfborder.png,1,m,Tue May 20 2025 15:21:53 GMT-0500 (Central Daylight Time),532417.5,CFD-BM-005-010-A.jpg,2000,dash,I,m,1258,5,1,18477.899999976158,513939.60000002384,8050,ATS,A,7
7,test,2,C,haborder.png,1,m,Tue May 20 2025 15:21:53 GMT-0500 (Central Daylight Time),534683.2000000477,CFD-WM-004-005-HC.jpg,1500,solid,I,m,748,11,1,20743.600000023842,513939.60000002384,8050,ATS,A,8
8,test,2,C,haborder.png,1,z,Tue May 20 2025 15:21:53 GMT-0500 (Central Daylight Time),537499.1000000238,CFD-WF-003-014-A.jpg,1700,solid,I,z,1091,9,1,23559.5,513939.60000002384,8050,ATS,A,9
9,test,2,C,haborder.png,1,m,Tue May 20 2025 15:21:53 GMT-0500 (Central Daylight Time),540181.6000000238,CFD-WM-004-005-HC.jpg,1500,solid,I,m,1163,11,1,26242.0,513939.60000002384,8050,ATS,A,10
10,test,2,C,mfborder.png,1,m,Tue May 20 2025 15:21:53 GMT-0500 (Central Daylight Time),542664.1000000238,CFD-WM-013-015-A.jpg,1200,dash,I,m,1253,6,1,28724.5,513939.60000002384,8050,ATS,A,11
11,test,2,C,haborder.png,1,z,Tue May 20 2025 15:21:53 GMT-0500 (Central Daylight Time),544983.5,CFD-BF-023-013-A.jpg,1400,solid,I,z,869,7,1,31043.899999976158,513939.60000002384,8050,ATS,A,12
12,test,2,C,mfborder.png,1,m,Tue May 20 2025 15:21:53 GMT-0500 (Central Daylight Time),547029.6000000238,CFD-BM-017-052-HC.jpg,1000,dash,I,m,1022,4,1,33090.0,513939.60000002384,8050,ATS,A,13
13,test,2,C,haborder.png,1,m,Tue May 20 2025 15:21:53 GMT-0500 (Central Daylight Time),549528.6000000238,CFD-BM-029-026-HC.jpg,1600,solid,I,m,876,10,1,35589.0,513939.60000002384,8050,ATS,A,14
14,test,2,C,mfborder.png,1,z,Tue May 20 2025 15:21:53 GMT-0500 (Central Daylight Time),552077.8999999762,CFD-WF-019-015-A.jpg,1600,dash,I,z,920,2,1,38138.299999952316,513939.60000002384,8050,ATS,A,15
15,test,2,C,mfborder.png,1,z,Tue May 20 2025 15:21:53 GMT-0500 (Central Daylight Time),554843.7000000477,CFD-WF-017-016-HC.jpg,1700,dash,I,z,1032,1,1,40904.10000002384,513939.60000002384,8050,ATS,A,16
16,test,2,C,haborder.png,1,z,Tue May 20 2025 15:21:53 GMT-0500 (Central Daylight Time),557776.2000000477,CFD-WF-003-014-A.jpg,1700,solid,I,z,1202,9,1,43836.60000002384,513939.60000002384,8050,ATS,A,17
17,test,2,C,mfborder.png,1,z,Tue May 20 2025 15:21:53 GMT-0500 (Central Daylight Time),560359.0,CFD-WF-019-015-A.jpg,1600,dash,I,z,962,2,1,46419.39999997616,513939.60000002384,8050,ATS,A,18
18,test,2,C,mfborder.png,1,z,Tue May 20 2025 15:21:53 GMT-0500 (Central Daylight Time),563057.8999999762,CFD-BF-028-020-HC.jpg,1500,dash,I,z,1176,3,1,49118.299999952316,513939.60000002384,8050,ATS,A,19
19,test,2,C,haborder.png,1,z,Tue May 20 2025 15:21:53 GMT-0500 (Central Daylight Time),565307.0,CFD-BF-023-013-A.jpg,1400,solid,I,z,825,7,1,51367.39999997616,513939.60000002384,8050,ATS,A,20
20,test,2,C,mfborder.png,1,z,Tue May 20 2025 15:21:53 GMT-0500 (Central Daylight Time),568289.6000000238,CFD-WF-017-016-HC.jpg,1700,dash,I,z,1251,1,1,54350.0,513939.60000002384,8050,ATS,A,21
21,test,2,C,mfborder.png,1,m,Tue May 20 2025 15:21:53 GMT-0500 (Central Daylight Time),571255.2999999523,CFD-BM-005-010-A.jpg,2000,dash,I,m,937,5,1,57315.699999928474,513939.60000002384,8050,ATS,A,22
21,test,2,C,haborder.png,0,z,Tue May 20 2025 15:21:53 GMT-0500 (Central Daylight Time),574404.2999999523,CFD-BF-039-039-A.jpg,1900,solid,I,m,1223,8,1,60464.699999928474,513939.60000002384,8050,ATS,A,23
22,test,2,C,haborder.png,1,m,Tue May 20 2025 15:21:53 GMT-0500 (Central Daylight Time),576337.2999999523,CFD-WM-004-005-HC.jpg,1000,solid,I,m,910,12,1,62397.699999928474,513939.60000002384,8050,ATS,A,24
1,test,3,C,haborder.png,1,m,Tue May 20 2025 15:21:53 GMT-0500 (Central Daylight Time),583451.3999999762,CFD-BF-028-020-HC.jpg,1600,solid,I,m,1291,10,1,2915.7999999523163,580535.6000000238,8050,ATS,A,1
2,test,3,C,mfborder.png,1,z,Tue May 20 2025 15:21:53 GMT-0500 (Central Daylight Time),585817.2000000477,CFD-WF-003-014-A.jpg,1500,dash,I,z,834,3,1,5281.600000023842,580535.6000000238,8050,ATS,A,2
2,test,3,C,mfborder.png,0,m,Tue May 20 2025 15:21:53 GMT-0500 (Central Daylight Time),589349.5,CFD-WM-019-013-A.jpg,2000,dash,I,None,1515,5,1,8813.899999976158,580535.6000000238,8050,ATS,A,3
3,test,3,C,mfborder.png,1,z,Tue May 20 2025 15:21:53 GMT-0500 (Central Daylight Time),592282.2000000477,CFD-BF-010-005-HC.jpg,1700,dash,I,z,1166,1,1,11746.600000023842,580535.6000000238,8050,ATS,A,4
4,test,3,C,mfborder.png,1,m,Tue May 20 2025 15:21:53 GMT-0500 (Central Daylight Time),594898.2000000477,CFD-BM-029-026-HC.jpg,1200,dash,I,m,1383,6,1,14362.600000023842,580535.6000000238,8050,ATS,A,5
5,test,3,C,haborder.png,1,m,Tue May 20 2025 15:21:53 GMT-0500 (Central Daylight Time),597280.2999999523,CFD-WF-002-008-HC.jpg,1500,solid,I,m,853,11,1,16744.699999928474,580535.6000000238,8050,ATS,A,6
6,test,3,C,mfborder.png,1,m,Tue May 20 2025 15:21:53 GMT-0500 (Central Daylight Time),599263.0,CFD-WM-006-013-HC.jpg,1000,dash,I,m,962,4,1,18727.399999976158,580535.6000000238,8050,ATS,A,7
7,test,3,C,mfborder.png,1,z,Tue May 20 2025 15:21:53 GMT-0500 (Central Daylight Time),602278.6000000238,CFD-BF-010-005-HC.jpg,1700,dash,I,z,1288,1,1,21743.0,580535.6000000238,8050,ATS,A,8
8,test,3,C,haborder.png,1,m,Tue May 20 2025 15:21:53 GMT-0500 (Central Daylight Time),604744.7999999523,CFD-BF-028-020-HC.jpg,1600,solid,I,m,844,10,1,24209.199999928474,580535.6000000238,8050,ATS,A,9
9,test,3,C,haborder.png,1,m,Tue May 20 2025 15:21:53 GMT-0500 (Central Daylight Time),606477.3999999762,CFD-WF-017-016-HC.jpg,1000,solid,I,m,705,12,1,25941.799999952316,580535.6000000238,8050,ATS,A,10
10,test,3,C,mfborder.png,1,z,Tue May 20 2025 15:21:53 GMT-0500 (Central Daylight Time),609393.3999999762,CFD-BF-023-013-A.jpg,1600,dash,I,z,1292,2,1,28857.799999952316,580535.6000000238,8050,ATS,A,11
10,test,3,C,haborder.png,0,z,Tue May 20 2025 15:21:53 GMT-0500 (Central Daylight Time),611859.0,CFD-WM-013-015-A.jpg,1400,solid,I,m,1041,7,1,31323.399999976158,580535.6000000238,8050,ATS,A,12
10,test,3,C,haborder.png,0,z,Tue May 20 2025 15:21:53 GMT-0500 (Central Daylight Time),614441.5,CFD-BM-010-019-A.jpg,1700,solid,I,m,858,9,1,33905.89999997616,580535.6000000238,8050,ATS,A,13
11,test,3,C,haborder.png,1,z,Tue May 20 2025 15:21:53 GMT-0500 (Central Daylight Time),617107.2000000477,CFD-BM-005-010-A.jpg,1900,solid,I,z,749,8,1,36571.60000002384,580535.6000000238,8050,ATS,A,14
12,test,3,C,mfborder.png,1,m,Tue May 20 2025 15:21:53 GMT-0500 (Central Daylight Time),618823.7000000477,CFD-WM-006-013-HC.jpg,1000,dash,I,m,694,4,1,38288.10000002384,580535.6000000238,8050,ATS,A,15
13,test,3,C,mfborder.png,1,z,Tue May 20 2025 15:21:53 GMT-0500 (Central Daylight Time),621273.8999999762,CFD-WF-003-014-A.jpg,1500,dash,I,z,918,3,1,40738.299999952316,580535.6000000238,8050,ATS,A,16
14,test,3,C,haborder.png,1,z,Tue May 20 2025 15:21:53 GMT-0500 (Central Daylight Time),623572.1000000238,CFD-WM-013-015-A.jpg,1400,solid,I,z,881,7,1,43036.5,580535.6000000238,8050,ATS,A,17
15,test,3,C,haborder.png,1,m,Tue May 20 2025 15:21:53 GMT-0500 (Central Daylight Time),625454.7000000477,CFD-WF-017-016-HC.jpg,1000,solid,I,m,854,12,1,44919.10000002384,580535.6000000238,8050,ATS,A,18
16,test,3,C,haborder.png,1,m,Tue May 20 2025 15:21:53 GMT-0500 (Central Daylight Time),627687.5,CFD-WF-002-008-HC.jpg,1500,solid,I,m,711,11,1,47151.89999997616,580535.6000000238,8050,ATS,A,19
17,test,3,C,mfborder.png,1,m,Tue May 20 2025 15:21:53 GMT-0500 (Central Daylight Time),630853.0,CFD-WM-019-013-A.jpg,2000,dash,I,m,1147,5,1,50317.39999997616,580535.6000000238,8050,ATS,A,20
18,test,3,C,mfborder.png,1,m,Tue May 20 2025 15:21:53 GMT-0500 (Central Daylight Time),632852.5,CFD-BM-029-026-HC.jpg,1200,dash,I,m,780,6,1,52316.89999997616,580535.6000000238,8050,ATS,A,21
18,test,3,C,haborder.png,0,z,Tue May 20 2025 15:21:53 GMT-0500 (Central Daylight Time),635401.7000000477,CFD-BM-010-019-A.jpg,1700,solid,I,m,825,9,1,54866.10000002384,580535.6000000238,8050,ATS,A,22
18,test,3,C,mfborder.png,0,z,Tue May 20 2025 15:21:53 GMT-0500 (Central Daylight Time),638537.3999999762,CFD-BF-023-013-A.jpg,1600,dash,I,None,1516,2,1,58001.799999952316,580535.6000000238,8050,ATS,A,23
19,test,3,C,haborder.png,1,z,Tue May 20 2025 15:21:53 GMT-0500 (Central Daylight Time),641199.7999999523,CFD-BM-005-010-A.jpg,1900,solid,I,z,744,8,1,60664.199999928474,580535.6000000238,8050,ATS,A,24
1,test,4,C,haborder.png,1,z,Tue May 20 2025 15:21:53 GMT-0500 (Central Daylight Time),648014.3999999762,CFD-BF-039-039-A.jpg,1900,solid,I,z,1003,8,1,2932.399999976158,645082.0,8050,ATS,A,1
2,test,4,C,haborder.png,1,m,Tue May 20 2025 15:21:53 GMT-0500 (Central Daylight Time),650363.7000000477,CFD-WM-004-005-HC.jpg,1500,solid,I,m,824,11,1,5281.700000047684,645082.0,8050,ATS,A,2
3,test,4,C,haborder.png,1,z,Tue May 20 2025 15:21:53 GMT-0500 (Central Daylight Time),653012.8999999762,CFD-BF-039-039-A.jpg,1900,solid,I,z,723,8,1,7930.899999976158,645082.0,8050,ATS,A,3
4,test,4,C,mfborder.png,1,m,Tue May 20 2025 15:21:53 GMT-0500 (Central Daylight Time),656245.1000000238,CFD-BM-005-010-A.jpg,2000,dash,I,m,1214,5,1,11163.100000023842,645082.0,8050,ATS,A,4
5,test,4,C,haborder.png,1,m,Tue May 20 2025 15:21:53 GMT-0500 (Central Daylight Time),658427.7000000477,CFD-WM-004-005-HC.jpg,1500,solid,I,m,654,11,1,13345.700000047684,645082.0,8050,ATS,A,5
6,test,4,C,haborder.png,1,m,Tue May 20 2025 15:21:53 GMT-0500 (Central Daylight Time),660027.2999999523,CFD-WM-004-005-HC.jpg,1000,solid,I,m,573,12,1,14945.299999952316,645082.0,8050,ATS,A,6
7,test,4,C,mfborder.png,1,z,Tue May 20 2025 15:21:53 GMT-0500 (Central Daylight Time),662479.8999999762,CFD-BF-028-020-HC.jpg,1500,dash,I,z,931,3,1,17397.899999976158,645082.0,8050,ATS,A,7
7,test,4,C,mfborder.png,0,m,Tue May 20 2025 15:21:53 GMT-0500 (Central Daylight Time),664742.3999999762,CFD-WM-013-015-A.jpg,1200,dash,I,z,1036,6,1,19660.399999976158,645082.0,8050,ATS,A,8
8,test,4,C,mfborder.png,1,m,Tue May 20 2025 15:21:53 GMT-0500 (Central Daylight Time),667958.2999999523,CFD-BM-005-010-A.jpg,2000,dash,I,m,1196,5,1,22876.299999952316,645082.0,8050,ATS,A,9
9,test,4,C,mfborder.png,1,m,Tue May 20 2025 15:21:53 GMT-0500 (Central Daylight Time),669857.5,CFD-BM-017-052-HC.jpg,1000,dash,I,m,867,4,1,24775.5,645082.0,8050,ATS,A,10
10,test,4,C,haborder.png,1,m,Tue May 20 2025 15:21:53 GMT-0500 (Central Daylight Time),671706.7000000477,CFD-WM-004-005-HC.jpg,1000,solid,I,m,823,12,1,26624.700000047684,645082.0,8050,ATS,A,11
11,test,4,C,mfborder.png,1,z,Tue May 20 2025 15:21:53 GMT-0500 (Central Daylight Time),674256.2000000477,CFD-WF-019-015-A.jpg,1600,dash,I,z,920,2,1,29174.200000047684,645082.0,8050,ATS,A,12
12,test,4,C,mfborder.png,1,z,Tue May 20 2025 15:21:53 GMT-0500 (Central Daylight Time),676438.7000000477,CFD-WF-019-015-A.jpg,1600,dash,I,z,562,2,1,31356.700000047684,645082.0,8050,ATS,A,13
13,test,4,C,haborder.png,1,m,Tue May 20 2025 15:21:53 GMT-0500 (Central Daylight Time),678888.1000000238,CFD-BM-029-026-HC.jpg,1600,solid,I,m,826,10,1,33806.10000002384,645082.0,8050,ATS,A,14
14,test,4,C,haborder.png,1,m,Tue May 20 2025 15:21:53 GMT-0500 (Central Daylight Time),681187.6000000238,CFD-BM-029-026-HC.jpg,1600,solid,I,m,674,10,1,36105.60000002384,645082.0,8050,ATS,A,15
15,test,4,C,haborder.png,1,z,Tue May 20 2025 15:21:53 GMT-0500 (Central Daylight Time),683786.5,CFD-WF-003-014-A.jpg,1700,solid,I,z,875,9,1,38704.5,645082.0,8050,ATS,A,16
16,test,4,C,mfborder.png,1,z,Tue May 20 2025 15:21:53 GMT-0500 (Central Daylight Time),686102.8999999762,CFD-BF-028-020-HC.jpg,1500,dash,I,z,748,3,1,41020.89999997616,645082.0,8050,ATS,A,17
17,test,4,C,haborder.png,1,z,Tue May 20 2025 15:21:53 GMT-0500 (Central Daylight Time),688251.7000000477,CFD-BF-023-013-A.jpg,1400,solid,I,z,732,7,1,43169.700000047684,645082.0,8050,ATS,A,18
18,test,4,C,haborder.png,1,z,Tue May 20 2025 15:21:53 GMT-0500 (Central Daylight Time),690451.1000000238,CFD-BF-023-013-A.jpg,1400,solid,I,z,782,7,1,45369.10000002384,645082.0,8050,ATS,A,19
19,test,4,C,mfborder.png,1,z,Tue May 20 2025 15:21:53 GMT-0500 (Central Daylight Time),693116.7999999523,CFD-WF-017-016-HC.jpg,1700,dash,I,z,938,1,1,48034.799999952316,645082.0,8050,ATS,A,20
20,test,4,C,mfborder.png,1,m,Tue May 20 2025 15:21:53 GMT-0500 (Central Daylight Time),695016.3999999762,CFD-BM-017-052-HC.jpg,1000,dash,I,m,868,4,1,49934.39999997616,645082.0,8050,ATS,A,21
21,test,4,C,haborder.png,1,z,Tue May 20 2025 15:21:53 GMT-0500 (Central Daylight Time),697598.8999999762,CFD-WF-003-014-A.jpg,1700,solid,I,z,854,9,1,52516.89999997616,645082.0,8050,ATS,A,22
22,test,4,C,mfborder.png,1,z,Tue May 20 2025 15:21:53 GMT-0500 (Central Daylight Time),700381.2999999523,CFD-WF-017-016-HC.jpg,1700,dash,I,z,1063,1,1,55299.299999952316,645082.0,8050,ATS,A,23
23,test,4,C,mfborder.png,1,m,Tue May 20 2025 15:21:53 GMT-0500 (Central Daylight Time),702613.7999999523,CFD-WM-013-015-A.jpg,1200,dash,I,m,1005,6,1,57531.799999952316,645082.0,8050,ATS,A,24
