acc_sum,block,block_c,change,condition,correct,correct_response,datetime,endtime,face,project,response,response_time,row_sel,session_number,start_end,starttime,subject_id,task,task_vers,trial
0,prac,1,,1-Back,,,Wed Jan 07 2026 16:09:00 GMT-0600 (Central Standard Time),,097_m_f_n_a.png,I,space,4714,1,2,,,8076,NNB,B,0
1,prac,1,0.0,1-Back,1.0,m,Wed Jan 07 2026 16:09:00 GMT-0600 (Central Standard Time),83506.10000002384,152_y_f_n_a.png,I,m,834,2,2,1603.6000000238419,81902.5,8076,NNB,B,1
2,prac,1,1.0,1-Back,1.0,z,Wed Jan 07 2026 16:09:00 GMT-0600 (Central Standard Time),85389.10000002384,152_y_f_n_a.png,I,z,1101,3,2,1872.8999999761581,83516.20000004768,8076,NNB,B,2
3,prac,1,0.0,1-Back,1.0,m,Wed Jan 07 2026 16:09:00 GMT-0600 (Central Standard Time),87188.29999995232,176_o_m_n_a.png,I,m,919,4,2,1788.3999999761581,85399.89999997616,8076,NNB,B,3
4,prac,1,0.0,1-Back,1.0,m,Wed Jan 07 2026 16:09:00 GMT-0600 (Central Standard Time),88787.79999995232,126_m_m_n_a.png,I,m,819,5,2,1590.5999999046326,87197.20000004768,8076,NNB,B,4
5,prac,1,1.0,1-Back,1.0,z,Wed Jan 07 2026 16:09:00 GMT-0600 (Central Standard Time),90354.0,126_m_m_n_a.png,I,z,780,6,2,1557.2000000476837,88796.79999995232,8076,NNB,B,5
6,prac,1,0.0,1-Back,1.0,m,Wed Jan 07 2026 16:09:00 GMT-0600 (Central Standard Time),92070.20000004768,086_o_f_n_a.png,I,m,933,7,2,1706.4000000953674,90363.79999995232,8076,NNB,B,6
6,prac,1,0.0,1-Back,0.0,m,Wed Jan 07 2026 16:09:00 GMT-0600 (Central Standard Time),93569.79999995232,178_m_m_n_a.png,I,z,638,8,2,1489.8999999761581,92079.89999997616,8076,NNB,B,7
7,prac,1,0.0,1-Back,1.0,m,Wed Jan 07 2026 16:09:00 GMT-0600 (Central Standard Time),96303.39999997616,097_m_f_n_a.png,I,m,1948,9,2,2723.100000023842,93580.29999995232,8076,NNB,B,8
7,prac,1,1.0,1-Back,0.0,z,Wed Jan 07 2026 16:09:00 GMT-0600 (Central Standard Time),98084.89999997616,097_m_f_n_a.png,I,m,1002,10,2,1774.1000000238419,96310.79999995232,8076,NNB,B,9
8,prac,1,0.0,1-Back,1.0,m,Wed Jan 07 2026 16:09:00 GMT-0600 (Central Standard Time),100117.60000002384,176_o_m_n_a.png,I,m,1249,11,2,2022.5,98095.10000002384,8076,NNB,B,10
8,prac,1,0.0,1-Back,0.0,m,Wed Jan 07 2026 16:09:00 GMT-0600 (Central Standard Time),102083.60000002384,173_y_f_n_a.png,I,z,1098,12,2,1956.2000000476837,100127.39999997616,8076,NNB,B,11
0,test,1,0.0,1-Back,,,Wed Jan 07 2026 16:09:00 GMT-0600 (Central Standard Time),102083.60000002384,152_y_f_n_a.png,I,space,16191,1,2,1956.2000000476837,100127.39999997616,8076,NNB,B,0
1,test,1,0.0,1-Back,1.0,m,Wed Jan 07 2026 16:09:00 GMT-0600 (Central Standard Time),138588.89999997616,029_m_f_n_a.png,I,m,704,2,2,1726.1000000238419,136862.79999995232,8076,NNB,B,1
2,test,1,0.0,1-Back,1.0,m,Wed Jan 07 2026 16:09:00 GMT-0600 (Central Standard Time),140488.29999995232,173_y_f_n_a.png,I,m,875,3,2,1893.3999999761581,138594.89999997616,8076,NNB,B,2
3,test,1,1.0,1-Back,1.0,z,Wed Jan 07 2026 16:09:00 GMT-0600 (Central Standard Time),142237.70000004768,173_y_f_n_a.png,I,z,720,4,2,1744.2000000476837,140493.5,8076,NNB,B,3
4,test,1,0.0,1-Back,1.0,m,Wed Jan 07 2026 16:09:00 GMT-0600 (Central Standard Time),144167.29999995232,029_m_f_n_a.png,I,m,913,5,2,1923.0,142244.29999995232,8076,NNB,B,4
5,test,1,0.0,1-Back,1.0,m,Wed Jan 07 2026 16:09:00 GMT-0600 (Central Standard Time),145886.60000002384,176_o_m_n_a.png,I,m,687,6,2,1713.8000000715256,144172.79999995232,8076,NNB,B,5
6,test,1,1.0,1-Back,1.0,z,Wed Jan 07 2026 16:09:00 GMT-0600 (Central Standard Time),147552.70000004768,176_o_m_n_a.png,I,z,642,7,2,1659.4000000953674,145893.29999995232,8076,NNB,B,6
7,test,1,0.0,1-Back,1.0,m,Wed Jan 07 2026 16:09:00 GMT-0600 (Central Standard Time),149485.39999997616,126_m_m_n_a.png,I,m,904,8,2,1927.5,147557.89999997616,8076,NNB,B,7
8,test,1,0.0,1-Back,1.0,m,Wed Jan 07 2026 16:09:00 GMT-0600 (Central Standard Time),151218.10000002384,086_o_f_n_a.png,I,m,715,9,2,1726.5,149491.60000002384,8076,NNB,B,8
9,test,1,0.0,1-Back,1.0,m,Wed Jan 07 2026 16:09:00 GMT-0600 (Central Standard Time),153400.79999995232,126_m_m_n_a.png,I,m,1150,10,2,2178.2999999523163,151222.5,8076,NNB,B,9
10,test,1,0.0,1-Back,1.0,m,Wed Jan 07 2026 16:09:00 GMT-0600 (Central Standard Time),155283.70000004768,153_y_m_n_a.png,I,m,855,11,2,1876.7000000476837,153407.0,8076,NNB,B,10
11,test,1,1.0,1-Back,1.0,z,Wed Jan 07 2026 16:09:00 GMT-0600 (Central Standard Time),157099.60000002384,153_y_m_n_a.png,I,z,797,12,2,1810.3999999761581,155289.20000004768,8076,NNB,B,11
12,test,1,0.0,1-Back,1.0,m,Wed Jan 07 2026 16:09:00 GMT-0600 (Central Standard Time),159249.10000002384,110_o_f_n_a.png,I,m,1132,13,2,2144.7000000476837,157104.39999997616,8076,NNB,B,12
13,test,1,1.0,1-Back,1.0,z,Wed Jan 07 2026 16:09:00 GMT-0600 (Central Standard Time),161115.0,110_o_f_n_a.png,I,z,847,14,2,1861.2000000476837,159253.79999995232,8076,NNB,B,13
14,test,1,0.0,1-Back,1.0,m,Wed Jan 07 2026 16:09:00 GMT-0600 (Central Standard Time),163414.39999997616,013_y_m_n_a.png,I,m,1277,15,2,2295.0,161119.39999997616,8076,NNB,B,14
15,test,1,0.0,1-Back,1.0,m,Wed Jan 07 2026 16:09:00 GMT-0600 (Central Standard Time),165347.0,097_m_f_n_a.png,I,m,914,16,2,1927.1000000238419,163419.89999997616,8076,NNB,B,15
16,test,1,0.0,1-Back,1.0,m,Wed Jan 07 2026 16:09:00 GMT-0600 (Central Standard Time),167013.29999995232,065_o_m_n_a.png,I,m,645,17,2,1662.5999999046326,165350.70000004768,8076,NNB,B,16
17,test,1,0.0,1-Back,1.0,m,Wed Jan 07 2026 16:09:00 GMT-0600 (Central Standard Time),168679.20000004768,097_m_f_n_a.png,I,m,643,18,2,1660.9000000953674,167018.29999995232,8076,NNB,B,17
0,test,2,0.0,1-Back,,,Wed Jan 07 2026 16:09:00 GMT-0600 (Central Standard Time),168679.20000004768,126_m_m_n_a.png,I,space,1673,1,2,1660.9000000953674,167018.29999995232,8076,NNB,B,0
1,test,2,0.0,1-Back,1.0,m,Wed Jan 07 2026 16:09:00 GMT-0600 (Central Standard Time),174227.60000002384,029_m_f_n_a.png,I,m,830,2,2,1843.6000000238419,172384.0,8076,NNB,B,1
2,test,2,1.0,1-Back,1.0,z,Wed Jan 07 2026 16:09:00 GMT-0600 (Central Standard Time),175827.0,029_m_f_n_a.png,I,z,573,3,2,1595.0,174232.0,8076,NNB,B,2
3,test,2,0.0,1-Back,1.0,m,Wed Jan 07 2026 16:09:00 GMT-0600 (Central Standard Time),177543.10000002384,126_m_m_n_a.png,I,m,685,4,2,1711.8999999761581,175831.20000004768,8076,NNB,B,3
4,test,2,0.0,1-Back,1.0,m,Wed Jan 07 2026 16:09:00 GMT-0600 (Central Standard Time),179292.60000002384,153_y_m_n_a.png,I,m,729,5,2,1743.5,177549.10000002384,8076,NNB,B,4
5,test,2,0.0,1-Back,1.0,m,Wed Jan 07 2026 16:09:00 GMT-0600 (Central Standard Time),181025.39999997616,152_y_f_n_a.png,I,m,708,6,2,1728.0,179297.39999997616,8076,NNB,B,5
6,test,2,1.0,1-Back,1.0,z,Wed Jan 07 2026 16:09:00 GMT-0600 (Central Standard Time),182691.39999997616,152_y_f_n_a.png,I,z,639,7,2,1661.2999999523163,181030.10000002384,8076,NNB,B,6
7,test,2,0.0,1-Back,1.0,m,Wed Jan 07 2026 16:09:00 GMT-0600 (Central Standard Time),184291.10000002384,153_y_m_n_a.png,I,m,573,8,2,1595.7000000476837,182695.39999997616,8076,NNB,B,7
8,test,2,0.0,1-Back,1.0,m,Wed Jan 07 2026 16:09:00 GMT-0600 (Central Standard Time),186073.89999997616,110_o_f_n_a.png,I,m,757,9,2,1777.6000000238419,184296.29999995232,8076,NNB,B,8
9,test,2,0.0,1-Back,1.0,m,Wed Jan 07 2026 16:09:00 GMT-0600 (Central Standard Time),187739.89999997616,178_m_m_n_a.png,I,m,638,10,2,1661.6999999284744,186078.20000004768,8076,NNB,B,9
10,test,2,1.0,1-Back,1.0,z,Wed Jan 07 2026 16:09:00 GMT-0600 (Central Standard Time),189506.0,178_m_m_n_a.png,I,z,748,11,2,1761.3999999761581,187744.60000002384,8076,NNB,B,10
11,test,2,0.0,1-Back,1.0,m,Wed Jan 07 2026 16:09:00 GMT-0600 (Central Standard Time),191355.79999995232,110_o_f_n_a.png,I,m,686,12,2,1845.0999999046326,189510.70000004768,8076,NNB,B,11
12,test,2,0.0,1-Back,1.0,m,Wed Jan 07 2026 16:09:00 GMT-0600 (Central Standard Time),192988.29999995232,086_o_f_n_a.png,I,m,613,13,2,1626.8999999761581,191361.39999997616,8076,NNB,B,12
13,test,2,0.0,1-Back,1.0,m,Wed Jan 07 2026 16:09:00 GMT-0600 (Central Standard Time),194621.29999995232,176_o_m_n_a.png,I,m,604,14,2,1627.5999999046326,192993.70000004768,8076,NNB,B,13
14,test,2,0.0,1-Back,1.0,m,Wed Jan 07 2026 16:09:00 GMT-0600 (Central Standard Time),196404.0,065_o_m_n_a.png,I,m,763,15,2,1778.2999999523163,194625.70000004768,8076,NNB,B,14
15,test,2,1.0,1-Back,1.0,z,Wed Jan 07 2026 16:09:00 GMT-0600 (Central Standard Time),198286.70000004768,065_o_m_n_a.png,I,z,853,16,2,1878.6000000238419,196408.10000002384,8076,NNB,B,15
16,test,2,0.0,1-Back,1.0,m,Wed Jan 07 2026 16:09:00 GMT-0600 (Central Standard Time),200019.5,013_y_m_n_a.png,I,m,705,17,2,1727.8999999761581,198291.60000002384,8076,NNB,B,16
17,test,2,1.0,1-Back,1.0,z,Wed Jan 07 2026 16:09:00 GMT-0600 (Central Standard Time),201785.60000002384,013_y_m_n_a.png,I,z,749,18,2,1762.3000000715256,200023.29999995232,8076,NNB,B,17
0,test,3,1.0,1-Back,,,Wed Jan 07 2026 16:09:00 GMT-0600 (Central Standard Time),201785.60000002384,173_y_f_n_a.png,I,space,1159,1,2,1762.3000000715256,200023.29999995232,8076,NNB,B,0
1,test,3,0.0,1-Back,1.0,m,Wed Jan 07 2026 16:09:00 GMT-0600 (Central Standard Time),206634.10000002384,065_o_m_n_a.png,I,m,557,1,2,1576.0,205058.10000002384,8076,NNB,B,1
2,test,3,1.0,1-Back,1.0,z,Wed Jan 07 2026 16:09:00 GMT-0600 (Central Standard Time),208416.79999995232,065_o_m_n_a.png,I,z,758,1,2,1777.3999999761581,206639.39999997616,8076,NNB,B,2
3,test,3,0.0,1-Back,1.0,m,Wed Jan 07 2026 16:09:00 GMT-0600 (Central Standard Time),210049.70000004768,097_m_f_n_a.png,I,m,608,1,2,1629.3000000715256,208420.39999997616,8076,NNB,B,3
4,test,3,1.0,1-Back,1.0,z,Wed Jan 07 2026 16:09:00 GMT-0600 (Central Standard Time),211865.89999997616,097_m_f_n_a.png,I,z,799,1,2,1811.2999999523163,210054.60000002384,8076,NNB,B,4
5,test,3,0.0,1-Back,1.0,m,Wed Jan 07 2026 16:09:00 GMT-0600 (Central Standard Time),213632.0,110_o_f_n_a.png,I,m,735,1,2,1762.2000000476837,211869.79999995232,8076,NNB,B,5
6,test,3,0.0,1-Back,1.0,m,Wed Jan 07 2026 16:09:00 GMT-0600 (Central Standard Time),215331.5,153_y_m_n_a.png,I,m,680,1,2,1694.8999999761581,213636.60000002384,8076,NNB,B,6
7,test,3,0.0,1-Back,1.0,m,Wed Jan 07 2026 16:09:00 GMT-0600 (Central Standard Time),217014.29999995232,110_o_f_n_a.png,I,m,653,1,2,1677.3999999761581,215336.89999997616,8076,NNB,B,7
8,test,3,0.0,1-Back,1.0,m,Wed Jan 07 2026 16:09:00 GMT-0600 (Central Standard Time),218663.60000002384,013_y_m_n_a.png,I,m,626,1,2,1645.0,217018.60000002384,8076,NNB,B,8
9,test,3,1.0,1-Back,1.0,z,Wed Jan 07 2026 16:09:00 GMT-0600 (Central Standard Time),220297.70000004768,013_y_m_n_a.png,I,z,601,1,2,1629.4000000953674,218668.29999995232,8076,NNB,B,9
10,test,3,0.0,1-Back,1.0,m,Wed Jan 07 2026 16:09:00 GMT-0600 (Central Standard Time),221812.79999995232,029_m_f_n_a.png,I,m,496,1,2,1510.3999999761581,220302.39999997616,8076,NNB,B,10
11,test,3,0.0,1-Back,1.0,m,Wed Jan 07 2026 16:09:00 GMT-0600 (Central Standard Time),223412.20000004768,152_y_f_n_a.png,I,m,572,1,2,1592.2000000476837,221820.0,8076,NNB,B,11
12,test,3,1.0,1-Back,1.0,z,Wed Jan 07 2026 16:09:00 GMT-0600 (Central Standard Time),225045.0,152_y_f_n_a.png,I,z,604,1,2,1626.8999999761581,223418.10000002384,8076,NNB,B,12
13,test,3,0.0,1-Back,1.0,m,Wed Jan 07 2026 16:09:00 GMT-0600 (Central Standard Time),226594.39999997616,029_m_f_n_a.png,I,m,531,1,2,1543.6000000238419,225050.79999995232,8076,NNB,B,13
14,test,3,0.0,1-Back,1.0,m,Wed Jan 07 2026 16:09:00 GMT-0600 (Central Standard Time),228377.29999995232,126_m_m_n_a.png,I,m,750,1,2,1778.0999999046326,226599.20000004768,8076,NNB,B,14
15,test,3,1.0,1-Back,1.0,z,Wed Jan 07 2026 16:09:00 GMT-0600 (Central Standard Time),230076.89999997616,126_m_m_n_a.png,I,z,679,1,2,1696.1000000238419,228380.79999995232,8076,NNB,B,15
16,test,3,0.0,1-Back,1.0,m,Wed Jan 07 2026 16:09:00 GMT-0600 (Central Standard Time),231626.29999995232,086_o_f_n_a.png,I,m,532,1,2,1544.8999999761581,230081.39999997616,8076,NNB,B,16
17,test,3,1.0,1-Back,1.0,z,Wed Jan 07 2026 16:09:00 GMT-0600 (Central Standard Time),233325.79999995232,086_o_f_n_a.png,I,z,670,1,2,1695.0999999046326,231630.70000004768,8076,NNB,B,17
0,test,4,1.0,1-Back,,,Wed Jan 07 2026 16:09:00 GMT-0600 (Central Standard Time),233325.79999995232,097_m_f_n_a.png,I,space,1115,1,2,1695.0999999046326,231630.70000004768,8076,NNB,B,0
1,test,4,0.0,1-Back,1.0,m,Wed Jan 07 2026 16:09:00 GMT-0600 (Central Standard Time),238157.60000002384,065_o_m_n_a.png,I,m,595,2,2,1610.6000000238419,236547.0,8076,NNB,B,1
2,test,4,0.0,1-Back,1.0,m,Wed Jan 07 2026 16:09:00 GMT-0600 (Central Standard Time),239823.70000004768,097_m_f_n_a.png,I,m,643,3,2,1658.8000000715256,238164.89999997616,8076,NNB,B,2
3,test,4,0.0,1-Back,1.0,m,Wed Jan 07 2026 16:09:00 GMT-0600 (Central Standard Time),241456.60000002384,110_o_f_n_a.png,I,m,601,4,2,1628.2000000476837,239828.39999997616,8076,NNB,B,3
4,test,4,1.0,1-Back,1.0,z,Wed Jan 07 2026 16:09:00 GMT-0600 (Central Standard Time),243106.0,110_o_f_n_a.png,I,z,632,5,2,1643.7000000476837,241462.29999995232,8076,NNB,B,4
5,test,4,0.0,1-Back,1.0,m,Wed Jan 07 2026 16:09:00 GMT-0600 (Central Standard Time),244622.10000002384,152_y_f_n_a.png,I,m,494,6,2,1510.6000000238419,243111.5,8076,NNB,B,5
6,test,4,0.0,1-Back,1.0,m,Wed Jan 07 2026 16:09:00 GMT-0600 (Central Standard Time),246421.79999995232,153_y_m_n_a.png,I,m,770,7,2,1795.2999999523163,244626.5,8076,NNB,B,6
7,test,4,1.0,1-Back,1.0,z,Wed Jan 07 2026 16:09:00 GMT-0600 (Central Standard Time),248121.10000002384,153_y_m_n_a.png,I,z,683,8,2,1695.1000000238419,246426.0,8076,NNB,B,7
8,test,4,0.0,1-Back,1.0,m,Wed Jan 07 2026 16:09:00 GMT-0600 (Central Standard Time),249603.79999995232,152_y_f_n_a.png,I,m,455,9,2,1478.5,248125.29999995232,8076,NNB,B,8
9,test,4,0.0,1-Back,1.0,m,Wed Jan 07 2026 16:09:00 GMT-0600 (Central Standard Time),251186.70000004768,178_m_m_n_a.png,I,m,556,10,2,1578.1000000238419,249608.60000002384,8076,NNB,B,9
10,test,4,1.0,1-Back,1.0,z,Wed Jan 07 2026 16:09:00 GMT-0600 (Central Standard Time),252786.29999995232,178_m_m_n_a.png,I,z,582,11,2,1593.3999999761581,251192.89999997616,8076,NNB,B,10
11,test,4,0.0,1-Back,1.0,m,Wed Jan 07 2026 16:09:00 GMT-0600 (Central Standard Time),254369.10000002384,086_o_f_n_a.png,I,m,566,12,2,1577.8000000715256,252791.29999995232,8076,NNB,B,11
12,test,4,0.0,1-Back,1.0,m,Wed Jan 07 2026 16:09:00 GMT-0600 (Central Standard Time),256201.79999995232,176_o_m_n_a.png,I,m,807,13,2,1826.0999999046326,254375.70000004768,8076,NNB,B,12
13,test,4,0.0,1-Back,1.0,m,Wed Jan 07 2026 16:09:00 GMT-0600 (Central Standard Time),257851.39999997616,086_o_f_n_a.png,I,m,631,14,2,1645.3999999761581,256206.0,8076,NNB,B,13
14,test,4,0.0,1-Back,1.0,m,Wed Jan 07 2026 16:09:00 GMT-0600 (Central Standard Time),259450.79999995232,173_y_f_n_a.png,I,m,581,15,2,1593.5999999046326,257857.20000004768,8076,NNB,B,14
15,test,4,1.0,1-Back,1.0,z,Wed Jan 07 2026 16:09:00 GMT-0600 (Central Standard Time),260983.89999997616,173_y_f_n_a.png,I,z,509,16,2,1528.1999999284744,259455.70000004768,8076,NNB,B,15
16,test,4,0.0,1-Back,1.0,m,Wed Jan 07 2026 16:09:00 GMT-0600 (Central Standard Time),263016.5,029_m_f_n_a.png,I,m,888,17,2,2026.8999999761581,260989.60000002384,8076,NNB,B,16
17,test,4,1.0,1-Back,1.0,z,Wed Jan 07 2026 16:09:00 GMT-0600 (Central Standard Time),264599.2000000477,029_m_f_n_a.png,I,z,560,18,2,1578.6000000238419,263020.60000002384,8076,NNB,B,17
0,test,5,1.0,1-Back,,,Wed Jan 07 2026 16:09:00 GMT-0600 (Central Standard Time),264599.2000000477,176_o_m_n_a.png,I,space,985,1,2,1578.6000000238419,263020.60000002384,8076,NNB,B,0
1,test,5,1.0,1-Back,1.0,z,Wed Jan 07 2026 16:09:00 GMT-0600 (Central Standard Time),269381.2000000477,176_o_m_n_a.png,I,z,738,2,2,1758.9000000953674,267622.2999999523,8076,NNB,B,1
2,test,5,0.0,1-Back,1.0,m,Wed Jan 07 2026 16:09:00 GMT-0600 (Central Standard Time),271164.0,152_y_f_n_a.png,I,m,755,3,2,1778.1000000238419,269385.89999997616,8076,NNB,B,2
3,test,5,0.0,1-Back,1.0,m,Wed Jan 07 2026 16:09:00 GMT-0600 (Central Standard Time),272929.89999997616,153_y_m_n_a.png,I,m,749,4,2,1761.6000000238419,271168.2999999523,8076,NNB,B,3
4,test,5,0.0,1-Back,1.0,m,Wed Jan 07 2026 16:09:00 GMT-0600 (Central Standard Time),274479.60000002384,152_y_f_n_a.png,I,m,518,5,2,1544.2000000476837,272935.39999997616,8076,NNB,B,4
5,test,5,0.0,1-Back,1.0,m,Wed Jan 07 2026 16:09:00 GMT-0600 (Central Standard Time),276145.60000002384,126_m_m_n_a.png,I,m,649,6,2,1662.3000000715256,274483.2999999523,8076,NNB,B,5
6,test,5,1.0,1-Back,1.0,z,Wed Jan 07 2026 16:09:00 GMT-0600 (Central Standard Time),277811.7000000477,126_m_m_n_a.png,I,z,639,7,2,1660.6000000238419,276151.10000002384,8076,NNB,B,6
7,test,5,0.0,1-Back,1.0,m,Wed Jan 07 2026 16:09:00 GMT-0600 (Central Standard Time),279361.39999997616,173_y_f_n_a.png,I,m,525,8,2,1545.7999999523163,277815.60000002384,8076,NNB,B,7
8,test,5,0.0,1-Back,1.0,m,Wed Jan 07 2026 16:09:00 GMT-0600 (Central Standard Time),281045.2000000477,013_y_m_n_a.png,I,m,663,9,2,1679.5,279365.7000000477,8076,NNB,B,8
9,test,5,0.0,1-Back,1.0,m,Wed Jan 07 2026 16:09:00 GMT-0600 (Central Standard Time),282761.10000002384,173_y_f_n_a.png,I,m,700,10,2,1712.2000000476837,281048.89999997616,8076,NNB,B,9
10,test,5,0.0,1-Back,1.0,m,Wed Jan 07 2026 16:09:00 GMT-0600 (Central Standard Time),284393.10000002384,086_o_f_n_a.png,I,m,616,11,2,1626.8999999761581,282766.2000000477,8076,NNB,B,10
11,test,5,1.0,1-Back,1.0,z,Wed Jan 07 2026 16:09:00 GMT-0600 (Central Standard Time),285977.0,086_o_f_n_a.png,I,z,551,12,2,1579.2000000476837,284397.7999999523,8076,NNB,B,11
12,test,5,0.0,1-Back,1.0,m,Wed Jan 07 2026 16:09:00 GMT-0600 (Central Standard Time),287475.2999999523,065_o_m_n_a.png,I,m,480,13,2,1493.2999999523163,285982.0,8076,NNB,B,12
13,test,5,0.0,1-Back,1.0,m,Wed Jan 07 2026 16:09:00 GMT-0600 (Central Standard Time),289158.2000000477,097_m_f_n_a.png,I,m,661,14,2,1679.0,287479.2000000477,8076,NNB,B,13
14,test,5,1.0,1-Back,1.0,z,Wed Jan 07 2026 16:09:00 GMT-0600 (Central Standard Time),290757.89999997616,097_m_f_n_a.png,I,z,570,15,2,1594.6999999284744,289163.2000000477,8076,NNB,B,14
15,test,5,0.0,1-Back,1.0,m,Wed Jan 07 2026 16:09:00 GMT-0600 (Central Standard Time),292357.2000000477,065_o_m_n_a.png,I,m,578,16,2,1594.9000000953674,290762.2999999523,8076,NNB,B,15
16,test,5,0.0,1-Back,1.0,m,Wed Jan 07 2026 16:09:00 GMT-0600 (Central Standard Time),293956.7000000477,029_m_f_n_a.png,I,m,579,17,2,1595.0,292361.7000000477,8076,NNB,B,16
17,test,5,0.0,1-Back,1.0,m,Wed Jan 07 2026 16:09:00 GMT-0600 (Central Standard Time),295489.60000002384,178_m_m_n_a.png,I,m,516,18,2,1527.7000000476837,293961.89999997616,8076,NNB,B,17
0,prac,1,0.0,2-Back,,,Wed Jan 07 2026 16:09:00 GMT-0600 (Central Standard Time),295489.60000002384,013_y_m_n_a.png,I,space,4218,1,2,1527.7000000476837,293961.89999997616,8076,NNB,B,0
0,prac,1,0.0,2-Back,,,Wed Jan 07 2026 16:09:00 GMT-0600 (Central Standard Time),295489.60000002384,029_m_f_n_a.png,I,space,4218,2,2,1527.7000000476837,293961.89999997616,8076,NNB,B,0
1,prac,1,1.0,2-Back,1.0,m,Wed Jan 07 2026 16:09:00 GMT-0600 (Central Standard Time),390893.10000002384,065_o_m_n_a.png,I,m,1094,3,2,1957.8000000715256,388935.2999999523,8076,NNB,B,1
2,prac,1,0.0,2-Back,1.0,m,Wed Jan 07 2026 16:09:00 GMT-0600 (Central Standard Time),392525.89999997616,086_o_f_n_a.png,I,m,745,4,2,1625.1999999284744,390900.7000000477,8076,NNB,B,2
3,prac,1,0.0,2-Back,1.0,z,Wed Jan 07 2026 16:09:00 GMT-0600 (Central Standard Time),394075.39999997616,065_o_m_n_a.png,I,z,769,5,2,1539.7999999523163,392535.60000002384,8076,NNB,B,3
4,prac,1,1.0,2-Back,1.0,z,Wed Jan 07 2026 16:09:00 GMT-0600 (Central Standard Time),395974.7000000477,086_o_f_n_a.png,I,z,1109,6,2,1890.9000000953674,394083.7999999523,8076,NNB,B,4
5,prac,1,0.0,2-Back,1.0,m,Wed Jan 07 2026 16:09:00 GMT-0600 (Central Standard Time),397757.89999997616,178_m_m_n_a.png,I,m,912,7,2,1776.2999999523163,395981.60000002384,8076,NNB,B,5
6,prac,1,0.0,2-Back,1.0,m,Wed Jan 07 2026 16:09:00 GMT-0600 (Central Standard Time),399423.60000002384,176_o_m_n_a.png,I,m,790,8,2,1657.3999999761581,397766.2000000477,8076,NNB,B,6
7,prac,1,0.0,2-Back,1.0,m,Wed Jan 07 2026 16:09:00 GMT-0600 (Central Standard Time),400973.2000000477,173_y_f_n_a.png,I,m,688,9,2,1541.5,399431.7000000477,8076,NNB,B,7
8,prac,1,1.0,2-Back,1.0,z,Wed Jan 07 2026 16:09:00 GMT-0600 (Central Standard Time),402672.60000002384,176_o_m_n_a.png,I,z,916,10,2,1691.6000000238419,400981.0,8076,NNB,B,8
9,prac,1,0.0,2-Back,1.0,m,Wed Jan 07 2026 16:09:00 GMT-0600 (Central Standard Time),404522.0,152_y_f_n_a.png,I,m,1003,11,2,1839.8999999761581,402682.10000002384,8076,NNB,B,9
9,prac,1,0.0,2-Back,0.0,m,Wed Jan 07 2026 16:09:00 GMT-0600 (Central Standard Time),406488.2000000477,178_m_m_n_a.png,I,z,1182,12,2,1958.0,404530.2000000477,8076,NNB,B,10
0,test,1,0.0,2-Back,,,Wed Jan 07 2026 16:09:00 GMT-0600 (Central Standard Time),406488.2000000477,153_y_m_n_a.png,I,space,6595,1,2,1958.0,404530.2000000477,8076,NNB,B,0
0,test,1,0.0,2-Back,,,Wed Jan 07 2026 16:09:00 GMT-0600 (Central Standard Time),406488.2000000477,153_y_m_n_a.png,I,space,6595,2,2,1958.0,404530.2000000477,8076,NNB,B,0
1,test,1,0.0,2-Back,1.0,m,Wed Jan 07 2026 16:09:00 GMT-0600 (Central Standard Time),426198.5,086_o_f_n_a.png,I,m,769,3,2,1793.2999999523163,424405.2000000477,8076,NNB,B,1
2,test,1,0.0,2-Back,1.0,m,Wed Jan 07 2026 16:09:00 GMT-0600 (Central Standard Time),427981.2999999523,126_m_m_n_a.png,I,m,764,4,2,1778.6999999284744,426202.60000002384,8076,NNB,B,2
3,test,1,1.0,2-Back,1.0,z,Wed Jan 07 2026 16:09:00 GMT-0600 (Central Standard Time),429664.0,086_o_f_n_a.png,I,z,659,5,2,1679.1000000238419,427984.89999997616,8076,NNB,B,3
4,test,1,0.0,2-Back,1.0,m,Wed Jan 07 2026 16:09:00 GMT-0600 (Central Standard Time),431563.5,152_y_f_n_a.png,I,m,880,6,2,1895.0,429668.5,8076,NNB,B,4
5,test,1,0.0,2-Back,1.0,m,Wed Jan 07 2026 16:09:00 GMT-0600 (Central Standard Time),433762.89999997616,126_m_m_n_a.png,I,m,1173,7,2,2193.399999976158,431569.5,8076,NNB,B,5
6,test,1,1.0,2-Back,1.0,z,Wed Jan 07 2026 16:09:00 GMT-0600 (Central Standard Time),435745.60000002384,152_y_f_n_a.png,I,z,957,8,2,1978.0,433767.60000002384,8076,NNB,B,6
7,test,1,0.0,2-Back,1.0,m,Wed Jan 07 2026 16:09:00 GMT-0600 (Central Standard Time),437644.89999997616,013_y_m_n_a.png,I,m,879,9,2,1895.6999999284744,435749.2000000477,8076,NNB,B,7
8,test,1,0.0,2-Back,1.0,m,Wed Jan 07 2026 16:09:00 GMT-0600 (Central Standard Time),439410.89999997616,110_o_f_n_a.png,I,m,740,10,2,1761.6999999284744,437649.2000000477,8076,NNB,B,8
9,test,1,1.0,2-Back,1.0,z,Wed Jan 07 2026 16:09:00 GMT-0600 (Central Standard Time),441343.7999999523,013_y_m_n_a.png,I,z,909,11,2,1928.3999999761581,439415.39999997616,8076,NNB,B,9
10,test,1,0.0,2-Back,1.0,m,Wed Jan 07 2026 16:09:00 GMT-0600 (Central Standard Time),443160.0,029_m_f_n_a.png,I,m,793,12,2,1811.8999999761581,441348.10000002384,8076,NNB,B,10
10,test,1,0.0,2-Back,0.0,m,Wed Jan 07 2026 16:09:00 GMT-0600 (Central Standard Time),445742.39999997616,029_m_f_n_a.png,I,z,1552,13,2,2578.0,443164.39999997616,8076,NNB,B,11
11,test,1,0.0,2-Back,1.0,m,Wed Jan 07 2026 16:09:00 GMT-0600 (Central Standard Time),447558.5,065_o_m_n_a.png,I,m,794,14,2,1811.5,445747.0,8076,NNB,B,12
12,test,1,0.0,2-Back,1.0,m,Wed Jan 07 2026 16:09:00 GMT-0600 (Central Standard Time),449624.5,110_o_f_n_a.png,I,m,1034,15,2,2062.100000023842,447562.39999997616,8076,NNB,B,13
13,test,1,1.0,2-Back,1.0,z,Wed Jan 07 2026 16:09:00 GMT-0600 (Central Standard Time),451457.2999999523,065_o_m_n_a.png,I,z,808,16,2,1827.8999999761581,449629.39999997616,8076,NNB,B,14
14,test,1,0.0,2-Back,1.0,m,Wed Jan 07 2026 16:09:00 GMT-0600 (Central Standard Time),453323.39999997616,097_m_f_n_a.png,I,m,839,17,2,1862.3999999761581,451461.0,8076,NNB,B,15
15,test,1,0.0,2-Back,1.0,m,Wed Jan 07 2026 16:09:00 GMT-0600 (Central Standard Time),455039.60000002384,178_m_m_n_a.png,I,m,685,18,2,1711.3999999761581,453328.2000000477,8076,NNB,B,16
0,test,2,0.0,2-Back,,,Wed Jan 07 2026 16:09:00 GMT-0600 (Central Standard Time),455039.60000002384,178_m_m_n_a.png,I,space,1425,1,2,1711.3999999761581,453328.2000000477,8076,NNB,B,0
0,test,2,0.0,2-Back,,,Wed Jan 07 2026 16:09:00 GMT-0600 (Central Standard Time),455039.60000002384,173_y_f_n_a.png,I,space,1425,2,2,1711.3999999761581,453328.2000000477,8076,NNB,B,0
1,test,2,1.0,2-Back,1.0,z,Wed Jan 07 2026 16:09:00 GMT-0600 (Central Standard Time),463586.7999999523,178_m_m_n_a.png,I,z,964,3,2,1977.2999999523163,461609.5,8076,NNB,B,1
2,test,2,0.0,2-Back,1.0,m,Wed Jan 07 2026 16:09:00 GMT-0600 (Central Standard Time),465302.7999999523,097_m_f_n_a.png,I,m,694,4,2,1712.2999999523163,463590.5,8076,NNB,B,2
2,test,2,0.0,2-Back,0.0,m,Wed Jan 07 2026 16:09:00 GMT-0600 (Central Standard Time),467235.7000000477,173_y_f_n_a.png,I,z,913,5,2,1928.9000000953674,465306.7999999523,8076,NNB,B,3
3,test,2,0.0,2-Back,1.0,m,Wed Jan 07 2026 16:09:00 GMT-0600 (Central Standard Time),469251.60000002384,065_o_m_n_a.png,I,m,997,6,2,2011.3999999761581,467240.2000000477,8076,NNB,B,4
4,test,2,0.0,2-Back,1.0,m,Wed Jan 07 2026 16:09:00 GMT-0600 (Central Standard Time),471067.7000000477,152_y_f_n_a.png,I,m,796,7,2,1811.1000000238419,469256.60000002384,8076,NNB,B,5
5,test,2,1.0,2-Back,1.0,z,Wed Jan 07 2026 16:09:00 GMT-0600 (Central Standard Time),472817.2000000477,065_o_m_n_a.png,I,z,733,8,2,1744.6000000238419,471072.60000002384,8076,NNB,B,6
6,test,2,0.0,2-Back,1.0,m,Wed Jan 07 2026 16:09:00 GMT-0600 (Central Standard Time),474668.0,013_y_m_n_a.png,I,m,831,9,2,1846.7999999523163,472821.2000000477,8076,NNB,B,7
7,test,2,0.0,2-Back,1.0,m,Wed Jan 07 2026 16:09:00 GMT-0600 (Central Standard Time),477482.2999999523,013_y_m_n_a.png,I,m,1790,10,2,2807.7999999523163,474674.5,8076,NNB,B,8
7,test,2,0.0,2-Back,0.0,m,Wed Jan 07 2026 16:09:00 GMT-0600 (Central Standard Time),480514.7999999523,029_m_f_n_a.png,I,None,2016,11,2,3028.1999999284744,477486.60000002384,8076,NNB,B,9
7,test,2,0.0,2-Back,0.0,m,Wed Jan 07 2026 16:09:00 GMT-0600 (Central Standard Time),482464.10000002384,173_y_f_n_a.png,I,z,918,12,2,1943.8000000715256,480520.2999999523,8076,NNB,B,10
8,test,2,1.0,2-Back,1.0,z,Wed Jan 07 2026 16:09:00 GMT-0600 (Central Standard Time),484313.7000000477,029_m_f_n_a.png,I,z,824,13,2,1844.7000000476837,482469.0,8076,NNB,B,11
9,test,2,0.0,2-Back,1.0,m,Wed Jan 07 2026 16:09:00 GMT-0600 (Central Standard Time),486030.2000000477,176_o_m_n_a.png,I,m,687,14,2,1712.6000000238419,484317.60000002384,8076,NNB,B,12
10,test,2,0.0,2-Back,1.0,m,Wed Jan 07 2026 16:09:00 GMT-0600 (Central Standard Time),488845.5,176_o_m_n_a.png,I,m,1795,15,2,2809.7000000476837,486035.7999999523,8076,NNB,B,13
11,test,2,0.0,2-Back,1.0,m,Wed Jan 07 2026 16:09:00 GMT-0600 (Central Standard Time),490845.0,110_o_f_n_a.png,I,m,969,16,2,1995.5,488849.5,8076,NNB,B,14
12,test,2,0.0,2-Back,1.0,m,Wed Jan 07 2026 16:09:00 GMT-0600 (Central Standard Time),492677.60000002384,126_m_m_n_a.png,I,m,803,17,2,1828.1000000238419,490849.5,8076,NNB,B,15
13,test,2,1.0,2-Back,1.0,z,Wed Jan 07 2026 16:09:00 GMT-0600 (Central Standard Time),494427.10000002384,110_o_f_n_a.png,I,z,723,18,2,1745.5,492681.60000002384,8076,NNB,B,16
0,test,3,1.0,2-Back,,,Wed Jan 07 2026 16:09:00 GMT-0600 (Central Standard Time),494427.10000002384,153_y_m_n_a.png,I,space,1478,1,2,1745.5,492681.60000002384,8076,NNB,B,0
0,test,3,1.0,2-Back,,,Wed Jan 07 2026 16:09:00 GMT-0600 (Central Standard Time),494427.10000002384,153_y_m_n_a.png,I,space,1478,2,2,1745.5,492681.60000002384,8076,NNB,B,0
1,test,3,0.0,2-Back,1.0,m,Wed Jan 07 2026 16:09:00 GMT-0600 (Central Standard Time),502759.0,110_o_f_n_a.png,I,m,694,3,2,1713.0,501046.0,8076,NNB,B,1
2,test,3,0.0,2-Back,1.0,m,Wed Jan 07 2026 16:09:00 GMT-0600 (Central Standard Time),504574.10000002384,178_m_m_n_a.png,I,m,786,4,2,1811.1000000238419,502763.0,8076,NNB,B,2
3,test,3,1.0,2-Back,1.0,z,Wed Jan 07 2026 16:09:00 GMT-0600 (Central Standard Time),506306.7000000477,110_o_f_n_a.png,I,z,706,5,2,1728.5,504578.2000000477,8076,NNB,B,3
4,test,3,0.0,2-Back,1.0,m,Wed Jan 07 2026 16:09:00 GMT-0600 (Central Standard Time),508122.7999999523,013_y_m_n_a.png,I,m,797,6,2,1812.0999999046326,506310.7000000477,8076,NNB,B,4
4,test,3,0.0,2-Back,0.0,m,Wed Jan 07 2026 16:09:00 GMT-0600 (Central Standard Time),509688.89999997616,178_m_m_n_a.png,I,z,550,7,2,1562.1000000238419,508126.7999999523,8076,NNB,B,5
5,test,3,1.0,2-Back,1.0,z,Wed Jan 07 2026 16:09:00 GMT-0600 (Central Standard Time),511538.2999999523,013_y_m_n_a.png,I,z,823,8,2,1844.6999999284744,509693.60000002384,8076,NNB,B,6
6,test,3,0.0,2-Back,1.0,m,Wed Jan 07 2026 16:09:00 GMT-0600 (Central Standard Time),513821.0,173_y_f_n_a.png,I,m,1262,9,2,2277.7000000476837,511543.2999999523,8076,NNB,B,7
7,test,3,0.0,2-Back,1.0,m,Wed Jan 07 2026 16:09:00 GMT-0600 (Central Standard Time),515953.7000000477,126_m_m_n_a.png,I,m,1107,10,2,2128.8000000715256,513824.89999997616,8076,NNB,B,8
8,test,3,1.0,2-Back,1.0,z,Wed Jan 07 2026 16:09:00 GMT-0600 (Central Standard Time),517836.5,173_y_f_n_a.png,I,z,855,11,2,1877.2999999523163,515959.2000000477,8076,NNB,B,9
9,test,3,1.0,2-Back,1.0,z,Wed Jan 07 2026 16:09:00 GMT-0600 (Central Standard Time),519785.7999999523,126_m_m_n_a.png,I,z,932,12,2,1944.5999999046326,517841.2000000477,8076,NNB,B,10
10,test,3,0.0,2-Back,1.0,m,Wed Jan 07 2026 16:09:00 GMT-0600 (Central Standard Time),521581.7999999523,110_o_f_n_a.png,I,m,779,13,2,1792.3999999761581,519789.39999997616,8076,NNB,B,11
11,test,3,0.0,2-Back,1.0,m,Wed Jan 07 2026 16:09:00 GMT-0600 (Central Standard Time),523567.89999997616,097_m_f_n_a.png,I,m,951,14,2,1981.8999999761581,521586.0,8076,NNB,B,12
12,test,3,0.0,2-Back,1.0,m,Wed Jan 07 2026 16:09:00 GMT-0600 (Central Standard Time),525450.6000000238,065_o_m_n_a.png,I,m,864,15,2,1878.8999999761581,523571.7000000477,8076,NNB,B,13
13,test,3,1.0,2-Back,1.0,z,Wed Jan 07 2026 16:09:00 GMT-0600 (Central Standard Time),527350.1000000238,097_m_f_n_a.png,I,z,878,16,2,1895.3999999761581,525454.7000000477,8076,NNB,B,14
13,test,3,0.0,2-Back,0.0,m,Wed Jan 07 2026 16:09:00 GMT-0600 (Central Standard Time),529732.7000000477,086_o_f_n_a.png,I,z,1362,17,2,2378.4000000953674,527354.2999999523,8076,NNB,B,15
14,test,3,0.0,2-Back,1.0,m,Wed Jan 07 2026 16:09:00 GMT-0600 (Central Standard Time),531832.0,086_o_f_n_a.png,I,m,1076,18,2,2095.399999976158,529736.6000000238,8076,NNB,B,16
0,test,4,0.0,2-Back,,,Wed Jan 07 2026 16:09:00 GMT-0600 (Central Standard Time),531832.0,176_o_m_n_a.png,I,space,1273,1,2,2095.399999976158,529736.6000000238,8076,NNB,B,0
0,test,4,0.0,2-Back,,,Wed Jan 07 2026 16:09:00 GMT-0600 (Central Standard Time),531832.0,152_y_f_n_a.png,I,space,1273,2,2,2095.399999976158,529736.6000000238,8076,NNB,B,0
1,test,4,1.0,2-Back,1.0,z,Wed Jan 07 2026 16:09:00 GMT-0600 (Central Standard Time),540412.7000000477,176_o_m_n_a.png,I,z,1054,3,2,2075.100000023842,538337.6000000238,8076,NNB,B,1
2,test,4,1.0,2-Back,1.0,z,Wed Jan 07 2026 16:09:00 GMT-0600 (Central Standard Time),542095.3999999762,152_y_f_n_a.png,I,z,660,4,2,1678.8999999761581,540416.5,8076,NNB,B,2
3,test,4,0.0,2-Back,1.0,m,Wed Jan 07 2026 16:09:00 GMT-0600 (Central Standard Time),543794.8999999762,110_o_f_n_a.png,I,m,681,5,2,1695.6000000238419,542099.2999999523,8076,NNB,B,3
4,test,4,0.0,2-Back,1.0,m,Wed Jan 07 2026 16:09:00 GMT-0600 (Central Standard Time),545744.2000000477,110_o_f_n_a.png,I,m,917,6,2,1944.6000000238419,543799.6000000238,8076,NNB,B,4
5,test,4,0.0,2-Back,1.0,m,Wed Jan 07 2026 16:09:00 GMT-0600 (Central Standard Time),548176.8999999762,029_m_f_n_a.png,I,m,1416,7,2,2427.5,545749.3999999762,8076,NNB,B,5
6,test,4,0.0,2-Back,1.0,m,Wed Jan 07 2026 16:09:00 GMT-0600 (Central Standard Time),549876.5,013_y_m_n_a.png,I,m,671,8,2,1694.7000000476837,548181.7999999523,8076,NNB,B,6
7,test,4,1.0,2-Back,1.0,z,Wed Jan 07 2026 16:09:00 GMT-0600 (Central Standard Time),551442.6000000238,029_m_f_n_a.png,I,z,540,9,2,1561.5,549881.1000000238,8076,NNB,B,7
8,test,4,0.0,2-Back,1.0,m,Wed Jan 07 2026 16:09:00 GMT-0600 (Central Standard Time),553258.6000000238,126_m_m_n_a.png,I,m,798,10,2,1809.8000000715256,551448.7999999523,8076,NNB,B,8
8,test,4,0.0,2-Back,0.0,m,Wed Jan 07 2026 16:09:00 GMT-0600 (Central Standard Time),555075.0,013_y_m_n_a.png,I,z,798,11,2,1812.3999999761581,553262.6000000238,8076,NNB,B,9
9,test,4,0.0,2-Back,1.0,m,Wed Jan 07 2026 16:09:00 GMT-0600 (Central Standard Time),557407.5,086_o_f_n_a.png,I,m,1302,12,2,2328.100000023842,555079.3999999762,8076,NNB,B,10
10,test,4,0.0,2-Back,1.0,m,Wed Jan 07 2026 16:09:00 GMT-0600 (Central Standard Time),559290.0,153_y_m_n_a.png,I,m,865,13,2,1878.6000000238419,557411.3999999762,8076,NNB,B,11
11,test,4,1.0,2-Back,1.0,z,Wed Jan 07 2026 16:09:00 GMT-0600 (Central Standard Time),560889.5,086_o_f_n_a.png,I,z,582,14,2,1594.6000000238419,559294.8999999762,8076,NNB,B,12
11,test,4,1.0,2-Back,0.0,z,Wed Jan 07 2026 16:09:00 GMT-0600 (Central Standard Time),563122.2000000477,153_y_m_n_a.png,I,m,1215,15,2,2228.600000023842,560893.6000000238,8076,NNB,B,13
12,test,4,0.0,2-Back,1.0,m,Wed Jan 07 2026 16:09:00 GMT-0600 (Central Standard Time),565205.0,178_m_m_n_a.png,I,m,1053,16,2,2078.899999976158,563126.1000000238,8076,NNB,B,14
13,test,4,0.0,2-Back,1.0,m,Wed Jan 07 2026 16:09:00 GMT-0600 (Central Standard Time),566904.2999999523,097_m_f_n_a.png,I,m,667,17,2,1695.5,565208.7999999523,8076,NNB,B,15
14,test,4,1.0,2-Back,1.0,z,Wed Jan 07 2026 16:09:00 GMT-0600 (Central Standard Time),568503.8999999762,178_m_m_n_a.png,I,z,576,18,2,1595.5,566908.3999999762,8076,NNB,B,16
0,test,5,1.0,2-Back,,,Wed Jan 07 2026 16:09:00 GMT-0600 (Central Standard Time),568503.8999999762,153_y_m_n_a.png,I,space,1025,1,2,1595.5,566908.3999999762,8076,NNB,B,0
0,test,5,1.0,2-Back,,,Wed Jan 07 2026 16:09:00 GMT-0600 (Central Standard Time),568503.8999999762,097_m_f_n_a.png,I,space,1025,2,2,1595.5,566908.3999999762,8076,NNB,B,0
1,test,5,1.0,2-Back,1.0,z,Wed Jan 07 2026 16:09:00 GMT-0600 (Central Standard Time),576168.1000000238,153_y_m_n_a.png,I,z,559,3,2,1579.1000000238419,574589.0,8076,NNB,B,1
2,test,5,1.0,2-Back,1.0,z,Wed Jan 07 2026 16:09:00 GMT-0600 (Central Standard Time),578034.1000000238,097_m_f_n_a.png,I,z,839,4,2,1862.0,576172.1000000238,8076,NNB,B,2
3,test,5,0.0,2-Back,1.0,m,Wed Jan 07 2026 16:09:00 GMT-0600 (Central Standard Time),579700.2000000477,086_o_f_n_a.png,I,m,638,5,2,1662.2000000476837,578038.0,8076,NNB,B,3
4,test,5,0.0,2-Back,1.0,m,Wed Jan 07 2026 16:09:00 GMT-0600 (Central Standard Time),581683.0,153_y_m_n_a.png,I,m,956,6,2,1978.3999999761581,579704.6000000238,8076,NNB,B,4
5,test,5,0.0,2-Back,1.0,m,Wed Jan 07 2026 16:09:00 GMT-0600 (Central Standard Time),583282.5,173_y_f_n_a.png,I,m,573,7,2,1595.2999999523163,581687.2000000477,8076,NNB,B,5
6,test,5,0.0,2-Back,1.0,m,Wed Jan 07 2026 16:09:00 GMT-0600 (Central Standard Time),585415.2999999523,086_o_f_n_a.png,I,m,1110,8,2,2129.0,583286.2999999523,8076,NNB,B,6
7,test,5,1.0,2-Back,1.0,z,Wed Jan 07 2026 16:09:00 GMT-0600 (Central Standard Time),587264.6000000238,173_y_f_n_a.png,I,z,817,9,2,1845.3000000715256,585419.2999999523,8076,NNB,B,7
8,test,5,0.0,2-Back,1.0,m,Wed Jan 07 2026 16:09:00 GMT-0600 (Central Standard Time),589230.7999999523,065_o_m_n_a.png,I,m,936,10,2,1961.7999999523163,587269.0,8076,NNB,B,8
9,test,5,0.0,2-Back,1.0,m,Wed Jan 07 2026 16:09:00 GMT-0600 (Central Standard Time),591096.8999999762,029_m_f_n_a.png,I,m,850,11,2,1862.1999999284744,589234.7000000477,8076,NNB,B,9
10,test,5,0.0,2-Back,1.0,m,Wed Jan 07 2026 16:09:00 GMT-0600 (Central Standard Time),592796.2000000477,126_m_m_n_a.png,I,m,672,12,2,1695.0,591101.2000000477,8076,NNB,B,10
11,test,5,0.0,2-Back,1.0,m,Wed Jan 07 2026 16:09:00 GMT-0600 (Central Standard Time),594745.7000000477,065_o_m_n_a.png,I,m,924,13,2,1945.1000000238419,592800.6000000238,8076,NNB,B,11
12,test,5,1.0,2-Back,1.0,z,Wed Jan 07 2026 16:09:00 GMT-0600 (Central Standard Time),596795.0,126_m_m_n_a.png,I,z,1023,14,2,2045.1000000238419,594749.8999999762,8076,NNB,B,12
13,test,5,0.0,2-Back,1.0,m,Wed Jan 07 2026 16:09:00 GMT-0600 (Central Standard Time),598511.1000000238,152_y_f_n_a.png,I,m,693,15,2,1712.2000000476837,596798.8999999762,8076,NNB,B,13
14,test,5,0.0,2-Back,1.0,m,Wed Jan 07 2026 16:09:00 GMT-0600 (Central Standard Time),600327.2000000477,176_o_m_n_a.png,I,m,793,16,2,1812.1000000238419,598515.1000000238,8076,NNB,B,14
15,test,5,0.0,2-Back,1.0,m,Wed Jan 07 2026 16:09:00 GMT-0600 (Central Standard Time),601960.1000000238,029_m_f_n_a.png,I,m,609,17,2,1628.8000000715256,600331.2999999523,8076,NNB,B,15
16,test,5,1.0,2-Back,1.0,z,Wed Jan 07 2026 16:09:00 GMT-0600 (Central Standard Time),603643.2999999523,176_o_m_n_a.png,I,z,664,18,2,1679.2999999523163,601964.0,8076,NNB,B,16
