acc_sum,block,block_c,change,condition,correct,correct_response,datetime,endtime,face,project,response,response_time,row_sel,session_number,start_end,starttime,subject_id,task,task_vers,trial
0,prac,1,,1-Back,,,Wed Nov 05 2025 15:37:22 GMT-0600 (Central Standard Time),,093_m_f_n_a.png,I,space,12776,1,1,,,8076,NNB,C,0
0,prac,1,0.0,1-Back,0.0,m,Wed Nov 05 2025 15:37:22 GMT-0600 (Central Standard Time),162581.90000000596,098_y_f_n_a.png,I,None,2007,2,1,2854.9000000059605,159727.0,8076,NNB,C,1
0,prac,1,1.0,1-Back,0.0,z,Wed Nov 05 2025 15:37:22 GMT-0600 (Central Standard Time),165362.90000000596,098_y_f_n_a.png,I,None,2006,3,1,2772.4000000059605,162590.5,8076,NNB,C,2
0,prac,1,0.0,1-Back,0.0,m,Wed Nov 05 2025 15:37:22 GMT-0600 (Central Standard Time),168228.90000000596,059_o_m_n_a.png,I,None,2002,4,1,2854.9000000059605,165374.0,8076,NNB,C,3
0,prac,1,0.0,1-Back,0.0,m,Wed Nov 05 2025 15:37:22 GMT-0600 (Central Standard Time),171094.80000001192,092_m_m_n_a.png,I,None,2008,5,1,2858.600000023842,168236.19999998808,8076,NNB,C,4
0,prac,1,1.0,1-Back,0.0,z,Wed Nov 05 2025 15:37:22 GMT-0600 (Central Standard Time),173877.19999998808,092_m_m_n_a.png,I,None,2007,6,1,2773.899999976158,171103.30000001192,8076,NNB,C,5
0,prac,1,0.0,1-Back,0.0,m,Wed Nov 05 2025 15:37:22 GMT-0600 (Central Standard Time),176759.80000001192,130_o_f_n_a.png,I,None,2006,7,1,2870.600000023842,173889.19999998808,8076,NNB,C,6
0,prac,1,0.0,1-Back,0.0,m,Wed Nov 05 2025 15:37:22 GMT-0600 (Central Standard Time),179625.69999998808,082_m_m_n_a.png,I,None,2006,8,1,2857.199999988079,176768.5,8076,NNB,C,7
0,prac,1,0.0,1-Back,0.0,m,Wed Nov 05 2025 15:37:22 GMT-0600 (Central Standard Time),182392.90000000596,093_m_f_n_a.png,I,None,2006,9,1,2758.300000011921,179634.59999999404,8076,NNB,C,8
1,prac,1,1.0,1-Back,1.0,z,Wed Nov 05 2025 15:37:22 GMT-0600 (Central Standard Time),184557.30000001192,093_m_f_n_a.png,I,z,1371,10,1,2152.9000000059605,182404.40000000596,8076,NNB,C,9
1,prac,1,0.0,1-Back,0.0,m,Wed Nov 05 2025 15:37:22 GMT-0600 (Central Standard Time),187339.69999998808,059_o_m_n_a.png,I,None,2006,11,1,2772.199999988079,184567.5,8076,NNB,C,10
2,prac,1,0.0,1-Back,1.0,m,Wed Nov 05 2025 15:37:22 GMT-0600 (Central Standard Time),190172.09999999404,028_y_f_n_a.png,I,m,1947,12,1,2823.5999999940395,187348.5,8076,NNB,C,11
0,prac,2,0.0,1-Back,,,Wed Nov 05 2025 15:37:22 GMT-0600 (Central Standard Time),190172.09999999404,093_m_f_n_a.png,I,a,8600,1,1,2823.5999999940395,187348.5,8076,NNB,C,0
0,prac,2,0.0,1-Back,0.0,m,Wed Nov 05 2025 15:37:22 GMT-0600 (Central Standard Time),203318.09999999404,098_y_f_n_a.png,I,z,633,2,1,1488.9000000059605,201829.19999998808,8076,NNB,C,1
0,prac,2,1.0,1-Back,0.0,z,Wed Nov 05 2025 15:37:22 GMT-0600 (Central Standard Time),206085.30000001192,098_y_f_n_a.png,I,None,2007,3,1,2758.4000000059605,203326.90000000596,8076,NNB,C,2
1,prac,2,0.0,1-Back,1.0,m,Wed Nov 05 2025 15:37:22 GMT-0600 (Central Standard Time),207933.40000000596,059_o_m_n_a.png,I,m,1065,4,1,1838.800000011921,206094.59999999404,8076,NNB,C,3
1,prac,2,0.0,1-Back,0.0,m,Wed Nov 05 2025 15:37:22 GMT-0600 (Central Standard Time),210799.0,092_m_m_n_a.png,I,None,2006,5,1,2855.5,207943.5,8076,NNB,C,4
1,prac,2,1.0,1-Back,0.0,z,Wed Nov 05 2025 15:37:22 GMT-0600 (Central Standard Time),212333.69999998808,092_m_m_n_a.png,I,m,742,6,1,1524.3999999761581,210809.30000001192,8076,NNB,C,5
2,prac,2,0.0,1-Back,1.0,m,Wed Nov 05 2025 15:37:22 GMT-0600 (Central Standard Time),214847.80000001192,130_o_f_n_a.png,I,m,1607,7,1,2500.4000000059605,212347.40000000596,8076,NNB,C,6
3,prac,2,0.0,1-Back,1.0,m,Wed Nov 05 2025 15:37:22 GMT-0600 (Central Standard Time),216663.80000001192,082_m_m_n_a.png,I,m,948,8,1,1808.6000000238419,214855.19999998808,8076,NNB,C,7
4,prac,2,0.0,1-Back,1.0,m,Wed Nov 05 2025 15:37:22 GMT-0600 (Central Standard Time),218313.40000000596,093_m_f_n_a.png,I,m,869,9,1,1638.9000000059605,216674.5,8076,NNB,C,8
5,prac,2,1.0,1-Back,1.0,z,Wed Nov 05 2025 15:37:22 GMT-0600 (Central Standard Time),220229.59999999404,093_m_f_n_a.png,I,z,1123,10,1,1905.5999999940395,218324.0,8076,NNB,C,9
6,prac,2,0.0,1-Back,1.0,m,Wed Nov 05 2025 15:37:22 GMT-0600 (Central Standard Time),221945.5,059_o_m_n_a.png,I,m,936,11,1,1706.0,220239.5,8076,NNB,C,10
7,prac,2,0.0,1-Back,1.0,m,Wed Nov 05 2025 15:37:22 GMT-0600 (Central Standard Time),223578.40000000596,028_y_f_n_a.png,I,m,763,12,1,1624.4000000059605,221954.0,8076,NNB,C,11
0,test,1,0.0,1-Back,,,Wed Nov 05 2025 15:37:22 GMT-0600 (Central Standard Time),223578.40000000596,098_y_f_n_a.png,I,space,9565,1,1,1624.4000000059605,221954.0,8076,NNB,C,0
1,test,1,0.0,1-Back,1.0,m,Wed Nov 05 2025 15:37:22 GMT-0600 (Central Standard Time),251436.5,006_m_f_n_a.png,I,m,1245,2,1,2259.800000011921,249176.69999998808,8076,NNB,C,1
2,test,1,0.0,1-Back,1.0,m,Wed Nov 05 2025 15:37:22 GMT-0600 (Central Standard Time),253019.09999999404,028_y_f_n_a.png,I,m,563,3,1,1576.4000000059605,251442.69999998808,8076,NNB,C,2
3,test,1,1.0,1-Back,1.0,z,Wed Nov 05 2025 15:37:22 GMT-0600 (Central Standard Time),254751.90000000596,028_y_f_n_a.png,I,z,708,4,1,1727.7000000178814,253024.19999998808,8076,NNB,C,3
4,test,1,0.0,1-Back,1.0,m,Wed Nov 05 2025 15:37:22 GMT-0600 (Central Standard Time),256385.59999999404,006_m_f_n_a.png,I,m,615,5,1,1628.5999999940395,254757.0,8076,NNB,C,4
5,test,1,0.0,1-Back,1.0,m,Wed Nov 05 2025 15:37:22 GMT-0600 (Central Standard Time),258200.90000000596,059_o_m_n_a.png,I,m,791,6,1,1809.7000000178814,256391.19999998808,8076,NNB,C,5
6,test,1,1.0,1-Back,1.0,z,Wed Nov 05 2025 15:37:22 GMT-0600 (Central Standard Time),260017.0,059_o_m_n_a.png,I,z,790,7,1,1809.9000000059605,258207.09999999404,8076,NNB,C,6
7,test,1,0.0,1-Back,1.0,m,Wed Nov 05 2025 15:37:22 GMT-0600 (Central Standard Time),261749.59999999404,092_m_m_n_a.png,I,m,702,8,1,1727.5,260022.09999999404,8076,NNB,C,7
8,test,1,0.0,1-Back,1.0,m,Wed Nov 05 2025 15:37:22 GMT-0600 (Central Standard Time),263382.59999999404,130_o_f_n_a.png,I,m,601,9,1,1627.199999988079,261755.40000000596,8076,NNB,C,8
9,test,1,0.0,1-Back,1.0,m,Wed Nov 05 2025 15:37:22 GMT-0600 (Central Standard Time),265132.0,092_m_m_n_a.png,I,m,728,10,1,1742.300000011921,263389.6999999881,8076,NNB,C,9
10,test,1,0.0,1-Back,1.0,m,Wed Nov 05 2025 15:37:22 GMT-0600 (Central Standard Time),266864.8000000119,057_y_m_n_a.png,I,m,707,11,1,1726.6000000238419,265138.1999999881,8076,NNB,C,10
11,test,1,1.0,1-Back,1.0,z,Wed Nov 05 2025 15:37:22 GMT-0600 (Central Standard Time),268547.59999999404,057_y_m_n_a.png,I,z,655,12,1,1677.7999999821186,266869.8000000119,8076,NNB,C,11
12,test,1,0.0,1-Back,1.0,m,Wed Nov 05 2025 15:37:22 GMT-0600 (Central Standard Time),270197.3000000119,030_o_f_n_a.png,I,m,620,13,1,1644.1000000238419,268553.1999999881,8076,NNB,C,12
13,test,1,1.0,1-Back,1.0,z,Wed Nov 05 2025 15:37:22 GMT-0600 (Central Standard Time),271964.5,030_o_f_n_a.png,I,z,738,14,1,1760.9000000059605,270203.59999999404,8076,NNB,C,13
14,test,1,0.0,1-Back,1.0,m,Wed Nov 05 2025 15:37:22 GMT-0600 (Central Standard Time),273746.0,031_y_m_n_a.png,I,m,756,15,1,1776.0999999940395,271969.90000000596,8076,NNB,C,14
14,test,1,0.0,1-Back,0.0,m,Wed Nov 05 2025 15:37:22 GMT-0600 (Central Standard Time),276228.5,093_m_f_n_a.png,I,z,1453,16,1,2477.5,273751.0,8076,NNB,C,15
15,test,1,0.0,1-Back,1.0,m,Wed Nov 05 2025 15:37:22 GMT-0600 (Central Standard Time),278311.1999999881,146_o_m_n_a.png,I,m,1051,17,1,2076.0999999940395,276235.09999999404,8076,NNB,C,16
16,test,1,0.0,1-Back,1.0,m,Wed Nov 05 2025 15:37:22 GMT-0600 (Central Standard Time),280027.09999999404,093_m_f_n_a.png,I,m,688,18,1,1710.699999988079,278316.40000000596,8076,NNB,C,17
0,test,2,0.0,1-Back,,,Wed Nov 05 2025 15:37:22 GMT-0600 (Central Standard Time),280027.09999999404,092_m_m_n_a.png,I,space,2204,1,1,1710.699999988079,278316.40000000596,8076,NNB,C,0
1,test,2,0.0,1-Back,1.0,m,Wed Nov 05 2025 15:37:22 GMT-0600 (Central Standard Time),286225.8000000119,006_m_f_n_a.png,I,m,948,2,1,1958.9000000059605,284266.90000000596,8076,NNB,C,1
2,test,2,1.0,1-Back,1.0,z,Wed Nov 05 2025 15:37:22 GMT-0600 (Central Standard Time),288041.5,006_m_f_n_a.png,I,z,790,3,1,1809.0,286232.5,8076,NNB,C,2
3,test,2,0.0,1-Back,1.0,m,Wed Nov 05 2025 15:37:22 GMT-0600 (Central Standard Time),289641.40000000596,092_m_m_n_a.png,I,m,574,4,1,1593.9000000059605,288047.5,8076,NNB,C,3
4,test,2,0.0,1-Back,1.0,m,Wed Nov 05 2025 15:37:22 GMT-0600 (Central Standard Time),291290.5,057_y_m_n_a.png,I,m,630,5,1,1643.5999999940395,289646.90000000596,8076,NNB,C,4
5,test,2,0.0,1-Back,1.0,m,Wed Nov 05 2025 15:37:22 GMT-0600 (Central Standard Time),292874.40000000596,098_y_f_n_a.png,I,m,565,6,1,1577.9000000059605,291296.5,8076,NNB,C,5
6,test,2,1.0,1-Back,1.0,z,Wed Nov 05 2025 15:37:22 GMT-0600 (Central Standard Time),294373.0,098_y_f_n_a.png,I,z,470,7,1,1493.0,292880.0,8076,NNB,C,6
7,test,2,0.0,1-Back,1.0,m,Wed Nov 05 2025 15:37:22 GMT-0600 (Central Standard Time),295888.90000000596,057_y_m_n_a.png,I,m,498,8,1,1510.300000011921,294378.59999999404,8076,NNB,C,7
8,test,2,0.0,1-Back,1.0,m,Wed Nov 05 2025 15:37:22 GMT-0600 (Central Standard Time),297838.5,030_o_f_n_a.png,I,m,926,9,1,1944.199999988079,295894.3000000119,8076,NNB,C,8
9,test,2,0.0,1-Back,1.0,m,Wed Nov 05 2025 15:37:22 GMT-0600 (Central Standard Time),299488.1999999881,082_m_m_n_a.png,I,m,633,10,1,1643.699999988079,297844.5,8076,NNB,C,9
9,test,2,1.0,1-Back,0.0,z,Wed Nov 05 2025 15:37:22 GMT-0600 (Central Standard Time),301054.09999999404,082_m_m_n_a.png,I,m,535,11,1,1560.0999999940395,299494.0,8076,NNB,C,10
9,test,2,0.0,1-Back,0.0,m,Wed Nov 05 2025 15:37:22 GMT-0600 (Central Standard Time),303086.90000000596,030_o_f_n_a.png,I,z,1001,12,1,2026.5999999940395,301060.3000000119,8076,NNB,C,11
10,test,2,0.0,1-Back,1.0,m,Wed Nov 05 2025 15:37:22 GMT-0600 (Central Standard Time),304936.1999999881,130_o_f_n_a.png,I,m,816,13,1,1844.2999999821186,303091.90000000596,8076,NNB,C,12
11,test,2,0.0,1-Back,1.0,m,Wed Nov 05 2025 15:37:22 GMT-0600 (Central Standard Time),306782.09999999404,059_o_m_n_a.png,I,m,680,14,1,1840.4000000059605,304941.6999999881,8076,NNB,C,13
12,test,2,0.0,1-Back,1.0,m,Wed Nov 05 2025 15:37:22 GMT-0600 (Central Standard Time),308435.0,146_o_m_n_a.png,I,m,629,15,1,1647.199999988079,306787.8000000119,8076,NNB,C,14
13,test,2,1.0,1-Back,1.0,z,Wed Nov 05 2025 15:37:22 GMT-0600 (Central Standard Time),310218.0,146_o_m_n_a.png,I,z,756,16,1,1777.0999999940395,308440.90000000596,8076,NNB,C,15
14,test,2,0.0,1-Back,1.0,m,Wed Nov 05 2025 15:37:22 GMT-0600 (Central Standard Time),311767.5,031_y_m_n_a.png,I,m,525,17,1,1543.5,310224.0,8076,NNB,C,16
15,test,2,1.0,1-Back,1.0,z,Wed Nov 05 2025 15:37:22 GMT-0600 (Central Standard Time),313566.90000000596,031_y_m_n_a.png,I,z,768,18,1,1794.4000000059605,311772.5,8076,NNB,C,17
0,test,3,1.0,1-Back,,,Wed Nov 05 2025 15:37:22 GMT-0600 (Central Standard Time),313566.90000000596,028_y_f_n_a.png,I,space,2809,1,1,1794.4000000059605,311772.5,8076,NNB,C,0
1,test,3,0.0,1-Back,1.0,m,Wed Nov 05 2025 15:37:22 GMT-0600 (Central Standard Time),320198.1999999881,146_o_m_n_a.png,I,m,685,1,1,1710.8999999761581,318487.3000000119,8076,NNB,C,1
2,test,3,1.0,1-Back,1.0,z,Wed Nov 05 2025 15:37:22 GMT-0600 (Central Standard Time),321964.0,146_o_m_n_a.png,I,z,745,1,1,1760.0,320204.0,8076,NNB,C,2
3,test,3,0.0,1-Back,1.0,m,Wed Nov 05 2025 15:37:22 GMT-0600 (Central Standard Time),323547.3000000119,093_m_f_n_a.png,I,m,563,1,1,1578.4000000059605,321968.90000000596,8076,NNB,C,3
3,test,3,1.0,1-Back,0.0,z,Wed Nov 05 2025 15:37:22 GMT-0600 (Central Standard Time),325029.90000000596,093_m_f_n_a.png,I,m,460,1,1,1477.5,323552.40000000596,8076,NNB,C,4
4,test,3,0.0,1-Back,1.0,m,Wed Nov 05 2025 15:37:22 GMT-0600 (Central Standard Time),326846.1999999881,030_o_f_n_a.png,I,m,785,1,1,1810.0,325036.1999999881,8076,NNB,C,5
5,test,3,0.0,1-Back,1.0,m,Wed Nov 05 2025 15:37:22 GMT-0600 (Central Standard Time),328562.3000000119,057_y_m_n_a.png,I,m,697,1,1,1710.300000011921,326852.0,8076,NNB,C,6
6,test,3,0.0,1-Back,1.0,m,Wed Nov 05 2025 15:37:22 GMT-0600 (Central Standard Time),330411.1999999881,030_o_f_n_a.png,I,m,819,1,1,1843.2999999821186,328567.90000000596,8076,NNB,C,7
7,test,3,0.0,1-Back,1.0,m,Wed Nov 05 2025 15:37:22 GMT-0600 (Central Standard Time),332061.5,031_y_m_n_a.png,I,m,628,1,1,1644.9000000059605,330416.59999999404,8076,NNB,C,8
8,test,3,1.0,1-Back,1.0,z,Wed Nov 05 2025 15:37:22 GMT-0600 (Central Standard Time),333877.09999999404,031_y_m_n_a.png,I,z,794,1,1,1808.4000000059605,332068.6999999881,8076,NNB,C,9
9,test,3,0.0,1-Back,1.0,m,Wed Nov 05 2025 15:37:22 GMT-0600 (Central Standard Time),335409.8000000119,006_m_f_n_a.png,I,m,506,1,1,1527.5,333882.3000000119,8076,NNB,C,10
10,test,3,0.0,1-Back,1.0,m,Wed Nov 05 2025 15:37:22 GMT-0600 (Central Standard Time),337076.3000000119,098_y_f_n_a.png,I,m,637,1,1,1661.5,335414.8000000119,8076,NNB,C,11
11,test,3,1.0,1-Back,1.0,z,Wed Nov 05 2025 15:37:22 GMT-0600 (Central Standard Time),338775.5,098_y_f_n_a.png,I,z,675,1,1,1693.0999999940395,337082.40000000596,8076,NNB,C,12
12,test,3,0.0,1-Back,1.0,m,Wed Nov 05 2025 15:37:22 GMT-0600 (Central Standard Time),340408.59999999404,006_m_f_n_a.png,I,m,608,1,1,1627.5,338781.09999999404,8076,NNB,C,13
13,test,3,0.0,1-Back,1.0,m,Wed Nov 05 2025 15:37:22 GMT-0600 (Central Standard Time),342274.59999999404,092_m_m_n_a.png,I,m,847,1,1,1860.5999999940395,340414.0,8076,NNB,C,14
14,test,3,1.0,1-Back,1.0,z,Wed Nov 05 2025 15:37:22 GMT-0600 (Central Standard Time),344040.6999999881,092_m_m_n_a.png,I,z,741,1,1,1759.199999988079,342281.5,8076,NNB,C,15
15,test,3,0.0,1-Back,1.0,m,Wed Nov 05 2025 15:37:22 GMT-0600 (Central Standard Time),345640.1999999881,130_o_f_n_a.png,I,m,575,1,1,1594.3999999761581,344045.8000000119,8076,NNB,C,16
16,test,3,1.0,1-Back,1.0,z,Wed Nov 05 2025 15:37:22 GMT-0600 (Central Standard Time),347273.0,130_o_f_n_a.png,I,z,600,1,1,1627.5,345645.5,8076,NNB,C,17
0,test,4,1.0,1-Back,,,Wed Nov 05 2025 15:37:22 GMT-0600 (Central Standard Time),347273.0,093_m_f_n_a.png,I,space,1278,1,1,1627.5,345645.5,8076,NNB,C,0
1,test,4,0.0,1-Back,1.0,m,Wed Nov 05 2025 15:37:22 GMT-0600 (Central Standard Time),352487.90000000596,146_o_m_n_a.png,I,m,807,2,1,1827.0999999940395,350660.8000000119,8076,NNB,C,1
2,test,4,0.0,1-Back,1.0,m,Wed Nov 05 2025 15:37:22 GMT-0600 (Central Standard Time),354047.90000000596,093_m_f_n_a.png,I,m,543,3,1,1554.4000000059605,352493.5,8076,NNB,C,2
3,test,4,0.0,1-Back,1.0,m,Wed Nov 05 2025 15:37:22 GMT-0600 (Central Standard Time),355653.8000000119,030_o_f_n_a.png,I,m,577,4,1,1600.2000000178814,354053.59999999404,8076,NNB,C,3
4,test,4,1.0,1-Back,1.0,z,Wed Nov 05 2025 15:37:22 GMT-0600 (Central Standard Time),357219.6999999881,030_o_f_n_a.png,I,z,538,5,1,1560.3999999761581,355659.3000000119,8076,NNB,C,4
5,test,4,0.0,1-Back,1.0,m,Wed Nov 05 2025 15:37:22 GMT-0600 (Central Standard Time),358869.5,098_y_f_n_a.png,I,m,627,6,1,1644.199999988079,357225.3000000119,8076,NNB,C,5
6,test,4,0.0,1-Back,1.0,m,Wed Nov 05 2025 15:37:22 GMT-0600 (Central Standard Time),360451.90000000596,057_y_m_n_a.png,I,m,554,7,1,1577.5999999940395,358874.3000000119,8076,NNB,C,6
7,test,4,1.0,1-Back,1.0,z,Wed Nov 05 2025 15:37:22 GMT-0600 (Central Standard Time),362068.1999999881,057_y_m_n_a.png,I,z,595,8,1,1611.199999988079,360457.0,8076,NNB,C,7
8,test,4,0.0,1-Back,1.0,m,Wed Nov 05 2025 15:37:22 GMT-0600 (Central Standard Time),363734.40000000596,098_y_f_n_a.png,I,m,643,9,1,1660.5,362073.90000000596,8076,NNB,C,8
9,test,4,0.0,1-Back,1.0,m,Wed Nov 05 2025 15:37:22 GMT-0600 (Central Standard Time),365468.8000000119,082_m_m_n_a.png,I,m,713,10,1,1728.4000000059605,363740.40000000596,8076,NNB,C,9
10,test,4,1.0,1-Back,1.0,z,Wed Nov 05 2025 15:37:22 GMT-0600 (Central Standard Time),367799.90000000596,082_m_m_n_a.png,I,z,1309,11,1,2325.9000000059605,365474.0,8076,NNB,C,10
11,test,4,0.0,1-Back,1.0,m,Wed Nov 05 2025 15:37:22 GMT-0600 (Central Standard Time),369482.8000000119,130_o_f_n_a.png,I,m,663,12,1,1676.7000000178814,367806.09999999404,8076,NNB,C,11
12,test,4,0.0,1-Back,1.0,m,Wed Nov 05 2025 15:37:22 GMT-0600 (Central Standard Time),371032.3000000119,059_o_m_n_a.png,I,m,525,13,1,1544.2000000178814,369488.09999999404,8076,NNB,C,12
13,test,4,0.0,1-Back,1.0,m,Wed Nov 05 2025 15:37:22 GMT-0600 (Central Standard Time),372715.09999999404,130_o_f_n_a.png,I,m,655,14,1,1676.9000000059605,371038.1999999881,8076,NNB,C,13
14,test,4,0.0,1-Back,1.0,m,Wed Nov 05 2025 15:37:22 GMT-0600 (Central Standard Time),374464.59999999404,028_y_f_n_a.png,I,m,717,15,1,1744.0999999940395,372720.5,8076,NNB,C,14
15,test,4,1.0,1-Back,1.0,z,Wed Nov 05 2025 15:37:22 GMT-0600 (Central Standard Time),376147.3000000119,028_y_f_n_a.png,I,z,655,16,1,1677.800000011921,374469.5,8076,NNB,C,15
16,test,4,0.0,1-Back,1.0,m,Wed Nov 05 2025 15:37:22 GMT-0600 (Central Standard Time),378046.59999999404,006_m_f_n_a.png,I,m,868,17,1,1892.7999999821186,376153.8000000119,8076,NNB,C,16
17,test,4,1.0,1-Back,1.0,z,Wed Nov 05 2025 15:37:22 GMT-0600 (Central Standard Time),379763.1999999881,006_m_f_n_a.png,I,z,696,18,1,1711.0999999940395,378052.09999999404,8076,NNB,C,17
0,test,5,1.0,1-Back,,,Wed Nov 05 2025 15:37:22 GMT-0600 (Central Standard Time),379763.1999999881,059_o_m_n_a.png,I,space,1468,1,1,1711.0999999940395,378052.09999999404,8076,NNB,C,0
1,test,5,1.0,1-Back,1.0,z,Wed Nov 05 2025 15:37:22 GMT-0600 (Central Standard Time),385044.59999999404,059_o_m_n_a.png,I,z,754,2,1,1776.9000000059605,383267.6999999881,8076,NNB,C,1
2,test,5,0.0,1-Back,1.0,m,Wed Nov 05 2025 15:37:22 GMT-0600 (Central Standard Time),386610.6999999881,098_y_f_n_a.png,I,m,539,3,1,1560.2999999821186,385050.40000000596,8076,NNB,C,2
3,test,5,0.0,1-Back,1.0,m,Wed Nov 05 2025 15:37:22 GMT-0600 (Central Standard Time),388344.90000000596,057_y_m_n_a.png,I,m,701,4,1,1728.9000000059605,386616.0,8076,NNB,C,3
4,test,5,0.0,1-Back,1.0,m,Wed Nov 05 2025 15:37:22 GMT-0600 (Central Standard Time),390009.5,098_y_f_n_a.png,I,m,640,5,1,1659.4000000059605,388350.09999999404,8076,NNB,C,4
5,test,5,0.0,1-Back,1.0,m,Wed Nov 05 2025 15:37:22 GMT-0600 (Central Standard Time),391658.90000000596,092_m_m_n_a.png,I,m,630,6,1,1643.2000000178814,390015.6999999881,8076,NNB,C,5
6,test,5,1.0,1-Back,1.0,z,Wed Nov 05 2025 15:37:22 GMT-0600 (Central Standard Time),393308.40000000596,092_m_m_n_a.png,I,z,628,7,1,1644.0,391664.40000000596,8076,NNB,C,6
7,test,5,0.0,1-Back,1.0,m,Wed Nov 05 2025 15:37:22 GMT-0600 (Central Standard Time),394858.1999999881,028_y_f_n_a.png,I,m,531,8,1,1544.699999988079,393313.5,8076,NNB,C,7
8,test,5,0.0,1-Back,1.0,m,Wed Nov 05 2025 15:37:22 GMT-0600 (Central Standard Time),396724.09999999404,031_y_m_n_a.png,I,m,837,9,1,1861.0999999940395,394863.0,8076,NNB,C,8
9,test,5,0.0,1-Back,1.0,m,Wed Nov 05 2025 15:37:22 GMT-0600 (Central Standard Time),398473.59999999404,028_y_f_n_a.png,I,m,723,10,1,1743.5999999940395,396730.0,8076,NNB,C,9
10,test,5,0.0,1-Back,1.0,m,Wed Nov 05 2025 15:37:22 GMT-0600 (Central Standard Time),400174.5,130_o_f_n_a.png,I,m,670,11,1,1695.0,398479.5,8076,NNB,C,10
11,test,5,1.0,1-Back,1.0,z,Wed Nov 05 2025 15:37:22 GMT-0600 (Central Standard Time),401822.59999999404,130_o_f_n_a.png,I,z,520,12,1,1642.5999999940395,400180.0,8076,NNB,C,11
12,test,5,0.0,1-Back,1.0,m,Wed Nov 05 2025 15:37:22 GMT-0600 (Central Standard Time),403305.8000000119,146_o_m_n_a.png,I,m,457,13,1,1478.300000011921,401827.5,8076,NNB,C,12
13,test,5,0.0,1-Back,1.0,m,Wed Nov 05 2025 15:37:22 GMT-0600 (Central Standard Time),404971.5,093_m_f_n_a.png,I,m,646,14,1,1660.4000000059605,403311.09999999404,8076,NNB,C,13
13,test,5,1.0,1-Back,0.0,z,Wed Nov 05 2025 15:37:22 GMT-0600 (Central Standard Time),406937.8000000119,093_m_f_n_a.png,I,m,948,15,1,1961.4000000059605,404976.40000000596,8076,NNB,C,14
14,test,5,0.0,1-Back,1.0,m,Wed Nov 05 2025 15:37:22 GMT-0600 (Central Standard Time),408504.40000000596,146_o_m_n_a.png,I,m,534,16,1,1561.5999999940395,406942.8000000119,8076,NNB,C,15
15,test,5,0.0,1-Back,1.0,m,Wed Nov 05 2025 15:37:22 GMT-0600 (Central Standard Time),410236.6999999881,006_m_f_n_a.png,I,m,711,17,1,1726.199999988079,408510.5,8076,NNB,C,16
16,test,5,0.0,1-Back,1.0,m,Wed Nov 05 2025 15:37:22 GMT-0600 (Central Standard Time),412619.1999999881,082_m_m_n_a.png,I,m,1363,18,1,2377.0,410242.1999999881,8076,NNB,C,17
0,prac,1,0.0,2-Back,,,Wed Nov 05 2025 15:37:22 GMT-0600 (Central Standard Time),412619.1999999881,031_y_m_n_a.png,I,space,3475,1,1,2377.0,410242.1999999881,8076,NNB,C,0
0,prac,1,0.0,2-Back,,,Wed Nov 05 2025 15:37:22 GMT-0600 (Central Standard Time),412619.1999999881,006_m_f_n_a.png,I,space,3475,2,1,2377.0,410242.1999999881,8076,NNB,C,0
0,prac,1,1.0,2-Back,0.0,m,Wed Nov 05 2025 15:37:22 GMT-0600 (Central Standard Time),577184.400000006,146_o_m_n_a.png,I,None,2014,3,1,2870.5999999940395,574313.8000000119,8076,NNB,C,1
1,prac,1,0.0,2-Back,1.0,m,Wed Nov 05 2025 15:37:22 GMT-0600 (Central Standard Time),579633.599999994,130_o_f_n_a.png,I,m,1571,4,1,2441.0,577192.599999994,8076,NNB,C,2
2,prac,1,0.0,2-Back,1.0,z,Wed Nov 05 2025 15:37:22 GMT-0600 (Central Standard Time),581749.5,146_o_m_n_a.png,I,z,1325,5,1,2107.199999988079,579642.3000000119,8076,NNB,C,3
2,prac,1,1.0,2-Back,0.0,z,Wed Nov 05 2025 15:37:22 GMT-0600 (Central Standard Time),584082.1999999881,130_o_f_n_a.png,I,m,1545,6,1,2323.5,581758.6999999881,8076,NNB,C,4
3,prac,1,0.0,2-Back,1.0,m,Wed Nov 05 2025 15:37:22 GMT-0600 (Central Standard Time),586631.8000000119,082_m_m_n_a.png,I,m,1679,7,1,2540.0,584091.8000000119,8076,NNB,C,5
4,prac,1,0.0,2-Back,1.0,m,Wed Nov 05 2025 15:37:22 GMT-0600 (Central Standard Time),588864.3000000119,059_o_m_n_a.png,I,m,1370,8,1,2224.800000011921,586639.5,8076,NNB,C,6
5,prac,1,0.0,2-Back,1.0,m,Wed Nov 05 2025 15:37:22 GMT-0600 (Central Standard Time),590780.1999999881,028_y_f_n_a.png,I,m,1038,9,1,1909.2999999821186,588870.900000006,8076,NNB,C,7
6,prac,1,1.0,2-Back,1.0,z,Wed Nov 05 2025 15:37:22 GMT-0600 (Central Standard Time),592862.900000006,059_o_m_n_a.png,I,z,1299,10,1,2074.7000000178814,590788.1999999881,8076,NNB,C,8
7,prac,1,0.0,2-Back,1.0,m,Wed Nov 05 2025 15:37:22 GMT-0600 (Central Standard Time),594828.900000006,098_y_f_n_a.png,I,m,1105,11,1,1958.7000000178814,592870.1999999881,8076,NNB,C,9
8,prac,1,0.0,2-Back,1.0,m,Wed Nov 05 2025 15:37:22 GMT-0600 (Central Standard Time),597394.6999999881,082_m_m_n_a.png,I,m,1778,12,1,2556.7999999821186,594837.900000006,8076,NNB,C,10
0,test,1,0.0,2-Back,,,Wed Nov 05 2025 15:37:22 GMT-0600 (Central Standard Time),597394.6999999881,057_y_m_n_a.png,I,space,20122,1,1,2556.7999999821186,594837.900000006,8076,NNB,C,0
0,test,1,0.0,2-Back,,,Wed Nov 05 2025 15:37:22 GMT-0600 (Central Standard Time),597394.6999999881,057_y_m_n_a.png,I,space,20122,2,1,2556.7999999821186,594837.900000006,8076,NNB,C,0
1,test,1,0.0,2-Back,1.0,m,Wed Nov 05 2025 15:37:22 GMT-0600 (Central Standard Time),632300.400000006,130_o_f_n_a.png,I,m,1295,3,1,2310.5999999940395,629989.8000000119,8076,NNB,C,1
2,test,1,0.0,2-Back,1.0,m,Wed Nov 05 2025 15:37:22 GMT-0600 (Central Standard Time),634133.1999999881,092_m_m_n_a.png,I,m,803,4,1,1827.5,632305.6999999881,8076,NNB,C,2
3,test,1,1.0,2-Back,1.0,z,Wed Nov 05 2025 15:37:22 GMT-0600 (Central Standard Time),636016.099999994,130_o_f_n_a.png,I,z,850,5,1,1878.4000000059605,634137.6999999881,8076,NNB,C,3
4,test,1,0.0,2-Back,1.0,m,Wed Nov 05 2025 15:37:22 GMT-0600 (Central Standard Time),637932.0,098_y_f_n_a.png,I,m,887,6,1,1911.699999988079,636020.3000000119,8076,NNB,C,4
4,test,1,0.0,2-Back,0.0,m,Wed Nov 05 2025 15:37:22 GMT-0600 (Central Standard Time),640681.1999999881,092_m_m_n_a.png,I,z,1723,7,1,2743.899999976158,637937.3000000119,8076,NNB,C,5
5,test,1,1.0,2-Back,1.0,z,Wed Nov 05 2025 15:37:22 GMT-0600 (Central Standard Time),643063.8000000119,098_y_f_n_a.png,I,z,1350,8,1,2378.7000000178814,640685.099999994,8076,NNB,C,6
6,test,1,0.0,2-Back,1.0,m,Wed Nov 05 2025 15:37:22 GMT-0600 (Central Standard Time),644846.5,031_y_m_n_a.png,I,m,751,9,1,1778.5999999940395,643067.900000006,8076,NNB,C,7
7,test,1,0.0,2-Back,1.0,m,Wed Nov 05 2025 15:37:22 GMT-0600 (Central Standard Time),647095.900000006,030_o_f_n_a.png,I,m,1225,10,1,2245.800000011921,644850.099999994,8076,NNB,C,8
8,test,1,1.0,2-Back,1.0,z,Wed Nov 05 2025 15:37:22 GMT-0600 (Central Standard Time),649078.8000000119,031_y_m_n_a.png,I,z,952,11,1,1978.0,647100.8000000119,8076,NNB,C,9
9,test,1,0.0,2-Back,1.0,m,Wed Nov 05 2025 15:37:22 GMT-0600 (Central Standard Time),651494.8000000119,006_m_f_n_a.png,I,m,1393,12,1,2412.7000000178814,649082.099999994,8076,NNB,C,10
9,test,1,0.0,2-Back,0.0,m,Wed Nov 05 2025 15:37:22 GMT-0600 (Central Standard Time),654443.400000006,006_m_f_n_a.png,I,z,1921,13,1,2943.4000000059605,651500.0,8076,NNB,C,11
10,test,1,0.0,2-Back,1.0,m,Wed Nov 05 2025 15:37:22 GMT-0600 (Central Standard Time),657325.6999999881,146_o_m_n_a.png,I,m,1852,14,1,2878.0,654447.6999999881,8076,NNB,C,12
11,test,1,0.0,2-Back,1.0,m,Wed Nov 05 2025 15:37:22 GMT-0600 (Central Standard Time),659208.900000006,030_o_f_n_a.png,I,m,850,15,1,1878.800000011921,657330.099999994,8076,NNB,C,13
12,test,1,1.0,2-Back,1.0,z,Wed Nov 05 2025 15:37:22 GMT-0600 (Central Standard Time),661291.400000006,146_o_m_n_a.png,I,z,1064,16,1,2077.800000011921,659213.599999994,8076,NNB,C,14
13,test,1,0.0,2-Back,1.0,m,Wed Nov 05 2025 15:37:22 GMT-0600 (Central Standard Time),664173.8000000119,093_m_f_n_a.png,I,m,1852,17,1,2877.300000011921,661296.5,8076,NNB,C,15
14,test,1,0.0,2-Back,1.0,m,Wed Nov 05 2025 15:37:22 GMT-0600 (Central Standard Time),666356.400000006,082_m_m_n_a.png,I,m,1161,18,1,2177.5,664178.900000006,8076,NNB,C,16
0,test,2,0.0,2-Back,,,Wed Nov 05 2025 15:37:22 GMT-0600 (Central Standard Time),666356.400000006,082_m_m_n_a.png,I,space,2500,1,1,2177.5,664178.900000006,8076,NNB,C,0
0,test,2,0.0,2-Back,,,Wed Nov 05 2025 15:37:22 GMT-0600 (Central Standard Time),666356.400000006,028_y_f_n_a.png,I,space,2500,2,1,2177.5,664178.900000006,8076,NNB,C,0
0,test,2,1.0,2-Back,0.0,z,Wed Nov 05 2025 15:37:22 GMT-0600 (Central Standard Time),675936.6999999881,082_m_m_n_a.png,I,m,908,3,1,1926.5999999940395,674010.099999994,8076,NNB,C,1
1,test,2,0.0,2-Back,1.0,m,Wed Nov 05 2025 15:37:22 GMT-0600 (Central Standard Time),678919.3000000119,093_m_f_n_a.png,I,m,1951,4,1,2977.9000000059605,675941.400000006,8076,NNB,C,2
1,test,2,0.0,2-Back,0.0,m,Wed Nov 05 2025 15:37:22 GMT-0600 (Central Standard Time),681101.900000006,028_y_f_n_a.png,I,z,1152,5,1,2178.9000000059605,678923.0,8076,NNB,C,3
2,test,2,0.0,2-Back,1.0,m,Wed Nov 05 2025 15:37:22 GMT-0600 (Central Standard Time),683551.0,146_o_m_n_a.png,I,m,1427,6,1,2445.199999988079,681105.8000000119,8076,NNB,C,4
2,test,2,0.0,2-Back,0.0,m,Wed Nov 05 2025 15:37:22 GMT-0600 (Central Standard Time),685567.099999994,098_y_f_n_a.png,I,z,985,7,1,2011.2999999821186,683555.8000000119,8076,NNB,C,5
3,test,2,1.0,2-Back,1.0,z,Wed Nov 05 2025 15:37:22 GMT-0600 (Central Standard Time),687699.8000000119,146_o_m_n_a.png,I,z,1105,8,1,2128.5,685571.3000000119,8076,NNB,C,6
4,test,2,0.0,2-Back,1.0,m,Wed Nov 05 2025 15:37:22 GMT-0600 (Central Standard Time),689732.5,031_y_m_n_a.png,I,m,1011,9,1,2027.5,687705.0,8076,NNB,C,7
4,test,2,0.0,2-Back,0.0,m,Wed Nov 05 2025 15:37:22 GMT-0600 (Central Standard Time),692498.400000006,031_y_m_n_a.png,I,z,1739,10,1,2761.5,689736.900000006,8076,NNB,C,8
5,test,2,0.0,2-Back,1.0,m,Wed Nov 05 2025 15:37:22 GMT-0600 (Central Standard Time),695232.1999999881,006_m_f_n_a.png,I,m,1701,11,1,2728.7999999821186,692503.400000006,8076,NNB,C,9
6,test,2,0.0,2-Back,1.0,m,Wed Nov 05 2025 15:37:22 GMT-0600 (Central Standard Time),697813.3000000119,028_y_f_n_a.png,I,m,1562,12,1,2577.600000023842,695235.6999999881,8076,NNB,C,10
7,test,2,1.0,2-Back,1.0,z,Wed Nov 05 2025 15:37:22 GMT-0600 (Central Standard Time),699762.5,006_m_f_n_a.png,I,z,923,13,1,1942.699999988079,697819.8000000119,8076,NNB,C,11
8,test,2,0.0,2-Back,1.0,m,Wed Nov 05 2025 15:37:22 GMT-0600 (Central Standard Time),701978.6999999881,059_o_m_n_a.png,I,m,1197,14,1,2212.899999976158,699765.8000000119,8076,NNB,C,12
8,test,2,0.0,2-Back,0.0,m,Wed Nov 05 2025 15:37:22 GMT-0600 (Central Standard Time),705012.6999999881,059_o_m_n_a.png,I,None,2018,15,1,3030.199999988079,701982.5,8076,NNB,C,13
9,test,2,0.0,2-Back,1.0,m,Wed Nov 05 2025 15:37:22 GMT-0600 (Central Standard Time),706960.5,030_o_f_n_a.png,I,m,916,16,1,1943.9000000059605,705016.599999994,8076,NNB,C,14
10,test,2,0.0,2-Back,1.0,m,Wed Nov 05 2025 15:37:22 GMT-0600 (Central Standard Time),708926.5,092_m_m_n_a.png,I,m,919,17,1,1962.5,706964.0,8076,NNB,C,15
11,test,2,1.0,2-Back,1.0,z,Wed Nov 05 2025 15:37:22 GMT-0600 (Central Standard Time),711044.0,030_o_f_n_a.png,I,z,1089,18,1,2113.4000000059605,708930.599999994,8076,NNB,C,16
0,test,3,1.0,2-Back,,,Wed Nov 05 2025 15:37:22 GMT-0600 (Central Standard Time),711044.0,057_y_m_n_a.png,I,space,2883,1,1,2113.4000000059605,708930.599999994,8076,NNB,C,0
0,test,3,1.0,2-Back,,,Wed Nov 05 2025 15:37:22 GMT-0600 (Central Standard Time),711044.0,057_y_m_n_a.png,I,space,2883,2,1,2113.4000000059605,708930.599999994,8076,NNB,C,0
1,test,3,0.0,2-Back,1.0,m,Wed Nov 05 2025 15:37:22 GMT-0600 (Central Standard Time),721522.599999994,030_o_f_n_a.png,I,m,1422,3,1,2444.0,719078.599999994,8076,NNB,C,1
2,test,3,0.0,2-Back,1.0,m,Wed Nov 05 2025 15:37:22 GMT-0600 (Central Standard Time),723422.0,082_m_m_n_a.png,I,m,869,4,1,1895.300000011921,721526.6999999881,8076,NNB,C,2
3,test,3,1.0,2-Back,1.0,z,Wed Nov 05 2025 15:37:22 GMT-0600 (Central Standard Time),725254.6999999881,030_o_f_n_a.png,I,z,801,5,1,1827.7999999821186,723426.900000006,8076,NNB,C,3
4,test,3,0.0,2-Back,1.0,m,Wed Nov 05 2025 15:37:22 GMT-0600 (Central Standard Time),727204.099999994,031_y_m_n_a.png,I,m,921,6,1,1945.5999999940395,725258.5,8076,NNB,C,4
4,test,3,0.0,2-Back,0.0,m,Wed Nov 05 2025 15:37:22 GMT-0600 (Central Standard Time),729453.3000000119,082_m_m_n_a.png,I,z,1219,7,1,2245.5,727207.8000000119,8076,NNB,C,5
5,test,3,1.0,2-Back,1.0,z,Wed Nov 05 2025 15:37:22 GMT-0600 (Central Standard Time),731752.400000006,031_y_m_n_a.png,I,z,1260,8,1,2294.300000011921,729458.099999994,8076,NNB,C,6
6,test,3,0.0,2-Back,1.0,m,Wed Nov 05 2025 15:37:22 GMT-0600 (Central Standard Time),733802.099999994,028_y_f_n_a.png,I,m,1023,9,1,2045.699999988079,731756.400000006,8076,NNB,C,7
7,test,3,0.0,2-Back,1.0,m,Wed Nov 05 2025 15:37:22 GMT-0600 (Central Standard Time),736067.900000006,092_m_m_n_a.png,I,m,1246,10,1,2261.800000011921,733806.099999994,8076,NNB,C,8
8,test,3,1.0,2-Back,1.0,z,Wed Nov 05 2025 15:37:22 GMT-0600 (Central Standard Time),738100.599999994,028_y_f_n_a.png,I,z,1012,11,1,2029.0999999940395,736071.5,8076,NNB,C,9
9,test,3,1.0,2-Back,1.0,z,Wed Nov 05 2025 15:37:22 GMT-0600 (Central Standard Time),740450.0,092_m_m_n_a.png,I,z,1330,12,1,2346.300000011921,738103.6999999881,8076,NNB,C,10
10,test,3,0.0,2-Back,1.0,m,Wed Nov 05 2025 15:37:22 GMT-0600 (Central Standard Time),742432.6999999881,030_o_f_n_a.png,I,m,948,13,1,1978.0999999940395,740454.599999994,8076,NNB,C,11
11,test,3,0.0,2-Back,1.0,m,Wed Nov 05 2025 15:37:22 GMT-0600 (Central Standard Time),744398.8000000119,093_m_f_n_a.png,I,m,943,14,1,1961.800000011921,742437.0,8076,NNB,C,12
12,test,3,0.0,2-Back,1.0,m,Wed Nov 05 2025 15:37:22 GMT-0600 (Central Standard Time),746564.6999999881,146_o_m_n_a.png,I,m,1145,15,1,2161.7999999821186,744402.900000006,8076,NNB,C,13
13,test,3,1.0,2-Back,1.0,z,Wed Nov 05 2025 15:37:22 GMT-0600 (Central Standard Time),748380.8000000119,093_m_f_n_a.png,I,z,796,16,1,1812.1000000238419,746568.6999999881,8076,NNB,C,14
14,test,3,0.0,2-Back,1.0,m,Wed Nov 05 2025 15:37:22 GMT-0600 (Central Standard Time),750714.0,130_o_f_n_a.png,I,m,1314,17,1,2329.699999988079,748384.3000000119,8076,NNB,C,15
14,test,3,0.0,2-Back,0.0,m,Wed Nov 05 2025 15:37:22 GMT-0600 (Central Standard Time),753745.900000006,130_o_f_n_a.png,I,None,2016,18,1,3028.5,750717.400000006,8076,NNB,C,16
0,test,4,0.0,2-Back,,,Wed Nov 05 2025 15:37:22 GMT-0600 (Central Standard Time),753745.900000006,059_o_m_n_a.png,I,space,1958,1,1,3028.5,750717.400000006,8076,NNB,C,0
0,test,4,0.0,2-Back,,,Wed Nov 05 2025 15:37:22 GMT-0600 (Central Standard Time),753745.900000006,098_y_f_n_a.png,I,space,1958,2,1,3028.5,750717.400000006,8076,NNB,C,0
1,test,4,1.0,2-Back,1.0,z,Wed Nov 05 2025 15:37:22 GMT-0600 (Central Standard Time),762809.6999999881,059_o_m_n_a.png,I,z,840,3,1,1860.2999999821186,760949.400000006,8076,NNB,C,1
2,test,4,1.0,2-Back,1.0,z,Wed Nov 05 2025 15:37:22 GMT-0600 (Central Standard Time),764975.6999999881,098_y_f_n_a.png,I,z,1142,4,1,2162.5,762813.1999999881,8076,NNB,C,2
3,test,4,0.0,2-Back,1.0,m,Wed Nov 05 2025 15:37:22 GMT-0600 (Central Standard Time),766808.599999994,030_o_f_n_a.png,I,m,800,5,1,1829.2999999821186,764979.3000000119,8076,NNB,C,3
4,test,4,0.0,2-Back,1.0,m,Wed Nov 05 2025 15:37:22 GMT-0600 (Central Standard Time),769391.0,030_o_f_n_a.png,I,m,1551,6,1,2578.0999999940395,766812.900000006,8076,NNB,C,4
5,test,4,0.0,2-Back,1.0,m,Wed Nov 05 2025 15:37:22 GMT-0600 (Central Standard Time),771223.6999999881,006_m_f_n_a.png,I,m,809,7,1,1828.7999999821186,769394.900000006,8076,NNB,C,5
6,test,4,0.0,2-Back,1.0,m,Wed Nov 05 2025 15:37:22 GMT-0600 (Central Standard Time),773023.0,031_y_m_n_a.png,I,m,768,8,1,1795.800000011921,771227.1999999881,8076,NNB,C,6
7,test,4,1.0,2-Back,1.0,z,Wed Nov 05 2025 15:37:22 GMT-0600 (Central Standard Time),774539.099999994,006_m_f_n_a.png,I,z,496,9,1,1512.699999988079,773026.400000006,8076,NNB,C,7
8,test,4,0.0,2-Back,1.0,m,Wed Nov 05 2025 15:37:22 GMT-0600 (Central Standard Time),776438.599999994,092_m_m_n_a.png,I,m,868,10,1,1896.2999999821186,774542.3000000119,8076,NNB,C,8
8,test,4,0.0,2-Back,0.0,m,Wed Nov 05 2025 15:37:22 GMT-0600 (Central Standard Time),777954.6999999881,031_y_m_n_a.png,I,z,498,11,1,1512.199999988079,776442.5,8076,NNB,C,9
9,test,4,0.0,2-Back,1.0,m,Wed Nov 05 2025 15:37:22 GMT-0600 (Central Standard Time),780120.6999999881,130_o_f_n_a.png,I,m,1158,12,1,2161.899999976158,777958.8000000119,8076,NNB,C,10
10,test,4,0.0,2-Back,1.0,m,Wed Nov 05 2025 15:37:22 GMT-0600 (Central Standard Time),782336.900000006,057_y_m_n_a.png,I,m,1192,13,1,2212.5,780124.400000006,8076,NNB,C,11
11,test,4,1.0,2-Back,1.0,z,Wed Nov 05 2025 15:37:22 GMT-0600 (Central Standard Time),784452.900000006,130_o_f_n_a.png,I,z,1087,14,1,2111.5999999940395,782341.3000000119,8076,NNB,C,12
12,test,4,1.0,2-Back,1.0,z,Wed Nov 05 2025 15:37:22 GMT-0600 (Central Standard Time),786752.099999994,057_y_m_n_a.png,I,z,1276,15,1,2295.0999999940395,784457.0,8076,NNB,C,13
13,test,4,0.0,2-Back,1.0,m,Wed Nov 05 2025 15:37:22 GMT-0600 (Central Standard Time),788618.0,082_m_m_n_a.png,I,m,848,16,1,1862.300000011921,786755.6999999881,8076,NNB,C,14
14,test,4,0.0,2-Back,1.0,m,Wed Nov 05 2025 15:37:22 GMT-0600 (Central Standard Time),790401.5,093_m_f_n_a.png,I,m,765,17,1,1779.800000011921,788621.6999999881,8076,NNB,C,15
15,test,4,1.0,2-Back,1.0,z,Wed Nov 05 2025 15:37:22 GMT-0600 (Central Standard Time),792300.400000006,082_m_m_n_a.png,I,z,870,18,1,1895.0999999940395,790405.3000000119,8076,NNB,C,16
0,test,5,1.0,2-Back,,,Wed Nov 05 2025 15:37:22 GMT-0600 (Central Standard Time),792300.400000006,057_y_m_n_a.png,I,space,3724,1,1,1895.0999999940395,790405.3000000119,8076,NNB,C,0
0,test,5,1.0,2-Back,,,Wed Nov 05 2025 15:37:22 GMT-0600 (Central Standard Time),792300.400000006,093_m_f_n_a.png,I,space,3724,2,1,1895.0999999940395,790405.3000000119,8076,NNB,C,0
1,test,5,1.0,2-Back,1.0,z,Wed Nov 05 2025 15:37:22 GMT-0600 (Central Standard Time),802980.400000006,057_y_m_n_a.png,I,z,878,3,1,1896.0,801084.400000006,8076,NNB,C,1
2,test,5,1.0,2-Back,1.0,z,Wed Nov 05 2025 15:37:22 GMT-0600 (Central Standard Time),804596.599999994,093_m_f_n_a.png,I,z,587,4,1,1612.2999999821186,802984.3000000119,8076,NNB,C,2
3,test,5,0.0,2-Back,1.0,m,Wed Nov 05 2025 15:37:22 GMT-0600 (Central Standard Time),806229.3000000119,130_o_f_n_a.png,I,m,603,5,1,1627.4000000059605,804601.900000006,8076,NNB,C,3
4,test,5,0.0,2-Back,1.0,m,Wed Nov 05 2025 15:37:22 GMT-0600 (Central Standard Time),808761.8000000119,057_y_m_n_a.png,I,m,1506,6,1,2528.7000000178814,806233.099999994,8076,NNB,C,4
5,test,5,0.0,2-Back,1.0,m,Wed Nov 05 2025 15:37:22 GMT-0600 (Central Standard Time),810794.599999994,028_y_f_n_a.png,I,m,1014,7,1,2028.7999999821186,808765.8000000119,8076,NNB,C,5
5,test,5,0.0,2-Back,0.0,m,Wed Nov 05 2025 15:37:22 GMT-0600 (Central Standard Time),812660.6999999881,130_o_f_n_a.png,I,z,838,8,1,1862.0999999940395,810798.599999994,8076,NNB,C,6
6,test,5,1.0,2-Back,1.0,z,Wed Nov 05 2025 15:37:22 GMT-0600 (Central Standard Time),814610.099999994,028_y_f_n_a.png,I,z,932,9,1,1944.7999999821186,812665.3000000119,8076,NNB,C,7
7,test,5,0.0,2-Back,1.0,m,Wed Nov 05 2025 15:37:22 GMT-0600 (Central Standard Time),816509.5,146_o_m_n_a.png,I,m,869,10,1,1895.0,814614.5,8076,NNB,C,8
8,test,5,0.0,2-Back,1.0,m,Wed Nov 05 2025 15:37:22 GMT-0600 (Central Standard Time),819308.599999994,006_m_f_n_a.png,I,m,1778,11,1,2795.699999988079,816512.900000006,8076,NNB,C,9
9,test,5,0.0,2-Back,1.0,m,Wed Nov 05 2025 15:37:22 GMT-0600 (Central Standard Time),821441.099999994,092_m_m_n_a.png,I,m,1107,12,1,2127.9000000059605,819313.1999999881,8076,NNB,C,10
10,test,5,0.0,2-Back,1.0,m,Wed Nov 05 2025 15:37:22 GMT-0600 (Central Standard Time),823790.599999994,146_o_m_n_a.png,I,m,1326,13,1,2345.2999999821186,821445.3000000119,8076,NNB,C,11
11,test,5,1.0,2-Back,1.0,z,Wed Nov 05 2025 15:37:22 GMT-0600 (Central Standard Time),825489.599999994,092_m_m_n_a.png,I,z,681,14,1,1695.2999999821186,823794.3000000119,8076,NNB,C,12
12,test,5,0.0,2-Back,1.0,m,Wed Nov 05 2025 15:37:22 GMT-0600 (Central Standard Time),827905.900000006,098_y_f_n_a.png,I,m,1397,15,1,2411.9000000059605,825494.0,8076,NNB,C,13
13,test,5,0.0,2-Back,1.0,m,Wed Nov 05 2025 15:37:22 GMT-0600 (Central Standard Time),829872.0,059_o_m_n_a.png,I,m,941,16,1,1961.699999988079,827910.3000000119,8076,NNB,C,14
14,test,5,0.0,2-Back,1.0,m,Wed Nov 05 2025 15:37:22 GMT-0600 (Central Standard Time),831821.400000006,006_m_f_n_a.png,I,m,919,17,1,1945.0,829876.400000006,8076,NNB,C,15
15,test,5,1.0,2-Back,1.0,z,Wed Nov 05 2025 15:37:22 GMT-0600 (Central Standard Time),833870.6999999881,059_o_m_n_a.png,I,z,1027,18,1,2045.699999988079,831825.0,8076,NNB,C,16
