acc_sum,block,block_c,change,condition,correct,correct_response,datetime,endtime,face,project,response,response_time,row_sel,session_number,start_end,starttime,subject_id,task,task_vers,trial
0,prac,1,,1-Back,,,Tue Apr 21 2026 17:13:31 GMT-0500 (Central Daylight Time),,050_m_f_n_a.png,I,space,11781,1,3,,,8076,NNB,A,0
1,prac,1,0.0,1-Back,1.0,m,Tue Apr 21 2026 17:13:31 GMT-0500 (Central Daylight Time),132004.09999999404,063_y_f_n_a.png,I,m,864,2,3,1675.199999988079,130328.90000000596,8076,NNB,A,1
2,prac,1,1.0,1-Back,1.0,z,Tue Apr 21 2026 17:13:31 GMT-0500 (Central Daylight Time),133720.30000001192,063_y_f_n_a.png,I,z,926,3,3,1709.0999999940395,132011.20000001788,8076,NNB,A,2
3,prac,1,0.0,1-Back,1.0,m,Tue Apr 21 2026 17:13:31 GMT-0500 (Central Daylight Time),135603.0,053_o_m_n_a.png,I,m,1073,4,3,1875.199999988079,133727.80000001192,8076,NNB,A,3
4,prac,1,0.0,1-Back,1.0,m,Tue Apr 21 2026 17:13:31 GMT-0500 (Central Daylight Time),137519.09999999404,058_m_m_n_a.png,I,m,1103,5,3,1909.5,135609.59999999404,8076,NNB,A,4
5,prac,1,1.0,1-Back,1.0,z,Tue Apr 21 2026 17:13:31 GMT-0500 (Central Daylight Time),138951.90000000596,058_m_m_n_a.png,I,z,644,6,3,1426.0999999940395,137525.80000001192,8076,NNB,A,5
6,prac,1,0.0,1-Back,1.0,m,Tue Apr 21 2026 17:13:31 GMT-0500 (Central Daylight Time),140918.09999999404,047_o_f_n_a.png,I,m,1188,7,3,1959.5,138958.59999999404,8076,NNB,A,6
7,prac,1,0.0,1-Back,1.0,m,Tue Apr 21 2026 17:13:31 GMT-0500 (Central Daylight Time),142417.70000001788,045_m_m_n_a.png,I,m,702,8,3,1492.9000000059605,140924.80000001192,8076,NNB,A,7
8,prac,1,0.0,1-Back,1.0,m,Tue Apr 21 2026 17:13:31 GMT-0500 (Central Daylight Time),143800.70000001788,050_m_f_n_a.png,I,m,601,9,3,1376.300000011921,142424.40000000596,8076,NNB,A,8
9,prac,1,1.0,1-Back,1.0,z,Tue Apr 21 2026 17:13:31 GMT-0500 (Central Daylight Time),145249.80000001192,050_m_f_n_a.png,I,z,666,10,3,1442.300000011921,143807.5,8076,NNB,A,9
10,prac,1,0.0,1-Back,1.0,m,Tue Apr 21 2026 17:13:31 GMT-0500 (Central Daylight Time),146732.80000001192,053_o_m_n_a.png,I,m,697,11,3,1476.4000000059605,145256.40000000596,8076,NNB,A,10
11,prac,1,0.0,1-Back,1.0,m,Tue Apr 21 2026 17:13:31 GMT-0500 (Central Daylight Time),148282.20000001788,010_y_f_n_a.png,I,m,715,12,3,1542.6000000238419,146739.59999999404,8076,NNB,A,11
0,test,1,0.0,1-Back,,,Tue Apr 21 2026 17:13:31 GMT-0500 (Central Daylight Time),148282.20000001788,063_y_f_n_a.png,I,space,10978,1,3,1542.6000000238419,146739.59999999404,8076,NNB,A,0
1,test,1,0.0,1-Back,1.0,m,Tue Apr 21 2026 17:13:31 GMT-0500 (Central Daylight Time),169192.5,043_m_f_n_a.png,I,m,1094,2,3,2112.5999999940395,167079.90000000596,8076,NNB,A,1
2,test,1,0.0,1-Back,1.0,m,Tue Apr 21 2026 17:13:31 GMT-0500 (Central Daylight Time),170876.20000001788,010_y_f_n_a.png,I,m,665,3,3,1679.300000011921,169196.90000000596,8076,NNB,A,2
3,test,1,1.0,1-Back,1.0,z,Tue Apr 21 2026 17:13:31 GMT-0500 (Central Daylight Time),172541.40000000596,010_y_f_n_a.png,I,z,647,4,3,1659.800000011921,170881.59999999404,8076,NNB,A,3
4,test,1,0.0,1-Back,1.0,m,Tue Apr 21 2026 17:13:31 GMT-0500 (Central Daylight Time),174274.40000000596,043_m_f_n_a.png,I,m,700,5,3,1728.5999999940395,172545.80000001192,8076,NNB,A,4
5,test,1,0.0,1-Back,1.0,m,Tue Apr 21 2026 17:13:31 GMT-0500 (Central Daylight Time),176040.20000001788,053_o_m_n_a.png,I,m,735,6,3,1761.300000011921,174278.90000000596,8076,NNB,A,5
6,test,1,1.0,1-Back,1.0,z,Tue Apr 21 2026 17:13:31 GMT-0500 (Central Daylight Time),177806.59999999404,053_o_m_n_a.png,I,z,737,7,3,1762.0999999940395,176044.5,8076,NNB,A,6
7,test,1,0.0,1-Back,1.0,m,Tue Apr 21 2026 17:13:31 GMT-0500 (Central Daylight Time),179422.5,058_m_m_n_a.png,I,m,595,8,3,1612.2999999821186,177810.20000001788,8076,NNB,A,7
8,test,1,0.0,1-Back,1.0,m,Tue Apr 21 2026 17:13:31 GMT-0500 (Central Daylight Time),181121.80000001192,047_o_f_n_a.png,I,m,667,9,3,1694.5999999940395,179427.20000001788,8076,NNB,A,8
9,test,1,0.0,1-Back,1.0,m,Tue Apr 21 2026 17:13:31 GMT-0500 (Central Daylight Time),182804.90000000596,058_m_m_n_a.png,I,m,664,10,3,1679.0,181125.90000000596,8076,NNB,A,9
10,test,1,0.0,1-Back,1.0,m,Tue Apr 21 2026 17:13:31 GMT-0500 (Central Daylight Time),184504.30000001192,041_y_m_n_a.png,I,m,668,11,3,1695.300000011921,182809.0,8076,NNB,A,10
11,test,1,1.0,1-Back,1.0,z,Tue Apr 21 2026 17:13:31 GMT-0500 (Central Daylight Time),186120.5,041_y_m_n_a.png,I,z,594,12,3,1612.4000000059605,184508.09999999404,8076,NNB,A,11
12,test,1,0.0,1-Back,1.0,m,Tue Apr 21 2026 17:13:31 GMT-0500 (Central Daylight Time),187802.90000000596,044_o_f_n_a.png,I,m,666,13,3,1678.300000011921,186124.59999999404,8076,NNB,A,12
13,test,1,1.0,1-Back,1.0,z,Tue Apr 21 2026 17:13:31 GMT-0500 (Central Daylight Time),189469.20000001788,044_o_f_n_a.png,I,z,637,14,3,1662.6000000238419,187806.59999999404,8076,NNB,A,13
14,test,1,0.0,1-Back,1.0,m,Tue Apr 21 2026 17:13:31 GMT-0500 (Central Daylight Time),191219.70000001788,008_y_m_n_a.png,I,m,732,15,3,1746.1000000238419,189473.59999999404,8076,NNB,A,14
15,test,1,0.0,1-Back,1.0,m,Tue Apr 21 2026 17:13:31 GMT-0500 (Central Daylight Time),193234.90000000596,050_m_f_n_a.png,I,m,983,16,3,2011.300000011921,191223.59999999404,8076,NNB,A,15
16,test,1,0.0,1-Back,1.0,m,Tue Apr 21 2026 17:13:31 GMT-0500 (Central Daylight Time),194851.09999999404,046_o_m_n_a.png,I,m,591,17,3,1612.5999999940395,193238.5,8076,NNB,A,16
17,test,1,0.0,1-Back,1.0,m,Tue Apr 21 2026 17:13:31 GMT-0500 (Central Daylight Time),196450.59999999404,050_m_f_n_a.png,I,m,583,18,3,1595.3999999761581,194855.20000001788,8076,NNB,A,17
0,test,2,0.0,1-Back,,,Tue Apr 21 2026 17:13:31 GMT-0500 (Central Daylight Time),196450.59999999404,058_m_m_n_a.png,I,space,1607,1,3,1595.3999999761581,194855.20000001788,8076,NNB,A,0
1,test,2,0.0,1-Back,1.0,m,Tue Apr 21 2026 17:13:31 GMT-0500 (Central Daylight Time),201815.59999999404,043_m_f_n_a.png,I,m,703,2,3,1727.8999999761581,200087.70000001788,8076,NNB,A,1
2,test,2,1.0,1-Back,1.0,z,Tue Apr 21 2026 17:13:31 GMT-0500 (Central Daylight Time),203465.09999999404,043_m_f_n_a.png,I,z,626,3,3,1644.7999999821186,201820.30000001192,8076,NNB,A,2
3,test,2,0.0,1-Back,1.0,m,Tue Apr 21 2026 17:13:31 GMT-0500 (Central Daylight Time),205114.40000000596,058_m_m_n_a.png,I,m,616,4,3,1644.5999999940395,203469.80000001192,8076,NNB,A,3
4,test,2,0.0,1-Back,1.0,m,Tue Apr 21 2026 17:13:31 GMT-0500 (Central Daylight Time),206847.30000001192,041_y_m_n_a.png,I,m,711,5,3,1728.0999999940395,205119.20000001788,8076,NNB,A,4
5,test,2,0.0,1-Back,1.0,m,Tue Apr 21 2026 17:13:31 GMT-0500 (Central Daylight Time),208330.0,063_y_f_n_a.png,I,m,465,6,3,1478.4000000059605,206851.59999999404,8076,NNB,A,5
6,test,2,1.0,1-Back,1.0,z,Tue Apr 21 2026 17:13:31 GMT-0500 (Central Daylight Time),209946.30000001192,063_y_f_n_a.png,I,z,591,7,3,1612.0,208334.30000001192,8076,NNB,A,6
7,test,2,0.0,1-Back,1.0,m,Tue Apr 21 2026 17:13:31 GMT-0500 (Central Daylight Time),211395.90000000596,041_y_m_n_a.png,I,m,424,8,3,1445.300000011921,209950.59999999404,8076,NNB,A,7
8,test,2,0.0,1-Back,1.0,m,Tue Apr 21 2026 17:13:31 GMT-0500 (Central Daylight Time),212945.20000001788,044_o_f_n_a.png,I,m,526,9,3,1545.9000000059605,211399.30000001192,8076,NNB,A,8
9,test,2,0.0,1-Back,1.0,m,Tue Apr 21 2026 17:13:31 GMT-0500 (Central Daylight Time),214544.80000001192,045_m_m_n_a.png,I,m,576,10,3,1595.0999999940395,212949.70000001788,8076,NNB,A,9
10,test,2,1.0,1-Back,1.0,z,Tue Apr 21 2026 17:13:31 GMT-0500 (Central Daylight Time),215994.09999999404,045_m_m_n_a.png,I,z,417,11,3,1444.7999999821186,214549.30000001192,8076,NNB,A,10
11,test,2,0.0,1-Back,1.0,m,Tue Apr 21 2026 17:13:31 GMT-0500 (Central Daylight Time),217577.20000001788,044_o_f_n_a.png,I,m,551,12,3,1579.0,215998.20000001788,8076,NNB,A,11
12,test,2,0.0,1-Back,1.0,m,Tue Apr 21 2026 17:13:31 GMT-0500 (Central Daylight Time),219259.80000001192,047_o_f_n_a.png,I,m,664,13,3,1678.2000000178814,217581.59999999404,8076,NNB,A,12
13,test,2,0.0,1-Back,1.0,m,Tue Apr 21 2026 17:13:31 GMT-0500 (Central Daylight Time),220842.70000001788,053_o_m_n_a.png,I,m,557,14,3,1578.0,219264.70000001788,8076,NNB,A,13
14,test,2,0.0,1-Back,1.0,m,Tue Apr 21 2026 17:13:31 GMT-0500 (Central Daylight Time),222425.70000001788,046_o_m_n_a.png,I,m,550,15,3,1578.5,220847.20000001788,8076,NNB,A,14
15,test,2,1.0,1-Back,1.0,z,Tue Apr 21 2026 17:13:31 GMT-0500 (Central Daylight Time),224058.59999999404,046_o_m_n_a.png,I,z,600,16,3,1628.2999999821186,222430.30000001192,8076,NNB,A,15
16,test,2,0.0,1-Back,1.0,m,Tue Apr 21 2026 17:13:31 GMT-0500 (Central Daylight Time),225691.30000001192,008_y_m_n_a.png,I,m,607,17,3,1628.800000011921,224062.5,8076,NNB,A,16
17,test,2,1.0,1-Back,1.0,z,Tue Apr 21 2026 17:13:31 GMT-0500 (Central Daylight Time),227308.5,008_y_m_n_a.png,I,z,598,18,3,1613.2999999821186,225695.20000001788,8076,NNB,A,17
0,test,3,1.0,1-Back,,,Tue Apr 21 2026 17:13:31 GMT-0500 (Central Daylight Time),227308.5,010_y_f_n_a.png,I,space,1293,1,3,1613.2999999821186,225695.20000001788,8076,NNB,A,0
1,test,3,0.0,1-Back,1.0,m,Tue Apr 21 2026 17:13:31 GMT-0500 (Central Daylight Time),232322.59999999404,046_o_m_n_a.png,I,m,624,2,3,1645.0999999940395,230677.5,8076,NNB,A,1
2,test,3,1.0,1-Back,1.0,z,Tue Apr 21 2026 17:13:31 GMT-0500 (Central Daylight Time),233939.0,046_o_m_n_a.png,I,z,590,3,3,1612.5,232326.5,8076,NNB,A,2
3,test,3,0.0,1-Back,1.0,m,Tue Apr 21 2026 17:13:31 GMT-0500 (Central Daylight Time),235455.0,050_m_f_n_a.png,I,m,487,4,3,1511.699999988079,233943.30000001192,8076,NNB,A,3
4,test,3,1.0,1-Back,1.0,z,Tue Apr 21 2026 17:13:31 GMT-0500 (Central Daylight Time),237164.20000001788,050_m_f_n_a.png,I,z,693,5,3,1704.9000000059605,235459.30000001192,8076,NNB,A,4
5,test,3,0.0,1-Back,1.0,m,Tue Apr 21 2026 17:13:31 GMT-0500 (Central Daylight Time),238737.30000001192,044_o_f_n_a.png,I,m,559,6,3,1569.0,237168.30000001192,8076,NNB,A,5
6,test,3,0.0,1-Back,1.0,m,Tue Apr 21 2026 17:13:31 GMT-0500 (Central Daylight Time),240603.0,041_y_m_n_a.png,I,m,840,7,3,1862.0999999940395,238740.90000000596,8076,NNB,A,6
7,test,3,0.0,1-Back,1.0,m,Tue Apr 21 2026 17:13:31 GMT-0500 (Central Daylight Time),242186.09999999404,044_o_f_n_a.png,I,m,558,8,3,1579.699999988079,240606.40000000596,8076,NNB,A,7
8,test,3,0.0,1-Back,1.0,m,Tue Apr 21 2026 17:13:31 GMT-0500 (Central Daylight Time),243852.20000001788,008_y_m_n_a.png,I,m,638,9,3,1661.5,242190.70000001788,8076,NNB,A,8
9,test,3,1.0,1-Back,1.0,z,Tue Apr 21 2026 17:13:31 GMT-0500 (Central Daylight Time),245385.20000001788,008_y_m_n_a.png,I,z,509,10,3,1528.9000000059605,243856.30000001192,8076,NNB,A,9
10,test,3,0.0,1-Back,1.0,m,Tue Apr 21 2026 17:13:31 GMT-0500 (Central Daylight Time),246967.90000000596,043_m_f_n_a.png,I,m,552,11,3,1578.800000011921,245389.09999999404,8076,NNB,A,10
11,test,3,0.0,1-Back,1.0,m,Tue Apr 21 2026 17:13:31 GMT-0500 (Central Daylight Time),248501.0,063_y_f_n_a.png,I,m,514,12,3,1527.9000000059605,246973.09999999404,8076,NNB,A,11
12,test,3,1.0,1-Back,1.0,z,Tue Apr 21 2026 17:13:31 GMT-0500 (Central Daylight Time),250050.30000001192,063_y_f_n_a.png,I,z,526,13,3,1545.2000000178814,248505.09999999404,8076,NNB,A,12
13,test,3,0.0,1-Back,1.0,m,Tue Apr 21 2026 17:13:31 GMT-0500 (Central Daylight Time),251683.0,043_m_f_n_a.png,I,m,615,14,3,1628.5999999940395,250054.40000000596,8076,NNB,A,13
14,test,3,0.0,1-Back,1.0,m,Tue Apr 21 2026 17:13:31 GMT-0500 (Central Daylight Time),253332.80000001192,058_m_m_n_a.png,I,m,622,15,3,1645.5999999940395,251687.20000001788,8076,NNB,A,14
15,test,3,1.0,1-Back,1.0,z,Tue Apr 21 2026 17:13:31 GMT-0500 (Central Daylight Time),254948.90000000596,058_m_m_n_a.png,I,z,597,16,3,1612.0,253336.90000000596,8076,NNB,A,15
16,test,3,0.0,1-Back,1.0,m,Tue Apr 21 2026 17:13:31 GMT-0500 (Central Daylight Time),256514.80000001192,047_o_f_n_a.png,I,m,548,17,3,1561.5,254953.30000001192,8076,NNB,A,16
17,test,3,1.0,1-Back,1.0,z,Tue Apr 21 2026 17:13:31 GMT-0500 (Central Daylight Time),258181.0,047_o_f_n_a.png,I,z,638,18,3,1662.699999988079,256518.30000001192,8076,NNB,A,17
0,test,4,1.0,1-Back,,,Tue Apr 21 2026 17:13:31 GMT-0500 (Central Daylight Time),258181.0,050_m_f_n_a.png,I,space,956,1,3,1662.699999988079,256518.30000001192,8076,NNB,A,0
1,test,4,0.0,1-Back,1.0,m,Tue Apr 21 2026 17:13:31 GMT-0500 (Central Daylight Time),262663.2000000179,046_o_m_n_a.png,I,m,479,2,3,1495.1000000238419,261168.09999999404,8076,NNB,A,1
2,test,4,0.0,1-Back,1.0,m,Tue Apr 21 2026 17:13:31 GMT-0500 (Central Daylight Time),264163.0,050_m_f_n_a.png,I,m,474,3,3,1496.0999999940395,262666.90000000596,8076,NNB,A,2
3,test,4,0.0,1-Back,1.0,m,Tue Apr 21 2026 17:13:31 GMT-0500 (Central Daylight Time),265895.40000000596,044_o_f_n_a.png,I,m,712,4,3,1728.0,264167.40000000596,8076,NNB,A,3
4,test,4,1.0,1-Back,1.0,z,Tue Apr 21 2026 17:13:31 GMT-0500 (Central Daylight Time),267395.09999999404,044_o_f_n_a.png,I,z,483,5,3,1496.3999999761581,265898.7000000179,8076,NNB,A,4
5,test,4,0.0,1-Back,1.0,m,Tue Apr 21 2026 17:13:31 GMT-0500 (Central Daylight Time),268810.8000000119,063_y_f_n_a.png,I,m,397,6,3,1412.4000000059605,267398.40000000596,8076,NNB,A,5
6,test,4,0.0,1-Back,1.0,m,Tue Apr 21 2026 17:13:31 GMT-0500 (Central Daylight Time),270360.59999999404,041_y_m_n_a.png,I,m,518,7,3,1546.3999999761581,268814.2000000179,8076,NNB,A,6
7,test,4,1.0,1-Back,1.0,z,Tue Apr 21 2026 17:13:31 GMT-0500 (Central Daylight Time),271843.59999999404,041_y_m_n_a.png,I,z,457,8,3,1478.7999999821186,270364.8000000119,8076,NNB,A,7
8,test,4,0.0,1-Back,1.0,m,Tue Apr 21 2026 17:13:31 GMT-0500 (Central Daylight Time),273342.90000000596,063_y_f_n_a.png,I,m,479,9,3,1494.9000000059605,271848.0,8076,NNB,A,8
9,test,4,0.0,1-Back,1.0,m,Tue Apr 21 2026 17:13:31 GMT-0500 (Central Daylight Time),274875.8000000119,045_m_m_n_a.png,I,m,514,10,3,1528.800000011921,273347.0,8076,NNB,A,9
10,test,4,1.0,1-Back,1.0,z,Tue Apr 21 2026 17:13:31 GMT-0500 (Central Daylight Time),276342.0,045_m_m_n_a.png,I,z,445,11,3,1462.5,274879.5,8076,NNB,A,10
11,test,4,0.0,1-Back,1.0,m,Tue Apr 21 2026 17:13:31 GMT-0500 (Central Daylight Time),277774.90000000596,047_o_f_n_a.png,I,m,411,12,3,1428.199999988079,276346.7000000179,8076,NNB,A,11
12,test,4,0.0,1-Back,1.0,m,Tue Apr 21 2026 17:13:31 GMT-0500 (Central Daylight Time),279358.0,053_o_m_n_a.png,I,m,555,13,3,1578.5,277779.5,8076,NNB,A,12
13,test,4,0.0,1-Back,1.0,m,Tue Apr 21 2026 17:13:31 GMT-0500 (Central Daylight Time),280907.3000000119,047_o_f_n_a.png,I,m,524,14,3,1544.5999999940395,279362.7000000179,8076,NNB,A,13
14,test,4,0.0,1-Back,1.0,m,Tue Apr 21 2026 17:13:31 GMT-0500 (Central Daylight Time),282440.09999999404,010_y_f_n_a.png,I,m,510,15,3,1528.699999988079,280911.40000000596,8076,NNB,A,14
15,test,4,1.0,1-Back,1.0,z,Tue Apr 21 2026 17:13:31 GMT-0500 (Central Daylight Time),283907.59999999404,010_y_f_n_a.png,I,z,434,16,3,1463.7999999821186,282443.8000000119,8076,NNB,A,15
16,test,4,0.0,1-Back,1.0,m,Tue Apr 21 2026 17:13:31 GMT-0500 (Central Daylight Time),285489.09999999404,043_m_f_n_a.png,I,m,559,17,3,1577.0999999940395,283912.0,8076,NNB,A,16
17,test,4,1.0,1-Back,1.0,z,Tue Apr 21 2026 17:13:31 GMT-0500 (Central Daylight Time),287055.59999999404,043_m_f_n_a.png,I,z,545,18,3,1562.5999999940395,285493.0,8076,NNB,A,17
0,test,5,1.0,1-Back,,,Tue Apr 21 2026 17:13:31 GMT-0500 (Central Daylight Time),287055.59999999404,053_o_m_n_a.png,I,space,1810,1,3,1562.5999999940395,285493.0,8076,NNB,A,0
1,test,5,1.0,1-Back,1.0,z,Tue Apr 21 2026 17:13:31 GMT-0500 (Central Daylight Time),292603.7000000179,053_o_m_n_a.png,I,z,690,2,3,1712.5,290891.2000000179,8076,NNB,A,1
2,test,5,0.0,1-Back,1.0,m,Tue Apr 21 2026 17:13:31 GMT-0500 (Central Daylight Time),294036.5,063_y_f_n_a.png,I,m,406,3,3,1429.5,292607.0,8076,NNB,A,2
3,test,5,0.0,1-Back,1.0,m,Tue Apr 21 2026 17:13:31 GMT-0500 (Central Daylight Time),295819.40000000596,041_y_m_n_a.png,I,m,756,4,3,1778.4000000059605,294041.0,8076,NNB,A,3
4,test,5,0.0,1-Back,1.0,m,Tue Apr 21 2026 17:13:31 GMT-0500 (Central Daylight Time),297285.59999999404,063_y_f_n_a.png,I,m,446,5,3,1462.0999999940395,295823.5,8076,NNB,A,4
5,test,5,0.0,1-Back,1.0,m,Tue Apr 21 2026 17:13:31 GMT-0500 (Central Daylight Time),298884.90000000596,058_m_m_n_a.png,I,m,580,6,3,1595.800000011921,297289.09999999404,8076,NNB,A,5
6,test,5,1.0,1-Back,1.0,z,Tue Apr 21 2026 17:13:31 GMT-0500 (Central Daylight Time),300367.8000000119,058_m_m_n_a.png,I,z,452,7,3,1479.4000000059605,298888.40000000596,8076,NNB,A,6
7,test,5,0.0,1-Back,1.0,m,Tue Apr 21 2026 17:13:31 GMT-0500 (Central Daylight Time),301851.09999999404,010_y_f_n_a.png,I,m,459,8,3,1479.699999988079,300371.40000000596,8076,NNB,A,7
8,test,5,0.0,1-Back,1.0,m,Tue Apr 21 2026 17:13:31 GMT-0500 (Central Daylight Time),303517.2000000179,008_y_m_n_a.png,I,m,646,9,3,1661.9000000059605,301855.3000000119,8076,NNB,A,8
9,test,5,0.0,1-Back,1.0,m,Tue Apr 21 2026 17:13:31 GMT-0500 (Central Daylight Time),305066.59999999404,010_y_f_n_a.png,I,m,532,10,3,1544.5999999940395,303522.0,8076,NNB,A,9
10,test,5,0.0,1-Back,1.0,m,Tue Apr 21 2026 17:13:31 GMT-0500 (Central Daylight Time),306583.8000000119,047_o_f_n_a.png,I,m,487,11,3,1513.5,305070.3000000119,8076,NNB,A,10
11,test,5,1.0,1-Back,1.0,z,Tue Apr 21 2026 17:13:31 GMT-0500 (Central Daylight Time),308232.3000000119,047_o_f_n_a.png,I,z,521,12,3,1644.5999999940395,306587.7000000179,8076,NNB,A,11
12,test,5,0.0,1-Back,1.0,m,Tue Apr 21 2026 17:13:31 GMT-0500 (Central Daylight Time),309665.0,046_o_m_n_a.png,I,m,401,13,3,1428.9000000059605,308236.09999999404,8076,NNB,A,12
13,test,5,0.0,1-Back,1.0,m,Tue Apr 21 2026 17:13:31 GMT-0500 (Central Daylight Time),311247.90000000596,050_m_f_n_a.png,I,m,552,14,3,1579.5,309668.40000000596,8076,NNB,A,13
14,test,5,1.0,1-Back,1.0,z,Tue Apr 21 2026 17:13:31 GMT-0500 (Central Daylight Time),312931.5,050_m_f_n_a.png,I,z,666,15,3,1679.699999988079,311251.8000000119,8076,NNB,A,14
15,test,5,0.0,1-Back,1.0,m,Tue Apr 21 2026 17:13:31 GMT-0500 (Central Daylight Time),314380.2000000179,046_o_m_n_a.png,I,m,421,16,3,1445.300000011921,312934.90000000596,8076,NNB,A,15
16,test,5,0.0,1-Back,1.0,m,Tue Apr 21 2026 17:13:31 GMT-0500 (Central Daylight Time),316113.0,043_m_f_n_a.png,I,m,709,17,3,1729.2999999821186,314383.7000000179,8076,NNB,A,16
17,test,5,0.0,1-Back,1.0,m,Tue Apr 21 2026 17:13:31 GMT-0500 (Central Daylight Time),317629.2000000179,045_m_m_n_a.png,I,m,496,18,3,1511.2000000178814,316118.0,8076,NNB,A,17
0,prac,1,0.0,2-Back,,,Tue Apr 21 2026 17:13:31 GMT-0500 (Central Daylight Time),317629.2000000179,008_y_m_n_a.png,I,space,10311,1,3,1511.2000000178814,316118.0,8076,NNB,A,0
0,prac,1,0.0,2-Back,,,Tue Apr 21 2026 17:13:31 GMT-0500 (Central Daylight Time),317629.2000000179,043_m_f_n_a.png,I,space,10311,2,3,1511.2000000178814,316118.0,8076,NNB,A,0
1,prac,1,1.0,2-Back,1.0,m,Tue Apr 21 2026 17:13:31 GMT-0500 (Central Daylight Time),430811.8000000119,046_o_m_n_a.png,I,m,907,3,3,1710.4000000059605,429101.40000000596,8076,NNB,A,1
2,prac,1,0.0,2-Back,1.0,m,Tue Apr 21 2026 17:13:31 GMT-0500 (Central Daylight Time),432643.2000000179,047_o_f_n_a.png,I,m,998,4,3,1824.4000000059605,430818.8000000119,8076,NNB,A,2
3,prac,1,0.0,2-Back,1.0,z,Tue Apr 21 2026 17:13:31 GMT-0500 (Central Daylight Time),434109.40000000596,046_o_m_n_a.png,I,z,688,5,3,1459.5999999940395,432649.8000000119,8076,NNB,A,3
4,prac,1,1.0,2-Back,1.0,z,Tue Apr 21 2026 17:13:31 GMT-0500 (Central Daylight Time),435726.8000000119,047_o_f_n_a.png,I,z,847,6,3,1611.9000000059605,434114.90000000596,8076,NNB,A,4
5,prac,1,0.0,2-Back,1.0,m,Tue Apr 21 2026 17:13:31 GMT-0500 (Central Daylight Time),437291.40000000596,045_m_m_n_a.png,I,m,757,7,3,1558.4000000059605,435733.0,8076,NNB,A,5
6,prac,1,0.0,2-Back,1.0,m,Tue Apr 21 2026 17:13:31 GMT-0500 (Central Daylight Time),438991.2000000179,053_o_m_n_a.png,I,m,894,8,3,1692.800000011921,437298.40000000596,8076,NNB,A,6
7,prac,1,0.0,2-Back,1.0,m,Tue Apr 21 2026 17:13:31 GMT-0500 (Central Daylight Time),440424.0,010_y_f_n_a.png,I,m,652,9,3,1426.0999999940395,438997.90000000596,8076,NNB,A,7
8,prac,1,1.0,2-Back,1.0,z,Tue Apr 21 2026 17:13:31 GMT-0500 (Central Daylight Time),441873.59999999404,053_o_m_n_a.png,I,z,675,10,3,1442.699999988079,440430.90000000596,8076,NNB,A,8
8,prac,1,0.0,2-Back,0.0,m,Tue Apr 21 2026 17:13:31 GMT-0500 (Central Daylight Time),443540.8000000119,063_y_f_n_a.png,I,z,873,11,3,1660.5,441880.3000000119,8076,NNB,A,9
9,prac,1,0.0,2-Back,1.0,m,Tue Apr 21 2026 17:13:31 GMT-0500 (Central Daylight Time),445355.59999999404,045_m_m_n_a.png,I,m,1030,12,3,1808.3999999761581,443547.2000000179,8076,NNB,A,10
0,test,1,0.0,2-Back,,,Tue Apr 21 2026 17:13:31 GMT-0500 (Central Daylight Time),445355.59999999404,041_y_m_n_a.png,I,space,9504,1,3,1808.3999999761581,443547.2000000179,8076,NNB,A,0
0,test,1,0.0,2-Back,,,Tue Apr 21 2026 17:13:31 GMT-0500 (Central Daylight Time),445355.59999999404,041_y_m_n_a.png,I,space,9504,2,3,1808.3999999761581,443547.2000000179,8076,NNB,A,0
1,test,1,0.0,2-Back,1.0,m,Tue Apr 21 2026 17:13:31 GMT-0500 (Central Daylight Time),470264.59999999404,047_o_f_n_a.png,I,m,676,3,3,1695.0999999940395,468569.5,8076,NNB,A,1
2,test,1,0.0,2-Back,1.0,m,Tue Apr 21 2026 17:13:31 GMT-0500 (Central Daylight Time),471864.3000000119,058_m_m_n_a.png,I,m,577,4,3,1596.2000000178814,470268.09999999404,8076,NNB,A,2
3,test,1,1.0,2-Back,1.0,z,Tue Apr 21 2026 17:13:31 GMT-0500 (Central Daylight Time),473397.0,047_o_f_n_a.png,I,z,512,5,3,1528.9000000059605,471868.09999999404,8076,NNB,A,3
4,test,1,0.0,2-Back,1.0,m,Tue Apr 21 2026 17:13:31 GMT-0500 (Central Daylight Time),475213.09999999404,063_y_f_n_a.png,I,m,788,6,3,1812.5,473400.59999999404,8076,NNB,A,4
4,test,1,0.0,2-Back,0.0,m,Tue Apr 21 2026 17:13:31 GMT-0500 (Central Daylight Time),477097.2000000179,058_m_m_n_a.png,I,z,860,7,3,1880.2000000178814,475217.0,8076,NNB,A,5
5,test,1,1.0,2-Back,1.0,z,Tue Apr 21 2026 17:13:31 GMT-0500 (Central Daylight Time),478895.40000000596,063_y_f_n_a.png,I,z,778,8,3,1794.5999999940395,477100.8000000119,8076,NNB,A,6
6,test,1,0.0,2-Back,1.0,m,Tue Apr 21 2026 17:13:31 GMT-0500 (Central Daylight Time),480594.8000000119,008_y_m_n_a.png,I,m,674,9,3,1694.4000000059605,478900.40000000596,8076,NNB,A,7
7,test,1,0.0,2-Back,1.0,m,Tue Apr 21 2026 17:13:31 GMT-0500 (Central Daylight Time),482310.90000000596,044_o_f_n_a.png,I,m,686,10,3,1712.300000011921,480598.59999999404,8076,NNB,A,8
8,test,1,1.0,2-Back,1.0,z,Tue Apr 21 2026 17:13:31 GMT-0500 (Central Daylight Time),483743.90000000596,008_y_m_n_a.png,I,z,411,11,3,1429.0,482314.90000000596,8076,NNB,A,9
9,test,1,0.0,2-Back,1.0,m,Tue Apr 21 2026 17:13:31 GMT-0500 (Central Daylight Time),485543.3000000119,043_m_f_n_a.png,I,m,768,12,3,1796.0999999940395,483747.2000000179,8076,NNB,A,10
10,test,1,0.0,2-Back,1.0,m,Tue Apr 21 2026 17:13:31 GMT-0500 (Central Daylight Time),487575.90000000596,043_m_f_n_a.png,I,m,1010,13,3,2028.5999999940395,485547.3000000119,8076,NNB,A,11
11,test,1,0.0,2-Back,1.0,m,Tue Apr 21 2026 17:13:31 GMT-0500 (Central Daylight Time),489292.09999999404,046_o_m_n_a.png,I,m,689,14,3,1711.2999999821186,487580.8000000119,8076,NNB,A,12
12,test,1,0.0,2-Back,1.0,m,Tue Apr 21 2026 17:13:31 GMT-0500 (Central Daylight Time),491691.0,044_o_f_n_a.png,I,m,1381,15,3,2395.0,489296.0,8076,NNB,A,13
13,test,1,1.0,2-Back,1.0,z,Tue Apr 21 2026 17:13:31 GMT-0500 (Central Daylight Time),493175.0,046_o_m_n_a.png,I,z,462,16,3,1480.0,491695.0,8076,NNB,A,14
14,test,1,0.0,2-Back,1.0,m,Tue Apr 21 2026 17:13:31 GMT-0500 (Central Daylight Time),495090.09999999404,050_m_f_n_a.png,I,m,883,17,3,1910.199999988079,493179.90000000596,8076,NNB,A,15
15,test,1,0.0,2-Back,1.0,m,Tue Apr 21 2026 17:13:31 GMT-0500 (Central Daylight Time),497106.0,045_m_m_n_a.png,I,m,911,18,3,2012.5,495093.5,8076,NNB,A,16
0,test,2,0.0,2-Back,,,Tue Apr 21 2026 17:13:31 GMT-0500 (Central Daylight Time),497106.0,045_m_m_n_a.png,I,space,1960,1,3,2012.5,495093.5,8076,NNB,A,0
0,test,2,0.0,2-Back,,,Tue Apr 21 2026 17:13:31 GMT-0500 (Central Daylight Time),497106.0,010_y_f_n_a.png,I,space,1960,2,3,2012.5,495093.5,8076,NNB,A,0
1,test,2,1.0,2-Back,1.0,z,Tue Apr 21 2026 17:13:31 GMT-0500 (Central Daylight Time),506120.3000000119,045_m_m_n_a.png,I,z,927,3,3,1944.0,504176.3000000119,8076,NNB,A,1
2,test,2,0.0,2-Back,1.0,m,Tue Apr 21 2026 17:13:31 GMT-0500 (Central Daylight Time),507853.2000000179,050_m_f_n_a.png,I,m,705,4,3,1728.800000011921,506124.40000000596,8076,NNB,A,2
2,test,2,0.0,2-Back,0.0,m,Tue Apr 21 2026 17:13:31 GMT-0500 (Central Daylight Time),509952.2000000179,010_y_f_n_a.png,I,z,1069,5,3,2095.800000011921,507856.40000000596,8076,NNB,A,3
3,test,2,0.0,2-Back,1.0,m,Tue Apr 21 2026 17:13:31 GMT-0500 (Central Daylight Time),512218.0,046_o_m_n_a.png,I,m,1249,6,3,2261.699999988079,509956.3000000119,8076,NNB,A,4
4,test,2,0.0,2-Back,1.0,m,Tue Apr 21 2026 17:13:31 GMT-0500 (Central Daylight Time),514851.09999999404,063_y_f_n_a.png,I,m,1607,7,3,2629.399999976158,512221.7000000179,8076,NNB,A,5
5,test,2,1.0,2-Back,1.0,z,Tue Apr 21 2026 17:13:31 GMT-0500 (Central Daylight Time),516716.90000000596,046_o_m_n_a.png,I,z,847,8,3,1861.9000000059605,514855.0,8076,NNB,A,6
6,test,2,0.0,2-Back,1.0,m,Tue Apr 21 2026 17:13:31 GMT-0500 (Central Daylight Time),518882.5,008_y_m_n_a.png,I,m,1149,9,3,2161.5,516721.0,8076,NNB,A,7
6,test,2,0.0,2-Back,0.0,m,Tue Apr 21 2026 17:13:31 GMT-0500 (Central Daylight Time),521931.8000000119,008_y_m_n_a.png,I,None,2010,10,3,3045.7000000178814,518886.09999999404,8076,NNB,A,8
6,test,2,0.0,2-Back,0.0,m,Tue Apr 21 2026 17:13:31 GMT-0500 (Central Daylight Time),524930.8000000119,043_m_f_n_a.png,I,z,1981,11,3,2995.5,521935.3000000119,8076,NNB,A,9
7,test,2,0.0,2-Back,1.0,m,Tue Apr 21 2026 17:13:31 GMT-0500 (Central Daylight Time),527646.7000000179,010_y_f_n_a.png,I,m,1687,12,3,2712.600000023842,524934.099999994,8076,NNB,A,10
8,test,2,1.0,2-Back,1.0,z,Tue Apr 21 2026 17:13:31 GMT-0500 (Central Daylight Time),529446.0,043_m_f_n_a.png,I,z,780,13,3,1795.7999999821186,527650.2000000179,8076,NNB,A,11
9,test,2,0.0,2-Back,1.0,m,Tue Apr 21 2026 17:13:31 GMT-0500 (Central Daylight Time),531728.7000000179,053_o_m_n_a.png,I,m,1259,14,3,2279.100000023842,529449.599999994,8076,NNB,A,12
9,test,2,0.0,2-Back,0.0,m,Tue Apr 21 2026 17:13:31 GMT-0500 (Central Daylight Time),534761.2000000179,053_o_m_n_a.png,I,None,2016,15,3,3028.800000011921,531732.400000006,8076,NNB,A,13
10,test,2,0.0,2-Back,1.0,m,Tue Apr 21 2026 17:13:31 GMT-0500 (Central Daylight Time),536677.3000000119,044_o_f_n_a.png,I,m,888,16,3,1912.800000011921,534764.5,8076,NNB,A,14
11,test,2,0.0,2-Back,1.0,m,Tue Apr 21 2026 17:13:31 GMT-0500 (Central Daylight Time),538376.599999994,058_m_m_n_a.png,I,m,676,17,3,1695.5999999940395,536681.0,8076,NNB,A,15
12,test,2,1.0,2-Back,1.0,z,Tue Apr 21 2026 17:13:31 GMT-0500 (Central Daylight Time),539827.2000000179,044_o_f_n_a.png,I,z,425,18,3,1447.2000000178814,538380.0,8076,NNB,A,16
0,test,3,1.0,2-Back,,,Tue Apr 21 2026 17:13:31 GMT-0500 (Central Daylight Time),539827.2000000179,041_y_m_n_a.png,I,space,1854,1,3,1447.2000000178814,538380.0,8076,NNB,A,0
0,test,3,1.0,2-Back,,,Tue Apr 21 2026 17:13:31 GMT-0500 (Central Daylight Time),539827.2000000179,041_y_m_n_a.png,I,space,1854,2,3,1447.2000000178814,538380.0,8076,NNB,A,0
1,test,3,0.0,2-Back,1.0,m,Tue Apr 21 2026 17:13:31 GMT-0500 (Central Daylight Time),549056.900000006,044_o_f_n_a.png,I,m,1276,3,3,2295.9000000059605,546761.0,8076,NNB,A,1
2,test,3,0.0,2-Back,1.0,m,Tue Apr 21 2026 17:13:31 GMT-0500 (Central Daylight Time),551339.2000000179,045_m_m_n_a.png,I,m,1257,4,3,2276.9000000059605,549062.3000000119,8076,NNB,A,2
3,test,3,1.0,2-Back,1.0,z,Tue Apr 21 2026 17:13:31 GMT-0500 (Central Daylight Time),552788.599999994,044_o_f_n_a.png,I,z,422,5,3,1445.0999999940395,551343.5,8076,NNB,A,3
4,test,3,0.0,2-Back,1.0,m,Tue Apr 21 2026 17:13:31 GMT-0500 (Central Daylight Time),554804.900000006,008_y_m_n_a.png,I,m,997,6,3,2011.9000000059605,552793.0,8076,NNB,A,4
5,test,3,0.0,2-Back,1.0,m,Tue Apr 21 2026 17:13:31 GMT-0500 (Central Daylight Time),557404.099999994,045_m_m_n_a.png,I,m,1572,7,3,2595.5999999940395,554808.5,8076,NNB,A,5
6,test,3,1.0,2-Back,1.0,z,Tue Apr 21 2026 17:13:31 GMT-0500 (Central Daylight Time),559136.8000000119,008_y_m_n_a.png,I,z,701,8,3,1728.9000000059605,557407.900000006,8076,NNB,A,6
7,test,3,0.0,2-Back,1.0,m,Tue Apr 21 2026 17:13:31 GMT-0500 (Central Daylight Time),561003.0,010_y_f_n_a.png,I,m,841,9,3,1862.199999988079,559140.8000000119,8076,NNB,A,7
8,test,3,0.0,2-Back,1.0,m,Tue Apr 21 2026 17:13:31 GMT-0500 (Central Daylight Time),562702.5,058_m_m_n_a.png,I,m,678,10,3,1695.9000000059605,561006.599999994,8076,NNB,A,8
9,test,3,1.0,2-Back,1.0,z,Tue Apr 21 2026 17:13:31 GMT-0500 (Central Daylight Time),564351.900000006,010_y_f_n_a.png,I,z,627,11,3,1645.4000000059605,562706.5,8076,NNB,A,9
10,test,3,1.0,2-Back,1.0,z,Tue Apr 21 2026 17:13:31 GMT-0500 (Central Daylight Time),566584.5,058_m_m_n_a.png,I,z,1210,12,3,2229.199999988079,564355.3000000119,8076,NNB,A,10
11,test,3,0.0,2-Back,1.0,m,Tue Apr 21 2026 17:13:31 GMT-0500 (Central Daylight Time),568384.099999994,044_o_f_n_a.png,I,m,777,13,3,1796.0,566588.099999994,8076,NNB,A,11
12,test,3,0.0,2-Back,1.0,m,Tue Apr 21 2026 17:13:31 GMT-0500 (Central Daylight Time),570200.2000000179,050_m_f_n_a.png,I,m,794,14,3,1811.800000011921,568388.400000006,8076,NNB,A,12
13,test,3,0.0,2-Back,1.0,m,Tue Apr 21 2026 17:13:31 GMT-0500 (Central Daylight Time),571882.8000000119,046_o_m_n_a.png,I,m,650,15,3,1678.4000000059605,570204.400000006,8076,NNB,A,13
14,test,3,1.0,2-Back,1.0,z,Tue Apr 21 2026 17:13:31 GMT-0500 (Central Daylight Time),573565.599999994,050_m_f_n_a.png,I,z,663,16,3,1678.5999999940395,571887.0,8076,NNB,A,14
15,test,3,0.0,2-Back,1.0,m,Tue Apr 21 2026 17:13:31 GMT-0500 (Central Daylight Time),575448.400000006,047_o_f_n_a.png,I,m,860,17,3,1878.9000000059605,573569.5,8076,NNB,A,15
15,test,3,0.0,2-Back,0.0,m,Tue Apr 21 2026 17:13:31 GMT-0500 (Central Daylight Time),578480.5,047_o_f_n_a.png,I,None,2015,18,3,3028.5,575452.0,8076,NNB,A,16
0,test,4,0.0,2-Back,,,Tue Apr 21 2026 17:13:31 GMT-0500 (Central Daylight Time),578480.5,053_o_m_n_a.png,I,space,5889,1,3,3028.5,575452.0,8076,NNB,A,0
0,test,4,0.0,2-Back,,,Tue Apr 21 2026 17:13:31 GMT-0500 (Central Daylight Time),578480.5,063_y_f_n_a.png,I,space,5889,2,3,3028.5,575452.0,8076,NNB,A,0
1,test,4,1.0,2-Back,1.0,z,Tue Apr 21 2026 17:13:31 GMT-0500 (Central Daylight Time),591860.0,053_o_m_n_a.png,I,z,1255,3,3,2378.0,589482.0,8076,NNB,A,1
1,test,4,1.0,2-Back,0.0,z,Tue Apr 21 2026 17:13:31 GMT-0500 (Central Daylight Time),594525.8000000119,063_y_f_n_a.png,I,m,1647,4,3,2661.5,591864.3000000119,8076,NNB,A,2
2,test,4,0.0,2-Back,1.0,m,Tue Apr 21 2026 17:13:31 GMT-0500 (Central Daylight Time),596691.599999994,044_o_f_n_a.png,I,m,1148,5,3,2162.0999999940395,594529.5,8076,NNB,A,3
3,test,4,0.0,2-Back,1.0,m,Tue Apr 21 2026 17:13:31 GMT-0500 (Central Daylight Time),598674.3000000119,044_o_f_n_a.png,I,m,966,6,3,1978.300000011921,596696.0,8076,NNB,A,4
4,test,4,0.0,2-Back,1.0,m,Tue Apr 21 2026 17:13:31 GMT-0500 (Central Daylight Time),600674.0,043_m_f_n_a.png,I,m,975,7,3,1996.4000000059605,598677.599999994,8076,NNB,A,5
5,test,4,0.0,2-Back,1.0,m,Tue Apr 21 2026 17:13:31 GMT-0500 (Central Daylight Time),602806.900000006,008_y_m_n_a.png,I,m,1105,8,3,2129.0999999940395,600677.8000000119,8076,NNB,A,6
6,test,4,1.0,2-Back,1.0,z,Tue Apr 21 2026 17:13:31 GMT-0500 (Central Daylight Time),604555.5,043_m_f_n_a.png,I,z,731,9,3,1744.5999999940395,602810.900000006,8076,NNB,A,7
7,test,4,0.0,2-Back,1.0,m,Tue Apr 21 2026 17:13:31 GMT-0500 (Central Daylight Time),606471.8000000119,058_m_m_n_a.png,I,m,885,10,3,1913.0,604558.8000000119,8076,NNB,A,8
7,test,4,0.0,2-Back,0.0,m,Tue Apr 21 2026 17:13:31 GMT-0500 (Central Daylight Time),608821.400000006,008_y_m_n_a.png,I,z,1329,11,3,2345.699999988079,606475.7000000179,8076,NNB,A,9
8,test,4,0.0,2-Back,1.0,m,Tue Apr 21 2026 17:13:31 GMT-0500 (Central Daylight Time),610687.3000000119,047_o_f_n_a.png,I,m,836,12,3,1862.5,608824.8000000119,8076,NNB,A,10
9,test,4,0.0,2-Back,1.0,m,Tue Apr 21 2026 17:13:31 GMT-0500 (Central Daylight Time),612553.5,041_y_m_n_a.png,I,m,834,13,3,1861.4000000059605,610692.099999994,8076,NNB,A,11
10,test,4,1.0,2-Back,1.0,z,Tue Apr 21 2026 17:13:31 GMT-0500 (Central Daylight Time),614336.099999994,047_o_f_n_a.png,I,z,752,14,3,1779.0,612557.099999994,8076,NNB,A,12
11,test,4,1.0,2-Back,1.0,z,Tue Apr 21 2026 17:13:31 GMT-0500 (Central Daylight Time),616485.7000000179,041_y_m_n_a.png,I,z,1129,15,3,2145.800000011921,614339.900000006,8076,NNB,A,13
12,test,4,0.0,2-Back,1.0,m,Tue Apr 21 2026 17:13:31 GMT-0500 (Central Daylight Time),618435.0,045_m_m_n_a.png,I,m,924,16,3,1945.4000000059605,616489.599999994,8076,NNB,A,14
13,test,4,0.0,2-Back,1.0,m,Tue Apr 21 2026 17:13:31 GMT-0500 (Central Daylight Time),620167.400000006,050_m_f_n_a.png,I,m,702,17,3,1727.300000011921,618440.099999994,8076,NNB,A,15
14,test,4,1.0,2-Back,1.0,z,Tue Apr 21 2026 17:13:31 GMT-0500 (Central Daylight Time),621850.5,045_m_m_n_a.png,I,z,650,18,3,1679.5,620171.0,8076,NNB,A,16
0,test,5,1.0,2-Back,,,Tue Apr 21 2026 17:13:31 GMT-0500 (Central Daylight Time),621850.5,041_y_m_n_a.png,I,space,28423,1,3,1679.5,620171.0,8076,NNB,A,0
0,test,5,1.0,2-Back,,,Tue Apr 21 2026 17:13:31 GMT-0500 (Central Daylight Time),621850.5,050_m_f_n_a.png,I,space,28423,2,3,1679.5,620171.0,8076,NNB,A,0
1,test,5,1.0,2-Back,1.0,z,Tue Apr 21 2026 17:13:31 GMT-0500 (Central Daylight Time),656939.5,041_y_m_n_a.png,I,z,589,3,3,1612.0,655327.5,8076,NNB,A,1
2,test,5,1.0,2-Back,1.0,z,Tue Apr 21 2026 17:13:31 GMT-0500 (Central Daylight Time),658738.900000006,050_m_f_n_a.png,I,z,774,4,3,1795.0999999940395,656943.8000000119,8076,NNB,A,2
3,test,5,0.0,2-Back,1.0,m,Tue Apr 21 2026 17:13:31 GMT-0500 (Central Daylight Time),660488.400000006,047_o_f_n_a.png,I,m,726,5,3,1745.9000000059605,658742.5,8076,NNB,A,3
3,test,5,0.0,2-Back,0.0,m,Tue Apr 21 2026 17:13:31 GMT-0500 (Central Daylight Time),662954.2000000179,041_y_m_n_a.png,I,z,1441,6,3,2461.800000011921,660492.400000006,8076,NNB,A,4
4,test,5,0.0,2-Back,1.0,m,Tue Apr 21 2026 17:13:31 GMT-0500 (Central Daylight Time),664970.0,010_y_f_n_a.png,I,m,999,7,3,2011.9000000059605,662958.099999994,8076,NNB,A,5
4,test,5,0.0,2-Back,0.0,m,Tue Apr 21 2026 17:13:31 GMT-0500 (Central Daylight Time),666886.5,047_o_f_n_a.png,I,z,895,8,3,1912.5,664974.0,8076,NNB,A,6
5,test,5,1.0,2-Back,1.0,z,Tue Apr 21 2026 17:13:31 GMT-0500 (Central Daylight Time),668785.8000000119,010_y_f_n_a.png,I,z,874,9,3,1895.800000011921,666890.0,8076,NNB,A,7
6,test,5,0.0,2-Back,1.0,m,Tue Apr 21 2026 17:13:31 GMT-0500 (Central Daylight Time),670885.2000000179,046_o_m_n_a.png,I,m,1072,10,3,2095.600000023842,668789.599999994,8076,NNB,A,8
7,test,5,0.0,2-Back,1.0,m,Tue Apr 21 2026 17:13:31 GMT-0500 (Central Daylight Time),672834.599999994,043_m_f_n_a.png,I,m,917,11,3,1945.199999988079,670889.400000006,8076,NNB,A,9
8,test,5,0.0,2-Back,1.0,m,Tue Apr 21 2026 17:13:31 GMT-0500 (Central Daylight Time),674800.599999994,058_m_m_n_a.png,I,m,942,12,3,1962.5,672838.099999994,8076,NNB,A,10
9,test,5,0.0,2-Back,1.0,m,Tue Apr 21 2026 17:13:31 GMT-0500 (Central Daylight Time),677116.400000006,046_o_m_n_a.png,I,m,1297,13,3,2312.0999999940395,674804.3000000119,8076,NNB,A,11
10,test,5,1.0,2-Back,1.0,z,Tue Apr 21 2026 17:13:31 GMT-0500 (Central Daylight Time),679082.599999994,058_m_m_n_a.png,I,z,949,14,3,1962.0,677120.599999994,8076,NNB,A,12
11,test,5,0.0,2-Back,1.0,m,Tue Apr 21 2026 17:13:31 GMT-0500 (Central Daylight Time),680848.7000000179,063_y_f_n_a.png,I,m,735,15,3,1762.300000011921,679086.400000006,8076,NNB,A,13
12,test,5,0.0,2-Back,1.0,m,Tue Apr 21 2026 17:13:31 GMT-0500 (Central Daylight Time),682548.099999994,053_o_m_n_a.png,I,m,674,16,3,1695.699999988079,680852.400000006,8076,NNB,A,14
13,test,5,0.0,2-Back,1.0,m,Tue Apr 21 2026 17:13:31 GMT-0500 (Central Daylight Time),684231.099999994,043_m_f_n_a.png,I,m,653,17,3,1679.5999999940395,682551.5,8076,NNB,A,15
14,test,5,1.0,2-Back,1.0,z,Tue Apr 21 2026 17:13:31 GMT-0500 (Central Daylight Time),685746.900000006,053_o_m_n_a.png,I,z,498,18,3,1512.300000011921,684234.599999994,8076,NNB,A,16
