block_c,block_dur,condition,countdown,datetime,endtime,list,multichar_response,project,response,response_time,session_number,start_end,starttime,subject_id,task,task_vers,trial
,,,,Wed May 13 2026 13:55:20 GMT-0500 (Central Daylight Time),,,,O,space,716,1,,,7807,WL,A,
prac,,0,,Wed May 13 2026 13:55:20 GMT-0500 (Central Daylight Time),,NA,b,O,b,1424,1,,,7807,WL,A,1.0
prac,,0,,Wed May 13 2026 13:55:20 GMT-0500 (Central Daylight Time),,NA,bo,O,o,428,1,,,7807,WL,A,1.0
prac,,0,,Wed May 13 2026 13:55:20 GMT-0500 (Central Daylight Time),,NA,boo,O,o,119,1,,,7807,WL,A,1.0
prac,,0,,Wed May 13 2026 13:55:20 GMT-0500 (Central Daylight Time),,NA,boos,O,s,151,1,,,7807,WL,A,1.0
prac,,0,,Wed May 13 2026 13:55:20 GMT-0500 (Central Daylight Time),,NA,boost,O,t,307,1,,,7807,WL,A,1.0
prac,,0,,Wed May 13 2026 13:55:20 GMT-0500 (Central Daylight Time),,NA,boostenter,O,enter,2116,1,,,7807,WL,A,1.0
1,1.5499999523162842,learn,58450.000047683716,Wed May 13 2026 13:55:20 GMT-0500 (Central Daylight Time),148668.79999999702,A,b,O,b,1525,1,1549.5999999940395,147119.20000000298,7807,WL,A,1.0
1,1.9489998817443848,learn,58051.000118255615,Wed May 13 2026 13:55:20 GMT-0500 (Central Daylight Time),149067.59999999404,A,bo,O,o,383,1,1948.3999999910593,147119.20000000298,7807,WL,A,1.0
1,2.065999984741211,learn,57934.00001525879,Wed May 13 2026 13:55:20 GMT-0500 (Central Daylight Time),149184.20000000298,A,boo,O,o,106,1,2065.0,147119.20000000298,7807,WL,A,1.0
1,2.5839998722076416,learn,57416.00012779236,Wed May 13 2026 13:55:20 GMT-0500 (Central Daylight Time),149702.40000000596,A,book,O,k,509,1,2583.2000000029802,147119.20000000298,7807,WL,A,1.0
1,3.8320000171661377,learn,56167.99998283386,Wed May 13 2026 13:55:20 GMT-0500 (Central Daylight Time),150950.70000000298,A,bookenter,O,enter,1241,1,3831.5,147119.20000000298,7807,WL,A,1.0
1,4.365999937057495,learn,55634.000062942505,Wed May 13 2026 13:55:20 GMT-0500 (Central Daylight Time),151484.5,A,f,O,f,512,1,533.5,150951.0,7807,WL,A,2.0
1,4.58299994468689,learn,55417.00005531311,Wed May 13 2026 13:55:20 GMT-0500 (Central Daylight Time),151700.90000000596,A,fl,O,l,195,1,749.9000000059605,150951.0,7807,WL,A,2.0
1,4.799999952316284,learn,55200.000047683716,Wed May 13 2026 13:55:20 GMT-0500 (Central Daylight Time),151918.40000000596,A,flo,O,o,208,1,967.4000000059605,150951.0,7807,WL,A,2.0
1,5.2149999141693115,learn,54785.00008583069,Wed May 13 2026 13:55:20 GMT-0500 (Central Daylight Time),152333.59999999404,A,flow,O,w,392,1,1382.5999999940395,150951.0,7807,WL,A,2.0
1,5.48199987411499,learn,54518.00012588501,Wed May 13 2026 13:55:20 GMT-0500 (Central Daylight Time),152600.09999999404,A,flowe,O,e,249,1,1649.0999999940395,150951.0,7807,WL,A,2.0
1,5.730999946594238,learn,54269.00005340576,Wed May 13 2026 13:55:20 GMT-0500 (Central Daylight Time),152850.0,A,flower,O,r,241,1,1899.0,150951.0,7807,WL,A,2.0
1,6.865000009536743,learn,53134.99999046326,Wed May 13 2026 13:55:20 GMT-0500 (Central Daylight Time),153983.5,A,flowert,O,t,1126,1,3032.5,150951.0,7807,WL,A,2.0
1,7.148000001907349,learn,52851.99999809265,Wed May 13 2026 13:55:20 GMT-0500 (Central Daylight Time),154266.0,A,flowertr,O,r,263,1,3315.0,150951.0,7807,WL,A,2.0
1,7.614000082015991,learn,52385.99991798401,Wed May 13 2026 13:55:20 GMT-0500 (Central Daylight Time),154732.29999999702,A,flowertra,O,a,455,1,3781.2999999970198,150951.0,7807,WL,A,2.0
1,7.815000057220459,learn,52184.99994277954,Wed May 13 2026 13:55:20 GMT-0500 (Central Daylight Time),154932.90000000596,A,flowertrai,O,i,187,1,3981.9000000059605,150951.0,7807,WL,A,2.0
1,8.280999898910522,learn,51719.00010108948,Wed May 13 2026 13:55:20 GMT-0500 (Central Daylight Time),155399.70000000298,A,flowertrain,O,n,460,1,4448.70000000298,150951.0,7807,WL,A,2.0
1,10.329999923706055,learn,49670.000076293945,Wed May 13 2026 13:55:20 GMT-0500 (Central Daylight Time),157448.5,A,flowertrainm,O,m,2044,1,6497.5,150951.0,7807,WL,A,2.0
1,10.52999997138977,learn,49470.00002861023,Wed May 13 2026 13:55:20 GMT-0500 (Central Daylight Time),157648.29999999702,A,flowertrainme,O,e,192,1,6697.29999999702,150951.0,7807,WL,A,2.0
1,10.69700002670288,learn,49302.99997329712,Wed May 13 2026 13:55:20 GMT-0500 (Central Daylight Time),157815.90000000596,A,flowertrainmea,O,a,160,1,6864.9000000059605,150951.0,7807,WL,A,2.0
1,10.96399998664856,learn,49036.00001335144,Wed May 13 2026 13:55:20 GMT-0500 (Central Daylight Time),158081.90000000596,A,flowertrainmead,O,d,257,1,7130.9000000059605,150951.0,7807,WL,A,2.0
1,11.280999898910522,learn,48719.00010108948,Wed May 13 2026 13:55:20 GMT-0500 (Central Daylight Time),158399.20000000298,A,flowertrainmeado,O,o,303,1,7448.20000000298,150951.0,7807,WL,A,2.0
1,12.178999900817871,learn,47821.00009918213,Wed May 13 2026 13:55:20 GMT-0500 (Central Daylight Time),159297.59999999404,A,flowertrainmeadow,O,w,891,1,8346.59999999404,150951.0,7807,WL,A,2.0
1,13.828999996185303,learn,46171.0000038147,Wed May 13 2026 13:55:20 GMT-0500 (Central Daylight Time),160947.5,A,flowertrainmeadowenter,O,enter,1638,1,9996.5,150951.0,7807,WL,A,2.0
1,16.82800006866455,learn,43171.99993133545,Wed May 13 2026 13:55:20 GMT-0500 (Central Daylight Time),163946.29999999702,A,h,O,h,2988,1,2998.3999999910593,160947.90000000596,7807,WL,A,3.0
1,17.043999910354614,learn,42956.000089645386,Wed May 13 2026 13:55:20 GMT-0500 (Central Daylight Time),164162.90000000596,A,ha,O,a,206,1,3215.0,160947.90000000596,7807,WL,A,3.0
1,17.295000076293945,learn,42704.999923706055,Wed May 13 2026 13:55:20 GMT-0500 (Central Daylight Time),164412.90000000596,A,har,O,r,229,1,3465.0,160947.90000000596,7807,WL,A,3.0
1,17.710999965667725,learn,42289.000034332275,Wed May 13 2026 13:55:20 GMT-0500 (Central Daylight Time),164829.79999999702,A,harp,O,p,394,1,3881.8999999910593,160947.90000000596,7807,WL,A,3.0
1,18.677000045776367,learn,41322.99995422363,Wed May 13 2026 13:55:20 GMT-0500 (Central Daylight Time),165795.79999999702,A,harpenter,O,enter,943,1,4847.899999991059,160947.90000000596,7807,WL,A,3.0
1,19.526999950408936,learn,40473.000049591064,Wed May 13 2026 13:55:20 GMT-0500 (Central Daylight Time),166645.90000000596,A,f,O,f,836,1,849.8000000119209,165796.09999999404,7807,WL,A,4.0
1,19.67799997329712,learn,40322.00002670288,Wed May 13 2026 13:55:20 GMT-0500 (Central Daylight Time),166796.70000000298,A,fi,O,i,135,1,1000.6000000089407,165796.09999999404,7807,WL,A,4.0
1,19.877000093460083,learn,40122.99990653992,Wed May 13 2026 13:55:20 GMT-0500 (Central Daylight Time),166995.09999999404,A,fin,O,n,186,1,1199.0,165796.09999999404,7807,WL,A,4.0
1,20.14299988746643,learn,39857.00011253357,Wed May 13 2026 13:55:20 GMT-0500 (Central Daylight Time),167261.40000000596,A,fing,O,g,250,1,1465.300000011921,165796.09999999404,7807,WL,A,4.0
1,20.361000061035156,learn,39638.999938964844,Wed May 13 2026 13:55:20 GMT-0500 (Central Daylight Time),167479.0,A,finge,O,e,213,1,1682.9000000059605,165796.09999999404,7807,WL,A,4.0
1,20.542999982833862,learn,39457.00001716614,Wed May 13 2026 13:55:20 GMT-0500 (Central Daylight Time),167661.79999999702,A,finger,O,r,168,1,1865.7000000029802,165796.09999999404,7807,WL,A,4.0
1,23.05900001525879,learn,36940.99998474121,Wed May 13 2026 13:55:20 GMT-0500 (Central Daylight Time),170177.29999999702,A,fingerenter,O,enter,2504,1,4381.20000000298,165796.09999999404,7807,WL,A,4.0
1,32.62599992752075,learn,27374.000072479248,Wed May 13 2026 13:55:20 GMT-0500 (Central Daylight Time),179744.0,A,a,O,a,9550,1,9566.29999999702,170177.70000000298,7807,WL,A,5.0
1,33.10699987411499,learn,26893.00012588501,Wed May 13 2026 13:55:20 GMT-0500 (Central Daylight Time),180225.90000000596,A,ap,O,p,472,1,10048.20000000298,170177.70000000298,7807,WL,A,5.0
1,33.223000049591064,learn,26776.999950408936,Wed May 13 2026 13:55:20 GMT-0500 (Central Daylight Time),180342.0,A,app,O,p,111,1,10164.29999999702,170177.70000000298,7807,WL,A,5.0
1,33.90599989891052,learn,26094.000101089478,Wed May 13 2026 13:55:20 GMT-0500 (Central Daylight Time),181025.0,A,appl,O,l,664,1,10847.29999999702,170177.70000000298,7807,WL,A,5.0
1,34.2720000743866,learn,25727.999925613403,Wed May 13 2026 13:55:20 GMT-0500 (Central Daylight Time),181390.79999999702,A,apple,O,e,351,1,11213.09999999404,170177.70000000298,7807,WL,A,5.0
1,35.223000049591064,learn,24776.999950408936,Wed May 13 2026 13:55:20 GMT-0500 (Central Daylight Time),182342.0,A,applec,O,c,947,1,12164.29999999702,170177.70000000298,7807,WL,A,5.0
1,35.44000005722046,learn,24559.99994277954,Wed May 13 2026 13:55:20 GMT-0500 (Central Daylight Time),182558.29999999702,A,applech,O,h,210,1,12380.59999999404,170177.70000000298,7807,WL,A,5.0
1,35.639999866485596,learn,24360.000133514404,Wed May 13 2026 13:55:20 GMT-0500 (Central Daylight Time),182758.70000000298,A,applechi,O,i,194,1,12581.0,170177.70000000298,7807,WL,A,5.0
1,36.0550000667572,learn,23944.999933242798,Wed May 13 2026 13:55:20 GMT-0500 (Central Daylight Time),183173.90000000596,A,applechim,O,m,402,1,12996.20000000298,170177.70000000298,7807,WL,A,5.0
1,36.35599994659424,learn,23644.00005340576,Wed May 13 2026 13:55:20 GMT-0500 (Central Daylight Time),183474.5,A,applechimn,O,n,283,1,13296.79999999702,170177.70000000298,7807,WL,A,5.0
1,36.62299990653992,learn,23377.000093460083,Wed May 13 2026 13:55:20 GMT-0500 (Central Daylight Time),183741.70000000298,A,applechimne,O,e,246,1,13564.0,170177.70000000298,7807,WL,A,5.0
1,36.87299990653992,learn,23127.000093460083,Wed May 13 2026 13:55:20 GMT-0500 (Central Daylight Time),183991.40000000596,A,applechimney,O,y,243,1,13813.70000000298,170177.70000000298,7807,WL,A,5.0
1,37.78600001335144,learn,22213.99998664856,Wed May 13 2026 13:55:20 GMT-0500 (Central Daylight Time),184905.20000000298,A,applechimneyl,O,l,895,1,14727.5,170177.70000000298,7807,WL,A,5.0
1,38.00399994850159,learn,21996.000051498413,Wed May 13 2026 13:55:20 GMT-0500 (Central Daylight Time),185122.79999999702,A,applechimneylo,O,o,209,1,14945.09999999404,170177.70000000298,7807,WL,A,5.0
1,38.38700008392334,learn,21612.99991607666,Wed May 13 2026 13:55:20 GMT-0500 (Central Daylight Time),185506.09999999404,A,applechimneylog,O,g,374,1,15328.39999999106,170177.70000000298,7807,WL,A,5.0
1,39.58699989318848,learn,20413.000106811523,Wed May 13 2026 13:55:20 GMT-0500 (Central Daylight Time),186706.0,A,applechimneylogenter,O,enter,1182,1,16528.29999999702,170177.70000000298,7807,WL,A,5.0
1,49.901000022888184,learn,10098.999977111816,Wed May 13 2026 13:55:20 GMT-0500 (Central Daylight Time),197019.59999999404,A,k,O,k,10295,1,10313.39999999106,186706.20000000298,7807,WL,A,6.0
1,50.06699991226196,learn,9933.000087738037,Wed May 13 2026 13:55:20 GMT-0500 (Central Daylight Time),197186.09999999404,A,ke,O,e,148,1,10479.89999999106,186706.20000000298,7807,WL,A,6.0
1,50.31699991226196,learn,9683.000087738037,Wed May 13 2026 13:55:20 GMT-0500 (Central Daylight Time),197435.5,A,key,O,y,237,1,10729.29999999702,186706.20000000298,7807,WL,A,6.0
1,50.73300004005432,learn,9266.999959945679,Wed May 13 2026 13:55:20 GMT-0500 (Central Daylight Time),197851.90000000596,A,keyenter,O,enter,406,1,11145.70000000298,186706.20000000298,7807,WL,A,6.0
1,52.13499999046326,learn,7865.000009536743,Wed May 13 2026 13:55:20 GMT-0500 (Central Daylight Time),199253.40000000596,A,g,O,g,1389,1,1401.2000000029802,197852.20000000298,7807,WL,A,7.0
1,52.33299994468689,learn,7667.00005531311,Wed May 13 2026 13:55:20 GMT-0500 (Central Daylight Time),199451.79999999702,A,go,O,o,178,1,1599.5999999940395,197852.20000000298,7807,WL,A,7.0
1,52.53200006484985,learn,7467.9999351501465,Wed May 13 2026 13:55:20 GMT-0500 (Central Daylight Time),199650.70000000298,A,gol,O,l,185,1,1798.5,197852.20000000298,7807,WL,A,7.0
1,52.83200001716614,learn,7167.999982833862,Wed May 13 2026 13:55:20 GMT-0500 (Central Daylight Time),199950.70000000298,A,gold,O,d,286,1,2098.5,197852.20000000298,7807,WL,A,7.0
1,53.16599988937378,learn,6834.000110626221,Wed May 13 2026 13:55:20 GMT-0500 (Central Daylight Time),200285.09999999404,A,goldenter,O,enter,314,1,2432.8999999910593,197852.20000000298,7807,WL,A,7.0
1,53.782999992370605,learn,6217.0000076293945,Wed May 13 2026 13:55:20 GMT-0500 (Central Daylight Time),200901.29999999702,A,r,O,r,611,1,615.8999999910593,200285.40000000596,7807,WL,A,8.0
1,53.96799993515015,learn,6032.0000648498535,Wed May 13 2026 13:55:20 GMT-0500 (Central Daylight Time),201087.0,A,ra,O,a,162,1,801.5999999940395,200285.40000000596,7807,WL,A,8.0
1,54.16700005531311,learn,5832.99994468689,Wed May 13 2026 13:55:20 GMT-0500 (Central Daylight Time),201285.90000000596,A,rat,O,t,194,1,1000.5,200285.40000000596,7807,WL,A,8.0
1,54.31599998474121,learn,5684.000015258789,Wed May 13 2026 13:55:20 GMT-0500 (Central Daylight Time),201434.5,A,ratt,O,t,137,1,1149.0999999940395,200285.40000000596,7807,WL,A,8.0
1,54.48399996757507,learn,5516.000032424927,Wed May 13 2026 13:55:20 GMT-0500 (Central Daylight Time),201602.5,A,rattl,O,l,150,1,1317.0999999940395,200285.40000000596,7807,WL,A,8.0
1,54.598000049591064,learn,5401.999950408936,Wed May 13 2026 13:55:20 GMT-0500 (Central Daylight Time),201717.20000000298,A,rattle,O,e,101,1,1431.7999999970198,200285.40000000596,7807,WL,A,8.0
1,54.81500005722046,learn,5184.999942779541,Wed May 13 2026 13:55:20 GMT-0500 (Central Daylight Time),201934.20000000298,A,rattleenter,O,enter,202,1,1648.7999999970198,200285.40000000596,7807,WL,A,8.0
1,60.01600003242493,learn,-16.000032424926758,Wed May 13 2026 13:55:20 GMT-0500 (Central Daylight Time),207134.40000000596,A,None,O,None,5197,1,5200.0,201934.40000000596,7807,WL,A,9.0
2,1.434999942779541,learn,58565.00005722046,Wed May 13 2026 13:55:20 GMT-0500 (Central Daylight Time),286576.09999999404,A,b,O,b,1428,1,1434.7999999970198,285141.299999997,7807,WL,A,1.0
2,2.1499998569488525,learn,57850.00014305115,Wed May 13 2026 13:55:20 GMT-0500 (Central Daylight Time),287290.700000003,A,bo,O,o,702,1,2149.4000000059605,285141.299999997,7807,WL,A,1.0
2,2.299999952316284,learn,57700.000047683716,Wed May 13 2026 13:55:20 GMT-0500 (Central Daylight Time),287440.90000000596,A,boo,O,o,143,1,2299.6000000089407,285141.299999997,7807,WL,A,1.0
2,2.56499981880188,learn,57435.00018119812,Wed May 13 2026 13:55:20 GMT-0500 (Central Daylight Time),287706.59999999404,A,book,O,k,245,1,2565.2999999970198,285141.299999997,7807,WL,A,1.0
2,2.8980000019073486,learn,57101.99999809265,Wed May 13 2026 13:55:20 GMT-0500 (Central Daylight Time),288039.5,A,bookenter,O,enter,322,1,2898.2000000029802,285141.299999997,7807,WL,A,1.0
2,3.5989999771118164,learn,56401.00002288818,Wed May 13 2026 13:55:20 GMT-0500 (Central Daylight Time),288740.0,A,f,O,f,691,1,700.2999999970198,288039.700000003,7807,WL,A,2.0
2,3.8329999446868896,learn,56167.00005531311,Wed May 13 2026 13:55:20 GMT-0500 (Central Daylight Time),288974.5,A,fl,O,l,213,1,934.7999999970198,288039.700000003,7807,WL,A,2.0
2,4.08299994468689,learn,55917.00005531311,Wed May 13 2026 13:55:20 GMT-0500 (Central Daylight Time),289223.700000003,A,flo,O,o,241,1,1184.0,288039.700000003,7807,WL,A,2.0
2,4.413999795913696,learn,55586.000204086304,Wed May 13 2026 13:55:20 GMT-0500 (Central Daylight Time),289555.09999999404,A,flow,O,w,319,1,1515.3999999910593,288039.700000003,7807,WL,A,2.0
2,4.663999795913696,learn,55336.000204086304,Wed May 13 2026 13:55:20 GMT-0500 (Central Daylight Time),289805.299999997,A,flowe,O,e,231,1,1765.5999999940395,288039.700000003,7807,WL,A,2.0
2,4.86899995803833,learn,55131.00004196167,Wed May 13 2026 13:55:20 GMT-0500 (Central Daylight Time),290010.09999999404,A,flower,O,r,184,1,1970.3999999910593,288039.700000003,7807,WL,A,2.0
2,5.9649999141693115,learn,54035.00008583069,Wed May 13 2026 13:55:20 GMT-0500 (Central Daylight Time),291106.200000003,A,flowerenter,O,enter,1078,1,3066.5,288039.700000003,7807,WL,A,2.0
2,7.230000019073486,learn,52769.999980926514,Wed May 13 2026 13:55:20 GMT-0500 (Central Daylight Time),292371.59999999404,A,r,O,r,1253,1,1265.0999999940395,291106.5,7807,WL,A,3.0
2,7.680999994277954,learn,52319.000005722046,Wed May 13 2026 13:55:20 GMT-0500 (Central Daylight Time),292822.5,A,ru,O,u,438,1,1716.0,291106.5,7807,WL,A,3.0
2,7.930999994277954,learn,52069.000005722046,Wed May 13 2026 13:55:20 GMT-0500 (Central Daylight Time),293072.0,A,rug,O,g,233,1,1965.5,291106.5,7807,WL,A,3.0
2,8.230000019073486,learn,51769.999980926514,Wed May 13 2026 13:55:20 GMT-0500 (Central Daylight Time),293370.59999999404,A,rugenter,O,enter,279,1,2264.0999999940395,291106.5,7807,WL,A,3.0
2,8.746999979019165,learn,51253.000020980835,Wed May 13 2026 13:55:20 GMT-0500 (Central Daylight Time),293888.299999997,A,t,O,t,502,1,517.3999999910593,293370.90000000596,7807,WL,A,4.0
2,8.980999946594238,learn,51019.00005340576,Wed May 13 2026 13:55:20 GMT-0500 (Central Daylight Time),294121.700000003,A,tr,O,r,224,1,750.7999999970198,293370.90000000596,7807,WL,A,4.0
2,9.179999828338623,learn,50820.00017166138,Wed May 13 2026 13:55:20 GMT-0500 (Central Daylight Time),294321.5,A,tra,O,a,191,1,950.5999999940395,293370.90000000596,7807,WL,A,4.0
2,9.38099980354309,learn,50619.00019645691,Wed May 13 2026 13:55:20 GMT-0500 (Central Daylight Time),294522.0,A,trai,O,i,182,1,1151.0999999940395,293370.90000000596,7807,WL,A,4.0
2,9.662999868392944,learn,50337.000131607056,Wed May 13 2026 13:55:20 GMT-0500 (Central Daylight Time),294804.40000000596,A,train,O,n,262,1,1433.5,293370.90000000596,7807,WL,A,4.0
2,10.246999979019165,learn,49753.000020980835,Wed May 13 2026 13:55:20 GMT-0500 (Central Daylight Time),295388.299999997,A,trainenter,O,enter,563,1,2017.3999999910593,293370.90000000596,7807,WL,A,4.0
2,10.86299991607666,learn,49137.00008392334,Wed May 13 2026 13:55:20 GMT-0500 (Central Daylight Time),296004.5,A,m,O,m,596,1,615.9000000059605,295388.59999999404,7807,WL,A,5.0
2,11.078999996185303,learn,48921.0000038147,Wed May 13 2026 13:55:20 GMT-0500 (Central Daylight Time),296220.59999999404,A,me,O,e,193,1,832.0,295388.59999999404,7807,WL,A,5.0
2,11.230000019073486,learn,48769.999980926514,Wed May 13 2026 13:55:20 GMT-0500 (Central Daylight Time),296370.799999997,A,mea,O,a,129,1,982.2000000029802,295388.59999999404,7807,WL,A,5.0
2,11.896999835968018,learn,48103.00016403198,Wed May 13 2026 13:55:20 GMT-0500 (Central Daylight Time),297037.700000003,A,mead,O,d,654,1,1649.1000000089407,295388.59999999404,7807,WL,A,5.0
2,12.129999876022339,learn,47870.00012397766,Wed May 13 2026 13:55:20 GMT-0500 (Central Daylight Time),297270.59999999404,A,meado,O,o,216,1,1882.0,295388.59999999404,7807,WL,A,5.0
2,12.52899980545044,learn,47471.00019454956,Wed May 13 2026 13:55:20 GMT-0500 (Central Daylight Time),297670.09999999404,A,meadow,O,w,385,1,2281.5,295388.59999999404,7807,WL,A,5.0
2,13.345999956130981,learn,46654.00004386902,Wed May 13 2026 13:55:20 GMT-0500 (Central Daylight Time),298486.799999997,A,meadowenter,O,enter,799,1,3098.2000000029802,295388.59999999404,7807,WL,A,5.0
2,13.796000003814697,learn,46203.9999961853,Wed May 13 2026 13:55:20 GMT-0500 (Central Daylight Time),298937.59999999404,A,h,O,h,445,1,450.59999999403954,298487.0,7807,WL,A,6.0
2,13.946999788284302,learn,46053.0002117157,Wed May 13 2026 13:55:20 GMT-0500 (Central Daylight Time),299087.700000003,A,ha,O,a,143,1,600.7000000029802,298487.0,7807,WL,A,6.0
2,14.41100001335144,learn,45588.99998664856,Wed May 13 2026 13:55:20 GMT-0500 (Central Daylight Time),299551.799999997,A,har,O,r,454,1,1064.7999999970198,298487.0,7807,WL,A,6.0
2,15.546000003814697,learn,44453.9999961853,Wed May 13 2026 13:55:20 GMT-0500 (Central Daylight Time),300687.299999997,A,harp,O,p,1128,1,2200.2999999970198,298487.0,7807,WL,A,6.0
2,16.52899980545044,learn,43471.00019454956,Wed May 13 2026 13:55:20 GMT-0500 (Central Daylight Time),301670.299999997,A,harpenter,O,enter,970,1,3183.2999999970198,298487.0,7807,WL,A,6.0
2,17.52899980545044,learn,42471.00019454956,Wed May 13 2026 13:55:20 GMT-0500 (Central Daylight Time),302670.799999997,A,f,O,f,995,1,1000.2999999970198,301670.5,7807,WL,A,7.0
2,17.728999853134155,learn,42271.000146865845,Wed May 13 2026 13:55:20 GMT-0500 (Central Daylight Time),302870.09999999404,A,fi,O,i,176,1,1199.5999999940395,301670.5,7807,WL,A,7.0
2,17.992999792099,learn,42007.000207901,Wed May 13 2026 13:55:20 GMT-0500 (Central Daylight Time),303134.700000003,A,fin,O,n,249,1,1464.2000000029802,301670.5,7807,WL,A,7.0
2,18.26099991798401,learn,41739.00008201599,Wed May 13 2026 13:55:20 GMT-0500 (Central Daylight Time),303402.200000003,A,fing,O,g,248,1,1731.7000000029802,301670.5,7807,WL,A,7.0
2,18.46299982070923,learn,41537.00017929077,Wed May 13 2026 13:55:20 GMT-0500 (Central Daylight Time),303604.799999997,A,finge,O,e,181,1,1934.2999999970198,301670.5,7807,WL,A,7.0
2,18.609999895095825,learn,41390.000104904175,Wed May 13 2026 13:55:20 GMT-0500 (Central Daylight Time),303751.90000000596,A,finger,O,r,131,1,2081.4000000059605,301670.5,7807,WL,A,7.0
2,18.893999814987183,learn,41106.00018501282,Wed May 13 2026 13:55:20 GMT-0500 (Central Daylight Time),304035.09999999404,A,fingerenter,O,enter,273,1,2364.5999999940395,301670.5,7807,WL,A,7.0
2,19.41100001335144,learn,40588.99998664856,Wed May 13 2026 13:55:20 GMT-0500 (Central Daylight Time),304552.299999997,A,s,O,s,512,1,516.8999999910593,304035.40000000596,7807,WL,A,8.0
2,19.592999935150146,learn,40407.00006484985,Wed May 13 2026 13:55:20 GMT-0500 (Central Daylight Time),304734.299999997,A,sa,O,a,176,1,698.8999999910593,304035.40000000596,7807,WL,A,8.0
2,19.944999933242798,learn,40055.0000667572,Wed May 13 2026 13:55:20 GMT-0500 (Central Daylight Time),305086.59999999404,A,sal,O,l,331,1,1051.199999988079,304035.40000000596,7807,WL,A,8.0
2,20.12999987602234,learn,39870.00012397766,Wed May 13 2026 13:55:20 GMT-0500 (Central Daylight Time),305271.200000003,A,salt,O,t,178,1,1235.7999999970198,304035.40000000596,7807,WL,A,8.0
2,20.74399995803833,learn,39256.00004196167,Wed May 13 2026 13:55:20 GMT-0500 (Central Daylight Time),305885.59999999404,A,saltenter,O,enter,601,1,1850.199999988079,304035.40000000596,7807,WL,A,8.0
2,24.525999784469604,learn,35474.000215530396,Wed May 13 2026 13:55:20 GMT-0500 (Central Daylight Time),309667.5,A,a,O,a,3763,1,3781.5999999940395,305885.90000000596,7807,WL,A,9.0
2,24.890999794006348,learn,35109.00020599365,Wed May 13 2026 13:55:20 GMT-0500 (Central Daylight Time),310032.90000000596,A,ap,O,p,356,1,4147.0,305885.90000000596,7807,WL,A,9.0
2,25.042999982833862,learn,34957.00001716614,Wed May 13 2026 13:55:20 GMT-0500 (Central Daylight Time),310184.700000003,A,app,O,p,135,1,4298.79999999702,305885.90000000596,7807,WL,A,9.0
2,25.257999897003174,learn,34742.000102996826,Wed May 13 2026 13:55:20 GMT-0500 (Central Daylight Time),310399.09999999404,A,appl,O,l,199,1,4513.199999988079,305885.90000000596,7807,WL,A,9.0
2,25.490999937057495,learn,34509.000062942505,Wed May 13 2026 13:55:20 GMT-0500 (Central Daylight Time),310632.299999997,A,apple,O,e,227,1,4746.399999991059,305885.90000000596,7807,WL,A,9.0
2,25.840999841690063,learn,34159.00015830994,Wed May 13 2026 13:55:20 GMT-0500 (Central Daylight Time),310982.59999999404,A,appleenter,O,enter,343,1,5096.699999988079,305885.90000000596,7807,WL,A,9.0
2,26.2739999294281,learn,33726.0000705719,Wed May 13 2026 13:55:20 GMT-0500 (Central Daylight Time),311415.40000000596,A,c,O,c,426,1,432.5,310982.90000000596,7807,WL,A,10.0
2,26.490999937057495,learn,33509.000062942505,Wed May 13 2026 13:55:20 GMT-0500 (Central Daylight Time),311632.5,A,ch,O,h,210,1,649.5999999940395,310982.90000000596,7807,WL,A,10.0
2,26.691999912261963,learn,33308.00008773804,Wed May 13 2026 13:55:20 GMT-0500 (Central Daylight Time),311833.700000003,A,chi,O,i,183,1,850.7999999970198,310982.90000000596,7807,WL,A,10.0
2,27.009999990463257,learn,32990.00000953674,Wed May 13 2026 13:55:20 GMT-0500 (Central Daylight Time),312151.40000000596,A,chim,O,m,313,1,1168.5,310982.90000000596,7807,WL,A,10.0
2,27.324999809265137,learn,32675.000190734863,Wed May 13 2026 13:55:20 GMT-0500 (Central Daylight Time),312465.90000000596,A,chimn,O,n,304,1,1483.0,310982.90000000596,7807,WL,A,10.0
2,27.757999897003174,learn,32242.000102996826,Wed May 13 2026 13:55:20 GMT-0500 (Central Daylight Time),312899.5,A,chimne,O,e,414,1,1916.5999999940395,310982.90000000596,7807,WL,A,10.0
2,27.924999952316284,learn,32075.000047683716,Wed May 13 2026 13:55:20 GMT-0500 (Central Daylight Time),313066.59999999404,A,chimney,O,y,146,1,2083.699999988079,310982.90000000596,7807,WL,A,10.0
2,29.222999811172485,learn,30777.000188827515,Wed May 13 2026 13:55:20 GMT-0500 (Central Daylight Time),314364.700000003,A,chimneyenter,O,enter,1285,1,3381.7999999970198,310982.90000000596,7807,WL,A,10.0
2,30.372999906539917,learn,29627.000093460083,Wed May 13 2026 13:55:20 GMT-0500 (Central Daylight Time),315514.90000000596,A,b,O,b,1131,1,1149.9000000059605,314365.0,7807,WL,A,11.0
2,30.539999961853027,learn,29460.000038146973,Wed May 13 2026 13:55:20 GMT-0500 (Central Daylight Time),315681.40000000596,A,bu,O,u,148,1,1316.4000000059605,314365.0,7807,WL,A,11.0
2,30.972999811172485,learn,29027.000188827515,Wed May 13 2026 13:55:20 GMT-0500 (Central Daylight Time),316114.0,A,but,O,t,414,1,1749.0,314365.0,7807,WL,A,11.0
2,31.08899998664856,learn,28911.00001335144,Wed May 13 2026 13:55:20 GMT-0500 (Central Daylight Time),316230.59999999404,A,butt,O,t,101,1,1865.5999999940395,314365.0,7807,WL,A,11.0
2,31.306999921798706,learn,28693.000078201294,Wed May 13 2026 13:55:20 GMT-0500 (Central Daylight Time),316448.700000003,A,butto,O,o,202,1,2083.7000000029802,314365.0,7807,WL,A,11.0
2,31.490000009536743,learn,28509.999990463257,Wed May 13 2026 13:55:20 GMT-0500 (Central Daylight Time),316631.299999997,A,button,O,n,175,1,2266.2999999970198,314365.0,7807,WL,A,11.0
2,31.822999954223633,learn,28177.000045776367,Wed May 13 2026 13:55:20 GMT-0500 (Central Daylight Time),316964.299999997,A,buttonenter,O,enter,311,1,2599.2999999970198,314365.0,7807,WL,A,11.0
2,32.45700001716614,learn,27542.999982833862,Wed May 13 2026 13:55:20 GMT-0500 (Central Daylight Time),317598.799999997,A,l,O,l,629,1,634.2999999970198,316964.5,7807,WL,A,12.0
2,32.704999923706055,learn,27295.000076293945,Wed May 13 2026 13:55:20 GMT-0500 (Central Daylight Time),317846.700000003,A,lo,O,o,230,1,882.2000000029802,316964.5,7807,WL,A,12.0
2,33.07299995422363,learn,26927.000045776367,Wed May 13 2026 13:55:20 GMT-0500 (Central Daylight Time),318214.5,A,log,O,g,364,1,1250.0,316964.5,7807,WL,A,12.0
2,33.72099995613098,learn,26279.00004386902,Wed May 13 2026 13:55:20 GMT-0500 (Central Daylight Time),318862.700000003,A,logenter,O,enter,641,1,1898.2000000029802,316964.5,7807,WL,A,12.0
2,35.63800001144409,learn,24361.99998855591,Wed May 13 2026 13:55:20 GMT-0500 (Central Daylight Time),320779.59999999404,A,r,O,r,1905,1,1916.5999999940395,318863.0,7807,WL,A,13.0
2,35.787999868392944,learn,24212.000131607056,Wed May 13 2026 13:55:20 GMT-0500 (Central Daylight Time),320929.59999999404,A,ra,O,a,131,1,2066.5999999940395,318863.0,7807,WL,A,13.0
2,36.05499982833862,learn,23945.000171661377,Wed May 13 2026 13:55:20 GMT-0500 (Central Daylight Time),321196.90000000596,A,rat,O,t,245,1,2333.9000000059605,318863.0,7807,WL,A,13.0
2,36.17199993133545,learn,23828.00006866455,Wed May 13 2026 13:55:20 GMT-0500 (Central Daylight Time),321313.0,A,ratt,O,t,105,1,2450.0,318863.0,7807,WL,A,13.0
2,36.371999979019165,learn,23628.000020980835,Wed May 13 2026 13:55:20 GMT-0500 (Central Daylight Time),321513.0,A,rattl,O,l,183,1,2650.0,318863.0,7807,WL,A,13.0
2,36.50499987602234,learn,23495.00012397766,Wed May 13 2026 13:55:20 GMT-0500 (Central Daylight Time),321646.700000003,A,rattle,O,e,119,1,2783.7000000029802,318863.0,7807,WL,A,13.0
2,36.8199999332428,learn,23180.000066757202,Wed May 13 2026 13:55:20 GMT-0500 (Central Daylight Time),321961.5,A,rattleenter,O,enter,297,1,3098.5,318863.0,7807,WL,A,13.0
2,37.55399990081787,learn,22446.00009918213,Wed May 13 2026 13:55:20 GMT-0500 (Central Daylight Time),322695.200000003,A,k,O,k,719,1,733.2999999970198,321961.90000000596,7807,WL,A,14.0
2,37.769999980926514,learn,22230.000019073486,Wed May 13 2026 13:55:20 GMT-0500 (Central Daylight Time),322911.90000000596,A,ke,O,e,199,1,950.0,321961.90000000596,7807,WL,A,14.0
2,38.15499997138977,learn,21845.00002861023,Wed May 13 2026 13:55:20 GMT-0500 (Central Daylight Time),323296.0,A,key,O,y,369,1,1334.0999999940395,321961.90000000596,7807,WL,A,14.0
2,38.537999868392944,learn,21462.000131607056,Wed May 13 2026 13:55:20 GMT-0500 (Central Daylight Time),323679.700000003,A,keyenter,O,enter,368,1,1717.7999999970198,321961.90000000596,7807,WL,A,14.0
2,39.120999813079834,learn,20879.000186920166,Wed May 13 2026 13:55:20 GMT-0500 (Central Daylight Time),324262.0,A,g,O,g,577,1,582.0999999940395,323679.90000000596,7807,WL,A,15.0
2,39.287999868392944,learn,20712.000131607056,Wed May 13 2026 13:55:20 GMT-0500 (Central Daylight Time),324429.0,A,go,O,o,146,1,749.0999999940395,323679.90000000596,7807,WL,A,15.0
2,39.46999979019165,learn,20530.00020980835,Wed May 13 2026 13:55:20 GMT-0500 (Central Daylight Time),324611.09999999404,A,gol,O,l,161,1,931.1999999880791,323679.90000000596,7807,WL,A,15.0
2,39.61999988555908,learn,20380.000114440918,Wed May 13 2026 13:55:20 GMT-0500 (Central Daylight Time),324761.299999997,A,gold,O,d,141,1,1081.3999999910593,323679.90000000596,7807,WL,A,15.0
2,40.07099986076355,learn,19929.00013923645,Wed May 13 2026 13:55:20 GMT-0500 (Central Daylight Time),325212.299999997,A,goldenter,O,enter,439,1,1532.3999999910593,323679.90000000596,7807,WL,A,15.0
3,0.6640000343322754,learn,59335.999965667725,Wed May 13 2026 13:55:20 GMT-0500 (Central Daylight Time),402937.09999999404,A,b,O,b,656,1,663.8999999910593,402273.200000003,7807,WL,A,1.0
3,1.0810000896453857,learn,58918.999910354614,Wed May 13 2026 13:55:20 GMT-0500 (Central Daylight Time),403353.59999999404,A,bo,O,o,399,1,1080.3999999910593,402273.200000003,7807,WL,A,1.0
3,1.2310001850128174,learn,58768.99981498718,Wed May 13 2026 13:55:20 GMT-0500 (Central Daylight Time),403503.700000003,A,boo,O,o,142,1,1230.5,402273.200000003,7807,WL,A,1.0
3,1.565000057220459,learn,58434.99994277954,Wed May 13 2026 13:55:20 GMT-0500 (Central Daylight Time),403837.40000000596,A,book,O,k,320,1,1564.2000000029802,402273.200000003,7807,WL,A,1.0
3,2.0970001220703125,learn,57902.99987792969,Wed May 13 2026 13:55:20 GMT-0500 (Central Daylight Time),404369.90000000596,A,bookenter,O,enter,523,1,2096.7000000029802,402273.200000003,7807,WL,A,1.0
3,2.5320000648498535,learn,57467.99993515015,Wed May 13 2026 13:55:20 GMT-0500 (Central Daylight Time),404804.59999999404,A,f,O,f,414,1,434.3999999910593,404370.200000003,7807,WL,A,2.0
3,2.8320000171661377,learn,57167.99998283386,Wed May 13 2026 13:55:20 GMT-0500 (Central Daylight Time),405104.40000000596,A,fl,O,l,282,1,734.2000000029802,404370.200000003,7807,WL,A,2.0
3,3.0470001697540283,learn,56952.99983024597,Wed May 13 2026 13:55:20 GMT-0500 (Central Daylight Time),405319.299999997,A,flo,O,o,199,1,949.0999999940395,404370.200000003,7807,WL,A,2.0
3,3.314000129699707,learn,56685.99987030029,Wed May 13 2026 13:55:20 GMT-0500 (Central Daylight Time),405587.200000003,A,flow,O,w,255,1,1217.0,404370.200000003,7807,WL,A,2.0
3,3.514000177383423,learn,56485.99982261658,Wed May 13 2026 13:55:20 GMT-0500 (Central Daylight Time),405787.200000003,A,flowe,O,e,181,1,1417.0,404370.200000003,7807,WL,A,2.0
3,3.680000066757202,learn,56319.9999332428,Wed May 13 2026 13:55:20 GMT-0500 (Central Daylight Time),405952.5,A,flower,O,r,148,1,1582.2999999970198,404370.200000003,7807,WL,A,2.0
3,4.230000019073486,learn,55769.999980926514,Wed May 13 2026 13:55:20 GMT-0500 (Central Daylight Time),406502.40000000596,A,flowerenter,O,enter,537,1,2132.2000000029802,404370.200000003,7807,WL,A,2.0
3,4.647000074386597,learn,55352.9999256134,Wed May 13 2026 13:55:20 GMT-0500 (Central Daylight Time),406919.700000003,A,t,O,t,403,1,417.0,406502.700000003,7807,WL,A,3.0
3,4.864000082015991,learn,55135.99991798401,Wed May 13 2026 13:55:20 GMT-0500 (Central Daylight Time),407136.40000000596,A,tr,O,r,200,1,633.7000000029802,406502.700000003,7807,WL,A,3.0
3,5.045000076293945,learn,54954.999923706055,Wed May 13 2026 13:55:20 GMT-0500 (Central Daylight Time),407317.90000000596,A,tra,O,a,166,1,815.2000000029802,406502.700000003,7807,WL,A,3.0
3,5.26200008392334,learn,54737.99991607666,Wed May 13 2026 13:55:20 GMT-0500 (Central Daylight Time),407534.90000000596,A,trai,O,i,210,1,1032.2000000029802,406502.700000003,7807,WL,A,3.0
3,5.463000059127808,learn,54536.99994087219,Wed May 13 2026 13:55:20 GMT-0500 (Central Daylight Time),407735.700000003,A,train,O,n,191,1,1233.0,406502.700000003,7807,WL,A,3.0
3,5.813000202178955,learn,54186.999797821045,Wed May 13 2026 13:55:20 GMT-0500 (Central Daylight Time),408086.0,A,trainenter,O,enter,337,1,1583.2999999970198,406502.700000003,7807,WL,A,3.0
3,6.213000059127808,learn,53786.99994087219,Wed May 13 2026 13:55:20 GMT-0500 (Central Daylight Time),408485.59999999404,A,r,O,r,394,1,399.3999999910593,408086.200000003,7807,WL,A,4.0
3,6.694000005722046,learn,53305.999994277954,Wed May 13 2026 13:55:20 GMT-0500 (Central Daylight Time),408966.700000003,A,ru,O,u,471,1,880.5,408086.200000003,7807,WL,A,4.0
3,6.962000131607056,learn,53037.999868392944,Wed May 13 2026 13:55:20 GMT-0500 (Central Daylight Time),409234.700000003,A,rug,O,g,251,1,1148.5,408086.200000003,7807,WL,A,4.0
3,7.7790000438690186,learn,52220.99995613098,Wed May 13 2026 13:55:20 GMT-0500 (Central Daylight Time),410051.40000000596,A,rugenter,O,enter,797,1,1965.2000000029802,408086.200000003,7807,WL,A,4.0
3,8.59600019454956,learn,51403.99980545044,Wed May 13 2026 13:55:20 GMT-0500 (Central Daylight Time),410868.799999997,A,m,O,m,805,1,817.2000000029802,410051.59999999404,7807,WL,A,5.0
3,8.779000043869019,learn,51220.99995613098,Wed May 13 2026 13:55:20 GMT-0500 (Central Daylight Time),411051.90000000596,A,me,O,e,172,1,1000.3000000119209,410051.59999999404,7807,WL,A,5.0
3,8.94700002670288,learn,51052.99997329712,Wed May 13 2026 13:55:20 GMT-0500 (Central Daylight Time),411219.799999997,A,mea,O,a,146,1,1168.2000000029802,410051.59999999404,7807,WL,A,5.0
3,9.177000045776367,learn,50822.99995422363,Wed May 13 2026 13:55:20 GMT-0500 (Central Daylight Time),411449.90000000596,A,mead,O,d,209,1,1398.300000011921,410051.59999999404,7807,WL,A,5.0
3,9.445000171661377,learn,50554.99982833862,Wed May 13 2026 13:55:20 GMT-0500 (Central Daylight Time),411717.799999997,A,meado,O,o,263,1,1666.2000000029802,410051.59999999404,7807,WL,A,5.0
3,9.695000171661377,learn,50304.99982833862,Wed May 13 2026 13:55:20 GMT-0500 (Central Daylight Time),411967.90000000596,A,meadow,O,w,231,1,1916.300000011921,410051.59999999404,7807,WL,A,5.0
3,10.57800006866455,learn,49421.99993133545,Wed May 13 2026 13:55:20 GMT-0500 (Central Daylight Time),412851.0,A,meadowenter,O,enter,873,1,2799.4000000059605,410051.59999999404,7807,WL,A,5.0
3,11.094000101089478,learn,48905.99989891052,Wed May 13 2026 13:55:20 GMT-0500 (Central Daylight Time),413367.0,A,h,O,h,509,1,515.7999999970198,412851.200000003,7807,WL,A,6.0
3,11.210000038146973,learn,48789.99996185303,Wed May 13 2026 13:55:20 GMT-0500 (Central Daylight Time),413483.0,A,ha,O,a,94,1,631.7999999970198,412851.200000003,7807,WL,A,6.0
3,11.561000108718872,learn,48438.99989128113,Wed May 13 2026 13:55:20 GMT-0500 (Central Daylight Time),413833.90000000596,A,har,O,r,342,1,982.7000000029802,412851.200000003,7807,WL,A,6.0
3,11.878000020980835,learn,48121.999979019165,Wed May 13 2026 13:55:20 GMT-0500 (Central Daylight Time),414150.5,A,harp,O,p,300,1,1299.2999999970198,412851.200000003,7807,WL,A,6.0
3,13.076000213623047,learn,46923.99978637695,Wed May 13 2026 13:55:20 GMT-0500 (Central Daylight Time),415348.59999999404,A,harpenter,O,enter,1184,1,2497.3999999910593,412851.200000003,7807,WL,A,6.0
3,13.825000047683716,learn,46174.999952316284,Wed May 13 2026 13:55:20 GMT-0500 (Central Daylight Time),416097.700000003,A,s,O,s,732,1,748.7999999970198,415348.90000000596,7807,WL,A,7.0
3,14.026000022888184,learn,45973.99997711182,Wed May 13 2026 13:55:20 GMT-0500 (Central Daylight Time),416298.5,A,sa,O,a,183,1,949.5999999940395,415348.90000000596,7807,WL,A,7.0
3,14.243000030517578,learn,45756.99996948242,Wed May 13 2026 13:55:20 GMT-0500 (Central Daylight Time),416515.799999997,A,sal,O,l,198,1,1166.8999999910593,415348.90000000596,7807,WL,A,7.0
3,14.526000022888184,learn,45473.99997711182,Wed May 13 2026 13:55:20 GMT-0500 (Central Daylight Time),416798.40000000596,A,salt,O,t,277,1,1449.5,415348.90000000596,7807,WL,A,7.0
3,14.858000040054321,learn,45141.99995994568,Wed May 13 2026 13:55:20 GMT-0500 (Central Daylight Time),417130.700000003,A,saltenter,O,enter,314,1,1781.7999999970198,415348.90000000596,7807,WL,A,7.0
3,15.608000040054321,learn,44391.99995994568,Wed May 13 2026 13:55:20 GMT-0500 (Central Daylight Time),417881.09999999404,A,f,O,f,742,1,750.1999999880791,417130.90000000596,7807,WL,A,8.0
3,15.824000120162964,learn,44175.999879837036,Wed May 13 2026 13:55:20 GMT-0500 (Central Daylight Time),418097.09999999404,A,fi,O,i,208,1,966.1999999880791,417130.90000000596,7807,WL,A,8.0
3,16.04200005531311,learn,43957.99994468689,Wed May 13 2026 13:55:20 GMT-0500 (Central Daylight Time),418314.5,A,fin,O,n,199,1,1183.5999999940395,417130.90000000596,7807,WL,A,8.0
3,16.308000087738037,learn,43691.99991226196,Wed May 13 2026 13:55:20 GMT-0500 (Central Daylight Time),418580.59999999404,A,fing,O,g,246,1,1449.699999988079,417130.90000000596,7807,WL,A,8.0
3,16.52500009536743,learn,43474.99990463257,Wed May 13 2026 13:55:20 GMT-0500 (Central Daylight Time),418798.0,A,finge,O,e,204,1,1667.0999999940395,417130.90000000596,7807,WL,A,8.0
3,16.657999992370605,learn,43342.000007629395,Wed May 13 2026 13:55:20 GMT-0500 (Central Daylight Time),418930.90000000596,A,finger,O,r,124,1,1800.0,417130.90000000596,7807,WL,A,8.0
3,17.193000078201294,learn,42806.999921798706,Wed May 13 2026 13:55:20 GMT-0500 (Central Daylight Time),419465.5,A,fingerenter,O,enter,517,1,2334.5999999940395,417130.90000000596,7807,WL,A,8.0
3,17.609000205993652,learn,42390.99979400635,Wed May 13 2026 13:55:20 GMT-0500 (Central Daylight Time),419881.700000003,A,a,O,a,398,1,415.90000000596046,419465.799999997,7807,WL,A,9.0
3,17.975000143051147,learn,42024.99985694885,Wed May 13 2026 13:55:20 GMT-0500 (Central Daylight Time),420247.799999997,A,ap,O,p,347,1,782.0,419465.799999997,7807,WL,A,9.0
3,18.10800004005432,learn,41891.99995994568,Wed May 13 2026 13:55:20 GMT-0500 (Central Daylight Time),420381.299999997,A,app,O,p,120,1,915.5,419465.799999997,7807,WL,A,9.0
3,18.35800004005432,learn,41641.99995994568,Wed May 13 2026 13:55:20 GMT-0500 (Central Daylight Time),420631.40000000596,A,appl,O,l,234,1,1165.6000000089407,419465.799999997,7807,WL,A,9.0
3,18.625,learn,41375.0,Wed May 13 2026 13:55:20 GMT-0500 (Central Daylight Time),420898.700000003,A,apple,O,e,256,1,1432.9000000059605,419465.799999997,7807,WL,A,9.0
3,19.159000158309937,learn,40840.99984169006,Wed May 13 2026 13:55:20 GMT-0500 (Central Daylight Time),421432.299999997,A,appleenter,O,enter,518,1,1966.5,419465.799999997,7807,WL,A,9.0
3,19.492000102996826,learn,40507.999897003174,Wed May 13 2026 13:55:20 GMT-0500 (Central Daylight Time),421764.90000000596,A,c,O,c,312,1,332.30000001192093,421432.59999999404,7807,WL,A,10.0
3,19.69099998474121,learn,40309.00001525879,Wed May 13 2026 13:55:20 GMT-0500 (Central Daylight Time),421964.40000000596,A,ch,O,h,175,1,531.8000000119209,421432.59999999404,7807,WL,A,10.0
3,19.892000198364258,learn,40107.99980163574,Wed May 13 2026 13:55:20 GMT-0500 (Central Daylight Time),422165.09999999404,A,chi,O,i,178,1,732.5,421432.59999999404,7807,WL,A,10.0
3,20.109000205993652,learn,39890.99979400635,Wed May 13 2026 13:55:20 GMT-0500 (Central Daylight Time),422382.200000003,A,chim,O,m,211,1,949.6000000089407,421432.59999999404,7807,WL,A,10.0
3,20.375,learn,39625.0,Wed May 13 2026 13:55:20 GMT-0500 (Central Daylight Time),422647.700000003,A,chimn,O,n,259,1,1215.1000000089407,421432.59999999404,7807,WL,A,10.0
3,20.657000064849854,learn,39342.99993515015,Wed May 13 2026 13:55:20 GMT-0500 (Central Daylight Time),422930.59999999404,A,chimne,O,e,272,1,1498.0,421432.59999999404,7807,WL,A,10.0
3,20.892000198364258,learn,39107.99980163574,Wed May 13 2026 13:55:20 GMT-0500 (Central Daylight Time),423164.799999997,A,chimney,O,y,213,1,1732.2000000029802,421432.59999999404,7807,WL,A,10.0
3,23.85700011253357,learn,36142.99988746643,Wed May 13 2026 13:55:20 GMT-0500 (Central Daylight Time),426129.799999997,A,chimneyenter,O,enter,2955,1,4697.20000000298,421432.59999999404,7807,WL,A,10.0
3,25.473000049591064,learn,34526.999950408936,Wed May 13 2026 13:55:20 GMT-0500 (Central Daylight Time),427746.40000000596,A,b,O,b,1600,1,1616.5,426129.90000000596,7807,WL,A,11.0
3,25.722000122070312,learn,34277.99987792969,Wed May 13 2026 13:55:20 GMT-0500 (Central Daylight Time),427994.799999997,A,bu,O,u,237,1,1864.8999999910593,426129.90000000596,7807,WL,A,11.0
3,26.09000015258789,learn,33909.99984741211,Wed May 13 2026 13:55:20 GMT-0500 (Central Daylight Time),428363.59999999404,A,but,O,t,351,1,2233.699999988079,426129.90000000596,7807,WL,A,11.0
3,26.23800015449524,learn,33761.99984550476,Wed May 13 2026 13:55:20 GMT-0500 (Central Daylight Time),428511.40000000596,A,butt,O,t,131,1,2381.5,426129.90000000596,7807,WL,A,11.0
3,26.522000074386597,learn,33477.9999256134,Wed May 13 2026 13:55:20 GMT-0500 (Central Daylight Time),428795.0,A,butto,O,o,263,1,2665.0999999940395,426129.90000000596,7807,WL,A,11.0
3,26.73900008201599,learn,33260.99991798401,Wed May 13 2026 13:55:20 GMT-0500 (Central Daylight Time),429011.700000003,A,button,O,n,205,1,2881.7999999970198,426129.90000000596,7807,WL,A,11.0
3,27.074000120162964,learn,32925.999879837036,Wed May 13 2026 13:55:20 GMT-0500 (Central Daylight Time),429346.90000000596,A,buttonenter,O,enter,326,1,3217.0,426129.90000000596,7807,WL,A,11.0
3,27.805000066757202,learn,32194.999933242798,Wed May 13 2026 13:55:20 GMT-0500 (Central Daylight Time),430078.5,A,l,O,l,717,1,731.4000000059605,429347.09999999404,7807,WL,A,12.0
3,28.00600004196167,learn,31993.99995803833,Wed May 13 2026 13:55:20 GMT-0500 (Central Daylight Time),430279.09999999404,A,lo,O,o,194,1,932.0,429347.09999999404,7807,WL,A,12.0
3,28.438000202178955,learn,31561.999797821045,Wed May 13 2026 13:55:20 GMT-0500 (Central Daylight Time),430710.90000000596,A,log,O,g,414,1,1363.800000011921,429347.09999999404,7807,WL,A,12.0
3,28.92300009727478,learn,31076.99990272522,Wed May 13 2026 13:55:20 GMT-0500 (Central Daylight Time),431195.700000003,A,logenter,O,enter,474,1,1848.6000000089407,429347.09999999404,7807,WL,A,12.0
3,30.17200016975403,learn,29827.99983024597,Wed May 13 2026 13:55:20 GMT-0500 (Central Daylight Time),432445.5,A,k,O,k,1245,1,1249.5999999940395,431195.90000000596,7807,WL,A,13.0
3,30.354000091552734,learn,29645.999908447266,Wed May 13 2026 13:55:20 GMT-0500 (Central Daylight Time),432627.09999999404,A,ke,O,e,170,1,1431.199999988079,431195.90000000596,7807,WL,A,13.0
3,30.605000019073486,learn,29394.999980926514,Wed May 13 2026 13:55:20 GMT-0500 (Central Daylight Time),432878.200000003,A,key,O,y,237,1,1682.2999999970198,431195.90000000596,7807,WL,A,13.0
3,30.854000091552734,learn,29145.999908447266,Wed May 13 2026 13:55:20 GMT-0500 (Central Daylight Time),433127.5,A,keyenter,O,enter,241,1,1931.5999999940395,431195.90000000596,7807,WL,A,13.0
3,31.40500020980835,learn,28594.99979019165,Wed May 13 2026 13:55:20 GMT-0500 (Central Daylight Time),433678.0,A,r,O,r,537,1,550.2000000029802,433127.799999997,7807,WL,A,14.0
3,31.57100009918213,learn,28428.99990081787,Wed May 13 2026 13:55:20 GMT-0500 (Central Daylight Time),433844.5,A,ra,O,a,153,1,716.7000000029802,433127.799999997,7807,WL,A,14.0
3,31.82100009918213,learn,28178.99990081787,Wed May 13 2026 13:55:20 GMT-0500 (Central Daylight Time),434094.5,A,rat,O,t,235,1,966.7000000029802,433127.799999997,7807,WL,A,14.0
3,31.953999996185303,learn,28046.000003814697,Wed May 13 2026 13:55:20 GMT-0500 (Central Daylight Time),434226.90000000596,A,ratt,O,t,122,1,1099.1000000089407,433127.799999997,7807,WL,A,14.0
3,32.12000012397766,learn,27879.99987602234,Wed May 13 2026 13:55:20 GMT-0500 (Central Daylight Time),434393.5,A,rattl,O,l,156,1,1265.7000000029802,433127.799999997,7807,WL,A,14.0
3,32.22000002861023,learn,27779.99997138977,Wed May 13 2026 13:55:20 GMT-0500 (Central Daylight Time),434493.299999997,A,rattle,O,e,94,1,1365.5,433127.799999997,7807,WL,A,14.0
3,32.96900010108948,learn,27030.999898910522,Wed May 13 2026 13:55:20 GMT-0500 (Central Daylight Time),435242.200000003,A,rattleenter,O,enter,741,1,2114.4000000059605,433127.799999997,7807,WL,A,14.0
3,34.187000036239624,learn,25812.999963760376,Wed May 13 2026 13:55:20 GMT-0500 (Central Daylight Time),436460.40000000596,A,g,O,g,1198,1,1217.9000000059605,435242.5,7807,WL,A,15.0
3,34.319000005722046,learn,25680.999994277954,Wed May 13 2026 13:55:20 GMT-0500 (Central Daylight Time),436592.200000003,A,go,O,o,114,1,1349.7000000029802,435242.5,7807,WL,A,15.0
3,34.503000020980835,learn,25496.999979019165,Wed May 13 2026 13:55:20 GMT-0500 (Central Daylight Time),436776.59999999404,A,gol,O,l,178,1,1534.0999999940395,435242.5,7807,WL,A,15.0
3,34.60300016403198,learn,25396.999835968018,Wed May 13 2026 13:55:20 GMT-0500 (Central Daylight Time),436876.200000003,A,gold,O,d,86,1,1633.7000000029802,435242.5,7807,WL,A,15.0
3,34.76900005340576,learn,25230.99994659424,Wed May 13 2026 13:55:20 GMT-0500 (Central Daylight Time),437042.0,A,goldenter,O,enter,154,1,1799.5,435242.5,7807,WL,A,15.0
4,1.1670000553131104,learn,58832.99994468689,Wed May 13 2026 13:55:20 GMT-0500 (Central Daylight Time),508353.200000003,A,b,O,b,1146,1,1165.7999999970198,507187.40000000596,7807,WL,A,1.0
4,1.6679999828338623,learn,58332.00001716614,Wed May 13 2026 13:55:20 GMT-0500 (Central Daylight Time),508854.0,A,bo,O,o,491,1,1666.5999999940395,507187.40000000596,7807,WL,A,1.0
4,1.816999912261963,learn,58183.00008773804,Wed May 13 2026 13:55:20 GMT-0500 (Central Daylight Time),509004.0,A,boo,O,o,134,1,1816.5999999940395,507187.40000000596,7807,WL,A,1.0
4,2.0160000324249268,learn,57983.99996757507,Wed May 13 2026 13:55:20 GMT-0500 (Central Daylight Time),509202.799999997,A,book,O,k,190,1,2015.3999999910593,507187.40000000596,7807,WL,A,1.0
4,2.382999897003174,learn,57617.000102996826,Wed May 13 2026 13:55:20 GMT-0500 (Central Daylight Time),509569.700000003,A,bookenter,O,enter,356,1,2382.2999999970198,507187.40000000596,7807,WL,A,1.0
4,2.8989999294281006,learn,57101.0000705719,Wed May 13 2026 13:55:20 GMT-0500 (Central Daylight Time),510085.59999999404,A,f,O,f,494,1,515.5999999940395,509570.0,7807,WL,A,2.0
4,3.2330000400543213,learn,56766.99995994568,Wed May 13 2026 13:55:20 GMT-0500 (Central Daylight Time),510419.90000000596,A,fl,O,l,314,1,849.9000000059605,509570.0,7807,WL,A,2.0
4,3.4489998817443848,learn,56551.000118255615,Wed May 13 2026 13:55:20 GMT-0500 (Central Daylight Time),510635.799999997,A,flo,O,o,203,1,1065.7999999970198,509570.0,7807,WL,A,2.0
4,3.765000104904175,learn,56234.999895095825,Wed May 13 2026 13:55:20 GMT-0500 (Central Daylight Time),510951.90000000596,A,flow,O,w,297,1,1381.9000000059605,509570.0,7807,WL,A,2.0
4,3.933000087738037,learn,56066.99991226196,Wed May 13 2026 13:55:20 GMT-0500 (Central Daylight Time),511119.09999999404,A,flowe,O,e,151,1,1549.0999999940395,509570.0,7807,WL,A,2.0
4,4.099999904632568,learn,55900.00009536743,Wed May 13 2026 13:55:20 GMT-0500 (Central Daylight Time),511287.09999999404,A,flower,O,r,161,1,1717.0999999940395,509570.0,7807,WL,A,2.0
4,4.631999969482422,learn,55368.00003051758,Wed May 13 2026 13:55:20 GMT-0500 (Central Daylight Time),511818.90000000596,A,flowerenter,O,enter,512,1,2248.9000000059605,509570.0,7807,WL,A,2.0
4,5.165999889373779,learn,54834.00011062622,Wed May 13 2026 13:55:20 GMT-0500 (Central Daylight Time),512352.299999997,A,t,O,t,525,1,533.2000000029802,511819.09999999404,7807,WL,A,3.0
4,5.431999921798706,learn,54568.000078201294,Wed May 13 2026 13:55:20 GMT-0500 (Central Daylight Time),512618.90000000596,A,tr,O,r,247,1,799.8000000119209,511819.09999999404,7807,WL,A,3.0
4,5.599999904632568,learn,54400.00009536743,Wed May 13 2026 13:55:20 GMT-0500 (Central Daylight Time),512786.200000003,A,tra,O,a,147,1,967.1000000089407,511819.09999999404,7807,WL,A,3.0
4,5.7820000648498535,learn,54217.99993515015,Wed May 13 2026 13:55:20 GMT-0500 (Central Daylight Time),512968.299999997,A,trai,O,i,174,1,1149.2000000029802,511819.09999999404,7807,WL,A,3.0
4,5.966000080108643,learn,54033.99991989136,Wed May 13 2026 13:55:20 GMT-0500 (Central Daylight Time),513152.700000003,A,train,O,n,177,1,1333.6000000089407,511819.09999999404,7807,WL,A,3.0
4,6.249000072479248,learn,53750.99992752075,Wed May 13 2026 13:55:20 GMT-0500 (Central Daylight Time),513435.09999999404,A,trainenter,O,enter,262,1,1616.0,511819.09999999404,7807,WL,A,3.0
4,6.914000034332275,learn,53085.999965667725,Wed May 13 2026 13:55:20 GMT-0500 (Central Daylight Time),514100.59999999404,A,r,O,r,660,1,665.2999999970198,513435.299999997,7807,WL,A,4.0
4,7.25,learn,52750.0,Wed May 13 2026 13:55:20 GMT-0500 (Central Daylight Time),514436.200000003,A,ru,O,u,325,1,1000.9000000059605,513435.299999997,7807,WL,A,4.0
4,7.5309998989105225,learn,52469.00010108948,Wed May 13 2026 13:55:20 GMT-0500 (Central Daylight Time),514717.799999997,A,rug,O,g,275,1,1282.5,513435.299999997,7807,WL,A,4.0
4,8.29800009727478,learn,51701.99990272522,Wed May 13 2026 13:55:20 GMT-0500 (Central Daylight Time),515484.200000003,A,rugenter,O,enter,751,1,2048.9000000059605,513435.299999997,7807,WL,A,4.0
4,8.980000019073486,learn,51019.999980926514,Wed May 13 2026 13:55:20 GMT-0500 (Central Daylight Time),516166.799999997,A,m,O,m,668,1,682.2999999970198,515484.5,7807,WL,A,5.0
4,9.148000001907349,learn,50851.99999809265,Wed May 13 2026 13:55:20 GMT-0500 (Central Daylight Time),516334.799999997,A,me,O,e,152,1,850.2999999970198,515484.5,7807,WL,A,5.0
4,9.280999898910522,learn,50719.00010108948,Wed May 13 2026 13:55:20 GMT-0500 (Central Daylight Time),516467.59999999404,A,mea,O,a,121,1,983.0999999940395,515484.5,7807,WL,A,5.0
4,9.532000064849854,learn,50467.99993515015,Wed May 13 2026 13:55:20 GMT-0500 (Central Daylight Time),516718.40000000596,A,mead,O,d,229,1,1233.9000000059605,515484.5,7807,WL,A,5.0
4,9.848000049591064,learn,50151.999950408936,Wed May 13 2026 13:55:20 GMT-0500 (Central Daylight Time),517034.40000000596,A,meado,O,o,305,1,1549.9000000059605,515484.5,7807,WL,A,5.0
4,10.54800009727478,learn,49451.99990272522,Wed May 13 2026 13:55:20 GMT-0500 (Central Daylight Time),517734.200000003,A,meadow,O,w,695,1,2249.7000000029802,515484.5,7807,WL,A,5.0
4,11.180000066757202,learn,48819.9999332428,Wed May 13 2026 13:55:20 GMT-0500 (Central Daylight Time),518366.40000000596,A,meadowenter,O,enter,616,1,2881.9000000059605,515484.5,7807,WL,A,5.0
4,12.979000091552734,learn,47020.999908447266,Wed May 13 2026 13:55:20 GMT-0500 (Central Daylight Time),520165.90000000596,A,h,O,h,1786,1,1799.2000000029802,518366.700000003,7807,WL,A,6.0
4,13.13100004196167,learn,46868.99995803833,Wed May 13 2026 13:55:20 GMT-0500 (Central Daylight Time),520317.299999997,A,ha,O,a,146,1,1950.5999999940395,518366.700000003,7807,WL,A,6.0
4,13.446000099182129,learn,46553.99990081787,Wed May 13 2026 13:55:20 GMT-0500 (Central Daylight Time),520632.5,A,har,O,r,306,1,2265.7999999970198,518366.700000003,7807,WL,A,6.0
4,13.678999900817871,learn,46321.00009918213,Wed May 13 2026 13:55:20 GMT-0500 (Central Daylight Time),520865.90000000596,A,harp,O,p,224,1,2499.2000000029802,518366.700000003,7807,WL,A,6.0
4,13.977999925613403,learn,46022.0000743866,Wed May 13 2026 13:55:20 GMT-0500 (Central Daylight Time),521164.90000000596,A,harpenter,O,enter,285,1,2798.2000000029802,518366.700000003,7807,WL,A,6.0
4,14.364000082015991,learn,45635.99991798401,Wed May 13 2026 13:55:20 GMT-0500 (Central Daylight Time),521550.200000003,A,s,O,s,371,1,385.0,521165.200000003,7807,WL,A,7.0
4,14.52999997138977,learn,45470.00002861023,Wed May 13 2026 13:55:20 GMT-0500 (Central Daylight Time),521716.0,A,sa,O,a,154,1,550.7999999970198,521165.200000003,7807,WL,A,7.0
4,14.727999925613403,learn,45272.0000743866,Wed May 13 2026 13:55:20 GMT-0500 (Central Daylight Time),521915.0,A,sal,O,l,187,1,749.7999999970198,521165.200000003,7807,WL,A,7.0
4,14.930000066757202,learn,45069.9999332428,Wed May 13 2026 13:55:20 GMT-0500 (Central Daylight Time),522116.09999999404,A,salt,O,t,191,1,950.8999999910593,521165.200000003,7807,WL,A,7.0
4,15.230000019073486,learn,44769.999980926514,Wed May 13 2026 13:55:20 GMT-0500 (Central Daylight Time),522416.200000003,A,saltenter,O,enter,280,1,1251.0,521165.200000003,7807,WL,A,7.0
4,15.744999885559082,learn,44255.00011444092,Wed May 13 2026 13:55:20 GMT-0500 (Central Daylight Time),522931.700000003,A,f,O,f,504,1,515.1000000089407,522416.59999999404,7807,WL,A,8.0
4,15.946000099182129,learn,44053.99990081787,Wed May 13 2026 13:55:20 GMT-0500 (Central Daylight Time),523132.0,A,fi,O,i,181,1,715.4000000059605,522416.59999999404,7807,WL,A,8.0
4,16.144999980926514,learn,43855.000019073486,Wed May 13 2026 13:55:20 GMT-0500 (Central Daylight Time),523331.799999997,A,fin,O,n,180,1,915.2000000029802,522416.59999999404,7807,WL,A,8.0
4,16.444999933242798,learn,43555.0000667572,Wed May 13 2026 13:55:20 GMT-0500 (Central Daylight Time),523631.59999999404,A,fing,O,g,293,1,1215.0,522416.59999999404,7807,WL,A,8.0
4,16.67799997329712,learn,43322.00002670288,Wed May 13 2026 13:55:20 GMT-0500 (Central Daylight Time),523864.700000003,A,finge,O,e,217,1,1448.1000000089407,522416.59999999404,7807,WL,A,8.0
4,16.894999980926514,learn,43105.000019073486,Wed May 13 2026 13:55:20 GMT-0500 (Central Daylight Time),524081.299999997,A,finger,O,r,207,1,1664.7000000029802,522416.59999999404,7807,WL,A,8.0
4,17.796000003814697,learn,42203.9999961853,Wed May 13 2026 13:55:20 GMT-0500 (Central Daylight Time),524982.0,A,fingerenter,O,enter,895,1,2565.4000000059605,522416.59999999404,7807,WL,A,8.0
4,18.57800006866455,learn,41421.99993133545,Wed May 13 2026 13:55:20 GMT-0500 (Central Daylight Time),525764.299999997,A,a,O,a,761,1,781.8999999910593,524982.400000006,7807,WL,A,9.0
4,18.795000076293945,learn,41204.999923706055,Wed May 13 2026 13:55:20 GMT-0500 (Central Daylight Time),525981.900000006,A,ap,O,p,205,1,999.5,524982.400000006,7807,WL,A,9.0
4,18.944000005722046,learn,41055.999994277954,Wed May 13 2026 13:55:20 GMT-0500 (Central Daylight Time),526130.5,A,app,O,p,130,1,1148.0999999940395,524982.400000006,7807,WL,A,9.0
4,19.127000093460083,learn,40872.99990653992,Wed May 13 2026 13:55:20 GMT-0500 (Central Daylight Time),526313.099999994,A,appl,O,l,174,1,1330.699999988079,524982.400000006,7807,WL,A,9.0
4,19.277999877929688,learn,40722.00012207031,Wed May 13 2026 13:55:20 GMT-0500 (Central Daylight Time),526464.200000003,A,apple,O,e,146,1,1481.7999999970198,524982.400000006,7807,WL,A,9.0
4,20.611000061035156,learn,39388.999938964844,Wed May 13 2026 13:55:20 GMT-0500 (Central Daylight Time),527797.099999994,A,appleenter,O,enter,1310,1,2814.699999988079,524982.400000006,7807,WL,A,9.0
4,22.30900001525879,learn,37690.99998474121,Wed May 13 2026 13:55:20 GMT-0500 (Central Daylight Time),529496.0,A,c,O,c,1690,1,1698.7000000029802,527797.299999997,7807,WL,A,10.0
4,22.493000030517578,learn,37506.99996948242,Wed May 13 2026 13:55:20 GMT-0500 (Central Daylight Time),529679.0,A,ch,O,h,169,1,1881.7000000029802,527797.299999997,7807,WL,A,10.0
4,22.710999965667725,learn,37289.000034332275,Wed May 13 2026 13:55:20 GMT-0500 (Central Daylight Time),529898.0,A,chi,O,i,199,1,2100.7000000029802,527797.299999997,7807,WL,A,10.0
4,23.375999927520752,learn,36624.00007247925,Wed May 13 2026 13:55:20 GMT-0500 (Central Daylight Time),530562.799999997,A,chim,O,m,646,1,2765.5,527797.299999997,7807,WL,A,10.0
4,23.55999994277954,learn,36440.00005722046,Wed May 13 2026 13:55:20 GMT-0500 (Central Daylight Time),530746.5,A,chimn,O,n,173,1,2949.2000000029802,527797.299999997,7807,WL,A,10.0
4,24.144999980926514,learn,35855.000019073486,Wed May 13 2026 13:55:20 GMT-0500 (Central Daylight Time),531331.799999997,A,chimne,O,e,574,1,3534.5,527797.299999997,7807,WL,A,10.0
4,24.276999950408936,learn,35723.000049591064,Wed May 13 2026 13:55:20 GMT-0500 (Central Daylight Time),531463.200000003,A,chimney,O,y,122,1,3665.9000000059605,527797.299999997,7807,WL,A,10.0
4,24.691999912261963,learn,35308.00008773804,Wed May 13 2026 13:55:20 GMT-0500 (Central Daylight Time),531878.200000003,A,chimneyenter,O,enter,396,1,4080.9000000059605,527797.299999997,7807,WL,A,10.0
4,25.941999912261963,learn,34058.00008773804,Wed May 13 2026 13:55:20 GMT-0500 (Central Daylight Time),533128.200000003,A,b,O,b,1234,1,1249.7999999970198,531878.400000006,7807,WL,A,11.0
4,26.125999927520752,learn,33874.00007247925,Wed May 13 2026 13:55:20 GMT-0500 (Central Daylight Time),533312.299999997,A,bu,O,u,179,1,1433.8999999910593,531878.400000006,7807,WL,A,11.0
4,26.443000078201294,learn,33556.999921798706,Wed May 13 2026 13:55:20 GMT-0500 (Central Daylight Time),533629.599999994,A,but,O,t,312,1,1751.199999988079,531878.400000006,7807,WL,A,11.0
4,26.60800004005432,learn,33391.99995994568,Wed May 13 2026 13:55:20 GMT-0500 (Central Daylight Time),533795.0,A,butt,O,t,145,1,1916.5999999940395,531878.400000006,7807,WL,A,11.0
4,26.759000062942505,learn,33240.999937057495,Wed May 13 2026 13:55:20 GMT-0500 (Central Daylight Time),533945.200000003,A,butto,O,o,141,1,2066.7999999970198,531878.400000006,7807,WL,A,11.0
4,26.925999879837036,learn,33074.000120162964,Wed May 13 2026 13:55:20 GMT-0500 (Central Daylight Time),534112.099999994,A,button,O,n,160,1,2233.699999988079,531878.400000006,7807,WL,A,11.0
4,27.39199995994568,learn,32608.00004005432,Wed May 13 2026 13:55:20 GMT-0500 (Central Daylight Time),534578.799999997,A,buttonenter,O,enter,447,1,2700.3999999910593,531878.400000006,7807,WL,A,11.0
4,28.375,learn,31625.0,Wed May 13 2026 13:55:20 GMT-0500 (Central Daylight Time),535561.299999997,A,l,O,l,973,1,982.2999999970198,534579.0,7807,WL,A,12.0
4,28.691999912261963,learn,31308.000087738037,Wed May 13 2026 13:55:20 GMT-0500 (Central Daylight Time),535878.599999994,A,lo,O,o,312,1,1299.5999999940395,534579.0,7807,WL,A,12.0
4,29.193000078201294,learn,30806.999921798706,Wed May 13 2026 13:55:20 GMT-0500 (Central Daylight Time),536379.5,A,log,O,g,480,1,1800.5,534579.0,7807,WL,A,12.0
4,29.756999969482422,learn,30243.000030517578,Wed May 13 2026 13:55:20 GMT-0500 (Central Daylight Time),536943.799999997,A,logenter,O,enter,548,1,2364.7999999970198,534579.0,7807,WL,A,12.0
4,30.79099988937378,learn,29209.00011062622,Wed May 13 2026 13:55:20 GMT-0500 (Central Daylight Time),537977.299999997,A,k,O,k,1012,1,1033.2999999970198,536944.0,7807,WL,A,13.0
4,30.990999937057495,learn,29009.000062942505,Wed May 13 2026 13:55:20 GMT-0500 (Central Daylight Time),538177.900000006,A,ke,O,e,191,1,1233.9000000059605,536944.0,7807,WL,A,13.0
4,31.2739999294281,learn,28726.0000705719,Wed May 13 2026 13:55:20 GMT-0500 (Central Daylight Time),538460.5,A,key,O,y,262,1,1516.5,536944.0,7807,WL,A,13.0
4,31.841000080108643,learn,28158.999919891357,Wed May 13 2026 13:55:20 GMT-0500 (Central Daylight Time),539027.900000006,A,keyenter,O,enter,544,1,2083.9000000059605,536944.0,7807,WL,A,13.0
4,32.62299990653992,learn,27377.000093460083,Wed May 13 2026 13:55:20 GMT-0500 (Central Daylight Time),539809.099999994,A,r,O,r,763,1,780.8999999910593,539028.200000003,7807,WL,A,14.0
4,32.77300000190735,learn,27226.99999809265,Wed May 13 2026 13:55:20 GMT-0500 (Central Daylight Time),539959.700000003,A,ra,O,a,143,1,931.5,539028.200000003,7807,WL,A,14.0
4,33.007999897003174,learn,26992.000102996826,Wed May 13 2026 13:55:20 GMT-0500 (Central Daylight Time),540194.299999997,A,rat,O,t,217,1,1166.0999999940395,539028.200000003,7807,WL,A,14.0
4,33.121999979019165,learn,26878.000020980835,Wed May 13 2026 13:55:20 GMT-0500 (Central Daylight Time),540309.200000003,A,ratt,O,t,110,1,1281.0,539028.200000003,7807,WL,A,14.0
4,33.27500009536743,learn,26724.99990463257,Wed May 13 2026 13:55:20 GMT-0500 (Central Daylight Time),540461.5,A,rattl,O,l,147,1,1433.2999999970198,539028.200000003,7807,WL,A,14.0
4,33.40700006484985,learn,26592.999935150146,Wed May 13 2026 13:55:20 GMT-0500 (Central Daylight Time),540594.200000003,A,rattle,O,e,115,1,1566.0,539028.200000003,7807,WL,A,14.0
4,34.055999994277954,learn,25944.000005722046,Wed May 13 2026 13:55:20 GMT-0500 (Central Daylight Time),541242.299999997,A,rattleenter,O,enter,630,1,2214.0999999940395,539028.200000003,7807,WL,A,14.0
4,35.13800001144409,learn,24861.99998855591,Wed May 13 2026 13:55:20 GMT-0500 (Central Daylight Time),542325.299999997,A,l,O,l,1078,1,1082.7999999970198,541242.5,7807,WL,A,15.0
4,36.42199993133545,learn,23578.00006866455,Wed May 13 2026 13:55:20 GMT-0500 (Central Daylight Time),543609.299999997,A,,O,backspace,1262,1,2366.7999999970198,541242.5,7807,WL,A,15.0
4,38.4210000038147,learn,21578.999996185303,Wed May 13 2026 13:55:20 GMT-0500 (Central Daylight Time),545607.5,A,g,O,g,1983,1,4365.0,541242.5,7807,WL,A,15.0
4,38.62100005149841,learn,21378.999948501587,Wed May 13 2026 13:55:20 GMT-0500 (Central Daylight Time),545807.5,A,go,O,o,193,1,4565.0,541242.5,7807,WL,A,15.0
4,38.805999994277954,learn,21194.000005722046,Wed May 13 2026 13:55:20 GMT-0500 (Central Daylight Time),545992.700000003,A,gol,O,l,181,1,4750.20000000298,541242.5,7807,WL,A,15.0
4,39.270999908447266,learn,20729.000091552734,Wed May 13 2026 13:55:20 GMT-0500 (Central Daylight Time),546457.900000006,A,gold,O,d,455,1,5215.4000000059605,541242.5,7807,WL,A,15.0
4,39.48900008201599,learn,20510.99991798401,Wed May 13 2026 13:55:20 GMT-0500 (Central Daylight Time),546675.700000003,A,goldenter,O,enter,197,1,5433.20000000298,541242.5,7807,WL,A,15.0
5,1.6469998359680176,learn,60000.0,Wed May 13 2026 13:55:20 GMT-0500 (Central Daylight Time),618385.700000003,A,b,O,b,1639,1,1646.7999999970198,616738.900000006,7807,WL,A,1.0
5,2.060999870300293,learn,60000.0,Wed May 13 2026 13:55:20 GMT-0500 (Central Daylight Time),618800.400000006,A,bo,O,o,407,1,2061.5,616738.900000006,7807,WL,A,1.0
5,2.2289998531341553,learn,60000.0,Wed May 13 2026 13:55:20 GMT-0500 (Central Daylight Time),618967.900000006,A,boo,O,o,147,1,2229.0,616738.900000006,7807,WL,A,1.0
5,2.4129998683929443,learn,60000.0,Wed May 13 2026 13:55:20 GMT-0500 (Central Daylight Time),619152.0,A,book,O,k,165,1,2413.0999999940395,616738.900000006,7807,WL,A,1.0
5,2.8309998512268066,learn,60000.0,Wed May 13 2026 13:55:20 GMT-0500 (Central Daylight Time),619569.799999997,A,bookenter,O,enter,405,1,2830.8999999910593,616738.900000006,7807,WL,A,1.0
5,3.861999988555908,learn,60000.0,Wed May 13 2026 13:55:20 GMT-0500 (Central Daylight Time),620600.799999997,A,f,O,f,1022,1,1030.7000000029802,619570.099999994,7807,WL,A,2.0
5,3.996000051498413,learn,60000.0,Wed May 13 2026 13:55:20 GMT-0500 (Central Daylight Time),620735.0,A,fl,O,l,127,1,1164.9000000059605,619570.099999994,7807,WL,A,2.0
5,4.211999893188477,learn,60000.0,Wed May 13 2026 13:55:20 GMT-0500 (Central Daylight Time),620951.299999997,A,flo,O,o,208,1,1381.2000000029802,619570.099999994,7807,WL,A,2.0
5,4.5279998779296875,learn,60000.0,Wed May 13 2026 13:55:20 GMT-0500 (Central Daylight Time),621267.0,A,flow,O,w,294,1,1696.9000000059605,619570.099999994,7807,WL,A,2.0
5,4.713000059127808,learn,60000.0,Wed May 13 2026 13:55:20 GMT-0500 (Central Daylight Time),621451.700000003,A,flowe,O,e,161,1,1881.6000000089407,619570.099999994,7807,WL,A,2.0
5,4.86299991607666,learn,60000.0,Wed May 13 2026 13:55:20 GMT-0500 (Central Daylight Time),621601.700000003,A,flower,O,r,138,1,2031.6000000089407,619570.099999994,7807,WL,A,2.0
5,5.563999891281128,learn,60000.0,Wed May 13 2026 13:55:20 GMT-0500 (Central Daylight Time),622303.200000003,A,flowerenter,O,enter,696,1,2733.1000000089407,619570.099999994,7807,WL,A,2.0
5,6.178999900817871,learn,60000.0,Wed May 13 2026 13:55:20 GMT-0500 (Central Daylight Time),622918.299999997,A,t,O,t,610,1,614.8999999910593,622303.400000006,7807,WL,A,3.0
5,6.861000061035156,learn,60000.0,Wed May 13 2026 13:55:20 GMT-0500 (Central Daylight Time),623599.799999997,A,tr,O,r,666,1,1296.3999999910593,622303.400000006,7807,WL,A,3.0
5,7.043999910354614,learn,60000.0,Wed May 13 2026 13:55:20 GMT-0500 (Central Daylight Time),623783.0,A,tra,O,a,173,1,1479.5999999940395,622303.400000006,7807,WL,A,3.0
5,7.211999893188477,learn,60000.0,Wed May 13 2026 13:55:20 GMT-0500 (Central Daylight Time),623950.799999997,A,trai,O,i,158,1,1647.3999999910593,622303.400000006,7807,WL,A,3.0
5,7.41100001335144,learn,60000.0,Wed May 13 2026 13:55:20 GMT-0500 (Central Daylight Time),624150.599999994,A,train,O,n,175,1,1847.199999988079,622303.400000006,7807,WL,A,3.0
5,7.710000038146973,learn,60000.0,Wed May 13 2026 13:55:20 GMT-0500 (Central Daylight Time),624449.299999997,A,trainenter,O,enter,287,1,2145.8999999910593,622303.400000006,7807,WL,A,3.0
5,8.213000059127808,learn,60000.0,Wed May 13 2026 13:55:20 GMT-0500 (Central Daylight Time),624952.099999994,A,r,O,r,487,1,502.59999999403954,624449.5,7807,WL,A,4.0
5,8.526000022888184,learn,60000.0,Wed May 13 2026 13:55:20 GMT-0500 (Central Daylight Time),625265.599999994,A,ru,O,u,303,1,816.0999999940395,624449.5,7807,WL,A,4.0
5,8.878000020980835,learn,60000.0,Wed May 13 2026 13:55:20 GMT-0500 (Central Daylight Time),625616.900000006,A,rug,O,g,332,1,1167.4000000059605,624449.5,7807,WL,A,4.0
5,9.32699990272522,learn,60000.0,Wed May 13 2026 13:55:20 GMT-0500 (Central Daylight Time),626066.5,A,rugenter,O,enter,440,1,1617.0,624449.5,7807,WL,A,4.0
5,13.592000007629395,learn,60000.0,Wed May 13 2026 13:55:20 GMT-0500 (Central Daylight Time),630330.900000006,A,m,O,m,4246,1,4264.100000008941,626066.799999997,7807,WL,A,5.0
5,13.740999937057495,learn,60000.0,Wed May 13 2026 13:55:20 GMT-0500 (Central Daylight Time),630480.599999994,A,me,O,e,140,1,4413.79999999702,626066.799999997,7807,WL,A,5.0
5,13.89299988746643,learn,60000.0,Wed May 13 2026 13:55:20 GMT-0500 (Central Daylight Time),630631.799999997,A,mea,O,a,145,1,4565.0,626066.799999997,7807,WL,A,5.0
5,14.125,learn,60000.0,Wed May 13 2026 13:55:20 GMT-0500 (Central Daylight Time),630864.0,A,mead,O,d,222,1,4797.20000000298,626066.799999997,7807,WL,A,5.0
5,14.460999965667725,learn,60000.0,Wed May 13 2026 13:55:20 GMT-0500 (Central Daylight Time),631200.599999994,A,meado,O,o,321,1,5133.79999999702,626066.799999997,7807,WL,A,5.0
5,14.740999937057495,learn,60000.0,Wed May 13 2026 13:55:20 GMT-0500 (Central Daylight Time),631480.299999997,A,meadow,O,w,263,1,5413.5,626066.799999997,7807,WL,A,5.0
5,15.340999841690063,learn,60000.0,Wed May 13 2026 13:55:20 GMT-0500 (Central Daylight Time),632080.200000003,A,meadowenter,O,enter,581,1,6013.4000000059605,626066.799999997,7807,WL,A,5.0
5,16.47499990463257,learn,60000.0,Wed May 13 2026 13:55:20 GMT-0500 (Central Daylight Time),633213.799999997,A,h,O,h,1121,1,1133.3999999910593,632080.400000006,7807,WL,A,6.0
5,16.756999969482422,learn,60000.0,Wed May 13 2026 13:55:20 GMT-0500 (Central Daylight Time),633496.5,A,ha,O,a,267,1,1416.0999999940395,632080.400000006,7807,WL,A,6.0
5,17.009999990463257,learn,60000.0,Wed May 13 2026 13:55:20 GMT-0500 (Central Daylight Time),633749.299999997,A,har,O,r,229,1,1668.8999999910593,632080.400000006,7807,WL,A,6.0
5,17.756999969482422,learn,60000.0,Wed May 13 2026 13:55:20 GMT-0500 (Central Daylight Time),634496.200000003,A,harp,O,p,741,1,2415.7999999970198,632080.400000006,7807,WL,A,6.0
5,18.45799994468689,learn,60000.0,Wed May 13 2026 13:55:20 GMT-0500 (Central Daylight Time),635197.400000006,A,harpenter,O,enter,687,1,3117.0,632080.400000006,7807,WL,A,6.0
5,20.60800004005432,learn,60000.0,Wed May 13 2026 13:55:20 GMT-0500 (Central Daylight Time),637347.099999994,A,s,O,s,2132,1,2149.5,635197.599999994,7807,WL,A,7.0
5,20.805999994277954,learn,60000.0,Wed May 13 2026 13:55:20 GMT-0500 (Central Daylight Time),637545.0,A,sa,O,a,179,1,2347.4000000059605,635197.599999994,7807,WL,A,7.0
5,21.122999906539917,learn,60000.0,Wed May 13 2026 13:55:20 GMT-0500 (Central Daylight Time),637861.799999997,A,sal,O,l,310,1,2664.2000000029802,635197.599999994,7807,WL,A,7.0
5,21.2739999294281,learn,60000.0,Wed May 13 2026 13:55:20 GMT-0500 (Central Daylight Time),638012.700000003,A,salt,O,t,128,1,2815.1000000089407,635197.599999994,7807,WL,A,7.0
5,21.539000034332275,learn,60000.0,Wed May 13 2026 13:55:20 GMT-0500 (Central Daylight Time),638278.400000006,A,saltenter,O,enter,251,1,3080.800000011921,635197.599999994,7807,WL,A,7.0
5,22.33899998664856,learn,60000.0,Wed May 13 2026 13:55:20 GMT-0500 (Central Daylight Time),639077.900000006,A,f,O,f,779,1,799.2000000029802,638278.700000003,7807,WL,A,8.0
5,22.455999851226807,learn,60000.0,Wed May 13 2026 13:55:20 GMT-0500 (Central Daylight Time),639194.900000006,A,fi,O,i,107,1,916.2000000029802,638278.700000003,7807,WL,A,8.0
5,22.638999938964844,learn,60000.0,Wed May 13 2026 13:55:20 GMT-0500 (Central Daylight Time),639377.799999997,A,fin,O,n,173,1,1099.0999999940395,638278.700000003,7807,WL,A,8.0
5,22.85599994659424,learn,60000.0,Wed May 13 2026 13:55:20 GMT-0500 (Central Daylight Time),639594.900000006,A,fing,O,g,198,1,1316.2000000029802,638278.700000003,7807,WL,A,8.0
5,23.473000049591064,learn,60000.0,Wed May 13 2026 13:55:20 GMT-0500 (Central Daylight Time),640211.799999997,A,finge,O,e,596,1,1933.0999999940395,638278.700000003,7807,WL,A,8.0
5,23.622999906539917,learn,60000.0,Wed May 13 2026 13:55:20 GMT-0500 (Central Daylight Time),640362.0,A,finger,O,r,131,1,2083.2999999970198,638278.700000003,7807,WL,A,8.0
5,24.221999883651733,learn,60000.0,Wed May 13 2026 13:55:20 GMT-0500 (Central Daylight Time),640960.599999994,A,fingerenter,O,enter,590,1,2681.8999999910593,638278.700000003,7807,WL,A,8.0
5,25.187000036239624,learn,60000.0,Wed May 13 2026 13:55:20 GMT-0500 (Central Daylight Time),641926.299999997,A,a,O,a,951,1,965.3999999910593,640960.900000006,7807,WL,A,9.0
5,25.555999994277954,learn,60000.0,Wed May 13 2026 13:55:20 GMT-0500 (Central Daylight Time),642294.700000003,A,ap,O,p,364,1,1333.7999999970198,640960.900000006,7807,WL,A,9.0
5,25.685999870300293,learn,60000.0,Wed May 13 2026 13:55:20 GMT-0500 (Central Daylight Time),642425.200000003,A,app,O,p,117,1,1464.2999999970198,640960.900000006,7807,WL,A,9.0
5,28.187999963760376,learn,60000.0,Wed May 13 2026 13:55:20 GMT-0500 (Central Daylight Time),644927.5,A,appl,O,l,2498,1,3966.5999999940395,640960.900000006,7807,WL,A,9.0
5,28.388000011444092,learn,60000.0,Wed May 13 2026 13:55:20 GMT-0500 (Central Daylight Time),645126.700000003,A,apple,O,e,183,1,4165.79999999702,640960.900000006,7807,WL,A,9.0
5,29.453999996185303,learn,60000.0,Wed May 13 2026 13:55:20 GMT-0500 (Central Daylight Time),646193.299999997,A,appleenter,O,enter,1048,1,5232.399999991059,640960.900000006,7807,WL,A,9.0
5,30.086999893188477,learn,60000.0,Wed May 13 2026 13:55:20 GMT-0500 (Central Daylight Time),646826.099999994,A,c,O,c,615,1,632.5,646193.599999994,7807,WL,A,10.0
5,30.304999828338623,learn,60000.0,Wed May 13 2026 13:55:20 GMT-0500 (Central Daylight Time),647043.900000006,A,ch,O,h,198,1,850.3000000119209,646193.599999994,7807,WL,A,10.0
5,30.453999996185303,learn,60000.0,Wed May 13 2026 13:55:20 GMT-0500 (Central Daylight Time),647192.599999994,A,chi,O,i,141,1,999.0,646193.599999994,7807,WL,A,10.0
5,30.70299983024597,learn,60000.0,Wed May 13 2026 13:55:20 GMT-0500 (Central Daylight Time),647442.200000003,A,chim,O,m,241,1,1248.6000000089407,646193.599999994,7807,WL,A,10.0
5,31.069999933242798,learn,60000.0,Wed May 13 2026 13:55:20 GMT-0500 (Central Daylight Time),647809.200000003,A,chimn,O,n,359,1,1615.6000000089407,646193.599999994,7807,WL,A,10.0
5,31.435999870300293,learn,60000.0,Wed May 13 2026 13:55:20 GMT-0500 (Central Daylight Time),648175.400000006,A,chimne,O,e,358,1,1981.800000011921,646193.599999994,7807,WL,A,10.0
5,31.603999853134155,learn,60000.0,Wed May 13 2026 13:55:20 GMT-0500 (Central Daylight Time),648343.599999994,A,chimney,O,y,151,1,2150.0,646193.599999994,7807,WL,A,10.0
5,32.6710000038147,learn,60000.0,Wed May 13 2026 13:55:20 GMT-0500 (Central Daylight Time),649410.0,A,chimneyenter,O,enter,1044,1,3216.4000000059605,646193.599999994,7807,WL,A,10.0
5,33.151999950408936,learn,60000.0,Wed May 13 2026 13:55:20 GMT-0500 (Central Daylight Time),649891.299999997,A,b,O,b,461,1,481.0,649410.299999997,7807,WL,A,11.0
5,33.37100005149841,learn,60000.0,Wed May 13 2026 13:55:20 GMT-0500 (Central Daylight Time),650110.099999994,A,bu,O,u,206,1,699.7999999970198,649410.299999997,7807,WL,A,11.0
5,33.76699995994568,learn,60000.0,Wed May 13 2026 13:55:20 GMT-0500 (Central Daylight Time),650506.200000003,A,but,O,t,376,1,1095.9000000059605,649410.299999997,7807,WL,A,11.0
5,33.918999910354614,learn,60000.0,Wed May 13 2026 13:55:20 GMT-0500 (Central Daylight Time),650657.700000003,A,butt,O,t,134,1,1247.4000000059605,649410.299999997,7807,WL,A,11.0
5,34.10199999809265,learn,60000.0,Wed May 13 2026 13:55:20 GMT-0500 (Central Daylight Time),650840.900000006,A,butto,O,o,174,1,1430.6000000089407,649410.299999997,7807,WL,A,11.0
5,34.30299997329712,learn,60000.0,Wed May 13 2026 13:55:20 GMT-0500 (Central Daylight Time),651041.799999997,A,button,O,n,192,1,1631.5,649410.299999997,7807,WL,A,11.0
5,35.28499984741211,learn,60000.0,Wed May 13 2026 13:55:20 GMT-0500 (Central Daylight Time),652024.099999994,A,buttonenter,O,enter,975,1,2613.7999999970198,649410.299999997,7807,WL,A,11.0
5,36.26799988746643,learn,60000.0,Wed May 13 2026 13:55:20 GMT-0500 (Central Daylight Time),653007.0,A,l,O,l,968,1,982.7000000029802,652024.299999997,7807,WL,A,12.0
5,36.63599991798401,learn,60000.0,Wed May 13 2026 13:55:20 GMT-0500 (Central Daylight Time),653374.700000003,A,lo,O,o,363,1,1350.4000000059605,652024.299999997,7807,WL,A,12.0
5,36.95299983024597,learn,60000.0,Wed May 13 2026 13:55:20 GMT-0500 (Central Daylight Time),653692.400000006,A,log,O,g,296,1,1668.1000000089407,652024.299999997,7807,WL,A,12.0
5,37.14999985694885,learn,60000.0,Wed May 13 2026 13:55:20 GMT-0500 (Central Daylight Time),653889.299999997,A,logenter,O,enter,186,1,1865.0,652024.299999997,7807,WL,A,12.0
5,37.95099997520447,learn,60000.0,Wed May 13 2026 13:55:20 GMT-0500 (Central Daylight Time),654690.400000006,A,k,O,k,791,1,800.9000000059605,653889.5,7807,WL,A,13.0
5,38.234999895095825,learn,60000.0,Wed May 13 2026 13:55:20 GMT-0500 (Central Daylight Time),654973.799999997,A,ke,O,e,269,1,1084.2999999970198,653889.5,7807,WL,A,13.0
5,38.401000022888184,learn,60000.0,Wed May 13 2026 13:55:20 GMT-0500 (Central Daylight Time),655140.400000006,A,key,O,y,145,1,1250.9000000059605,653889.5,7807,WL,A,13.0
5,39.43299984931946,learn,60000.0,Wed May 13 2026 13:55:20 GMT-0500 (Central Daylight Time),656172.5,A,keyenter,O,enter,1025,1,2283.0,653889.5,7807,WL,A,13.0
5,39.81699991226196,learn,60000.0,Wed May 13 2026 13:55:20 GMT-0500 (Central Daylight Time),656556.299999997,A,g,O,g,380,1,383.59999999403954,656172.700000003,7807,WL,A,14.0
5,40.01699995994568,learn,60000.0,Wed May 13 2026 13:55:20 GMT-0500 (Central Daylight Time),656756.200000003,A,go,O,o,181,1,583.5,656172.700000003,7807,WL,A,14.0
5,40.348999977111816,learn,60000.0,Wed May 13 2026 13:55:20 GMT-0500 (Central Daylight Time),657088.099999994,A,gol,O,l,324,1,915.3999999910593,656172.700000003,7807,WL,A,14.0
5,40.51699995994568,learn,60000.0,Wed May 13 2026 13:55:20 GMT-0500 (Central Daylight Time),657256.0,A,gold,O,d,161,1,1083.2999999970198,656172.700000003,7807,WL,A,14.0
5,40.799999952316284,learn,60000.0,Wed May 13 2026 13:55:20 GMT-0500 (Central Daylight Time),657538.799999997,A,goldenter,O,enter,261,1,1366.0999999940395,656172.700000003,7807,WL,A,14.0
5,48.71300005912781,learn,60000.0,Wed May 13 2026 13:55:20 GMT-0500 (Central Daylight Time),665452.200000003,A,enter,O,enter,7902,1,7913.20000000298,657539.0,7807,WL,A,15.0
6,2.7980000972747803,distr,57201.99990272522,Wed May 13 2026 13:55:20 GMT-0500 (Central Daylight Time),748926.599999994,B,b,O,b,2780,1,2797.3999999910593,746129.200000003,7807,WL,A,1.0
6,3.2139999866485596,distr,56786.00001335144,Wed May 13 2026 13:55:20 GMT-0500 (Central Daylight Time),749343.0,B,bo,O,o,398,1,3213.7999999970198,746129.200000003,7807,WL,A,1.0
6,3.6470000743865967,distr,56352.9999256134,Wed May 13 2026 13:55:20 GMT-0500 (Central Daylight Time),749775.400000006,B,bow,O,w,413,1,3646.2000000029802,746129.200000003,7807,WL,A,1.0
6,4.13100004196167,distr,55868.99995803833,Wed May 13 2026 13:55:20 GMT-0500 (Central Daylight Time),750260.099999994,B,bowl,O,l,472,1,4130.899999991059,746129.200000003,7807,WL,A,1.0
6,4.546999931335449,distr,55453.00006866455,Wed May 13 2026 13:55:20 GMT-0500 (Central Daylight Time),750675.799999997,B,bowlenter,O,enter,403,1,4546.5999999940395,746129.200000003,7807,WL,A,1.0
6,5.148000001907349,distr,54851.99999809265,Wed May 13 2026 13:55:20 GMT-0500 (Central Daylight Time),751276.400000006,B,j,O,j,581,1,600.4000000059605,750676.0,7807,WL,A,2.0
6,5.414999961853027,distr,54585.00003814697,Wed May 13 2026 13:55:20 GMT-0500 (Central Daylight Time),751543.400000006,B,ju,O,u,260,1,867.4000000059605,750676.0,7807,WL,A,2.0
6,6.880000114440918,distr,53119.99988555908,Wed May 13 2026 13:55:20 GMT-0500 (Central Daylight Time),753008.599999994,B,jud,O,d,1447,1,2332.5999999940395,750676.0,7807,WL,A,2.0
6,7.3459999561309814,distr,52654.00004386902,Wed May 13 2026 13:55:20 GMT-0500 (Central Daylight Time),753474.799999997,B,judg,O,g,447,1,2798.7999999970198,750676.0,7807,WL,A,2.0
6,7.729000091552734,distr,52270.999908447266,Wed May 13 2026 13:55:20 GMT-0500 (Central Daylight Time),753857.900000006,B,judge,O,e,364,1,3181.9000000059605,750676.0,7807,WL,A,2.0
6,8.597000122070312,distr,51402.99987792969,Wed May 13 2026 13:55:20 GMT-0500 (Central Daylight Time),754725.400000006,B,judgeenter,O,enter,844,1,4049.4000000059605,750676.0,7807,WL,A,2.0
6,9.230000019073486,distr,50769.999980926514,Wed May 13 2026 13:55:20 GMT-0500 (Central Daylight Time),755358.5,B,g,O,g,619,1,632.7999999970198,754725.700000003,7807,WL,A,3.0
6,9.496000051498413,distr,50503.99994850159,Wed May 13 2026 13:55:20 GMT-0500 (Central Daylight Time),755624.900000006,B,gr,O,r,257,1,899.2000000029802,754725.700000003,7807,WL,A,3.0
6,9.661999940872192,distr,50338.00005912781,Wed May 13 2026 13:55:20 GMT-0500 (Central Daylight Time),755790.400000006,B,gra,O,a,149,1,1064.7000000029802,754725.700000003,7807,WL,A,3.0
6,9.897000074386597,distr,50102.9999256134,Wed May 13 2026 13:55:20 GMT-0500 (Central Daylight Time),756026.099999994,B,gran,O,n,218,1,1300.3999999910593,754725.700000003,7807,WL,A,3.0
6,10.29699993133545,distr,49703.00006866455,Wed May 13 2026 13:55:20 GMT-0500 (Central Daylight Time),756426.099999994,B,grant,O,t,391,1,1700.3999999910593,754725.700000003,7807,WL,A,3.0
6,12.57800006866455,distr,47421.99993133545,Wed May 13 2026 13:55:20 GMT-0500 (Central Daylight Time),758706.400000006,B,grantenter,O,enter,2261,1,3980.7000000029802,754725.700000003,7807,WL,A,3.0
6,15.094000101089478,distr,44905.99989891052,Wed May 13 2026 13:55:20 GMT-0500 (Central Daylight Time),761223.0,B,c,O,c,2510,1,2516.2999999970198,758706.700000003,7807,WL,A,4.0
6,15.226999998092651,distr,44773.00000190735,Wed May 13 2026 13:55:20 GMT-0500 (Central Daylight Time),761355.700000003,B,co,O,o,109,1,2649.0,758706.700000003,7807,WL,A,4.0
6,15.444000005722046,distr,44555.999994277954,Wed May 13 2026 13:55:20 GMT-0500 (Central Daylight Time),761572.5,B,cou,O,u,194,1,2865.7999999970198,758706.700000003,7807,WL,A,4.0
6,15.710999965667725,distr,44289.000034332275,Wed May 13 2026 13:55:20 GMT-0500 (Central Daylight Time),761840.0,B,coun,O,n,247,1,3133.2999999970198,758706.700000003,7807,WL,A,4.0
6,16.045000076293945,distr,43954.999923706055,Wed May 13 2026 13:55:20 GMT-0500 (Central Daylight Time),762173.900000006,B,count,O,t,330,1,3467.2000000029802,758706.700000003,7807,WL,A,4.0
6,16.293999910354614,distr,43706.000089645386,Wed May 13 2026 13:55:20 GMT-0500 (Central Daylight Time),762422.900000006,B,county,O,y,235,1,3716.2000000029802,758706.700000003,7807,WL,A,4.0
6,16.859999895095825,distr,43140.000104904175,Wed May 13 2026 13:55:20 GMT-0500 (Central Daylight Time),762988.900000006,B,countyenter,O,enter,546,1,4282.20000000298,758706.700000003,7807,WL,A,4.0
6,17.49399995803833,distr,42506.00004196167,Wed May 13 2026 13:55:20 GMT-0500 (Central Daylight Time),763622.5,B,p,O,p,619,1,633.4000000059605,762989.099999994,7807,WL,A,5.0
6,17.877000093460083,distr,42122.99990653992,Wed May 13 2026 13:55:20 GMT-0500 (Central Daylight Time),764005.400000006,B,po,O,o,360,1,1016.3000000119209,762989.099999994,7807,WL,A,5.0
6,18.026000022888184,distr,41973.99997711182,Wed May 13 2026 13:55:20 GMT-0500 (Central Daylight Time),764154.799999997,B,poo,O,o,129,1,1165.7000000029802,762989.099999994,7807,WL,A,5.0
6,18.278000116348267,distr,41721.99988365173,Wed May 13 2026 13:55:20 GMT-0500 (Central Daylight Time),764406.5,B,pool,O,l,234,1,1417.4000000059605,762989.099999994,7807,WL,A,5.0
6,20.41000008583069,distr,39589.99991416931,Wed May 13 2026 13:55:20 GMT-0500 (Central Daylight Time),766538.5,B,poolenter,O,enter,2121,1,3549.4000000059605,762989.099999994,7807,WL,A,5.0
6,22.092000007629395,distr,37907.999992370605,Wed May 13 2026 13:55:20 GMT-0500 (Central Daylight Time),768220.5,B,s,O,s,1661,1,1681.7000000029802,766538.799999997,7807,WL,A,6.0
6,22.375,distr,37625.0,Wed May 13 2026 13:55:20 GMT-0500 (Central Daylight Time),768504.299999997,B,se,O,e,268,1,1965.5,766538.799999997,7807,WL,A,6.0
6,22.509000062942505,distr,37490.999937057495,Wed May 13 2026 13:55:20 GMT-0500 (Central Daylight Time),768637.799999997,B,see,O,e,108,1,2099.0,766538.799999997,7807,WL,A,6.0
6,22.740999937057495,distr,37259.000062942505,Wed May 13 2026 13:55:20 GMT-0500 (Central Daylight Time),768869.5,B,seed,O,d,216,1,2330.7000000029802,766538.799999997,7807,WL,A,6.0
6,23.2739999294281,distr,36726.0000705719,Wed May 13 2026 13:55:20 GMT-0500 (Central Daylight Time),769403.099999994,B,seedenter,O,enter,513,1,2864.2999999970198,766538.799999997,7807,WL,A,6.0
6,23.9760000705719,distr,36023.9999294281,Wed May 13 2026 13:55:20 GMT-0500 (Central Daylight Time),770104.700000003,B,s,O,s,685,1,701.4000000059605,769403.299999997,7807,WL,A,7.0
6,25.27500009536743,distr,34724.99990463257,Wed May 13 2026 13:55:20 GMT-0500 (Central Daylight Time),771403.5,B,sh,O,h,1287,1,2000.2000000029802,769403.299999997,7807,WL,A,7.0
6,25.52500009536743,distr,34474.99990463257,Wed May 13 2026 13:55:20 GMT-0500 (Central Daylight Time),771653.799999997,B,she,O,e,239,1,2250.5,769403.299999997,7807,WL,A,7.0
6,25.674000024795532,distr,34325.99997520447,Wed May 13 2026 13:55:20 GMT-0500 (Central Daylight Time),771802.700000003,B,shee,O,e,128,1,2399.4000000059605,769403.299999997,7807,WL,A,7.0
6,26.141000032424927,distr,33858.99996757507,Wed May 13 2026 13:55:20 GMT-0500 (Central Daylight Time),772269.400000006,B,sheep,O,p,451,1,2866.1000000089407,769403.299999997,7807,WL,A,7.0
6,26.957000017166138,distr,33042.99998283386,Wed May 13 2026 13:55:20 GMT-0500 (Central Daylight Time),773085.900000006,B,sheepenter,O,enter,803,1,3682.6000000089407,769403.299999997,7807,WL,A,7.0
6,27.82200002670288,distr,32177.99997329712,Wed May 13 2026 13:55:20 GMT-0500 (Central Daylight Time),773950.799999997,B,m,O,m,858,1,864.7000000029802,773086.099999994,7807,WL,A,8.0
6,28.039999961853027,distr,31960.000038146973,Wed May 13 2026 13:55:20 GMT-0500 (Central Daylight Time),774168.799999997,B,me,O,e,201,1,1082.7000000029802,773086.099999994,7807,WL,A,8.0
6,28.188999891281128,distr,31811.000108718872,Wed May 13 2026 13:55:20 GMT-0500 (Central Daylight Time),774318.299999997,B,mea,O,a,135,1,1232.2000000029802,773086.099999994,7807,WL,A,8.0
6,28.44000005722046,distr,31559.99994277954,Wed May 13 2026 13:55:20 GMT-0500 (Central Daylight Time),774568.599999994,B,meal,O,l,232,1,1482.5,773086.099999994,7807,WL,A,8.0
6,29.472000122070312,distr,30527.999877929688,Wed May 13 2026 13:55:20 GMT-0500 (Central Daylight Time),775601.0,B,mealenter,O,enter,1016,1,2514.9000000059605,773086.099999994,7807,WL,A,8.0
6,30.69000005722046,distr,29309.99994277954,Wed May 13 2026 13:55:20 GMT-0500 (Central Daylight Time),776818.599999994,B,b,O,b,1207,1,1217.3999999910593,775601.200000003,7807,WL,A,9.0
6,30.888999938964844,distr,29111.000061035156,Wed May 13 2026 13:55:20 GMT-0500 (Central Daylight Time),777017.400000006,B,bo,O,o,181,1,1416.2000000029802,775601.200000003,7807,WL,A,9.0
6,31.67300009727478,distr,28326.99990272522,Wed May 13 2026 13:55:20 GMT-0500 (Central Daylight Time),777801.5,B,bot,O,t,765,1,2200.2999999970198,775601.200000003,7807,WL,A,9.0
6,31.805999994277954,distr,28194.000005722046,Wed May 13 2026 13:55:20 GMT-0500 (Central Daylight Time),777934.599999994,B,bott,O,t,126,1,2333.3999999910593,775601.200000003,7807,WL,A,9.0
6,32.15599989891052,distr,27844.000101089478,Wed May 13 2026 13:55:20 GMT-0500 (Central Daylight Time),778284.900000006,B,bottl,O,l,328,1,2683.7000000029802,775601.200000003,7807,WL,A,9.0
6,32.355000019073486,distr,27644.999980926514,Wed May 13 2026 13:55:20 GMT-0500 (Central Daylight Time),778483.799999997,B,bottle,O,e,186,1,2882.5999999940395,775601.200000003,7807,WL,A,9.0
6,32.888999938964844,distr,27111.000061035156,Wed May 13 2026 13:55:20 GMT-0500 (Central Daylight Time),779017.400000006,B,bottleenter,O,enter,524,1,3416.2000000029802,775601.200000003,7807,WL,A,9.0
6,33.65499997138977,distr,26345.00002861023,Wed May 13 2026 13:55:20 GMT-0500 (Central Daylight Time),779783.5,B,p,O,p,761,1,765.9000000059605,779017.599999994,7807,WL,A,10.0
6,34.13800001144409,distr,25861.99998855591,Wed May 13 2026 13:55:20 GMT-0500 (Central Daylight Time),780266.799999997,B,pe,O,e,473,1,1249.2000000029802,779017.599999994,7807,WL,A,10.0
6,34.63700008392334,distr,25362.99991607666,Wed May 13 2026 13:55:20 GMT-0500 (Central Daylight Time),780766.299999997,B,pea,O,a,485,1,1748.7000000029802,779017.599999994,7807,WL,A,10.0
6,34.9539999961853,distr,25046.000003814697,Wed May 13 2026 13:55:20 GMT-0500 (Central Daylight Time),781083.099999994,B,peac,O,c,297,1,2065.5,779017.599999994,7807,WL,A,10.0
6,35.08699989318848,distr,24913.000106811523,Wed May 13 2026 13:55:20 GMT-0500 (Central Daylight Time),781216.299999997,B,peach,O,h,123,1,2198.7000000029802,779017.599999994,7807,WL,A,10.0
6,36.78600001335144,distr,23213.99998664856,Wed May 13 2026 13:55:20 GMT-0500 (Central Daylight Time),782914.700000003,B,peachenter,O,enter,1686,1,3897.1000000089407,779017.599999994,7807,WL,A,10.0
6,37.437000036239624,distr,22562.999963760376,Wed May 13 2026 13:55:20 GMT-0500 (Central Daylight Time),783566.5,B,i,O,i,638,1,651.5,782915.0,7807,WL,A,11.0
6,37.62000012397766,distr,22379.99987602234,Wed May 13 2026 13:55:20 GMT-0500 (Central Daylight Time),783749.099999994,B,in,O,n,170,1,834.0999999940395,782915.0,7807,WL,A,11.0
6,37.82100009918213,distr,22178.99990081787,Wed May 13 2026 13:55:20 GMT-0500 (Central Daylight Time),783950.0,B,ins,O,s,195,1,1035.0,782915.0,7807,WL,A,11.0
6,38.05299997329712,distr,21947.00002670288,Wed May 13 2026 13:55:20 GMT-0500 (Central Daylight Time),784181.900000006,B,inse,O,e,217,1,1266.9000000059605,782915.0,7807,WL,A,11.0
6,38.33699989318848,distr,21663.000106811523,Wed May 13 2026 13:55:20 GMT-0500 (Central Daylight Time),784465.700000003,B,insec,O,c,265,1,1550.7000000029802,782915.0,7807,WL,A,11.0
6,38.62100005149841,distr,21378.999948501587,Wed May 13 2026 13:55:20 GMT-0500 (Central Daylight Time),784750.299999997,B,insect,O,t,262,1,1835.2999999970198,782915.0,7807,WL,A,11.0
6,39.03500008583069,distr,20964.99991416931,Wed May 13 2026 13:55:20 GMT-0500 (Central Daylight Time),785163.900000006,B,insectenter,O,enter,393,1,2248.9000000059605,782915.0,7807,WL,A,11.0
6,39.6029999256134,distr,20397.000074386597,Wed May 13 2026 13:55:20 GMT-0500 (Central Daylight Time),785731.900000006,B,p,O,p,547,1,567.7000000029802,785164.200000003,7807,WL,A,12.0
6,39.8199999332428,distr,20180.000066757202,Wed May 13 2026 13:55:20 GMT-0500 (Central Daylight Time),785949.0,B,pl,O,l,205,1,784.7999999970198,785164.200000003,7807,WL,A,12.0
6,39.95099997520447,distr,20049.000024795532,Wed May 13 2026 13:55:20 GMT-0500 (Central Daylight Time),786080.299999997,B,pla,O,a,121,1,916.0999999940395,785164.200000003,7807,WL,A,12.0
6,40.33500003814697,distr,19664.999961853027,Wed May 13 2026 13:55:20 GMT-0500 (Central Daylight Time),786464.200000003,B,plan,O,n,367,1,1300.0,785164.200000003,7807,WL,A,12.0
6,40.437000036239624,distr,19562.999963760376,Wed May 13 2026 13:55:20 GMT-0500 (Central Daylight Time),786566.099999994,B,plane,O,e,98,1,1401.8999999910593,785164.200000003,7807,WL,A,12.0
6,40.65300011634827,distr,19346.999883651733,Wed May 13 2026 13:55:20 GMT-0500 (Central Daylight Time),786781.799999997,B,planeenter,O,enter,211,1,1617.5999999940395,785164.200000003,7807,WL,A,12.0
6,49.367000102996826,distr,10632.999897003174,Wed May 13 2026 13:55:20 GMT-0500 (Central Daylight Time),795495.799999997,B,enter,O,enter,8699,1,8713.70000000298,786782.099999994,7807,WL,A,13.0
6,51.48200011253357,distr,8517.99988746643,Wed May 13 2026 13:55:20 GMT-0500 (Central Daylight Time),797611.200000003,B,enter,O,enter,2104,1,2115.0,795496.200000003,7807,WL,A,14.0
6,54.16599988937378,distr,5834.000110626221,Wed May 13 2026 13:55:20 GMT-0500 (Central Daylight Time),800294.900000006,B,enter,O,enter,2677,1,2683.5,797611.400000006,7807,WL,A,15.0
7,2.3320000171661377,immed,57667.99998283386,Wed May 13 2026 13:55:20 GMT-0500 (Central Daylight Time),813689.200000003,A,b,O,b,2323,1,2331.7000000029802,811357.5,7807,WL,A,1.0
7,2.815999984741211,immed,57184.00001525879,Wed May 13 2026 13:55:20 GMT-0500 (Central Daylight Time),814173.0,A,bo,O,o,472,1,2815.5,811357.5,7807,WL,A,1.0
7,2.9830000400543213,immed,57016.99995994568,Wed May 13 2026 13:55:20 GMT-0500 (Central Daylight Time),814339.900000006,A,boo,O,o,146,1,2982.4000000059605,811357.5,7807,WL,A,1.0
7,3.433000087738037,immed,56566.99991226196,Wed May 13 2026 13:55:20 GMT-0500 (Central Daylight Time),814789.599999994,A,book,O,k,427,1,3432.0999999940395,811357.5,7807,WL,A,1.0
7,4.031000137329102,immed,55968.9998626709,Wed May 13 2026 13:55:20 GMT-0500 (Central Daylight Time),815388.599999994,A,bookenter,O,enter,576,1,4031.0999999940395,811357.5,7807,WL,A,1.0
7,4.6650002002716064,immed,55334.99979972839,Wed May 13 2026 13:55:20 GMT-0500 (Central Daylight Time),816022.0,A,f,O,f,620,1,633.0999999940395,815388.900000006,7807,WL,A,2.0
7,4.815999984741211,immed,55184.00001525879,Wed May 13 2026 13:55:20 GMT-0500 (Central Daylight Time),816173.5,A,fl,O,l,138,1,784.5999999940395,815388.900000006,7807,WL,A,2.0
7,5.04800009727478,immed,54951.99990272522,Wed May 13 2026 13:55:20 GMT-0500 (Central Daylight Time),816405.200000003,A,flo,O,o,219,1,1016.2999999970198,815388.900000006,7807,WL,A,2.0
7,5.4150002002716064,immed,54584.99979972839,Wed May 13 2026 13:55:20 GMT-0500 (Central Daylight Time),816772.099999994,A,flow,O,w,356,1,1383.199999988079,815388.900000006,7807,WL,A,2.0
7,5.63100004196167,immed,54368.99995803833,Wed May 13 2026 13:55:20 GMT-0500 (Central Daylight Time),816988.200000003,A,flowe,O,e,211,1,1599.2999999970198,815388.900000006,7807,WL,A,2.0
7,5.831000089645386,immed,54168.999910354614,Wed May 13 2026 13:55:20 GMT-0500 (Central Daylight Time),817188.099999994,A,flower,O,r,189,1,1799.199999988079,815388.900000006,7807,WL,A,2.0
7,6.365000009536743,immed,53634.99999046326,Wed May 13 2026 13:55:20 GMT-0500 (Central Daylight Time),817721.799999997,A,flowerenter,O,enter,524,1,2332.8999999910593,815388.900000006,7807,WL,A,2.0
7,6.88100004196167,immed,53118.99995803833,Wed May 13 2026 13:55:20 GMT-0500 (Central Daylight Time),818238.099999994,A,t,O,t,502,1,516.0999999940395,817722.0,7807,WL,A,3.0
7,7.081000089645386,immed,52918.999910354614,Wed May 13 2026 13:55:20 GMT-0500 (Central Daylight Time),818438.0,A,tr,O,r,195,1,716.0,817722.0,7807,WL,A,3.0
7,7.265000104904175,immed,52734.999895095825,Wed May 13 2026 13:55:20 GMT-0500 (Central Daylight Time),818622.099999994,A,tra,O,a,170,1,900.0999999940395,817722.0,7807,WL,A,3.0
7,7.430999994277954,immed,52569.000005722046,Wed May 13 2026 13:55:20 GMT-0500 (Central Daylight Time),818787.599999994,A,trai,O,i,154,1,1065.5999999940395,817722.0,7807,WL,A,3.0
7,7.5970001220703125,immed,52402.99987792969,Wed May 13 2026 13:55:20 GMT-0500 (Central Daylight Time),818954.200000003,A,train,O,n,148,1,1232.2000000029802,817722.0,7807,WL,A,3.0
7,7.898000001907349,immed,52101.99999809265,Wed May 13 2026 13:55:20 GMT-0500 (Central Daylight Time),819255.099999994,A,trainenter,O,enter,286,1,1533.0999999940395,817722.0,7807,WL,A,3.0
7,8.348000049591064,immed,51651.999950408936,Wed May 13 2026 13:55:20 GMT-0500 (Central Daylight Time),819704.900000006,A,r,O,r,442,1,449.40000000596046,819255.5,7807,WL,A,4.0
7,8.680999994277954,immed,51319.000005722046,Wed May 13 2026 13:55:20 GMT-0500 (Central Daylight Time),820038.0,A,ru,O,u,327,1,782.5,819255.5,7807,WL,A,4.0
7,9.098999977111816,immed,50901.00002288818,Wed May 13 2026 13:55:20 GMT-0500 (Central Daylight Time),820455.799999997,A,rug,O,g,411,1,1200.2999999970198,819255.5,7807,WL,A,4.0
7,9.630000114440918,immed,50369.99988555908,Wed May 13 2026 13:55:20 GMT-0500 (Central Daylight Time),820986.599999994,A,rugenter,O,enter,511,1,1731.0999999940395,819255.5,7807,WL,A,4.0
7,10.331000089645386,immed,49668.999910354614,Wed May 13 2026 13:55:20 GMT-0500 (Central Daylight Time),821688.200000003,A,m,O,m,687,1,701.4000000059605,820986.799999997,7807,WL,A,5.0
7,10.514000177383423,immed,49485.99982261658,Wed May 13 2026 13:55:20 GMT-0500 (Central Daylight Time),821871.299999997,A,me,O,e,167,1,884.5,820986.799999997,7807,WL,A,5.0
7,10.646000146865845,immed,49353.999853134155,Wed May 13 2026 13:55:20 GMT-0500 (Central Daylight Time),822003.099999994,A,mea,O,a,119,1,1016.2999999970198,820986.799999997,7807,WL,A,5.0
7,11.995000123977661,immed,48004.99987602234,Wed May 13 2026 13:55:20 GMT-0500 (Central Daylight Time),823352.299999997,A,mead,O,d,1340,1,2365.5,820986.799999997,7807,WL,A,5.0
7,12.445000171661377,immed,47554.99982833862,Wed May 13 2026 13:55:20 GMT-0500 (Central Daylight Time),823802.5,A,meado,O,o,441,1,2815.7000000029802,820986.799999997,7807,WL,A,5.0
7,12.680000066757202,immed,47319.9999332428,Wed May 13 2026 13:55:20 GMT-0500 (Central Daylight Time),824037.099999994,A,meadow,O,w,214,1,3050.2999999970198,820986.799999997,7807,WL,A,5.0
7,13.995000123977661,immed,46004.99987602234,Wed May 13 2026 13:55:20 GMT-0500 (Central Daylight Time),825352.5,A,meadowenter,O,enter,1299,1,4365.70000000298,820986.799999997,7807,WL,A,5.0
7,14.495000123977661,immed,45504.99987602234,Wed May 13 2026 13:55:20 GMT-0500 (Central Daylight Time),825852.299999997,A,h,O,h,488,1,499.70000000298023,825352.599999994,7807,WL,A,6.0
7,14.628000020980835,immed,45371.999979019165,Wed May 13 2026 13:55:20 GMT-0500 (Central Daylight Time),825984.700000003,A,ha,O,a,124,1,632.1000000089407,825352.599999994,7807,WL,A,6.0
7,14.879000186920166,immed,45120.999813079834,Wed May 13 2026 13:55:20 GMT-0500 (Central Daylight Time),826235.700000003,A,har,O,r,230,1,883.1000000089407,825352.599999994,7807,WL,A,6.0
7,15.34600019454956,immed,44653.99980545044,Wed May 13 2026 13:55:20 GMT-0500 (Central Daylight Time),826703.200000003,A,harp,O,p,452,1,1350.6000000089407,825352.599999994,7807,WL,A,6.0
7,15.861999988555908,immed,44138.00001144409,Wed May 13 2026 13:55:20 GMT-0500 (Central Daylight Time),827219.200000003,A,harpenter,O,enter,497,1,1866.6000000089407,825352.599999994,7807,WL,A,6.0
7,16.710999965667725,immed,43289.000034332275,Wed May 13 2026 13:55:20 GMT-0500 (Central Daylight Time),828068.400000006,A,f,O,f,837,1,849.0,827219.400000006,7807,WL,A,7.0
7,16.92799997329712,immed,43072.00002670288,Wed May 13 2026 13:55:20 GMT-0500 (Central Daylight Time),828284.799999997,A,fi,O,i,195,1,1065.3999999910593,827219.400000006,7807,WL,A,7.0
7,17.111000061035156,immed,42888.999938964844,Wed May 13 2026 13:55:20 GMT-0500 (Central Daylight Time),828468.200000003,A,fin,O,n,171,1,1248.7999999970198,827219.400000006,7807,WL,A,7.0
7,17.444000005722046,immed,42555.999994277954,Wed May 13 2026 13:55:20 GMT-0500 (Central Daylight Time),828800.799999997,A,fing,O,g,323,1,1581.3999999910593,827219.400000006,7807,WL,A,7.0
7,17.710999965667725,immed,42289.000034332275,Wed May 13 2026 13:55:20 GMT-0500 (Central Daylight Time),829067.799999997,A,finge,O,e,255,1,1848.3999999910593,827219.400000006,7807,WL,A,7.0
7,17.844000101089478,immed,42155.99989891052,Wed May 13 2026 13:55:20 GMT-0500 (Central Daylight Time),829201.299999997,A,finger,O,r,126,1,1981.8999999910593,827219.400000006,7807,WL,A,7.0
7,18.49500012397766,immed,41504.99987602234,Wed May 13 2026 13:55:20 GMT-0500 (Central Daylight Time),829851.900000006,A,fingerenter,O,enter,639,1,2632.5,827219.400000006,7807,WL,A,7.0
7,18.92799997329712,immed,41072.00002670288,Wed May 13 2026 13:55:20 GMT-0500 (Central Daylight Time),830285.200000003,A,a,O,a,412,1,433.1000000089407,829852.099999994,7807,WL,A,8.0
7,19.177000045776367,immed,40822.99995422363,Wed May 13 2026 13:55:20 GMT-0500 (Central Daylight Time),830533.599999994,A,ap,O,p,234,1,681.5,829852.099999994,7807,WL,A,8.0
7,19.31000018119812,immed,40689.99981880188,Wed May 13 2026 13:55:20 GMT-0500 (Central Daylight Time),830667.599999994,A,app,O,p,123,1,815.5,829852.099999994,7807,WL,A,8.0
7,19.527000188827515,immed,40472.999811172485,Wed May 13 2026 13:55:20 GMT-0500 (Central Daylight Time),830884.099999994,A,appl,O,l,205,1,1032.0,829852.099999994,7807,WL,A,8.0
7,19.759999990463257,immed,40240.00000953674,Wed May 13 2026 13:55:20 GMT-0500 (Central Daylight Time),831117.599999994,A,apple,O,e,212,1,1265.5,829852.099999994,7807,WL,A,8.0
7,21.443000078201294,immed,38556.999921798706,Wed May 13 2026 13:55:20 GMT-0500 (Central Daylight Time),832800.200000003,A,appleenter,O,enter,1659,1,2948.1000000089407,829852.099999994,7807,WL,A,8.0
7,22.14300012588501,immed,37856.99987411499,Wed May 13 2026 13:55:20 GMT-0500 (Central Daylight Time),833500.099999994,A,c,O,c,680,1,699.7999999970198,832800.299999997,7807,WL,A,9.0
7,22.292999982833862,immed,37707.00001716614,Wed May 13 2026 13:55:20 GMT-0500 (Central Daylight Time),833650.0,A,ch,O,h,130,1,849.7000000029802,832800.299999997,7807,WL,A,9.0
7,22.443000078201294,immed,37556.999921798706,Wed May 13 2026 13:55:20 GMT-0500 (Central Daylight Time),833800.599999994,A,chi,O,i,144,1,1000.2999999970198,832800.299999997,7807,WL,A,9.0
7,22.659000158309937,immed,37340.99984169006,Wed May 13 2026 13:55:20 GMT-0500 (Central Daylight Time),834016.400000006,A,chim,O,m,207,1,1216.1000000089407,832800.299999997,7807,WL,A,9.0
7,23.009999990463257,immed,36990.00000953674,Wed May 13 2026 13:55:20 GMT-0500 (Central Daylight Time),834367.099999994,A,chimn,O,n,346,1,1566.7999999970198,832800.299999997,7807,WL,A,9.0
7,23.409000158309937,immed,36590.99984169006,Wed May 13 2026 13:55:20 GMT-0500 (Central Daylight Time),834766.099999994,A,chimne,O,e,393,1,1965.7999999970198,832800.299999997,7807,WL,A,9.0
7,23.55900001525879,immed,36440.99998474121,Wed May 13 2026 13:55:20 GMT-0500 (Central Daylight Time),834916.099999994,A,chimney,O,y,138,1,2115.7999999970198,832800.299999997,7807,WL,A,9.0
7,24.77500009536743,immed,35224.99990463257,Wed May 13 2026 13:55:20 GMT-0500 (Central Daylight Time),836131.900000006,A,chimneyenter,O,enter,1204,1,3331.6000000089407,832800.299999997,7807,WL,A,9.0
7,25.342000007629395,immed,34657.999992370605,Wed May 13 2026 13:55:20 GMT-0500 (Central Daylight Time),836698.599999994,A,b,O,b,556,1,566.5,836132.099999994,7807,WL,A,10.0
7,25.55900001525879,immed,34440.99998474121,Wed May 13 2026 13:55:20 GMT-0500 (Central Daylight Time),836916.200000003,A,bu,O,u,199,1,784.1000000089407,836132.099999994,7807,WL,A,10.0
7,25.892000198364258,immed,34107.99980163574,Wed May 13 2026 13:55:20 GMT-0500 (Central Daylight Time),837249.0,A,but,O,t,328,1,1116.9000000059605,836132.099999994,7807,WL,A,10.0
7,26.042999982833862,immed,33957.00001716614,Wed May 13 2026 13:55:20 GMT-0500 (Central Daylight Time),837399.799999997,A,butt,O,t,145,1,1267.7000000029802,836132.099999994,7807,WL,A,10.0
7,26.241000175476074,immed,33758.999824523926,Wed May 13 2026 13:55:20 GMT-0500 (Central Daylight Time),837598.400000006,A,butto,O,o,184,1,1466.300000011921,836132.099999994,7807,WL,A,10.0
