acc_sum,block,block_c,block_cond,con_img,correct,correct_response,datetime,endtime,face,jitter,line,project,response,response_time,row_sel,session_number,start_end,starttime,subject_id,task,task_vers,trial
1,prac,1,A,haborder.png,1,z,Tue Jan 13 2026 15:01:25 GMT-0500 (Eastern Standard Time),46832.599999427795,CFD-WF-013-015-A.jpg,1000,solid,I,z,762,12,3,2566.8999996185303,44265.699999809265,9023,ATS,B,1
2,prac,1,A,haborder.png,1,z,Tue Jan 13 2026 15:01:25 GMT-0500 (Eastern Standard Time),49582.5,CFD-BF-050-012-A.jpg,1200,solid,I,z,748,6,3,5316.800000190735,44265.699999809265,9023,ATS,B,2
3,prac,1,A,haborder.png,1,m,Tue Jan 13 2026 15:01:25 GMT-0500 (Eastern Standard Time),52449.0,CFD-WF-011-006-HC.jpg,1500,solid,I,m,562,11,3,8183.300000190735,44265.699999809265,9023,ATS,B,3
4,prac,1,A,haborder.png,1,m,Tue Jan 13 2026 15:01:25 GMT-0500 (Eastern Standard Time),55382.5,CFD-BM-020-024-HC.jpg,1500,solid,I,m,622,3,3,11116.800000190735,44265.699999809265,9023,ATS,B,4
5,prac,1,A,haborder.png,1,m,Tue Jan 13 2026 15:01:25 GMT-0500 (Eastern Standard Time),58732.39999961853,CFD-BM-015-017-HC.jpg,1700,solid,I,m,834,1,3,14466.699999809265,44265.699999809265,9023,ATS,B,5
6,prac,1,A,haborder.png,1,z,Tue Jan 13 2026 15:01:25 GMT-0500 (Eastern Standard Time),61582.29999923706,CFD-WF-026-008-A.jpg,1600,solid,I,z,448,10,3,17316.599999427795,44265.699999809265,9023,ATS,B,6
7,prac,1,A,haborder.png,1,m,Tue Jan 13 2026 15:01:25 GMT-0500 (Eastern Standard Time),65065.79999923706,CFD-BF-035-007-HC.jpg,2000,solid,I,m,670,5,3,20800.099999427795,44265.699999809265,9023,ATS,B,7
7,prac,1,A,haborder.png,0,z,Tue Jan 13 2026 15:01:25 GMT-0500 (Eastern Standard Time),68115.5999994278,CFD-BM-037-041-A.jpg,1600,solid,I,m,642,2,3,23849.89999961853,44265.699999809265,9023,ATS,B,8
8,prac,1,A,haborder.png,1,m,Tue Jan 13 2026 15:01:25 GMT-0500 (Eastern Standard Time),70982.39999961853,CFD-WM-011-006-HC.jpg,1400,solid,I,m,656,7,3,26716.699999809265,44265.699999809265,9023,ATS,B,9
9,prac,1,A,haborder.png,1,z,Tue Jan 13 2026 15:01:25 GMT-0500 (Eastern Standard Time),73365.39999961853,CFD-BF-051-043-A.jpg,1000,solid,I,z,574,4,3,29099.699999809265,44265.699999809265,9023,ATS,B,10
10,prac,1,A,haborder.png,1,m,Tue Jan 13 2026 15:01:25 GMT-0500 (Eastern Standard Time),76582.39999961853,CFD-WM-012-007-HC.jpg,1700,solid,I,m,706,9,3,32316.699999809265,44265.699999809265,9023,ATS,B,11
11,prac,1,A,haborder.png,1,z,Tue Jan 13 2026 15:01:25 GMT-0500 (Eastern Standard Time),79865.79999923706,CFD-WM-009-009-A.jpg,1900,solid,I,z,570,8,3,35600.099999427795,44265.699999809265,9023,ATS,B,12
1,prac,1,B,mfborder.png,1,m,Tue Jan 13 2026 15:01:25 GMT-0500 (Eastern Standard Time),106865.5999994278,CFD-BM-037-041-A.jpg,2000,dash,I,m,744,5,3,3550.0,103315.5999994278,9023,ATS,B,1
2,prac,1,B,mfborder.png,1,m,Tue Jan 13 2026 15:01:25 GMT-0500 (Eastern Standard Time),109982.29999923706,CFD-WM-009-009-A.jpg,1700,dash,I,m,614,9,3,6666.699999809265,103315.5999994278,9023,ATS,B,2
3,prac,1,B,mfborder.png,1,z,Tue Jan 13 2026 15:01:25 GMT-0500 (Eastern Standard Time),113749.0,CFD-WF-027-007-HC.jpg,1900,dash,I,z,1057,8,3,10433.400000572205,103315.5999994278,9023,ATS,B,3
4,prac,1,B,mfborder.png,1,z,Tue Jan 13 2026 15:01:25 GMT-0500 (Eastern Standard Time),116432.29999923706,CFD-BF-051-043-A.jpg,1000,dash,I,z,879,4,3,13116.699999809265,103315.5999994278,9023,ATS,B,4
5,prac,1,B,mfborder.png,1,z,Tue Jan 13 2026 15:01:25 GMT-0500 (Eastern Standard Time),118932.39999961853,CFD-WF-011-006-HC.jpg,1000,dash,I,z,691,12,3,15616.800000190735,103315.5999994278,9023,ATS,B,5
6,prac,1,B,mfborder.png,1,z,Tue Jan 13 2026 15:01:25 GMT-0500 (Eastern Standard Time),122182.19999980927,CFD-BF-027-013-HC.jpg,1500,dash,I,z,939,3,3,18866.60000038147,103315.5999994278,9023,ATS,B,6
7,prac,1,B,mfborder.png,1,m,Tue Jan 13 2026 15:01:25 GMT-0500 (Eastern Standard Time),125465.5999994278,CFD-BM-041-048-A.jpg,1600,dash,I,m,869,2,3,22150.0,103315.5999994278,9023,ATS,B,7
8,prac,1,B,mfborder.png,1,z,Tue Jan 13 2026 15:01:25 GMT-0500 (Eastern Standard Time),128365.69999980927,CFD-WF-026-008-A.jpg,1500,dash,I,z,598,11,3,25050.10000038147,103315.5999994278,9023,ATS,B,8
9,prac,1,B,mfborder.png,1,m,Tue Jan 13 2026 15:01:25 GMT-0500 (Eastern Standard Time),131799.0,CFD-BM-020-024-HC.jpg,1700,dash,I,m,923,1,3,28483.400000572205,103315.5999994278,9023,ATS,B,9
10,prac,1,B,mfborder.png,1,z,Tue Jan 13 2026 15:01:25 GMT-0500 (Eastern Standard Time),134932.19999980927,CFD-BF-035-007-HC.jpg,1400,dash,I,z,925,7,3,31616.60000038147,103315.5999994278,9023,ATS,B,10
11,prac,1,B,mfborder.png,1,m,Tue Jan 13 2026 15:01:25 GMT-0500 (Eastern Standard Time),138098.89999961853,CFD-WM-012-007-HC.jpg,1600,dash,I,m,760,10,3,34783.300000190735,103315.5999994278,9023,ATS,B,11
12,prac,1,B,mfborder.png,1,m,Tue Jan 13 2026 15:01:25 GMT-0500 (Eastern Standard Time),141032.29999923706,CFD-WM-037-060-A.jpg,1200,dash,I,m,937,6,3,37716.699999809265,103315.5999994278,9023,ATS,B,12
1,test,1,A,haborder.png,1,z,Tue Jan 13 2026 15:01:25 GMT-0500 (Eastern Standard Time),162115.5999994278,CFD-WF-026-008-A.jpg,1600,solid,I,z,644,10,3,2267.3999996185303,159848.19999980927,9023,ATS,B,1
2,test,1,A,haborder.png,1,z,Tue Jan 13 2026 15:01:25 GMT-0500 (Eastern Standard Time),164598.69999980927,CFD-WM-009-009-A.jpg,1900,solid,I,z,540,8,3,4750.5,159848.19999980927,9023,ATS,B,2
3,test,1,A,haborder.png,1,z,Tue Jan 13 2026 15:01:25 GMT-0500 (Eastern Standard Time),166782.0,CFD-BM-037-041-A.jpg,1600,solid,I,z,550,2,3,6933.800000190735,159848.19999980927,9023,ATS,B,3
4,test,1,A,haborder.png,1,m,Tue Jan 13 2026 15:01:25 GMT-0500 (Eastern Standard Time),168832.0999994278,CFD-BM-020-024-HC.jpg,1500,solid,I,m,514,3,3,8983.89999961853,159848.19999980927,9023,ATS,B,4
5,test,1,A,haborder.png,1,m,Tue Jan 13 2026 15:01:25 GMT-0500 (Eastern Standard Time),170815.0,CFD-WM-011-006-HC.jpg,1400,solid,I,m,548,7,3,10966.800000190735,159848.19999980927,9023,ATS,B,5
6,test,1,A,haborder.png,1,z,Tue Jan 13 2026 15:01:25 GMT-0500 (Eastern Standard Time),172515.39999961853,CFD-BF-050-012-A.jpg,1200,solid,I,z,477,6,3,12667.199999809265,159848.19999980927,9023,ATS,B,6
7,test,1,A,haborder.png,1,z,Tue Jan 13 2026 15:01:25 GMT-0500 (Eastern Standard Time),174198.0,CFD-WF-013-015-A.jpg,1000,solid,I,z,640,12,3,14349.800000190735,159848.19999980927,9023,ATS,B,7
8,test,1,A,haborder.png,1,m,Tue Jan 13 2026 15:01:25 GMT-0500 (Eastern Standard Time),177332.0999994278,CFD-BF-035-007-HC.jpg,2000,solid,I,m,1110,5,3,17483.89999961853,159848.19999980927,9023,ATS,B,8
9,test,1,A,haborder.png,1,m,Tue Jan 13 2026 15:01:25 GMT-0500 (Eastern Standard Time),179698.5999994278,CFD-WM-012-007-HC.jpg,1700,solid,I,m,645,9,3,19850.39999961853,159848.19999980927,9023,ATS,B,9
10,test,1,A,haborder.png,1,m,Tue Jan 13 2026 15:01:25 GMT-0500 (Eastern Standard Time),182081.89999961853,CFD-BM-015-017-HC.jpg,1700,solid,I,m,645,1,3,22233.699999809265,159848.19999980927,9023,ATS,B,10
11,test,1,A,haborder.png,1,m,Tue Jan 13 2026 15:01:25 GMT-0500 (Eastern Standard Time),184232.0,CFD-WF-011-006-HC.jpg,1500,solid,I,m,623,11,3,24383.800000190735,159848.19999980927,9023,ATS,B,11
12,test,1,A,haborder.png,1,m,Tue Jan 13 2026 15:01:25 GMT-0500 (Eastern Standard Time),186632.0,CFD-BM-015-017-HC.jpg,1700,solid,I,m,672,1,3,26783.800000190735,159848.19999980927,9023,ATS,B,12
13,test,1,A,haborder.png,1,m,Tue Jan 13 2026 15:01:25 GMT-0500 (Eastern Standard Time),189115.39999961853,CFD-WM-012-007-HC.jpg,1700,solid,I,m,753,9,3,29267.199999809265,159848.19999980927,9023,ATS,B,13
14,test,1,A,haborder.png,1,m,Tue Jan 13 2026 15:01:25 GMT-0500 (Eastern Standard Time),191215.0,CFD-BM-020-024-HC.jpg,1500,solid,I,m,565,3,3,31366.800000190735,159848.19999980927,9023,ATS,B,14
15,test,1,A,haborder.png,1,m,Tue Jan 13 2026 15:01:25 GMT-0500 (Eastern Standard Time),193248.5,CFD-WM-011-006-HC.jpg,1400,solid,I,m,613,7,3,33400.300000190735,159848.19999980927,9023,ATS,B,15
16,test,1,A,haborder.png,1,m,Tue Jan 13 2026 15:01:25 GMT-0500 (Eastern Standard Time),195348.69999980927,CFD-WF-011-006-HC.jpg,1500,solid,I,m,559,11,3,35500.5,159848.19999980927,9023,ATS,B,16
17,test,1,A,haborder.png,1,z,Tue Jan 13 2026 15:01:25 GMT-0500 (Eastern Standard Time),197515.39999961853,CFD-BM-037-041-A.jpg,1600,solid,I,z,536,2,3,37667.199999809265,159848.19999980927,9023,ATS,B,17
18,test,1,A,haborder.png,1,m,Tue Jan 13 2026 15:01:25 GMT-0500 (Eastern Standard Time),200232.0999994278,CFD-BF-035-007-HC.jpg,2000,solid,I,m,689,5,3,40383.89999961853,159848.19999980927,9023,ATS,B,18
19,test,1,A,haborder.png,1,z,Tue Jan 13 2026 15:01:25 GMT-0500 (Eastern Standard Time),202098.69999980927,CFD-BF-051-043-A.jpg,1000,solid,I,z,845,4,3,42250.5,159848.19999980927,9023,ATS,B,19
20,test,1,A,haborder.png,1,z,Tue Jan 13 2026 15:01:25 GMT-0500 (Eastern Standard Time),204815.0,CFD-WM-009-009-A.jpg,1900,solid,I,z,798,8,3,44966.800000190735,159848.19999980927,9023,ATS,B,20
21,test,1,A,haborder.png,1,z,Tue Jan 13 2026 15:01:25 GMT-0500 (Eastern Standard Time),206715.29999923706,CFD-WF-013-015-A.jpg,1000,solid,I,z,869,12,3,46867.099999427795,159848.19999980927,9023,ATS,B,21
22,test,1,A,haborder.png,1,z,Tue Jan 13 2026 15:01:25 GMT-0500 (Eastern Standard Time),208648.69999980927,CFD-BF-050-012-A.jpg,1200,solid,I,z,688,6,3,48800.5,159848.19999980927,9023,ATS,B,22
23,test,1,A,haborder.png,1,z,Tue Jan 13 2026 15:01:25 GMT-0500 (Eastern Standard Time),211032.0,CFD-WF-026-008-A.jpg,1600,solid,I,z,756,10,3,51183.800000190735,159848.19999980927,9023,ATS,B,23
24,test,1,A,haborder.png,1,z,Tue Jan 13 2026 15:01:25 GMT-0500 (Eastern Standard Time),212798.29999923706,CFD-BF-051-043-A.jpg,1000,solid,I,z,749,4,3,52950.099999427795,159848.19999980927,9023,ATS,B,24
1,test,1,B,mfborder.png,1,m,Tue Jan 13 2026 15:01:25 GMT-0500 (Eastern Standard Time),230398.29999923706,CFD-WM-009-009-A.jpg,1700,dash,I,m,598,9,3,2316.0999994277954,228082.19999980927,9023,ATS,B,1
2,test,1,B,mfborder.png,1,z,Tue Jan 13 2026 15:01:25 GMT-0500 (Eastern Standard Time),233182.0,CFD-WF-027-007-HC.jpg,1900,dash,I,z,867,8,3,5099.800000190735,228082.19999980927,9023,ATS,B,2
3,test,1,B,mfborder.png,1,m,Tue Jan 13 2026 15:01:25 GMT-0500 (Eastern Standard Time),235682.0,CFD-BM-020-024-HC.jpg,1700,dash,I,m,778,1,3,7599.800000190735,228082.19999980927,9023,ATS,B,3
4,test,1,B,mfborder.png,1,z,Tue Jan 13 2026 15:01:25 GMT-0500 (Eastern Standard Time),238298.5999994278,CFD-WF-026-008-A.jpg,1500,dash,I,z,1086,11,3,10216.39999961853,228082.19999980927,9023,ATS,B,4
5,test,1,B,mfborder.png,1,m,Tue Jan 13 2026 15:01:25 GMT-0500 (Eastern Standard Time),240698.69999980927,CFD-WM-009-009-A.jpg,1700,dash,I,m,670,9,3,12616.5,228082.19999980927,9023,ATS,B,5
6,test,1,B,mfborder.png,1,m,Tue Jan 13 2026 15:01:25 GMT-0500 (Eastern Standard Time),242765.39999961853,CFD-WM-037-060-A.jpg,1200,dash,I,m,817,6,3,14683.199999809265,228082.19999980927,9023,ATS,B,6
7,test,1,B,mfborder.png,1,z,Tue Jan 13 2026 15:01:25 GMT-0500 (Eastern Standard Time),244531.89999961853,CFD-WF-011-006-HC.jpg,1000,dash,I,z,743,12,3,16449.699999809265,228082.19999980927,9023,ATS,B,7
8,test,1,B,mfborder.png,1,m,Tue Jan 13 2026 15:01:25 GMT-0500 (Eastern Standard Time),246965.29999923706,CFD-BM-041-048-A.jpg,1600,dash,I,m,792,2,3,18883.099999427795,228082.19999980927,9023,ATS,B,8
9,test,1,B,mfborder.png,1,z,Tue Jan 13 2026 15:01:25 GMT-0500 (Eastern Standard Time),248915.29999923706,CFD-BF-051-043-A.jpg,1000,dash,I,z,927,4,3,20833.099999427795,228082.19999980927,9023,ATS,B,9
10,test,1,B,mfborder.png,1,z,Tue Jan 13 2026 15:01:25 GMT-0500 (Eastern Standard Time),251198.5,CFD-BF-027-013-HC.jpg,1500,dash,I,z,748,3,3,23116.300000190735,228082.19999980927,9023,ATS,B,10
11,test,1,B,mfborder.png,1,m,Tue Jan 13 2026 15:01:25 GMT-0500 (Eastern Standard Time),253798.5999994278,CFD-WM-012-007-HC.jpg,1600,dash,I,m,974,10,3,25716.39999961853,228082.19999980927,9023,ATS,B,11
12,test,1,B,mfborder.png,1,z,Tue Jan 13 2026 15:01:25 GMT-0500 (Eastern Standard Time),255582.0,CFD-BF-051-043-A.jpg,1000,dash,I,z,766,4,3,27499.800000190735,228082.19999980927,9023,ATS,B,12
13,test,1,B,mfborder.png,1,m,Tue Jan 13 2026 15:01:25 GMT-0500 (Eastern Standard Time),258365.29999923706,CFD-BM-037-041-A.jpg,2000,dash,I,m,750,5,3,30283.099999427795,228082.19999980927,9023,ATS,B,13
14,test,1,B,mfborder.png,1,m,Tue Jan 13 2026 15:01:25 GMT-0500 (Eastern Standard Time),260748.5999994278,CFD-WM-012-007-HC.jpg,1600,dash,I,m,750,10,3,32666.39999961853,228082.19999980927,9023,ATS,B,14
15,test,1,B,mfborder.png,1,m,Tue Jan 13 2026 15:01:25 GMT-0500 (Eastern Standard Time),263498.5,CFD-BM-037-041-A.jpg,2000,dash,I,m,703,5,3,35416.300000190735,228082.19999980927,9023,ATS,B,15
16,test,1,B,mfborder.png,1,m,Tue Jan 13 2026 15:01:25 GMT-0500 (Eastern Standard Time),265565.19999980927,CFD-WM-037-060-A.jpg,1200,dash,I,m,833,6,3,37483.0,228082.19999980927,9023,ATS,B,16
17,test,1,B,mfborder.png,1,m,Tue Jan 13 2026 15:01:25 GMT-0500 (Eastern Standard Time),267898.5999994278,CFD-BM-020-024-HC.jpg,1700,dash,I,m,603,1,3,39816.39999961853,228082.19999980927,9023,ATS,B,17
18,test,1,B,mfborder.png,1,z,Tue Jan 13 2026 15:01:25 GMT-0500 (Eastern Standard Time),270431.69999980927,CFD-WF-027-007-HC.jpg,1900,dash,I,z,614,8,3,42349.5,228082.19999980927,9023,ATS,B,18
19,test,1,B,mfborder.png,1,z,Tue Jan 13 2026 15:01:25 GMT-0500 (Eastern Standard Time),272615.19999980927,CFD-BF-027-013-HC.jpg,1500,dash,I,z,656,3,3,44533.0,228082.19999980927,9023,ATS,B,19
20,test,1,B,mfborder.png,1,z,Tue Jan 13 2026 15:01:25 GMT-0500 (Eastern Standard Time),274348.5999994278,CFD-WF-011-006-HC.jpg,1000,dash,I,z,700,12,3,46266.39999961853,228082.19999980927,9023,ATS,B,20
21,test,1,B,mfborder.png,1,z,Tue Jan 13 2026 15:01:25 GMT-0500 (Eastern Standard Time),277265.29999923706,CFD-WF-026-008-A.jpg,1500,dash,I,z,1379,11,3,49183.099999427795,228082.19999980927,9023,ATS,B,21
22,test,1,B,mfborder.png,1,m,Tue Jan 13 2026 15:01:25 GMT-0500 (Eastern Standard Time),279548.69999980927,CFD-BM-041-048-A.jpg,1600,dash,I,m,650,2,3,51466.5,228082.19999980927,9023,ATS,B,22
23,test,1,B,mfborder.png,1,z,Tue Jan 13 2026 15:01:25 GMT-0500 (Eastern Standard Time),281948.5,CFD-BF-035-007-HC.jpg,1400,dash,I,z,967,7,3,53866.300000190735,228082.19999980927,9023,ATS,B,23
24,test,1,B,mfborder.png,1,z,Tue Jan 13 2026 15:01:25 GMT-0500 (Eastern Standard Time),283965.29999923706,CFD-BF-035-007-HC.jpg,1400,dash,I,z,567,7,3,55883.099999427795,228082.19999980927,9023,ATS,B,24
1,8,1,C,haborder.png,1,z,Tue Jan 13 2026 15:01:25 GMT-0500 (Eastern Standard Time),429932.0,CFD-BF-050-012-A.jpg,1700,solid,I,z,1450,prac,3,3966.800000190735,425965.19999980927,9023,ATS,B,1
1,4,1,C,mfborder.png,0,m,Tue Jan 13 2026 15:01:25 GMT-0500 (Eastern Standard Time),434248.5,CFD-BM-015-017-HC.jpg,2000,solid,I,None,1516,prac,3,8283.300000190735,425965.19999980927,9023,ATS,B,2
2,9,1,C,haborder.png,1,z,Tue Jan 13 2026 15:01:25 GMT-0500 (Eastern Standard Time),437832.0,CFD-WF-026-008-A.jpg,1600,dash,I,z,1172,prac,3,11866.800000190735,425965.19999980927,9023,ATS,B,3
3,1,1,C,mfborder.png,1,z,Tue Jan 13 2026 15:01:25 GMT-0500 (Eastern Standard Time),441315.29999923706,CFD-WF-011-006-HC.jpg,1600,dash,I,z,1075,prac,3,15350.099999427795,425965.19999980927,9023,ATS,B,4
4,3,1,C,mfborder.png,1,z,Tue Jan 13 2026 15:01:25 GMT-0500 (Eastern Standard Time),443998.5999994278,CFD-BF-035-007-HC.jpg,1000,dash,I,z,880,prac,3,18033.39999961853,425965.19999980927,9023,ATS,B,5
5,11,1,C,haborder.png,1,m,Tue Jan 13 2026 15:01:25 GMT-0500 (Eastern Standard Time),447148.5,CFD-WM-011-006-HC.jpg,1000,dash,I,m,1334,prac,3,21183.300000190735,425965.19999980927,9023,ATS,B,6
5,6,1,C,mfborder.png,0,m,Tue Jan 13 2026 15:01:25 GMT-0500 (Eastern Standard Time),451115.19999980927,CFD-WM-009-009-A.jpg,1700,solid,I,z,1451,prac,3,25150.0,425965.19999980927,9023,ATS,B,7
6,12,1,C,haborder.png,1,m,Tue Jan 13 2026 15:01:25 GMT-0500 (Eastern Standard Time),454281.79999923706,CFD-WM-011-006-HC.jpg,1400,solid,I,m,952,prac,3,28316.599999427795,425965.19999980927,9023,ATS,B,8
6,5,1,C,mfborder.png,0,m,Tue Jan 13 2026 15:01:25 GMT-0500 (Eastern Standard Time),457365.19999980927,CFD-BM-037-041-A.jpg,1200,dash,I,z,1073,prac,3,31400.0,425965.19999980927,9023,ATS,B,9
7,7,1,C,haborder.png,1,z,Tue Jan 13 2026 15:01:25 GMT-0500 (Eastern Standard Time),461131.89999961853,CFD-BF-051-043-A.jpg,1900,dash,I,z,1051,prac,3,35166.699999809265,425965.19999980927,9023,ATS,B,10
7,2,1,C,mfborder.png,0,z,Tue Jan 13 2026 15:01:25 GMT-0500 (Eastern Standard Time),464948.39999961853,CFD-WF-013-015-A.jpg,1500,solid,I,None,1516,prac,3,38983.199999809265,425965.19999980927,9023,ATS,B,11
8,10,1,C,haborder.png,1,m,Tue Jan 13 2026 15:01:25 GMT-0500 (Eastern Standard Time),468415.0999994278,CFD-BM-020-024-HC.jpg,1500,solid,I,m,1163,prac,3,42449.89999961853,425965.19999980927,9023,ATS,B,12
1,test,1,C,mfborder.png,1,z,Tue Jan 13 2026 15:01:25 GMT-0500 (Eastern Standard Time),490698.39999961853,CFD-WF-026-008-A.jpg,1500,dash,I,z,1203,3,3,2733.300000190735,487965.0999994278,9023,ATS,B,1
2,test,1,C,haborder.png,1,m,Tue Jan 13 2026 15:01:25 GMT-0500 (Eastern Standard Time),492892.39999961853,CFD-WF-011-006-HC.jpg,1000,solid,I,m,1161,12,3,4927.300000190735,487965.0999994278,9023,ATS,B,2
3,test,1,C,mfborder.png,1,z,Tue Jan 13 2026 15:01:25 GMT-0500 (Eastern Standard Time),495865.0999994278,CFD-BF-027-013-HC.jpg,1700,dash,I,z,1237,1,3,7900.0,487965.0999994278,9023,ATS,B,3
4,test,1,C,haborder.png,1,z,Tue Jan 13 2026 15:01:25 GMT-0500 (Eastern Standard Time),499265.0,CFD-BM-037-041-A.jpg,1900,solid,I,z,1480,8,3,11299.900000572205,487965.0999994278,9023,ATS,B,4
4,test,1,C,haborder.png,0,m,Tue Jan 13 2026 15:01:25 GMT-0500 (Eastern Standard Time),502308.5999994278,CFD-WF-027-007-HC.jpg,1500,solid,I,None,1516,11,3,14343.5,487965.0999994278,9023,ATS,B,5
5,test,1,C,haborder.png,1,m,Tue Jan 13 2026 15:01:25 GMT-0500 (Eastern Standard Time),504481.69999980927,CFD-BF-035-007-HC.jpg,1600,solid,I,m,545,10,3,16516.60000038147,487965.0999994278,9023,ATS,B,6
6,test,1,C,haborder.png,1,z,Tue Jan 13 2026 15:01:25 GMT-0500 (Eastern Standard Time),507631.5999994278,CFD-BM-037-041-A.jpg,1900,solid,I,z,1230,8,3,19666.5,487965.0999994278,9023,ATS,B,7
7,test,1,C,mfborder.png,1,m,Tue Jan 13 2026 15:01:25 GMT-0500 (Eastern Standard Time),510081.5999994278,CFD-BM-020-024-HC.jpg,1200,dash,I,m,1212,6,3,22116.5,487965.0999994278,9023,ATS,B,8
8,test,1,C,haborder.png,1,m,Tue Jan 13 2026 15:01:25 GMT-0500 (Eastern Standard Time),512298.19999980927,CFD-WF-011-006-HC.jpg,1000,solid,I,m,1186,12,3,24333.10000038147,487965.0999994278,9023,ATS,B,9
9,test,1,C,mfborder.png,1,m,Tue Jan 13 2026 15:01:25 GMT-0500 (Eastern Standard Time),514631.69999980927,CFD-WM-012-007-HC.jpg,1000,dash,I,m,1305,4,3,26666.60000038147,487965.0999994278,9023,ATS,B,10
10,test,1,C,haborder.png,1,m,Tue Jan 13 2026 15:01:25 GMT-0500 (Eastern Standard Time),517415.0,CFD-WF-027-007-HC.jpg,1500,solid,I,m,1239,11,3,29449.900000572205,487965.0999994278,9023,ATS,B,11
11,test,1,C,haborder.png,1,z,Tue Jan 13 2026 15:01:25 GMT-0500 (Eastern Standard Time),520198.29999923706,CFD-WM-009-009-A.jpg,1400,solid,I,z,1357,7,3,32233.199999809265,487965.0999994278,9023,ATS,B,12
11,test,1,C,mfborder.png,0,z,Tue Jan 13 2026 15:01:25 GMT-0500 (Eastern Standard Time),523348.5,CFD-BF-051-043-A.jpg,1600,dash,I,None,1516,2,3,35383.400000572205,487965.0999994278,9023,ATS,B,13
12,test,1,C,haborder.png,1,m,Tue Jan 13 2026 15:01:25 GMT-0500 (Eastern Standard Time),526331.5999994278,CFD-BF-035-007-HC.jpg,1600,solid,I,m,1335,10,3,38366.5,487965.0999994278,9023,ATS,B,14
12,test,1,C,mfborder.png,0,z,Tue Jan 13 2026 15:01:25 GMT-0500 (Eastern Standard Time),529414.8999996185,CFD-BF-051-043-A.jpg,1600,dash,I,m,1456,2,3,41449.800000190735,487965.0999994278,9023,ATS,B,15
12,test,1,C,mfborder.png,0,z,Tue Jan 13 2026 15:01:25 GMT-0500 (Eastern Standard Time),532481.5999994278,CFD-BF-027-013-HC.jpg,1700,dash,I,m,1329,1,3,44516.5,487965.0999994278,9023,ATS,B,16
13,test,1,C,mfborder.png,1,m,Tue Jan 13 2026 15:01:25 GMT-0500 (Eastern Standard Time),535764.8999996185,CFD-WM-037-060-A.jpg,2000,dash,I,m,1258,5,3,47799.800000190735,487965.0999994278,9023,ATS,B,17
13,test,1,C,haborder.png,0,z,Tue Jan 13 2026 15:01:25 GMT-0500 (Eastern Standard Time),538698.2999992371,CFD-WM-009-009-A.jpg,1400,solid,I,None,1516,7,3,50733.199999809265,487965.0999994278,9023,ATS,B,18
14,test,1,C,mfborder.png,1,m,Tue Jan 13 2026 15:01:25 GMT-0500 (Eastern Standard Time),540931.5999994278,CFD-WM-012-007-HC.jpg,1000,dash,I,m,1193,4,3,52966.5,487965.0999994278,9023,ATS,B,19
15,test,1,C,haborder.png,1,z,Tue Jan 13 2026 15:01:25 GMT-0500 (Eastern Standard Time),543798.1999998093,CFD-BM-041-048-A.jpg,1700,solid,I,z,1141,9,3,55833.10000038147,487965.0999994278,9023,ATS,B,20
16,test,1,C,haborder.png,1,z,Tue Jan 13 2026 15:01:25 GMT-0500 (Eastern Standard Time),546531.6999998093,CFD-BM-041-048-A.jpg,1700,solid,I,z,1010,9,3,58566.60000038147,487965.0999994278,9023,ATS,B,21
16,test,1,C,mfborder.png,0,z,Tue Jan 13 2026 15:01:25 GMT-0500 (Eastern Standard Time),549581.7999992371,CFD-WF-026-008-A.jpg,1500,dash,I,None,1516,3,3,61616.699999809265,487965.0999994278,9023,ATS,B,22
17,test,1,C,mfborder.png,1,m,Tue Jan 13 2026 15:01:25 GMT-0500 (Eastern Standard Time),552848.0999994278,CFD-WM-037-060-A.jpg,2000,dash,I,m,1246,5,3,64883.0,487965.0999994278,9023,ATS,B,23
18,test,1,C,mfborder.png,1,m,Tue Jan 13 2026 15:01:25 GMT-0500 (Eastern Standard Time),555498.2999992371,CFD-BM-020-024-HC.jpg,1200,dash,I,m,1421,6,3,67533.19999980927,487965.0999994278,9023,ATS,B,24
1,test,2,C,haborder.png,1,m,Tue Jan 13 2026 15:01:25 GMT-0500 (Eastern Standard Time),567065.0999994278,CFD-WM-011-006-HC.jpg,1500,solid,I,m,1072,11,3,2600.0999994277954,564465.0,9023,ATS,B,1
2,test,2,C,haborder.png,1,m,Tue Jan 13 2026 15:01:25 GMT-0500 (Eastern Standard Time),568814.7999992371,CFD-WM-011-006-HC.jpg,1000,solid,I,m,714,12,3,4349.799999237061,564465.0,9023,ATS,B,2
3,test,2,C,mfborder.png,1,z,Tue Jan 13 2026 15:01:25 GMT-0500 (Eastern Standard Time),571714.8999996185,CFD-WF-013-015-A.jpg,1600,dash,I,z,1277,2,3,7249.89999961853,564465.0,9023,ATS,B,3
3,test,2,C,haborder.png,0,z,Tue Jan 13 2026 15:01:25 GMT-0500 (Eastern Standard Time),575014.8999996185,CFD-BF-050-012-A.jpg,1900,solid,I,m,1374,8,3,10549.89999961853,564465.0,9023,ATS,B,4
4,test,2,C,mfborder.png,1,z,Tue Jan 13 2026 15:01:25 GMT-0500 (Eastern Standard Time),578114.8999996185,CFD-WF-011-006-HC.jpg,1700,dash,I,z,1378,1,3,13649.89999961853,564465.0,9023,ATS,B,5
5,test,2,C,mfborder.png,1,m,Tue Jan 13 2026 15:01:25 GMT-0500 (Eastern Standard Time),580931.6999998093,CFD-BM-037-041-A.jpg,2000,dash,I,m,793,5,3,16466.699999809265,564465.0,9023,ATS,B,6
6,test,2,C,mfborder.png,1,z,Tue Jan 13 2026 15:01:25 GMT-0500 (Eastern Standard Time),583564.8999996185,CFD-BF-035-007-HC.jpg,1500,dash,I,z,1100,3,3,19099.89999961853,564465.0,9023,ATS,B,7
7,test,2,C,haborder.png,1,z,Tue Jan 13 2026 15:01:25 GMT-0500 (Eastern Standard Time),586348.1999998093,CFD-WF-026-008-A.jpg,1700,solid,I,z,1050,9,3,21883.199999809265,564465.0,9023,ATS,B,8
8,test,2,C,mfborder.png,1,z,Tue Jan 13 2026 15:01:25 GMT-0500 (Eastern Standard Time),588831.2999992371,CFD-BF-035-007-HC.jpg,1500,dash,I,z,964,3,3,24366.29999923706,564465.0,9023,ATS,B,9
9,test,2,C,haborder.png,1,m,Tue Jan 13 2026 15:01:25 GMT-0500 (Eastern Standard Time),591181.2999992371,CFD-WM-011-006-HC.jpg,1500,solid,I,m,799,11,3,26716.29999923706,564465.0,9023,ATS,B,10
10,test,2,C,haborder.png,1,z,Tue Jan 13 2026 15:01:25 GMT-0500 (Eastern Standard Time),593881.5999994278,CFD-BF-051-043-A.jpg,1400,solid,I,z,1270,7,3,29416.599999427795,564465.0,9023,ATS,B,11
11,test,2,C,haborder.png,1,m,Tue Jan 13 2026 15:01:25 GMT-0500 (Eastern Standard Time),596298.2999992371,CFD-WM-011-006-HC.jpg,1000,solid,I,m,1369,12,3,31833.29999923706,564465.0,9023,ATS,B,12
12,test,2,C,mfborder.png,1,z,Tue Jan 13 2026 15:01:25 GMT-0500 (Eastern Standard Time),599331.5999994278,CFD-WF-011-006-HC.jpg,1700,dash,I,z,1311,1,3,34866.599999427795,564465.0,9023,ATS,B,13
13,test,2,C,haborder.png,1,m,Tue Jan 13 2026 15:01:25 GMT-0500 (Eastern Standard Time),602064.7999992371,CFD-BM-020-024-HC.jpg,1600,solid,I,m,1111,10,3,37599.79999923706,564465.0,9023,ATS,B,14
14,test,2,C,mfborder.png,1,m,Tue Jan 13 2026 15:01:25 GMT-0500 (Eastern Standard Time),604298.1999998093,CFD-BM-015-017-HC.jpg,1000,dash,I,m,1204,4,3,39833.199999809265,564465.0,9023,ATS,B,15
15,test,2,C,haborder.png,1,m,Tue Jan 13 2026 15:01:25 GMT-0500 (Eastern Standard Time),607231.3999996185,CFD-BM-020-024-HC.jpg,1600,solid,I,m,1314,10,3,42766.39999961853,564465.0,9023,ATS,B,16
16,test,2,C,haborder.png,1,z,Tue Jan 13 2026 15:01:25 GMT-0500 (Eastern Standard Time),610298.2999992371,CFD-WF-026-008-A.jpg,1700,solid,I,z,1337,9,3,45833.29999923706,564465.0,9023,ATS,B,17
17,test,2,C,mfborder.png,1,m,Tue Jan 13 2026 15:01:25 GMT-0500 (Eastern Standard Time),612681.5,CFD-BM-015-017-HC.jpg,1000,dash,I,m,1354,4,3,48216.5,564465.0,9023,ATS,B,18
17,test,2,C,mfborder.png,0,m,Tue Jan 13 2026 15:01:25 GMT-0500 (Eastern Standard Time),615431.6999998093,CFD-WM-009-009-A.jpg,1200,dash,I,None,1516,6,3,50966.699999809265,564465.0,9023,ATS,B,19
18,test,2,C,haborder.png,1,z,Tue Jan 13 2026 15:01:25 GMT-0500 (Eastern Standard Time),618464.5999994278,CFD-BF-050-012-A.jpg,1900,solid,I,z,1112,8,3,53999.599999427795,564465.0,9023,ATS,B,20
18,test,2,C,mfborder.png,0,z,Tue Jan 13 2026 15:01:25 GMT-0500 (Eastern Standard Time),621581.6999998093,CFD-WF-013-015-A.jpg,1600,dash,I,None,1501,2,3,57116.699999809265,564465.0,9023,ATS,B,21
18,test,2,C,mfborder.png,0,m,Tue Jan 13 2026 15:01:25 GMT-0500 (Eastern Standard Time),623798.0,CFD-WM-009-009-A.jpg,1200,dash,I,z,990,6,3,59333.0,564465.0,9023,ATS,B,22
19,test,2,C,haborder.png,1,z,Tue Jan 13 2026 15:01:25 GMT-0500 (Eastern Standard Time),626314.7999992371,CFD-BF-051-043-A.jpg,1400,solid,I,z,1069,7,3,61849.79999923706,564465.0,9023,ATS,B,23
19,test,2,C,mfborder.png,0,m,Tue Jan 13 2026 15:01:25 GMT-0500 (Eastern Standard Time),629848.2999992371,CFD-BM-037-041-A.jpg,2000,dash,I,None,1516,5,3,65383.29999923706,564465.0,9023,ATS,B,24
1,test,3,C,mfborder.png,1,z,Tue Jan 13 2026 15:01:25 GMT-0500 (Eastern Standard Time),636381.6999998093,CFD-WF-026-008-A.jpg,1500,dash,I,z,983,3,3,2516.699999809265,633865.0,9023,ATS,B,1
2,test,3,C,mfborder.png,1,m,Tue Jan 13 2026 15:01:25 GMT-0500 (Eastern Standard Time),638348.1999998093,CFD-BM-020-024-HC.jpg,1200,dash,I,m,718,6,3,4483.199999809265,633865.0,9023,ATS,B,2
3,test,3,C,mfborder.png,1,m,Tue Jan 13 2026 15:01:25 GMT-0500 (Eastern Standard Time),641298.0999994278,CFD-WM-037-060-A.jpg,2000,dash,I,m,928,5,3,7433.099999427795,633865.0,9023,ATS,B,3
4,test,3,C,mfborder.png,1,m,Tue Jan 13 2026 15:01:25 GMT-0500 (Eastern Standard Time),643548.0999994278,CFD-BM-020-024-HC.jpg,1200,dash,I,m,1018,6,3,9683.099999427795,633865.0,9023,ATS,B,4
4,test,3,C,haborder.png,0,m,Tue Jan 13 2026 15:01:25 GMT-0500 (Eastern Standard Time),645981.5,CFD-BF-035-007-HC.jpg,1600,solid,I,z,801,10,3,12116.5,633865.0,9023,ATS,B,5
5,test,3,C,mfborder.png,1,m,Tue Jan 13 2026 15:01:25 GMT-0500 (Eastern Standard Time),649464.7999992371,CFD-WM-037-060-A.jpg,2000,dash,I,m,1438,5,3,15599.79999923706,633865.0,9023,ATS,B,6
6,test,3,C,mfborder.png,1,m,Tue Jan 13 2026 15:01:25 GMT-0500 (Eastern Standard Time),651398.0999994278,CFD-WM-012-007-HC.jpg,1000,dash,I,m,907,4,3,17533.099999427795,633865.0,9023,ATS,B,7
7,test,3,C,haborder.png,1,m,Tue Jan 13 2026 15:01:25 GMT-0500 (Eastern Standard Time),653531.5999994278,CFD-WF-011-006-HC.jpg,1000,solid,I,m,1102,12,3,19666.599999427795,633865.0,9023,ATS,B,8
8,test,3,C,mfborder.png,1,z,Tue Jan 13 2026 15:01:25 GMT-0500 (Eastern Standard Time),656481.3999996185,CFD-BF-051-043-A.jpg,1600,dash,I,z,1313,2,3,22616.39999961853,633865.0,9023,ATS,B,9
8,test,3,C,haborder.png,0,z,Tue Jan 13 2026 15:01:25 GMT-0500 (Eastern Standard Time),659731.3999996185,CFD-BM-037-041-A.jpg,1900,solid,I,m,1326,8,3,25866.39999961853,633865.0,9023,ATS,B,10
8,test,3,C,mfborder.png,0,z,Tue Jan 13 2026 15:01:25 GMT-0500 (Eastern Standard Time),662881.6999998093,CFD-BF-051-043-A.jpg,1600,dash,I,None,1515,2,3,29016.699999809265,633865.0,9023,ATS,B,11
8,test,3,C,haborder.png,0,z,Tue Jan 13 2026 15:01:25 GMT-0500 (Eastern Standard Time),665831.5,CFD-BM-041-048-A.jpg,1700,solid,I,m,1222,9,3,31966.5,633865.0,9023,ATS,B,12
8,test,3,C,haborder.png,0,m,Tue Jan 13 2026 15:01:25 GMT-0500 (Eastern Standard Time),668364.8999996185,CFD-WF-011-006-HC.jpg,1000,solid,I,None,1516,12,3,34499.89999961853,633865.0,9023,ATS,B,13
9,test,3,C,mfborder.png,1,z,Tue Jan 13 2026 15:01:25 GMT-0500 (Eastern Standard Time),670864.6999998093,CFD-WF-026-008-A.jpg,1500,dash,I,z,962,3,3,36999.699999809265,633865.0,9023,ATS,B,14
10,test,3,C,mfborder.png,1,m,Tue Jan 13 2026 15:01:25 GMT-0500 (Eastern Standard Time),672764.7999992371,CFD-WM-012-007-HC.jpg,1000,dash,I,m,867,4,3,38899.79999923706,633865.0,9023,ATS,B,15
10,test,3,C,haborder.png,0,z,Tue Jan 13 2026 15:01:25 GMT-0500 (Eastern Standard Time),676064.6999998093,CFD-BM-037-041-A.jpg,1900,solid,I,m,1379,8,3,42199.699999809265,633865.0,9023,ATS,B,16
11,test,3,C,haborder.png,1,m,Tue Jan 13 2026 15:01:25 GMT-0500 (Eastern Standard Time),678581.2999992371,CFD-WF-027-007-HC.jpg,1500,solid,I,m,992,11,3,44716.29999923706,633865.0,9023,ATS,B,17
12,test,3,C,haborder.png,1,m,Tue Jan 13 2026 15:01:25 GMT-0500 (Eastern Standard Time),681181.5,CFD-BF-035-007-HC.jpg,1600,solid,I,m,966,10,3,47316.5,633865.0,9023,ATS,B,18
13,test,3,C,haborder.png,1,m,Tue Jan 13 2026 15:01:25 GMT-0500 (Eastern Standard Time),683398.0999994278,CFD-WF-027-007-HC.jpg,1500,solid,I,m,674,11,3,49533.099999427795,633865.0,9023,ATS,B,19
14,test,3,C,haborder.png,1,z,Tue Jan 13 2026 15:01:25 GMT-0500 (Eastern Standard Time),686014.5999994278,CFD-BM-041-048-A.jpg,1700,solid,I,z,898,9,3,52149.599999427795,633865.0,9023,ATS,B,20
15,test,3,C,mfborder.png,1,z,Tue Jan 13 2026 15:01:25 GMT-0500 (Eastern Standard Time),688964.6999998093,CFD-BF-027-013-HC.jpg,1700,dash,I,z,1209,1,3,55099.699999809265,633865.0,9023,ATS,B,21
15,test,3,C,haborder.png,0,z,Tue Jan 13 2026 15:01:25 GMT-0500 (Eastern Standard Time),691748.1999998093,CFD-WM-009-009-A.jpg,1400,solid,I,m,1359,7,3,57883.199999809265,633865.0,9023,ATS,B,22
15,test,3,C,mfborder.png,0,z,Tue Jan 13 2026 15:01:25 GMT-0500 (Eastern Standard Time),694931.3999996185,CFD-BF-027-013-HC.jpg,1700,dash,I,m,1460,1,3,61066.39999961853,633865.0,9023,ATS,B,23
15,test,3,C,haborder.png,0,z,Tue Jan 13 2026 15:01:25 GMT-0500 (Eastern Standard Time),697814.6999998093,CFD-WM-009-009-A.jpg,1400,solid,I,m,1440,7,3,63949.699999809265,633865.0,9023,ATS,B,24
1,test,4,C,haborder.png,1,z,Tue Jan 13 2026 15:01:25 GMT-0500 (Eastern Standard Time),704831.3999996185,CFD-BF-050-012-A.jpg,1900,solid,I,z,997,8,3,2917.1000003814697,701914.2999992371,9023,ATS,B,1
2,test,4,C,haborder.png,1,m,Tue Jan 13 2026 15:01:25 GMT-0500 (Eastern Standard Time),707414.7999992371,CFD-BM-020-024-HC.jpg,1600,solid,I,m,956,10,3,5500.5,701914.2999992371,9023,ATS,B,2
3,test,4,C,haborder.png,1,m,Tue Jan 13 2026 15:01:25 GMT-0500 (Eastern Standard Time),709898.0999994278,CFD-BM-020-024-HC.jpg,1600,solid,I,m,853,10,3,7983.800000190735,701914.2999992371,9023,ATS,B,3
4,test,4,C,haborder.png,1,z,Tue Jan 13 2026 15:01:25 GMT-0500 (Eastern Standard Time),712864.5999994278,CFD-BF-050-012-A.jpg,1900,solid,I,z,1047,8,3,10950.300000190735,701914.2999992371,9023,ATS,B,4
5,test,4,C,haborder.png,1,z,Tue Jan 13 2026 15:01:25 GMT-0500 (Eastern Standard Time),715381.2999992371,CFD-BF-051-043-A.jpg,1400,solid,I,z,1091,7,3,13467.0,701914.2999992371,9023,ATS,B,5
6,test,4,C,mfborder.png,1,z,Tue Jan 13 2026 15:01:25 GMT-0500 (Eastern Standard Time),718431.1999998093,CFD-WF-013-015-A.jpg,1600,dash,I,z,1414,2,3,16516.900000572205,701914.2999992371,9023,ATS,B,6
7,test,4,C,mfborder.png,1,m,Tue Jan 13 2026 15:01:25 GMT-0500 (Eastern Standard Time),721564.5,CFD-BM-037-041-A.jpg,2000,dash,I,m,1099,5,3,19650.20000076294,701914.2999992371,9023,ATS,B,7
8,test,4,C,mfborder.png,1,z,Tue Jan 13 2026 15:01:25 GMT-0500 (Eastern Standard Time),724214.6999998093,CFD-BF-035-007-HC.jpg,1500,dash,I,z,1107,3,3,22300.400000572205,701914.2999992371,9023,ATS,B,8
9,test,4,C,haborder.png,1,m,Tue Jan 13 2026 15:01:25 GMT-0500 (Eastern Standard Time),726231.3999996185,CFD-WM-011-006-HC.jpg,1000,solid,I,m,989,12,3,24317.10000038147,701914.2999992371,9023,ATS,B,9
10,test,4,C,haborder.png,1,z,Tue Jan 13 2026 15:01:25 GMT-0500 (Eastern Standard Time),728714.6999998093,CFD-BF-051-043-A.jpg,1400,solid,I,z,1052,7,3,26800.400000572205,701914.2999992371,9023,ATS,B,10
11,test,4,C,mfborder.png,1,m,Tue Jan 13 2026 15:01:25 GMT-0500 (Eastern Standard Time),731098.0999994278,CFD-WM-009-009-A.jpg,1200,dash,I,m,1136,6,3,29183.800000190735,701914.2999992371,9023,ATS,B,11
12,test,4,C,haborder.png,1,m,Tue Jan 13 2026 15:01:25 GMT-0500 (Eastern Standard Time),733531.3999996185,CFD-WM-011-006-HC.jpg,1500,solid,I,m,902,11,3,31617.10000038147,701914.2999992371,9023,ATS,B,12
13,test,4,C,mfborder.png,1,z,Tue Jan 13 2026 15:01:25 GMT-0500 (Eastern Standard Time),736381.3999996185,CFD-WF-013-015-A.jpg,1600,dash,I,z,1201,2,3,34467.10000038147,701914.2999992371,9023,ATS,B,13
14,test,4,C,mfborder.png,1,z,Tue Jan 13 2026 15:01:25 GMT-0500 (Eastern Standard Time),738931.2999992371,CFD-WF-011-006-HC.jpg,1700,dash,I,z,826,1,3,37017.0,701914.2999992371,9023,ATS,B,14
15,test,4,C,haborder.png,1,m,Tue Jan 13 2026 15:01:25 GMT-0500 (Eastern Standard Time),741231.1999998093,CFD-WM-011-006-HC.jpg,1500,solid,I,m,764,11,3,39316.900000572205,701914.2999992371,9023,ATS,B,15
16,test,4,C,haborder.png,1,z,Tue Jan 13 2026 15:01:25 GMT-0500 (Eastern Standard Time),744047.7999992371,CFD-WF-026-008-A.jpg,1700,solid,I,z,1096,9,3,42133.5,701914.2999992371,9023,ATS,B,16
16,test,4,C,mfborder.png,0,m,Tue Jan 13 2026 15:01:25 GMT-0500 (Eastern Standard Time),746381.2999992371,CFD-BM-015-017-HC.jpg,1000,dash,I,z,1284,4,3,44467.0,701914.2999992371,9023,ATS,B,17
17,test,4,C,mfborder.png,1,m,Tue Jan 13 2026 15:01:25 GMT-0500 (Eastern Standard Time),748498.0,CFD-BM-015-017-HC.jpg,1000,dash,I,m,1094,4,3,46583.70000076294,701914.2999992371,9023,ATS,B,18
18,test,4,C,mfborder.png,1,m,Tue Jan 13 2026 15:01:25 GMT-0500 (Eastern Standard Time),751514.6999998093,CFD-BM-037-041-A.jpg,2000,dash,I,m,986,5,3,49600.400000572205,701914.2999992371,9023,ATS,B,19
19,test,4,C,haborder.png,1,z,Tue Jan 13 2026 15:01:25 GMT-0500 (Eastern Standard Time),754581.3999996185,CFD-WF-026-008-A.jpg,1700,solid,I,z,1324,9,3,52667.10000038147,701914.2999992371,9023,ATS,B,20
20,test,4,C,haborder.png,1,m,Tue Jan 13 2026 15:01:25 GMT-0500 (Eastern Standard Time),756648.0,CFD-WM-011-006-HC.jpg,1000,solid,I,m,1038,12,3,54733.70000076294,701914.2999992371,9023,ATS,B,21
21,test,4,C,mfborder.png,1,z,Tue Jan 13 2026 15:01:25 GMT-0500 (Eastern Standard Time),759098.0999994278,CFD-BF-035-007-HC.jpg,1500,dash,I,z,920,3,3,57183.800000190735,701914.2999992371,9023,ATS,B,22
22,test,4,C,mfborder.png,1,z,Tue Jan 13 2026 15:01:25 GMT-0500 (Eastern Standard Time),761481.3999996185,CFD-WF-011-006-HC.jpg,1700,dash,I,z,654,1,3,59567.10000038147,701914.2999992371,9023,ATS,B,23
23,test,4,C,mfborder.png,1,m,Tue Jan 13 2026 15:01:25 GMT-0500 (Eastern Standard Time),763548.0999994278,CFD-WM-009-009-A.jpg,1200,dash,I,m,834,6,3,61633.800000190735,701914.2999992371,9023,ATS,B,24
