acc_sum,block,block_c,block_cond,con_img,correct,correct_response,datetime,endtime,face,jitter,line,project,response,response_time,row_sel,session_number,start_end,starttime,subject_id,task,task_vers,trial
1,prac,1,A,haborder.png,1,m,Wed Jul 09 2025 16:26:00 GMT-0400 (Eastern Daylight Time),72424.90000000596,CFD-BM-022-004-HC.jpg,1500,solid,I,m,604,3,1,2916.7999999970198,69508.10000000894,9023,ATS,C,1
2,prac,1,A,haborder.png,1,z,Wed Jul 09 2025 16:26:00 GMT-0400 (Eastern Daylight Time),74908.0,CFD-WF-023-013-A.jpg,1000,solid,I,z,667,12,1,5399.899999991059,69508.10000000894,9023,ATS,C,2
3,prac,1,A,haborder.png,1,z,Wed Jul 09 2025 16:26:00 GMT-0400 (Eastern Daylight Time),78258.10000000894,CFD-WM-036-018-A.jpg,1900,solid,I,z,644,8,1,8750.0,69508.10000000894,9023,ATS,C,3
4,prac,1,A,haborder.png,1,z,Wed Jul 09 2025 16:26:00 GMT-0400 (Eastern Daylight Time),80858.10000000894,CFD-BF-002-018-A.jpg,1200,solid,I,z,586,6,1,11350.0,69508.10000000894,9023,ATS,C,4
5,prac,1,A,haborder.png,1,m,Wed Jul 09 2025 16:26:00 GMT-0400 (Eastern Daylight Time),84041.30000001192,CFD-BM-034-035-HC.jpg,1700,solid,I,m,669,1,1,14533.20000000298,69508.10000000894,9023,ATS,C,5
6,prac,1,A,haborder.png,1,m,Wed Jul 09 2025 16:26:00 GMT-0400 (Eastern Daylight Time),87108.0,CFD-WF-013-009-HC.jpg,1500,solid,I,m,758,11,1,17599.89999999106,69508.10000000894,9023,ATS,C,6
7,prac,1,A,haborder.png,1,z,Wed Jul 09 2025 16:26:00 GMT-0400 (Eastern Daylight Time),89524.80000001192,CFD-BF-031-020-A.jpg,1000,solid,I,z,608,4,1,20016.70000000298,69508.10000000894,9023,ATS,C,7
8,prac,1,A,haborder.png,1,m,Wed Jul 09 2025 16:26:00 GMT-0400 (Eastern Daylight Time),93307.80000001192,CFD-BF-019-004-HC.jpg,2000,solid,I,m,967,5,1,23799.70000000298,69508.10000000894,9023,ATS,C,8
9,prac,1,A,haborder.png,1,z,Wed Jul 09 2025 16:26:00 GMT-0400 (Eastern Daylight Time),96508.10000000894,CFD-BM-043-014-A.jpg,1600,solid,I,z,784,2,1,27000.0,69508.10000000894,9023,ATS,C,9
10,prac,1,A,haborder.png,1,m,Wed Jul 09 2025 16:26:00 GMT-0400 (Eastern Daylight Time),99608.0,CFD-WM-028-005-HC.jpg,1400,solid,I,m,888,7,1,30099.89999999106,69508.10000000894,9023,ATS,C,10
11,prac,1,A,haborder.png,1,z,Wed Jul 09 2025 16:26:00 GMT-0400 (Eastern Daylight Time),103108.20000000298,CFD-WF-037-016-A.jpg,1600,solid,I,z,1092,10,1,33600.09999999404,69508.10000000894,9023,ATS,C,11
12,prac,1,A,haborder.png,1,m,Wed Jul 09 2025 16:26:00 GMT-0400 (Eastern Daylight Time),106458.10000000894,CFD-WM-035-036-HC.jpg,1700,solid,I,m,836,9,1,36950.0,69508.10000000894,9023,ATS,C,12
1,prac,1,B,mfborder.png,1,m,Wed Jul 09 2025 16:26:00 GMT-0400 (Eastern Daylight Time),146874.70000000298,CFD-WM-034-040-A.jpg,1200,6,I,m,985,dash,1,2983.7999999970198,143890.90000000596,9023,ATS,C,1
2,prac,1,B,mfborder.png,1,z,Wed Jul 09 2025 16:26:00 GMT-0400 (Eastern Daylight Time),149308.10000000894,CFD-WF-013-009-HC.jpg,1000,12,I,z,617,dash,1,5417.20000000298,143890.90000000596,9023,ATS,C,2
3,prac,1,B,mfborder.png,1,z,Wed Jul 09 2025 16:26:00 GMT-0400 (Eastern Daylight Time),151708.10000000894,CFD-BF-031-020-A.jpg,1000,4,I,z,583,dash,1,7817.20000000298,143890.90000000596,9023,ATS,C,3
4,prac,1,B,mfborder.png,1,z,Wed Jul 09 2025 16:26:00 GMT-0400 (Eastern Daylight Time),154674.70000000298,CFD-BF-019-004-HC.jpg,1400,7,I,z,760,dash,1,10783.79999999702,143890.90000000596,9023,ATS,C,4
5,prac,1,B,mfborder.png,1,m,Wed Jul 09 2025 16:26:00 GMT-0400 (Eastern Daylight Time),158107.90000000596,CFD-WM-036-018-A.jpg,1700,9,I,m,917,dash,1,14217.0,143890.90000000596,9023,ATS,C,5
6,prac,1,B,mfborder.png,1,z,Wed Jul 09 2025 16:26:00 GMT-0400 (Eastern Daylight Time),161758.20000000298,CFD-WF-001-010-HC.jpg,1900,8,I,z,948,dash,1,17867.29999999702,143890.90000000596,9023,ATS,C,6
7,prac,1,B,mfborder.png,1,m,Wed Jul 09 2025 16:26:00 GMT-0400 (Eastern Daylight Time),164958.0,CFD-BM-022-004-HC.jpg,1700,1,I,m,714,dash,1,21067.09999999404,143890.90000000596,9023,ATS,C,7
8,prac,1,B,mfborder.png,1,z,Wed Jul 09 2025 16:26:00 GMT-0400 (Eastern Daylight Time),167974.70000000298,CFD-BF-042-031-HC.jpg,1500,3,I,z,721,dash,1,24083.79999999702,143890.90000000596,9023,ATS,C,8
9,prac,1,B,mfborder.png,1,m,Wed Jul 09 2025 16:26:00 GMT-0400 (Eastern Daylight Time),171358.20000000298,CFD-WM-035-036-HC.jpg,1600,10,I,m,981,dash,1,27467.29999999702,143890.90000000596,9023,ATS,C,9
10,prac,1,B,mfborder.png,1,z,Wed Jul 09 2025 16:26:00 GMT-0400 (Eastern Daylight Time),174508.10000000894,CFD-WF-037-016-A.jpg,1500,11,I,z,850,dash,1,30617.20000000298,143890.90000000596,9023,ATS,C,10
11,prac,1,B,mfborder.png,1,m,Wed Jul 09 2025 16:26:00 GMT-0400 (Eastern Daylight Time),178158.10000000894,CFD-BM-043-014-A.jpg,2000,5,I,m,831,dash,1,34267.20000000298,143890.90000000596,9023,ATS,C,11
12,prac,1,B,mfborder.png,1,m,Wed Jul 09 2025 16:26:00 GMT-0400 (Eastern Daylight Time),181358.0,CFD-BM-021-026-A.jpg,1600,2,I,m,798,dash,1,37467.09999999404,143890.90000000596,9023,ATS,C,12
1,test,1,A,haborder.png,1,m,Wed Jul 09 2025 16:26:00 GMT-0400 (Eastern Daylight Time),204108.10000000894,CFD-WM-028-005-HC.jpg,1400,solid,I,m,635,7,1,2066.7000000029802,202041.40000000596,9023,ATS,C,1
2,test,1,A,haborder.png,1,z,Wed Jul 09 2025 16:26:00 GMT-0400 (Eastern Daylight Time),205741.30000001192,CFD-BF-031-020-A.jpg,1000,solid,I,z,584,4,1,3699.9000000059605,202041.40000000596,9023,ATS,C,2
3,test,1,A,haborder.png,1,m,Wed Jul 09 2025 16:26:00 GMT-0400 (Eastern Daylight Time),207874.60000000894,CFD-BM-022-004-HC.jpg,1500,solid,I,m,611,3,1,5833.20000000298,202041.40000000596,9023,ATS,C,3
4,test,1,A,haborder.png,1,z,Wed Jul 09 2025 16:26:00 GMT-0400 (Eastern Daylight Time),210558.0,CFD-WM-036-018-A.jpg,1900,solid,I,z,750,8,1,8516.59999999404,202041.40000000596,9023,ATS,C,4
5,test,1,A,haborder.png,1,m,Wed Jul 09 2025 16:26:00 GMT-0400 (Eastern Daylight Time),212774.5,CFD-BM-022-004-HC.jpg,1500,solid,I,m,690,3,1,10733.09999999404,202041.40000000596,9023,ATS,C,5
6,test,1,A,haborder.png,1,m,Wed Jul 09 2025 16:26:00 GMT-0400 (Eastern Daylight Time),216108.10000000894,CFD-BF-019-004-HC.jpg,2000,solid,I,m,1302,5,1,14066.70000000298,202041.40000000596,9023,ATS,C,6
7,test,1,A,haborder.png,1,m,Wed Jul 09 2025 16:26:00 GMT-0400 (Eastern Daylight Time),218507.90000000596,CFD-WM-035-036-HC.jpg,1700,solid,I,m,668,9,1,16466.5,202041.40000000596,9023,ATS,C,7
8,test,1,A,haborder.png,1,z,Wed Jul 09 2025 16:26:00 GMT-0400 (Eastern Daylight Time),220857.90000000596,CFD-BM-043-014-A.jpg,1600,solid,I,z,720,2,1,18816.5,202041.40000000596,9023,ATS,C,8
9,test,1,A,haborder.png,1,m,Wed Jul 09 2025 16:26:00 GMT-0400 (Eastern Daylight Time),223274.70000000298,CFD-WF-013-009-HC.jpg,1500,solid,I,m,887,11,1,21233.29999999702,202041.40000000596,9023,ATS,C,9
10,test,1,A,haborder.png,1,m,Wed Jul 09 2025 16:26:00 GMT-0400 (Eastern Daylight Time),225741.30000001192,CFD-WM-035-036-HC.jpg,1700,solid,I,m,734,9,1,23699.90000000596,202041.40000000596,9023,ATS,C,10
11,test,1,A,haborder.png,1,z,Wed Jul 09 2025 16:26:00 GMT-0400 (Eastern Daylight Time),227991.30000001192,CFD-BM-043-014-A.jpg,1600,solid,I,z,623,2,1,25949.90000000596,202041.40000000596,9023,ATS,C,11
12,test,1,A,haborder.png,1,m,Wed Jul 09 2025 16:26:00 GMT-0400 (Eastern Daylight Time),230357.80000001192,CFD-WF-013-009-HC.jpg,1500,solid,I,m,824,11,1,28316.40000000596,202041.40000000596,9023,ATS,C,12
13,test,1,A,haborder.png,1,z,Wed Jul 09 2025 16:26:00 GMT-0400 (Eastern Daylight Time),232358.0,CFD-WF-023-013-A.jpg,1000,solid,I,z,975,12,1,30316.59999999404,202041.40000000596,9023,ATS,C,13
14,test,1,A,haborder.png,1,m,Wed Jul 09 2025 16:26:00 GMT-0400 (Eastern Daylight Time),235375.0,CFD-BF-019-004-HC.jpg,2000,solid,I,m,998,5,1,33333.59999999404,202041.40000000596,9023,ATS,C,14
15,test,1,A,haborder.png,1,z,Wed Jul 09 2025 16:26:00 GMT-0400 (Eastern Daylight Time),237691.10000000894,CFD-WF-037-016-A.jpg,1600,solid,I,z,686,10,1,35649.70000000298,202041.40000000596,9023,ATS,C,15
16,test,1,A,haborder.png,1,z,Wed Jul 09 2025 16:26:00 GMT-0400 (Eastern Daylight Time),239807.80000001192,CFD-BF-002-018-A.jpg,1200,solid,I,z,898,6,1,37766.40000000596,202041.40000000596,9023,ATS,C,16
17,test,1,A,haborder.png,1,z,Wed Jul 09 2025 16:26:00 GMT-0400 (Eastern Daylight Time),241674.80000001192,CFD-BF-002-018-A.jpg,1200,solid,I,z,636,6,1,39633.40000000596,202041.40000000596,9023,ATS,C,17
18,test,1,A,haborder.png,1,z,Wed Jul 09 2025 16:26:00 GMT-0400 (Eastern Daylight Time),243391.20000000298,CFD-BF-031-020-A.jpg,1000,solid,I,z,698,4,1,41349.79999999702,202041.40000000596,9023,ATS,C,18
19,test,1,A,haborder.png,1,z,Wed Jul 09 2025 16:26:00 GMT-0400 (Eastern Daylight Time),245841.20000000298,CFD-WF-037-016-A.jpg,1600,solid,I,z,829,10,1,43799.79999999702,202041.40000000596,9023,ATS,C,19
20,test,1,A,haborder.png,1,m,Wed Jul 09 2025 16:26:00 GMT-0400 (Eastern Daylight Time),248158.0,CFD-BM-034-035-HC.jpg,1700,solid,I,m,583,1,1,46116.59999999404,202041.40000000596,9023,ATS,C,20
21,test,1,A,haborder.png,1,m,Wed Jul 09 2025 16:26:00 GMT-0400 (Eastern Daylight Time),250408.0,CFD-WM-028-005-HC.jpg,1400,solid,I,m,823,7,1,48366.59999999404,202041.40000000596,9023,ATS,C,21
22,test,1,A,haborder.png,1,z,Wed Jul 09 2025 16:26:00 GMT-0400 (Eastern Daylight Time),252091.10000000894,CFD-WF-023-013-A.jpg,1000,solid,I,z,651,12,1,50049.70000000298,202041.40000000596,9023,ATS,C,22
23,test,1,A,haborder.png,1,z,Wed Jul 09 2025 16:26:00 GMT-0400 (Eastern Daylight Time),255407.80000001192,CFD-WM-036-018-A.jpg,1900,solid,I,z,1397,8,1,53366.40000000596,202041.40000000596,9023,ATS,C,23
24,test,1,A,haborder.png,1,m,Wed Jul 09 2025 16:26:00 GMT-0400 (Eastern Daylight Time),257874.5,CFD-BM-034-035-HC.jpg,1700,solid,I,m,746,1,1,55833.09999999404,202041.40000000596,9023,ATS,C,24
1,test,1,B,mfborder.png,1,m,Wed Jul 09 2025 16:26:00 GMT-0400 (Eastern Daylight Time),273958.0,CFD-BM-021-026-A.jpg,1600,dash,I,m,625,2,1,2250.0,271708.0,9023,ATS,C,1
2,test,1,B,mfborder.png,1,m,Wed Jul 09 2025 16:26:00 GMT-0400 (Eastern Daylight Time),276324.8000000119,CFD-BM-021-026-A.jpg,1600,dash,I,m,742,2,1,4616.800000011921,271708.0,9023,ATS,C,2
3,test,1,B,mfborder.png,1,z,Wed Jul 09 2025 16:26:00 GMT-0400 (Eastern Daylight Time),278974.40000000596,CFD-WF-001-010-HC.jpg,1900,dash,I,z,716,8,1,7266.4000000059605,271708.0,9023,ATS,C,3
4,test,1,B,mfborder.png,1,m,Wed Jul 09 2025 16:26:00 GMT-0400 (Eastern Daylight Time),281609.40000000596,CFD-WM-036-018-A.jpg,1700,dash,I,m,905,9,1,9901.40000000596,271708.0,9023,ATS,C,4
5,test,1,B,mfborder.png,1,m,Wed Jul 09 2025 16:26:00 GMT-0400 (Eastern Daylight Time),284174.8000000119,CFD-BM-043-014-A.jpg,2000,dash,I,m,548,5,1,12466.800000011921,271708.0,9023,ATS,C,5
6,test,1,B,mfborder.png,1,m,Wed Jul 09 2025 16:26:00 GMT-0400 (Eastern Daylight Time),286058.0,CFD-WM-034-040-A.jpg,1200,dash,I,m,653,6,1,14350.0,271708.0,9023,ATS,C,6
7,test,1,B,mfborder.png,1,m,Wed Jul 09 2025 16:26:00 GMT-0400 (Eastern Daylight Time),287807.90000000596,CFD-WM-034-040-A.jpg,1200,dash,I,m,530,6,1,16099.90000000596,271708.0,9023,ATS,C,7
8,test,1,B,mfborder.png,1,z,Wed Jul 09 2025 16:26:00 GMT-0400 (Eastern Daylight Time),289574.700000003,CFD-BF-031-020-A.jpg,1000,dash,I,z,740,4,1,17866.70000000298,271708.0,9023,ATS,C,8
9,test,1,B,mfborder.png,1,z,Wed Jul 09 2025 16:26:00 GMT-0400 (Eastern Daylight Time),291724.700000003,CFD-BF-042-031-HC.jpg,1500,dash,I,z,618,3,1,20016.70000000298,271708.0,9023,ATS,C,9
10,test,1,B,mfborder.png,1,z,Wed Jul 09 2025 16:26:00 GMT-0400 (Eastern Daylight Time),294024.700000003,CFD-WF-037-016-A.jpg,1500,dash,I,z,771,11,1,22316.70000000298,271708.0,9023,ATS,C,10
11,test,1,B,mfborder.png,1,z,Wed Jul 09 2025 16:26:00 GMT-0400 (Eastern Daylight Time),296241.40000000596,CFD-WF-037-016-A.jpg,1500,dash,I,z,694,11,1,24533.40000000596,271708.0,9023,ATS,C,11
12,test,1,B,mfborder.png,1,m,Wed Jul 09 2025 16:26:00 GMT-0400 (Eastern Daylight Time),298774.60000000894,CFD-WM-036-018-A.jpg,1700,dash,I,m,807,9,1,27066.60000000894,271708.0,9023,ATS,C,12
13,test,1,B,mfborder.png,1,z,Wed Jul 09 2025 16:26:00 GMT-0400 (Eastern Daylight Time),301291.40000000596,CFD-BF-019-004-HC.jpg,1400,dash,I,z,1086,7,1,29583.40000000596,271708.0,9023,ATS,C,13
14,test,1,B,mfborder.png,1,z,Wed Jul 09 2025 16:26:00 GMT-0400 (Eastern Daylight Time),302958.60000000894,CFD-WF-013-009-HC.jpg,1000,dash,I,z,650,12,1,31250.60000000894,271708.0,9023,ATS,C,14
15,test,1,B,mfborder.png,1,m,Wed Jul 09 2025 16:26:00 GMT-0400 (Eastern Daylight Time),305374.60000000894,CFD-BM-022-004-HC.jpg,1700,dash,I,m,683,1,1,33666.60000000894,271708.0,9023,ATS,C,15
16,test,1,B,mfborder.png,1,m,Wed Jul 09 2025 16:26:00 GMT-0400 (Eastern Daylight Time),307758.10000000894,CFD-WM-035-036-HC.jpg,1600,dash,I,m,751,10,1,36050.10000000894,271708.0,9023,ATS,C,16
17,test,1,B,mfborder.png,1,z,Wed Jul 09 2025 16:26:00 GMT-0400 (Eastern Daylight Time),310441.40000000596,CFD-WF-001-010-HC.jpg,1900,dash,I,z,754,8,1,38733.40000000596,271708.0,9023,ATS,C,17
18,test,1,B,mfborder.png,1,m,Wed Jul 09 2025 16:26:00 GMT-0400 (Eastern Daylight Time),312774.5,CFD-WM-035-036-HC.jpg,1600,dash,I,m,706,10,1,41066.5,271708.0,9023,ATS,C,18
19,test,1,B,mfborder.png,1,z,Wed Jul 09 2025 16:26:00 GMT-0400 (Eastern Daylight Time),315124.8000000119,CFD-BF-042-031-HC.jpg,1500,dash,I,z,825,3,1,43416.80000001192,271708.0,9023,ATS,C,19
20,test,1,B,mfborder.png,1,z,Wed Jul 09 2025 16:26:00 GMT-0400 (Eastern Daylight Time),317374.60000000894,CFD-BF-019-004-HC.jpg,1400,dash,I,z,815,7,1,45666.60000000894,271708.0,9023,ATS,C,20
21,test,1,B,mfborder.png,1,z,Wed Jul 09 2025 16:26:00 GMT-0400 (Eastern Daylight Time),318958.10000000894,CFD-BF-031-020-A.jpg,1000,dash,I,z,551,4,1,47250.10000000894,271708.0,9023,ATS,C,21
22,test,1,B,mfborder.png,1,m,Wed Jul 09 2025 16:26:00 GMT-0400 (Eastern Daylight Time),321574.8000000119,CFD-BM-022-004-HC.jpg,1700,dash,I,m,890,1,1,49866.80000001192,271708.0,9023,ATS,C,22
23,test,1,B,mfborder.png,1,z,Wed Jul 09 2025 16:26:00 GMT-0400 (Eastern Daylight Time),323674.700000003,CFD-WF-013-009-HC.jpg,1000,dash,I,z,1070,12,1,51966.70000000298,271708.0,9023,ATS,C,23
24,test,1,B,mfborder.png,1,m,Wed Jul 09 2025 16:26:00 GMT-0400 (Eastern Daylight Time),326391.5,CFD-BM-043-014-A.jpg,2000,dash,I,m,689,5,1,54683.5,271708.0,9023,ATS,C,24
0,prac,1,C,mfborder.png,0,z,Wed Jul 09 2025 16:26:00 GMT-0400 (Eastern Daylight Time),367624.8000000119,CFD-WF-023-013-A.jpg,1500,solid,I,None,1517,5,1,3816.800000011921,363808.0,9023,ATS,C,1
0,prac,1,C,haborder.png,0,z,Wed Jul 09 2025 16:26:00 GMT-0400 (Eastern Daylight Time),371841.40000000596,CFD-BF-031-020-A.jpg,1900,dash,I,None,1516,5,1,8033.4000000059605,363808.0,9023,ATS,C,2
1,prac,1,C,mfborder.png,1,m,Wed Jul 09 2025 16:26:00 GMT-0400 (Eastern Daylight Time),375274.90000000596,CFD-BM-043-014-A.jpg,1200,dash,I,m,1419,5,1,11466.90000000596,363808.0,9023,ATS,C,3
1,prac,1,C,haborder.png,0,z,Wed Jul 09 2025 16:26:00 GMT-0400 (Eastern Daylight Time),379191.40000000596,CFD-WF-037-016-A.jpg,1600,dash,I,None,1516,5,1,15383.40000000596,363808.0,9023,ATS,C,4
2,prac,1,C,mfborder.png,1,m,Wed Jul 09 2025 16:26:00 GMT-0400 (Eastern Daylight Time),383141.700000003,CFD-BM-034-035-HC.jpg,2000,solid,I,m,1141,5,1,19333.70000000298,363808.0,9023,ATS,C,5
3,prac,1,C,haborder.png,1,z,Wed Jul 09 2025 16:26:00 GMT-0400 (Eastern Daylight Time),386358.40000000596,CFD-BF-002-018-A.jpg,1700,solid,I,z,723,5,1,22550.40000000596,363808.0,9023,ATS,C,6
3,prac,1,C,haborder.png,0,m,Wed Jul 09 2025 16:26:00 GMT-0400 (Eastern Daylight Time),388924.8000000119,CFD-WM-028-005-HC.jpg,1000,dash,I,z,750,5,1,25116.80000001192,363808.0,9023,ATS,C,7
4,prac,1,C,haborder.png,1,m,Wed Jul 09 2025 16:26:00 GMT-0400 (Eastern Daylight Time),391924.90000000596,CFD-BM-022-004-HC.jpg,1500,solid,I,m,691,5,1,28116.90000000596,363808.0,9023,ATS,C,8
5,prac,1,C,mfborder.png,1,z,Wed Jul 09 2025 16:26:00 GMT-0400 (Eastern Daylight Time),395408.3000000119,CFD-WF-013-009-HC.jpg,1600,dash,I,z,1079,5,1,31600.30000001192,363808.0,9023,ATS,C,9
6,prac,1,C,mfborder.png,1,m,Wed Jul 09 2025 16:26:00 GMT-0400 (Eastern Daylight Time),399408.200000003,CFD-WM-036-018-A.jpg,1700,solid,I,m,1497,5,1,35600.20000000298,363808.0,9023,ATS,C,10
7,prac,1,C,haborder.png,1,m,Wed Jul 09 2025 16:26:00 GMT-0400 (Eastern Daylight Time),402891.5,CFD-WM-028-005-HC.jpg,1400,solid,I,m,1268,5,1,39083.5,363808.0,9023,ATS,C,11
8,prac,1,C,mfborder.png,1,z,Wed Jul 09 2025 16:26:00 GMT-0400 (Eastern Daylight Time),405541.60000000894,CFD-BF-019-004-HC.jpg,1000,dash,I,z,857,5,1,41733.60000000894,363808.0,9023,ATS,C,12
1,test,1,C,haborder.png,1,m,Wed Jul 09 2025 16:26:00 GMT-0400 (Eastern Daylight Time),440092.10000000894,CFD-WF-013-009-HC.jpg,1000,solid,I,m,1086,12,1,2117.2000000029802,437974.90000000596,9023,ATS,C,1
2,test,1,C,mfborder.png,1,m,Wed Jul 09 2025 16:26:00 GMT-0400 (Eastern Daylight Time),442192.40000000596,CFD-WM-035-036-HC.jpg,1000,dash,I,m,1082,4,1,4217.5,437974.90000000596,9023,ATS,C,2
2,test,1,C,haborder.png,0,m,Wed Jul 09 2025 16:26:00 GMT-0400 (Eastern Daylight Time),445291.60000000894,CFD-BF-019-004-HC.jpg,1600,solid,I,z,1469,10,1,7316.70000000298,437974.90000000596,9023,ATS,C,3
2,test,1,C,mfborder.png,0,z,Wed Jul 09 2025 16:26:00 GMT-0400 (Eastern Daylight Time),448324.90000000596,CFD-WF-037-016-A.jpg,1500,dash,I,None,1516,3,1,10350.0,437974.90000000596,9023,ATS,C,4
3,test,1,C,mfborder.png,1,z,Wed Jul 09 2025 16:26:00 GMT-0400 (Eastern Daylight Time),451224.40000000596,CFD-BF-042-031-HC.jpg,1700,dash,I,z,1172,1,1,13249.5,437974.90000000596,9023,ATS,C,5
4,test,1,C,mfborder.png,1,m,Wed Jul 09 2025 16:26:00 GMT-0400 (Eastern Daylight Time),453141.40000000596,CFD-BM-022-004-HC.jpg,1200,dash,I,m,692,6,1,15166.5,437974.90000000596,9023,ATS,C,6
5,test,1,C,mfborder.png,1,z,Wed Jul 09 2025 16:26:00 GMT-0400 (Eastern Daylight Time),455924.8000000119,CFD-BF-031-020-A.jpg,1600,dash,I,z,1159,2,1,17949.90000000596,437974.90000000596,9023,ATS,C,7
6,test,1,C,mfborder.png,1,m,Wed Jul 09 2025 16:26:00 GMT-0400 (Eastern Daylight Time),458091.5,CFD-WM-035-036-HC.jpg,1000,dash,I,m,1136,4,1,20116.59999999404,437974.90000000596,9023,ATS,C,8
6,test,1,C,haborder.png,0,z,Wed Jul 09 2025 16:26:00 GMT-0400 (Eastern Daylight Time),461375.40000000596,CFD-BM-043-014-A.jpg,1900,solid,I,m,1350,8,1,23400.5,437974.90000000596,9023,ATS,C,9
6,test,1,C,haborder.png,0,m,Wed Jul 09 2025 16:26:00 GMT-0400 (Eastern Daylight Time),464407.90000000596,CFD-WF-001-010-HC.jpg,1500,solid,I,None,1516,11,1,26433.0,437974.90000000596,9023,ATS,C,10
7,test,1,C,mfborder.png,1,z,Wed Jul 09 2025 16:26:00 GMT-0400 (Eastern Daylight Time),466958.5,CFD-BF-031-020-A.jpg,1600,dash,I,z,933,2,1,28983.59999999404,437974.90000000596,9023,ATS,C,11
7,test,1,C,haborder.png,0,z,Wed Jul 09 2025 16:26:00 GMT-0400 (Eastern Daylight Time),469708.10000000894,CFD-WM-036-018-A.jpg,1400,solid,I,m,1319,7,1,31733.20000000298,437974.90000000596,9023,ATS,C,12
7,test,1,C,haborder.png,0,m,Wed Jul 09 2025 16:26:00 GMT-0400 (Eastern Daylight Time),472058.10000000894,CFD-WF-001-010-HC.jpg,1500,solid,I,z,821,11,1,34083.20000000298,437974.90000000596,9023,ATS,C,13
8,test,1,C,haborder.png,1,m,Wed Jul 09 2025 16:26:00 GMT-0400 (Eastern Daylight Time),475024.700000003,CFD-BF-019-004-HC.jpg,1600,solid,I,m,1347,10,1,37049.79999999702,437974.90000000596,9023,ATS,C,14
8,test,1,C,haborder.png,0,z,Wed Jul 09 2025 16:26:00 GMT-0400 (Eastern Daylight Time),478041.40000000596,CFD-BM-043-014-A.jpg,1900,solid,I,m,1088,8,1,40066.5,437974.90000000596,9023,ATS,C,15
9,test,1,C,mfborder.png,1,z,Wed Jul 09 2025 16:26:00 GMT-0400 (Eastern Daylight Time),480891.40000000596,CFD-BF-042-031-HC.jpg,1700,dash,I,z,1119,1,1,42916.5,437974.90000000596,9023,ATS,C,16
10,test,1,C,mfborder.png,1,m,Wed Jul 09 2025 16:26:00 GMT-0400 (Eastern Daylight Time),482824.8000000119,CFD-BM-022-004-HC.jpg,1200,dash,I,m,706,6,1,44849.90000000596,437974.90000000596,9023,ATS,C,17
10,test,1,C,haborder.png,0,z,Wed Jul 09 2025 16:26:00 GMT-0400 (Eastern Daylight Time),485291.60000000894,CFD-BM-021-026-A.jpg,1700,solid,I,m,736,9,1,47316.70000000298,437974.90000000596,9023,ATS,C,18
10,test,1,C,haborder.png,0,z,Wed Jul 09 2025 16:26:00 GMT-0400 (Eastern Daylight Time),487674.8000000119,CFD-WM-036-018-A.jpg,1400,solid,I,m,953,7,1,49699.90000000596,437974.90000000596,9023,ATS,C,19
11,test,1,C,mfborder.png,1,m,Wed Jul 09 2025 16:26:00 GMT-0400 (Eastern Daylight Time),491074.90000000596,CFD-WM-034-040-A.jpg,2000,dash,I,m,1378,5,1,53100.0,437974.90000000596,9023,ATS,C,20
11,test,1,C,mfborder.png,0,z,Wed Jul 09 2025 16:26:00 GMT-0400 (Eastern Daylight Time),494117.5,CFD-WF-037-016-A.jpg,1500,dash,I,None,1516,3,1,56142.59999999404,437974.90000000596,9023,ATS,C,21
11,test,1,C,mfborder.png,0,m,Wed Jul 09 2025 16:26:00 GMT-0400 (Eastern Daylight Time),497641.5,CFD-WM-034-040-A.jpg,2000,dash,I,None,1516,5,1,59666.59999999404,437974.90000000596,9023,ATS,C,22
11,test,1,C,haborder.png,0,z,Wed Jul 09 2025 16:26:00 GMT-0400 (Eastern Daylight Time),500057.90000000596,CFD-BM-021-026-A.jpg,1700,solid,I,m,686,9,1,62083.0,437974.90000000596,9023,ATS,C,23
11,test,1,C,haborder.png,0,m,Wed Jul 09 2025 16:26:00 GMT-0400 (Eastern Daylight Time),501691.5,CFD-WF-013-009-HC.jpg,1000,solid,I,z,603,12,1,63716.59999999404,437974.90000000596,9023,ATS,C,24
1,test,2,C,haborder.png,1,m,Wed Jul 09 2025 16:26:00 GMT-0400 (Eastern Daylight Time),508658.3000000119,CFD-WM-028-005-HC.jpg,1500,solid,I,m,1129,11,1,2650.2000000029802,506008.10000000894,9023,ATS,C,1
2,test,2,C,haborder.png,1,m,Wed Jul 09 2025 16:26:00 GMT-0400 (Eastern Daylight Time),510991.40000000596,CFD-WM-028-005-HC.jpg,1500,solid,I,m,815,11,1,4983.29999999702,506008.10000000894,9023,ATS,C,2
3,test,2,C,mfborder.png,1,m,Wed Jul 09 2025 16:26:00 GMT-0400 (Eastern Daylight Time),513208.0,CFD-BM-034-035-HC.jpg,1000,dash,I,m,1189,4,1,7199.899999991059,506008.10000000894,9023,ATS,C,3
4,test,2,C,haborder.png,1,z,Wed Jul 09 2025 16:26:00 GMT-0400 (Eastern Daylight Time),516391.60000000894,CFD-WF-037-016-A.jpg,1700,solid,I,z,1458,9,1,10383.5,506008.10000000894,9023,ATS,C,4
5,test,2,C,haborder.png,1,m,Wed Jul 09 2025 16:26:00 GMT-0400 (Eastern Daylight Time),518574.8000000119,CFD-WM-028-005-HC.jpg,1000,solid,I,m,1150,12,1,12566.70000000298,506008.10000000894,9023,ATS,C,5
6,test,2,C,mfborder.png,1,m,Wed Jul 09 2025 16:26:00 GMT-0400 (Eastern Daylight Time),521091.60000000894,CFD-WM-036-018-A.jpg,1200,dash,I,m,1277,6,1,15083.5,506008.10000000894,9023,ATS,C,6
6,test,2,C,mfborder.png,0,m,Wed Jul 09 2025 16:26:00 GMT-0400 (Eastern Daylight Time),524174.8000000119,CFD-BM-043-014-A.jpg,2000,dash,I,z,1050,5,1,18166.70000000298,506008.10000000894,9023,ATS,C,7
7,test,2,C,haborder.png,1,z,Wed Jul 09 2025 16:26:00 GMT-0400 (Eastern Daylight Time),527107.6000000089,CFD-WF-037-016-A.jpg,1700,solid,I,z,1193,9,1,21099.5,506008.10000000894,9023,ATS,C,8
7,test,2,C,mfborder.png,0,m,Wed Jul 09 2025 16:26:00 GMT-0400 (Eastern Daylight Time),529674.900000006,CFD-WM-036-018-A.jpg,1200,dash,I,z,1337,6,1,23666.79999999702,506008.10000000894,9023,ATS,C,9
7,test,2,C,mfborder.png,0,z,Wed Jul 09 2025 16:26:00 GMT-0400 (Eastern Daylight Time),532808.200000003,CFD-WF-013-009-HC.jpg,1700,dash,I,m,1389,1,1,26800.09999999404,506008.10000000894,9023,ATS,C,10
8,test,2,C,haborder.png,1,z,Wed Jul 09 2025 16:26:00 GMT-0400 (Eastern Daylight Time),536141.1000000089,CFD-BF-002-018-A.jpg,1900,solid,I,z,1399,8,1,30133.0,506008.10000000894,9023,ATS,C,11
9,test,2,C,mfborder.png,1,z,Wed Jul 09 2025 16:26:00 GMT-0400 (Eastern Daylight Time),539124.900000006,CFD-BF-019-004-HC.jpg,1500,dash,I,z,1460,3,1,33116.79999999702,506008.10000000894,9023,ATS,C,12
10,test,2,C,haborder.png,1,m,Wed Jul 09 2025 16:26:00 GMT-0400 (Eastern Daylight Time),541058.200000003,CFD-WM-028-005-HC.jpg,1000,solid,I,m,912,12,1,35050.09999999404,506008.10000000894,9023,ATS,C,13
11,test,2,C,haborder.png,1,m,Wed Jul 09 2025 16:26:00 GMT-0400 (Eastern Daylight Time),543741.6000000089,CFD-BM-022-004-HC.jpg,1600,solid,I,m,1050,10,1,37733.5,506008.10000000894,9023,ATS,C,14
12,test,2,C,mfborder.png,1,z,Wed Jul 09 2025 16:26:00 GMT-0400 (Eastern Daylight Time),546841.400000006,CFD-WF-013-009-HC.jpg,1700,dash,I,z,1355,1,1,40833.29999999702,506008.10000000894,9023,ATS,C,15
12,test,2,C,mfborder.png,0,m,Wed Jul 09 2025 16:26:00 GMT-0400 (Eastern Daylight Time),550358.200000003,CFD-BM-043-014-A.jpg,2000,dash,I,z,1492,5,1,44350.09999999404,506008.10000000894,9023,ATS,C,16
13,test,2,C,mfborder.png,1,z,Wed Jul 09 2025 16:26:00 GMT-0400 (Eastern Daylight Time),553191.6000000089,CFD-WF-023-013-A.jpg,1600,dash,I,z,1206,2,1,47183.5,506008.10000000894,9023,ATS,C,17
14,test,2,C,mfborder.png,1,z,Wed Jul 09 2025 16:26:00 GMT-0400 (Eastern Daylight Time),555458.200000003,CFD-WF-023-013-A.jpg,1600,dash,I,z,645,2,1,49450.09999999404,506008.10000000894,9023,ATS,C,18
15,test,2,C,haborder.png,1,z,Wed Jul 09 2025 16:26:00 GMT-0400 (Eastern Daylight Time),558758.3000000119,CFD-BF-002-018-A.jpg,1900,solid,I,z,1375,8,1,52750.20000000298,506008.10000000894,9023,ATS,C,19
16,test,2,C,haborder.png,1,z,Wed Jul 09 2025 16:26:00 GMT-0400 (Eastern Daylight Time),561241.6000000089,CFD-BF-031-020-A.jpg,1400,solid,I,z,1056,7,1,55233.5,506008.10000000894,9023,ATS,C,20
17,test,2,C,haborder.png,1,z,Wed Jul 09 2025 16:26:00 GMT-0400 (Eastern Daylight Time),563358.200000003,CFD-BF-031-020-A.jpg,1400,solid,I,z,684,7,1,57350.09999999404,506008.10000000894,9023,ATS,C,21
17,test,2,C,mfborder.png,0,z,Wed Jul 09 2025 16:26:00 GMT-0400 (Eastern Daylight Time),566175.400000006,CFD-BF-019-004-HC.jpg,1500,dash,I,m,1299,3,1,60167.29999999702,506008.10000000894,9023,ATS,C,22
18,test,2,C,haborder.png,1,m,Wed Jul 09 2025 16:26:00 GMT-0400 (Eastern Daylight Time),568974.6000000089,CFD-BM-022-004-HC.jpg,1600,solid,I,m,1167,10,1,62966.5,506008.10000000894,9023,ATS,C,23
18,test,2,C,mfborder.png,0,m,Wed Jul 09 2025 16:26:00 GMT-0400 (Eastern Daylight Time),571474.8000000119,CFD-BM-034-035-HC.jpg,1000,dash,I,z,1479,4,1,65466.70000000298,506008.10000000894,9023,ATS,C,24
0,test,3,C,haborder.png,0,z,Wed Jul 09 2025 16:26:00 GMT-0400 (Eastern Daylight Time),579125.0,CFD-WM-036-018-A.jpg,1400,solid,I,m,1109,7,1,2533.699999988079,576591.3000000119,9023,ATS,C,1
0,test,3,C,mfborder.png,0,m,Wed Jul 09 2025 16:26:00 GMT-0400 (Eastern Daylight Time),581658.200000003,CFD-WM-035-036-HC.jpg,1000,dash,I,None,1516,4,1,5066.899999991059,576591.3000000119,9023,ATS,C,2
1,test,3,C,mfborder.png,1,z,Wed Jul 09 2025 16:26:00 GMT-0400 (Eastern Daylight Time),584141.6000000089,CFD-WF-037-016-A.jpg,1500,dash,I,z,935,3,1,7550.29999999702,576591.3000000119,9023,ATS,C,3
2,test,3,C,mfborder.png,1,z,Wed Jul 09 2025 16:26:00 GMT-0400 (Eastern Daylight Time),586958.3000000119,CFD-BF-042-031-HC.jpg,1700,dash,I,z,1083,1,1,10367.0,576591.3000000119,9023,ATS,C,4
2,test,3,C,mfborder.png,0,m,Wed Jul 09 2025 16:26:00 GMT-0400 (Eastern Daylight Time),589408.0,CFD-BM-022-004-HC.jpg,1200,dash,I,z,1231,6,1,12816.699999988079,576591.3000000119,9023,ATS,C,5
2,test,3,C,haborder.png,0,m,Wed Jul 09 2025 16:26:00 GMT-0400 (Eastern Daylight Time),591941.6000000089,CFD-WF-013-009-HC.jpg,1000,solid,I,None,1516,12,1,15350.29999999702,576591.3000000119,9023,ATS,C,6
3,test,3,C,mfborder.png,1,m,Wed Jul 09 2025 16:26:00 GMT-0400 (Eastern Daylight Time),594158.3000000119,CFD-BM-022-004-HC.jpg,1200,dash,I,m,984,6,1,17567.0,576591.3000000119,9023,ATS,C,7
4,test,3,C,mfborder.png,1,z,Wed Jul 09 2025 16:26:00 GMT-0400 (Eastern Daylight Time),596958.200000003,CFD-BF-031-020-A.jpg,1600,dash,I,z,1167,2,1,20366.89999999106,576591.3000000119,9023,ATS,C,8
5,test,3,C,mfborder.png,1,m,Wed Jul 09 2025 16:26:00 GMT-0400 (Eastern Daylight Time),599824.6000000089,CFD-WM-034-040-A.jpg,2000,dash,I,m,846,5,1,23233.29999999702,576591.3000000119,9023,ATS,C,9
5,test,3,C,haborder.png,0,m,Wed Jul 09 2025 16:26:00 GMT-0400 (Eastern Daylight Time),602641.5,CFD-BF-019-004-HC.jpg,1600,solid,I,z,1196,10,1,26050.19999998808,576591.3000000119,9023,ATS,C,10
6,test,3,C,mfborder.png,1,m,Wed Jul 09 2025 16:26:00 GMT-0400 (Eastern Daylight Time),605874.6000000089,CFD-WM-034-040-A.jpg,2000,dash,I,m,1201,5,1,29283.29999999702,576591.3000000119,9023,ATS,C,11
7,test,3,C,haborder.png,1,z,Wed Jul 09 2025 16:26:00 GMT-0400 (Eastern Daylight Time),608908.0,CFD-BM-043-014-A.jpg,1900,solid,I,z,1103,8,1,32316.69999998808,576591.3000000119,9023,ATS,C,12
7,test,3,C,haborder.png,0,m,Wed Jul 09 2025 16:26:00 GMT-0400 (Eastern Daylight Time),611758.3000000119,CFD-WF-001-010-HC.jpg,1500,solid,I,z,1317,11,1,35167.0,576591.3000000119,9023,ATS,C,13
7,test,3,C,mfborder.png,0,z,Wed Jul 09 2025 16:26:00 GMT-0400 (Eastern Daylight Time),614908.400000006,CFD-BF-031-020-A.jpg,1600,dash,I,None,1516,2,1,38317.09999999404,576591.3000000119,9023,ATS,C,14
7,test,3,C,haborder.png,0,z,Wed Jul 09 2025 16:26:00 GMT-0400 (Eastern Daylight Time),617258.200000003,CFD-WM-036-018-A.jpg,1400,solid,I,m,922,7,1,40666.89999999106,576591.3000000119,9023,ATS,C,15
8,test,3,C,mfborder.png,1,z,Wed Jul 09 2025 16:26:00 GMT-0400 (Eastern Daylight Time),620175.3000000119,CFD-BF-042-031-HC.jpg,1700,dash,I,z,1199,1,1,43584.0,576591.3000000119,9023,ATS,C,16
8,test,3,C,haborder.png,0,z,Wed Jul 09 2025 16:26:00 GMT-0400 (Eastern Daylight Time),623258.200000003,CFD-BM-021-026-A.jpg,1700,solid,I,m,1355,9,1,46666.89999999106,576591.3000000119,9023,ATS,C,17
8,test,3,C,haborder.png,0,m,Wed Jul 09 2025 16:26:00 GMT-0400 (Eastern Daylight Time),625841.5,CFD-WF-001-010-HC.jpg,1500,solid,I,z,1063,11,1,49250.19999998808,576591.3000000119,9023,ATS,C,18
8,test,3,C,haborder.png,0,z,Wed Jul 09 2025 16:26:00 GMT-0400 (Eastern Daylight Time),628491.6000000089,CFD-BM-043-014-A.jpg,1900,solid,I,m,720,8,1,51900.29999999702,576591.3000000119,9023,ATS,C,19
9,test,3,C,mfborder.png,1,z,Wed Jul 09 2025 16:26:00 GMT-0400 (Eastern Daylight Time),631275.0,CFD-WF-037-016-A.jpg,1500,dash,I,z,1254,3,1,54683.69999998808,576591.3000000119,9023,ATS,C,20
9,test,3,C,haborder.png,0,z,Wed Jul 09 2025 16:26:00 GMT-0400 (Eastern Daylight Time),634108.3000000119,CFD-BM-021-026-A.jpg,1700,solid,I,m,1102,9,1,57517.0,576591.3000000119,9023,ATS,C,21
9,test,3,C,haborder.png,0,m,Wed Jul 09 2025 16:26:00 GMT-0400 (Eastern Daylight Time),636641.700000003,CFD-WF-013-009-HC.jpg,1000,solid,I,None,1516,12,1,60050.39999999106,576591.3000000119,9023,ATS,C,22
9,test,3,C,haborder.png,0,m,Wed Jul 09 2025 16:26:00 GMT-0400 (Eastern Daylight Time),639325.0,CFD-BF-019-004-HC.jpg,1600,solid,I,z,1052,10,1,62733.69999998808,576591.3000000119,9023,ATS,C,23
9,test,3,C,mfborder.png,0,m,Wed Jul 09 2025 16:26:00 GMT-0400 (Eastern Daylight Time),641858.400000006,CFD-WM-035-036-HC.jpg,1000,dash,I,None,1516,4,1,65267.09999999404,576591.3000000119,9023,ATS,C,24
1,test,4,C,mfborder.png,1,m,Wed Jul 09 2025 16:26:00 GMT-0400 (Eastern Daylight Time),650691.8000000119,CFD-BM-034-035-HC.jpg,1000,dash,I,m,1161,4,1,2183.4000000059605,648508.400000006,9023,ATS,C,1
2,test,4,C,haborder.png,1,z,Wed Jul 09 2025 16:26:00 GMT-0400 (Eastern Daylight Time),653908.3000000119,CFD-WF-037-016-A.jpg,1700,solid,I,z,1494,9,1,5399.9000000059605,648508.400000006,9023,ATS,C,2
3,test,4,C,haborder.png,1,m,Wed Jul 09 2025 16:26:00 GMT-0400 (Eastern Daylight Time),656608.1000000089,CFD-WM-028-005-HC.jpg,1500,solid,I,m,1182,11,1,8099.70000000298,648508.400000006,9023,ATS,C,3
4,test,4,C,haborder.png,1,m,Wed Jul 09 2025 16:26:00 GMT-0400 (Eastern Daylight Time),658975.3000000119,CFD-BM-022-004-HC.jpg,1600,solid,I,m,750,10,1,10466.90000000596,648508.400000006,9023,ATS,C,4
5,test,4,C,mfborder.png,1,z,Wed Jul 09 2025 16:26:00 GMT-0400 (Eastern Daylight Time),661824.700000003,CFD-BF-019-004-HC.jpg,1500,dash,I,z,1331,3,1,13316.29999999702,648508.400000006,9023,ATS,C,5
5,test,4,C,mfborder.png,0,z,Wed Jul 09 2025 16:26:00 GMT-0400 (Eastern Daylight Time),664958.5,CFD-WF-023-013-A.jpg,1600,dash,I,None,1516,2,1,16450.09999999404,648508.400000006,9023,ATS,C,6
5,test,4,C,haborder.png,0,z,Wed Jul 09 2025 16:26:00 GMT-0400 (Eastern Daylight Time),667891.8000000119,CFD-BF-031-020-A.jpg,1400,solid,I,None,1516,7,1,19383.40000000596,648508.400000006,9023,ATS,C,7
6,test,4,C,mfborder.png,1,z,Wed Jul 09 2025 16:26:00 GMT-0400 (Eastern Daylight Time),670624.8000000119,CFD-WF-013-009-HC.jpg,1700,dash,I,z,996,1,1,22116.40000000596,648508.400000006,9023,ATS,C,8
6,test,4,C,mfborder.png,0,m,Wed Jul 09 2025 16:26:00 GMT-0400 (Eastern Daylight Time),673191.700000003,CFD-WM-036-018-A.jpg,1200,dash,I,z,1341,6,1,24683.29999999702,648508.400000006,9023,ATS,C,9
7,test,4,C,haborder.png,1,m,Wed Jul 09 2025 16:26:00 GMT-0400 (Eastern Daylight Time),675458.400000006,CFD-WM-028-005-HC.jpg,1500,solid,I,m,745,11,1,26950.0,648508.400000006,9023,ATS,C,10
8,test,4,C,haborder.png,1,z,Wed Jul 09 2025 16:26:00 GMT-0400 (Eastern Daylight Time),678558.3000000119,CFD-BF-002-018-A.jpg,1900,solid,I,z,1167,8,1,30049.90000000596,648508.400000006,9023,ATS,C,11
9,test,4,C,haborder.png,1,m,Wed Jul 09 2025 16:26:00 GMT-0400 (Eastern Daylight Time),680508.3000000119,CFD-WM-028-005-HC.jpg,1000,solid,I,m,918,12,1,31999.90000000596,648508.400000006,9023,ATS,C,12
10,test,4,C,haborder.png,1,z,Wed Jul 09 2025 16:26:00 GMT-0400 (Eastern Daylight Time),683024.700000003,CFD-BF-031-020-A.jpg,1400,solid,I,z,1097,7,1,34516.29999999702,648508.400000006,9023,ATS,C,13
11,test,4,C,haborder.png,1,m,Wed Jul 09 2025 16:26:00 GMT-0400 (Eastern Daylight Time),684874.900000006,CFD-WM-028-005-HC.jpg,1000,solid,I,m,821,12,1,36366.5,648508.400000006,9023,ATS,C,14
11,test,4,C,mfborder.png,0,m,Wed Jul 09 2025 16:26:00 GMT-0400 (Eastern Daylight Time),688391.5,CFD-BM-043-014-A.jpg,2000,dash,I,z,1456,5,1,39883.09999999404,648508.400000006,9023,ATS,C,15
11,test,4,C,mfborder.png,0,z,Wed Jul 09 2025 16:26:00 GMT-0400 (Eastern Daylight Time),691634.3000000119,CFD-WF-013-009-HC.jpg,1700,dash,I,None,1516,1,1,43125.90000000596,648508.400000006,9023,ATS,C,16
12,test,4,C,haborder.png,1,z,Wed Jul 09 2025 16:26:00 GMT-0400 (Eastern Daylight Time),694408.400000006,CFD-WF-037-016-A.jpg,1700,solid,I,z,1056,9,1,45900.0,648508.400000006,9023,ATS,C,17
12,test,4,C,mfborder.png,0,m,Wed Jul 09 2025 16:26:00 GMT-0400 (Eastern Daylight Time),696475.1000000089,CFD-BM-034-035-HC.jpg,1000,dash,I,z,1037,4,1,47966.70000000298,648508.400000006,9023,ATS,C,18
12,test,4,C,mfborder.png,0,m,Wed Jul 09 2025 16:26:00 GMT-0400 (Eastern Daylight Time),699208.5,CFD-WM-036-018-A.jpg,1200,dash,I,None,1516,6,1,50700.09999999404,648508.400000006,9023,ATS,C,19
13,test,4,C,mfborder.png,1,z,Wed Jul 09 2025 16:26:00 GMT-0400 (Eastern Daylight Time),701908.0,CFD-BF-019-004-HC.jpg,1500,dash,I,z,1176,3,1,53399.59999999404,648508.400000006,9023,ATS,C,20
13,test,4,C,mfborder.png,0,z,Wed Jul 09 2025 16:26:00 GMT-0400 (Eastern Daylight Time),704575.0,CFD-WF-023-013-A.jpg,1600,dash,I,m,1033,2,1,56066.59999999404,648508.400000006,9023,ATS,C,21
13,test,4,C,mfborder.png,0,m,Wed Jul 09 2025 16:26:00 GMT-0400 (Eastern Daylight Time),708058.5,CFD-BM-043-014-A.jpg,2000,dash,I,z,1421,5,1,59550.09999999404,648508.400000006,9023,ATS,C,22
14,test,4,C,haborder.png,1,z,Wed Jul 09 2025 16:26:00 GMT-0400 (Eastern Daylight Time),711275.0,CFD-BF-002-018-A.jpg,1900,solid,I,z,1286,8,1,62766.59999999404,648508.400000006,9023,ATS,C,23
15,test,4,C,haborder.png,1,m,Wed Jul 09 2025 16:26:00 GMT-0400 (Eastern Daylight Time),713625.0,CFD-BM-022-004-HC.jpg,1600,solid,I,m,723,10,1,65116.59999999404,648508.400000006,9023,ATS,C,24
