acc_sum,block,block_c,condition,correct,correct_response,datetime,endtime,flanker,jitter,project,response,response_test_buffer_response,response_test_target_response,response_time,response_time_test_buffer_response,response_time_test_target_response,row_sel,session_number,start_end,starttime,subject_id,target,task,task_vers,time_test_buffer,time_test_buffer_response,time_test_constants,time_test_flanker,time_test_jitter,time_test_logger,time_test_target,time_test_target_response,time_test_variables,trial
1,prac,1,con,1,m,Thu Oct 23 2025 18:13:25 GMT-0500 (Central Daylight Time),88138.09999990463,bell,1000,I,m,,,988,,,3,3,3294.300000190735,84843.7999997139,8018,bell,AF,A,,,,,,,,,,1
2,prac,1,inc,1,z,Thu Oct 23 2025 18:13:25 GMT-0500 (Central Daylight Time),90953.7999997139,rock,900,I,z,,,614,,,10,3,2810.0999999046326,88143.69999980927,8018,kind,AF,A,,,,,,,,,,2
3,prac,1,con,1,m,Thu Oct 23 2025 18:13:25 GMT-0500 (Central Daylight Time),93619.59999990463,step,800,I,m,,,466,,,1,3,2661.0999999046326,90958.5,8018,step,AF,A,,,,,,,,,,3
4,prac,1,con,1,z,Thu Oct 23 2025 18:13:25 GMT-0500 (Central Daylight Time),96468.69999980927,rage,1000,I,z,,,551,,,15,3,2844.5999999046326,93624.09999990463,8018,rage,AF,A,,,,,,,,,,4
5,prac,1,inc,1,z,Thu Oct 23 2025 18:13:25 GMT-0500 (Central Daylight Time),99667.69999980927,window,1100,I,z,,,786,,,16,3,3194.0999999046326,96473.59999990463,8018,temper,AF,A,,,,,,,,,,5
6,prac,1,con,1,z,Thu Oct 23 2025 18:13:25 GMT-0500 (Central Daylight Time),102483.5,brutal,800,I,z,,,712,,,13,3,2811.2000002861023,99672.2999997139,8018,brutal,AF,A,,,,,,,,,,6
7,prac,1,inc,1,m,Thu Oct 23 2025 18:13:25 GMT-0500 (Central Daylight Time),105465.7999997139,brutal,1100,I,m,,,579,,,8,3,2977.8999996185303,102487.90000009537,8018,window,AF,A,,,,,,,,,,7
8,prac,1,inc,1,z,Thu Oct 23 2025 18:13:25 GMT-0500 (Central Daylight Time),108348.09999990463,film,900,I,z,,,677,,,14,3,2877.5999999046326,105470.5,8018,hate,AF,A,,,,,,,,,,8
9,prac,1,con,1,m,Thu Oct 23 2025 18:13:25 GMT-0500 (Central Daylight Time),110930.7999997139,jacket,800,I,m,,,480,,,5,3,2578.199999809265,108352.59999990463,8018,jacket,AF,A,,,,,,,,,,9
10,prac,1,con,1,m,Thu Oct 23 2025 18:13:25 GMT-0500 (Central Daylight Time),113679.7999997139,remote,1000,I,m,,,440,,,7,3,2744.0999999046326,110935.69999980927,8018,remote,AF,A,,,,,,,,,,10
11,prac,1,con,1,z,Thu Oct 23 2025 18:13:25 GMT-0500 (Central Daylight Time),116529.19999980927,love,1000,I,z,,,539,,,11,3,2844.4000000953674,113684.7999997139,8018,love,AF,A,,,,,,,,,,11
12,prac,1,con,1,z,Thu Oct 23 2025 18:13:25 GMT-0500 (Central Daylight Time),119111.40000009537,elated,800,I,z,,,482,,,9,3,2576.800000190735,116534.59999990463,8018,elated,AF,A,,,,,,,,,,12
13,prac,1,inc,1,z,Thu Oct 23 2025 18:13:25 GMT-0500 (Central Daylight Time),122294.0,napkin,1100,I,z,,,766,,,12,3,3178.4000000953674,119115.59999990463,8018,friend,AF,A,,,,,,,,,,13
14,prac,1,inc,1,m,Thu Oct 23 2025 18:13:25 GMT-0500 (Central Daylight Time),125226.40000009537,elated,900,I,m,,,729,,,6,3,2928.5,122297.90000009537,8018,napkin,AF,A,,,,,,,,,,14
14,prac,1,inc,0,m,Thu Oct 23 2025 18:13:25 GMT-0500 (Central Daylight Time),128158.90000009537,hate,1100,I,z,,,518,,,4,3,2928.4000000953674,125230.5,8018,film,AF,A,,,,,,,,,,15
14,prac,1,inc,0,m,Thu Oct 23 2025 18:13:25 GMT-0500 (Central Daylight Time),133123.69999980927,kind,900,I,None,,,1799,,,2,3,4960.5,128163.19999980927,8018,rock,AF,A,,,,,,,,,,16
1,test,1,inc,1,m,Thu Oct 23 2025 18:13:25 GMT-0500 (Central Daylight Time),143420.59999990463,temper,1000,I,m,m,None,705,505.0,200.0,111,3,2246.300000190735,141174.2999997139,8018,napkin,AF,A,138957,138957,137227,138241,137228,139474,138757,138757,139474,1
2,test,1,inc,1,m,Thu Oct 23 2025 18:13:25 GMT-0500 (Central Daylight Time),145636.40000009537,friend,1100,I,m,m,None,578,378.0,200.0,104,3,2211.2000002861023,143425.19999980927,8018,jacket,AF,A,141306,141307,139478,140590,139479,141689,141106,141106,141689,2
3,test,1,inc,1,m,Thu Oct 23 2025 18:13:25 GMT-0500 (Central Daylight Time),147885.59999990463,friend,1100,I,m,m,None,612,412.0,200.0,128,3,2244.5999999046326,145641.0,8018,window,AF,A,143522,143522,141694,142806,141694,143939,143322,143322,143939,3
4,test,1,con,1,z,Thu Oct 23 2025 18:13:25 GMT-0500 (Central Daylight Time),149901.7999997139,kind,1000,I,z,z,None,470,270.0,200.0,11,3,2012.0,147889.7999997139,8018,kind,AF,A,145672,145672,143943,144955,143943,145955,145472,145472,145955,4
5,test,1,con,1,m,Thu Oct 23 2025 18:13:25 GMT-0500 (Central Daylight Time),151934.59999990463,step,1000,I,m,m,None,486,286.0,200.0,67,3,2028.0,149906.59999990463,8018,step,AF,A,147688,147688,145960,146971,145960,147988,147488,147488,147988,5
6,test,1,con,1,m,Thu Oct 23 2025 18:13:25 GMT-0500 (Central Daylight Time),153767.40000009537,bell,800,I,m,m,None,483,284.0,199.0,81,3,1829.0,151938.40000009537,8018,bell,AF,A,149521,149521,147991,148804,147992,149820,149321,149321,149820,6
7,test,1,inc,1,z,Thu Oct 23 2025 18:13:25 GMT-0500 (Central Daylight Time),155733.2999997139,rock,900,I,z,z,None,519,320.0,199.0,14,3,1961.0,153772.2999997139,8018,kind,AF,A,151453,151453,149825,150737,149826,151786,151254,151254,151786,7
8,test,1,con,1,z,Thu Oct 23 2025 18:13:25 GMT-0500 (Central Daylight Time),157849.40000009537,elated,1100,I,z,z,None,474,274.0,200.0,4,3,2111.9000000953674,155737.5,8018,elated,AF,A,153619,153619,151791,152903,151791,153902,153419,153419,153902,8
9,test,1,con,1,z,Thu Oct 23 2025 18:13:25 GMT-0500 (Central Daylight Time),160331.7999997139,brutal,1100,I,z,z,None,846,646.0,200.0,36,3,2478.199999809265,157853.59999990463,8018,brutal,AF,A,155735,155735,153907,155019,153907,156385,155535,155535,156385,9
10,test,1,con,1,m,Thu Oct 23 2025 18:13:25 GMT-0500 (Central Daylight Time),162147.90000009537,step,800,I,m,m,None,480,280.0,200.0,65,3,1812.1000003814697,160335.7999997139,8018,step,AF,A,157918,157918,156389,157202,156389,158201,157718,157718,158201,10
11,test,1,inc,1,m,Thu Oct 23 2025 18:13:25 GMT-0500 (Central Daylight Time),164263.90000009537,kind,900,I,m,m,None,617,417.0,200.0,78,3,2111.6000003814697,162152.2999997139,8018,rock,AF,A,159884,159884,158205,159181,158206,160317,159684,159684,160317,11
12,test,1,con,1,m,Thu Oct 23 2025 18:13:25 GMT-0500 (Central Daylight Time),166130.19999980927,window,900,I,m,m,None,431,231.0,200.0,122,3,1861.7999997138977,164268.40000009537,8018,window,AF,A,161950,161950,160321,161234,160322,162183,161750,161750,162183,12
13,test,1,con,1,m,Thu Oct 23 2025 18:13:25 GMT-0500 (Central Daylight Time),168296.0,rock,1000,I,m,m,None,617,417.0,200.0,75,3,2161.800000190735,166134.19999980927,8018,rock,AF,A,163916,163916,162187,163200,162187,164349,163716,163716,164349,13
14,test,1,inc,1,z,Thu Oct 23 2025 18:13:25 GMT-0500 (Central Daylight Time),170428.69999980927,bell,1000,I,z,z,None,595,395.0,200.0,47,3,2128.5999999046326,168300.09999990463,8018,hate,AF,A,166082,166082,164353,165366,164353,166482,165882,165882,166482,14
15,test,1,con,1,m,Thu Oct 23 2025 18:13:25 GMT-0500 (Central Daylight Time),172328.40000009537,film,800,I,m,m,None,559,359.0,200.0,89,3,1895.5,170432.90000009537,8018,film,AF,A,168015,168015,166486,167298,166486,168381,167815,167815,168381,15
16,test,1,con,1,z,Thu Oct 23 2025 18:13:25 GMT-0500 (Central Daylight Time),174094.09999990463,love,800,I,z,z,None,428,228.0,200.0,17,3,1761.9000000953674,172332.19999980927,8018,love,AF,A,169914,169914,168385,169198,168386,170147,169714,169714,170147,16
17,test,1,inc,1,z,Thu Oct 23 2025 18:13:25 GMT-0500 (Central Daylight Time),176110.2999997139,jacket,800,I,z,z,None,670,470.0,200.0,37,3,2012.1999998092651,174098.09999990463,8018,brutal,AF,A,171680,171680,170151,170964,170151,172163,171480,171480,172163,17
18,test,1,con,1,m,Thu Oct 23 2025 18:13:25 GMT-0500 (Central Daylight Time),178042.90000009537,film,900,I,m,m,None,498,298.0,200.0,90,3,1928.5,176114.40000009537,8018,film,AF,A,173796,173796,172167,173080,172168,174096,173596,173596,174096,18
19,test,1,con,1,z,Thu Oct 23 2025 18:13:25 GMT-0500 (Central Daylight Time),179826.7999997139,temper,800,I,z,z,None,449,249.0,200.0,57,3,1779.5999999046326,178047.19999980927,8018,temper,AF,A,175629,175629,174100,174913,174100,175880,175429,175429,175880,19
20,test,1,con,1,m,Thu Oct 23 2025 18:13:25 GMT-0500 (Central Daylight Time),181941.90000009537,jacket,1100,I,m,m,None,494,295.0,199.0,100,3,2110.9000000953674,179831.0,8018,jacket,AF,A,177695,177695,175884,176995,175884,177995,177496,177496,177995,20
21,test,1,con,1,z,Thu Oct 23 2025 18:13:25 GMT-0500 (Central Daylight Time),183824.59999990463,love,900,I,z,z,None,434,234.0,200.0,18,3,1878.5,181946.09999990463,8018,love,AF,A,179628,179628,177999,178911,177999,179878,179428,179428,179878,21
22,test,1,inc,1,m,Thu Oct 23 2025 18:13:25 GMT-0500 (Central Daylight Time),185707.09999990463,elated,800,I,m,m,None,546,347.0,199.0,101,3,1877.0,183830.09999990463,8018,jacket,AF,A,181411,181411,179883,180694,179884,181760,181211,181211,181760,22
23,test,1,inc,1,z,Thu Oct 23 2025 18:13:25 GMT-0500 (Central Daylight Time),188073.09999990463,napkin,900,I,z,z,None,831,632.0,199.0,62,3,2362.300000190735,185710.7999997139,8018,temper,AF,A,183493,183493,181764,182789,181764,184126,183293,183294,184126,23
24,test,1,inc,1,z,Thu Oct 23 2025 18:13:25 GMT-0500 (Central Daylight Time),190155.69999980927,napkin,900,I,z,z,None,647,447.0,200.0,38,3,2078.199999809265,188077.5,8018,brutal,AF,A,185759,185759,184131,185043,184131,186209,185559,185559,186209,24
25,test,1,con,1,z,Thu Oct 23 2025 18:13:25 GMT-0500 (Central Daylight Time),192205.19999980927,love,1000,I,z,z,None,503,304.0,199.0,19,3,2045.5999999046326,190159.59999990463,8018,love,AF,A,187942,187942,186213,187225,186213,188258,187742,187742,188258,25
26,test,1,inc,1,z,Thu Oct 23 2025 18:13:25 GMT-0500 (Central Daylight Time),194137.90000009537,jacket,800,I,z,z,None,589,388.0,201.0,61,3,1928.5,192209.40000009537,8018,temper,AF,A,189793,189793,188262,189075,188263,190191,189591,189591,190191,26
27,test,1,con,1,z,Thu Oct 23 2025 18:13:25 GMT-0500 (Central Daylight Time),196237.2999997139,temper,900,I,z,z,None,662,462.0,200.0,58,3,2095.3999996185303,194141.90000009537,8018,temper,AF,A,191824,191824,190195,191108,190195,192290,191624,191624,192290,27
28,test,1,inc,1,m,Thu Oct 23 2025 18:13:25 GMT-0500 (Central Daylight Time),198436.69999980927,love,1000,I,m,m,None,655,455.0,200.0,95,3,2195.2999997138977,196241.40000009537,8018,film,AF,A,194023,194023,192294,193307,192295,194490,193823,193823,194490,28
29,test,1,con,1,m,Thu Oct 23 2025 18:13:25 GMT-0500 (Central Daylight Time),200535.90000009537,jacket,1000,I,m,m,None,557,358.0,199.0,99,3,2095.300000190735,198440.59999990463,8018,jacket,AF,A,196223,196223,194494,195506,194494,196589,196023,196023,196589,29
30,test,1,con,1,z,Thu Oct 23 2025 18:13:25 GMT-0500 (Central Daylight Time),202518.69999980927,rage,1000,I,z,z,None,443,244.0,199.0,51,3,1978.7999997138977,200539.90000009537,8018,rage,AF,A,198322,198322,196593,197605,196593,198572,198122,198122,198572,30
31,test,1,con,1,z,Thu Oct 23 2025 18:13:25 GMT-0500 (Central Daylight Time),204718.0,hate,900,I,z,z,None,752,553.0,199.0,42,3,2194.800000190735,202523.19999980927,8018,hate,AF,A,200204,200205,198576,199488,198576,200771,200005,200005,200771,31
32,test,1,con,1,m,Thu Oct 23 2025 18:13:25 GMT-0500 (Central Daylight Time),206550.59999990463,jacket,800,I,m,m,None,494,293.0,201.0,97,3,1828.9000000953674,204721.69999980927,8018,jacket,AF,A,202305,202305,200775,201587,200775,202604,202104,202104,202604,32
33,test,1,con,1,z,Thu Oct 23 2025 18:13:25 GMT-0500 (Central Daylight Time),208416.90000009537,rage,900,I,z,z,None,433,233.0,200.0,50,3,1862.6000003814697,206554.2999997139,8018,rage,AF,A,204237,204237,202607,203520,202608,204470,204037,204037,204470,33
34,test,1,inc,1,m,Thu Oct 23 2025 18:13:25 GMT-0500 (Central Daylight Time),210649.69999980927,temper,1000,I,m,m,None,690,491.0,199.0,119,3,2229.0999999046326,208420.59999990463,8018,remote,AF,A,206203,206203,204474,205486,204474,206703,206003,206003,206703,34
35,test,1,inc,1,m,Thu Oct 23 2025 18:13:25 GMT-0500 (Central Daylight Time),212948.59999990463,hate,1100,I,m,m,None,661,462.0,199.0,72,3,2294.300000190735,210654.2999997139,8018,step,AF,A,208536,208536,206707,207819,206708,209002,208336,208336,209002,35
36,test,1,con,1,m,Thu Oct 23 2025 18:13:25 GMT-0500 (Central Daylight Time),215081.0,step,1100,I,m,m,None,497,298.0,199.0,68,3,2128.5,212952.5,8018,step,AF,A,210835,210835,209006,210118,209006,211134,210635,210635,211134,36
37,test,1,con,1,m,Thu Oct 23 2025 18:13:25 GMT-0500 (Central Daylight Time),217080.59999990463,bell,1000,I,m,m,None,480,265.0,215.0,83,3,1995.9000000953674,215084.69999980927,8018,bell,AF,A,212867,212868,211138,212151,211138,213134,212652,212652,213134,37
38,test,1,inc,1,m,Thu Oct 23 2025 18:13:25 GMT-0500 (Central Daylight Time),219230.0,brutal,900,I,m,m,None,710,511.0,199.0,118,3,2145.800000190735,217084.19999980927,8018,remote,AF,A,214767,214767,213137,214051,213138,215283,214567,214567,215283,38
39,test,1,con,1,z,Thu Oct 23 2025 18:13:25 GMT-0500 (Central Daylight Time),221312.90000009537,love,1100,I,z,z,None,457,258.0,199.0,20,3,2079.1000003814697,219233.7999997139,8018,love,AF,A,217099,217099,215287,216399,215287,217366,216900,216900,217366,39
40,test,1,inc,1,z,Thu Oct 23 2025 18:13:25 GMT-0500 (Central Daylight Time),223378.7999997139,step,800,I,z,z,None,731,531.0,200.0,13,3,2061.5,221317.2999997139,8018,kind,AF,A,218899,218899,217370,218183,217371,219432,218699,218699,219432,40
41,test,1,inc,1,m,Thu Oct 23 2025 18:13:25 GMT-0500 (Central Daylight Time),225344.5,rage,800,I,m,m,None,624,424.0,200.0,85,3,1961.9000000953674,223382.59999990463,8018,bell,AF,A,220965,220965,219436,220249,219436,221398,220765,220765,221398,41
42,test,1,con,1,m,Thu Oct 23 2025 18:13:25 GMT-0500 (Central Daylight Time),227677.2999997139,film,1000,I,m,m,None,795,595.0,200.0,91,3,2329.0,225348.2999997139,8018,film,AF,A,223131,223131,221401,222415,221402,223730,222931,222931,223730,42
43,test,1,inc,1,z,Thu Oct 23 2025 18:13:25 GMT-0500 (Central Daylight Time),229926.69999980927,film,1100,I,z,z,None,610,411.0,199.0,24,3,2245.2999997138977,227681.40000009537,8018,love,AF,A,225563,225563,223734,224847,223735,225980,225364,225364,225980,43
44,test,1,con,1,z,Thu Oct 23 2025 18:13:25 GMT-0500 (Central Daylight Time),232326.0,rage,1100,I,z,z,None,759,560.0,199.0,52,3,2395.5,229930.5,8018,rage,AF,A,227813,227813,225984,227096,225984,228379,227613,227613,228379,44
45,test,1,con,1,z,Thu Oct 23 2025 18:13:25 GMT-0500 (Central Daylight Time),234408.90000009537,kind,900,I,z,z,None,533,331.0,202.0,10,3,2079.0,232329.90000009537,8018,kind,AF,A,230115,230115,228383,229296,228383,230462,229910,229910,230462,45
46,test,1,con,1,z,Thu Oct 23 2025 18:13:25 GMT-0500 (Central Daylight Time),236491.2999997139,friend,900,I,z,z,None,646,447.0,199.0,26,3,2078.5,234412.7999997139,8018,friend,AF,A,232095,232095,230466,231378,230466,232544,231895,231895,232544,46
47,test,1,con,1,z,Thu Oct 23 2025 18:13:25 GMT-0500 (Central Daylight Time),238574.09999990463,friend,1000,I,z,z,None,545,345.0,200.0,27,3,2078.199999809265,236495.90000009537,8018,friend,AF,A,234277,234277,232549,233561,232549,234627,234077,234077,234627,47
48,test,1,inc,1,z,Thu Oct 23 2025 18:13:25 GMT-0500 (Central Daylight Time),240874.40000009537,remote,1000,I,z,z,None,765,565.0,200.0,63,3,2296.6000003814697,238577.7999997139,8018,temper,AF,A,236360,236360,234631,235644,234631,236927,236160,236160,236927,48
49,test,1,inc,1,z,Thu Oct 23 2025 18:13:25 GMT-0500 (Central Daylight Time),242872.5,rock,900,I,z,z,None,565,365.0,200.0,22,3,1994.2000002861023,240878.2999997139,8018,love,AF,A,238559,238560,236931,237843,236931,238926,238359,238359,238926,49
50,test,1,con,1,m,Thu Oct 23 2025 18:13:25 GMT-0500 (Central Daylight Time),244872.0,bell,900,I,m,m,None,550,350.0,200.0,82,3,1995.7000002861023,242876.2999997139,8018,bell,AF,A,240559,240559,238929,239842,238930,240925,240359,240359,240925,50
51,test,1,con,1,z,Thu Oct 23 2025 18:13:25 GMT-0500 (Central Daylight Time),246938.0,hate,1000,I,z,z,None,531,331.0,200.0,43,3,2062.2000002861023,244875.7999997139,8018,hate,AF,A,242658,242658,240929,241942,240929,242991,242458,242458,242991,51
52,test,1,con,1,m,Thu Oct 23 2025 18:13:25 GMT-0500 (Central Daylight Time),248820.90000009537,rock,800,I,m,m,None,538,338.0,200.0,73,3,1878.8000001907349,246942.09999990463,8018,rock,AF,A,244524,244524,242995,243807,242995,244874,244324,244324,244874,52
53,test,1,inc,1,z,Thu Oct 23 2025 18:13:25 GMT-0500 (Central Daylight Time),251086.90000009537,remote,1000,I,z,z,None,725,526.0,199.0,39,3,2262.1000003814697,248824.7999997139,8018,brutal,AF,A,246607,246607,244878,245890,244878,247140,246407,246407,247140,53
54,test,1,con,1,z,Thu Oct 23 2025 18:13:25 GMT-0500 (Central Daylight Time),253169.09999990463,elated,1000,I,z,z,None,548,348.0,200.0,3,3,2078.300000190735,251090.7999997139,8018,elated,AF,A,248873,248873,247144,248156,247144,249222,248673,248673,249222,54
55,test,1,inc,1,z,Thu Oct 23 2025 18:13:25 GMT-0500 (Central Daylight Time),255485.5,film,1100,I,z,z,None,671,470.0,201.0,16,3,2312.5,253173.0,8018,kind,AF,A,251056,251056,249226,250339,249227,251539,250855,250855,251538,55
56,test,1,con,1,m,Thu Oct 23 2025 18:13:25 GMT-0500 (Central Daylight Time),257301.2999997139,window,800,I,m,m,None,470,270.0,200.0,121,3,1812.0,255489.2999997139,8018,window,AF,A,253071,253071,251542,252355,251543,253354,252871,252871,253354,56
57,test,1,con,1,z,Thu Oct 23 2025 18:13:25 GMT-0500 (Central Daylight Time),259434.09999990463,hate,1100,I,z,z,None,498,298.0,200.0,44,3,2129.0999999046326,257305.0,8018,hate,AF,A,255187,255187,253358,254471,253358,255487,254987,254987,255487,57
58,test,1,con,1,m,Thu Oct 23 2025 18:13:25 GMT-0500 (Central Daylight Time),261651.19999980927,napkin,1100,I,m,m,None,582,381.0,201.0,108,3,2213.4000000953674,259437.7999997139,8018,napkin,AF,A,257321,257321,255491,256604,255491,257704,257120,257120,257704,58
58,test,1,inc,0,m,Thu Oct 23 2025 18:13:25 GMT-0500 (Central Daylight Time),263549.7999997139,kind,900,I,z,z,None,453,253.0,200.0,94,3,1894.1999998092651,261655.59999990463,8018,film,AF,A,259336,259336,257709,258620,257709,259603,259136,259136,259603,59
59,test,1,inc,1,m,Thu Oct 23 2025 18:13:25 GMT-0500 (Central Daylight Time),265748.7999997139,love,1000,I,m,m,None,661,461.0,200.0,71,3,2195.2999997138977,263553.5,8018,step,AF,A,261336,261336,259607,260619,259607,261802,261135,261135,261802,60
60,test,1,inc,1,z,Thu Oct 23 2025 18:13:25 GMT-0500 (Central Daylight Time),267831.5,rock,900,I,z,z,None,633,434.0,199.0,46,3,2078.7000002861023,265752.7999997139,8018,hate,AF,A,263435,263435,261806,262718,261806,263885,263235,263235,263885,61
61,test,1,con,1,z,Thu Oct 23 2025 18:13:25 GMT-0500 (Central Daylight Time),269680.7999997139,kind,800,I,z,z,None,514,315.0,199.0,9,3,1845.5,267835.2999997139,8018,kind,AF,A,265418,265418,263888,264701,263889,265734,265218,265218,265734,62
62,test,1,inc,1,m,Thu Oct 23 2025 18:13:25 GMT-0500 (Central Daylight Time),271830.19999980927,temper,1000,I,m,m,None,610,410.0,200.0,103,3,2145.5,269684.69999980927,8018,jacket,AF,A,267467,267467,265738,266751,265738,267883,267267,267267,267883,63
63,test,1,inc,1,m,Thu Oct 23 2025 18:13:25 GMT-0500 (Central Daylight Time),274046.19999980927,brutal,900,I,m,m,None,770,570.0,200.0,126,3,2212.0,271834.19999980927,8018,window,AF,A,269516,269516,267887,268800,267888,270099,269316,269316,270099,64
64,test,1,inc,1,m,Thu Oct 23 2025 18:13:25 GMT-0500 (Central Daylight Time),276378.69999980927,hate,1100,I,m,m,None,689,489.0,200.0,80,3,2328.5,274050.19999980927,8018,rock,AF,A,271932,271932,270103,271216,270103,272432,271732,271732,272432,65
65,test,1,inc,1,z,Thu Oct 23 2025 18:13:25 GMT-0500 (Central Daylight Time),278778.19999980927,window,1100,I,z,z,None,755,556.0,199.0,8,3,2395.5,276382.69999980927,8018,elated,AF,A,274265,274265,272436,273548,272436,274831,274065,274065,274831,66
66,test,1,inc,1,m,Thu Oct 23 2025 18:13:25 GMT-0500 (Central Daylight Time),281393.69999980927,hate,1100,I,m,m,None,981,781.0,200.0,88,3,2611.5,278782.19999980927,8018,bell,AF,A,276664,276664,274835,275948,274836,277447,276464,276464,277447,67
66,test,1,con,0,z,Thu Oct 23 2025 18:13:25 GMT-0500 (Central Daylight Time),285026.09999990463,kind,1100,I,None,None,None,1799,1799.0,199.0,12,3,3628.5999999046326,281397.5,8018,kind,AF,A,279280,279280,277451,278564,277451,281079,279080,279080,281079,68
67,test,1,con,1,m,Thu Oct 23 2025 18:13:25 GMT-0500 (Central Daylight Time),287408.59999990463,remote,1100,I,m,m,None,742,542.0,200.0,116,3,2378.4000000953674,285030.19999980927,8018,remote,AF,A,282912,282912,281083,282196,281083,283462,282712,282712,283462,69
67,test,1,inc,0,m,Thu Oct 23 2025 18:13:25 GMT-0500 (Central Daylight Time),289558.0,rage,800,I,z,z,None,827,628.0,199.0,93,3,2145.7000002861023,287412.2999997139,8018,film,AF,A,284978,284978,283465,284278,283466,285611,284779,284779,285611,70
68,test,1,inc,1,z,Thu Oct 23 2025 18:13:25 GMT-0500 (Central Daylight Time),291640.5,napkin,900,I,z,z,None,634,434.0,200.0,6,3,2078.800000190735,289561.69999980927,8018,elated,AF,A,287244,287244,285615,286528,285615,287694,287044,287044,287694,71
69,test,1,inc,1,z,Thu Oct 23 2025 18:13:25 GMT-0500 (Central Daylight Time),293990.09999990463,film,1100,I,z,z,None,701,502.0,199.0,48,3,2346.0,291644.09999990463,8018,hate,AF,A,289527,289527,287697,288810,287697,290043,289327,289327,290043,72
70,test,1,inc,1,m,Thu Oct 23 2025 18:13:25 GMT-0500 (Central Daylight Time),296339.09999990463,friend,1100,I,m,m,None,713,513.0,200.0,120,3,2345.300000190735,293993.7999997139,8018,remote,AF,A,291876,291876,290047,291160,290047,292392,291676,291676,292392,73
71,test,1,con,1,z,Thu Oct 23 2025 18:13:25 GMT-0500 (Central Daylight Time),298222.09999990463,brutal,800,I,z,z,None,537,337.0,200.0,33,3,1879.0999999046326,296343.0,8018,brutal,AF,A,293925,293925,292396,293209,292396,294275,293725,293725,294275,74
72,test,1,con,1,m,Thu Oct 23 2025 18:13:25 GMT-0500 (Central Daylight Time),300237.7999997139,remote,1000,I,m,m,None,478,278.0,200.0,115,3,2012.0,298225.7999997139,8018,remote,AF,A,296008,296008,294279,295292,294279,296291,295808,295808,296291,75
73,test,1,con,1,z,Thu Oct 23 2025 18:13:25 GMT-0500 (Central Daylight Time),302154.09999990463,rage,800,I,z,z,None,582,382.0,200.0,49,3,1912.3000001907349,300241.7999997139,8018,rage,AF,A,297824,297824,296295,297107,296295,298207,297624,297624,298207,76
74,test,1,inc,1,m,Thu Oct 23 2025 18:13:25 GMT-0500 (Central Daylight Time),304120.2999997139,rage,800,I,m,m,None,616,417.0,199.0,77,3,1962.3999996185303,302157.90000009537,8018,rock,AF,A,299740,299740,298211,299024,298211,300173,299541,299541,300173,77
75,test,1,inc,1,m,Thu Oct 23 2025 18:13:25 GMT-0500 (Central Daylight Time),306252.7999997139,brutal,900,I,m,m,None,687,487.0,200.0,102,3,2128.5999999046326,304124.19999980927,8018,jacket,AF,A,301806,301806,300177,301090,300177,302306,301606,301606,302306,78
76,test,1,con,1,m,Thu Oct 23 2025 18:13:25 GMT-0500 (Central Daylight Time),308818.69999980927,rock,1100,I,m,m,None,922,723.0,199.0,76,3,2561.9000000953674,306256.7999997139,8018,rock,AF,A,304139,304139,302310,303422,302310,304872,303939,303939,304872,79
77,test,1,inc,1,z,Thu Oct 23 2025 18:13:25 GMT-0500 (Central Daylight Time),310801.40000009537,step,800,I,z,z,None,640,440.0,200.0,45,3,1978.4000000953674,308823.0,8018,hate,AF,A,306405,306405,304876,305688,304876,306855,306205,306205,306854,80
77,test,1,inc,0,z,Thu Oct 23 2025 18:13:25 GMT-0500 (Central Daylight Time),312917.2999997139,bell,1000,I,m,m,None,570,370.0,200.0,55,3,2112.0999999046326,310805.19999980927,8018,rage,AF,A,308587,308588,306858,307871,306858,308970,308387,308387,308970,81
78,test,1,inc,1,m,Thu Oct 23 2025 18:13:25 GMT-0500 (Central Daylight Time),314950.19999980927,kind,900,I,m,m,None,586,387.0,199.0,70,3,2029.0,312921.19999980927,8018,step,AF,A,310603,310603,308974,309887,308974,311003,310404,310404,311003,82
79,test,1,con,1,m,Thu Oct 23 2025 18:13:25 GMT-0500 (Central Daylight Time),317099.2999997139,step,900,I,m,m,None,713,513.0,200.0,66,3,2145.0999999046326,314954.19999980927,8018,step,AF,A,312636,312636,311007,311920,311007,313152,312436,312436,313152,83
80,test,1,inc,1,z,Thu Oct 23 2025 18:13:25 GMT-0500 (Central Daylight Time),319615.0,film,1100,I,z,z,None,866,667.0,199.0,56,3,2512.0999999046326,317102.90000009537,8018,rage,AF,A,314986,314986,313156,314269,313156,315668,314786,314786,315668,84
81,test,1,con,1,z,Thu Oct 23 2025 18:13:25 GMT-0500 (Central Daylight Time),321981.2999997139,friend,1100,I,z,z,None,720,520.0,200.0,28,3,2362.2999997138977,319619.0,8018,friend,AF,A,317501,317501,315672,316785,315672,318034,317301,317301,318034,85
82,test,1,con,1,m,Thu Oct 23 2025 18:13:25 GMT-0500 (Central Daylight Time),324430.5,film,1100,I,m,m,None,802,602.0,200.0,92,3,2445.0999999046326,321985.40000009537,8018,film,AF,A,319867,319867,318038,319150,318039,320484,319667,319667,320484,86
83,test,1,inc,1,z,Thu Oct 23 2025 18:13:25 GMT-0500 (Central Daylight Time),326613.19999980927,remote,1000,I,z,z,None,636,436.0,200.0,31,3,2179.0,324434.19999980927,8018,friend,AF,A,322217,322217,320487,321500,320487,322666,322016,322016,322666,87
84,test,1,inc,1,m,Thu Oct 23 2025 18:13:25 GMT-0500 (Central Daylight Time),328879.0,temper,1000,I,m,m,None,679,474.0,205.0,127,3,2262.300000190735,326616.69999980927,8018,window,AF,A,324451,324451,322670,323683,322670,324932,324246,324246,324932,88
85,test,1,con,1,m,Thu Oct 23 2025 18:13:25 GMT-0500 (Central Daylight Time),330994.90000009537,rock,900,I,m,m,None,680,480.0,200.0,74,3,2112.300000190735,328882.59999990463,8018,rock,AF,A,326565,326565,324936,325849,324936,327048,326365,326365,327048,89
86,test,1,con,1,z,Thu Oct 23 2025 18:13:25 GMT-0500 (Central Daylight Time),332894.19999980927,hate,800,I,z,z,None,560,360.0,200.0,41,3,1895.2999997138977,330998.90000009537,8018,hate,AF,A,328581,328581,327052,327865,327052,328947,328381,328381,328947,90
87,test,1,inc,1,z,Thu Oct 23 2025 18:13:25 GMT-0500 (Central Daylight Time),335178.09999990463,window,1100,I,z,z,None,649,450.0,199.0,40,3,2279.5999999046326,332898.5,8018,brutal,AF,A,330764,330764,328952,330064,328952,331231,330565,330565,331231,91
88,test,1,inc,1,m,Thu Oct 23 2025 18:13:25 GMT-0500 (Central Daylight Time),337226.09999990463,elated,800,I,m,m,None,707,507.0,200.0,109,3,2044.1999998092651,335181.90000009537,8018,napkin,AF,A,332763,332763,331235,332047,331235,333279,332563,332563,333279,92
89,test,1,inc,1,z,Thu Oct 23 2025 18:13:25 GMT-0500 (Central Daylight Time),339275.69999980927,napkin,900,I,z,z,None,612,413.0,199.0,30,3,2046.0,337229.69999980927,8018,friend,AF,A,334912,334912,333283,334196,333283,335329,334713,334713,335329,93
90,test,1,con,1,m,Thu Oct 23 2025 18:13:25 GMT-0500 (Central Daylight Time),341474.7999997139,bell,1100,I,m,m,None,563,364.0,199.0,84,3,2195.0,339279.7999997139,8018,bell,AF,A,337162,337162,335333,336446,335333,337528,336962,336962,337528,94
91,test,1,inc,1,m,Thu Oct 23 2025 18:13:25 GMT-0500 (Central Daylight Time),343775.5,friend,1100,I,m,m,None,660,460.0,200.0,112,3,2297.0999999046326,341478.40000009537,8018,napkin,AF,A,339361,339361,337531,338644,337532,339829,339161,339161,339829,95
92,test,1,inc,1,z,Thu Oct 23 2025 18:13:25 GMT-0500 (Central Daylight Time),346040.19999980927,window,1100,I,z,z,None,617,417.0,200.0,64,3,2260.7999997138977,343779.40000009537,8018,temper,AF,A,341660,341660,339832,340944,339833,342093,341460,341460,342093,96
93,test,1,inc,1,m,Thu Oct 23 2025 18:13:25 GMT-0500 (Central Daylight Time),348256.2999997139,kind,900,I,m,m,None,767,567.0,200.0,86,3,2212.199999809265,346044.09999990463,8018,bell,AF,A,343726,343726,342097,343010,342097,344309,343526,343526,344309,97
94,test,1,inc,1,z,Thu Oct 23 2025 18:13:25 GMT-0500 (Central Daylight Time),350205.69999980927,jacket,800,I,z,z,None,603,403.0,200.0,5,3,1945.5,348260.19999980927,8018,elated,AF,A,345842,345842,344313,345126,344313,346259,345642,345642,346259,98
95,test,1,inc,1,z,Thu Oct 23 2025 18:13:25 GMT-0500 (Central Daylight Time),352221.69999980927,step,800,I,z,z,None,668,469.0,199.0,53,3,2012.0999999046326,350209.59999990463,8018,rage,AF,A,347792,347792,346263,347075,346263,348275,347592,347592,348275,99
96,test,1,con,1,z,Thu Oct 23 2025 18:13:25 GMT-0500 (Central Daylight Time),354571.0,temper,1100,I,z,z,None,713,513.0,200.0,60,3,2345.2000002861023,352225.7999997139,8018,temper,AF,A,350108,350108,348279,349391,348279,350624,349908,349908,350624,100
97,test,1,con,1,m,Thu Oct 23 2025 18:13:25 GMT-0500 (Central Daylight Time),356437.19999980927,napkin,800,I,m,m,None,529,329.0,200.0,105,3,1862.6999998092651,354574.5,8018,napkin,AF,A,352157,352157,350628,351440,350628,352490,351957,351957,352490,101
98,test,1,con,1,z,Thu Oct 23 2025 18:13:25 GMT-0500 (Central Daylight Time),358819.59999990463,brutal,1000,I,z,z,None,838,638.0,200.0,35,3,2378.5999999046326,356441.0,8018,brutal,AF,A,354223,354224,352494,353506,352494,354873,354023,354023,354873,102
99,test,1,inc,1,m,Thu Oct 23 2025 18:13:25 GMT-0500 (Central Daylight Time),360835.69999980927,elated,800,I,m,m,None,687,488.0,199.0,117,3,2012.1999998092651,358823.5,8018,remote,AF,A,356389,356389,354877,355689,354877,356889,356190,356190,356889,103
100,test,1,inc,1,z,Thu Oct 23 2025 18:13:25 GMT-0500 (Central Daylight Time),362884.90000009537,step,800,I,z,z,None,703,503.0,200.0,21,3,2045.5,360839.40000009537,8018,love,AF,A,358422,358422,356892,357705,356893,358938,358222,358222,358938,104
101,test,1,inc,1,m,Thu Oct 23 2025 18:13:25 GMT-0500 (Central Daylight Time),364867.59999990463,rage,800,I,m,m,None,646,446.0,200.0,69,3,1978.8000001907349,362888.7999997139,8018,step,AF,A,360471,360471,358942,359755,358942,360921,360271,360271,360921,105
102,test,1,con,1,z,Thu Oct 23 2025 18:13:25 GMT-0500 (Central Daylight Time),367016.90000009537,elated,800,I,z,z,None,807,607.0,200.0,1,3,2145.6000003814697,364871.2999997139,8018,elated,AF,A,362454,362454,360924,361737,360925,363070,362254,362254,363070,106
103,test,1,con,1,m,Thu Oct 23 2025 18:13:25 GMT-0500 (Central Daylight Time),369699.2999997139,napkin,1000,I,m,m,None,1146,946.0,200.0,107,3,2678.8999996185303,367020.40000009537,8018,napkin,AF,A,364803,364803,363073,364087,363074,365752,364603,364603,365752,107
104,test,1,con,1,m,Thu Oct 23 2025 18:13:25 GMT-0500 (Central Daylight Time),371832.2999997139,window,1100,I,m,m,None,490,291.0,199.0,124,3,2129.199999809265,369703.09999990463,8018,window,AF,A,367586,367586,365756,366869,365756,367885,367386,367386,367885,108
105,test,1,con,1,m,Thu Oct 23 2025 18:13:25 GMT-0500 (Central Daylight Time),373764.7999997139,remote,800,I,m,m,None,595,395.0,200.0,113,3,1928.3999996185303,371836.40000009537,8018,remote,AF,A,369418,369418,367889,368702,367890,369818,369218,369218,369818,109
106,test,1,inc,1,m,Thu Oct 23 2025 18:13:25 GMT-0500 (Central Daylight Time),375964.2999997139,brutal,900,I,m,m,None,642,438.0,204.0,110,3,2195.2999997138977,373769.0,8018,napkin,AF,A,371567,371567,369822,370734,369822,372017,371363,371363,372017,110
107,test,1,inc,1,m,Thu Oct 23 2025 18:13:25 GMT-0500 (Central Daylight Time),378130.19999980927,love,1000,I,m,m,None,623,423.0,200.0,79,3,2161.9000000953674,375968.2999997139,8018,rock,AF,A,373750,373750,372021,373034,372022,374183,373550,373550,374183,111
108,test,1,inc,1,z,Thu Oct 23 2025 18:13:25 GMT-0500 (Central Daylight Time),380312.69999980927,bell,1000,I,z,z,None,650,450.0,200.0,15,3,2178.5999999046326,378134.09999990463,8018,kind,AF,A,375916,375916,374187,375200,374187,376366,375716,375716,376366,112
109,test,1,con,1,z,Thu Oct 23 2025 18:13:25 GMT-0500 (Central Daylight Time),382328.59999990463,temper,1000,I,z,z,None,482,281.0,201.0,59,3,2012.0,380316.59999990463,8018,temper,AF,A,378100,378100,376370,377382,376370,378382,377899,377899,378382,113
110,test,1,con,1,m,Thu Oct 23 2025 18:13:25 GMT-0500 (Central Daylight Time),384311.59999990463,window,1000,I,m,m,None,434,234.0,200.0,123,3,1978.9000000953674,382332.69999980927,8018,window,AF,A,380115,380115,378386,379398,378386,380365,379915,379915,380365,114
111,test,1,inc,1,z,Thu Oct 23 2025 18:13:25 GMT-0500 (Central Daylight Time),386327.69999980927,rock,900,I,z,z,None,567,367.0,200.0,54,3,2012.0,384315.69999980927,8018,rage,AF,A,381998,381998,380369,381281,380369,382381,381798,381798,382381,115
112,test,1,con,1,m,Thu Oct 23 2025 18:13:25 GMT-0500 (Central Daylight Time),388276.90000009537,napkin,900,I,m,m,None,511,312.0,199.0,106,3,1945.6000003814697,386331.2999997139,8018,napkin,AF,A,384013,384013,382384,383297,382385,384330,383814,383814,384330,116
113,test,1,inc,1,m,Thu Oct 23 2025 18:13:25 GMT-0500 (Central Daylight Time),390443.0,love,1000,I,m,m,None,630,430.0,200.0,87,3,2162.300000190735,388280.69999980927,8018,bell,AF,A,386063,386063,384334,385347,384334,386496,385863,385863,386496,117
114,test,1,inc,1,z,Thu Oct 23 2025 18:13:25 GMT-0500 (Central Daylight Time),392742.59999990463,window,1100,I,z,z,None,652,452.0,200.0,32,3,2295.9000000953674,390446.69999980927,8018,friend,AF,A,388329,388329,386500,387612,386500,388796,388129,388129,388796,118
115,test,1,inc,1,z,Thu Oct 23 2025 18:13:25 GMT-0500 (Central Daylight Time),395108.09999990463,bell,1000,I,z,z,None,821,621.0,200.0,23,3,2361.699999809265,392746.40000009537,8018,love,AF,A,390528,390528,388799,389812,388800,391161,390328,390328,391161,119
116,test,1,inc,1,m,Thu Oct 23 2025 18:13:25 GMT-0500 (Central Daylight Time),397141.0,elated,800,I,m,m,None,695,495.0,200.0,125,3,2028.5999999046326,395112.40000009537,8018,window,AF,A,392694,392694,391165,391978,391166,393194,392494,392494,393194,120
117,test,1,con,1,m,Thu Oct 23 2025 18:13:25 GMT-0500 (Central Daylight Time),399256.7999997139,jacket,900,I,m,m,None,682,483.0,199.0,98,3,2112.0,397144.7999997139,8018,jacket,AF,A,394827,394827,393198,394110,393198,395310,394627,394627,395310,121
118,test,1,con,1,z,Thu Oct 23 2025 18:13:25 GMT-0500 (Central Daylight Time),401339.69999980927,elated,900,I,z,z,None,647,447.0,200.0,2,3,2079.4000000953674,399260.2999997139,8018,elated,AF,A,396943,396943,395313,396226,395314,397393,396743,396743,397393,122
119,test,1,con,1,m,Thu Oct 23 2025 18:13:25 GMT-0500 (Central Daylight Time),403438.59999990463,remote,900,I,m,m,None,651,451.0,200.0,114,3,2095.300000190735,401343.2999997139,8018,remote,AF,A,399026,399026,397396,398309,397397,399492,398825,398825,399492,123
120,test,1,inc,1,z,Thu Oct 23 2025 18:13:25 GMT-0500 (Central Daylight Time),406004.7999997139,remote,1000,I,z,z,None,1021,821.0,200.0,7,3,2562.3999996185303,403442.40000009537,8018,elated,AF,A,401225,401225,399495,400509,399496,402058,401025,401025,402058,124
121,test,1,con,1,z,Thu Oct 23 2025 18:13:25 GMT-0500 (Central Daylight Time),407854.5,friend,800,I,z,z,None,510,310.0,200.0,25,3,1845.7000002861023,406008.7999997139,8018,friend,AF,A,403591,403591,402062,402874,402062,403908,403391,403391,403907,125
122,test,1,inc,1,m,Thu Oct 23 2025 18:13:25 GMT-0500 (Central Daylight Time),410303.5,hate,1100,I,m,m,None,800,600.0,200.0,96,3,2445.300000190735,407858.19999980927,8018,film,AF,A,405741,405741,403911,405024,403911,406357,405540,405540,406356,126
123,test,1,con,1,z,Thu Oct 23 2025 18:13:25 GMT-0500 (Central Daylight Time),412486.09999990463,brutal,900,I,z,z,None,744,545.0,199.0,34,3,2178.800000190735,410307.2999997139,8018,brutal,AF,A,407989,407989,406360,407273,406361,408539,407790,407790,408539,127
124,test,1,inc,1,z,Thu Oct 23 2025 18:13:25 GMT-0500 (Central Daylight Time),415051.90000009537,jacket,800,I,z,z,None,1229,1029.0,200.0,29,3,2562.1000003814697,412489.7999997139,8018,friend,AF,A,410072,410072,408543,409356,408543,411105,409872,409872,411105,128
