acc_sum,block,block_c,block_cond,con_img,correct,correct_response,datetime,endtime,face,jitter,line,project,response,response_time,row_sel,session_number,start_end,starttime,subject_id,task,task_vers,trial
1,prac,1,A,haborder.png,1,m,Thu Mar 05 2026 15:51:05 GMT-0600 (Central Standard Time),96778.20000001788,CFD-WM-028-005-HC.jpg,1400,solid,O,m,1299,7,1,3498.2000000178814,93280.0,7740,ATS,C,1
2,prac,1,A,haborder.png,1,m,Thu Mar 05 2026 15:51:05 GMT-0600 (Central Standard Time),100478.90000000596,CFD-WM-035-036-HC.jpg,1700,solid,O,m,1202,9,1,7198.9000000059605,93280.0,7740,ATS,C,2
3,prac,1,A,haborder.png,1,m,Thu Mar 05 2026 15:51:05 GMT-0600 (Central Standard Time),103777.80000001192,CFD-WF-013-009-HC.jpg,1500,solid,O,m,1024,11,1,10497.800000011921,93280.0,7740,ATS,C,3
4,prac,1,A,haborder.png,1,m,Thu Mar 05 2026 15:51:05 GMT-0600 (Central Standard Time),107258.0,CFD-BM-034-035-HC.jpg,1700,solid,O,m,998,1,1,13978.0,93280.0,7740,ATS,C,4
5,prac,1,A,haborder.png,1,z,Thu Mar 05 2026 15:51:05 GMT-0600 (Central Standard Time),110373.20000001788,CFD-BF-002-018-A.jpg,1200,solid,O,z,1126,6,1,17093.20000001788,93280.0,7740,ATS,C,5
6,prac,1,A,haborder.png,1,z,Thu Mar 05 2026 15:51:05 GMT-0600 (Central Standard Time),113006.90000000596,CFD-WF-023-013-A.jpg,1000,solid,O,z,840,12,1,19726.90000000596,93280.0,7740,ATS,C,6
7,prac,1,A,haborder.png,1,z,Thu Mar 05 2026 15:51:05 GMT-0600 (Central Standard Time),116419.30000001192,CFD-BM-043-014-A.jpg,1600,solid,O,z,1002,2,1,23139.30000001192,93280.0,7740,ATS,C,7
8,prac,1,A,haborder.png,1,z,Thu Mar 05 2026 15:51:05 GMT-0600 (Central Standard Time),119185.5,CFD-BF-031-020-A.jpg,1000,solid,O,z,974,4,1,25905.5,93280.0,7740,ATS,C,8
9,prac,1,A,haborder.png,1,z,Thu Mar 05 2026 15:51:05 GMT-0600 (Central Standard Time),122436.5,CFD-WF-037-016-A.jpg,1600,solid,O,z,860,10,1,29156.5,93280.0,7740,ATS,C,9
10,prac,1,A,haborder.png,1,z,Thu Mar 05 2026 15:51:05 GMT-0600 (Central Standard Time),126152.70000001788,CFD-WM-036-018-A.jpg,1900,solid,O,z,1038,8,1,32872.70000001788,93280.0,7740,ATS,C,10
11,prac,1,A,haborder.png,1,m,Thu Mar 05 2026 15:51:05 GMT-0600 (Central Standard Time),129335.40000000596,CFD-BM-022-004-HC.jpg,1500,solid,O,m,883,3,1,36055.40000000596,93280.0,7740,ATS,C,11
12,prac,1,A,haborder.png,1,m,Thu Mar 05 2026 15:51:05 GMT-0600 (Central Standard Time),133067.40000000596,CFD-BF-019-004-HC.jpg,2000,solid,O,m,935,5,1,39787.40000000596,93280.0,7740,ATS,C,12
1,prac,1,B,mfborder.png,1,m,Thu Mar 05 2026 15:51:05 GMT-0600 (Central Standard Time),183168.20000001788,CFD-WM-034-040-A.jpg,1200,6,O,m,1415,dash,1,3399.9000000059605,179768.30000001192,7740,ATS,C,1
2,prac,1,B,mfborder.png,1,z,Thu Mar 05 2026 15:51:05 GMT-0600 (Central Standard Time),186650.30000001192,CFD-WF-001-010-HC.jpg,1900,8,O,z,796,dash,1,6882.0,179768.30000001192,7740,ATS,C,2
3,prac,1,B,mfborder.png,1,m,Thu Mar 05 2026 15:51:05 GMT-0600 (Central Standard Time),189616.40000000596,CFD-WM-035-036-HC.jpg,1600,10,O,m,574,dash,1,9848.09999999404,179768.30000001192,7740,ATS,C,3
4,prac,1,B,mfborder.png,1,z,Thu Mar 05 2026 15:51:05 GMT-0600 (Central Standard Time),193131.30000001192,CFD-BF-019-004-HC.jpg,1400,7,O,z,1320,dash,1,13363.0,179768.30000001192,7740,ATS,C,4
5,prac,1,B,mfborder.png,1,m,Thu Mar 05 2026 15:51:05 GMT-0600 (Central Standard Time),196370.09999999404,CFD-BM-022-004-HC.jpg,1700,1,O,m,752,dash,1,16601.79999998212,179768.30000001192,7740,ATS,C,5
6,prac,1,B,mfborder.png,1,m,Thu Mar 05 2026 15:51:05 GMT-0600 (Central Standard Time),200294.90000000596,CFD-BM-043-014-A.jpg,2000,5,O,m,1134,dash,1,20526.59999999404,179768.30000001192,7740,ATS,C,6
7,prac,1,B,mfborder.png,1,z,Thu Mar 05 2026 15:51:05 GMT-0600 (Central Standard Time),203459.5,CFD-BF-042-031-HC.jpg,1500,3,O,z,877,dash,1,23691.19999998808,179768.30000001192,7740,ATS,C,7
8,prac,1,B,mfborder.png,1,m,Thu Mar 05 2026 15:51:05 GMT-0600 (Central Standard Time),207043.0,CFD-WM-036-018-A.jpg,1700,9,O,m,1097,dash,1,27274.69999998808,179768.30000001192,7740,ATS,C,8
9,prac,1,B,mfborder.png,1,m,Thu Mar 05 2026 15:51:05 GMT-0600 (Central Standard Time),210342.09999999404,CFD-BM-021-026-A.jpg,1600,2,O,m,901,dash,1,30573.79999998212,179768.30000001192,7740,ATS,C,9
10,prac,1,B,mfborder.png,1,z,Thu Mar 05 2026 15:51:05 GMT-0600 (Central Standard Time),212790.5,CFD-BF-031-020-A.jpg,1000,4,O,z,658,dash,1,33022.19999998808,179768.30000001192,7740,ATS,C,10
10,prac,1,B,mfborder.png,0,z,Thu Mar 05 2026 15:51:05 GMT-0600 (Central Standard Time),216090.59999999404,CFD-WF-013-009-HC.jpg,1000,12,O,None,1515,dash,1,36322.29999998212,179768.30000001192,7740,ATS,C,11
11,prac,1,B,mfborder.png,1,z,Thu Mar 05 2026 15:51:05 GMT-0600 (Central Standard Time),219121.30000001192,CFD-WF-037-016-A.jpg,1500,11,O,z,745,dash,1,39353.0,179768.30000001192,7740,ATS,C,12
1,test,1,A,haborder.png,1,z,Thu Mar 05 2026 15:51:05 GMT-0600 (Central Standard Time),258977.09999999404,CFD-BF-031-020-A.jpg,1000,solid,O,z,749,4,1,1782.2999999821186,257194.80000001192,7740,ATS,C,1
2,test,1,A,haborder.png,1,m,Thu Mar 05 2026 15:51:05 GMT-0600 (Central Standard Time),261426.5,CFD-BM-022-004-HC.jpg,1500,solid,O,m,932,3,1,4231.699999988079,257194.80000001192,7740,ATS,C,2
3,test,1,A,haborder.png,1,z,Thu Mar 05 2026 15:51:05 GMT-0600 (Central Standard Time),263626.3000000119,CFD-BF-002-018-A.jpg,1200,solid,O,z,966,6,1,6431.5,257194.80000001192,7740,ATS,C,3
4,test,1,A,haborder.png,1,m,Thu Mar 05 2026 15:51:05 GMT-0600 (Central Standard Time),266391.40000000596,CFD-BF-019-004-HC.jpg,2000,solid,O,m,736,5,1,9196.59999999404,257194.80000001192,7740,ATS,C,4
5,test,1,A,haborder.png,1,m,Thu Mar 05 2026 15:51:05 GMT-0600 (Central Standard Time),269273.3000000119,CFD-BF-019-004-HC.jpg,2000,solid,O,m,852,5,1,12078.5,257194.80000001192,7740,ATS,C,5
6,test,1,A,haborder.png,1,z,Thu Mar 05 2026 15:51:05 GMT-0600 (Central Standard Time),271889.3000000119,CFD-WM-036-018-A.jpg,1900,solid,O,z,699,8,1,14694.5,257194.80000001192,7740,ATS,C,6
7,test,1,A,haborder.png,1,m,Thu Mar 05 2026 15:51:05 GMT-0600 (Central Standard Time),274586.0,CFD-WF-013-009-HC.jpg,1500,solid,O,m,1179,11,1,17391.19999998808,257194.80000001192,7740,ATS,C,7
8,test,1,A,haborder.png,1,m,Thu Mar 05 2026 15:51:05 GMT-0600 (Central Standard Time),277153.2000000179,CFD-WM-035-036-HC.jpg,1700,solid,O,m,834,9,1,19958.40000000596,257194.80000001192,7740,ATS,C,8
9,test,1,A,haborder.png,1,z,Thu Mar 05 2026 15:51:05 GMT-0600 (Central Standard Time),279336.2000000179,CFD-BF-002-018-A.jpg,1200,solid,O,z,951,6,1,22141.40000000596,257194.80000001192,7740,ATS,C,9
10,test,1,A,haborder.png,1,m,Thu Mar 05 2026 15:51:05 GMT-0600 (Central Standard Time),281787.2000000179,CFD-WM-035-036-HC.jpg,1700,solid,O,m,732,9,1,24592.40000000596,257194.80000001192,7740,ATS,C,10
11,test,1,A,haborder.png,1,z,Thu Mar 05 2026 15:51:05 GMT-0600 (Central Standard Time),284285.2000000179,CFD-WF-037-016-A.jpg,1600,solid,O,z,868,10,1,27090.40000000596,257194.80000001192,7740,ATS,C,11
12,test,1,A,haborder.png,1,m,Thu Mar 05 2026 15:51:05 GMT-0600 (Central Standard Time),286567.0,CFD-WM-028-005-HC.jpg,1400,solid,O,m,853,7,1,29372.19999998808,257194.80000001192,7740,ATS,C,12
13,test,1,A,haborder.png,1,m,Thu Mar 05 2026 15:51:05 GMT-0600 (Central Standard Time),289050.2000000179,CFD-BM-034-035-HC.jpg,1700,solid,O,m,765,1,1,31855.40000000596,257194.80000001192,7740,ATS,C,13
13,test,1,A,haborder.png,0,z,Thu Mar 05 2026 15:51:05 GMT-0600 (Central Standard Time),292182.3000000119,CFD-WF-037-016-A.jpg,1600,solid,O,None,1516,10,1,34987.5,257194.80000001192,7740,ATS,C,14
14,test,1,A,haborder.png,1,z,Thu Mar 05 2026 15:51:05 GMT-0600 (Central Standard Time),295150.2000000179,CFD-BM-043-014-A.jpg,1600,solid,O,z,1347,2,1,37955.40000000596,257194.80000001192,7740,ATS,C,15
15,test,1,A,haborder.png,1,m,Thu Mar 05 2026 15:51:05 GMT-0600 (Central Standard Time),297679.3000000119,CFD-WF-013-009-HC.jpg,1500,solid,O,m,1008,11,1,40484.5,257194.80000001192,7740,ATS,C,16
16,test,1,A,haborder.png,1,z,Thu Mar 05 2026 15:51:05 GMT-0600 (Central Standard Time),299531.40000000596,CFD-WF-023-013-A.jpg,1000,solid,O,z,825,12,1,42336.59999999404,257194.80000001192,7740,ATS,C,17
17,test,1,A,haborder.png,1,m,Thu Mar 05 2026 15:51:05 GMT-0600 (Central Standard Time),301645.59999999404,CFD-WM-028-005-HC.jpg,1400,solid,O,m,686,7,1,44450.79999998212,257194.80000001192,7740,ATS,C,18
18,test,1,A,haborder.png,1,z,Thu Mar 05 2026 15:51:05 GMT-0600 (Central Standard Time),303528.09999999404,CFD-WF-023-013-A.jpg,1000,solid,O,z,859,12,1,46333.29999998212,257194.80000001192,7740,ATS,C,19
19,test,1,A,haborder.png,1,z,Thu Mar 05 2026 15:51:05 GMT-0600 (Central Standard Time),305995.0,CFD-BM-043-014-A.jpg,1600,solid,O,z,840,2,1,48800.19999998808,257194.80000001192,7740,ATS,C,20
20,test,1,A,haborder.png,1,z,Thu Mar 05 2026 15:51:05 GMT-0600 (Central Standard Time),308760.7000000179,CFD-WM-036-018-A.jpg,1900,solid,O,z,834,8,1,51565.90000000596,257194.80000001192,7740,ATS,C,21
21,test,1,A,haborder.png,1,z,Thu Mar 05 2026 15:51:05 GMT-0600 (Central Standard Time),310510.2000000179,CFD-BF-031-020-A.jpg,1000,solid,O,z,728,4,1,53315.40000000596,257194.80000001192,7740,ATS,C,22
22,test,1,A,haborder.png,1,m,Thu Mar 05 2026 15:51:05 GMT-0600 (Central Standard Time),312974.8000000119,CFD-BM-034-035-HC.jpg,1700,solid,O,m,734,1,1,55780.0,257194.80000001192,7740,ATS,C,23
23,test,1,A,haborder.png,1,m,Thu Mar 05 2026 15:51:05 GMT-0600 (Central Standard Time),315058.2000000179,CFD-BM-022-004-HC.jpg,1500,solid,O,m,567,3,1,57863.40000000596,257194.80000001192,7740,ATS,C,24
1,test,1,B,mfborder.png,1,m,Thu Mar 05 2026 15:51:05 GMT-0600 (Central Standard Time),330805.7000000179,CFD-WM-034-040-A.jpg,1200,dash,O,m,837,6,1,2066.5,328739.2000000179,7740,ATS,C,1
2,test,1,B,mfborder.png,1,m,Thu Mar 05 2026 15:51:05 GMT-0600 (Central Standard Time),333153.5,CFD-BM-022-004-HC.jpg,1700,dash,O,m,617,1,1,4414.299999982119,328739.2000000179,7740,ATS,C,2
3,test,1,B,mfborder.png,1,z,Thu Mar 05 2026 15:51:05 GMT-0600 (Central Standard Time),335317.90000000596,CFD-BF-019-004-HC.jpg,1400,dash,O,z,734,7,1,6578.699999988079,328739.2000000179,7740,ATS,C,3
4,test,1,B,mfborder.png,1,z,Thu Mar 05 2026 15:51:05 GMT-0600 (Central Standard Time),337283.7000000179,CFD-BF-031-020-A.jpg,1000,dash,O,z,936,4,1,8544.5,328739.2000000179,7740,ATS,C,4
5,test,1,B,mfborder.png,1,m,Thu Mar 05 2026 15:51:05 GMT-0600 (Central Standard Time),339551.0,CFD-BM-022-004-HC.jpg,1700,dash,O,m,535,1,1,10811.799999982119,328739.2000000179,7740,ATS,C,5
6,test,1,B,mfborder.png,1,z,Thu Mar 05 2026 15:51:05 GMT-0600 (Central Standard Time),341933.09999999404,CFD-BF-042-031-HC.jpg,1500,dash,O,z,854,3,1,13193.899999976158,328739.2000000179,7740,ATS,C,6
7,test,1,B,mfborder.png,1,m,Thu Mar 05 2026 15:51:05 GMT-0600 (Central Standard Time),344217.3000000119,CFD-BM-021-026-A.jpg,1600,dash,O,m,666,2,1,15478.09999999404,328739.2000000179,7740,ATS,C,7
8,test,1,B,mfborder.png,1,m,Thu Mar 05 2026 15:51:05 GMT-0600 (Central Standard Time),347248.40000000596,CFD-BM-043-014-A.jpg,2000,dash,O,m,999,5,1,18509.19999998808,328739.2000000179,7740,ATS,C,8
9,test,1,B,mfborder.png,1,m,Thu Mar 05 2026 15:51:05 GMT-0600 (Central Standard Time),349564.09999999404,CFD-BM-021-026-A.jpg,1600,dash,O,m,688,2,1,20824.899999976158,328739.2000000179,7740,ATS,C,9
10,test,1,B,mfborder.png,1,m,Thu Mar 05 2026 15:51:05 GMT-0600 (Central Standard Time),351895.59999999404,CFD-WM-035-036-HC.jpg,1600,dash,O,m,701,10,1,23156.399999976158,328739.2000000179,7740,ATS,C,10
11,test,1,B,mfborder.png,1,z,Thu Mar 05 2026 15:51:05 GMT-0600 (Central Standard Time),354261.40000000596,CFD-WF-037-016-A.jpg,1500,dash,O,z,844,11,1,25522.19999998808,328739.2000000179,7740,ATS,C,11
11,test,1,B,mfborder.png,0,z,Thu Mar 05 2026 15:51:05 GMT-0600 (Central Standard Time),356780.0,CFD-WF-013-009-HC.jpg,1000,dash,O,None,1501,12,1,28040.79999998212,328739.2000000179,7740,ATS,C,12
12,test,1,B,mfborder.png,1,z,Thu Mar 05 2026 15:51:05 GMT-0600 (Central Standard Time),359077.2000000179,CFD-BF-019-004-HC.jpg,1400,dash,O,z,880,7,1,30338.0,328739.2000000179,7740,ATS,C,13
13,test,1,B,mfborder.png,1,m,Thu Mar 05 2026 15:51:05 GMT-0600 (Central Standard Time),360859.5,CFD-WM-034-040-A.jpg,1200,dash,O,m,554,6,1,32120.29999998212,328739.2000000179,7740,ATS,C,14
14,test,1,B,mfborder.png,1,z,Thu Mar 05 2026 15:51:05 GMT-0600 (Central Standard Time),363825.59999999404,CFD-WF-001-010-HC.jpg,1900,dash,O,z,1046,8,1,35086.39999997616,328739.2000000179,7740,ATS,C,15
15,test,1,B,mfborder.png,1,m,Thu Mar 05 2026 15:51:05 GMT-0600 (Central Standard Time),366324.90000000596,CFD-BM-043-014-A.jpg,2000,dash,O,m,470,5,1,37585.69999998808,328739.2000000179,7740,ATS,C,16
16,test,1,B,mfborder.png,1,z,Thu Mar 05 2026 15:51:05 GMT-0600 (Central Standard Time),368174.40000000596,CFD-WF-013-009-HC.jpg,1000,dash,O,z,827,12,1,39435.19999998808,328739.2000000179,7740,ATS,C,17
17,test,1,B,mfborder.png,1,z,Thu Mar 05 2026 15:51:05 GMT-0600 (Central Standard Time),369775.2000000179,CFD-BF-031-020-A.jpg,1000,dash,O,z,579,4,1,41036.0,328739.2000000179,7740,ATS,C,18
18,test,1,B,mfborder.png,1,z,Thu Mar 05 2026 15:51:05 GMT-0600 (Central Standard Time),371739.90000000596,CFD-WF-037-016-A.jpg,1500,dash,O,z,445,11,1,43000.69999998808,328739.2000000179,7740,ATS,C,19
19,test,1,B,mfborder.png,1,m,Thu Mar 05 2026 15:51:05 GMT-0600 (Central Standard Time),373772.59999999404,CFD-WM-035-036-HC.jpg,1600,dash,O,m,404,10,1,45033.39999997616,328739.2000000179,7740,ATS,C,20
20,test,1,B,mfborder.png,1,m,Thu Mar 05 2026 15:51:05 GMT-0600 (Central Standard Time),376205.8000000119,CFD-WM-036-018-A.jpg,1700,dash,O,m,715,9,1,47466.59999999404,328739.2000000179,7740,ATS,C,21
21,test,1,B,mfborder.png,1,z,Thu Mar 05 2026 15:51:05 GMT-0600 (Central Standard Time),378539.8000000119,CFD-BF-042-031-HC.jpg,1500,dash,O,z,819,3,1,49800.59999999404,328739.2000000179,7740,ATS,C,22
22,test,1,B,mfborder.png,1,z,Thu Mar 05 2026 15:51:05 GMT-0600 (Central Standard Time),381138.40000000596,CFD-WF-001-010-HC.jpg,1900,dash,O,z,682,8,1,52399.19999998808,328739.2000000179,7740,ATS,C,23
23,test,1,B,mfborder.png,1,m,Thu Mar 05 2026 15:51:05 GMT-0600 (Central Standard Time),383486.8000000119,CFD-WM-036-018-A.jpg,1700,dash,O,m,619,9,1,54747.59999999404,328739.2000000179,7740,ATS,C,24
0,prac,1,C,mfborder.png,0,m,Thu Mar 05 2026 15:51:05 GMT-0600 (Central Standard Time),432437.5,CFD-BM-043-014-A.jpg,1200,dash,O,None,1515,9,1,3498.2999999821186,428939.2000000179,7740,ATS,C,1
1,prac,1,C,haborder.png,1,z,Thu Mar 05 2026 15:51:05 GMT-0600 (Central Standard Time),436271.3000000119,CFD-WF-037-016-A.jpg,1600,dash,O,z,1433,9,1,7332.0999999940395,428939.2000000179,7740,ATS,C,2
2,prac,1,C,haborder.png,1,m,Thu Mar 05 2026 15:51:05 GMT-0600 (Central Standard Time),439203.59999999404,CFD-WM-028-005-HC.jpg,1000,dash,O,m,1148,9,1,10264.399999976158,428939.2000000179,7740,ATS,C,3
3,prac,1,C,haborder.png,1,z,Thu Mar 05 2026 15:51:05 GMT-0600 (Central Standard Time),443185.3000000119,CFD-BF-031-020-A.jpg,1900,dash,O,z,1298,9,1,14246.09999999404,428939.2000000179,7740,ATS,C,4
3,prac,1,C,mfborder.png,0,m,Thu Mar 05 2026 15:51:05 GMT-0600 (Central Standard Time),446899.40000000596,CFD-WM-036-018-A.jpg,1700,solid,O,z,1222,9,1,17960.19999998808,428939.2000000179,7740,ATS,C,5
3,prac,1,C,mfborder.png,0,z,Thu Mar 05 2026 15:51:05 GMT-0600 (Central Standard Time),450182.40000000596,CFD-BF-019-004-HC.jpg,1000,dash,O,None,1501,9,1,21243.19999998808,428939.2000000179,7740,ATS,C,6
3,prac,1,C,mfborder.png,0,z,Thu Mar 05 2026 15:51:05 GMT-0600 (Central Standard Time),454080.2000000179,CFD-WF-013-009-HC.jpg,1600,dash,O,None,1516,9,1,25141.0,428939.2000000179,7740,ATS,C,7
4,prac,1,C,haborder.png,1,m,Thu Mar 05 2026 15:51:05 GMT-0600 (Central Standard Time),457213.8000000119,CFD-BM-022-004-HC.jpg,1500,solid,O,m,835,9,1,28274.59999999404,428939.2000000179,7740,ATS,C,8
5,prac,1,C,haborder.png,1,z,Thu Mar 05 2026 15:51:05 GMT-0600 (Central Standard Time),460980.3000000119,CFD-BF-002-018-A.jpg,1700,solid,O,z,1270,9,1,32041.09999999404,428939.2000000179,7740,ATS,C,9
6,prac,1,C,haborder.png,1,m,Thu Mar 05 2026 15:51:05 GMT-0600 (Central Standard Time),464262.09999999404,CFD-WM-028-005-HC.jpg,1400,solid,O,m,1109,9,1,35322.89999997616,428939.2000000179,7740,ATS,C,10
7,prac,1,C,mfborder.png,1,z,Thu Mar 05 2026 15:51:05 GMT-0600 (Central Standard Time),467894.8000000119,CFD-WF-023-013-A.jpg,1500,solid,O,z,1335,9,1,38955.59999999404,428939.2000000179,7740,ATS,C,11
7,prac,1,C,mfborder.png,0,m,Thu Mar 05 2026 15:51:05 GMT-0600 (Central Standard Time),472191.40000000596,CFD-BM-034-035-HC.jpg,2000,solid,O,None,1517,9,1,43252.19999998808,428939.2000000179,7740,ATS,C,12
0,prac,2,C,mfborder.png,0,m,Thu Mar 05 2026 15:51:05 GMT-0600 (Central Standard Time),480622.0,CFD-WM-036-018-A.jpg,1700,solid,O,z,974,9,1,51682.79999998212,428939.2000000179,7740,ATS,C,1
1,prac,2,C,haborder.png,1,m,Thu Mar 05 2026 15:51:05 GMT-0600 (Central Standard Time),483239.0,CFD-WM-028-005-HC.jpg,1000,dash,O,m,834,9,1,54299.79999998212,428939.2000000179,7740,ATS,C,2
2,prac,2,C,mfborder.png,1,z,Thu Mar 05 2026 15:51:05 GMT-0600 (Central Standard Time),486722.0,CFD-WF-023-013-A.jpg,1500,solid,O,z,1200,9,1,57782.79999998212,428939.2000000179,7740,ATS,C,3
2,prac,2,C,mfborder.png,0,z,Thu Mar 05 2026 15:51:05 GMT-0600 (Central Standard Time),490352.5,CFD-WF-013-009-HC.jpg,1600,dash,O,m,1250,9,1,61413.29999998212,428939.2000000179,7740,ATS,C,4
3,prac,2,C,mfborder.png,1,z,Thu Mar 05 2026 15:51:05 GMT-0600 (Central Standard Time),493319.7000000179,CFD-BF-019-004-HC.jpg,1000,dash,O,z,1183,9,1,64380.5,428939.2000000179,7740,ATS,C,5
4,prac,2,C,mfborder.png,1,m,Thu Mar 05 2026 15:51:05 GMT-0600 (Central Standard Time),496367.7000000179,CFD-BM-043-014-A.jpg,1200,dash,O,m,1066,9,1,67428.5,428939.2000000179,7740,ATS,C,6
5,prac,2,C,haborder.png,1,z,Thu Mar 05 2026 15:51:05 GMT-0600 (Central Standard Time),500267.0,CFD-BF-002-018-A.jpg,1700,solid,O,z,1430,9,1,71327.79999998212,428939.2000000179,7740,ATS,C,7
6,prac,2,C,haborder.png,1,z,Thu Mar 05 2026 15:51:05 GMT-0600 (Central Standard Time),503549.0,CFD-WF-037-016-A.jpg,1600,dash,O,z,887,9,1,74609.79999998212,428939.2000000179,7740,ATS,C,8
6,prac,2,C,haborder.png,0,z,Thu Mar 05 2026 15:51:05 GMT-0600 (Central Standard Time),507732.09999999404,CFD-BF-031-020-A.jpg,1900,dash,O,None,1515,9,1,78792.89999997616,428939.2000000179,7740,ATS,C,9
7,prac,2,C,haborder.png,1,m,Thu Mar 05 2026 15:51:05 GMT-0600 (Central Standard Time),510996.59999999404,CFD-WM-028-005-HC.jpg,1400,solid,O,m,1070,9,1,82057.39999997616,428939.2000000179,7740,ATS,C,10
8,prac,2,C,haborder.png,1,m,Thu Mar 05 2026 15:51:05 GMT-0600 (Central Standard Time),514411.3000000119,CFD-BM-022-004-HC.jpg,1500,solid,O,m,1128,9,1,85472.09999999404,428939.2000000179,7740,ATS,C,11
9,prac,2,C,mfborder.png,1,m,Thu Mar 05 2026 15:51:05 GMT-0600 (Central Standard Time),518344.59999999404,CFD-BM-034-035-HC.jpg,2000,solid,O,m,1142,9,1,89405.39999997616,428939.2000000179,7740,ATS,C,12
1,prac,3,C,mfborder.png,1,z,Thu Mar 05 2026 15:51:05 GMT-0600 (Central Standard Time),523675.59999999404,CFD-BF-019-004-HC.jpg,1000,dash,O,z,1461,9,1,94736.39999997616,428939.2000000179,7740,ATS,C,1
1,prac,3,C,haborder.png,0,z,Thu Mar 05 2026 15:51:05 GMT-0600 (Central Standard Time),527572.7000000179,CFD-WF-037-016-A.jpg,1600,dash,O,None,1515,9,1,98633.5,428939.2000000179,7740,ATS,C,2
2,prac,3,C,mfborder.png,1,z,Thu Mar 05 2026 15:51:05 GMT-0600 (Central Standard Time),531073.2000000179,CFD-WF-013-009-HC.jpg,1600,dash,O,z,1107,9,1,102134.0,428939.2000000179,7740,ATS,C,3
3,prac,3,C,haborder.png,1,z,Thu Mar 05 2026 15:51:05 GMT-0600 (Central Standard Time),534554.8000000119,CFD-BF-002-018-A.jpg,1700,solid,O,z,988,9,1,105615.59999999404,428939.2000000179,7740,ATS,C,4
4,prac,3,C,haborder.png,1,z,Thu Mar 05 2026 15:51:05 GMT-0600 (Central Standard Time),538519.900000006,CFD-BF-031-020-A.jpg,1900,dash,O,z,1266,9,1,109580.69999998808,428939.2000000179,7740,ATS,C,5
5,prac,3,C,mfborder.png,1,z,Thu Mar 05 2026 15:51:05 GMT-0600 (Central Standard Time),541953.3000000119,CFD-WF-023-013-A.jpg,1500,solid,O,z,1149,9,1,113014.09999999404,428939.2000000179,7740,ATS,C,6
6,prac,3,C,haborder.png,1,m,Thu Mar 05 2026 15:51:05 GMT-0600 (Central Standard Time),545119.8000000119,CFD-BM-022-004-HC.jpg,1500,solid,O,m,869,9,1,116180.59999999404,428939.2000000179,7740,ATS,C,7
7,prac,3,C,haborder.png,1,m,Thu Mar 05 2026 15:51:05 GMT-0600 (Central Standard Time),547618.099999994,CFD-WM-028-005-HC.jpg,1000,dash,O,m,730,9,1,118678.89999997616,428939.2000000179,7740,ATS,C,8
8,prac,3,C,mfborder.png,1,m,Thu Mar 05 2026 15:51:05 GMT-0600 (Central Standard Time),550799.900000006,CFD-WM-036-018-A.jpg,1700,solid,O,m,698,9,1,121860.69999998808,428939.2000000179,7740,ATS,C,9
9,prac,3,C,mfborder.png,1,m,Thu Mar 05 2026 15:51:05 GMT-0600 (Central Standard Time),553616.599999994,CFD-BM-043-014-A.jpg,1200,dash,O,m,833,9,1,124677.39999997616,428939.2000000179,7740,ATS,C,10
10,prac,3,C,haborder.png,1,m,Thu Mar 05 2026 15:51:05 GMT-0600 (Central Standard Time),556615.900000006,CFD-WM-028-005-HC.jpg,1400,solid,O,m,801,9,1,127676.69999998808,428939.2000000179,7740,ATS,C,11
11,prac,3,C,mfborder.png,1,m,Thu Mar 05 2026 15:51:05 GMT-0600 (Central Standard Time),560464.8000000119,CFD-BM-034-035-HC.jpg,2000,solid,O,m,1074,9,1,131525.59999999404,428939.2000000179,7740,ATS,C,12
0,test,1,C,haborder.png,0,z,Thu Mar 05 2026 15:51:05 GMT-0600 (Central Standard Time),583406.8000000119,CFD-BM-043-014-A.jpg,1900,solid,O,m,901,8,1,2833.2000000178814,580573.599999994,7740,ATS,C,1
1,test,1,C,mfborder.png,1,z,Thu Mar 05 2026 15:51:05 GMT-0600 (Central Standard Time),586222.7000000179,CFD-BF-042-031-HC.jpg,1700,dash,O,z,1094,1,1,5649.100000023842,580573.599999994,7740,ATS,C,2
2,test,1,C,haborder.png,1,m,Thu Mar 05 2026 15:51:05 GMT-0600 (Central Standard Time),588739.400000006,CFD-WF-013-009-HC.jpg,1000,solid,O,m,1500,12,1,8165.800000011921,580573.599999994,7740,ATS,C,3
3,test,1,C,mfborder.png,1,z,Thu Mar 05 2026 15:51:05 GMT-0600 (Central Standard Time),591521.099999994,CFD-BF-031-020-A.jpg,1600,dash,O,z,1150,2,1,10947.5,580573.599999994,7740,ATS,C,4
4,test,1,C,mfborder.png,1,m,Thu Mar 05 2026 15:51:05 GMT-0600 (Central Standard Time),593886.3000000119,CFD-WM-035-036-HC.jpg,1000,dash,O,m,1335,4,1,13312.700000017881,580573.599999994,7740,ATS,C,5
4,test,1,C,haborder.png,0,z,Thu Mar 05 2026 15:51:05 GMT-0600 (Central Standard Time),596333.8000000119,CFD-WM-036-018-A.jpg,1400,solid,O,m,1025,7,1,15760.200000017881,580573.599999994,7740,ATS,C,6
4,test,1,C,haborder.png,0,z,Thu Mar 05 2026 15:51:05 GMT-0600 (Central Standard Time),599452.3000000119,CFD-BM-043-014-A.jpg,1900,solid,O,m,1184,8,1,18878.70000001788,580573.599999994,7740,ATS,C,7
4,test,1,C,mfborder.png,0,m,Thu Mar 05 2026 15:51:05 GMT-0600 (Central Standard Time),601984.8000000119,CFD-WM-035-036-HC.jpg,1000,dash,O,None,1517,4,1,21411.20000001788,580573.599999994,7740,ATS,C,8
4,test,1,C,mfborder.png,0,m,Thu Mar 05 2026 15:51:05 GMT-0600 (Central Standard Time),604683.2000000179,CFD-WM-034-040-A.jpg,2000,dash,O,z,673,5,1,24109.600000023842,580573.599999994,7740,ATS,C,9
5,test,1,C,haborder.png,1,m,Thu Mar 05 2026 15:51:05 GMT-0600 (Central Standard Time),607148.599999994,CFD-WF-013-009-HC.jpg,1000,solid,O,m,1447,12,1,26575.0,580573.599999994,7740,ATS,C,10
6,test,1,C,mfborder.png,1,m,Thu Mar 05 2026 15:51:05 GMT-0600 (Central Standard Time),609731.2000000179,CFD-BM-022-004-HC.jpg,1200,dash,O,m,1356,6,1,29157.600000023842,580573.599999994,7740,ATS,C,11
7,test,1,C,mfborder.png,1,z,Thu Mar 05 2026 15:51:05 GMT-0600 (Central Standard Time),612747.2000000179,CFD-WF-037-016-A.jpg,1500,dash,O,z,1489,3,1,32173.600000023842,580573.599999994,7740,ATS,C,12
8,test,1,C,mfborder.png,1,z,Thu Mar 05 2026 15:51:05 GMT-0600 (Central Standard Time),615562.8000000119,CFD-BF-042-031-HC.jpg,1700,dash,O,z,1090,1,1,34989.20000001788,580573.599999994,7740,ATS,C,13
9,test,1,C,mfborder.png,1,m,Thu Mar 05 2026 15:51:05 GMT-0600 (Central Standard Time),617946.599999994,CFD-BM-022-004-HC.jpg,1200,dash,O,m,1167,6,1,37373.0,580573.599999994,7740,ATS,C,14
10,test,1,C,haborder.png,1,z,Thu Mar 05 2026 15:51:05 GMT-0600 (Central Standard Time),620712.7000000179,CFD-BM-021-026-A.jpg,1700,solid,O,z,1033,9,1,40139.10000002384,580573.599999994,7740,ATS,C,15
11,test,1,C,mfborder.png,1,z,Thu Mar 05 2026 15:51:05 GMT-0600 (Central Standard Time),623561.2000000179,CFD-WF-037-016-A.jpg,1500,dash,O,z,1326,3,1,42987.60000002384,580573.599999994,7740,ATS,C,16
11,test,1,C,haborder.png,0,z,Thu Mar 05 2026 15:51:05 GMT-0600 (Central Standard Time),626043.400000006,CFD-WM-036-018-A.jpg,1400,solid,O,m,1057,7,1,45469.80000001192,580573.599999994,7740,ATS,C,17
11,test,1,C,haborder.png,0,z,Thu Mar 05 2026 15:51:05 GMT-0600 (Central Standard Time),629260.7000000179,CFD-BM-021-026-A.jpg,1700,solid,O,None,1501,9,1,48687.10000002384,580573.599999994,7740,ATS,C,18
11,test,1,C,haborder.png,0,m,Thu Mar 05 2026 15:51:05 GMT-0600 (Central Standard Time),632057.5,CFD-BF-019-004-HC.jpg,1600,solid,O,z,1174,10,1,51483.90000000596,580573.599999994,7740,ATS,C,19
11,test,1,C,haborder.png,0,m,Thu Mar 05 2026 15:51:05 GMT-0600 (Central Standard Time),634422.599999994,CFD-WF-001-010-HC.jpg,1500,solid,O,z,835,11,1,53849.0,580573.599999994,7740,ATS,C,20
11,test,1,C,haborder.png,0,m,Thu Mar 05 2026 15:51:05 GMT-0600 (Central Standard Time),636790.099999994,CFD-WF-001-010-HC.jpg,1500,solid,O,z,846,11,1,56216.5,580573.599999994,7740,ATS,C,21
11,test,1,C,haborder.png,0,m,Thu Mar 05 2026 15:51:05 GMT-0600 (Central Standard Time),639921.2000000179,CFD-BF-019-004-HC.jpg,1600,solid,O,None,1514,10,1,59347.60000002384,580573.599999994,7740,ATS,C,22
11,test,1,C,mfborder.png,0,z,Thu Mar 05 2026 15:51:05 GMT-0600 (Central Standard Time),643053.2000000179,CFD-BF-031-020-A.jpg,1600,dash,O,None,1516,2,1,62479.60000002384,580573.599999994,7740,ATS,C,23
11,test,1,C,mfborder.png,0,m,Thu Mar 05 2026 15:51:05 GMT-0600 (Central Standard Time),646319.2000000179,CFD-WM-034-040-A.jpg,2000,dash,O,z,1243,5,1,65745.60000002384,580573.599999994,7740,ATS,C,24
0,test,2,C,mfborder.png,0,m,Thu Mar 05 2026 15:51:05 GMT-0600 (Central Standard Time),676193.099999994,CFD-BM-043-014-A.jpg,2000,dash,O,None,1515,5,1,3530.5999999940395,672662.5,7740,ATS,C,1
1,test,2,C,haborder.png,1,m,Thu Mar 05 2026 15:51:05 GMT-0600 (Central Standard Time),678294.400000006,CFD-WM-028-005-HC.jpg,1000,solid,O,m,1079,12,1,5631.9000000059605,672662.5,7740,ATS,C,2
2,test,2,C,mfborder.png,1,z,Thu Mar 05 2026 15:51:05 GMT-0600 (Central Standard Time),680758.2000000179,CFD-BF-019-004-HC.jpg,1500,dash,O,z,937,3,1,8095.700000017881,672662.5,7740,ATS,C,3
3,test,2,C,haborder.png,1,m,Thu Mar 05 2026 15:51:05 GMT-0600 (Central Standard Time),682925.0,CFD-WM-028-005-HC.jpg,1500,solid,O,m,638,11,1,10262.5,672662.5,7740,ATS,C,4
4,test,2,C,haborder.png,1,m,Thu Mar 05 2026 15:51:05 GMT-0600 (Central Standard Time),685123.400000006,CFD-WM-028-005-HC.jpg,1500,solid,O,m,670,11,1,12460.90000000596,672662.5,7740,ATS,C,5
4,test,2,C,mfborder.png,0,z,Thu Mar 05 2026 15:51:05 GMT-0600 (Central Standard Time),688156.3000000119,CFD-BF-019-004-HC.jpg,1500,dash,O,None,1515,3,1,15493.800000011921,672662.5,7740,ATS,C,6
5,test,2,C,mfborder.png,1,z,Thu Mar 05 2026 15:51:05 GMT-0600 (Central Standard Time),690706.8000000119,CFD-WF-023-013-A.jpg,1600,dash,O,z,934,2,1,18044.30000001192,672662.5,7740,ATS,C,7
5,test,2,C,haborder.png,0,z,Thu Mar 05 2026 15:51:05 GMT-0600 (Central Standard Time),693604.5,CFD-BF-002-018-A.jpg,1900,solid,O,m,971,8,1,20942.0,672662.5,7740,ATS,C,8
6,test,2,C,mfborder.png,1,m,Thu Mar 05 2026 15:51:05 GMT-0600 (Central Standard Time),695703.2000000179,CFD-BM-034-035-HC.jpg,1000,dash,O,m,1076,4,1,23040.70000001788,672662.5,7740,ATS,C,9
7,test,2,C,haborder.png,1,m,Thu Mar 05 2026 15:51:05 GMT-0600 (Central Standard Time),697570.099999994,CFD-WM-028-005-HC.jpg,1000,solid,O,m,835,12,1,24907.59999999404,672662.5,7740,ATS,C,10
7,test,2,C,mfborder.png,0,m,Thu Mar 05 2026 15:51:05 GMT-0600 (Central Standard Time),699735.7000000179,CFD-WM-036-018-A.jpg,1200,dash,O,z,942,6,1,27073.20000001788,672662.5,7740,ATS,C,11
8,test,2,C,haborder.png,1,m,Thu Mar 05 2026 15:51:05 GMT-0600 (Central Standard Time),702134.7000000179,CFD-BM-022-004-HC.jpg,1600,solid,O,m,777,10,1,29472.20000001788,672662.5,7740,ATS,C,12
8,test,2,C,mfborder.png,0,m,Thu Mar 05 2026 15:51:05 GMT-0600 (Central Standard Time),705183.099999994,CFD-BM-043-014-A.jpg,2000,dash,O,z,1024,5,1,32520.59999999404,672662.5,7740,ATS,C,13
8,test,2,C,haborder.png,0,z,Thu Mar 05 2026 15:51:05 GMT-0600 (Central Standard Time),708417.400000006,CFD-WF-037-016-A.jpg,1700,solid,O,None,1516,9,1,35754.90000000596,672662.5,7740,ATS,C,14
8,test,2,C,haborder.png,0,z,Thu Mar 05 2026 15:51:05 GMT-0600 (Central Standard Time),710999.2000000179,CFD-WF-037-016-A.jpg,1700,solid,O,m,851,9,1,38336.70000001788,672662.5,7740,ATS,C,15
9,test,2,C,mfborder.png,1,z,Thu Mar 05 2026 15:51:05 GMT-0600 (Central Standard Time),713715.5,CFD-WF-013-009-HC.jpg,1700,dash,O,z,999,1,1,41053.0,672662.5,7740,ATS,C,16
10,test,2,C,haborder.png,1,z,Thu Mar 05 2026 15:51:05 GMT-0600 (Central Standard Time),715883.099999994,CFD-BF-031-020-A.jpg,1400,solid,O,z,745,7,1,43220.59999999404,672662.5,7740,ATS,C,17
11,test,2,C,haborder.png,1,z,Thu Mar 05 2026 15:51:05 GMT-0600 (Central Standard Time),718047.2000000179,CFD-BF-031-020-A.jpg,1400,solid,O,z,738,7,1,45384.70000001788,672662.5,7740,ATS,C,18
12,test,2,C,mfborder.png,1,z,Thu Mar 05 2026 15:51:05 GMT-0600 (Central Standard Time),720645.900000006,CFD-WF-013-009-HC.jpg,1700,dash,O,z,869,1,1,47983.40000000596,672662.5,7740,ATS,C,19
13,test,2,C,mfborder.png,1,m,Thu Mar 05 2026 15:51:05 GMT-0600 (Central Standard Time),723127.900000006,CFD-WM-036-018-A.jpg,1200,dash,O,m,1258,6,1,50465.40000000596,672662.5,7740,ATS,C,20
14,test,2,C,haborder.png,1,z,Thu Mar 05 2026 15:51:05 GMT-0600 (Central Standard Time),725844.8000000119,CFD-BF-002-018-A.jpg,1900,solid,O,z,796,8,1,53182.30000001192,672662.5,7740,ATS,C,21
14,test,2,C,mfborder.png,0,m,Thu Mar 05 2026 15:51:05 GMT-0600 (Central Standard Time),728378.400000006,CFD-BM-034-035-HC.jpg,1000,dash,O,None,1517,4,1,55715.90000000596,672662.5,7740,ATS,C,22
15,test,2,C,haborder.png,1,m,Thu Mar 05 2026 15:51:05 GMT-0600 (Central Standard Time),730893.3000000119,CFD-BM-022-004-HC.jpg,1600,solid,O,m,887,10,1,58230.80000001192,672662.5,7740,ATS,C,23
16,test,2,C,mfborder.png,1,z,Thu Mar 05 2026 15:51:05 GMT-0600 (Central Standard Time),733392.099999994,CFD-WF-023-013-A.jpg,1600,dash,O,z,868,2,1,60729.59999999404,672662.5,7740,ATS,C,24
1,test,3,C,haborder.png,1,z,Thu Mar 05 2026 15:51:05 GMT-0600 (Central Standard Time),763632.5,CFD-WM-036-018-A.jpg,1400,solid,O,z,912,7,1,2333.199999988079,761299.3000000119,7740,ATS,C,1
2,test,3,C,haborder.png,1,z,Thu Mar 05 2026 15:51:05 GMT-0600 (Central Standard Time),766697.400000006,CFD-BM-021-026-A.jpg,1700,solid,O,z,1335,9,1,5398.0999999940395,761299.3000000119,7740,ATS,C,2
2,test,3,C,haborder.png,0,m,Thu Mar 05 2026 15:51:05 GMT-0600 (Central Standard Time),769833.2000000179,CFD-BF-019-004-HC.jpg,1600,solid,O,None,1517,10,1,8533.90000000596,761299.3000000119,7740,ATS,C,3
2,test,3,C,mfborder.png,0,m,Thu Mar 05 2026 15:51:05 GMT-0600 (Central Standard Time),773362.8000000119,CFD-WM-034-040-A.jpg,2000,dash,O,None,1516,5,1,12063.5,761299.3000000119,7740,ATS,C,4
3,test,3,C,haborder.png,1,z,Thu Mar 05 2026 15:51:05 GMT-0600 (Central Standard Time),776028.5,CFD-BM-021-026-A.jpg,1700,solid,O,z,939,9,1,14729.199999988079,761299.3000000119,7740,ATS,C,5
4,test,3,C,haborder.png,1,m,Thu Mar 05 2026 15:51:05 GMT-0600 (Central Standard Time),778144.599999994,CFD-WF-013-009-HC.jpg,1000,solid,O,m,1085,12,1,16845.29999998212,761299.3000000119,7740,ATS,C,6
5,test,3,C,mfborder.png,1,m,Thu Mar 05 2026 15:51:05 GMT-0600 (Central Standard Time),780445.599999994,CFD-BM-022-004-HC.jpg,1200,dash,O,m,1070,6,1,19146.29999998212,761299.3000000119,7740,ATS,C,7
6,test,3,C,mfborder.png,1,m,Thu Mar 05 2026 15:51:05 GMT-0600 (Central Standard Time),782492.2000000179,CFD-WM-035-036-HC.jpg,1000,dash,O,m,1029,4,1,21192.90000000596,761299.3000000119,7740,ATS,C,8
6,test,3,C,haborder.png,0,m,Thu Mar 05 2026 15:51:05 GMT-0600 (Central Standard Time),785526.3000000119,CFD-WF-001-010-HC.jpg,1500,solid,O,None,1517,11,1,24227.0,761299.3000000119,7740,ATS,C,9
6,test,3,C,haborder.png,0,m,Thu Mar 05 2026 15:51:05 GMT-0600 (Central Standard Time),787641.7000000179,CFD-WF-001-010-HC.jpg,1500,solid,O,z,598,11,1,26342.40000000596,761299.3000000119,7740,ATS,C,10
6,test,3,C,mfborder.png,0,m,Thu Mar 05 2026 15:51:05 GMT-0600 (Central Standard Time),790374.599999994,CFD-BM-022-004-HC.jpg,1200,dash,O,None,1514,6,1,29075.29999998212,761299.3000000119,7740,ATS,C,11
6,test,3,C,haborder.png,0,m,Thu Mar 05 2026 15:51:05 GMT-0600 (Central Standard Time),793509.0,CFD-BF-019-004-HC.jpg,1600,solid,O,None,1516,10,1,32209.69999998808,761299.3000000119,7740,ATS,C,12
7,test,3,C,mfborder.png,1,m,Thu Mar 05 2026 15:51:05 GMT-0600 (Central Standard Time),795706.3000000119,CFD-WM-035-036-HC.jpg,1000,dash,O,m,1181,4,1,34407.0,761299.3000000119,7740,ATS,C,13
8,test,3,C,haborder.png,1,z,Thu Mar 05 2026 15:51:05 GMT-0600 (Central Standard Time),797986.599999994,CFD-WM-036-018-A.jpg,1400,solid,O,z,863,7,1,36687.29999998212,761299.3000000119,7740,ATS,C,14
8,test,3,C,mfborder.png,0,z,Thu Mar 05 2026 15:51:05 GMT-0600 (Central Standard Time),800518.5,CFD-BF-031-020-A.jpg,1600,dash,O,m,907,2,1,39219.19999998808,761299.3000000119,7740,ATS,C,15
8,test,3,C,haborder.png,0,z,Thu Mar 05 2026 15:51:05 GMT-0600 (Central Standard Time),803268.5,CFD-BM-043-014-A.jpg,1900,solid,O,m,827,8,1,41969.19999998808,761299.3000000119,7740,ATS,C,16
8,test,3,C,haborder.png,0,m,Thu Mar 05 2026 15:51:05 GMT-0600 (Central Standard Time),805334.8000000119,CFD-WF-013-009-HC.jpg,1000,solid,O,z,1044,12,1,44035.5,761299.3000000119,7740,ATS,C,17
9,test,3,C,mfborder.png,1,z,Thu Mar 05 2026 15:51:05 GMT-0600 (Central Standard Time),808117.5,CFD-BF-031-020-A.jpg,1600,dash,O,z,1163,2,1,46818.19999998808,761299.3000000119,7740,ATS,C,18
9,test,3,C,mfborder.png,0,z,Thu Mar 05 2026 15:51:05 GMT-0600 (Central Standard Time),811200.5,CFD-BF-042-031-HC.jpg,1700,dash,O,m,1360,1,1,49901.19999998808,761299.3000000119,7740,ATS,C,19
9,test,3,C,mfborder.png,0,z,Thu Mar 05 2026 15:51:05 GMT-0600 (Central Standard Time),814015.8000000119,CFD-BF-042-031-HC.jpg,1700,dash,O,m,1083,1,1,52716.5,761299.3000000119,7740,ATS,C,20
10,test,3,C,mfborder.png,1,z,Thu Mar 05 2026 15:51:05 GMT-0600 (Central Standard Time),816581.599999994,CFD-WF-037-016-A.jpg,1500,dash,O,z,1046,3,1,55282.29999998212,761299.3000000119,7740,ATS,C,21
11,test,3,C,haborder.png,1,z,Thu Mar 05 2026 15:51:05 GMT-0600 (Central Standard Time),819932.8000000119,CFD-BM-043-014-A.jpg,1900,solid,O,z,1434,8,1,58633.5,761299.3000000119,7740,ATS,C,22
11,test,3,C,mfborder.png,0,m,Thu Mar 05 2026 15:51:05 GMT-0600 (Central Standard Time),823465.3000000119,CFD-WM-034-040-A.jpg,2000,dash,O,None,1516,5,1,62166.0,761299.3000000119,7740,ATS,C,23
12,test,3,C,mfborder.png,1,z,Thu Mar 05 2026 15:51:05 GMT-0600 (Central Standard Time),826196.099999994,CFD-WF-037-016-A.jpg,1500,dash,O,z,1200,3,1,64896.79999998212,761299.3000000119,7740,ATS,C,24
0,test,4,C,haborder.png,0,z,Thu Mar 05 2026 15:51:05 GMT-0600 (Central Standard Time),839608.2000000179,CFD-BF-031-020-A.jpg,1400,solid,O,m,892,7,1,2316.0,837292.2000000179,7740,ATS,C,1
1,test,4,C,mfborder.png,1,z,Thu Mar 05 2026 15:51:05 GMT-0600 (Central Standard Time),842574.3000000119,CFD-WF-013-009-HC.jpg,1700,dash,O,z,1245,1,1,5282.0999999940395,837292.2000000179,7740,ATS,C,2
2,test,4,C,mfborder.png,1,z,Thu Mar 05 2026 15:51:05 GMT-0600 (Central Standard Time),845439.3000000119,CFD-WF-013-009-HC.jpg,1700,dash,O,z,1142,1,1,8147.0999999940395,837292.2000000179,7740,ATS,C,3
3,test,4,C,haborder.png,1,m,Thu Mar 05 2026 15:51:05 GMT-0600 (Central Standard Time),848204.8000000119,CFD-BM-022-004-HC.jpg,1600,solid,O,m,1136,10,1,10912.59999999404,837292.2000000179,7740,ATS,C,4
4,test,4,C,haborder.png,1,z,Thu Mar 05 2026 15:51:05 GMT-0600 (Central Standard Time),850704.7000000179,CFD-WF-037-016-A.jpg,1700,solid,O,z,775,9,1,13412.5,837292.2000000179,7740,ATS,C,5
5,test,4,C,mfborder.png,1,m,Thu Mar 05 2026 15:51:05 GMT-0600 (Central Standard Time),853853.7000000179,CFD-BM-043-014-A.jpg,2000,dash,O,m,1119,5,1,16561.5,837292.2000000179,7740,ATS,C,6
6,test,4,C,haborder.png,1,z,Thu Mar 05 2026 15:51:05 GMT-0600 (Central Standard Time),856886.8000000119,CFD-BF-002-018-A.jpg,1900,solid,O,z,1112,8,1,19594.59999999404,837292.2000000179,7740,ATS,C,7
7,test,4,C,mfborder.png,1,m,Thu Mar 05 2026 15:51:05 GMT-0600 (Central Standard Time),859102.3000000119,CFD-BM-034-035-HC.jpg,1000,dash,O,m,1193,4,1,21810.09999999404,837292.2000000179,7740,ATS,C,8
8,test,4,C,haborder.png,1,m,Thu Mar 05 2026 15:51:05 GMT-0600 (Central Standard Time),861700.400000006,CFD-BM-022-004-HC.jpg,1600,solid,O,m,979,10,1,24408.19999998808,837292.2000000179,7740,ATS,C,9
9,test,4,C,haborder.png,1,m,Thu Mar 05 2026 15:51:05 GMT-0600 (Central Standard Time),864233.5,CFD-WM-028-005-HC.jpg,1500,solid,O,m,1008,11,1,26941.29999998212,837292.2000000179,7740,ATS,C,10
9,test,4,C,mfborder.png,0,m,Thu Mar 05 2026 15:51:05 GMT-0600 (Central Standard Time),866816.7000000179,CFD-WM-036-018-A.jpg,1200,dash,O,z,1357,6,1,29524.5,837292.2000000179,7740,ATS,C,11
10,test,4,C,haborder.png,1,m,Thu Mar 05 2026 15:51:05 GMT-0600 (Central Standard Time),869765.7000000179,CFD-WM-028-005-HC.jpg,1500,solid,O,m,1418,11,1,32473.5,837292.2000000179,7740,ATS,C,12
11,test,4,C,haborder.png,1,m,Thu Mar 05 2026 15:51:05 GMT-0600 (Central Standard Time),871515.7000000179,CFD-WM-028-005-HC.jpg,1000,solid,O,m,733,12,1,34223.5,837292.2000000179,7740,ATS,C,13
12,test,4,C,mfborder.png,1,z,Thu Mar 05 2026 15:51:05 GMT-0600 (Central Standard Time),874263.7000000179,CFD-BF-019-004-HC.jpg,1500,dash,O,z,1226,3,1,36971.5,837292.2000000179,7740,ATS,C,14
12,test,4,C,mfborder.png,0,z,Thu Mar 05 2026 15:51:05 GMT-0600 (Central Standard Time),877395.0,CFD-WF-023-013-A.jpg,1600,dash,O,None,1515,2,1,40102.79999998212,837292.2000000179,7740,ATS,C,15
13,test,4,C,haborder.png,1,z,Thu Mar 05 2026 15:51:05 GMT-0600 (Central Standard Time),880345.3000000119,CFD-BF-002-018-A.jpg,1900,solid,O,z,1026,8,1,43053.09999999404,837292.2000000179,7740,ATS,C,16
14,test,4,C,haborder.png,1,z,Thu Mar 05 2026 15:51:05 GMT-0600 (Central Standard Time),882810.5,CFD-WF-037-016-A.jpg,1700,solid,O,z,747,9,1,45518.29999998212,837292.2000000179,7740,ATS,C,17
15,test,4,C,haborder.png,1,z,Thu Mar 05 2026 15:51:05 GMT-0600 (Central Standard Time),885291.900000006,CFD-BF-031-020-A.jpg,1400,solid,O,z,1060,7,1,47999.69999998808,837292.2000000179,7740,ATS,C,18
16,test,4,C,mfborder.png,1,m,Thu Mar 05 2026 15:51:05 GMT-0600 (Central Standard Time),887541.900000006,CFD-BM-034-035-HC.jpg,1000,dash,O,m,1227,4,1,50249.69999998808,837292.2000000179,7740,ATS,C,19
17,test,4,C,mfborder.png,1,z,Thu Mar 05 2026 15:51:05 GMT-0600 (Central Standard Time),890641.400000006,CFD-WF-023-013-A.jpg,1600,dash,O,z,1467,2,1,53349.19999998808,837292.2000000179,7740,ATS,C,20
18,test,4,C,haborder.png,1,m,Thu Mar 05 2026 15:51:05 GMT-0600 (Central Standard Time),892707.099999994,CFD-WM-028-005-HC.jpg,1000,solid,O,m,1046,12,1,55414.89999997616,837292.2000000179,7740,ATS,C,21
19,test,4,C,mfborder.png,1,m,Thu Mar 05 2026 15:51:05 GMT-0600 (Central Standard Time),895190.5,CFD-WM-036-018-A.jpg,1200,dash,O,m,1252,6,1,57898.29999998212,837292.2000000179,7740,ATS,C,22
19,test,4,C,mfborder.png,0,z,Thu Mar 05 2026 15:51:05 GMT-0600 (Central Standard Time),898222.400000006,CFD-BF-019-004-HC.jpg,1500,dash,O,None,1516,3,1,60930.19999998808,837292.2000000179,7740,ATS,C,23
20,test,4,C,mfborder.png,1,m,Thu Mar 05 2026 15:51:05 GMT-0600 (Central Standard Time),901138.599999994,CFD-BM-043-014-A.jpg,2000,dash,O,m,890,5,1,63846.39999997616,837292.2000000179,7740,ATS,C,24
