Number,acc_sum,block,block_c,block_cond,con_img,correct,correct_response,datetime,endtime,jitter,project,response,response_time,row_sel,session_number,start_end,starttime,subject_id,task,task_vers,trial
6,0,prac,1,A,circle.png,0,m,Tue Jul 01 2025 14:15:54 GMT-0500 (Central Daylight Time),93326.29999999702,1900,O,None,1514,5,1,4192.39999999851,89133.89999999851,7180,NTS,B,1
4,1,prac,1,A,circle.png,1,z,Tue Jul 01 2025 14:15:54 GMT-0500 (Central Daylight Time),96640.60000000149,1400,O,z,1131,4,1,3307.10000000149,93333.5,7180,NTS,B,2
8,2,prac,1,A,circle.png,1,m,Tue Jul 01 2025 14:15:54 GMT-0500 (Central Daylight Time),99723.69999999553,1600,O,m,682,7,1,3075.89999999851,96647.79999999702,7180,NTS,B,3
7,3,prac,1,A,circle.png,1,m,Tue Jul 01 2025 14:15:54 GMT-0500 (Central Daylight Time),102840.0,1700,O,m,616,6,1,3107.60000000149,99732.39999999851,7180,NTS,B,4
9,4,prac,1,A,circle.png,1,m,Tue Jul 01 2025 14:15:54 GMT-0500 (Central Daylight Time),105571.89999999851,1500,O,m,446,8,1,2725.10000000149,102846.79999999702,7180,NTS,B,5
3,5,prac,1,A,circle.png,1,z,Tue Jul 01 2025 14:15:54 GMT-0500 (Central Daylight Time),107986.89999999851,1200,O,z,419,3,1,2406.60000000149,105580.29999999702,7180,NTS,B,6
9,6,prac,1,A,circle.png,1,m,Tue Jul 01 2025 14:15:54 GMT-0500 (Central Daylight Time),110854.60000000149,1500,O,m,570,8,1,2863.4000000059605,107991.19999999553,7180,NTS,B,7
7,7,prac,1,A,circle.png,1,m,Tue Jul 01 2025 14:15:54 GMT-0500 (Central Daylight Time),113920.5,1700,O,m,575,6,1,3058.60000000149,110861.89999999851,7180,NTS,B,8
2,8,prac,1,A,circle.png,1,z,Tue Jul 01 2025 14:15:54 GMT-0500 (Central Daylight Time),117249.0,2000,O,z,536,2,1,3322.10000000149,113926.89999999851,7180,NTS,B,9
1,9,prac,1,A,circle.png,1,z,Tue Jul 01 2025 14:15:54 GMT-0500 (Central Daylight Time),119615.69999999553,1000,O,z,566,1,1,2354.0999999940395,117261.60000000149,7180,NTS,B,10
4,10,prac,1,A,circle.png,1,z,Tue Jul 01 2025 14:15:54 GMT-0500 (Central Daylight Time),122634.10000000149,1400,O,z,832,4,1,3012.2000000029802,119621.89999999851,7180,NTS,B,11
2,11,prac,1,A,circle.png,1,z,Tue Jul 01 2025 14:15:54 GMT-0500 (Central Daylight Time),125966.69999999553,2000,O,z,550,2,1,3327.6999999955297,122639.0,7180,NTS,B,12
6,0,prac,1,B,triangle.png,0,m,Tue Jul 01 2025 14:15:54 GMT-0500 (Central Daylight Time),163553.79999999702,1000,O,z,1249,5,1,3024.6999999955297,160529.1000000015,7180,NTS,B,1
6,1,prac,1,B,triangle.png,1,m,Tue Jul 01 2025 14:15:54 GMT-0500 (Central Daylight Time),166518.3999999985,1000,O,m,1166,5,1,2956.39999999851,163562.0,7180,NTS,B,2
7,2,prac,1,B,triangle.png,1,z,Tue Jul 01 2025 14:15:54 GMT-0500 (Central Daylight Time),170316.5,2000,O,z,1010,6,1,3789.7000000029802,166526.79999999702,7180,NTS,B,3
1,3,prac,1,B,triangle.png,1,z,Tue Jul 01 2025 14:15:54 GMT-0500 (Central Daylight Time),173766.1000000015,1900,O,z,759,1,1,3445.4000000059605,170320.69999999553,7180,NTS,B,4
1,4,prac,1,B,triangle.png,1,z,Tue Jul 01 2025 14:15:54 GMT-0500 (Central Daylight Time),177498.0,1900,O,z,1047,1,1,3720.8000000044703,173777.19999999553,7180,NTS,B,5
9,5,prac,1,B,triangle.png,1,z,Tue Jul 01 2025 14:15:54 GMT-0500 (Central Daylight Time),180680.69999999553,1400,O,z,990,8,1,3170.89999999851,177509.79999999702,7180,NTS,B,6
8,6,prac,1,B,triangle.png,1,m,Tue Jul 01 2025 14:15:54 GMT-0500 (Central Daylight Time),183363.3999999985,1200,O,m,695,7,1,2670.7000000029802,180692.69999999553,7180,NTS,B,7
3,7,prac,1,B,triangle.png,1,z,Tue Jul 01 2025 14:15:54 GMT-0500 (Central Daylight Time),186763.69999999553,1600,O,z,1030,3,1,3387.89999999851,183375.79999999702,7180,NTS,B,8
4,8,prac,1,B,triangle.png,1,m,Tue Jul 01 2025 14:15:54 GMT-0500 (Central Daylight Time),189628.69999999553,1500,O,m,577,4,1,2857.89999999851,186770.79999999702,7180,NTS,B,9
8,9,prac,1,B,triangle.png,1,m,Tue Jul 01 2025 14:15:54 GMT-0500 (Central Daylight Time),192243.3999999985,1200,O,m,627,7,1,2607.10000000149,189636.29999999702,7180,NTS,B,10
9,10,prac,1,B,triangle.png,1,z,Tue Jul 01 2025 14:15:54 GMT-0500 (Central Daylight Time),195076.6000000015,1400,O,z,636,8,1,2822.0,192254.6000000015,7180,NTS,B,11
2,11,prac,1,B,triangle.png,1,m,Tue Jul 01 2025 14:15:54 GMT-0500 (Central Daylight Time),198192.6000000015,1700,O,m,624,2,1,3109.3000000044703,195083.29999999702,7180,NTS,B,12
7,0,test,1,A,circle.png,0,m,Tue Jul 01 2025 14:15:54 GMT-0500 (Central Daylight Time),226715.8999999985,1700,O,None,1515,6,1,3229.7000000029802,223486.19999999553,7180,NTS,B,1
2,1,test,1,A,circle.png,1,z,Tue Jul 01 2025 14:15:54 GMT-0500 (Central Daylight Time),229296.5,2000,O,z,566,2,1,2573.2000000029802,226723.29999999702,7180,NTS,B,2
9,2,test,1,A,circle.png,1,m,Tue Jul 01 2025 14:15:54 GMT-0500 (Central Daylight Time),231448.79999999702,1500,O,m,615,8,1,2149.7999999970198,229299.0,7180,NTS,B,3
4,3,test,1,A,circle.png,1,z,Tue Jul 01 2025 14:15:54 GMT-0500 (Central Daylight Time),233880.1000000015,1400,O,z,998,4,1,2425.7000000029802,231454.3999999985,7180,NTS,B,4
1,4,test,1,A,circle.png,1,z,Tue Jul 01 2025 14:15:54 GMT-0500 (Central Daylight Time),235482.79999999702,1000,O,z,584,1,1,1596.5,233886.29999999702,7180,NTS,B,5
1,5,test,1,A,circle.png,1,z,Tue Jul 01 2025 14:15:54 GMT-0500 (Central Daylight Time),237063.19999999553,1000,O,z,549,1,1,1574.8999999985099,235488.29999999702,7180,NTS,B,6
3,6,test,1,A,circle.png,1,z,Tue Jul 01 2025 14:15:54 GMT-0500 (Central Daylight Time),238896.6000000015,1200,O,z,601,3,1,1827.4000000059605,237069.19999999553,7180,NTS,B,7
7,7,test,1,A,circle.png,1,m,Tue Jul 01 2025 14:15:54 GMT-0500 (Central Daylight Time),241212.1000000015,1700,O,m,596,6,1,2310.7000000029802,238901.3999999985,7180,NTS,B,8
6,8,test,1,A,circle.png,1,m,Tue Jul 01 2025 14:15:54 GMT-0500 (Central Daylight Time),243795.69999999553,1900,O,m,665,5,1,2578.7999999970198,241216.8999999985,7180,NTS,B,9
2,9,test,1,A,circle.png,1,z,Tue Jul 01 2025 14:15:54 GMT-0500 (Central Daylight Time),246325.3999999985,2000,O,z,510,2,1,2524.10000000149,243801.29999999702,7180,NTS,B,10
8,10,test,1,A,circle.png,1,m,Tue Jul 01 2025 14:15:54 GMT-0500 (Central Daylight Time),248709.79999999702,1600,O,m,754,7,1,2379.5,246330.29999999702,7180,NTS,B,11
8,11,test,1,A,circle.png,1,m,Tue Jul 01 2025 14:15:54 GMT-0500 (Central Daylight Time),250891.8999999985,1600,O,m,557,7,1,2177.2000000029802,248714.69999999553,7180,NTS,B,12
8,12,test,1,A,circle.png,1,m,Tue Jul 01 2025 14:15:54 GMT-0500 (Central Daylight Time),253008.19999999553,1600,O,m,492,7,1,2111.1999999955297,250897.0,7180,NTS,B,13
1,13,test,1,A,circle.png,1,z,Tue Jul 01 2025 14:15:54 GMT-0500 (Central Daylight Time),254624.0,1000,O,z,591,1,1,1610.8999999985099,253013.1000000015,7180,NTS,B,14
8,14,test,1,A,circle.png,1,m,Tue Jul 01 2025 14:15:54 GMT-0500 (Central Daylight Time),256824.1000000015,1600,O,m,567,7,1,2196.2000000029802,254627.8999999985,7180,NTS,B,15
1,15,test,1,A,circle.png,1,z,Tue Jul 01 2025 14:15:54 GMT-0500 (Central Daylight Time),258355.0,1000,O,z,513,1,1,1525.8999999985099,256829.1000000015,7180,NTS,B,16
3,16,test,1,A,circle.png,1,z,Tue Jul 01 2025 14:15:54 GMT-0500 (Central Daylight Time),260255.8999999985,1200,O,z,667,3,1,1895.2999999970198,258360.6000000015,7180,NTS,B,17
7,17,test,1,A,circle.png,1,m,Tue Jul 01 2025 14:15:54 GMT-0500 (Central Daylight Time),262588.0,1700,O,m,605,6,1,2328.2000000029802,260259.79999999702,7180,NTS,B,18
6,17,test,1,A,circle.png,0,m,Tue Jul 01 2025 14:15:54 GMT-0500 (Central Daylight Time),265236.3999999985,1900,O,z,728,5,1,2643.60000000149,262592.799999997,7180,NTS,B,19
3,18,test,1,A,circle.png,1,z,Tue Jul 01 2025 14:15:54 GMT-0500 (Central Daylight Time),267036.19999999553,1200,O,z,580,3,1,1794.1999999955297,265242.0,7180,NTS,B,20
4,19,test,1,A,circle.png,1,z,Tue Jul 01 2025 14:15:54 GMT-0500 (Central Daylight Time),269069.19999999553,1400,O,z,602,4,1,2028.6999999955297,267040.5,7180,NTS,B,21
9,20,test,1,A,circle.png,1,m,Tue Jul 01 2025 14:15:54 GMT-0500 (Central Daylight Time),271185.5,1500,O,m,594,8,1,2111.5,269074.0,7180,NTS,B,22
2,21,test,1,A,circle.png,1,z,Tue Jul 01 2025 14:15:54 GMT-0500 (Central Daylight Time),273868.6000000015,2000,O,z,663,2,1,2678.9000000059605,271189.69999999553,7180,NTS,B,23
9,22,test,1,A,circle.png,1,m,Tue Jul 01 2025 14:15:54 GMT-0500 (Central Daylight Time),276151.299999997,1500,O,m,760,8,1,2279.0,273872.299999997,7180,NTS,B,24
1,1,test,1,B,triangle.png,1,z,Tue Jul 01 2025 14:15:54 GMT-0500 (Central Daylight Time),298393.0,1400,O,z,942,9,1,2358.7000000029802,296034.299999997,7180,NTS,B,1
8,2,test,1,B,triangle.png,1,m,Tue Jul 01 2025 14:15:54 GMT-0500 (Central Daylight Time),300260.3999999985,1200,O,m,638,7,1,1862.5,298397.8999999985,7180,NTS,B,2
1,3,test,1,B,triangle.png,1,z,Tue Jul 01 2025 14:15:54 GMT-0500 (Central Daylight Time),302275.69999999553,1400,O,z,599,9,1,2011.0,300264.69999999553,7180,NTS,B,3
1,4,test,1,B,triangle.png,1,z,Tue Jul 01 2025 14:15:54 GMT-0500 (Central Daylight Time),304757.5,1900,O,z,553,1,1,2475.3000000044703,302282.19999999553,7180,NTS,B,4
3,5,test,1,B,triangle.png,1,z,Tue Jul 01 2025 14:15:54 GMT-0500 (Central Daylight Time),307373.8999999985,2000,O,z,595,11,1,2611.39999999851,304762.5,7180,NTS,B,5
9,6,test,1,B,triangle.png,1,z,Tue Jul 01 2025 14:15:54 GMT-0500 (Central Daylight Time),310140.6000000015,1900,O,z,846,16,1,2758.9000000059605,307381.69999999553,7180,NTS,B,6
7,7,test,1,B,triangle.png,1,z,Tue Jul 01 2025 14:15:54 GMT-0500 (Central Daylight Time),312755.3999999985,2000,O,z,597,6,1,2610.39999999851,310145.0,7180,NTS,B,7
7,8,test,1,B,triangle.png,1,z,Tue Jul 01 2025 14:15:54 GMT-0500 (Central Daylight Time),315539.8999999985,2000,O,z,767,6,1,2778.7000000029802,312761.19999999553,7180,NTS,B,8
7,9,test,1,B,triangle.png,1,z,Tue Jul 01 2025 14:15:54 GMT-0500 (Central Daylight Time),317721.3999999985,1600,O,z,551,14,1,2175.89999999851,315545.5,7180,NTS,B,9
6,10,test,1,B,triangle.png,1,m,Tue Jul 01 2025 14:15:54 GMT-0500 (Central Daylight Time),319970.19999999553,1500,O,m,725,13,1,2241.5999999940395,317728.6000000015,7180,NTS,B,10
9,11,test,1,B,triangle.png,1,z,Tue Jul 01 2025 14:15:54 GMT-0500 (Central Daylight Time),322186.0,1400,O,z,798,8,1,2212.0,319974.0,7180,NTS,B,11
4,12,test,1,B,triangle.png,1,m,Tue Jul 01 2025 14:15:54 GMT-0500 (Central Daylight Time),324118.299999997,1000,O,m,902,12,1,1928.8999999985099,322189.3999999985,7180,NTS,B,12
6,13,test,1,B,triangle.png,1,m,Tue Jul 01 2025 14:15:54 GMT-0500 (Central Daylight Time),326202.5,1000,O,m,1066,5,1,2079.89999999851,324122.6000000015,7180,NTS,B,13
4,14,test,1,B,triangle.png,1,m,Tue Jul 01 2025 14:15:54 GMT-0500 (Central Daylight Time),328516.3999999985,1500,O,m,785,4,1,2310.10000000149,326206.299999997,7180,NTS,B,14
9,15,test,1,B,triangle.png,1,z,Tue Jul 01 2025 14:15:54 GMT-0500 (Central Daylight Time),331149.1000000015,1900,O,z,712,16,1,2628.4000000059605,328520.69999999553,7180,NTS,B,15
2,16,test,1,B,triangle.png,1,m,Tue Jul 01 2025 14:15:54 GMT-0500 (Central Daylight Time),333032.1000000015,1200,O,m,657,10,1,1878.4000000059605,331153.69999999553,7180,NTS,B,16
3,17,test,1,B,triangle.png,1,z,Tue Jul 01 2025 14:15:54 GMT-0500 (Central Daylight Time),335281.6000000015,1600,O,z,615,3,1,2245.2000000029802,333036.3999999985,7180,NTS,B,17
6,18,test,1,B,triangle.png,1,m,Tue Jul 01 2025 14:15:54 GMT-0500 (Central Daylight Time),337464.6000000015,1500,O,m,659,13,1,2175.9000000059605,335288.69999999553,7180,NTS,B,18
4,19,test,1,B,triangle.png,1,m,Tue Jul 01 2025 14:15:54 GMT-0500 (Central Daylight Time),339114.8999999985,1000,O,m,633,12,1,1645.5,337469.3999999985,7180,NTS,B,19
2,20,test,1,B,triangle.png,1,m,Tue Jul 01 2025 14:15:54 GMT-0500 (Central Daylight Time),340746.6000000015,1200,O,m,408,10,1,1626.7000000029802,339119.8999999985,7180,NTS,B,20
8,21,test,1,B,triangle.png,1,m,Tue Jul 01 2025 14:15:54 GMT-0500 (Central Daylight Time),342530.5,1200,O,m,548,7,1,1779.1000000014901,340751.3999999985,7180,NTS,B,21
2,22,test,1,B,triangle.png,1,m,Tue Jul 01 2025 14:15:54 GMT-0500 (Central Daylight Time),344794.299999997,1700,O,m,539,2,1,2260.0,342534.299999997,7180,NTS,B,22
8,23,test,1,B,triangle.png,1,m,Tue Jul 01 2025 14:15:54 GMT-0500 (Central Daylight Time),347075.3999999985,1700,O,m,560,15,1,2276.7000000029802,344798.69999999553,7180,NTS,B,23
3,24,test,1,B,triangle.png,1,z,Tue Jul 01 2025 14:15:54 GMT-0500 (Central Daylight Time),349274.799999997,1600,O,z,572,3,1,2196.89999999851,347077.8999999985,7180,NTS,B,24
1,0,prac,1,C,circle.png,0,z,Tue Jul 01 2025 14:15:54 GMT-0500 (Central Daylight Time),424836.0,1700,O,None,1517,1,1,3987.8000000044703,420848.19999999553,7180,NTS,B,1
6,0,prac,1,C,circle.png,0,m,Tue Jul 01 2025 14:15:54 GMT-0500 (Central Daylight Time),429118.8999999985,2000,O,None,1501,5,1,4274.39999999851,424844.5,7180,NTS,B,2
9,1,prac,1,C,circle.png,1,m,Tue Jul 01 2025 14:15:54 GMT-0500 (Central Daylight Time),432669.3999999985,1900,O,m,863,8,1,3540.7000000029802,429128.69999999553,7180,NTS,B,3
4,2,prac,1,C,circle.png,1,z,Tue Jul 01 2025 14:15:54 GMT-0500 (Central Daylight Time),435250.69999999553,1000,O,z,805,4,1,2573.2999999970198,432677.3999999985,7180,NTS,B,4
3,3,prac,1,C,triangle.png,1,z,Tue Jul 01 2025 14:15:54 GMT-0500 (Central Daylight Time),438899.299999997,1500,O,z,1369,3,1,3640.2999999970198,435259.0,7180,NTS,B,5
1,4,prac,1,C,circle.png,1,z,Tue Jul 01 2025 14:15:54 GMT-0500 (Central Daylight Time),442732.3999999985,1700,O,z,1353,1,1,3824.39999999851,438908.0,7180,NTS,B,6
7,4,prac,1,C,triangle.png,0,z,Tue Jul 01 2025 14:15:54 GMT-0500 (Central Daylight Time),446214.19999999553,1200,O,None,1501,6,1,3474.5,442739.69999999553,7180,NTS,B,7
2,5,prac,1,C,triangle.png,1,m,Tue Jul 01 2025 14:15:54 GMT-0500 (Central Daylight Time),449528.19999999553,1600,O,m,932,2,1,3306.6999999955297,446221.5,7180,NTS,B,8
7,6,prac,1,C,triangle.png,1,z,Tue Jul 01 2025 14:15:54 GMT-0500 (Central Daylight Time),452694.69999999553,1200,O,z,1166,6,1,3159.89999999851,449534.799999997,7180,NTS,B,9
6,6,prac,1,C,circle.png,0,m,Tue Jul 01 2025 14:15:54 GMT-0500 (Central Daylight Time),456992.799999997,2000,O,None,1516,5,1,4291.10000000149,452701.69999999553,7180,NTS,B,10
8,6,prac,1,C,triangle.png,0,m,Tue Jul 01 2025 14:15:54 GMT-0500 (Central Daylight Time),460291.69999999553,1400,O,z,1101,7,1,3290.5999999940395,457001.1000000015,7180,NTS,B,11
8,6,prac,1,C,triangle.png,0,m,Tue Jul 01 2025 14:15:54 GMT-0500 (Central Daylight Time),463991.299999997,1400,O,None,1516,7,1,3691.1999999955297,460300.1000000015,7180,NTS,B,12
8,1,prac,2,C,triangle.png,1,m,Tue Jul 01 2025 14:15:54 GMT-0500 (Central Daylight Time),473669.799999997,1400,O,m,1475,7,1,3662.6999999955297,470007.1000000015,7180,NTS,B,1
6,1,prac,2,C,circle.png,0,m,Tue Jul 01 2025 14:15:54 GMT-0500 (Central Daylight Time),477937.8999999985,2000,O,None,1501,5,1,4263.20000000298,473674.69999999553,7180,NTS,B,2
7,2,prac,2,C,triangle.png,1,z,Tue Jul 01 2025 14:15:54 GMT-0500 (Central Daylight Time),481219.799999997,1200,O,z,1298,6,1,3276.2999999970198,477943.5,7180,NTS,B,3
6,3,prac,2,C,circle.png,1,m,Tue Jul 01 2025 14:15:54 GMT-0500 (Central Daylight Time),485284.799999997,2000,O,m,1293,5,1,4058.5,481226.299999997,7180,NTS,B,4
8,4,prac,2,C,triangle.png,1,m,Tue Jul 01 2025 14:15:54 GMT-0500 (Central Daylight Time),488783.8999999985,1400,O,m,1325,7,1,3495.10000000149,485288.799999997,7180,NTS,B,5
4,5,prac,2,C,circle.png,1,z,Tue Jul 01 2025 14:15:54 GMT-0500 (Central Daylight Time),491398.3999999985,1000,O,z,826,4,1,2607.2999999970198,488791.1000000015,7180,NTS,B,6
4,6,prac,2,C,circle.png,1,z,Tue Jul 01 2025 14:15:54 GMT-0500 (Central Daylight Time),494114.5,1000,O,z,916,4,1,2708.10000000149,491406.3999999985,7180,NTS,B,7
9,7,prac,2,C,circle.png,1,m,Tue Jul 01 2025 14:15:54 GMT-0500 (Central Daylight Time),497897.69999999553,1900,O,m,1083,8,1,3774.7999999970198,494122.8999999985,7180,NTS,B,8
1,8,prac,2,C,circle.png,1,z,Tue Jul 01 2025 14:15:54 GMT-0500 (Central Daylight Time),501314.6000000015,1700,O,z,930,1,1,3411.9000000059605,497902.69999999553,7180,NTS,B,9
3,9,prac,2,C,triangle.png,1,z,Tue Jul 01 2025 14:15:54 GMT-0500 (Central Daylight Time),504561.799999997,1500,O,z,973,3,1,3240.1999999955297,501321.6000000015,7180,NTS,B,10
2,10,prac,2,C,triangle.png,1,m,Tue Jul 01 2025 14:15:54 GMT-0500 (Central Daylight Time),508045.3999999985,1600,O,m,1086,2,1,3477.39999999851,504568.0,7180,NTS,B,11
2,11,prac,2,C,triangle.png,1,m,Tue Jul 01 2025 14:15:54 GMT-0500 (Central Daylight Time),511226.5,1600,O,m,788,2,1,3174.7000000029802,508051.799999997,7180,NTS,B,12
1,1,test,1,C,triangle.png,1,z,Tue Jul 01 2025 14:15:54 GMT-0500 (Central Daylight Time),538067.299999997,1900,O,z,1256,17,1,3173.0,534894.299999997,7180,NTS,B,1
1,1,test,1,C,triangle.png,0,z,Tue Jul 01 2025 14:15:54 GMT-0500 (Central Daylight Time),541499.299999997,1900,O,None,1514,9,1,3426.0,538073.299999997,7180,NTS,B,2
4,1,test,1,C,circle.png,0,z,Tue Jul 01 2025 14:15:54 GMT-0500 (Central Daylight Time),543732.0,1400,O,m,804,4,1,2224.5,541507.5,7180,NTS,B,3
7,1,test,1,C,triangle.png,0,z,Tue Jul 01 2025 14:15:54 GMT-0500 (Central Daylight Time),546963.299999997,1700,O,None,1514,22,1,3220.5,543742.799999997,7180,NTS,B,4
8,2,test,1,C,triangle.png,1,m,Tue Jul 01 2025 14:15:54 GMT-0500 (Central Daylight Time),549580.299999997,1600,O,m,996,7,1,2610.1999999955297,546970.1000000015,7180,NTS,B,5
6,2,test,1,C,circle.png,0,m,Tue Jul 01 2025 14:15:54 GMT-0500 (Central Daylight Time),553011.1999999955,1900,O,None,1514,21,1,3423.0999999940395,549588.1000000015,7180,NTS,B,6
2,2,test,1,C,triangle.png,0,m,Tue Jul 01 2025 14:15:54 GMT-0500 (Central Daylight Time),556394.1000000015,2000,O,z,1364,2,1,3373.7000000029802,553020.3999999985,7180,NTS,B,7
6,3,test,1,C,circle.png,1,m,Tue Jul 01 2025 14:15:54 GMT-0500 (Central Daylight Time),559810.1000000015,1900,O,m,1489,5,1,3411.4000000059605,556398.6999999955,7180,NTS,B,8
7,3,test,1,C,triangle.png,0,z,Tue Jul 01 2025 14:15:54 GMT-0500 (Central Daylight Time),563042.5,1700,O,None,1514,6,1,3228.39999999851,559814.1000000015,7180,NTS,B,9
7,3,test,1,C,circle.png,0,m,Tue Jul 01 2025 14:15:54 GMT-0500 (Central Daylight Time),566574.3999999985,2000,O,None,1514,14,1,3527.2999999970198,563047.1000000015,7180,NTS,B,10
2,3,test,1,C,circle.png,0,z,Tue Jul 01 2025 14:15:54 GMT-0500 (Central Daylight Time),569805.299999997,1700,O,None,1513,10,1,3226.1999999955297,566579.1000000015,7180,NTS,B,11
3,3,test,1,C,triangle.png,0,z,Tue Jul 01 2025 14:15:54 GMT-0500 (Central Daylight Time),572540.799999997,1200,O,None,1516,3,1,2731.0,569809.799999997,7180,NTS,B,12
6,4,test,1,C,triangle.png,1,m,Tue Jul 01 2025 14:15:54 GMT-0500 (Central Daylight Time),574621.799999997,1000,O,m,1052,13,1,2074.89999999851,572546.8999999985,7180,NTS,B,13
2,5,test,1,C,circle.png,1,z,Tue Jul 01 2025 14:15:54 GMT-0500 (Central Daylight Time),577687.799999997,1700,O,z,1334,18,1,3060.89999999851,574626.8999999985,7180,NTS,B,14
9,6,test,1,C,circle.png,1,m,Tue Jul 01 2025 14:15:54 GMT-0500 (Central Daylight Time),579971.1000000015,1500,O,m,766,8,1,2278.7000000029802,577692.3999999985,7180,NTS,B,15
1,7,test,1,C,circle.png,1,z,Tue Jul 01 2025 14:15:54 GMT-0500 (Central Daylight Time),581670.0,1000,O,z,669,1,1,1693.0,579977.0,7180,NTS,B,16
4,7,test,1,C,triangle.png,0,m,Tue Jul 01 2025 14:15:54 GMT-0500 (Central Daylight Time),584685.799999997,1500,O,None,1502,12,1,3010.7999999970198,581675.0,7180,NTS,B,17
3,8,test,1,C,circle.png,1,z,Tue Jul 01 2025 14:15:54 GMT-0500 (Central Daylight Time),587734.1999999955,1600,O,z,1428,19,1,3043.5999999940395,584690.6000000015,7180,NTS,B,18
9,8,test,1,C,triangle.png,0,z,Tue Jul 01 2025 14:15:54 GMT-0500 (Central Daylight Time),590666.799999997,1400,O,None,1514,16,1,2928.2999999970198,587738.5,7180,NTS,B,19
8,8,test,1,C,circle.png,0,m,Tue Jul 01 2025 14:15:54 GMT-0500 (Central Daylight Time),593398.8999999985,1200,O,None,1516,15,1,2725.10000000149,590673.799999997,7180,NTS,B,20
8,9,test,1,C,triangle.png,1,m,Tue Jul 01 2025 14:15:54 GMT-0500 (Central Daylight Time),596381.1999999955,1600,O,m,1363,23,1,2976.5,593404.6999999955,7180,NTS,B,21
4,10,test,1,C,triangle.png,1,m,Tue Jul 01 2025 14:15:54 GMT-0500 (Central Daylight Time),598765.1999999955,1500,O,m,866,20,1,2379.5,596385.6999999955,7180,NTS,B,22
3,11,test,1,C,circle.png,1,z,Tue Jul 01 2025 14:15:54 GMT-0500 (Central Daylight Time),601580.5,1600,O,z,1187,11,1,2810.39999999851,598770.1000000015,7180,NTS,B,23
9,12,test,1,C,circle.png,1,m,Tue Jul 01 2025 14:15:54 GMT-0500 (Central Daylight Time),604147.3999999985,1500,O,m,1050,24,1,2561.7000000029802,601585.6999999955,7180,NTS,B,24
9,0,test,2,C,triangle.png,0,z,Tue Jul 01 2025 14:15:54 GMT-0500 (Central Daylight Time),639718.3999999985,1400,O,None,1516,16,1,2926.0,636792.3999999985,7180,NTS,B,1
4,0,test,2,C,triangle.png,0,m,Tue Jul 01 2025 14:15:54 GMT-0500 (Central Daylight Time),642633.799999997,1500,O,z,1390,12,1,2909.1999999955297,639724.6000000015,7180,NTS,B,2
6,0,test,2,C,triangle.png,0,m,Tue Jul 01 2025 14:15:54 GMT-0500 (Central Daylight Time),645151.299999997,1000,O,None,1501,21,1,2513.6999999955297,642637.6000000015,7180,NTS,B,3
8,0,test,2,C,circle.png,0,m,Tue Jul 01 2025 14:15:54 GMT-0500 (Central Daylight Time),647883.299999997,1200,O,None,1516,15,1,2727.10000000149,645156.1999999955,7180,NTS,B,4
2,0,test,2,C,circle.png,0,z,Tue Jul 01 2025 14:15:54 GMT-0500 (Central Daylight Time),651116.5,1700,O,None,1517,10,1,3228.0,647888.5,7180,NTS,B,5
1,1,test,2,C,triangle.png,1,z,Tue Jul 01 2025 14:15:54 GMT-0500 (Central Daylight Time),654196.3999999985,1900,O,z,1161,9,1,3073.60000000149,651122.799999997,7180,NTS,B,6
7,2,test,2,C,circle.png,1,m,Tue Jul 01 2025 14:15:54 GMT-0500 (Central Daylight Time),657279.0,2000,O,m,1058,14,1,3077.3000000044703,654201.6999999955,7180,NTS,B,7
9,3,test,2,C,triangle.png,1,z,Tue Jul 01 2025 14:15:54 GMT-0500 (Central Daylight Time),659978.6000000015,1400,O,z,1281,24,1,2695.10000000149,657283.5,7180,NTS,B,8
9,4,test,2,C,circle.png,1,m,Tue Jul 01 2025 14:15:54 GMT-0500 (Central Daylight Time),662493.5,1500,O,m,994,8,1,2510.8000000044703,659982.6999999955,7180,NTS,B,9
3,5,test,2,C,circle.png,1,z,Tue Jul 01 2025 14:15:54 GMT-0500 (Central Daylight Time),665209.1999999955,1600,O,z,1089,19,1,2712.0,662497.1999999955,7180,NTS,B,10
3,6,test,2,C,triangle.png,1,z,Tue Jul 01 2025 14:15:54 GMT-0500 (Central Daylight Time),667827.1000000015,1200,O,z,1384,3,1,2614.10000000149,665213.0,7180,NTS,B,11
2,7,test,2,C,circle.png,1,z,Tue Jul 01 2025 14:15:54 GMT-0500 (Central Daylight Time),670575.1000000015,1700,O,z,1026,18,1,2740.60000000149,667834.5,7180,NTS,B,12
7,8,test,2,C,circle.png,1,m,Tue Jul 01 2025 14:15:54 GMT-0500 (Central Daylight Time),673807.1000000015,2000,O,m,1198,22,1,3224.4000000059605,670582.6999999955,7180,NTS,B,13
1,9,test,2,C,circle.png,1,z,Tue Jul 01 2025 14:15:54 GMT-0500 (Central Daylight Time),675506.299999997,1000,O,z,680,1,1,1694.6999999955297,673811.6000000015,7180,NTS,B,14
6,10,test,2,C,triangle.png,1,m,Tue Jul 01 2025 14:15:54 GMT-0500 (Central Daylight Time),677754.8999999985,1000,O,m,1230,13,1,2244.5,675510.3999999985,7180,NTS,B,15
6,11,test,2,C,circle.png,1,m,Tue Jul 01 2025 14:15:54 GMT-0500 (Central Daylight Time),681121.8999999985,1900,O,m,1441,5,1,3362.0,677759.8999999985,7180,NTS,B,16
8,12,test,2,C,triangle.png,1,m,Tue Jul 01 2025 14:15:54 GMT-0500 (Central Daylight Time),684003.6000000015,1600,O,m,1255,7,1,2876.5,681127.1000000015,7180,NTS,B,17
3,13,test,2,C,circle.png,1,z,Tue Jul 01 2025 14:15:54 GMT-0500 (Central Daylight Time),686585.6999999955,1600,O,z,957,11,1,2577.89999999851,684007.799999997,7180,NTS,B,18
1,14,test,2,C,triangle.png,1,z,Tue Jul 01 2025 14:15:54 GMT-0500 (Central Daylight Time),689685.5,1900,O,z,1183,17,1,3095.89999999851,686589.6000000015,7180,NTS,B,19
2,15,test,2,C,triangle.png,1,m,Tue Jul 01 2025 14:15:54 GMT-0500 (Central Daylight Time),692884.0,2000,O,m,1172,2,1,3194.0,689690.0,7180,NTS,B,20
8,15,test,2,C,circle.png,0,m,Tue Jul 01 2025 14:15:54 GMT-0500 (Central Daylight Time),695617.8999999985,1200,O,None,1515,23,1,2729.7000000029802,692888.1999999955,7180,NTS,B,21
4,15,test,2,C,triangle.png,0,m,Tue Jul 01 2025 14:15:54 GMT-0500 (Central Daylight Time),698649.6000000015,1500,O,None,1517,20,1,3027.10000000149,695622.5,7180,NTS,B,22
4,16,test,2,C,circle.png,1,z,Tue Jul 01 2025 14:15:54 GMT-0500 (Central Daylight Time),701448.0,1400,O,z,1375,4,1,2793.5,698654.5,7180,NTS,B,23
7,16,test,2,C,triangle.png,0,z,Tue Jul 01 2025 14:15:54 GMT-0500 (Central Daylight Time),704430.3999999985,1700,O,m,1261,6,1,2978.0,701452.3999999985,7180,NTS,B,24
6,1,test,3,C,circle.png,1,m,Tue Jul 01 2025 14:15:54 GMT-0500 (Central Daylight Time),715645.1000000015,1900,O,m,1433,21,1,3345.0,712300.1000000015,7180,NTS,B,1
4,2,test,3,C,circle.png,1,z,Tue Jul 01 2025 14:15:54 GMT-0500 (Central Daylight Time),717844.6999999955,1400,O,z,783,20,1,2194.7999999970198,715649.8999999985,7180,NTS,B,2
1,3,test,3,C,circle.png,1,z,Tue Jul 01 2025 14:15:54 GMT-0500 (Central Daylight Time),719576.1999999955,1000,O,z,702,17,1,1727.5,717848.6999999955,7180,NTS,B,3
7,4,test,3,C,triangle.png,1,z,Tue Jul 01 2025 14:15:54 GMT-0500 (Central Daylight Time),722508.299999997,1700,O,z,1204,6,1,2926.39999999851,719581.8999999985,7180,NTS,B,4
4,5,test,3,C,triangle.png,1,m,Tue Jul 01 2025 14:15:54 GMT-0500 (Central Daylight Time),724924.0,1500,O,m,899,12,1,2410.3000000044703,722513.6999999955,7180,NTS,B,5
8,6,test,3,C,circle.png,1,m,Tue Jul 01 2025 14:15:54 GMT-0500 (Central Daylight Time),727139.8999999985,1200,O,m,988,15,1,2211.7999999970198,724928.1000000015,7180,NTS,B,6
9,6,test,3,C,circle.png,0,m,Tue Jul 01 2025 14:15:54 GMT-0500 (Central Daylight Time),730172.1000000015,1500,O,None,1514,24,1,3027.4000000059605,727144.6999999955,7180,NTS,B,7
9,7,test,3,C,triangle.png,1,z,Tue Jul 01 2025 14:15:54 GMT-0500 (Central Daylight Time),732986.3999999985,1400,O,z,1397,16,1,2807.7000000029802,730178.6999999955,7180,NTS,B,8
3,8,test,3,C,triangle.png,1,z,Tue Jul 01 2025 14:15:54 GMT-0500 (Central Daylight Time),735253.6999999955,1200,O,z,1045,19,1,2264.7999999970198,732988.8999999985,7180,NTS,B,9
2,9,test,3,C,triangle.png,1,m,Tue Jul 01 2025 14:15:54 GMT-0500 (Central Daylight Time),738069.8999999985,2000,O,m,799,2,1,2811.39999999851,735258.5,7180,NTS,B,10
8,9,test,3,C,triangle.png,0,m,Tue Jul 01 2025 14:15:54 GMT-0500 (Central Daylight Time),741202.6999999955,1600,O,None,1515,7,1,3128.6999999955297,738074.0,7180,NTS,B,11
7,9,test,3,C,circle.png,0,m,Tue Jul 01 2025 14:15:54 GMT-0500 (Central Daylight Time),744718.5,2000,O,None,1501,14,1,3509.60000000149,741208.8999999985,7180,NTS,B,12
2,9,test,3,C,triangle.png,0,m,Tue Jul 01 2025 14:15:54 GMT-0500 (Central Daylight Time),747666.6999999955,2000,O,z,923,18,1,2942.39999999851,744724.299999997,7180,NTS,B,13
4,9,test,3,C,circle.png,0,z,Tue Jul 01 2025 14:15:54 GMT-0500 (Central Daylight Time),750532.5,1400,O,m,1438,4,1,2861.0,747671.5,7180,NTS,B,14
8,10,test,3,C,triangle.png,1,m,Tue Jul 01 2025 14:15:54 GMT-0500 (Central Daylight Time),753515.3999999985,1600,O,m,1358,23,1,2978.0,750537.3999999985,7180,NTS,B,15
1,11,test,3,C,circle.png,1,z,Tue Jul 01 2025 14:15:54 GMT-0500 (Central Daylight Time),755664.299999997,1000,O,z,1123,1,1,2143.2999999970198,753521.0,7180,NTS,B,16
3,12,test,3,C,triangle.png,1,z,Tue Jul 01 2025 14:15:54 GMT-0500 (Central Daylight Time),758062.5,1200,O,z,1176,3,1,2391.8000000044703,755670.6999999955,7180,NTS,B,17
7,13,test,3,C,triangle.png,1,z,Tue Jul 01 2025 14:15:54 GMT-0500 (Central Daylight Time),761213.0,1700,O,z,1422,22,1,3145.3000000044703,758067.6999999955,7180,NTS,B,18
9,14,test,3,C,circle.png,1,m,Tue Jul 01 2025 14:15:54 GMT-0500 (Central Daylight Time),764093.6999999955,1500,O,m,1352,8,1,2876.0,761217.6999999955,7180,NTS,B,19
1,15,test,3,C,triangle.png,1,z,Tue Jul 01 2025 14:15:54 GMT-0500 (Central Daylight Time),767291.5,1900,O,z,1267,9,1,3192.7000000029802,764098.799999997,7180,NTS,B,20
2,16,test,3,C,circle.png,1,z,Tue Jul 01 2025 14:15:54 GMT-0500 (Central Daylight Time),770093.6000000015,1700,O,z,1065,10,1,2799.10000000149,767294.5,7180,NTS,B,21
6,17,test,3,C,triangle.png,1,m,Tue Jul 01 2025 14:15:54 GMT-0500 (Central Daylight Time),772425.6999999955,1000,O,m,1308,13,1,2325.1999999955297,770100.5,7180,NTS,B,22
3,18,test,3,C,circle.png,1,z,Tue Jul 01 2025 14:15:54 GMT-0500 (Central Daylight Time),774924.299999997,1600,O,z,869,11,1,2493.39999999851,772430.8999999985,7180,NTS,B,23
6,19,test,3,C,circle.png,1,m,Tue Jul 01 2025 14:15:54 GMT-0500 (Central Daylight Time),777857.299999997,1900,O,m,999,5,1,2927.7999999970198,774929.5,7180,NTS,B,24
7,1,test,4,C,circle.png,1,m,Tue Jul 01 2025 14:15:54 GMT-0500 (Central Daylight Time),784605.1000000015,2000,O,m,1371,14,1,3395.3000000044703,781209.799999997,7180,NTS,B,1
4,1,test,4,C,triangle.png,0,m,Tue Jul 01 2025 14:15:54 GMT-0500 (Central Daylight Time),787254.3999999985,1500,O,z,1127,12,1,2645.0,784609.3999999985,7180,NTS,B,2
7,1,test,4,C,triangle.png,0,z,Tue Jul 01 2025 14:15:54 GMT-0500 (Central Daylight Time),790436.3999999985,1700,O,m,1452,22,1,3177.89999999851,787258.5,7180,NTS,B,3
1,1,test,4,C,triangle.png,0,z,Tue Jul 01 2025 14:15:54 GMT-0500 (Central Daylight Time),793869.0,1900,O,None,1516,9,1,3427.60000000149,790441.3999999985,7180,NTS,B,4
1,1,test,4,C,circle.png,0,z,Tue Jul 01 2025 14:15:54 GMT-0500 (Central Daylight Time),796102.0,1000,O,m,1202,17,1,2225.3000000044703,793876.6999999955,7180,NTS,B,5
1,2,test,4,C,circle.png,1,z,Tue Jul 01 2025 14:15:54 GMT-0500 (Central Daylight Time),797899.6000000015,1000,O,z,772,1,1,1793.3000000044703,796106.299999997,7180,NTS,B,6
6,3,test,4,C,circle.png,1,m,Tue Jul 01 2025 14:15:54 GMT-0500 (Central Daylight Time),800850.1000000015,1900,O,m,1034,21,1,2943.9000000059605,797906.1999999955,7180,NTS,B,7
6,4,test,4,C,circle.png,1,m,Tue Jul 01 2025 14:15:54 GMT-0500 (Central Daylight Time),803599.799999997,1900,O,m,817,5,1,2744.89999999851,800854.8999999985,7180,NTS,B,8
3,5,test,4,C,triangle.png,1,z,Tue Jul 01 2025 14:15:54 GMT-0500 (Central Daylight Time),806146.8999999985,1200,O,z,1331,3,1,2542.7000000029802,803604.1999999955,7180,NTS,B,9
6,6,test,4,C,triangle.png,1,m,Tue Jul 01 2025 14:15:54 GMT-0500 (Central Daylight Time),808445.6999999955,1000,O,m,1276,13,1,2293.2999999970198,806152.3999999985,7180,NTS,B,10
3,6,test,4,C,circle.png,0,z,Tue Jul 01 2025 14:15:54 GMT-0500 (Central Daylight Time),811580.0,1600,O,None,1513,11,1,3129.60000000149,808450.3999999985,7180,NTS,B,11
2,6,test,4,C,triangle.png,0,m,Tue Jul 01 2025 14:15:54 GMT-0500 (Central Daylight Time),815112.1999999955,2000,O,None,1515,18,1,3526.7999999970198,811585.3999999985,7180,NTS,B,12
9,7,test,4,C,circle.png,1,m,Tue Jul 01 2025 14:15:54 GMT-0500 (Central Daylight Time),817628.799999997,1500,O,m,1001,24,1,2510.2999999970198,815118.5,7180,NTS,B,13
2,8,test,4,C,triangle.png,1,m,Tue Jul 01 2025 14:15:54 GMT-0500 (Central Daylight Time),820925.799999997,2000,O,m,1267,2,1,3291.2999999970198,817634.5,7180,NTS,B,14
8,8,test,4,C,circle.png,0,m,Tue Jul 01 2025 14:15:54 GMT-0500 (Central Daylight Time),823659.5,1200,O,None,1513,15,1,2728.0,820931.5,7180,NTS,B,15
8,8,test,4,C,triangle.png,0,m,Tue Jul 01 2025 14:15:54 GMT-0500 (Central Daylight Time),826792.8999999985,1600,O,None,1517,23,1,3125.7999999970198,823667.1000000015,7180,NTS,B,16
9,8,test,4,C,circle.png,0,m,Tue Jul 01 2025 14:15:54 GMT-0500 (Central Daylight Time),829825.6999999955,1500,O,None,1518,8,1,3025.39999999851,826800.299999997,7180,NTS,B,17
2,8,test,4,C,circle.png,0,z,Tue Jul 01 2025 14:15:54 GMT-0500 (Central Daylight Time),832972.3999999985,1700,O,m,1429,10,1,3142.0,829830.3999999985,7180,NTS,B,18
4,9,test,4,C,circle.png,1,z,Tue Jul 01 2025 14:15:54 GMT-0500 (Central Daylight Time),835620.8999999985,1400,O,z,1230,4,1,2645.60000000149,832975.299999997,7180,NTS,B,19
8,10,test,4,C,triangle.png,1,m,Tue Jul 01 2025 14:15:54 GMT-0500 (Central Daylight Time),838539.1000000015,1600,O,m,1298,7,1,2914.9000000059605,835624.1999999955,7180,NTS,B,20
9,11,test,4,C,triangle.png,1,z,Tue Jul 01 2025 14:15:54 GMT-0500 (Central Daylight Time),840921.1000000015,1400,O,z,950,16,1,2377.7000000029802,838543.3999999985,7180,NTS,B,21
3,12,test,4,C,triangle.png,1,z,Tue Jul 01 2025 14:15:54 GMT-0500 (Central Daylight Time),842885.6000000015,1200,O,z,744,19,1,1960.3000000044703,840925.299999997,7180,NTS,B,22
4,13,test,4,C,circle.png,1,z,Tue Jul 01 2025 14:15:54 GMT-0500 (Central Daylight Time),845353.1000000015,1400,O,z,1050,20,1,2463.5,842889.6000000015,7180,NTS,B,23
7,13,test,4,C,triangle.png,0,z,Tue Jul 01 2025 14:15:54 GMT-0500 (Central Daylight Time),847967.6999999955,1700,O,m,883,6,1,2610.0999999940395,845357.6000000015,7180,NTS,B,24
