acc_sum,block,block_c,condition,correct,correct_response,datetime,endtime,flanker,jitter,project,response,response_test_buffer_response,response_test_target_response,response_time,response_time_test_buffer_response,response_time_test_target_response,row_sel,session_number,start_end,starttime,subject_id,target,task,task_vers,time_test_buffer,time_test_buffer_response,time_test_constants,time_test_flanker,time_test_jitter,time_test_logger,time_test_target,time_test_target_response,time_test_variables,trial
1,prac,1,con,1,m,Tue Dec 16 2025 16:28:07 GMT-0600 (Central Standard Time),124315.20000004768,gold,800,I,m,,,1032,,,13,1,3130.100000023842,121185.10000002384,7255,gold,NF,C,,,,,,,,,,1
2,prac,1,inc,1,m,Tue Dec 16 2025 16:28:07 GMT-0600 (Central Standard Time),127931.60000002384,raisin,1100,I,m,,,1208,,,12,1,3610.100000023842,124321.5,7255,cobalt,NF,C,,,,,,,,,,2
3,prac,1,inc,1,z,Tue Dec 16 2025 16:28:07 GMT-0600 (Central Standard Time),131395.29999995232,cobalt,1100,I,z,,,1063,,,4,1,3457.899999976158,127937.39999997616,7255,raisin,NF,C,,,,,,,,,,3
4,prac,1,con,1,m,Tue Dec 16 2025 16:28:07 GMT-0600 (Central Standard Time),134626.79999995232,zinc,1000,I,m,,,938,,,15,1,3224.899999976158,131401.89999997616,7255,zinc,NF,C,,,,,,,,,,4
5,prac,1,con,1,m,Tue Dec 16 2025 16:28:07 GMT-0600 (Central Standard Time),137609.89999997616,bronze,800,I,m,,,881,,,9,1,2977.0,134632.89999997616,7255,bronze,NF,C,,,,,,,,,,5
6,prac,1,inc,1,m,Tue Dec 16 2025 16:28:07 GMT-0600 (Central Standard Time),140759.60000002384,pear,900,I,m,,,951,,,14,1,3144.399999976158,137615.20000004768,7255,iron,NF,C,,,,,,,,,,6
7,prac,1,con,1,z,Tue Dec 16 2025 16:28:07 GMT-0600 (Central Standard Time),143891.20000004768,kiwi,1000,I,z,,,839,,,7,1,3124.4000000953674,140766.79999995232,7255,kiwi,NF,C,,,,,,,,,,7
8,prac,1,inc,1,z,Tue Dec 16 2025 16:28:07 GMT-0600 (Central Standard Time),147372.60000002384,lead,1100,I,z,,,1078,,,8,1,3476.899999976158,143895.70000004768,7255,plum,NF,C,,,,,,,,,,8
9,prac,1,con,1,m,Tue Dec 16 2025 16:28:07 GMT-0600 (Central Standard Time),150605.0,silver,1000,I,m,,,920,,,11,1,3226.100000023842,147378.89999997616,7255,silver,NF,C,,,,,,,,,,9
10,prac,1,inc,1,m,Tue Dec 16 2025 16:28:07 GMT-0600 (Central Standard Time),154154.60000002384,cherry,900,I,m,,,1337,,,10,1,3542.8000000715256,150611.79999995232,7255,copper,NF,C,,,,,,,,,,10
11,prac,1,con,1,z,Tue Dec 16 2025 16:28:07 GMT-0600 (Central Standard Time),157237.79999995232,orange,1000,I,z,,,798,,,3,1,3075.0999999046326,154162.70000004768,7255,orange,NF,C,,,,,,,,,,11
12,prac,1,inc,1,z,Tue Dec 16 2025 16:28:07 GMT-0600 (Central Standard Time),160403.10000002384,iron,900,I,z,,,956,,,6,1,3158.2000000476837,157244.89999997616,7255,pear,NF,C,,,,,,,,,,12
13,prac,1,con,1,z,Tue Dec 16 2025 16:28:07 GMT-0600 (Central Standard Time),163734.39999997616,banana,800,I,z,,,1242,,,1,1,3326.100000023842,160408.29999995232,7255,banana,NF,C,,,,,,,,,,13
14,prac,1,con,1,z,Tue Dec 16 2025 16:28:07 GMT-0600 (Central Standard Time),166716.60000002384,lime,800,I,z,,,880,,,5,1,2975.8000000715256,163740.79999995232,7255,lime,NF,C,,,,,,,,,,14
15,prac,1,inc,1,z,Tue Dec 16 2025 16:28:07 GMT-0600 (Central Standard Time),169932.10000002384,copper,900,I,z,,,1004,,,2,1,3212.100000023842,166720.0,7255,cherry,NF,C,,,,,,,,,,15
16,prac,1,inc,1,m,Tue Dec 16 2025 16:28:07 GMT-0600 (Central Standard Time),173164.70000004768,plum,1100,I,m,,,837,,,16,1,3228.600000023842,169936.10000002384,7255,lead,NF,C,,,,,,,,,,16
1,test,1,inc,1,m,Tue Dec 16 2025 16:28:07 GMT-0600 (Central Standard Time),182228.60000002384,cherry,900,I,m,m,None,962,747.0,215.0,94,1,2379.5,179849.10000002384,7255,cobalt,NF,C,177052,177052,175421,176334,175421,177801,176836,176836,177801,1
2,test,1,inc,1,z,Tue Dec 16 2025 16:28:07 GMT-0600 (Central Standard Time),184794.60000002384,lead,1100,I,z,z,None,924,724.0,200.0,40,1,2559.600000023842,182235.0,7255,lime,NF,C,179635,179635,177807,178919,177807,180367,179434,179434,180367,2
3,test,1,inc,1,m,Tue Dec 16 2025 16:28:07 GMT-0600 (Central Standard Time),187227.70000004768,plum,1100,I,m,m,None,786,585.0,201.0,104,1,2428.8000000715256,184798.89999997616,7255,gold,NF,C,182199,182199,180371,181483,180371,182800,181998,181998,182800,3
4,test,1,inc,1,z,Tue Dec 16 2025 16:28:07 GMT-0600 (Central Standard Time),189626.39999997616,iron,900,I,z,z,None,965,766.0,199.0,62,1,2395.2999999523163,187231.10000002384,7255,plum,NF,C,184432,184432,182803,183716,182803,185198,184233,184233,185198,4
5,test,1,con,1,m,Tue Dec 16 2025 16:28:07 GMT-0600 (Central Standard Time),191625.5,zinc,1000,I,m,m,None,459,259.0,200.0,115,1,1996.2999999523163,189629.20000004768,7255,zinc,NF,C,186932,186932,185201,186216,185202,187198,186732,186732,187197,5
6,test,1,inc,1,z,Tue Dec 16 2025 16:28:07 GMT-0600 (Central Standard Time),194008.0,copper,900,I,z,z,None,935,734.0,201.0,14,1,2377.100000023842,191630.89999997616,7255,cherry,NF,C,188832,188832,187203,188114,187203,189580,188630,188630,189580,6
7,test,1,con,1,m,Tue Dec 16 2025 16:28:07 GMT-0600 (Central Standard Time),196424.0,iron,1100,I,m,m,None,768,568.0,200.0,108,1,2411.100000023842,194012.89999997616,7255,iron,NF,C,191414,191414,189585,190697,189585,191996,191214,191214,191996,7
8,test,1,inc,1,z,Tue Dec 16 2025 16:28:07 GMT-0600 (Central Standard Time),198674.89999997616,copper,900,I,z,z,None,810,609.0,201.0,22,1,2247.600000023842,196427.29999995232,7255,orange,NF,C,193630,193630,191999,192913,192000,194247,193429,193429,194247,8
9,test,1,inc,1,m,Tue Dec 16 2025 16:28:07 GMT-0600 (Central Standard Time),201011.79999995232,pear,900,I,m,m,None,886,687.0,199.0,110,1,2333.899999976158,198677.89999997616,7255,iron,NF,C,195879,195879,194250,195162,194250,196584,195679,195679,196584,9
10,test,1,inc,1,z,Tue Dec 16 2025 16:28:07 GMT-0600 (Central Standard Time),203541.5,cobalt,1100,I,z,z,None,884,685.0,199.0,32,1,2526.2000000476837,201015.29999995232,7255,raisin,NF,C,198410,198410,196587,197695,196588,199114,198211,198211,199113,10
11,test,1,inc,1,m,Tue Dec 16 2025 16:28:07 GMT-0600 (Central Standard Time),205738.10000002384,lime,800,I,m,m,None,866,666.0,200.0,125,1,2192.899999976158,203545.20000004768,7255,lead,NF,C,200644,200644,199117,199928,199117,201310,200444,200444,201310,11
12,test,1,con,1,z,Tue Dec 16 2025 16:28:07 GMT-0600 (Central Standard Time),208254.5,plum,1100,I,z,z,None,879,680.0,199.0,60,1,2513.399999976158,205741.10000002384,7255,plum,NF,C,203143,203143,201313,202427,201313,203827,202944,202944,203827,12
13,test,1,inc,1,m,Tue Dec 16 2025 16:28:07 GMT-0600 (Central Standard Time),210686.79999995232,plum,1100,I,m,m,None,796,596.0,200.0,120,1,2428.0,208258.79999995232,7255,zinc,NF,C,205659,205659,203831,204942,203831,206259,205459,205459,206259,13
14,test,1,inc,1,m,Tue Dec 16 2025 16:28:07 GMT-0600 (Central Standard Time),212952.0,pear,900,I,m,m,None,816,603.0,213.0,102,1,2261.7000000476837,210690.29999995232,7255,gold,NF,C,207908,207908,206262,207176,206262,208524,207695,207695,208524,14
15,test,1,inc,1,z,Tue Dec 16 2025 16:28:07 GMT-0600 (Central Standard Time),215201.29999995232,iron,900,I,z,z,None,799,600.0,199.0,38,1,2246.0,212955.29999995232,7255,lime,NF,C,210158,210158,208527,209441,208528,210773,209958,209958,210773,15
16,test,1,inc,1,m,Tue Dec 16 2025 16:28:07 GMT-0600 (Central Standard Time),217186.89999997616,cherry,900,I,m,m,None,535,336.0,199.0,70,1,1981.8999999761581,215205.0,7255,bronze,NF,C,212406,212406,210777,211691,210777,212759,212207,212207,212759,16
17,test,1,inc,1,m,Tue Dec 16 2025 16:28:07 GMT-0600 (Central Standard Time),219516.60000002384,cherry,900,I,m,m,None,896,697.0,199.0,86,1,2324.0,217192.60000002384,7255,silver,NF,C,214390,214390,212765,213673,212765,215089,214190,214190,215089,17
18,test,1,con,1,z,Tue Dec 16 2025 16:28:07 GMT-0600 (Central Standard Time),221749.70000004768,kiwi,800,I,z,z,None,914,709.0,205.0,49,1,2228.9000000953674,219520.79999995232,7255,kiwi,NF,C,216612,216612,215093,215905,215093,217322,216407,216407,217322,18
19,test,1,inc,1,m,Tue Dec 16 2025 16:28:07 GMT-0600 (Central Standard Time),223799.10000002384,banana,800,I,m,m,None,718,503.0,215.0,93,1,2044.3000000715256,221754.79999995232,7255,cobalt,NF,C,218855,218856,217327,218138,217327,219371,218640,218640,219371,19
20,test,1,con,1,z,Tue Dec 16 2025 16:28:07 GMT-0600 (Central Standard Time),226214.20000004768,plum,800,I,z,z,None,1086,886.0,200.0,57,1,2412.100000023842,223802.10000002384,7255,plum,NF,C,220889,220889,219374,220188,219374,221786,220689,220689,221786,20
21,test,1,inc,1,m,Tue Dec 16 2025 16:28:07 GMT-0600 (Central Standard Time),228381.0,raisin,1100,I,m,m,None,524,324.0,200.0,88,1,2162.899999976158,226218.10000002384,7255,silver,NF,C,223620,223620,221790,222904,221790,223953,223420,223420,223953,21
22,test,1,con,1,z,Tue Dec 16 2025 16:28:07 GMT-0600 (Central Standard Time),230580.5,pear,900,I,z,z,None,765,565.0,200.0,42,1,2194.5,228386.0,7255,pear,NF,C,225587,225587,223958,224870,223958,226153,225387,225387,226153,22
23,test,1,con,1,z,Tue Dec 16 2025 16:28:07 GMT-0600 (Central Standard Time),232912.5,kiwi,900,I,z,z,None,892,678.0,214.0,50,1,2328.100000023842,230584.39999997616,7255,kiwi,NF,C,227801,227801,226156,227069,226157,228485,227587,227587,228485,23
24,test,1,con,1,z,Tue Dec 16 2025 16:28:07 GMT-0600 (Central Standard Time),235595.5,banana,900,I,z,z,None,1240,1026.0,214.0,2,1,2678.7999999523163,232916.70000004768,7255,banana,NF,C,230134,230134,228489,229401,228489,231168,229920,229920,231167,24
25,test,1,inc,1,z,Tue Dec 16 2025 16:28:07 GMT-0600 (Central Standard Time),237978.10000002384,silver,1000,I,z,z,None,834,634.0,200.0,15,1,2378.399999976158,235599.70000004768,7255,cherry,NF,C,232901,232901,231172,232186,231172,233550,232700,232700,233550,25
26,test,1,inc,1,z,Tue Dec 16 2025 16:28:07 GMT-0600 (Central Standard Time),240377.79999995232,zinc,1000,I,z,z,None,860,660.0,200.0,47,1,2395.5999999046326,237982.20000004768,7255,pear,NF,C,235283,235283,233554,234567,233554,235950,235083,235083,235950,26
27,test,1,con,1,m,Tue Dec 16 2025 16:28:07 GMT-0600 (Central Standard Time),242661.0,copper,1100,I,m,m,None,663,449.0,214.0,76,1,2278.899999976158,240382.10000002384,7255,copper,NF,C,237782,237782,235954,237066,235954,238233,237567,237567,238233,27
28,test,1,inc,1,z,Tue Dec 16 2025 16:28:07 GMT-0600 (Central Standard Time),244942.10000002384,copper,900,I,z,z,None,837,637.0,200.0,30,1,2277.3000000715256,242664.79999995232,7255,raisin,NF,C,239866,239866,238237,239149,238237,240514,239665,239666,240514,28
29,test,1,con,1,z,Tue Dec 16 2025 16:28:07 GMT-0600 (Central Standard Time),247308.10000002384,raisin,1000,I,z,z,None,847,648.0,199.0,27,1,2362.899999976158,244945.20000004768,7255,raisin,NF,C,242232,242232,240517,241531,240517,242880,242033,242033,242880,29
30,test,1,inc,1,m,Tue Dec 16 2025 16:28:07 GMT-0600 (Central Standard Time),249742.70000004768,raisin,1100,I,m,m,None,788,589.0,199.0,72,1,2430.5,247312.20000004768,7255,bronze,NF,C,244714,244714,242884,243998,242884,245315,244513,244514,245315,30
31,test,1,con,1,z,Tue Dec 16 2025 16:28:07 GMT-0600 (Central Standard Time),252039.79999995232,pear,800,I,z,z,None,959,758.0,201.0,41,1,2293.1999999284744,249746.60000002384,7255,pear,NF,C,246848,246848,245319,246131,245319,247612,246646,246646,247612,31
31,test,1,con,0,z,Tue Dec 16 2025 16:28:07 GMT-0600 (Central Standard Time),254388.0,banana,1100,I,m,m,None,712,513.0,199.0,4,1,2345.5,252042.5,7255,banana,NF,C,249446,249446,247615,248728,247615,249960,249247,249247,249960,32
32,test,1,con,1,z,Tue Dec 16 2025 16:28:07 GMT-0600 (Central Standard Time),256688.70000004768,raisin,800,I,z,z,None,960,759.0,201.0,25,1,2296.3000000715256,254392.39999997616,7255,raisin,NF,C,251496,251496,249964,250778,249965,252261,251294,251294,252261,33
33,test,1,con,1,z,Tue Dec 16 2025 16:28:07 GMT-0600 (Central Standard Time),258937.39999997616,orange,800,I,z,z,None,917,702.0,215.0,17,1,2244.1999999284744,256693.20000004768,7255,orange,NF,C,253794,253794,252265,253077,252266,254509,253579,253579,254509,34
34,test,1,con,1,m,Tue Dec 16 2025 16:28:07 GMT-0600 (Central Standard Time),261369.89999997616,copper,800,I,m,m,None,1091,892.0,199.0,73,1,2424.399999976158,258945.5,7255,copper,NF,C,256043,256043,254517,255327,254518,256942,255843,255843,256942,35
35,test,1,con,1,m,Tue Dec 16 2025 16:28:07 GMT-0600 (Central Standard Time),263669.2000000477,bronze,1000,I,m,m,None,756,556.0,200.0,67,1,2292.600000023842,261376.60000002384,7255,bronze,NF,C,258675,258675,256949,257959,256949,259241,258475,258475,259241,36
36,test,1,inc,1,z,Tue Dec 16 2025 16:28:07 GMT-0600 (Central Standard Time),266303.10000002384,silver,1000,I,z,z,None,1096,896.0,200.0,7,1,2624.2000000476837,263678.89999997616,7255,banana,NF,C,260975,260975,259251,260259,259251,261875,260775,260775,261875,37
37,test,1,inc,1,m,Tue Dec 16 2025 16:28:07 GMT-0600 (Central Standard Time),268701.0,orange,1000,I,m,m,None,855,655.0,200.0,95,1,2390.7999999523163,266310.2000000477,7255,cobalt,NF,C,263608,263608,261882,262890,261882,264273,263407,263407,264273,38
38,test,1,con,1,z,Tue Dec 16 2025 16:28:07 GMT-0600 (Central Standard Time),271184.2000000477,lime,1000,I,z,z,None,943,743.0,200.0,35,1,2473.100000023842,268711.10000002384,7255,lime,NF,C,266007,266007,264283,265292,264283,266756,265806,265806,266756,39
39,test,1,con,1,m,Tue Dec 16 2025 16:28:07 GMT-0600 (Central Standard Time),273549.60000002384,gold,1100,I,m,m,None,735,522.0,213.0,100,1,2362.5,271187.10000002384,7255,gold,NF,C,268589,268589,266759,267872,266759,269122,268376,268376,269122,40
40,test,1,con,1,m,Tue Dec 16 2025 16:28:07 GMT-0600 (Central Standard Time),275731.89999997616,lead,900,I,m,m,None,739,540.0,199.0,122,1,2176.5,273555.39999997616,7255,lead,NF,C,270755,270755,269127,270038,269128,271304,270555,270555,271304,41
41,test,1,con,1,m,Tue Dec 16 2025 16:28:07 GMT-0600 (Central Standard Time),277881.10000002384,bronze,900,I,m,m,None,709,509.0,200.0,66,1,2145.5,275735.60000002384,7255,bronze,NF,C,272938,272938,271308,272221,271308,273453,272737,272737,273453,42
42,test,1,inc,1,m,Tue Dec 16 2025 16:28:07 GMT-0600 (Central Standard Time),280248.60000002384,orange,1000,I,m,m,None,827,627.0,200.0,71,1,2360.600000023842,277888.0,7255,bronze,NF,C,275188,275188,273460,274471,273460,275821,274987,274987,275821,43
43,test,1,inc,1,z,Tue Dec 16 2025 16:28:07 GMT-0600 (Central Standard Time),282848.5,cobalt,1100,I,z,z,None,961,762.0,199.0,24,1,2591.5,280257.0,7255,orange,NF,C,277653,277653,275829,276936,275829,278421,277453,277453,278420,44
44,test,1,con,1,m,Tue Dec 16 2025 16:28:07 GMT-0600 (Central Standard Time),285229.7999999523,bronze,1100,I,m,m,None,738,539.0,199.0,68,1,2373.5,282856.2999999523,7255,bronze,NF,C,280252,280252,278428,279535,278429,280802,280052,280052,280802,45
45,test,1,inc,1,m,Tue Dec 16 2025 16:28:07 GMT-0600 (Central Standard Time),287378.39999997616,lime,800,I,m,m,None,809,608.0,201.0,117,1,2144.399999976158,285234.0,7255,zinc,NF,C,282335,282335,280806,281618,280806,282950,282134,282134,282950,46
46,test,1,inc,1,z,Tue Dec 16 2025 16:28:07 GMT-0600 (Central Standard Time),289594.89999997616,gold,800,I,z,z,None,874,675.0,199.0,45,1,2210.5,287384.39999997616,7255,pear,NF,C,284484,284484,282956,283767,282957,285167,284284,284284,285167,47
47,test,1,inc,1,z,Tue Dec 16 2025 16:28:07 GMT-0600 (Central Standard Time),292126.5,cobalt,1100,I,z,z,None,903,704.0,199.0,8,1,2528.2000000476837,289598.2999999523,7255,banana,NF,C,286983,286983,285170,286283,285171,287699,286784,286784,287699,48
48,test,1,inc,1,m,Tue Dec 16 2025 16:28:07 GMT-0600 (Central Standard Time),294293.2999999523,lime,800,I,m,m,None,847,647.0,200.0,101,1,2161.5999999046326,292131.7000000477,7255,gold,NF,C,289216,289216,287704,288515,287704,289865,289016,289016,289865,49
49,test,1,inc,1,m,Tue Dec 16 2025 16:28:07 GMT-0600 (Central Standard Time),296609.7999999523,lime,800,I,m,m,None,975,775.0,200.0,109,1,2311.6999999284744,294298.10000002384,7255,iron,NF,C,291399,291399,289870,290684,289870,292182,291199,291199,292182,50
50,test,1,inc,1,m,Tue Dec 16 2025 16:28:07 GMT-0600 (Central Standard Time),298941.60000002384,kiwi,1000,I,m,m,None,788,589.0,199.0,127,1,2328.0,296613.60000002384,7255,lead,NF,C,293914,293914,292186,293199,292186,294514,293714,293714,294514,51
51,test,1,inc,1,z,Tue Dec 16 2025 16:28:07 GMT-0600 (Central Standard Time),301441.2999999523,zinc,1000,I,z,z,None,961,760.0,201.0,63,1,2495.1999999284744,298946.10000002384,7255,plum,NF,C,296248,296248,294518,295530,294518,297013,296047,296047,297013,52
52,test,1,inc,1,z,Tue Dec 16 2025 16:28:07 GMT-0600 (Central Standard Time),303957.39999997616,cobalt,1100,I,z,z,None,882,666.0,216.0,16,1,2513.2999999523163,301444.10000002384,7255,cherry,NF,C,298863,298863,297016,298130,297016,299529,298647,298647,299529,53
53,test,1,inc,1,z,Tue Dec 16 2025 16:28:07 GMT-0600 (Central Standard Time),306423.2000000477,silver,1000,I,z,z,None,928,729.0,199.0,23,1,2460.5,303962.7000000477,7255,orange,NF,C,301262,301262,299535,300546,299535,301995,301062,301062,301995,54
54,test,1,inc,1,z,Tue Dec 16 2025 16:28:07 GMT-0600 (Central Standard Time),308655.2999999523,bronze,800,I,z,z,None,885,685.0,200.0,21,1,2228.1999999284744,306427.10000002384,7255,orange,NF,C,303530,303530,301999,302811,301999,304227,303329,303329,304227,55
55,test,1,inc,1,m,Tue Dec 16 2025 16:28:07 GMT-0600 (Central Standard Time),310757.0,banana,800,I,m,m,None,750,549.0,201.0,85,1,2097.100000023842,308659.89999997616,7255,silver,NF,C,305761,305762,304232,305044,304232,306329,305560,305560,306329,56
56,test,1,inc,1,z,Tue Dec 16 2025 16:28:07 GMT-0600 (Central Standard Time),313236.89999997616,silver,1000,I,z,z,None,949,748.0,201.0,31,1,2476.0,310760.89999997616,7255,raisin,NF,C,308059,308060,306333,307342,306333,308809,307858,307858,308809,57
57,test,1,con,1,z,Tue Dec 16 2025 16:28:07 GMT-0600 (Central Standard Time),315786.60000002384,kiwi,1100,I,z,z,None,902,701.0,201.0,52,1,2543.8000000715256,313242.7999999523,7255,kiwi,NF,C,310643,310643,308815,309926,308815,311359,310442,310442,311359,58
58,test,1,con,1,z,Tue Dec 16 2025 16:28:07 GMT-0600 (Central Standard Time),318318.7999999523,pear,1000,I,z,z,None,994,795.0,199.0,43,1,2526.6999999284744,315792.10000002384,7255,pear,NF,C,313091,313091,311364,312377,311364,313891,312892,312892,313891,59
59,test,1,con,1,z,Tue Dec 16 2025 16:28:07 GMT-0600 (Central Standard Time),320701.7000000477,banana,800,I,z,z,None,1048,848.0,200.0,1,1,2380.100000023842,318321.60000002384,7255,banana,NF,C,315424,315424,313894,314710,313894,316274,315224,315224,316274,60
60,test,1,inc,1,z,Tue Dec 16 2025 16:28:07 GMT-0600 (Central Standard Time),323068.2000000477,iron,900,I,z,z,None,932,732.0,200.0,46,1,2361.3000000715256,320706.89999997616,7255,pear,NF,C,317907,317907,316279,317191,316279,318640,317707,317707,318640,61
61,test,1,inc,1,m,Tue Dec 16 2025 16:28:07 GMT-0600 (Central Standard Time),325483.89999997616,kiwi,1000,I,m,m,None,873,674.0,199.0,119,1,2411.399999976158,323072.5,7255,zinc,NF,C,320373,320373,318645,319656,318645,321056,320173,320173,321056,62
62,test,1,inc,1,m,Tue Dec 16 2025 16:28:07 GMT-0600 (Central Standard Time),327782.10000002384,pear,900,I,m,m,None,852,652.0,200.0,118,1,2294.600000023842,325487.5,7255,zinc,NF,C,322691,322691,321060,321973,321060,323354,322490,322490,323354,63
63,test,1,con,1,z,Tue Dec 16 2025 16:28:07 GMT-0600 (Central Standard Time),330214.89999997616,cherry,1000,I,z,z,None,902,703.0,199.0,11,1,2430.2999999523163,327784.60000002384,7255,cherry,NF,C,325072,325072,323357,324371,323357,325787,324873,324873,325787,64
64,test,1,con,1,z,Tue Dec 16 2025 16:28:07 GMT-0600 (Central Standard Time),332732.0,lime,900,I,z,z,None,1083,883.0,200.0,34,1,2513.2999999523163,330218.7000000477,7255,lime,NF,C,327404,327404,325791,326703,325791,328304,327204,327204,328304,65
65,test,1,con,1,m,Tue Dec 16 2025 16:28:07 GMT-0600 (Central Standard Time),334847.2999999523,bronze,800,I,m,m,None,768,569.0,199.0,65,1,2112.0,332735.2999999523,7255,bronze,NF,C,329837,329837,328307,329119,328307,330419,329637,329637,330419,66
66,test,1,con,1,z,Tue Dec 16 2025 16:28:07 GMT-0600 (Central Standard Time),337695.7000000477,banana,1000,I,z,z,None,1308,1109.0,199.0,3,1,2843.9000000953674,334851.7999999523,7255,banana,NF,C,332153,332153,330424,331436,330424,333268,331954,331954,333268,67
67,test,1,con,1,m,Tue Dec 16 2025 16:28:07 GMT-0600 (Central Standard Time),340095.2999999523,zinc,1100,I,m,m,None,778,563.0,215.0,116,1,2397.1999999284744,337698.10000002384,7255,zinc,NF,C,335101,335101,333270,334383,333270,335667,334886,334886,335667,68
68,test,1,con,1,m,Tue Dec 16 2025 16:28:07 GMT-0600 (Central Standard Time),342279.60000002384,silver,900,I,m,m,None,733,534.0,199.0,82,1,2179.7000000476837,340099.89999997616,7255,silver,NF,C,337300,337300,335672,336584,335672,337852,337101,337101,337852,69
69,test,1,con,1,m,Tue Dec 16 2025 16:28:07 GMT-0600 (Central Standard Time),344444.0,iron,900,I,m,m,None,717,517.0,200.0,106,1,2160.399999976158,342283.60000002384,7255,iron,NF,C,339483,339483,337856,338767,337856,340016,339283,339283,340016,70
70,test,1,con,1,m,Tue Dec 16 2025 16:28:07 GMT-0600 (Central Standard Time),346476.2000000477,zinc,800,I,m,m,None,697,497.0,200.0,113,1,2027.6000000238419,344448.60000002384,7255,zinc,NF,C,341549,341550,340021,340833,340021,342048,341349,341349,342048,71
71,test,1,inc,1,z,Tue Dec 16 2025 16:28:07 GMT-0600 (Central Standard Time),348875.7999999523,zinc,1000,I,z,z,None,865,665.0,200.0,39,1,2397.0,346478.7999999523,7255,lime,NF,C,343781,343781,342051,343067,342051,344448,343581,343581,344448,72
72,test,1,con,1,z,Tue Dec 16 2025 16:28:07 GMT-0600 (Central Standard Time),351142.10000002384,plum,900,I,z,z,None,830,631.0,199.0,58,1,2263.7000000476837,348878.39999997616,7255,plum,NF,C,346081,346081,344450,345364,344451,346714,345882,345882,346714,73
73,test,1,con,1,m,Tue Dec 16 2025 16:28:07 GMT-0600 (Central Standard Time),353457.39999997616,lead,1000,I,m,m,None,768,568.0,200.0,123,1,2311.0,351146.39999997616,7255,lead,NF,C,348447,348447,346718,347731,346719,349030,348247,348247,349029,74
74,test,1,inc,1,z,Tue Dec 16 2025 16:28:07 GMT-0600 (Central Standard Time),355723.5,gold,800,I,z,z,None,924,724.0,200.0,53,1,2262.2000000476837,353461.2999999523,7255,kiwi,NF,C,350563,350563,349033,349847,349034,351296,350363,350363,351296,75
75,test,1,inc,1,z,Tue Dec 16 2025 16:28:07 GMT-0600 (Central Standard Time),358139.7000000477,copper,900,I,z,z,None,975,775.0,200.0,6,1,2412.7000000476837,355727.0,7255,banana,NF,C,352928,352928,351299,352213,351299,353712,352728,352728,353712,76
76,test,1,con,1,m,Tue Dec 16 2025 16:28:07 GMT-0600 (Central Standard Time),360288.7000000477,cobalt,800,I,m,m,None,801,601.0,200.0,89,1,2144.100000023842,358144.60000002384,7255,cobalt,NF,C,355246,355246,353717,354529,353717,355861,355046,355046,355861,77
77,test,1,inc,1,z,Tue Dec 16 2025 16:28:07 GMT-0600 (Central Standard Time),362772.2000000477,lead,1100,I,z,z,None,831,632.0,199.0,48,1,2477.2000000476837,360295.0,7255,pear,NF,C,357695,357695,355867,356977,355867,358344,357495,357495,358344,78
78,test,1,con,1,m,Tue Dec 16 2025 16:28:07 GMT-0600 (Central Standard Time),364871.10000002384,gold,800,I,m,m,None,754,554.0,200.0,97,1,2093.100000023842,362778.0,7255,gold,NF,C,359877,359877,358350,359162,358350,360443,359676,359677,360443,79
79,test,1,inc,1,m,Tue Dec 16 2025 16:28:07 GMT-0600 (Central Standard Time),367319.60000002384,plum,1100,I,m,m,None,825,611.0,214.0,128,1,2443.600000023842,364876.0,7255,lead,NF,C,362276,362276,360448,361559,360448,362892,362061,362061,362892,80
80,test,1,inc,1,z,Tue Dec 16 2025 16:28:07 GMT-0600 (Central Standard Time),369502.39999997616,bronze,800,I,z,z,None,835,636.0,199.0,13,1,2179.100000023842,367323.2999999523,7255,cherry,NF,C,364426,364426,362895,363709,362896,365074,364226,364226,365074,81
81,test,1,con,1,z,Tue Dec 16 2025 16:28:07 GMT-0600 (Central Standard Time),372334.39999997616,lime,1100,I,z,z,None,1185,986.0,199.0,36,1,2828.6999999284744,369505.7000000477,7255,lime,NF,C,366908,366908,365078,366192,365078,367906,366709,366709,367906,82
82,test,1,inc,1,m,Tue Dec 16 2025 16:28:07 GMT-0600 (Central Standard Time),374801.39999997616,raisin,1100,I,m,m,None,818,603.0,215.0,80,1,2464.5,372336.89999997616,7255,copper,NF,C,369755,369755,367909,369024,367909,370373,369540,369540,370373,83
83,test,1,con,1,z,Tue Dec 16 2025 16:28:07 GMT-0600 (Central Standard Time),377498.89999997616,cherry,1100,I,z,z,None,1072,873.0,199.0,12,1,2694.899999976158,374804.0,7255,cherry,NF,C,372189,372189,370376,371489,370376,373071,371990,371990,373071,84
84,test,1,inc,1,m,Tue Dec 16 2025 16:28:07 GMT-0600 (Central Standard Time),380033.7000000477,raisin,1100,I,m,m,None,886,687.0,199.0,96,1,2532.2000000476837,377501.5,7255,cobalt,NF,C,374905,374905,373074,374190,373074,375606,374705,374705,375606,85
85,test,1,con,1,m,Tue Dec 16 2025 16:28:07 GMT-0600 (Central Standard Time),382398.89999997616,iron,1000,I,m,m,None,820,621.0,199.0,107,1,2358.2999999523163,380040.60000002384,7255,iron,NF,C,377337,377338,375613,376621,375613,377971,377138,377138,377971,86
86,test,1,inc,1,m,Tue Dec 16 2025 16:28:07 GMT-0600 (Central Standard Time),384913.7000000477,plum,1100,I,m,m,None,868,669.0,199.0,112,1,2509.100000023842,382404.60000002384,7255,iron,NF,C,379803,379803,377977,379087,377977,380486,379604,379604,380486,87
87,test,1,con,1,m,Tue Dec 16 2025 16:28:07 GMT-0600 (Central Standard Time),387264.39999997616,lead,1100,I,m,m,None,701,502.0,199.0,124,1,2344.0,384920.39999997616,7255,lead,NF,C,382320,382320,380492,381605,380493,382837,382120,382120,382836,88
88,test,1,con,1,m,Tue Dec 16 2025 16:28:07 GMT-0600 (Central Standard Time),389345.89999997616,iron,800,I,m,m,None,733,515.0,218.0,105,1,2077.5,387268.39999997616,7255,iron,NF,C,384388,384388,382840,383652,382841,384918,384170,384170,384918,89
89,test,1,inc,1,z,Tue Dec 16 2025 16:28:07 GMT-0600 (Central Standard Time),391795.7000000477,zinc,1000,I,z,z,None,913,713.0,200.0,55,1,2443.2000000476837,389352.5,7255,kiwi,NF,C,386653,386654,384925,385935,384925,387368,386452,386452,387368,90
90,test,1,con,1,m,Tue Dec 16 2025 16:28:07 GMT-0600 (Central Standard Time),394326.89999997616,silver,1100,I,m,m,None,895,695.0,200.0,84,1,2525.2999999523163,391801.60000002384,7255,silver,NF,C,389201,389201,387374,388484,387374,389899,389001,389001,389899,91
91,test,1,con,1,m,Tue Dec 16 2025 16:28:07 GMT-0600 (Central Standard Time),396410.5,lead,800,I,m,m,None,734,534.0,200.0,121,1,2078.899999976158,394331.60000002384,7255,lead,NF,C,391433,391433,389904,390717,389904,391983,391233,391233,391983,92
92,test,1,inc,1,z,Tue Dec 16 2025 16:28:07 GMT-0600 (Central Standard Time),398993.10000002384,lead,1100,I,z,z,None,960,744.0,216.0,64,1,2577.399999976158,396415.7000000477,7255,plum,NF,C,393816,393816,391988,393099,391988,394565,393600,393600,394565,93
93,test,1,inc,1,m,Tue Dec 16 2025 16:28:07 GMT-0600 (Central Standard Time),401025.60000002384,orange,1000,I,m,m,None,483,268.0,215.0,87,1,2027.6000000238419,398998.0,7255,silver,NF,C,396315,396315,394570,395582,394570,396598,396099,396099,396597,94
94,test,1,con,1,m,Tue Dec 16 2025 16:28:07 GMT-0600 (Central Standard Time),402841.7999999523,gold,900,I,m,m,None,367,168.0,199.0,98,1,1808.7999999523163,401033.0,7255,gold,NF,C,398231,398231,396605,397515,396605,398414,398031,398031,398414,95
95,test,1,con,1,z,Tue Dec 16 2025 16:28:07 GMT-0600 (Central Standard Time),405540.7999999523,orange,1000,I,z,z,None,1155,956.0,199.0,19,1,2692.899999976158,402847.89999997616,7255,orange,NF,C,400147,400147,398420,399432,398420,401113,399947,399947,401113,96
96,test,1,con,1,z,Tue Dec 16 2025 16:28:07 GMT-0600 (Central Standard Time),408056.7000000477,raisin,900,I,z,z,None,1068,869.0,199.0,26,1,2508.7000000476837,405548.0,7255,raisin,NF,C,402746,402746,401120,402029,401120,403629,402546,402546,403629,97
97,test,1,inc,1,z,Tue Dec 16 2025 16:28:07 GMT-0600 (Central Standard Time),410238.89999997616,bronze,800,I,z,z,None,843,628.0,215.0,5,1,2175.600000023842,408063.2999999523,7255,banana,NF,C,405178,405178,403635,404446,403636,405811,404963,404963,405811,98
98,test,1,inc,1,z,Tue Dec 16 2025 16:28:07 GMT-0600 (Central Standard Time),412522.60000002384,bronze,800,I,z,z,None,964,749.0,215.0,29,1,2280.600000023842,410242.0,7255,raisin,NF,C,407345,407345,405814,406628,405814,408095,407130,407130,408095,99
99,test,1,inc,1,z,Tue Dec 16 2025 16:28:07 GMT-0600 (Central Standard Time),414773.7000000477,gold,800,I,z,z,None,901,701.0,200.0,61,1,2248.0,412525.7000000477,7255,plum,NF,C,409627,409627,408098,408910,408098,410346,409427,409427,410346,100
100,test,1,con,1,m,Tue Dec 16 2025 16:28:07 GMT-0600 (Central Standard Time),417036.60000002384,silver,1000,I,m,m,None,728,513.0,215.0,83,1,2258.7000000476837,414777.89999997616,7255,silver,NF,C,412094,412094,410350,411360,410350,412609,411878,411878,412609,101
101,test,1,con,1,z,Tue Dec 16 2025 16:28:07 GMT-0600 (Central Standard Time),419653.2000000477,pear,1100,I,z,z,None,972,772.0,200.0,44,1,2613.100000023842,417040.10000002384,7255,pear,NF,C,414442,414443,412612,413727,412612,415225,414242,414242,415225,102
102,test,1,inc,1,z,Tue Dec 16 2025 16:28:07 GMT-0600 (Central Standard Time),422136.0,iron,900,I,z,z,None,1036,837.0,199.0,54,1,2475.600000023842,419660.39999997616,7255,kiwi,NF,C,416858,416858,415232,416143,415233,417708,416659,416659,417708,103
103,test,1,inc,1,z,Tue Dec 16 2025 16:28:07 GMT-0600 (Central Standard Time),424435.0,gold,800,I,z,z,None,949,750.0,199.0,37,1,2294.899999976158,422140.10000002384,7255,lime,NF,C,419241,419241,417712,418524,417712,420007,419041,419041,420007,104
104,test,1,con,1,z,Tue Dec 16 2025 16:28:07 GMT-0600 (Central Standard Time),426850.7000000477,lime,800,I,z,z,None,1075,875.0,200.0,33,1,2409.7000000476837,424441.0,7255,lime,NF,C,421540,421540,420013,420824,420013,422423,421340,421340,422423,105
105,test,1,con,1,z,Tue Dec 16 2025 16:28:07 GMT-0600 (Central Standard Time),429283.7999999523,raisin,1100,I,z,z,None,792,592.0,200.0,28,1,2429.2999999523163,426854.5,7255,raisin,NF,C,424256,424256,422427,423540,422427,424856,424056,424056,424856,106
106,test,1,con,1,m,Tue Dec 16 2025 16:28:07 GMT-0600 (Central Standard Time),431415.5,silver,800,I,m,m,None,793,594.0,199.0,81,1,2127.7000000476837,429287.7999999523,7255,silver,NF,C,426389,426389,424860,425672,424860,426988,426190,426190,426988,107
107,test,1,inc,1,m,Tue Dec 16 2025 16:28:07 GMT-0600 (Central Standard Time),433949.0,orange,1000,I,m,m,None,997,795.0,202.0,79,1,2530.399999976158,431418.60000002384,7255,copper,NF,C,428724,428724,426991,428004,426991,429521,428522,428522,429521,108
108,test,1,con,1,m,Tue Dec 16 2025 16:28:07 GMT-0600 (Central Standard Time),436580.5,cobalt,1000,I,m,m,None,1089,889.0,200.0,91,1,2627.100000023842,433953.39999997616,7255,cobalt,NF,C,431254,431254,429525,430538,429526,432153,431053,431053,432153,109
109,test,1,con,1,z,Tue Dec 16 2025 16:28:07 GMT-0600 (Central Standard Time),438963.7000000477,orange,1100,I,z,z,None,740,541.0,199.0,20,1,2377.8000000715256,436585.89999997616,7255,orange,NF,C,433986,433986,432158,433271,432158,434536,433787,433787,434536,110
110,test,1,con,1,m,Tue Dec 16 2025 16:28:07 GMT-0600 (Central Standard Time),441563.89999997616,copper,1000,I,m,m,None,1058,858.0,200.0,75,1,2597.600000023842,438966.2999999523,7255,copper,NF,C,436269,436269,434538,435552,434539,437136,436069,436069,437136,111
111,test,1,inc,1,z,Tue Dec 16 2025 16:28:07 GMT-0600 (Central Standard Time),444046.2000000477,lead,1100,I,z,z,None,838,639.0,199.0,56,1,2479.5,441566.7000000477,7255,kiwi,NF,C,438967,438967,437139,438251,437139,439618,438768,438768,439618,112
112,test,1,inc,1,m,Tue Dec 16 2025 16:28:07 GMT-0600 (Central Standard Time),446444.0,kiwi,1000,I,m,m,None,865,665.0,200.0,111,1,2395.399999976158,444048.60000002384,7255,iron,NF,C,441351,441351,439621,440635,439621,442016,441151,441151,442016,113
113,test,1,con,1,z,Tue Dec 16 2025 16:28:07 GMT-0600 (Central Standard Time),449144.39999997616,cherry,900,I,z,z,None,1251,1051.0,200.0,10,1,2696.5,446447.89999997616,7255,cherry,NF,C,443651,443651,442020,442934,442020,444716,443450,443450,444716,114
114,test,1,con,1,m,Tue Dec 16 2025 16:28:07 GMT-0600 (Central Standard Time),451310.0,cobalt,900,I,m,m,None,734,533.0,201.0,90,1,2162.2999999523163,449147.7000000477,7255,cobalt,NF,C,446349,446349,444720,445632,444720,446882,446148,446148,446882,115
115,test,1,inc,1,m,Tue Dec 16 2025 16:28:07 GMT-0600 (Central Standard Time),453693.39999997616,cherry,900,I,m,m,None,939,739.0,200.0,78,1,2379.0,451314.39999997616,7255,copper,NF,C,448516,448516,446886,447798,446887,449265,448315,448315,449265,116
116,test,1,con,1,m,Tue Dec 16 2025 16:28:07 GMT-0600 (Central Standard Time),456108.5,gold,1000,I,m,m,None,872,673.0,199.0,99,1,2411.600000023842,453696.89999997616,7255,gold,NF,C,450998,450998,449269,450281,449269,451681,450799,450799,451680,117
117,test,1,inc,1,m,Tue Dec 16 2025 16:28:07 GMT-0600 (Central Standard Time),458340.89999997616,banana,800,I,m,m,None,887,688.0,199.0,77,1,2227.600000023842,456113.2999999523,7255,copper,NF,C,453215,453215,451685,452503,451686,453913,453016,453016,453913,118
118,test,1,con,1,m,Tue Dec 16 2025 16:28:07 GMT-0600 (Central Standard Time),460706.7999999523,cobalt,1100,I,m,m,None,726,524.0,202.0,92,1,2362.0,458344.7999999523,7255,cobalt,NF,C,455747,455747,453917,455029,453917,456279,455545,455545,456279,119
119,test,1,con,1,z,Tue Dec 16 2025 16:28:07 GMT-0600 (Central Standard Time),462923.2000000477,cherry,800,I,z,z,None,874,674.0,200.0,9,1,2211.4000000953674,460711.7999999523,7255,cherry,NF,C,457812,457813,456284,457096,456284,458495,457612,457612,458495,120
120,test,1,con,1,m,Tue Dec 16 2025 16:28:07 GMT-0600 (Central Standard Time),465071.60000002384,copper,900,I,m,m,None,710,510.0,200.0,74,1,2143.600000023842,462928.0,7255,copper,NF,C,460129,460129,458500,459411,458500,460644,459928,459928,460644,121
121,test,1,con,1,z,Tue Dec 16 2025 16:28:07 GMT-0600 (Central Standard Time),467455.39999997616,kiwi,1000,I,z,z,None,845,630.0,215.0,51,1,2380.399999976158,465075.0,7255,kiwi,NF,C,462393,462393,460647,461661,460647,463027,462178,462178,463027,122
122,test,1,inc,1,m,Tue Dec 16 2025 16:28:07 GMT-0600 (Central Standard Time),469787.5,kiwi,1000,I,m,m,None,783,582.0,201.0,103,1,2327.2000000476837,467460.2999999523,7255,gold,NF,C,464761,464761,463032,464044,463033,465360,464560,464560,465360,123
123,test,1,inc,1,m,Tue Dec 16 2025 16:28:07 GMT-0600 (Central Standard Time),471886.2999999523,banana,800,I,m,m,None,763,562.0,201.0,69,1,2094.7999999523163,469791.5,7255,bronze,NF,C,466894,466894,465364,466176,465364,467458,466693,466693,467458,124
124,test,1,con,1,z,Tue Dec 16 2025 16:28:07 GMT-0600 (Central Standard Time),474203.60000002384,orange,900,I,z,z,None,884,684.0,200.0,18,1,2313.3000000715256,471890.2999999523,7255,orange,NF,C,469092,469092,467462,468378,467462,469776,468891,468891,469776,125
125,test,1,con,1,m,Tue Dec 16 2025 16:28:07 GMT-0600 (Central Standard Time),476467.89999997616,zinc,900,I,m,m,None,823,623.0,200.0,114,1,2261.6999999284744,474206.2000000477,7255,zinc,NF,C,471408,471408,469778,470694,469778,472040,471208,471208,472040,126
126,test,1,con,1,z,Tue Dec 16 2025 16:28:07 GMT-0600 (Central Standard Time),478768.10000002384,plum,1000,I,z,z,None,760,545.0,215.0,59,1,2294.8000000715256,476473.2999999523,7255,plum,NF,C,473790,473790,472045,473057,472046,474340,473575,473575,474340,127
127,test,1,inc,1,m,Tue Dec 16 2025 16:28:07 GMT-0600 (Central Standard Time),481000.89999997616,pear,900,I,m,m,None,796,587.0,209.0,126,1,2227.5,478773.39999997616,7255,lead,NF,C,475972,475972,474345,475257,474346,476573,475763,475763,476573,128
