acc_sum,block_c,block_dur,condition,correct,correct_response,countdown,datetime,endtime,project,response,response_time,response_time_test1_response,response_time_test2_response,row_sel,same,session_number,start_end,starttime,stim1,stim2,subject_id,task,task_vers,time_test1,time_test2,trial
1,1,0.0,prac,1,m,30000.0,Wed Sep 24 2025 19:19:44 GMT-0500 (Central Daylight Time),28638.5,I,m,1038,,,2,no,2,2562.5,26076.0,practrial2.png,practrial2b.png,8060,PC,B,,,1
2,1,0.0,prac,1,z,30000.0,Wed Sep 24 2025 19:19:44 GMT-0500 (Central Daylight Time),31604.19999998808,I,z,1439,,,3,yes,2,2961.199999988079,28643.0,practrial3.png,practrial3.png,8060,PC,B,,,2
3,1,0.0,prac,1,z,30000.0,Wed Sep 24 2025 19:19:44 GMT-0500 (Central Daylight Time),33987.0,I,z,859,,,1,yes,2,2379.2000000029802,31607.79999999702,practrial1.png,practrial1.png,8060,PC,B,,,3
4,1,0.0,prac,1,z,30000.0,Wed Sep 24 2025 19:19:44 GMT-0500 (Central Daylight Time),36686.09999999404,I,z,1171,,,5,yes,2,2695.4000000059605,33990.69999998808,practrial5.png,practrial5.png,8060,PC,B,,,4
5,1,0.0,prac,1,m,30000.0,Wed Sep 24 2025 19:19:44 GMT-0500 (Central Daylight Time),39318.39999999106,I,m,1111,,,6,no,2,2628.7000000029802,36689.69999998808,practrial6.png,practrial6b.png,8060,PC,B,,,5
6,1,0.0,prac,1,m,30000.0,Wed Sep 24 2025 19:19:44 GMT-0500 (Central Daylight Time),42017.79999999702,I,m,1167,,,4,no,2,2695.0,39322.79999999702,practrial4.png,practrial4b.png,8060,PC,B,,,6
1,1,1.6329998970031738,test,1,z,28367.000102996826,Wed Sep 24 2025 19:19:44 GMT-0500 (Central Daylight Time),49598.89999999106,I,z,1618,1618,,1,yes,2,1630.7999999970198,47968.09999999404,test1trial1.png,test1trial1.png,8060,PC,B,46069,,1
2,1,2.6489999294281006,test,1,m,27351.0000705719,Wed Sep 24 2025 19:19:44 GMT-0500 (Central Daylight Time),50614.89999999106,I,m,1008,1008,,2,no,2,1013.0999999940395,49601.79999999702,test1trial2.png,test1trial2b.png,8060,PC,B,47703,,2
3,1,3.798999786376953,test,1,z,26201.000213623047,Wed Sep 24 2025 19:19:44 GMT-0500 (Central Daylight Time),51764.79999999702,I,z,1143,1143,,3,yes,2,1146.9000000059605,50617.89999999106,test1trial3.png,test1trial3.png,8060,PC,B,48719,,3
4,1,4.781999826431274,test,1,m,25218.000173568726,Wed Sep 24 2025 19:19:44 GMT-0500 (Central Daylight Time),52747.39999999106,I,m,979,979,,4,no,2,979.8999999910593,51767.5,test1trial4.png,test1trial4b.png,8060,PC,B,49868,,4
5,1,6.080999851226807,test,1,z,23919.000148773193,Wed Sep 24 2025 19:19:44 GMT-0500 (Central Daylight Time),54047.0,I,z,1284,1284,,5,yes,2,1297.1000000089407,52749.89999999106,test1trial5.png,test1trial5.png,8060,PC,B,50850,,5
6,1,7.148000001907349,test,1,m,22851.99999809265,Wed Sep 24 2025 19:19:44 GMT-0500 (Central Daylight Time),55113.5,I,m,1047,1047,,6,no,2,1063.6000000089407,54049.89999999106,test1trial6.png,test1trial6b.png,8060,PC,B,52151,,6
7,1,8.113999843597412,test,1,z,21886.000156402588,Wed Sep 24 2025 19:19:44 GMT-0500 (Central Daylight Time),56080.0,I,z,949,949,,7,yes,2,963.6000000089407,55116.39999999106,test1trial7.png,test1trial7.png,8060,PC,B,53217,,7
8,1,9.946999788284302,test,1,m,20053.0002117157,Wed Sep 24 2025 19:19:44 GMT-0500 (Central Daylight Time),57912.69999998808,I,m,1824,1824,,8,no,2,1830.0999999940395,56082.59999999404,test1trial8.png,test1trial8b.png,8060,PC,B,54183,,8
9,1,11.11299991607666,test,1,z,18887.00008392334,Wed Sep 24 2025 19:19:44 GMT-0500 (Central Daylight Time),59079.29999999702,I,z,1151,1151,,9,yes,2,1163.7000000029802,57915.59999999404,test1trial9.png,test1trial9.png,8060,PC,B,56016,,9
10,1,12.27899980545044,test,1,m,17721.00019454956,Wed Sep 24 2025 19:19:44 GMT-0500 (Central Daylight Time),60245.19999998808,I,m,1160,1160,,10,no,2,1163.0999999940395,59082.09999999404,test1trial10.png,test1trial10b.png,8060,PC,B,57183,,10
11,1,13.227999925613403,test,1,z,16772.000074386597,Wed Sep 24 2025 19:19:44 GMT-0500 (Central Daylight Time),61195.0,I,z,937,937,,11,yes,2,946.8000000119209,60248.19999998808,test1trial11.png,test1trial11.png,8060,PC,B,58349,,11
12,1,14.444999933242798,test,1,m,15555.000066757202,Wed Sep 24 2025 19:19:44 GMT-0500 (Central Daylight Time),62411.5,I,m,1204,1204,,12,no,2,1213.800000011921,61197.69999998808,test1trial12.png,test1trial12b.png,8060,PC,B,59298,,12
13,1,15.460999965667725,test,1,m,14539.000034332275,Wed Sep 24 2025 19:19:44 GMT-0500 (Central Daylight Time),63427.5,I,m,1003,1003,,13,no,2,1013.3000000119209,62414.19999998808,test1trial13.png,test1trial13b.png,8060,PC,B,60515,,13
14,1,16.926999807357788,test,1,m,13073.000192642212,Wed Sep 24 2025 19:19:44 GMT-0500 (Central Daylight Time),64893.89999999106,I,m,1452,1452,,14,no,2,1463.5999999940395,63430.29999999702,test1trial14.png,test1trial14b.png,8060,PC,B,61531,,14
15,1,18.009999990463257,test,1,z,11990.000009536743,Wed Sep 24 2025 19:19:44 GMT-0500 (Central Daylight Time),65976.79999999702,I,z,1074,1074,,15,yes,2,1080.1000000089407,64896.69999998808,test1trial15.png,test1trial15.png,8060,PC,B,62997,,15
16,1,19.025999784469604,test,1,m,10974.000215530396,Wed Sep 24 2025 19:19:44 GMT-0500 (Central Daylight Time),66993.09999999404,I,m,998,998,,16,no,2,1013.5,65979.59999999404,test1trial16.png,test1trial16b.png,8060,PC,B,64080,,16
17,1,20.025999784469604,test,1,z,9974.000215530396,Wed Sep 24 2025 19:19:44 GMT-0500 (Central Daylight Time),67992.69999998808,I,z,981,981,,17,yes,2,996.8999999910593,66995.79999999702,test1trial17.png,test1trial17.png,8060,PC,B,65097,,17
18,1,21.042999982833862,test,1,m,8957.000017166138,Wed Sep 24 2025 19:19:44 GMT-0500 (Central Daylight Time),69010.0,I,m,1011,1011,,18,no,2,1012.1000000089407,67997.89999999106,test1trial18.png,test1trial18b.png,8060,PC,B,66099,,18
19,1,22.875,test,1,m,7125.0,Wed Sep 24 2025 19:19:44 GMT-0500 (Central Daylight Time),70841.89999999106,I,m,1813,1813,,19,no,2,1829.3999999910593,69012.5,test1trial19.png,test1trial19b.png,8060,PC,B,67113,,19
20,1,24.04199981689453,test,1,z,5958.000183105469,Wed Sep 24 2025 19:19:44 GMT-0500 (Central Daylight Time),72008.79999999702,I,z,1157,1157,,20,yes,2,1163.7999999970198,70845.0,test1trial20.png,test1trial20.png,8060,PC,B,68946,,20
21,1,25.20799994468689,test,1,z,4792.00005531311,Wed Sep 24 2025 19:19:44 GMT-0500 (Central Daylight Time),73174.5,I,z,1150,1150,,21,yes,2,1163.1000000089407,72011.39999999106,test1trial21.png,test1trial21.png,8060,PC,B,70112,,21
22,1,26.223999977111816,test,1,z,3776.0000228881836,Wed Sep 24 2025 19:19:44 GMT-0500 (Central Daylight Time),74191.09999999404,I,z,1009,1009,,22,yes,2,1013.9000000059605,73177.19999998808,test1trial22.png,test1trial22.png,8060,PC,B,71278,,22
23,1,27.10699987411499,test,1,z,2893.0001258850098,Wed Sep 24 2025 19:19:44 GMT-0500 (Central Daylight Time),75074.19999998808,I,z,871,871,,23,yes,2,880.1999999880791,74194.0,test1trial23.png,test1trial23.png,8060,PC,B,72295,,23
24,1,28.306999921798706,test,1,z,1693.000078201294,Wed Sep 24 2025 19:19:44 GMT-0500 (Central Daylight Time),76273.89999999106,I,z,1189,1189,,24,yes,2,1196.7999999970198,75077.09999999404,test1trial24.png,test1trial24.png,8060,PC,B,73178,,24
25,1,29.389999866485596,test,1,m,610.0001335144043,Wed Sep 24 2025 19:19:44 GMT-0500 (Central Daylight Time),77356.69999998808,I,m,1076,1076,,25,no,2,1079.699999988079,76277.0,test1trial25.png,test1trial25b.png,8060,PC,B,74378,,25
25,1,30.00599980354309,test,0,m,-5.99980354309082,Wed Sep 24 2025 19:19:44 GMT-0500 (Central Daylight Time),77972.89999999106,I,None,613,613,,26,no,2,613.5999999940395,77359.29999999702,test1trial26.png,test1trial26b.png,8060,PC,B,75460,,26
1,2,1.0329999923706055,test,1,m,28967.000007629395,Wed Sep 24 2025 19:19:44 GMT-0500 (Central Daylight Time),81555.29999999702,I,m,1021,,1021.0,1,no,2,4196.0,77359.29999999702,test2trial1.png,test2trial1b.png,8060,PC,B,,78626.0,1
2,2,1.9819998741149902,test,1,m,28018.00012588501,Wed Sep 24 2025 19:19:44 GMT-0500 (Central Daylight Time),82504.89999999106,I,m,940,,940.0,2,no,2,5145.5999999940395,77359.29999999702,test2trial2.png,test2trial2b.png,8060,PC,B,,79659.0,2
3,2,3.0989999771118164,test,1,z,26901.000022888184,Wed Sep 24 2025 19:19:44 GMT-0500 (Central Daylight Time),83621.39999999106,I,z,1102,,1102.0,3,yes,2,6262.0999999940395,77359.29999999702,test2trial3.png,test2trial3.png,8060,PC,B,,80608.0,3
4,2,4.115000009536743,test,1,z,25884.999990463257,Wed Sep 24 2025 19:19:44 GMT-0500 (Central Daylight Time),84637.69999998808,I,z,1010,,1010.0,4,yes,2,7278.399999991059,77359.29999999702,test2trial4.png,test2trial4.png,8060,PC,B,,81725.0,4
5,2,5.230999946594238,test,1,z,24769.00005340576,Wed Sep 24 2025 19:19:44 GMT-0500 (Central Daylight Time),85753.69999998808,I,z,1106,,1106.0,5,yes,2,8394.39999999106,77359.29999999702,test2trial5.png,test2trial5.png,8060,PC,B,,82741.0,5
6,2,6.413999795913696,test,1,z,23586.000204086304,Wed Sep 24 2025 19:19:44 GMT-0500 (Central Daylight Time),86936.69999998808,I,z,1172,,1172.0,6,yes,2,9577.39999999106,77359.29999999702,test2trial6.png,test2trial6.png,8060,PC,B,,83857.0,6
7,2,7.613999843597412,test,1,m,22386.000156402588,Wed Sep 24 2025 19:19:44 GMT-0500 (Central Daylight Time),88136.69999998808,I,m,1181,,1181.0,7,no,2,10777.39999999106,77359.29999999702,test2trial7.png,test2trial7b.png,8060,PC,B,,85041.0,7
8,2,8.763000011444092,test,1,m,21236.99998855591,Wed Sep 24 2025 19:19:44 GMT-0500 (Central Daylight Time),89286.09999999404,I,m,1142,,1142.0,8,no,2,11926.79999999702,77359.29999999702,test2trial8.png,test2trial8b.png,8060,PC,B,,86240.0,8
9,2,10.595999956130981,test,1,z,19404.00004386902,Wed Sep 24 2025 19:19:44 GMT-0500 (Central Daylight Time),91119.0,I,z,1816,,1816.0,9,yes,2,13759.70000000298,77359.29999999702,test2trial9.png,test2trial9.png,8060,PC,B,,87390.0,9
10,2,11.52899980545044,test,1,z,18471.00019454956,Wed Sep 24 2025 19:19:44 GMT-0500 (Central Daylight Time),92052.09999999404,I,z,927,,927.0,10,yes,2,14692.79999999702,77359.29999999702,test2trial10.png,test2trial10.png,8060,PC,B,,89223.0,10
11,2,12.546000003814697,test,1,m,17453.999996185303,Wed Sep 24 2025 19:19:44 GMT-0500 (Central Daylight Time),93068.29999999702,I,m,1004,,1004.0,11,no,2,15709.0,77359.29999999702,test2trial11.png,test2trial11b.png,8060,PC,B,,90155.0,11
12,2,13.644999980926514,test,1,m,16355.000019073486,Wed Sep 24 2025 19:19:44 GMT-0500 (Central Daylight Time),94168.19999998808,I,m,1090,,1090.0,12,no,2,16808.89999999106,77359.29999999702,test2trial12.png,test2trial12b.png,8060,PC,B,,91172.0,12
13,2,14.477999925613403,test,1,z,15522.000074386597,Wed Sep 24 2025 19:19:44 GMT-0500 (Central Daylight Time),95001.19999998808,I,z,824,,824.0,13,yes,2,17641.89999999106,77359.29999999702,test2trial13.png,test2trial13.png,8060,PC,B,,92271.0,13
14,2,15.560999870300293,test,1,m,14439.000129699707,Wed Sep 24 2025 19:19:44 GMT-0500 (Central Daylight Time),96083.79999999702,I,m,1078,,1078.0,14,no,2,18724.5,77359.29999999702,test2trial14.png,test2trial14b.png,8060,PC,B,,93105.0,14
15,2,16.5939998626709,test,1,m,13406.000137329102,Wed Sep 24 2025 19:19:44 GMT-0500 (Central Daylight Time),97116.69999998808,I,m,1028,,1028.0,15,no,2,19757.39999999106,77359.29999999702,test2trial15.png,test2trial15b.png,8060,PC,B,,94187.0,15
16,2,17.876999855041504,test,1,m,12123.000144958496,Wed Sep 24 2025 19:19:44 GMT-0500 (Central Daylight Time),98399.89999999106,I,m,1266,,1266.0,16,no,2,21040.59999999404,77359.29999999702,test2trial16.png,test2trial16b.png,8060,PC,B,,95220.0,16
17,2,19.026999950408936,test,1,z,10973.000049591064,Wed Sep 24 2025 19:19:44 GMT-0500 (Central Daylight Time),99549.69999998808,I,z,1136,,1136.0,17,yes,2,22190.39999999106,77359.29999999702,test2trial17.png,test2trial17.png,8060,PC,B,,96503.0,17
18,2,20.026999950408936,test,1,z,9973.000049591064,Wed Sep 24 2025 19:19:44 GMT-0500 (Central Daylight Time),100549.39999999106,I,z,994,,994.0,18,yes,2,23190.09999999404,77359.29999999702,test2trial18.png,test2trial18.png,8060,PC,B,,97653.0,18
19,2,21.175999879837036,test,1,z,8824.000120162964,Wed Sep 24 2025 19:19:44 GMT-0500 (Central Daylight Time),101699.0,I,z,1137,,1137.0,19,yes,2,24339.70000000298,77359.29999999702,test2trial19.png,test2trial19.png,8060,PC,B,,98653.0,19
20,2,22.192999839782715,test,1,z,7807.000160217285,Wed Sep 24 2025 19:19:44 GMT-0500 (Central Daylight Time),102715.29999999702,I,z,1005,,1005.0,20,yes,2,25356.0,77359.29999999702,test2trial20.png,test2trial20.png,8060,PC,B,,99802.0,20
21,2,23.72499990463257,test,1,z,6275.000095367432,Wed Sep 24 2025 19:19:44 GMT-0500 (Central Daylight Time),104248.19999998808,I,z,1516,,1516.0,21,yes,2,26888.89999999106,77359.29999999702,test2trial21.png,test2trial21.png,8060,PC,B,,100819.0,21
21,2,24.557999849319458,test,0,m,5442.000150680542,Wed Sep 24 2025 19:19:44 GMT-0500 (Central Daylight Time),105081.19999998808,I,z,822,,822.0,22,no,2,27721.89999999106,77359.29999999702,test2trial22.png,test2trial22b.png,8060,PC,B,,102352.0,22
22,2,27.47499990463257,test,1,m,2525.0000953674316,Wed Sep 24 2025 19:19:44 GMT-0500 (Central Daylight Time),107997.29999999702,I,m,2902,,2902.0,23,no,2,30638.0,77359.29999999702,test2trial23.png,test2trial23b.png,8060,PC,B,,103185.0,23
23,2,28.69099998474121,test,1,m,1309.000015258789,Wed Sep 24 2025 19:19:44 GMT-0500 (Central Daylight Time),109213.19999998808,I,m,1210,,1210.0,24,no,2,31853.89999999106,77359.29999999702,test2trial24.png,test2trial24b.png,8060,PC,B,,106101.0,24
23,2,30.006999969482422,test,0,z,-6.999969482421875,Wed Sep 24 2025 19:19:44 GMT-0500 (Central Daylight Time),110529.59999999404,I,None,1313,,1313.0,25,yes,2,33170.29999999702,77359.29999999702,test2trial25.png,test2trial25.png,8060,PC,B,,107316.0,25
