acc_sum,block,block_c,condition,correct,correct_response,datetime,endtime,flanker,jitter,project,response,response_test_buffer_response,response_test_target_response,response_time,response_time_test_buffer_response,response_time_test_target_response,row_sel,session_number,start_end,starttime,subject_id,target,task,task_vers,time_test_buffer,time_test_buffer_response,time_test_constants,time_test_flanker,time_test_jitter,time_test_logger,time_test_target,time_test_target_response,time_test_variables,trial
1,prac,1,con,1,z,Wed Aug 14 2024 13:04:42 GMT-0500 (Central Daylight Time),199167.79999999702,kiwi,1000,I,z,,,1080,,,7,1,3374.7000000029802,195793.09999999404,7008,kiwi,NF,C,,,,,,,,,,1
1,prac,1,inc,0,z,Wed Aug 14 2024 13:04:42 GMT-0500 (Central Daylight Time),202616.5,iron,900,I,m,,,1254,,,6,1,3442.7000000029802,199173.79999999702,7008,pear,NF,C,,,,,,,,,,2
2,prac,1,con,1,m,Wed Aug 14 2024 13:04:42 GMT-0500 (Central Daylight Time),206415.29999999702,silver,1000,I,m,,,1489,,,11,1,3793.5999999940395,202621.70000000298,7008,silver,NF,C,,,,,,,,,,3
2,prac,1,con,0,m,Wed Aug 14 2024 13:04:42 GMT-0500 (Central Daylight Time),211280.59999999404,bronze,800,I,None,,,1800,,,9,1,4860.899999991059,206419.70000000298,7008,bronze,NF,C,,,,,,,,,,4
3,prac,1,inc,1,m,Wed Aug 14 2024 13:04:42 GMT-0500 (Central Daylight Time),214579.79999999702,pear,900,I,m,,,1086,,,14,1,3294.2999999970198,211285.5,7008,iron,NF,C,,,,,,,,,,5
4,prac,1,inc,1,z,Wed Aug 14 2024 13:04:42 GMT-0500 (Central Daylight Time),218095.0,lead,1100,I,z,,,1115,,,8,1,3510.7999999970198,214584.20000000298,7008,plum,NF,C,,,,,,,,,,6
5,prac,1,con,1,z,Wed Aug 14 2024 13:04:42 GMT-0500 (Central Daylight Time),221293.89999999106,orange,1000,I,z,,,892,,,3,1,3194.0,218099.89999999106,7008,orange,NF,C,,,,,,,,,,7
5,prac,1,inc,0,z,Wed Aug 14 2024 13:04:42 GMT-0500 (Central Daylight Time),224859.5,cobalt,1100,I,m,,,1152,,,4,1,3561.4000000059605,221298.09999999404,7008,raisin,NF,C,,,,,,,,,,8
6,prac,1,con,1,z,Wed Aug 14 2024 13:04:42 GMT-0500 (Central Daylight Time),227925.20000000298,banana,800,I,z,,,950,,,1,1,3061.0,224864.20000000298,7008,banana,NF,C,,,,,,,,,,9
7,prac,1,inc,1,m,Wed Aug 14 2024 13:04:42 GMT-0500 (Central Daylight Time),231307.29999999702,plum,1100,I,m,,,978,,,16,1,3377.5,227929.79999999702,7008,lead,NF,C,,,,,,,,,,10
8,prac,1,inc,1,m,Wed Aug 14 2024 13:04:42 GMT-0500 (Central Daylight Time),234406.39999999106,cherry,900,I,m,,,892,,,10,1,3094.0,231312.39999999106,7008,copper,NF,C,,,,,,,,,,11
9,prac,1,inc,1,m,Wed Aug 14 2024 13:04:42 GMT-0500 (Central Daylight Time),237888.70000000298,raisin,1100,I,m,,,1006,,,12,1,3478.1000000089407,234410.59999999404,7008,cobalt,NF,C,,,,,,,,,,12
10,prac,1,con,1,z,Wed Aug 14 2024 13:04:42 GMT-0500 (Central Daylight Time),240837.70000000298,lime,800,I,z,,,834,,,5,1,2944.9000000059605,237892.79999999702,7008,lime,NF,C,,,,,,,,,,13
11,prac,1,con,1,m,Wed Aug 14 2024 13:04:42 GMT-0500 (Central Daylight Time),243837.0,zinc,1000,I,m,,,684,,,15,1,2995.2000000029802,240841.79999999702,7008,zinc,NF,C,,,,,,,,,,14
12,prac,1,inc,1,z,Wed Aug 14 2024 13:04:42 GMT-0500 (Central Daylight Time),246952.79999999702,copper,900,I,z,,,914,,,2,1,3111.2999999970198,243841.5,7008,cherry,NF,C,,,,,,,,,,15
13,prac,1,con,1,m,Wed Aug 14 2024 13:04:42 GMT-0500 (Central Daylight Time),250018.0,gold,800,I,m,,,954,,,13,1,3060.7999999970198,246957.20000000298,7008,gold,NF,C,,,,,,,,,,16
1,test,1,inc,1,m,Wed Aug 14 2024 13:04:42 GMT-0500 (Central Daylight Time),274843.700000003,pear,900,I,m,m,None,654,455.0,199.0,102,1,2095.9000000059605,272747.799999997,7008,gold,NF,C,252248,252248,250619,251532,250619,252715,252049,252049,252715,1
1,test,1,inc,0,z,Wed Aug 14 2024 13:04:42 GMT-0500 (Central Daylight Time),277576.09999999404,zinc,1000,I,m,m,None,1191,991.0,200.0,55,1,2726.8999999910593,274849.200000003,7008,kiwi,NF,C,254448,254448,252720,253731,252721,255447,254248,254248,255447,2
2,test,1,inc,1,m,Wed Aug 14 2024 13:04:42 GMT-0500 (Central Daylight Time),280291.89999999106,cherry,900,I,m,m,None,1270,1070.0,200.0,70,1,2711.699999988079,277580.200000003,7008,bronze,NF,C,257080,257081,255451,256364,255452,258163,256880,256880,258163,3
3,test,1,con,1,m,Wed Aug 14 2024 13:04:42 GMT-0500 (Central Daylight Time),282699.299999997,gold,1100,I,m,m,None,774,574.0,200.0,100,1,2403.5999999940395,280295.700000003,7008,gold,NF,C,259996,259996,258167,259280,258167,260570,259796,259796,260570,4
4,test,1,con,1,z,Wed Aug 14 2024 13:04:42 GMT-0500 (Central Daylight Time),284956.89999999106,banana,1000,I,z,z,None,728,528.0,200.0,3,1,2253.699999988079,282703.200000003,7008,banana,NF,C,262295,262295,260574,261579,260575,262828,262095,262095,262828,5
5,test,1,con,1,m,Wed Aug 14 2024 13:04:42 GMT-0500 (Central Daylight Time),287189.59999999404,copper,800,I,m,m,None,886,686.0,200.0,73,1,2228.7999999970198,284960.799999997,7008,copper,NF,C,264361,264361,262832,263645,262832,265061,264161,264161,265061,6
6,test,1,inc,1,m,Wed Aug 14 2024 13:04:42 GMT-0500 (Central Daylight Time),289905.299999997,banana,800,I,m,m,None,1373,1173.0,200.0,85,1,2711.7999999970198,287193.5,7008,silver,NF,C,266594,266594,265065,265877,265065,267776,266394,266394,267776,7
7,test,1,inc,1,z,Wed Aug 14 2024 13:04:42 GMT-0500 (Central Daylight Time),292088.200000003,gold,800,I,z,z,None,848,649.0,199.0,37,1,2178.300000011921,289909.89999999106,7008,lime,NF,C,269310,269310,267781,268593,267781,269959,269110,269110,269959,8
8,test,1,inc,1,z,Wed Aug 14 2024 13:04:42 GMT-0500 (Central Daylight Time),294404.09999999404,gold,800,I,z,z,None,971,771.0,200.0,61,1,2311.7000000029802,292092.39999999106,7008,plum,NF,C,271492,271492,269963,270776,269964,272275,271292,271292,272275,9
9,test,1,con,1,z,Wed Aug 14 2024 13:04:42 GMT-0500 (Central Daylight Time),296869.700000003,pear,1000,I,z,z,None,927,727.0,200.0,43,1,2459.9000000059605,294409.799999997,7008,pear,NF,C,274008,274008,272281,273292,272281,274741,273808,273808,274741,10
10,test,1,con,1,z,Wed Aug 14 2024 13:04:42 GMT-0500 (Central Daylight Time),298952.700000003,raisin,800,I,z,z,None,741,541.0,200.0,25,1,2078.300000011921,296874.39999999106,7008,raisin,NF,C,276274,276274,274745,275557,274746,276824,276074,276074,276824,11
11,test,1,con,1,z,Wed Aug 14 2024 13:04:42 GMT-0500 (Central Daylight Time),301135.299999997,kiwi,800,I,z,z,None,833,634.0,199.0,49,1,2178.2999999970198,298957.0,7008,kiwi,NF,C,278357,278357,276828,277640,276828,279006,278157,278157,279006,12
12,test,1,inc,1,m,Wed Aug 14 2024 13:04:42 GMT-0500 (Central Daylight Time),303617.799999997,raisin,1100,I,m,m,None,840,640.0,200.0,72,1,2478.2999999970198,301139.5,7008,bronze,NF,C,280839,280839,279011,280123,279011,281489,280639,280639,281489,13
13,test,1,inc,1,z,Wed Aug 14 2024 13:04:42 GMT-0500 (Central Daylight Time),306301.5,lead,1100,I,z,z,None,1036,836.0,200.0,64,1,2679.4000000059605,303622.09999999404,7008,plum,NF,C,283322,283322,281493,282605,281494,284173,283122,283122,284173,14
14,test,1,con,1,m,Wed Aug 14 2024 13:04:42 GMT-0500 (Central Daylight Time),308316.299999997,bronze,800,I,m,m,None,679,479.0,200.0,65,1,2007.7000000029802,306308.59999999404,7008,bronze,NF,C,285704,285704,284180,284989,284180,286187,285504,285504,286187,15
15,test,1,con,1,m,Wed Aug 14 2024 13:04:42 GMT-0500 (Central Daylight Time),310315.700000003,silver,900,I,m,m,None,561,362.0,199.0,82,1,1994.1000000089407,308321.59999999404,7008,silver,NF,C,287821,287821,286193,287104,286193,288187,287621,287621,288187,16
16,test,1,inc,1,z,Wed Aug 14 2024 13:04:42 GMT-0500 (Central Daylight Time),312631.59999999404,silver,1000,I,z,z,None,766,566.0,200.0,7,1,2311.7999999970198,310319.799999997,7008,banana,NF,C,289920,289920,288191,289204,288191,290503,289720,289720,290503,17
17,test,1,inc,1,z,Wed Aug 14 2024 13:04:42 GMT-0500 (Central Daylight Time),315097.5,zinc,1000,I,z,z,None,930,731.0,199.0,39,1,2462.0,312635.5,7008,lime,NF,C,292236,292236,290507,291519,290507,292969,292037,292037,292969,18
18,test,1,con,1,z,Wed Aug 14 2024 13:04:42 GMT-0500 (Central Daylight Time),317263.39999999106,plum,1000,I,z,z,None,616,417.0,199.0,59,1,2162.199999988079,315101.200000003,7008,plum,NF,C,294702,294702,292972,293985,292972,295134,294502,294502,295134,19
19,test,1,inc,1,z,Wed Aug 14 2024 13:04:42 GMT-0500 (Central Daylight Time),319346.5,gold,800,I,z,z,None,739,539.0,200.0,53,1,2078.4000000059605,317268.09999999404,7008,kiwi,NF,C,296668,296668,295139,295952,295139,297218,296468,296468,297217,20
20,test,1,con,1,m,Wed Aug 14 2024 13:04:42 GMT-0500 (Central Daylight Time),321462.5,gold,1000,I,m,m,None,567,368.0,199.0,99,1,2111.7000000029802,319350.799999997,7008,gold,NF,C,298951,298951,297222,298234,297222,299334,298751,298751,299333,21
21,test,1,con,1,z,Wed Aug 14 2024 13:04:42 GMT-0500 (Central Daylight Time),323678.299999997,plum,1100,I,z,z,None,575,376.0,199.0,60,1,2210.5,321467.799999997,7008,plum,NF,C,301167,301167,299339,300450,299339,301549,300967,300967,301549,22
22,test,1,con,1,m,Wed Aug 14 2024 13:04:42 GMT-0500 (Central Daylight Time),325794.39999999106,zinc,1000,I,m,m,None,579,380.0,199.0,115,1,2112.0999999940395,323682.299999997,7008,zinc,NF,C,303283,303283,301553,302566,301554,303666,303083,303083,303665,23
23,test,1,con,1,m,Wed Aug 14 2024 13:04:42 GMT-0500 (Central Daylight Time),328343.700000003,cobalt,1100,I,m,m,None,908,709.0,199.0,92,1,2545.4000000059605,325798.299999997,7008,cobalt,NF,C,305498,305498,303669,304782,303670,306215,305299,305299,306215,24
24,test,1,con,1,m,Wed Aug 14 2024 13:04:42 GMT-0500 (Central Daylight Time),330543.09999999404,bronze,900,I,m,m,None,702,493.0,209.0,66,1,2195.0999999940395,328348.0,7008,bronze,NF,C,307914,307914,306219,307131,306219,308414,307705,307705,308414,25
25,test,1,con,1,z,Wed Aug 14 2024 13:04:42 GMT-0500 (Central Daylight Time),332659.0,kiwi,1000,I,z,z,None,580,380.0,200.0,51,1,2112.2999999970198,330546.700000003,7008,kiwi,NF,C,310147,310147,308418,309430,308418,310530,309947,309947,310530,26
26,test,1,inc,1,z,Wed Aug 14 2024 13:04:42 GMT-0500 (Central Daylight Time),334858.299999997,copper,900,I,z,z,None,779,580.0,199.0,22,1,2195.5999999940395,332662.700000003,7008,orange,NF,C,312146,312147,310534,311446,310534,312729,311947,311947,312729,27
27,test,1,con,1,z,Wed Aug 14 2024 13:04:42 GMT-0500 (Central Daylight Time),336924.299999997,raisin,900,I,z,z,None,620,420.0,200.0,26,1,2062.2000000029802,334862.09999999404,7008,raisin,NF,C,314362,314363,312733,313646,312733,314795,314162,314162,314795,28
28,test,1,con,1,m,Wed Aug 14 2024 13:04:42 GMT-0500 (Central Daylight Time),338923.59999999404,copper,900,I,m,m,None,555,355.0,200.0,74,1,1995.7999999970198,336927.799999997,7008,copper,NF,C,316428,316428,314799,315712,314799,316795,316228,316228,316795,29
29,test,1,con,1,z,Wed Aug 14 2024 13:04:42 GMT-0500 (Central Daylight Time),341039.39999999106,cherry,900,I,z,z,None,667,467.0,200.0,10,1,2111.8999999910593,338927.5,7008,cherry,NF,C,318428,318428,316798,317711,316799,318910,318228,318228,318910,30
30,test,1,con,1,m,Wed Aug 14 2024 13:04:42 GMT-0500 (Central Daylight Time),343722.0,lead,1100,I,m,m,None,1038,839.0,199.0,124,1,2678.9000000059605,341043.09999999404,7008,lead,NF,C,320744,320744,318914,320027,318914,321593,320544,320544,321593,31
31,test,1,con,1,m,Wed Aug 14 2024 13:04:42 GMT-0500 (Central Daylight Time),345954.799999997,bronze,1100,I,m,m,None,597,397.0,200.0,68,1,2229.0,343725.799999997,7008,bronze,NF,C,323426,323426,321597,322710,321597,323826,323226,323226,323826,32
32,test,1,con,1,z,Wed Aug 14 2024 13:04:42 GMT-0500 (Central Daylight Time),348105.200000003,lime,1100,I,z,z,None,499,300.0,199.0,36,1,2146.7000000029802,345958.5,7008,lime,NF,C,325659,325659,323830,324942,323830,325976,325459,325459,325976,33
33,test,1,con,1,z,Wed Aug 14 2024 13:04:42 GMT-0500 (Central Daylight Time),350053.299999997,banana,900,I,z,z,None,503,303.0,200.0,2,1,1944.2999999970198,348109.0,7008,banana,NF,C,327608,327608,325980,326891,325980,327924,327408,327408,327924,34
34,test,1,inc,1,m,Wed Aug 14 2024 13:04:42 GMT-0500 (Central Daylight Time),352152.5,banana,800,I,m,m,None,764,565.0,199.0,93,1,2095.4000000059605,350057.09999999404,7008,cobalt,NF,C,329458,329458,327928,328742,327928,330024,329258,329258,330024,35
35,test,1,inc,1,m,Wed Aug 14 2024 13:04:42 GMT-0500 (Central Daylight Time),354218.89999999106,banana,800,I,m,m,None,730,530.0,200.0,77,1,2063.0,352155.89999999106,7008,copper,NF,C,331557,331557,330027,330840,330027,332090,331357,331357,332090,36
36,test,1,con,1,m,Wed Aug 14 2024 13:04:42 GMT-0500 (Central Daylight Time),356401.09999999404,iron,1100,I,m,m,None,548,348.0,200.0,108,1,2178.7999999970198,354222.299999997,7008,iron,NF,C,333923,333923,332093,333206,332094,334272,333723,333723,334272,37
37,test,1,con,1,m,Wed Aug 14 2024 13:04:42 GMT-0500 (Central Daylight Time),358567.200000003,lead,1000,I,m,m,None,616,417.0,199.0,123,1,2162.300000011921,356404.89999999106,7008,lead,NF,C,336006,336006,334276,335289,334276,336438,335806,335806,336438,38
38,test,1,con,1,z,Wed Aug 14 2024 13:04:42 GMT-0500 (Central Daylight Time),360716.700000003,raisin,1100,I,z,z,None,503,304.0,199.0,28,1,2145.800000011921,358570.89999999106,7008,raisin,NF,C,338271,338271,336442,337555,336442,338588,338072,338072,338588,39
39,test,1,inc,1,m,Wed Aug 14 2024 13:04:42 GMT-0500 (Central Daylight Time),362915.89999999106,cherry,900,I,m,m,None,761,562.0,199.0,94,1,2195.0,360720.89999999106,7008,cobalt,NF,C,340221,340221,338592,339504,338592,340787,340021,340021,340787,40
40,test,1,con,1,z,Wed Aug 14 2024 13:04:42 GMT-0500 (Central Daylight Time),364915.299999997,orange,900,I,z,z,None,563,363.0,200.0,18,1,1995.5,362919.799999997,7008,orange,NF,C,342420,342420,340791,341703,340791,342786,342220,342220,342786,41
41,test,1,con,1,z,Wed Aug 14 2024 13:04:42 GMT-0500 (Central Daylight Time),366881.5,orange,800,I,z,z,None,623,423.0,200.0,17,1,1962.7000000029802,364918.799999997,7008,orange,NF,C,344320,344320,342790,343603,342790,344753,344119,344119,344753,42
42,test,1,inc,1,m,Wed Aug 14 2024 13:04:42 GMT-0500 (Central Daylight Time),369031.700000003,cherry,900,I,m,m,None,701,501.0,200.0,86,1,2146.5,366885.200000003,7008,silver,NF,C,346386,346386,344756,345669,344756,346903,346186,346186,346903,43
43,test,1,inc,1,m,Wed Aug 14 2024 13:04:42 GMT-0500 (Central Daylight Time),371480.0,plum,1100,I,m,m,None,799,600.0,199.0,128,1,2444.6000000089407,369035.39999999106,7008,lead,NF,C,348735,348735,346906,348019,346907,349351,348535,348535,349351,44
44,test,1,inc,1,m,Wed Aug 14 2024 13:04:42 GMT-0500 (Central Daylight Time),373862.59999999404,raisin,1100,I,m,m,None,743,543.0,200.0,80,1,2379.0,371483.59999999404,7008,copper,NF,C,351184,351184,349355,350468,349355,351734,350984,350984,351734,45
45,test,1,inc,1,m,Wed Aug 14 2024 13:04:42 GMT-0500 (Central Daylight Time),376261.89999999106,orange,1000,I,m,m,None,852,652.0,200.0,87,1,2395.699999988079,373866.200000003,7008,silver,NF,C,353467,353467,351737,352750,351738,354133,353266,353266,354133,46
46,test,1,con,1,m,Wed Aug 14 2024 13:04:42 GMT-0500 (Central Daylight Time),378527.799999997,zinc,1100,I,m,m,None,625,425.0,200.0,116,1,2262.2000000029802,376265.59999999404,7008,zinc,NF,C,355966,355966,354137,355249,354137,356399,355766,355766,356399,47
47,test,1,con,1,z,Wed Aug 14 2024 13:04:42 GMT-0500 (Central Daylight Time),380726.89999999106,cherry,1100,I,z,z,None,559,360.0,199.0,12,1,2195.3999999910593,378531.5,7008,cherry,NF,C,358231,358231,356403,357515,356403,358598,358032,358032,358598,48
48,test,1,inc,1,m,Wed Aug 14 2024 13:04:42 GMT-0500 (Central Daylight Time),383059.799999997,plum,1100,I,m,m,None,696,496.0,200.0,112,1,2329.2000000029802,380730.59999999404,7008,iron,NF,C,360431,360431,358602,359715,358602,360931,360231,360231,360931,49
49,test,1,con,1,z,Wed Aug 14 2024 13:04:42 GMT-0500 (Central Daylight Time),385425.39999999106,pear,1100,I,z,z,None,722,523.0,199.0,44,1,2362.0999999940395,383063.299999997,7008,pear,NF,C,362764,362764,360934,362047,360935,363296,362564,362564,363296,50
50,test,1,con,1,m,Wed Aug 14 2024 13:04:42 GMT-0500 (Central Daylight Time),387408.200000003,iron,900,I,m,m,None,549,349.0,200.0,106,1,1979.0,385429.200000003,7008,iron,NF,C,364930,364930,363300,364213,363300,365279,364730,364730,365279,51
51,test,1,con,1,z,Wed Aug 14 2024 13:04:42 GMT-0500 (Central Daylight Time),389590.89999999106,orange,1100,I,z,z,None,535,335.0,200.0,20,1,2179.0,387411.89999999106,7008,orange,NF,C,367112,367112,365283,366396,365283,367462,366912,366912,367462,52
52,test,1,con,1,z,Wed Aug 14 2024 13:04:42 GMT-0500 (Central Daylight Time),391656.59999999404,kiwi,900,I,z,z,None,632,432.0,200.0,50,1,2062.0999999940395,389594.5,7008,kiwi,NF,C,369095,369095,367466,368379,367466,369528,368895,368895,369528,53
53,test,1,con,1,m,Wed Aug 14 2024 13:04:42 GMT-0500 (Central Daylight Time),393722.89999999106,silver,1000,I,m,m,None,522,322.0,200.0,83,1,2062.3999999910593,391660.5,7008,silver,NF,C,371261,371261,369532,370544,369532,371594,371061,371061,371594,54
54,test,1,inc,1,m,Wed Aug 14 2024 13:04:42 GMT-0500 (Central Daylight Time),396088.89999999106,plum,1100,I,m,m,None,724,524.0,200.0,120,1,2362.0999999940395,393726.799999997,7008,zinc,NF,C,373427,373427,371598,372710,371598,373960,373227,373227,373960,55
55,test,1,con,1,z,Wed Aug 14 2024 13:04:42 GMT-0500 (Central Daylight Time),398471.39999999106,cherry,1000,I,z,z,None,834,634.0,200.0,11,1,2378.3999999910593,396093.0,7008,cherry,NF,C,375693,375693,373964,374976,373964,376342,375493,375493,376342,56
56,test,1,inc,1,m,Wed Aug 14 2024 13:04:42 GMT-0500 (Central Daylight Time),400587.200000003,pear,900,I,m,m,None,678,479.0,199.0,126,1,2111.800000011921,398475.39999999106,7008,lead,NF,C,377976,377976,376346,377259,376347,378458,377776,377776,378458,57
57,test,1,con,1,m,Wed Aug 14 2024 13:04:42 GMT-0500 (Central Daylight Time),402587.0,iron,800,I,m,m,None,654,455.0,199.0,105,1,1996.1000000089407,400590.89999999106,7008,iron,NF,C,379992,379992,378462,379275,378462,380458,379792,379792,380458,58
58,test,1,con,1,m,Wed Aug 14 2024 13:04:42 GMT-0500 (Central Daylight Time),404569.59999999404,gold,900,I,m,m,None,539,340.0,199.0,98,1,1979.0999999940395,402590.5,7008,gold,NF,C,382091,382091,380462,381374,380462,382441,381891,381891,382441,59
59,test,1,con,1,m,Wed Aug 14 2024 13:04:42 GMT-0500 (Central Daylight Time),406552.09999999404,zinc,800,I,m,m,None,632,433.0,199.0,113,1,1979.0999999940395,404573.0,7008,zinc,NF,C,383974,383974,382444,383257,382444,384423,383774,383774,384423,60
59,test,1,inc,0,z,Wed Aug 14 2024 13:04:42 GMT-0500 (Central Daylight Time),408884.59999999404,cobalt,1100,I,m,m,None,687,487.0,200.0,16,1,2328.2999999970198,406556.299999997,7008,cherry,NF,C,386256,386256,384427,385540,384428,386756,386056,386056,386756,61
60,test,1,inc,1,m,Wed Aug 14 2024 13:04:42 GMT-0500 (Central Daylight Time),411134.09999999404,orange,1000,I,m,m,None,702,502.0,200.0,71,1,2245.5999999940395,408888.5,7008,bronze,NF,C,388489,388489,386760,387772,386760,389005,388289,388289,389005,62
61,test,1,inc,1,m,Wed Aug 14 2024 13:04:42 GMT-0500 (Central Daylight Time),413416.5,kiwi,1000,I,m,m,None,749,549.0,200.0,103,1,2278.7999999970198,411137.700000003,7008,gold,NF,C,390738,390738,389009,390022,389009,391288,390538,390538,391288,63
62,test,1,inc,1,m,Wed Aug 14 2024 13:04:42 GMT-0500 (Central Daylight Time),415816.09999999404,raisin,1100,I,m,m,None,765,566.0,199.0,88,1,2396.2999999970198,413419.799999997,7008,silver,NF,C,393121,393121,391291,392404,391291,393687,392921,392921,393687,64
63,test,1,con,1,z,Wed Aug 14 2024 13:04:42 GMT-0500 (Central Daylight Time),417965.299999997,raisin,1000,I,z,z,None,603,403.0,200.0,27,1,2145.5999999940395,415819.700000003,7008,raisin,NF,C,395420,395420,393691,394705,393691,395836,395220,395220,395836,65
63,test,1,inc,0,m,Wed Aug 14 2024 13:04:42 GMT-0500 (Central Daylight Time),420181.09999999404,lime,800,I,z,z,None,869,670.0,199.0,109,1,2212.0,417969.09999999404,7008,iron,NF,C,397369,397369,395840,396653,395840,398052,397170,397170,398052,66
64,test,1,inc,1,m,Wed Aug 14 2024 13:04:42 GMT-0500 (Central Daylight Time),422330.59999999404,lime,800,I,m,m,None,806,606.0,200.0,125,1,2145.5,420185.09999999404,7008,lead,NF,C,399585,399585,398056,398869,398056,400202,399385,399385,400202,67
65,test,1,inc,1,m,Wed Aug 14 2024 13:04:42 GMT-0500 (Central Daylight Time),424679.89999999106,raisin,1100,I,m,m,None,708,500.0,208.0,96,1,2345.3999999910593,422334.5,7008,cobalt,NF,C,402051,402051,400205,401318,400206,402551,401843,401843,402551,68
66,test,1,con,1,z,Wed Aug 14 2024 13:04:42 GMT-0500 (Central Daylight Time),426630.39999999106,plum,800,I,z,z,None,603,403.0,200.0,57,1,1946.8999999910593,424683.5,7008,plum,NF,C,404084,404084,402555,403367,402555,404501,403884,403884,404501,69
67,test,1,inc,1,z,Wed Aug 14 2024 13:04:42 GMT-0500 (Central Daylight Time),428778.59999999404,bronze,800,I,z,z,None,806,606.0,200.0,29,1,2144.3999999910593,426634.200000003,7008,raisin,NF,C,406033,406033,404505,405317,404505,406650,405833,405833,406650,70
68,test,1,inc,1,z,Wed Aug 14 2024 13:04:42 GMT-0500 (Central Daylight Time),430944.59999999404,iron,900,I,z,z,None,724,524.0,200.0,62,1,2162.3999999910593,428782.200000003,7008,plum,NF,C,408283,408283,406653,407566,406653,408816,408083,408083,408816,71
69,test,1,con,1,m,Wed Aug 14 2024 13:04:42 GMT-0500 (Central Daylight Time),432977.09999999404,cobalt,800,I,m,m,None,698,498.0,200.0,89,1,2028.8999999910593,430948.200000003,7008,cobalt,NF,C,410349,410349,408819,409632,408819,410848,410148,410148,410848,72
70,test,1,con,1,z,Wed Aug 14 2024 13:04:42 GMT-0500 (Central Daylight Time),435209.799999997,kiwi,1100,I,z,z,None,590,390.0,200.0,52,1,2229.0999999940395,432980.700000003,7008,kiwi,NF,C,412681,412681,410852,411965,410852,413081,412481,412481,413081,73
71,test,1,con,1,m,Wed Aug 14 2024 13:04:42 GMT-0500 (Central Daylight Time),437608.89999999106,copper,1100,I,m,m,None,765,565.0,200.0,76,1,2395.5,435213.39999999106,7008,copper,NF,C,414914,414914,413084,414197,413085,415480,414714,414714,415480,74
72,test,1,inc,1,z,Wed Aug 14 2024 13:04:42 GMT-0500 (Central Daylight Time),439808.299999997,bronze,800,I,z,z,None,849,649.0,200.0,21,1,2195.0999999940395,437613.200000003,7008,orange,NF,C,417014,417014,415484,416297,415484,417679,416813,416813,417679,75
73,test,1,con,1,m,Wed Aug 14 2024 13:04:42 GMT-0500 (Central Daylight Time),442024.200000003,silver,800,I,m,m,None,882,682.0,200.0,81,1,2212.300000011921,439811.89999999106,7008,silver,NF,C,419213,419213,417683,418496,417683,419895,419012,419012,419895,76
74,test,1,con,1,z,Wed Aug 14 2024 13:04:42 GMT-0500 (Central Daylight Time),443973.700000003,lime,800,I,z,z,None,610,411.0,199.0,33,1,1945.9000000059605,442027.799999997,7008,lime,NF,C,421428,421428,419899,420712,419899,421845,421229,421229,421845,77
75,test,1,con,1,m,Wed Aug 14 2024 13:04:42 GMT-0500 (Central Daylight Time),446040.09999999404,zinc,900,I,m,m,None,617,417.0,200.0,114,1,2062.5,443977.59999999404,7008,zinc,NF,C,423478,423478,421849,422761,421849,423911,423278,423278,423911,78
76,test,1,con,1,z,Wed Aug 14 2024 13:04:42 GMT-0500 (Central Daylight Time),448006.0,plum,900,I,z,z,None,457,252.0,205.0,58,1,1961.9000000059605,446044.09999999404,7008,plum,NF,C,425611,425611,423915,424828,423915,425877,425405,425405,425877,79
77,test,1,inc,1,z,Wed Aug 14 2024 13:04:42 GMT-0500 (Central Daylight Time),450455.0,cobalt,1100,I,z,z,None,809,609.0,200.0,32,1,2445.4000000059605,448009.59999999404,7008,raisin,NF,C,427710,427710,425881,426994,425881,428326,427510,427510,428326,80
78,test,1,con,1,z,Wed Aug 14 2024 13:04:42 GMT-0500 (Central Daylight Time),452437.799999997,cherry,800,I,z,z,None,636,436.0,200.0,9,1,1979.0,450458.799999997,7008,cherry,NF,C,429859,429859,428330,429143,428330,430309,429659,429659,430309,81
79,test,1,con,1,z,Wed Aug 14 2024 13:04:42 GMT-0500 (Central Daylight Time),454603.700000003,orange,1000,I,z,z,None,629,429.0,200.0,19,1,2162.4000000059605,452441.299999997,7008,orange,NF,C,432042,432042,430312,431325,430313,432475,431842,431842,432475,82
80,test,1,inc,1,m,Wed Aug 14 2024 13:04:42 GMT-0500 (Central Daylight Time),456769.700000003,banana,800,I,m,m,None,823,623.0,200.0,69,1,2162.4000000059605,454607.299999997,7008,bronze,NF,C,434008,434008,432478,433291,432479,434641,433808,433808,434641,83
81,test,1,inc,1,z,Wed Aug 14 2024 13:04:42 GMT-0500 (Central Daylight Time),458968.700000003,bronze,800,I,z,z,None,864,665.0,199.0,5,1,2195.300000011921,456773.39999999106,7008,banana,NF,C,436174,436174,434644,435458,434645,436840,435974,435974,436840,84
82,test,1,inc,1,m,Wed Aug 14 2024 13:04:42 GMT-0500 (Central Daylight Time),461218.200000003,kiwi,1000,I,m,m,None,714,514.0,200.0,127,1,2245.9000000059605,458972.299999997,7008,lead,NF,C,438573,438573,436843,437857,436844,439089,438373,438373,439089,85
83,test,1,inc,1,z,Wed Aug 14 2024 13:04:42 GMT-0500 (Central Daylight Time),463400.799999997,iron,900,I,z,z,None,741,541.0,200.0,54,1,2179.2000000029802,461221.59999999404,7008,kiwi,NF,C,440722,440722,439093,440006,439093,441272,440522,440522,441272,86
84,test,1,inc,1,m,Wed Aug 14 2024 13:04:42 GMT-0500 (Central Daylight Time),465466.799999997,lime,800,I,m,m,None,730,530.0,200.0,101,1,2062.4000000059605,463404.39999999106,7008,gold,NF,C,442805,442805,441275,442089,441276,443338,442605,442605,443338,87
85,test,1,con,1,z,Wed Aug 14 2024 13:04:42 GMT-0500 (Central Daylight Time),467466.09999999404,pear,800,I,z,z,None,656,456.0,200.0,41,1,1995.5,465470.59999999404,7008,pear,NF,C,444871,444871,443342,444155,443342,445337,444671,444671,445337,88
86,test,1,con,1,m,Wed Aug 14 2024 13:04:42 GMT-0500 (Central Daylight Time),469798.89999999106,silver,1100,I,m,m,None,684,485.0,199.0,84,1,2329.0,467469.89999999106,7008,silver,NF,C,447170,447170,445341,446454,445341,447670,446971,446971,447670,89
87,test,1,inc,1,z,Wed Aug 14 2024 13:04:42 GMT-0500 (Central Daylight Time),472281.5,cobalt,1100,I,z,z,None,823,623.0,200.0,8,1,2479.0,469802.5,7008,banana,NF,C,449520,449520,447674,448816,447674,450153,449319,449319,450152,90
88,test,1,inc,1,m,Wed Aug 14 2024 13:04:42 GMT-0500 (Central Daylight Time),474447.5,pear,900,I,m,m,None,716,517.0,199.0,118,1,2162.4000000059605,472285.09999999404,7008,zinc,NF,C,451785,451786,450156,451069,450156,452319,451586,451586,452318,91
89,test,1,inc,1,z,Wed Aug 14 2024 13:04:42 GMT-0500 (Central Daylight Time),476630.0,copper,900,I,z,z,None,734,535.0,199.0,30,1,2178.7999999970198,474451.200000003,7008,raisin,NF,C,453952,453952,452322,453235,452322,454501,453752,453752,454501,92
90,test,1,con,1,m,Wed Aug 14 2024 13:04:42 GMT-0500 (Central Daylight Time),479046.0,iron,1000,I,m,m,None,877,677.0,200.0,107,1,2412.2999999970198,476633.700000003,7008,iron,NF,C,456234,456234,454505,455518,454505,456917,456034,456034,456917,93
91,test,1,inc,1,z,Wed Aug 14 2024 13:04:42 GMT-0500 (Central Daylight Time),481178.799999997,bronze,800,I,z,z,None,789,589.0,200.0,13,1,2129.0999999940395,479049.700000003,7008,cherry,NF,C,458450,458450,456921,457734,456921,459050,458250,458250,459050,94
92,test,1,inc,1,z,Wed Aug 14 2024 13:04:42 GMT-0500 (Central Daylight Time),483594.700000003,cobalt,1100,I,z,z,None,771,572.0,199.0,24,1,2412.4000000059605,481182.299999997,7008,orange,NF,C,460883,460883,459053,460166,459054,461466,460683,460683,461466,95
93,test,1,inc,1,m,Wed Aug 14 2024 13:04:42 GMT-0500 (Central Daylight Time),485793.799999997,kiwi,1000,I,m,m,None,663,464.0,199.0,119,1,2195.4000000059605,483598.39999999106,7008,zinc,NF,C,463199,463199,461469,462482,461470,463665,462999,462999,463665,96
94,test,1,inc,1,m,Wed Aug 14 2024 13:04:42 GMT-0500 (Central Daylight Time),488009.89999999106,cherry,900,I,m,m,None,781,581.0,200.0,78,1,2212.699999988079,485797.200000003,7008,copper,NF,C,465298,465298,463668,464581,463668,465881,465098,465098,465881,97
95,test,1,con,1,m,Wed Aug 14 2024 13:04:42 GMT-0500 (Central Daylight Time),490209.09999999404,lead,900,I,m,m,None,757,557.0,200.0,122,1,2195.5,488013.59999999404,7008,lead,NF,C,467514,467514,465885,466798,465885,468080,467314,467314,468080,98
96,test,1,inc,1,z,Wed Aug 14 2024 13:04:42 GMT-0500 (Central Daylight Time),492508.39999999106,zinc,1000,I,z,z,None,761,562.0,199.0,47,1,2295.5999999940395,490212.799999997,7008,pear,NF,C,469813,469813,468084,469097,468084,470380,469614,469614,470379,99
97,test,1,inc,1,z,Wed Aug 14 2024 13:04:42 GMT-0500 (Central Daylight Time),494957.799999997,lead,1100,I,z,z,None,802,602.0,200.0,56,1,2445.9000000059605,492511.89999999106,7008,kiwi,NF,C,472213,472213,470383,471496,470383,472829,472012,472012,472829,100
98,test,1,inc,1,z,Wed Aug 14 2024 13:04:42 GMT-0500 (Central Daylight Time),497156.89999999106,iron,900,I,z,z,None,753,553.0,200.0,46,1,2195.3999999910593,494961.5,7008,pear,NF,C,474462,474462,472833,473745,472833,475028,474262,474262,475028,101
99,test,1,inc,1,z,Wed Aug 14 2024 13:04:42 GMT-0500 (Central Daylight Time),499706.09999999404,lead,1100,I,z,z,None,906,706.0,200.0,40,1,2545.3999999910593,497160.700000003,7008,lime,NF,C,476861,476861,475032,476145,475032,477577,476661,476661,477577,102
100,test,1,con,1,z,Wed Aug 14 2024 13:04:42 GMT-0500 (Central Daylight Time),501872.299999997,lime,1000,I,z,z,None,633,433.0,200.0,35,1,2162.5999999940395,499709.700000003,7008,lime,NF,C,479310,479310,477581,478594,477581,479743,479110,479110,479743,103
101,test,1,inc,1,z,Wed Aug 14 2024 13:04:42 GMT-0500 (Central Daylight Time),504054.799999997,copper,900,I,z,z,None,735,535.0,200.0,6,1,2179.0,501875.799999997,7008,banana,NF,C,481376,481376,479747,480660,479747,481926,481176,481176,481926,104
102,test,1,inc,1,m,Wed Aug 14 2024 13:04:42 GMT-0500 (Central Daylight Time),506154.200000003,lime,800,I,m,m,None,764,564.0,200.0,117,1,2095.9000000059605,504058.299999997,7008,zinc,NF,C,483459,483459,481929,482742,481930,484025,483259,483259,484025,105
103,test,1,con,1,z,Wed Aug 14 2024 13:04:42 GMT-0500 (Central Daylight Time),508420.09999999404,pear,900,I,z,z,None,820,621.0,199.0,42,1,2262.0999999940395,506158.0,7008,pear,NF,C,485658,485658,484029,484942,484029,486291,485459,485459,486291,106
104,test,1,con,1,m,Wed Aug 14 2024 13:04:42 GMT-0500 (Central Daylight Time),510552.59999999404,copper,1000,I,m,m,None,599,399.0,200.0,75,1,2129.0,508423.59999999404,7008,copper,NF,C,488024,488024,486295,487308,486295,488424,487824,487824,488424,107
105,test,1,inc,1,m,Wed Aug 14 2024 13:04:42 GMT-0500 (Central Daylight Time),512902.200000003,orange,1000,I,m,m,None,810,610.0,200.0,79,1,2346.1000000089407,510556.09999999404,7008,copper,NF,C,490157,490157,488427,489440,488427,490773,489957,489957,490773,108
106,test,1,con,1,z,Wed Aug 14 2024 13:04:42 GMT-0500 (Central Daylight Time),515284.59999999404,lime,900,I,z,z,None,944,744.0,200.0,34,1,2378.5999999940395,512906.0,7008,lime,NF,C,492407,492407,490777,491690,490777,493156,492206,492206,493156,109
107,test,1,con,1,m,Wed Aug 14 2024 13:04:42 GMT-0500 (Central Daylight Time),517600.39999999106,bronze,1000,I,m,m,None,774,574.0,200.0,67,1,2311.699999988079,515288.700000003,7008,bronze,NF,C,494889,494889,493160,494173,493160,495472,494689,494689,495471,110
108,test,1,inc,1,z,Wed Aug 14 2024 13:04:42 GMT-0500 (Central Daylight Time),519899.89999999106,silver,1000,I,z,z,None,761,562.0,199.0,15,1,2295.3999999910593,517604.5,7008,cherry,NF,C,497205,497205,495476,496488,495476,497771,497005,497005,497771,111
109,test,1,inc,1,m,Wed Aug 14 2024 13:04:42 GMT-0500 (Central Daylight Time),522215.700000003,kiwi,1000,I,m,m,None,774,575.0,199.0,111,1,2312.300000011921,519903.39999999106,7008,iron,NF,C,499504,499504,497774,498787,497775,500087,499304,499304,500087,112
110,test,1,inc,1,m,Wed Aug 14 2024 13:04:42 GMT-0500 (Central Daylight Time),524531.799999997,orange,1000,I,m,m,None,770,571.0,199.0,95,1,2312.5,522219.299999997,7008,cobalt,NF,C,501820,501820,500090,501103,500091,502403,501620,501620,502403,113
111,test,1,con,1,m,Wed Aug 14 2024 13:04:42 GMT-0500 (Central Daylight Time),526564.299999997,cobalt,900,I,m,m,None,594,395.0,199.0,90,1,2029.0,524535.299999997,7008,cobalt,NF,C,504036,504036,502406,503319,502407,504435,503836,503836,504435,114
112,test,1,con,1,m,Wed Aug 14 2024 13:04:42 GMT-0500 (Central Daylight Time),528563.8999999911,gold,800,I,m,m,None,655,455.0,200.0,97,1,1996.0,526567.8999999911,7008,gold,NF,C,505968,505968,504439,505252,504439,506435,505768,505768,506435,115
113,test,1,con,1,z,Wed Aug 14 2024 13:04:42 GMT-0500 (Central Daylight Time),530829.599999994,banana,1100,I,z,z,None,626,427.0,199.0,4,1,2262.2000000029802,528567.3999999911,7008,banana,NF,C,508268,508268,506438,507551,506439,508701,508068,508068,508701,116
114,test,1,inc,1,z,Wed Aug 14 2024 13:04:42 GMT-0500 (Central Daylight Time),533028.799999997,copper,900,I,z,z,None,753,554.0,199.0,14,1,2194.7999999970198,530834.0,7008,cherry,NF,C,510333,510333,508705,509617,508705,510900,510134,510134,510900,117
115,test,1,inc,1,z,Wed Aug 14 2024 13:04:42 GMT-0500 (Central Daylight Time),535295.0,silver,1000,I,z,z,None,718,518.0,200.0,23,1,2262.5,533032.5,7008,orange,NF,C,512633,512633,510904,511916,510904,513166,512433,512433,513166,118
116,test,1,inc,1,z,Wed Aug 14 2024 13:04:42 GMT-0500 (Central Daylight Time),537644.3999999911,lead,1100,I,z,z,None,712,512.0,200.0,48,1,2345.7999999970198,535298.599999994,7008,pear,NF,C,514999,514999,513170,514282,513170,515515,514799,514799,515515,119
117,test,1,inc,1,m,Wed Aug 14 2024 13:04:42 GMT-0500 (Central Daylight Time),539910.3999999911,pear,900,I,m,m,None,819,619.0,200.0,110,1,2262.5,537647.8999999911,7008,iron,NF,C,517148,517148,515519,516432,515519,517781,516948,516948,517781,120
118,test,1,inc,1,z,Wed Aug 14 2024 13:04:42 GMT-0500 (Central Daylight Time),542109.3999999911,iron,900,I,z,z,None,753,440.0,313.0,38,1,2195.0999999940395,539914.299999997,7008,lime,NF,C,519527,519527,517785,518698,517785,519980,519214,519214,519980,121
119,test,1,inc,1,z,Wed Aug 14 2024 13:04:42 GMT-0500 (Central Daylight Time),544143.3999999911,gold,800,I,z,z,None,694,494.0,200.0,45,1,2030.3999999910593,542113.0,7008,pear,NF,C,521513,521513,519984,520797,519986,522014,521313,521313,522014,122
120,test,1,inc,1,z,Wed Aug 14 2024 13:04:42 GMT-0500 (Central Daylight Time),546474.799999997,zinc,1000,I,z,z,None,789,589.0,200.0,63,1,2327.5,544147.299999997,7008,plum,NF,C,523746,523746,522018,523030,522019,524346,523546,523546,524346,123
121,test,1,inc,1,m,Wed Aug 14 2024 13:04:42 GMT-0500 (Central Daylight Time),548840.700000003,plum,1100,I,m,m,None,715,516.0,199.0,104,1,2362.2000000029802,546478.5,7008,gold,NF,C,526179,526179,524350,525462,524350,526712,525979,525979,526712,124
122,test,1,con,1,m,Wed Aug 14 2024 13:04:42 GMT-0500 (Central Daylight Time),551073.0,cobalt,1000,I,m,m,None,698,498.0,200.0,91,1,2228.7000000029802,548844.299999997,7008,cobalt,NF,C,528445,528445,526715,527728,526716,528944,528245,528245,528944,125
123,test,1,inc,1,z,Wed Aug 14 2024 13:04:42 GMT-0500 (Central Daylight Time),553422.3999999911,silver,1000,I,z,z,None,802,602.0,200.0,31,1,2345.7999999970198,551076.599999994,7008,raisin,NF,C,530677,530677,528948,529961,528948,531294,530477,530477,531293,126
124,test,1,con,1,m,Wed Aug 14 2024 13:04:42 GMT-0500 (Central Daylight Time),555504.799999997,lead,800,I,m,m,None,747,548.0,199.0,121,1,2078.7000000029802,553426.099999994,7008,lead,NF,C,532827,532827,531297,532110,531297,533376,532627,532627,533376,127
125,test,1,con,1,z,Wed Aug 14 2024 13:04:42 GMT-0500 (Central Daylight Time),557420.799999997,banana,800,I,z,z,None,578,378.0,200.0,1,1,1912.2000000029802,555508.599999994,7008,banana,NF,C,534909,534909,533380,534193,533380,535292,534709,534709,535292,128
