acc_sum,block,block_c,change,condition,correct,correct_response,datetime,endtime,face,project,response,response_time,row_sel,session_number,start_end,starttime,subject_id,task,task_vers,trial
0,prac,1,,1-Back,,,Fri Aug 29 2025 12:02:05 GMT-0500 (Central Daylight Time),,097_m_f_n_a.png,I,space,4536,1,3,,,8016,NNB,B,0
1,prac,1,0.0,1-Back,1.0,m,Fri Aug 29 2025 12:02:05 GMT-0500 (Central Daylight Time),214031.0,152_y_f_n_a.png,I,m,1058,2,3,1935.0,212096.0,8016,NNB,B,1
2,prac,1,1.0,1-Back,1.0,z,Fri Aug 29 2025 12:02:05 GMT-0500 (Central Daylight Time),215934.0,152_y_f_n_a.png,I,z,1124,3,3,1896.199999988079,214037.80000001192,8016,NNB,B,2
3,prac,1,0.0,1-Back,1.0,m,Fri Aug 29 2025 12:02:05 GMT-0500 (Central Daylight Time),217783.69999998808,176_o_m_n_a.png,I,m,968,4,3,1841.699999988079,215942.0,8016,NNB,B,3
4,prac,1,0.0,1-Back,1.0,m,Fri Aug 29 2025 12:02:05 GMT-0500 (Central Daylight Time),219549.80000001192,126_m_m_n_a.png,I,m,979,5,3,1760.1000000238419,217789.69999998808,8016,NNB,B,4
5,prac,1,1.0,1-Back,1.0,z,Fri Aug 29 2025 12:02:05 GMT-0500 (Central Daylight Time),221182.40000003576,126_m_m_n_a.png,I,z,844,6,3,1624.9000000357628,219557.5,8016,NNB,B,5
6,prac,1,0.0,1-Back,1.0,m,Fri Aug 29 2025 12:02:05 GMT-0500 (Central Daylight Time),222998.60000002384,086_o_f_n_a.png,I,m,1028,7,3,1809.800000011921,221188.80000001192,8016,NNB,B,6
7,prac,1,0.0,1-Back,1.0,m,Fri Aug 29 2025 12:02:05 GMT-0500 (Central Daylight Time),225031.30000001192,178_m_m_n_a.png,I,m,1153,8,3,2024.8999999761581,223006.40000003576,8016,NNB,B,7
8,prac,1,0.0,1-Back,1.0,m,Fri Aug 29 2025 12:02:05 GMT-0500 (Central Daylight Time),226797.5,097_m_f_n_a.png,I,m,986,9,3,1758.199999988079,225039.30000001192,8016,NNB,B,8
9,prac,1,1.0,1-Back,1.0,z,Fri Aug 29 2025 12:02:05 GMT-0500 (Central Daylight Time),228463.40000003576,097_m_f_n_a.png,I,z,892,10,3,1658.6000000238419,226804.80000001192,8016,NNB,B,9
10,prac,1,0.0,1-Back,1.0,m,Fri Aug 29 2025 12:02:05 GMT-0500 (Central Daylight Time),230196.19999998808,176_o_m_n_a.png,I,m,945,11,3,1724.5,228471.69999998808,8016,NNB,B,10
11,prac,1,0.0,1-Back,1.0,m,Fri Aug 29 2025 12:02:05 GMT-0500 (Central Daylight Time),231945.69999998808,173_y_f_n_a.png,I,m,877,12,3,1740.7999999523163,230204.90000003576,8016,NNB,B,11
0,test,1,0.0,1-Back,,,Fri Aug 29 2025 12:02:05 GMT-0500 (Central Daylight Time),231945.69999998808,152_y_f_n_a.png,I,space,11867,1,3,1740.7999999523163,230204.90000003576,8016,NNB,B,0
1,test,1,0.0,1-Back,1.0,m,Fri Aug 29 2025 12:02:05 GMT-0500 (Central Daylight Time),253672.80000001192,029_m_f_n_a.png,I,m,934,2,3,1961.300000011921,251711.5,8016,NNB,B,1
2,test,1,0.0,1-Back,1.0,m,Fri Aug 29 2025 12:02:05 GMT-0500 (Central Daylight Time),255704.90000003576,173_y_f_n_a.png,I,m,1000,3,3,2026.7000000476837,253678.19999998808,8016,NNB,B,2
3,test,1,1.0,1-Back,1.0,z,Fri Aug 29 2025 12:02:05 GMT-0500 (Central Daylight Time),257587.80000001192,173_y_f_n_a.png,I,z,864,4,3,1877.800000011921,255710.0,8016,NNB,B,3
4,test,1,0.0,1-Back,1.0,m,Fri Aug 29 2025 12:02:05 GMT-0500 (Central Daylight Time),259637.10000002384,029_m_f_n_a.png,I,m,1030,5,3,2045.199999988079,257591.90000003576,8016,NNB,B,4
5,test,1,0.0,1-Back,1.0,m,Fri Aug 29 2025 12:02:05 GMT-0500 (Central Daylight Time),261536.5,176_o_m_n_a.png,I,m,867,6,3,1894.8999999761581,259641.60000002384,8016,NNB,B,5
6,test,1,1.0,1-Back,1.0,z,Fri Aug 29 2025 12:02:05 GMT-0500 (Central Daylight Time),263369.1999999881,176_o_m_n_a.png,I,z,800,7,3,1828.0,261541.19999998808,8016,NNB,B,6
7,test,1,0.0,1-Back,1.0,m,Fri Aug 29 2025 12:02:05 GMT-0500 (Central Daylight Time),265468.5,126_m_m_n_a.png,I,m,1079,8,3,2095.0,263373.5,8016,NNB,B,7
8,test,1,0.0,1-Back,1.0,m,Fri Aug 29 2025 12:02:05 GMT-0500 (Central Daylight Time),267384.60000002384,086_o_f_n_a.png,I,m,892,9,3,1911.5,265473.10000002384,8016,NNB,B,8
9,test,1,0.0,1-Back,1.0,m,Fri Aug 29 2025 12:02:05 GMT-0500 (Central Daylight Time),269384.0,126_m_m_n_a.png,I,m,975,10,3,1994.699999988079,267389.3000000119,8016,NNB,B,9
10,test,1,0.0,1-Back,1.0,m,Fri Aug 29 2025 12:02:05 GMT-0500 (Central Daylight Time),271333.40000003576,153_y_m_n_a.png,I,m,929,11,3,1945.4000000357628,269388.0,8016,NNB,B,10
11,test,1,1.0,1-Back,1.0,z,Fri Aug 29 2025 12:02:05 GMT-0500 (Central Daylight Time),273065.90000003576,153_y_m_n_a.png,I,z,715,12,3,1727.7000000476837,271338.1999999881,8016,NNB,B,11
12,test,1,0.0,1-Back,1.0,m,Fri Aug 29 2025 12:02:05 GMT-0500 (Central Daylight Time),274899.10000002384,110_o_f_n_a.png,I,m,807,13,3,1828.800000011921,273070.3000000119,8016,NNB,B,12
13,test,1,1.0,1-Back,1.0,z,Fri Aug 29 2025 12:02:05 GMT-0500 (Central Daylight Time),276714.8000000119,110_o_f_n_a.png,I,z,798,14,3,1811.199999988079,274903.60000002384,8016,NNB,B,13
14,test,1,0.0,1-Back,1.0,m,Fri Aug 29 2025 12:02:05 GMT-0500 (Central Daylight Time),278747.8000000119,013_y_m_n_a.png,I,m,1013,15,3,2028.6000000238419,276719.1999999881,8016,NNB,B,14
15,test,1,0.0,1-Back,1.0,m,Fri Aug 29 2025 12:02:05 GMT-0500 (Central Daylight Time),280563.6999999881,097_m_f_n_a.png,I,m,797,16,3,1810.8999999761581,278752.8000000119,8016,NNB,B,15
16,test,1,0.0,1-Back,1.0,m,Fri Aug 29 2025 12:02:05 GMT-0500 (Central Daylight Time),282429.6999999881,065_o_m_n_a.png,I,m,838,17,3,1862.0,280567.6999999881,8016,NNB,B,16
17,test,1,0.0,1-Back,1.0,m,Fri Aug 29 2025 12:02:05 GMT-0500 (Central Daylight Time),284296.0,097_m_f_n_a.png,I,m,835,18,3,1862.0,282434.0,8016,NNB,B,17
0,test,2,0.0,1-Back,,,Fri Aug 29 2025 12:02:05 GMT-0500 (Central Daylight Time),284296.0,126_m_m_n_a.png,I,space,1256,1,3,1862.0,282434.0,8016,NNB,B,0
1,test,2,0.0,1-Back,1.0,m,Fri Aug 29 2025 12:02:05 GMT-0500 (Central Daylight Time),289544.10000002384,029_m_f_n_a.png,I,m,934,2,3,1960.699999988079,287583.40000003576,8016,NNB,B,1
2,test,2,1.0,1-Back,1.0,z,Fri Aug 29 2025 12:02:05 GMT-0500 (Central Daylight Time),291393.6999999881,029_m_f_n_a.png,I,z,825,3,3,1845.199999988079,289548.5,8016,NNB,B,2
3,test,2,0.0,1-Back,1.0,m,Fri Aug 29 2025 12:02:05 GMT-0500 (Central Daylight Time),293343.1999999881,126_m_m_n_a.png,I,m,920,4,3,1944.5,291398.6999999881,8016,NNB,B,3
4,test,2,0.0,1-Back,1.0,m,Fri Aug 29 2025 12:02:05 GMT-0500 (Central Daylight Time),295642.3000000119,153_y_m_n_a.png,I,m,1273,5,3,2295.399999976158,293346.90000003576,8016,NNB,B,4
5,test,2,0.0,1-Back,1.0,m,Fri Aug 29 2025 12:02:05 GMT-0500 (Central Daylight Time),297425.40000003576,152_y_f_n_a.png,I,m,766,6,3,1779.1000000238419,295646.3000000119,8016,NNB,B,5
6,test,2,1.0,1-Back,1.0,z,Fri Aug 29 2025 12:02:05 GMT-0500 (Central Daylight Time),299141.0,152_y_f_n_a.png,I,z,695,7,3,1711.800000011921,297429.1999999881,8016,NNB,B,6
7,test,2,0.0,1-Back,1.0,m,Fri Aug 29 2025 12:02:05 GMT-0500 (Central Daylight Time),301024.10000002384,153_y_m_n_a.png,I,m,860,8,3,1878.300000011921,299145.8000000119,8016,NNB,B,7
8,test,2,0.0,1-Back,1.0,m,Fri Aug 29 2025 12:02:05 GMT-0500 (Central Daylight Time),302839.90000003576,110_o_f_n_a.png,I,m,793,9,3,1811.800000011921,301028.10000002384,8016,NNB,B,8
9,test,2,0.0,1-Back,1.0,m,Fri Aug 29 2025 12:02:05 GMT-0500 (Central Daylight Time),304872.8000000119,178_m_m_n_a.png,I,m,1009,10,3,2027.8999999761581,302844.90000003576,8016,NNB,B,9
10,test,2,1.0,1-Back,1.0,z,Fri Aug 29 2025 12:02:05 GMT-0500 (Central Daylight Time),306655.60000002384,178_m_m_n_a.png,I,z,752,11,3,1778.0,304877.60000002384,8016,NNB,B,10
11,test,2,0.0,1-Back,1.0,m,Fri Aug 29 2025 12:02:05 GMT-0500 (Central Daylight Time),308838.40000003576,110_o_f_n_a.png,I,m,1162,12,3,2177.400000035763,306661.0,8016,NNB,B,11
12,test,2,0.0,1-Back,1.0,m,Fri Aug 29 2025 12:02:05 GMT-0500 (Central Daylight Time),310771.10000002384,086_o_f_n_a.png,I,m,907,13,3,1928.4000000357628,308842.6999999881,8016,NNB,B,12
13,test,2,0.0,1-Back,1.0,m,Fri Aug 29 2025 12:02:05 GMT-0500 (Central Daylight Time),312737.0,176_o_m_n_a.png,I,m,941,14,3,1961.0,310776.0,8016,NNB,B,13
14,test,2,0.0,1-Back,1.0,m,Fri Aug 29 2025 12:02:05 GMT-0500 (Central Daylight Time),314653.1999999881,065_o_m_n_a.png,I,m,896,15,3,1911.0999999642372,312742.10000002384,8016,NNB,B,14
15,test,2,1.0,1-Back,1.0,z,Fri Aug 29 2025 12:02:05 GMT-0500 (Central Daylight Time),316385.8000000119,065_o_m_n_a.png,I,z,708,16,3,1728.0,314657.8000000119,8016,NNB,B,15
16,test,2,0.0,1-Back,1.0,m,Fri Aug 29 2025 12:02:05 GMT-0500 (Central Daylight Time),318252.10000002384,013_y_m_n_a.png,I,m,847,17,3,1861.699999988079,316390.40000003576,8016,NNB,B,16
17,test,2,1.0,1-Back,1.0,z,Fri Aug 29 2025 12:02:05 GMT-0500 (Central Daylight Time),320601.40000003576,013_y_m_n_a.png,I,z,1316,18,3,2345.300000011921,318256.10000002384,8016,NNB,B,17
0,test,3,1.0,1-Back,,,Fri Aug 29 2025 12:02:05 GMT-0500 (Central Daylight Time),320601.40000003576,173_y_f_n_a.png,I,space,1751,1,3,2345.300000011921,318256.10000002384,8016,NNB,B,0
1,test,3,0.0,1-Back,1.0,m,Fri Aug 29 2025 12:02:05 GMT-0500 (Central Daylight Time),326166.3000000119,065_o_m_n_a.png,I,m,679,1,3,1695.1000000238419,324471.1999999881,8016,NNB,B,1
2,test,3,1.0,1-Back,1.0,z,Fri Aug 29 2025 12:02:05 GMT-0500 (Central Daylight Time),327882.40000003576,065_o_m_n_a.png,I,z,690,1,3,1711.800000011921,326170.60000002384,8016,NNB,B,2
3,test,3,0.0,1-Back,1.0,m,Fri Aug 29 2025 12:02:05 GMT-0500 (Central Daylight Time),329698.3000000119,097_m_f_n_a.png,I,m,790,1,3,1811.8999999761581,327886.40000003576,8016,NNB,B,3
4,test,3,1.0,1-Back,1.0,z,Fri Aug 29 2025 12:02:05 GMT-0500 (Central Daylight Time),331464.5,097_m_f_n_a.png,I,z,734,1,3,1761.800000011921,329702.6999999881,8016,NNB,B,4
5,test,3,0.0,1-Back,1.0,m,Fri Aug 29 2025 12:02:05 GMT-0500 (Central Daylight Time),333297.3000000119,110_o_f_n_a.png,I,m,800,1,3,1828.1000000238419,331469.1999999881,8016,NNB,B,5
6,test,3,0.0,1-Back,1.0,m,Fri Aug 29 2025 12:02:05 GMT-0500 (Central Daylight Time),335063.5,153_y_m_n_a.png,I,m,744,1,3,1760.5,333303.0,8016,NNB,B,6
7,test,3,0.0,1-Back,1.0,m,Fri Aug 29 2025 12:02:05 GMT-0500 (Central Daylight Time),336779.3000000119,110_o_f_n_a.png,I,m,698,1,3,1710.6000000238419,335068.6999999881,8016,NNB,B,7
8,test,3,0.0,1-Back,1.0,m,Fri Aug 29 2025 12:02:05 GMT-0500 (Central Daylight Time),338595.6999999881,013_y_m_n_a.png,I,m,798,1,3,1812.0,336783.6999999881,8016,NNB,B,8
9,test,3,1.0,1-Back,1.0,z,Fri Aug 29 2025 12:02:05 GMT-0500 (Central Daylight Time),340194.8000000119,013_y_m_n_a.png,I,z,573,1,3,1594.199999988079,338600.60000002384,8016,NNB,B,9
10,test,3,0.0,1-Back,1.0,m,Fri Aug 29 2025 12:02:05 GMT-0500 (Central Daylight Time),341994.40000003576,029_m_f_n_a.png,I,m,782,1,3,1794.5,340199.90000003576,8016,NNB,B,10
11,test,3,0.0,1-Back,1.0,m,Fri Aug 29 2025 12:02:05 GMT-0500 (Central Daylight Time),343794.10000002384,152_y_f_n_a.png,I,m,775,1,3,1795.199999988079,341998.90000003576,8016,NNB,B,11
12,test,3,1.0,1-Back,1.0,z,Fri Aug 29 2025 12:02:05 GMT-0500 (Central Daylight Time),345526.90000003576,152_y_f_n_a.png,I,z,703,1,3,1729.0,343797.90000003576,8016,NNB,B,12
13,test,3,0.0,1-Back,1.0,m,Fri Aug 29 2025 12:02:05 GMT-0500 (Central Daylight Time),347409.6999999881,029_m_f_n_a.png,I,m,851,1,3,1878.0,345531.6999999881,8016,NNB,B,13
14,test,3,0.0,1-Back,1.0,m,Fri Aug 29 2025 12:02:05 GMT-0500 (Central Daylight Time),349259.0,126_m_m_n_a.png,I,m,823,1,3,1844.800000011921,347414.1999999881,8016,NNB,B,14
15,test,3,1.0,1-Back,1.0,z,Fri Aug 29 2025 12:02:05 GMT-0500 (Central Daylight Time),350974.90000003576,126_m_m_n_a.png,I,z,686,1,3,1710.800000011921,349264.10000002384,8016,NNB,B,15
16,test,3,0.0,1-Back,1.0,m,Fri Aug 29 2025 12:02:05 GMT-0500 (Central Daylight Time),352741.10000002384,086_o_f_n_a.png,I,m,739,1,3,1761.4000000357628,350979.6999999881,8016,NNB,B,16
17,test,3,1.0,1-Back,1.0,z,Fri Aug 29 2025 12:02:05 GMT-0500 (Central Daylight Time),354457.3000000119,086_o_f_n_a.png,I,z,692,1,3,1711.300000011921,352746.0,8016,NNB,B,17
0,test,4,1.0,1-Back,,,Fri Aug 29 2025 12:02:05 GMT-0500 (Central Daylight Time),354457.3000000119,097_m_f_n_a.png,I,space,1255,1,3,1711.300000011921,352746.0,8016,NNB,B,0
1,test,4,0.0,1-Back,1.0,m,Fri Aug 29 2025 12:02:05 GMT-0500 (Central Daylight Time),359638.90000003576,065_o_m_n_a.png,I,m,787,2,3,1811.0,357827.90000003576,8016,NNB,B,1
2,test,4,0.0,1-Back,1.0,m,Fri Aug 29 2025 12:02:05 GMT-0500 (Central Daylight Time),361671.6999999881,097_m_f_n_a.png,I,m,1010,3,3,2029.0999999642372,359642.60000002384,8016,NNB,B,2
3,test,4,0.0,1-Back,1.0,m,Fri Aug 29 2025 12:02:05 GMT-0500 (Central Daylight Time),363454.60000002384,110_o_f_n_a.png,I,m,761,4,3,1778.800000011921,361675.8000000119,8016,NNB,B,3
4,test,4,1.0,1-Back,1.0,z,Fri Aug 29 2025 12:02:05 GMT-0500 (Central Daylight Time),365137.1999999881,110_o_f_n_a.png,I,z,666,5,3,1677.7999999523163,363459.40000003576,8016,NNB,B,4
5,test,4,0.0,1-Back,1.0,m,Fri Aug 29 2025 12:02:05 GMT-0500 (Central Daylight Time),367020.1999999881,152_y_f_n_a.png,I,m,864,6,3,1879.3999999761581,365140.8000000119,8016,NNB,B,5
6,test,4,0.0,1-Back,1.0,m,Fri Aug 29 2025 12:02:05 GMT-0500 (Central Daylight Time),369102.8000000119,153_y_m_n_a.png,I,m,1053,7,3,2077.5,367025.3000000119,8016,NNB,B,6
7,test,4,1.0,1-Back,1.0,z,Fri Aug 29 2025 12:02:05 GMT-0500 (Central Daylight Time),371035.5,153_y_m_n_a.png,I,z,915,8,3,1928.800000011921,369106.6999999881,8016,NNB,B,7
8,test,4,0.0,1-Back,1.0,m,Fri Aug 29 2025 12:02:05 GMT-0500 (Central Daylight Time),372768.40000003576,152_y_f_n_a.png,I,m,701,9,3,1728.4000000357628,371040.0,8016,NNB,B,8
9,test,4,0.0,1-Back,1.0,m,Fri Aug 29 2025 12:02:05 GMT-0500 (Central Daylight Time),374567.60000002384,178_m_m_n_a.png,I,m,768,10,3,1795.300000011921,372772.3000000119,8016,NNB,B,9
10,test,4,1.0,1-Back,1.0,z,Fri Aug 29 2025 12:02:05 GMT-0500 (Central Daylight Time),376233.5,178_m_m_n_a.png,I,z,641,11,3,1661.199999988079,374572.3000000119,8016,NNB,B,10
11,test,4,0.0,1-Back,1.0,m,Fri Aug 29 2025 12:02:05 GMT-0500 (Central Daylight Time),378033.40000003576,086_o_f_n_a.png,I,m,775,12,3,1794.4000000357628,376239.0,8016,NNB,B,11
12,test,4,0.0,1-Back,1.0,m,Fri Aug 29 2025 12:02:05 GMT-0500 (Central Daylight Time),379982.5,176_o_m_n_a.png,I,m,832,13,3,1944.0999999642372,378038.40000003576,8016,NNB,B,12
13,test,4,0.0,1-Back,1.0,m,Fri Aug 29 2025 12:02:05 GMT-0500 (Central Daylight Time),381865.6999999881,086_o_f_n_a.png,I,m,851,14,3,1877.5999999642372,379988.10000002384,8016,NNB,B,13
14,test,4,0.0,1-Back,1.0,m,Fri Aug 29 2025 12:02:05 GMT-0500 (Central Daylight Time),383631.5,173_y_f_n_a.png,I,m,744,15,3,1761.5,381870.0,8016,NNB,B,14
15,test,4,1.0,1-Back,1.0,z,Fri Aug 29 2025 12:02:05 GMT-0500 (Central Daylight Time),385299.0,173_y_f_n_a.png,I,z,642,16,3,1662.800000011921,383636.1999999881,8016,NNB,B,15
16,test,4,0.0,1-Back,1.0,m,Fri Aug 29 2025 12:02:05 GMT-0500 (Central Daylight Time),387030.5,029_m_f_n_a.png,I,m,711,17,3,1727.199999988079,385303.3000000119,8016,NNB,B,16
17,test,4,1.0,1-Back,1.0,z,Fri Aug 29 2025 12:02:05 GMT-0500 (Central Daylight Time),388663.40000003576,029_m_f_n_a.png,I,z,610,18,3,1629.2000000476837,387034.1999999881,8016,NNB,B,17
0,test,5,1.0,1-Back,,,Fri Aug 29 2025 12:02:05 GMT-0500 (Central Daylight Time),388663.40000003576,176_o_m_n_a.png,I,space,1538,1,3,1629.2000000476837,387034.1999999881,8016,NNB,B,0
1,test,5,1.0,1-Back,1.0,z,Fri Aug 29 2025 12:02:05 GMT-0500 (Central Daylight Time),394111.6999999881,176_o_m_n_a.png,I,z,859,2,3,1877.8999999761581,392233.8000000119,8016,NNB,B,1
2,test,5,0.0,1-Back,1.0,m,Fri Aug 29 2025 12:02:05 GMT-0500 (Central Daylight Time),395960.6999999881,152_y_f_n_a.png,I,m,817,3,3,1844.3999999761581,394116.3000000119,8016,NNB,B,2
3,test,5,0.0,1-Back,1.0,m,Fri Aug 29 2025 12:02:05 GMT-0500 (Central Daylight Time),397677.1999999881,153_y_m_n_a.png,I,m,687,4,3,1712.5,395964.6999999881,8016,NNB,B,3
4,test,5,0.0,1-Back,1.0,m,Fri Aug 29 2025 12:02:05 GMT-0500 (Central Daylight Time),399759.90000003576,152_y_f_n_a.png,I,m,1060,5,3,2077.300000011921,397682.60000002384,8016,NNB,B,4
5,test,5,0.0,1-Back,1.0,m,Fri Aug 29 2025 12:02:05 GMT-0500 (Central Daylight Time),401675.90000003576,126_m_m_n_a.png,I,m,896,6,3,1912.2000000476837,399763.6999999881,8016,NNB,B,5
6,test,5,1.0,1-Back,1.0,z,Fri Aug 29 2025 12:02:05 GMT-0500 (Central Daylight Time),403275.40000003576,126_m_m_n_a.png,I,z,537,7,3,1595.2000000476837,401680.1999999881,8016,NNB,B,6
7,test,5,0.0,1-Back,1.0,m,Fri Aug 29 2025 12:02:05 GMT-0500 (Central Daylight Time),405091.5,173_y_f_n_a.png,I,m,797,8,3,1811.0999999642372,403280.40000003576,8016,NNB,B,7
8,test,5,0.0,1-Back,1.0,m,Fri Aug 29 2025 12:02:05 GMT-0500 (Central Daylight Time),406857.40000003576,013_y_m_n_a.png,I,m,749,9,3,1761.9000000357628,405095.5,8016,NNB,B,8
9,test,5,0.0,1-Back,1.0,m,Fri Aug 29 2025 12:02:05 GMT-0500 (Central Daylight Time),408757.10000002384,173_y_f_n_a.png,I,m,880,10,3,1895.5,406861.60000002384,8016,NNB,B,9
10,test,5,0.0,1-Back,1.0,m,Fri Aug 29 2025 12:02:05 GMT-0500 (Central Daylight Time),410490.3000000119,086_o_f_n_a.png,I,m,708,11,3,1728.6000000238419,408761.6999999881,8016,NNB,B,10
11,test,5,1.0,1-Back,1.0,z,Fri Aug 29 2025 12:02:05 GMT-0500 (Central Daylight Time),412122.6999999881,086_o_f_n_a.png,I,z,607,12,3,1628.5999999642372,410494.10000002384,8016,NNB,B,11
12,test,5,0.0,1-Back,1.0,m,Fri Aug 29 2025 12:02:05 GMT-0500 (Central Daylight Time),413788.60000002384,065_o_m_n_a.png,I,m,639,13,3,1660.9000000357628,412127.6999999881,8016,NNB,B,12
13,test,5,0.0,1-Back,1.0,m,Fri Aug 29 2025 12:02:05 GMT-0500 (Central Daylight Time),415588.1999999881,097_m_f_n_a.png,I,m,780,14,3,1794.3999999761581,413793.8000000119,8016,NNB,B,13
14,test,5,1.0,1-Back,1.0,z,Fri Aug 29 2025 12:02:05 GMT-0500 (Central Daylight Time),418170.3000000119,097_m_f_n_a.png,I,z,1565,15,3,2578.600000023842,415591.6999999881,8016,NNB,B,14
15,test,5,0.0,1-Back,1.0,m,Fri Aug 29 2025 12:02:05 GMT-0500 (Central Daylight Time),419953.3000000119,065_o_m_n_a.png,I,m,750,16,3,1779.199999988079,418174.10000002384,8016,NNB,B,15
16,test,5,0.0,1-Back,1.0,m,Fri Aug 29 2025 12:02:05 GMT-0500 (Central Daylight Time),421702.6999999881,029_m_f_n_a.png,I,m,727,17,3,1745.699999988079,419957.0,8016,NNB,B,16
17,test,5,0.0,1-Back,1.0,m,Fri Aug 29 2025 12:02:05 GMT-0500 (Central Daylight Time),423535.60000002384,178_m_m_n_a.png,I,m,801,18,3,1828.199999988079,421707.40000003576,8016,NNB,B,17
0,prac,1,0.0,2-Back,,,Fri Aug 29 2025 12:02:05 GMT-0500 (Central Daylight Time),423535.60000002384,013_y_m_n_a.png,I,space,3940,1,3,1828.199999988079,421707.40000003576,8016,NNB,B,0
0,prac,1,0.0,2-Back,,,Fri Aug 29 2025 12:02:05 GMT-0500 (Central Daylight Time),423535.60000002384,029_m_f_n_a.png,I,space,3940,2,3,1828.199999988079,421707.40000003576,8016,NNB,B,0
1,prac,1,1.0,2-Back,1.0,m,Fri Aug 29 2025 12:02:05 GMT-0500 (Central Daylight Time),515056.8000000119,065_o_m_n_a.png,I,m,1107,3,3,1975.1000000238419,513081.6999999881,8016,NNB,B,1
2,prac,1,0.0,2-Back,1.0,m,Fri Aug 29 2025 12:02:05 GMT-0500 (Central Daylight Time),517356.10000002384,086_o_f_n_a.png,I,m,1416,4,3,2292.199999988079,515063.90000003576,8016,NNB,B,2
3,prac,1,0.0,2-Back,1.0,z,Fri Aug 29 2025 12:02:05 GMT-0500 (Central Daylight Time),519222.40000003576,065_o_m_n_a.png,I,z,1078,5,3,1860.2000000476837,517362.1999999881,8016,NNB,B,3
4,prac,1,1.0,2-Back,1.0,z,Fri Aug 29 2025 12:02:05 GMT-0500 (Central Daylight Time),521305.10000002384,086_o_f_n_a.png,I,z,1318,6,3,2075.800000011921,519229.3000000119,8016,NNB,B,4
5,prac,1,0.0,2-Back,1.0,m,Fri Aug 29 2025 12:02:05 GMT-0500 (Central Daylight Time),523287.90000003576,178_m_m_n_a.png,I,m,1111,7,3,1975.5,521312.40000003576,8016,NNB,B,5
6,prac,1,0.0,2-Back,1.0,m,Fri Aug 29 2025 12:02:05 GMT-0500 (Central Daylight Time),525237.3000000119,176_o_m_n_a.png,I,m,1070,8,3,1943.0,523294.3000000119,8016,NNB,B,6
7,prac,1,0.0,2-Back,1.0,m,Fri Aug 29 2025 12:02:05 GMT-0500 (Central Daylight Time),527854.1000000238,173_y_f_n_a.png,I,m,1743,9,3,2610.199999988079,525243.9000000358,8016,NNB,B,7
8,prac,1,1.0,2-Back,1.0,z,Fri Aug 29 2025 12:02:05 GMT-0500 (Central Daylight Time),529619.1000000238,176_o_m_n_a.png,I,z,979,10,3,1757.6000000238419,527861.5,8016,NNB,B,8
9,prac,1,0.0,2-Back,1.0,m,Fri Aug 29 2025 12:02:05 GMT-0500 (Central Daylight Time),531768.6000000238,152_y_f_n_a.png,I,m,1272,11,3,2141.699999988079,529626.9000000358,8016,NNB,B,9
9,prac,1,0.0,2-Back,0.0,m,Fri Aug 29 2025 12:02:05 GMT-0500 (Central Daylight Time),534000.8000000119,178_m_m_n_a.png,I,z,1456,12,3,2224.5,531776.3000000119,8016,NNB,B,10
0,test,1,0.0,2-Back,,,Fri Aug 29 2025 12:02:05 GMT-0500 (Central Daylight Time),534000.8000000119,153_y_m_n_a.png,I,space,7695,1,3,2224.5,531776.3000000119,8016,NNB,B,0
0,test,1,0.0,2-Back,,,Fri Aug 29 2025 12:02:05 GMT-0500 (Central Daylight Time),534000.8000000119,153_y_m_n_a.png,I,space,7695,2,3,2224.5,531776.3000000119,8016,NNB,B,0
1,test,1,0.0,2-Back,1.0,m,Fri Aug 29 2025 12:02:05 GMT-0500 (Central Daylight Time),558293.5,086_o_f_n_a.png,I,m,1513,3,3,2527.399999976158,555766.1000000238,8016,NNB,B,1
2,test,1,0.0,2-Back,1.0,m,Fri Aug 29 2025 12:02:05 GMT-0500 (Central Daylight Time),560609.4000000358,126_m_m_n_a.png,I,m,1292,4,3,2311.100000023842,558298.3000000119,8016,NNB,B,2
3,test,1,1.0,2-Back,1.0,z,Fri Aug 29 2025 12:02:05 GMT-0500 (Central Daylight Time),562942.1000000238,086_o_f_n_a.png,I,z,1303,5,3,2328.900000035763,560613.1999999881,8016,NNB,B,3
4,test,1,0.0,2-Back,1.0,m,Fri Aug 29 2025 12:02:05 GMT-0500 (Central Daylight Time),565241.4000000358,152_y_f_n_a.png,I,m,1266,6,3,2295.5,562945.9000000358,8016,NNB,B,4
4,test,1,0.0,2-Back,0.0,m,Fri Aug 29 2025 12:02:05 GMT-0500 (Central Daylight Time),567525.4000000358,126_m_m_n_a.png,I,z,1120,7,3,2279.400000035763,565246.0,8016,NNB,B,5
4,test,1,1.0,2-Back,0.0,z,Fri Aug 29 2025 12:02:05 GMT-0500 (Central Daylight Time),569473.1999999881,152_y_f_n_a.png,I,m,925,8,3,1943.5,567529.6999999881,8016,NNB,B,6
5,test,1,0.0,2-Back,1.0,m,Fri Aug 29 2025 12:02:05 GMT-0500 (Central Daylight Time),572155.6999999881,013_y_m_n_a.png,I,m,1664,9,3,2677.7999999523163,569477.9000000358,8016,NNB,B,7
6,test,1,0.0,2-Back,1.0,m,Fri Aug 29 2025 12:02:05 GMT-0500 (Central Daylight Time),574371.6000000238,110_o_f_n_a.png,I,m,1190,10,3,2211.800000011921,572159.8000000119,8016,NNB,B,8
7,test,1,1.0,2-Back,1.0,z,Fri Aug 29 2025 12:02:05 GMT-0500 (Central Daylight Time),577370.5,013_y_m_n_a.png,I,z,1981,11,3,2994.599999964237,574375.9000000358,8016,NNB,B,9
8,test,1,0.0,2-Back,1.0,m,Fri Aug 29 2025 12:02:05 GMT-0500 (Central Daylight Time),579453.3000000119,029_m_f_n_a.png,I,m,1053,12,3,2079.300000011921,577374.0,8016,NNB,B,10
9,test,1,0.0,2-Back,1.0,m,Fri Aug 29 2025 12:02:05 GMT-0500 (Central Daylight Time),582419.1000000238,029_m_f_n_a.png,I,m,1940,13,3,2962.0,579457.1000000238,8016,NNB,B,11
10,test,1,0.0,2-Back,1.0,m,Fri Aug 29 2025 12:02:05 GMT-0500 (Central Daylight Time),584518.6000000238,065_o_m_n_a.png,I,m,1078,14,3,2095.400000035763,582423.1999999881,8016,NNB,B,12
10,test,1,0.0,2-Back,0.0,m,Fri Aug 29 2025 12:02:05 GMT-0500 (Central Daylight Time),587050.6999999881,110_o_f_n_a.png,I,z,1515,15,3,2528.099999964237,584522.6000000238,8016,NNB,B,13
11,test,1,1.0,2-Back,1.0,z,Fri Aug 29 2025 12:02:05 GMT-0500 (Central Daylight Time),589367.0,065_o_m_n_a.png,I,z,1287,16,3,2312.199999988079,587054.8000000119,8016,NNB,B,14
12,test,1,0.0,2-Back,1.0,m,Fri Aug 29 2025 12:02:05 GMT-0500 (Central Daylight Time),591649.6000000238,097_m_f_n_a.png,I,m,1250,17,3,2278.199999988079,589371.4000000358,8016,NNB,B,15
13,test,1,0.0,2-Back,1.0,m,Fri Aug 29 2025 12:02:05 GMT-0500 (Central Daylight Time),594298.4000000358,178_m_m_n_a.png,I,m,1632,18,3,2645.300000011921,591653.1000000238,8016,NNB,B,16
0,test,2,0.0,2-Back,,,Fri Aug 29 2025 12:02:05 GMT-0500 (Central Daylight Time),594298.4000000358,178_m_m_n_a.png,I,space,1495,1,3,2645.300000011921,591653.1000000238,8016,NNB,B,0
0,test,2,0.0,2-Back,,,Fri Aug 29 2025 12:02:05 GMT-0500 (Central Daylight Time),594298.4000000358,173_y_f_n_a.png,I,space,1495,2,3,2645.300000011921,591653.1000000238,8016,NNB,B,0
1,test,2,1.0,2-Back,1.0,z,Fri Aug 29 2025 12:02:05 GMT-0500 (Central Daylight Time),603012.6999999881,178_m_m_n_a.png,I,z,1063,3,3,2078.199999988079,600934.5,8016,NNB,B,1
2,test,2,0.0,2-Back,1.0,m,Fri Aug 29 2025 12:02:05 GMT-0500 (Central Daylight Time),605178.4000000358,097_m_f_n_a.png,I,m,1149,4,3,2161.600000023842,603016.8000000119,8016,NNB,B,2
2,test,2,0.0,2-Back,0.0,m,Fri Aug 29 2025 12:02:05 GMT-0500 (Central Daylight Time),607361.6999999881,173_y_f_n_a.png,I,z,1167,5,3,2179.5,605182.1999999881,8016,NNB,B,3
3,test,2,0.0,2-Back,1.0,m,Fri Aug 29 2025 12:02:05 GMT-0500 (Central Daylight Time),609444.1000000238,065_o_m_n_a.png,I,m,1063,6,3,2078.0,607366.1000000238,8016,NNB,B,4
4,test,2,0.0,2-Back,1.0,m,Fri Aug 29 2025 12:02:05 GMT-0500 (Central Daylight Time),611493.3000000119,152_y_f_n_a.png,I,m,1030,7,3,2044.8999999761581,609448.4000000358,8016,NNB,B,5
5,test,2,1.0,2-Back,1.0,z,Fri Aug 29 2025 12:02:05 GMT-0500 (Central Daylight Time),613642.6000000238,065_o_m_n_a.png,I,z,1124,8,3,2144.600000023842,611498.0,8016,NNB,B,6
6,test,2,0.0,2-Back,1.0,m,Fri Aug 29 2025 12:02:05 GMT-0500 (Central Daylight Time),615825.4000000358,013_y_m_n_a.png,I,m,1136,9,3,2179.100000023842,613646.3000000119,8016,NNB,B,7
6,test,2,0.0,2-Back,0.0,m,Fri Aug 29 2025 12:02:05 GMT-0500 (Central Daylight Time),618857.8000000119,013_y_m_n_a.png,I,None,2016,10,3,3028.5,615829.3000000119,8016,NNB,B,8
7,test,2,0.0,2-Back,1.0,m,Fri Aug 29 2025 12:02:05 GMT-0500 (Central Daylight Time),621123.6000000238,029_m_f_n_a.png,I,m,1248,11,3,2261.300000011921,618862.3000000119,8016,NNB,B,9
8,test,2,0.0,2-Back,1.0,m,Fri Aug 29 2025 12:02:05 GMT-0500 (Central Daylight Time),623289.5,173_y_f_n_a.png,I,m,1141,12,3,2161.5,621128.0,8016,NNB,B,10
9,test,2,1.0,2-Back,1.0,z,Fri Aug 29 2025 12:02:05 GMT-0500 (Central Daylight Time),625189.1999999881,029_m_f_n_a.png,I,z,879,13,3,1895.0999999642372,623294.1000000238,8016,NNB,B,11
10,test,2,0.0,2-Back,1.0,m,Fri Aug 29 2025 12:02:05 GMT-0500 (Central Daylight Time),627088.3000000119,176_o_m_n_a.png,I,m,875,14,3,1894.300000011921,625194.0,8016,NNB,B,12
11,test,2,0.0,2-Back,1.0,m,Fri Aug 29 2025 12:02:05 GMT-0500 (Central Daylight Time),629137.8000000119,176_o_m_n_a.png,I,m,1025,15,3,2044.800000011921,627093.0,8016,NNB,B,13
12,test,2,0.0,2-Back,1.0,m,Fri Aug 29 2025 12:02:05 GMT-0500 (Central Daylight Time),631720.4000000358,110_o_f_n_a.png,I,m,1550,16,3,2579.100000023842,629141.3000000119,8016,NNB,B,14
13,test,2,0.0,2-Back,1.0,m,Fri Aug 29 2025 12:02:05 GMT-0500 (Central Daylight Time),633619.8000000119,126_m_m_n_a.png,I,m,881,17,3,1895.0,631724.8000000119,8016,NNB,B,15
14,test,2,1.0,2-Back,1.0,z,Fri Aug 29 2025 12:02:05 GMT-0500 (Central Daylight Time),635485.9000000358,110_o_f_n_a.png,I,z,846,18,3,1862.6000000238419,633623.3000000119,8016,NNB,B,16
0,test,3,1.0,2-Back,,,Fri Aug 29 2025 12:02:05 GMT-0500 (Central Daylight Time),635485.9000000358,153_y_m_n_a.png,I,space,1563,1,3,1862.6000000238419,633623.3000000119,8016,NNB,B,0
0,test,3,1.0,2-Back,,,Fri Aug 29 2025 12:02:05 GMT-0500 (Central Daylight Time),635485.9000000358,153_y_m_n_a.png,I,space,1563,2,3,1862.6000000238419,633623.3000000119,8016,NNB,B,0
1,test,3,0.0,2-Back,1.0,m,Fri Aug 29 2025 12:02:05 GMT-0500 (Central Daylight Time),644466.3000000119,110_o_f_n_a.png,I,m,1258,3,3,2278.5,642187.8000000119,8016,NNB,B,1
2,test,3,0.0,2-Back,1.0,m,Fri Aug 29 2025 12:02:05 GMT-0500 (Central Daylight Time),646565.9000000358,178_m_m_n_a.png,I,m,1070,4,3,2095.400000035763,644470.5,8016,NNB,B,2
3,test,3,1.0,2-Back,1.0,z,Fri Aug 29 2025 12:02:05 GMT-0500 (Central Daylight Time),648565.3000000119,110_o_f_n_a.png,I,z,972,5,3,1995.1000000238419,646570.1999999881,8016,NNB,B,3
4,test,3,0.0,2-Back,1.0,m,Fri Aug 29 2025 12:02:05 GMT-0500 (Central Daylight Time),650514.1999999881,013_y_m_n_a.png,I,m,931,6,3,1944.7999999523163,648569.4000000358,8016,NNB,B,4
4,test,3,0.0,2-Back,0.0,m,Fri Aug 29 2025 12:02:05 GMT-0500 (Central Daylight Time),652930.6999999881,178_m_m_n_a.png,I,z,1390,7,3,2412.0,650518.6999999881,8016,NNB,B,5
4,test,3,1.0,2-Back,0.0,z,Fri Aug 29 2025 12:02:05 GMT-0500 (Central Daylight Time),655330.0,013_y_m_n_a.png,I,m,1367,8,3,2394.699999988079,652935.3000000119,8016,NNB,B,6
5,test,3,0.0,2-Back,1.0,m,Fri Aug 29 2025 12:02:05 GMT-0500 (Central Daylight Time),657779.8000000119,173_y_f_n_a.png,I,m,1432,9,3,2444.800000011921,655335.0,8016,NNB,B,7
5,test,3,0.0,2-Back,0.0,m,Fri Aug 29 2025 12:02:05 GMT-0500 (Central Daylight Time),659994.6999999881,126_m_m_n_a.png,I,z,1198,10,3,2211.099999964237,657783.6000000238,8016,NNB,B,8
6,test,3,1.0,2-Back,1.0,z,Fri Aug 29 2025 12:02:05 GMT-0500 (Central Daylight Time),662427.1000000238,173_y_f_n_a.png,I,z,1415,11,3,2428.800000011921,659998.3000000119,8016,NNB,B,9
7,test,3,1.0,2-Back,1.0,z,Fri Aug 29 2025 12:02:05 GMT-0500 (Central Daylight Time),664509.9000000358,126_m_m_n_a.png,I,z,1054,12,3,2079.5,662430.4000000358,8016,NNB,B,10
8,test,3,0.0,2-Back,1.0,m,Fri Aug 29 2025 12:02:05 GMT-0500 (Central Daylight Time),666442.5,110_o_f_n_a.png,I,m,913,13,3,1928.8999999761581,664513.6000000238,8016,NNB,B,11
9,test,3,0.0,2-Back,1.0,m,Fri Aug 29 2025 12:02:05 GMT-0500 (Central Daylight Time),668475.6999999881,097_m_f_n_a.png,I,m,1006,14,3,2029.3999999761581,666446.3000000119,8016,NNB,B,12
10,test,3,0.0,2-Back,1.0,m,Fri Aug 29 2025 12:02:05 GMT-0500 (Central Daylight Time),670308.3000000119,065_o_m_n_a.png,I,m,805,15,3,1827.5,668480.8000000119,8016,NNB,B,13
11,test,3,1.0,2-Back,1.0,z,Fri Aug 29 2025 12:02:05 GMT-0500 (Central Daylight Time),672291.0,097_m_f_n_a.png,I,z,964,16,3,1979.0,670312.0,8016,NNB,B,14
12,test,3,0.0,2-Back,1.0,m,Fri Aug 29 2025 12:02:05 GMT-0500 (Central Daylight Time),674390.5,086_o_f_n_a.png,I,m,1070,17,3,2094.800000011921,672295.6999999881,8016,NNB,B,15
13,test,3,0.0,2-Back,1.0,m,Fri Aug 29 2025 12:02:05 GMT-0500 (Central Daylight Time),676456.4000000358,086_o_f_n_a.png,I,m,1042,18,3,2061.800000011921,674394.6000000238,8016,NNB,B,16
0,test,4,0.0,2-Back,,,Fri Aug 29 2025 12:02:05 GMT-0500 (Central Daylight Time),676456.4000000358,176_o_m_n_a.png,I,space,1304,1,3,2061.800000011921,674394.6000000238,8016,NNB,B,0
0,test,4,0.0,2-Back,,,Fri Aug 29 2025 12:02:05 GMT-0500 (Central Daylight Time),676456.4000000358,152_y_f_n_a.png,I,space,1304,2,3,2061.800000011921,674394.6000000238,8016,NNB,B,0
1,test,4,1.0,2-Back,1.0,z,Fri Aug 29 2025 12:02:05 GMT-0500 (Central Daylight Time),685053.8000000119,176_o_m_n_a.png,I,z,1028,3,3,2045.0,683008.8000000119,8016,NNB,B,1
1,test,4,1.0,2-Back,0.0,z,Fri Aug 29 2025 12:02:05 GMT-0500 (Central Daylight Time),686936.4000000358,152_y_f_n_a.png,I,m,851,4,3,1878.5,685057.9000000358,8016,NNB,B,2
2,test,4,0.0,2-Back,1.0,m,Fri Aug 29 2025 12:02:05 GMT-0500 (Central Daylight Time),688902.6999999881,110_o_f_n_a.png,I,m,936,5,3,1961.8999999761581,686940.8000000119,8016,NNB,B,3
2,test,4,0.0,2-Back,0.0,m,Fri Aug 29 2025 12:02:05 GMT-0500 (Central Daylight Time),691351.5,110_o_f_n_a.png,I,z,1427,6,3,2444.099999964237,688907.4000000358,8016,NNB,B,4
3,test,4,0.0,2-Back,1.0,m,Fri Aug 29 2025 12:02:05 GMT-0500 (Central Daylight Time),693368.3000000119,029_m_f_n_a.png,I,m,986,7,3,2012.699999988079,691355.6000000238,8016,NNB,B,5
4,test,4,0.0,2-Back,1.0,m,Fri Aug 29 2025 12:02:05 GMT-0500 (Central Daylight Time),695467.0,013_y_m_n_a.png,I,m,1074,8,3,2094.099999964237,693372.9000000358,8016,NNB,B,6
5,test,4,1.0,2-Back,1.0,z,Fri Aug 29 2025 12:02:05 GMT-0500 (Central Daylight Time),697116.6999999881,029_m_f_n_a.png,I,z,630,9,3,1645.0999999642372,695471.6000000238,8016,NNB,B,7
6,test,4,0.0,2-Back,1.0,m,Fri Aug 29 2025 12:02:05 GMT-0500 (Central Daylight Time),699649.1000000238,126_m_m_n_a.png,I,m,1500,10,3,2528.800000011921,697120.3000000119,8016,NNB,B,8
7,test,4,0.0,2-Back,1.0,m,Fri Aug 29 2025 12:02:05 GMT-0500 (Central Daylight Time),701648.1999999881,013_y_m_n_a.png,I,m,968,11,3,1994.7999999523163,699653.4000000358,8016,NNB,B,9
8,test,4,0.0,2-Back,1.0,m,Fri Aug 29 2025 12:02:05 GMT-0500 (Central Daylight Time),703597.6999999881,086_o_f_n_a.png,I,m,921,12,3,1945.5999999642372,701652.1000000238,8016,NNB,B,10
9,test,4,0.0,2-Back,1.0,m,Fri Aug 29 2025 12:02:05 GMT-0500 (Central Daylight Time),705413.6000000238,153_y_m_n_a.png,I,m,796,13,3,1811.1000000238419,703602.5,8016,NNB,B,11
10,test,4,1.0,2-Back,1.0,z,Fri Aug 29 2025 12:02:05 GMT-0500 (Central Daylight Time),707396.5,086_o_f_n_a.png,I,z,955,14,3,1979.5,705417.0,8016,NNB,B,12
10,test,4,1.0,2-Back,0.0,z,Fri Aug 29 2025 12:02:05 GMT-0500 (Central Daylight Time),709429.4000000358,153_y_m_n_a.png,I,m,1004,15,3,2028.5,707400.9000000358,8016,NNB,B,13
11,test,4,0.0,2-Back,1.0,m,Fri Aug 29 2025 12:02:05 GMT-0500 (Central Daylight Time),711245.6000000238,178_m_m_n_a.png,I,m,796,16,3,1812.9000000357628,709432.6999999881,8016,NNB,B,14
12,test,4,0.0,2-Back,1.0,m,Fri Aug 29 2025 12:02:05 GMT-0500 (Central Daylight Time),713094.6999999881,097_m_f_n_a.png,I,m,828,17,3,1845.3999999761581,711249.3000000119,8016,NNB,B,15
13,test,4,1.0,2-Back,1.0,z,Fri Aug 29 2025 12:02:05 GMT-0500 (Central Daylight Time),714960.8000000119,178_m_m_n_a.png,I,z,843,18,3,1862.3999999761581,713098.4000000358,8016,NNB,B,16
0,test,5,1.0,2-Back,,,Fri Aug 29 2025 12:02:05 GMT-0500 (Central Daylight Time),714960.8000000119,153_y_m_n_a.png,I,space,1481,1,3,1862.3999999761581,713098.4000000358,8016,NNB,B,0
0,test,5,1.0,2-Back,,,Fri Aug 29 2025 12:02:05 GMT-0500 (Central Daylight Time),714960.8000000119,097_m_f_n_a.png,I,space,1481,2,3,1862.3999999761581,713098.4000000358,8016,NNB,B,0
0,test,5,1.0,2-Back,0.0,z,Fri Aug 29 2025 12:02:05 GMT-0500 (Central Daylight Time),723791.5,153_y_m_n_a.png,I,m,1268,3,3,2294.699999988079,721496.8000000119,8016,NNB,B,1
1,test,5,1.0,2-Back,1.0,z,Fri Aug 29 2025 12:02:05 GMT-0500 (Central Daylight Time),725624.1999999881,097_m_f_n_a.png,I,z,810,4,3,1827.8999999761581,723796.3000000119,8016,NNB,B,2
2,test,5,0.0,2-Back,1.0,m,Fri Aug 29 2025 12:02:05 GMT-0500 (Central Daylight Time),727706.9000000358,086_o_f_n_a.png,I,m,1064,5,3,2078.2000000476837,725628.6999999881,8016,NNB,B,3
2,test,5,0.0,2-Back,0.0,m,Fri Aug 29 2025 12:02:05 GMT-0500 (Central Daylight Time),729689.6999999881,153_y_m_n_a.png,I,z,951,6,3,1978.699999988079,727711.0,8016,NNB,B,4
3,test,5,0.0,2-Back,1.0,m,Fri Aug 29 2025 12:02:05 GMT-0500 (Central Daylight Time),731639.0,173_y_f_n_a.png,I,m,920,7,3,1946.0,729693.0,8016,NNB,B,5
3,test,5,0.0,2-Back,0.0,m,Fri Aug 29 2025 12:02:05 GMT-0500 (Central Daylight Time),733838.4000000358,086_o_f_n_a.png,I,z,1170,8,3,2195.2000000476837,731643.1999999881,8016,NNB,B,6
3,test,5,1.0,2-Back,0.0,z,Fri Aug 29 2025 12:02:05 GMT-0500 (Central Daylight Time),735754.4000000358,173_y_f_n_a.png,I,m,899,9,3,1912.800000011921,733841.6000000238,8016,NNB,B,7
4,test,5,0.0,2-Back,1.0,m,Fri Aug 29 2025 12:02:05 GMT-0500 (Central Daylight Time),737586.9000000358,065_o_m_n_a.png,I,m,806,10,3,1829.1000000238419,735757.8000000119,8016,NNB,B,8
5,test,5,0.0,2-Back,1.0,m,Fri Aug 29 2025 12:02:05 GMT-0500 (Central Daylight Time),739569.9000000358,029_m_f_n_a.png,I,m,950,11,3,1978.2000000476837,737591.6999999881,8016,NNB,B,9
6,test,5,0.0,2-Back,1.0,m,Fri Aug 29 2025 12:02:05 GMT-0500 (Central Daylight Time),741435.9000000358,126_m_m_n_a.png,I,m,839,12,3,1862.1000000238419,739573.8000000119,8016,NNB,B,10
6,test,5,0.0,2-Back,0.0,m,Fri Aug 29 2025 12:02:05 GMT-0500 (Central Daylight Time),743102.1999999881,065_o_m_n_a.png,I,z,646,13,3,1660.8999999761581,741441.3000000119,8016,NNB,B,11
7,test,5,1.0,2-Back,1.0,z,Fri Aug 29 2025 12:02:05 GMT-0500 (Central Daylight Time),745251.5,126_m_m_n_a.png,I,z,1122,14,3,2144.899999976158,743106.6000000238,8016,NNB,B,12
8,test,5,0.0,2-Back,1.0,m,Fri Aug 29 2025 12:02:05 GMT-0500 (Central Daylight Time),747967.1999999881,152_y_f_n_a.png,I,m,1694,15,3,2712.399999976158,745254.8000000119,8016,NNB,B,13
9,test,5,0.0,2-Back,1.0,m,Fri Aug 29 2025 12:02:05 GMT-0500 (Central Daylight Time),749716.6999999881,176_o_m_n_a.png,I,m,730,16,3,1744.7999999523163,747971.9000000358,8016,NNB,B,14
10,test,5,0.0,2-Back,1.0,m,Fri Aug 29 2025 12:02:05 GMT-0500 (Central Daylight Time),751516.0,029_m_f_n_a.png,I,m,773,17,3,1794.5,749721.5,8016,NNB,B,15
11,test,5,1.0,2-Back,1.0,z,Fri Aug 29 2025 12:02:05 GMT-0500 (Central Daylight Time),753182.1000000238,176_o_m_n_a.png,I,z,637,18,3,1662.6000000238419,751519.5,8016,NNB,B,16
