block_c,block_dur,condition,countdown,datetime,endtime,list,multichar_response,project,response,response_time,session_number,start_end,starttime,subject_id,task,task_vers,trial
,,,,Fri May 16 2025 15:32:01 GMT-0500 (Central Daylight Time),,,,O,space,657,1,,,7153,WL,A,
prac,,0,,Fri May 16 2025 15:32:01 GMT-0500 (Central Daylight Time),,NA,b,O,b,5113,1,,,7153,WL,A,1.0
prac,,0,,Fri May 16 2025 15:32:01 GMT-0500 (Central Daylight Time),,NA,bo,O,o,137,1,,,7153,WL,A,1.0
prac,,0,,Fri May 16 2025 15:32:01 GMT-0500 (Central Daylight Time),,NA,boo,O,o,202,1,,,7153,WL,A,1.0
prac,,0,,Fri May 16 2025 15:32:01 GMT-0500 (Central Daylight Time),,NA,boos,O,s,219,1,,,7153,WL,A,1.0
prac,,0,,Fri May 16 2025 15:32:01 GMT-0500 (Central Daylight Time),,NA,boost,O,t,386,1,,,7153,WL,A,1.0
prac,,0,,Fri May 16 2025 15:32:01 GMT-0500 (Central Daylight Time),,NA,boostenter,O,enter,314,1,,,7153,WL,A,1.0
1,1.0490000247955322,learn,58950.99997520447,Fri May 16 2025 15:32:01 GMT-0500 (Central Daylight Time),126248.5,A,b,O,b,1029,1,1049.2999999523163,125199.20000004768,7153,WL,A,1.0
1,1.3619999885559082,learn,58638.00001144409,Fri May 16 2025 15:32:01 GMT-0500 (Central Daylight Time),126561.30000007153,A,bo,O,o,288,1,1362.1000000238419,125199.20000004768,7153,WL,A,1.0
1,1.5490000247955322,learn,58450.99997520447,Fri May 16 2025 15:32:01 GMT-0500 (Central Daylight Time),126748.40000009537,A,boo,O,o,178,1,1549.2000000476837,125199.20000004768,7153,WL,A,1.0
1,1.8320000171661377,learn,58167.99998283386,Fri May 16 2025 15:32:01 GMT-0500 (Central Daylight Time),127031.60000002384,A,book,O,k,264,1,1832.3999999761581,125199.20000004768,7153,WL,A,1.0
1,5.2809998989105225,learn,54719.00010108948,Fri May 16 2025 15:32:01 GMT-0500 (Central Daylight Time),130480.5,A,bookf,O,f,3437,1,5281.299999952316,125199.20000004768,7153,WL,A,1.0
1,5.414999961853027,learn,54585.00003814697,Fri May 16 2025 15:32:01 GMT-0500 (Central Daylight Time),130614.0,A,bookfl,O,l,124,1,5414.799999952316,125199.20000004768,7153,WL,A,1.0
1,5.63100004196167,learn,54368.99995803833,Fri May 16 2025 15:32:01 GMT-0500 (Central Daylight Time),130830.30000007153,A,bookflo,O,o,199,1,5631.100000023842,125199.20000004768,7153,WL,A,1.0
1,6.164000034332275,learn,53835.999965667725,Fri May 16 2025 15:32:01 GMT-0500 (Central Daylight Time),131363.30000007153,A,bookfl,O,backspace,527,1,6164.100000023842,125199.20000004768,7153,WL,A,1.0
1,6.363999843597412,learn,53636.00015640259,Fri May 16 2025 15:32:01 GMT-0500 (Central Daylight Time),131563.20000004768,A,bookf,O,backspace,194,1,6364.0,125199.20000004768,7153,WL,A,1.0
1,6.563999891281128,learn,53436.00010871887,Fri May 16 2025 15:32:01 GMT-0500 (Central Daylight Time),131763.40000009537,A,book,O,backspace,186,1,6564.200000047684,125199.20000004768,7153,WL,A,1.0
1,7.813999891281128,learn,52186.00010871887,Fri May 16 2025 15:32:01 GMT-0500 (Central Daylight Time),133013.10000002384,A,bookenter,O,enter,1241,1,7813.899999976158,125199.20000004768,7153,WL,A,1.0
1,8.414000034332275,learn,51585.999965667725,Fri May 16 2025 15:32:01 GMT-0500 (Central Daylight Time),133612.90000009537,A,f,O,f,583,1,599.2000000476837,133013.70000004768,7153,WL,A,2.0
1,8.579999923706055,learn,51420.000076293945,Fri May 16 2025 15:32:01 GMT-0500 (Central Daylight Time),133779.10000002384,A,fl,O,l,160,1,765.3999999761581,133013.70000004768,7153,WL,A,2.0
1,8.77999997138977,learn,51220.00002861023,Fri May 16 2025 15:32:01 GMT-0500 (Central Daylight Time),133979.40000009537,A,flo,O,o,185,1,965.7000000476837,133013.70000004768,7153,WL,A,2.0
1,9.562999963760376,learn,50437.000036239624,Fri May 16 2025 15:32:01 GMT-0500 (Central Daylight Time),134762.40000009537,A,flow,O,w,761,1,1748.7000000476837,133013.70000004768,7153,WL,A,2.0
1,9.712999820709229,learn,50287.00017929077,Fri May 16 2025 15:32:01 GMT-0500 (Central Daylight Time),134912.60000002384,A,flowe,O,e,138,1,1898.8999999761581,133013.70000004768,7153,WL,A,2.0
1,9.845999956130981,learn,50154.00004386902,Fri May 16 2025 15:32:01 GMT-0500 (Central Daylight Time),135045.60000002384,A,flower,O,r,117,1,2031.8999999761581,133013.70000004768,7153,WL,A,2.0
1,10.27999997138977,learn,49720.00002861023,Fri May 16 2025 15:32:01 GMT-0500 (Central Daylight Time),135479.10000002384,A,flowerenter,O,enter,415,1,2465.399999976158,133013.70000004768,7153,WL,A,2.0
1,10.94599986076355,learn,49054.00013923645,Fri May 16 2025 15:32:01 GMT-0500 (Central Daylight Time),136145.20000004768,A,a,O,a,646,1,665.7999999523163,135479.40000009537,7153,WL,A,3.0
1,11.162999868392944,learn,48837.000131607056,Fri May 16 2025 15:32:01 GMT-0500 (Central Daylight Time),136361.90000009537,A,ap,O,p,204,1,882.5,135479.40000009537,7153,WL,A,3.0
1,11.345999956130981,learn,48654.00004386902,Fri May 16 2025 15:32:01 GMT-0500 (Central Daylight Time),136545.30000007153,A,app,O,p,163,1,1065.8999999761581,135479.40000009537,7153,WL,A,3.0
1,11.595999956130981,learn,48404.00004386902,Fri May 16 2025 15:32:01 GMT-0500 (Central Daylight Time),136794.90000009537,A,appl,O,l,244,1,1315.5,135479.40000009537,7153,WL,A,3.0
1,12.029000043869019,learn,47970.99995613098,Fri May 16 2025 15:32:01 GMT-0500 (Central Daylight Time),137228.5,A,apple,O,e,426,1,1749.0999999046326,135479.40000009537,7153,WL,A,3.0
1,12.661999940872192,learn,47338.00005912781,Fri May 16 2025 15:32:01 GMT-0500 (Central Daylight Time),137861.40000009537,A,appleenter,O,enter,616,1,2382.0,135479.40000009537,7153,WL,A,3.0
1,13.345999956130981,learn,46654.00004386902,Fri May 16 2025 15:32:01 GMT-0500 (Central Daylight Time),138544.60000002384,A,r,O,r,663,1,682.7999999523163,137861.80000007153,7153,WL,A,4.0
1,13.494999885559082,learn,46505.00011444092,Fri May 16 2025 15:32:01 GMT-0500 (Central Daylight Time),138694.30000007153,A,ru,O,u,132,1,832.5,137861.80000007153,7153,WL,A,4.0
1,13.678999900817871,learn,46321.00009918213,Fri May 16 2025 15:32:01 GMT-0500 (Central Daylight Time),138878.0,A,rug,O,g,174,1,1016.1999999284744,137861.80000007153,7153,WL,A,4.0
1,13.994999885559082,learn,46005.00011444092,Fri May 16 2025 15:32:01 GMT-0500 (Central Daylight Time),139194.40000009537,A,rugenter,O,enter,303,1,1332.6000000238419,137861.80000007153,7153,WL,A,4.0
1,23.108999967575073,learn,36891.00003242493,Fri May 16 2025 15:32:01 GMT-0500 (Central Daylight Time),148308.30000007153,A,k,O,k,9106,1,9113.5,139194.80000007153,7153,WL,A,5.0
1,23.241999864578247,learn,36758.00013542175,Fri May 16 2025 15:32:01 GMT-0500 (Central Daylight Time),148441.60000002384,A,ke,O,e,112,1,9246.799999952316,139194.80000007153,7153,WL,A,5.0
1,23.408999919891357,learn,36591.00008010864,Fri May 16 2025 15:32:01 GMT-0500 (Central Daylight Time),148608.10000002384,A,key,O,y,155,1,9413.299999952316,139194.80000007153,7153,WL,A,5.0
1,23.741999864578247,learn,36258.00013542175,Fri May 16 2025 15:32:01 GMT-0500 (Central Daylight Time),148941.0,A,keyenter,O,enter,317,1,9746.199999928474,139194.80000007153,7153,WL,A,5.0
1,29.174000024795532,learn,30825.999975204468,Fri May 16 2025 15:32:01 GMT-0500 (Central Daylight Time),154373.10000002384,A,enter,O,enter,5424,1,5431.699999928474,148941.40000009537,7153,WL,A,6.0
1,35.67199993133545,learn,24328.00006866455,Fri May 16 2025 15:32:01 GMT-0500 (Central Daylight Time),160871.0,A,enter,O,enter,6479,1,6497.599999904633,154373.40000009537,7153,WL,A,7.0
1,37.020999908447266,learn,22979.000091552734,Fri May 16 2025 15:32:01 GMT-0500 (Central Daylight Time),162220.5,A,enter,O,enter,1337,1,1349.0,160871.5,7153,WL,A,8.0
1,37.57099986076355,learn,22429.00013923645,Fri May 16 2025 15:32:01 GMT-0500 (Central Daylight Time),162770.5,A,enter,O,enter,544,1,549.5999999046326,162220.90000009537,7153,WL,A,9.0
1,38.103999853134155,learn,21896.000146865845,Fri May 16 2025 15:32:01 GMT-0500 (Central Daylight Time),163303.5,A,enter,O,enter,514,1,532.7999999523163,162770.70000004768,7153,WL,A,10.0
1,38.9539999961853,learn,21046.000003814697,Fri May 16 2025 15:32:01 GMT-0500 (Central Daylight Time),164153.20000004768,A,enter,O,enter,837,1,849.2000000476837,163304.0,7153,WL,A,11.0
1,39.72099995613098,learn,20279.00004386902,Fri May 16 2025 15:32:01 GMT-0500 (Central Daylight Time),164919.70000004768,A,enter,O,enter,748,1,766.1000000238419,164153.60000002384,7153,WL,A,12.0
1,40.22000002861023,learn,19779.99997138977,Fri May 16 2025 15:32:01 GMT-0500 (Central Daylight Time),165419.20000004768,A,enter,O,enter,494,1,499.0,164920.20000004768,7153,WL,A,13.0
1,40.83699989318848,learn,19163.000106811523,Fri May 16 2025 15:32:01 GMT-0500 (Central Daylight Time),166036.20000004768,A,enter,O,enter,610,1,616.6000000238419,165419.60000002384,7153,WL,A,14.0
1,41.419999837875366,learn,18580.000162124634,Fri May 16 2025 15:32:01 GMT-0500 (Central Daylight Time),166618.80000007153,A,enter,O,enter,577,1,582.1000000238419,166036.70000004768,7153,WL,A,15.0
2,1.1340000629425049,learn,58865.999937057495,Fri May 16 2025 15:32:01 GMT-0500 (Central Daylight Time),242462.20000004768,A,r,O,r,1117,1,1132.8999999761581,241329.30000007153,7153,WL,A,1.0
2,1.3670001029968262,learn,58632.999897003174,Fri May 16 2025 15:32:01 GMT-0500 (Central Daylight Time),242695.40000009537,A,ra,O,a,215,1,1366.1000000238419,241329.30000007153,7153,WL,A,1.0
2,1.6170001029968262,learn,58382.999897003174,Fri May 16 2025 15:32:01 GMT-0500 (Central Daylight Time),242945.20000004768,A,rat,O,t,238,1,1615.8999999761581,241329.30000007153,7153,WL,A,1.0
2,1.7999999523162842,learn,58200.000047683716,Fri May 16 2025 15:32:01 GMT-0500 (Central Daylight Time),243128.60000002384,A,ratt,O,t,164,1,1799.2999999523163,241329.30000007153,7153,WL,A,1.0
2,2.2330000400543213,learn,57766.99995994568,Fri May 16 2025 15:32:01 GMT-0500 (Central Daylight Time),243561.70000004768,A,rattl,O,l,413,1,2232.399999976158,241329.30000007153,7153,WL,A,1.0
2,2.3329999446868896,learn,57667.00005531311,Fri May 16 2025 15:32:01 GMT-0500 (Central Daylight Time),243661.60000002384,A,rattle,O,e,92,1,2332.2999999523163,241329.30000007153,7153,WL,A,1.0
2,2.9589998722076416,learn,57041.00012779236,Fri May 16 2025 15:32:01 GMT-0500 (Central Daylight Time),244287.5,A,rattleenter,O,enter,621,1,2958.1999999284744,241329.30000007153,7153,WL,A,1.0
2,3.2829999923706055,learn,56717.000007629395,Fri May 16 2025 15:32:01 GMT-0500 (Central Daylight Time),244611.30000007153,A,g,O,g,318,1,323.60000002384186,244287.70000004768,7153,WL,A,2.0
2,3.5160000324249268,learn,56483.99996757507,Fri May 16 2025 15:32:01 GMT-0500 (Central Daylight Time),244844.70000004768,A,go,O,o,226,1,557.0,244287.70000004768,7153,WL,A,2.0
2,3.681999921798706,learn,56318.000078201294,Fri May 16 2025 15:32:01 GMT-0500 (Central Daylight Time),245011.0,A,gol,O,l,161,1,723.2999999523163,244287.70000004768,7153,WL,A,2.0
2,3.815999984741211,learn,56184.00001525879,Fri May 16 2025 15:32:01 GMT-0500 (Central Daylight Time),245144.5,A,gold,O,d,115,1,856.7999999523163,244287.70000004768,7153,WL,A,2.0
2,4.098999977111816,learn,55901.00002288818,Fri May 16 2025 15:32:01 GMT-0500 (Central Daylight Time),245427.80000007153,A,goldenter,O,enter,277,1,1140.1000000238419,244287.70000004768,7153,WL,A,2.0
2,6.0980000495910645,learn,53901.999950408936,Fri May 16 2025 15:32:01 GMT-0500 (Central Daylight Time),247426.90000009537,A,c,O,c,1993,1,1998.6000000238419,245428.30000007153,7153,WL,A,3.0
2,6.23199987411499,learn,53768.00012588501,Fri May 16 2025 15:32:01 GMT-0500 (Central Daylight Time),247560.30000007153,A,ch,O,h,114,1,2132.0,245428.30000007153,7153,WL,A,3.0
2,6.398000001907349,learn,53601.99999809265,Fri May 16 2025 15:32:01 GMT-0500 (Central Daylight Time),247727.0,A,chi,O,i,157,1,2298.6999999284744,245428.30000007153,7153,WL,A,3.0
2,6.515000104904175,learn,53484.999895095825,Fri May 16 2025 15:32:01 GMT-0500 (Central Daylight Time),247843.70000004768,A,chim,O,m,110,1,2415.399999976158,245428.30000007153,7153,WL,A,3.0
2,7.131999969482422,learn,52868.00003051758,Fri May 16 2025 15:32:01 GMT-0500 (Central Daylight Time),248460.40000009537,A,chimn,O,n,601,1,3032.100000023842,245428.30000007153,7153,WL,A,3.0
2,7.381999969482422,learn,52618.00003051758,Fri May 16 2025 15:32:01 GMT-0500 (Central Daylight Time),248710.20000004768,A,chimne,O,e,241,1,3281.899999976158,245428.30000007153,7153,WL,A,3.0
2,7.5320000648498535,learn,52467.99993515015,Fri May 16 2025 15:32:01 GMT-0500 (Central Daylight Time),248860.20000004768,A,chimney,O,y,135,1,3431.899999976158,245428.30000007153,7153,WL,A,3.0
2,7.8480000495910645,learn,52151.999950408936,Fri May 16 2025 15:32:01 GMT-0500 (Central Daylight Time),249176.60000002384,A,chimneyenter,O,enter,305,1,3748.2999999523163,245428.30000007153,7153,WL,A,3.0
2,9.04800009727478,learn,50951.99990272522,Fri May 16 2025 15:32:01 GMT-0500 (Central Daylight Time),250376.20000004768,A,f,O,f,1181,1,1199.2999999523163,249176.90000009537,7153,WL,A,4.0
2,9.180999994277954,learn,50819.000005722046,Fri May 16 2025 15:32:01 GMT-0500 (Central Daylight Time),250509.5,A,fi,O,i,125,1,1332.5999999046326,249176.90000009537,7153,WL,A,4.0
2,9.263999938964844,learn,50736.000061035156,Fri May 16 2025 15:32:01 GMT-0500 (Central Daylight Time),250593.0,A,fin,O,n,72,1,1416.0999999046326,249176.90000009537,7153,WL,A,4.0
2,9.398000001907349,learn,50601.99999809265,Fri May 16 2025 15:32:01 GMT-0500 (Central Daylight Time),250726.30000007153,A,fing,O,g,116,1,1549.3999999761581,249176.90000009537,7153,WL,A,4.0
2,9.581000089645386,learn,50418.999910354614,Fri May 16 2025 15:32:01 GMT-0500 (Central Daylight Time),250909.40000009537,A,finge,O,e,175,1,1732.5,249176.90000009537,7153,WL,A,4.0
2,9.648000001907349,learn,50351.99999809265,Fri May 16 2025 15:32:01 GMT-0500 (Central Daylight Time),250976.60000002384,A,finger,O,r,48,1,1799.6999999284744,249176.90000009537,7153,WL,A,4.0
2,10.164000034332275,learn,49835.999965667725,Fri May 16 2025 15:32:01 GMT-0500 (Central Daylight Time),251492.60000002384,A,fingerenter,O,enter,500,1,2315.6999999284744,249176.90000009537,7153,WL,A,4.0
2,10.69700002670288,learn,49302.99997329712,Fri May 16 2025 15:32:01 GMT-0500 (Central Daylight Time),252025.60000002384,A,k,O,k,512,1,532.6000000238419,251493.0,7153,WL,A,5.0
2,10.79699993133545,learn,49203.00006866455,Fri May 16 2025 15:32:01 GMT-0500 (Central Daylight Time),252125.80000007153,A,ke,O,e,84,1,632.8000000715256,251493.0,7153,WL,A,5.0
2,10.930000066757202,learn,49069.9999332428,Fri May 16 2025 15:32:01 GMT-0500 (Central Daylight Time),252258.70000004768,A,key,O,y,127,1,765.7000000476837,251493.0,7153,WL,A,5.0
2,11.246999979019165,learn,48753.000020980835,Fri May 16 2025 15:32:01 GMT-0500 (Central Daylight Time),252575.60000002384,A,keyenter,O,enter,299,1,1082.6000000238419,251493.0,7153,WL,A,5.0
2,11.763000011444092,learn,48236.99998855591,Fri May 16 2025 15:32:01 GMT-0500 (Central Daylight Time),253092.0,A,a,O,a,510,1,516.0999999046326,252575.90000009537,7153,WL,A,6.0
2,11.94700002670288,learn,48052.99997329712,Fri May 16 2025 15:32:01 GMT-0500 (Central Daylight Time),253275.10000002384,A,ap,O,p,177,1,699.1999999284744,252575.90000009537,7153,WL,A,6.0
2,12.096999883651733,learn,47903.00011634827,Fri May 16 2025 15:32:01 GMT-0500 (Central Daylight Time),253425.30000007153,A,app,O,p,138,1,849.3999999761581,252575.90000009537,7153,WL,A,6.0
2,12.27999997138977,learn,47720.00002861023,Fri May 16 2025 15:32:01 GMT-0500 (Central Daylight Time),253608.40000009537,A,appl,O,l,164,1,1032.5,252575.90000009537,7153,WL,A,6.0
2,12.345999956130981,learn,47654.00004386902,Fri May 16 2025 15:32:01 GMT-0500 (Central Daylight Time),253675.0,A,apple,O,e,60,1,1099.0999999046326,252575.90000009537,7153,WL,A,6.0
2,12.562999963760376,learn,47437.000036239624,Fri May 16 2025 15:32:01 GMT-0500 (Central Daylight Time),253891.90000009537,A,appleenter,O,enter,211,1,1316.0,252575.90000009537,7153,WL,A,6.0
2,14.279000043869019,learn,45720.99995613098,Fri May 16 2025 15:32:01 GMT-0500 (Central Daylight Time),255607.90000009537,A,b,O,b,1706,1,1715.6000000238419,253892.30000007153,7153,WL,A,7.0
2,14.479000091552734,learn,45520.999908447266,Fri May 16 2025 15:32:01 GMT-0500 (Central Daylight Time),255807.90000009537,A,bo,O,o,189,1,1915.6000000238419,253892.30000007153,7153,WL,A,7.0
2,14.661999940872192,learn,45338.00005912781,Fri May 16 2025 15:32:01 GMT-0500 (Central Daylight Time),255990.90000009537,A,boo,O,o,165,1,2098.600000023842,253892.30000007153,7153,WL,A,7.0
2,14.828999996185303,learn,45171.0000038147,Fri May 16 2025 15:32:01 GMT-0500 (Central Daylight Time),256157.60000002384,A,book,O,k,158,1,2265.2999999523163,253892.30000007153,7153,WL,A,7.0
2,15.211999893188477,learn,44788.00010681152,Fri May 16 2025 15:32:01 GMT-0500 (Central Daylight Time),256541.0,A,bookenter,O,enter,376,1,2648.6999999284744,253892.30000007153,7153,WL,A,7.0
2,15.529000043869019,learn,44470.99995613098,Fri May 16 2025 15:32:01 GMT-0500 (Central Daylight Time),256857.5,A,r,O,r,296,1,316.1999999284744,256541.30000007153,7153,WL,A,8.0
2,15.696000099182129,learn,44303.99990081787,Fri May 16 2025 15:32:01 GMT-0500 (Central Daylight Time),257024.70000004768,A,ru,O,u,148,1,483.39999997615814,256541.30000007153,7153,WL,A,8.0
2,15.84500002861023,learn,44154.99997138977,Fri May 16 2025 15:32:01 GMT-0500 (Central Daylight Time),257174.0,A,rug,O,g,140,1,632.6999999284744,256541.30000007153,7153,WL,A,8.0
2,16.09599995613098,learn,43904.00004386902,Fri May 16 2025 15:32:01 GMT-0500 (Central Daylight Time),257424.10000002384,A,rugenter,O,enter,240,1,882.7999999523163,256541.30000007153,7153,WL,A,8.0
2,17.977999925613403,learn,42022.0000743866,Fri May 16 2025 15:32:01 GMT-0500 (Central Daylight Time),259306.5,A,t,O,t,1877,1,1882.0,257424.5,7153,WL,A,9.0
2,18.161999940872192,learn,41838.00005912781,Fri May 16 2025 15:32:01 GMT-0500 (Central Daylight Time),259490.10000002384,A,tr,O,r,163,1,2065.600000023842,257424.5,7153,WL,A,9.0
2,18.34500002861023,learn,41654.99997138977,Fri May 16 2025 15:32:01 GMT-0500 (Central Daylight Time),259673.20000004768,A,tra,O,a,163,1,2248.7000000476837,257424.5,7153,WL,A,9.0
2,18.41100001335144,learn,41588.99998664856,Fri May 16 2025 15:32:01 GMT-0500 (Central Daylight Time),259740.10000002384,A,trai,O,i,52,1,2315.600000023842,257424.5,7153,WL,A,9.0
2,18.494999885559082,learn,41505.00011444092,Fri May 16 2025 15:32:01 GMT-0500 (Central Daylight Time),259823.30000007153,A,train,O,n,74,1,2398.8000000715256,257424.5,7153,WL,A,9.0
2,18.795000076293945,learn,41204.999923706055,Fri May 16 2025 15:32:01 GMT-0500 (Central Daylight Time),260123.20000004768,A,trainenter,O,enter,286,1,2698.7000000476837,257424.5,7153,WL,A,9.0
2,20.877000093460083,learn,39122.99990653992,Fri May 16 2025 15:32:01 GMT-0500 (Central Daylight Time),262205.8000000715,A,f,O,f,2066,1,2082.3000000715256,260123.5,7153,WL,A,10.0
2,20.97699999809265,learn,39023.00000190735,Fri May 16 2025 15:32:01 GMT-0500 (Central Daylight Time),262305.7000000477,A,fl,O,l,87,1,2182.2000000476837,260123.5,7153,WL,A,10.0
2,21.16100001335144,learn,38838.99998664856,Fri May 16 2025 15:32:01 GMT-0500 (Central Daylight Time),262489.2000000477,A,flo,O,o,164,1,2365.7000000476837,260123.5,7153,WL,A,10.0
2,21.22699999809265,learn,38773.00000190735,Fri May 16 2025 15:32:01 GMT-0500 (Central Daylight Time),262555.60000002384,A,flow,O,w,60,1,2432.100000023842,260123.5,7153,WL,A,10.0
2,21.344000101089478,learn,38655.99989891052,Fri May 16 2025 15:32:01 GMT-0500 (Central Daylight Time),262672.3000000715,A,flowe,O,e,106,1,2548.8000000715256,260123.5,7153,WL,A,10.0
2,21.460000038146973,learn,38539.99996185303,Fri May 16 2025 15:32:01 GMT-0500 (Central Daylight Time),262789.0,A,flower,O,r,101,1,2665.5,260123.5,7153,WL,A,10.0
2,21.710999965667725,learn,38289.000034332275,Fri May 16 2025 15:32:01 GMT-0500 (Central Daylight Time),263039.10000002384,A,flowerenter,O,enter,232,1,2915.600000023842,260123.5,7153,WL,A,10.0
2,31.657000064849854,learn,28342.999935150146,Fri May 16 2025 15:32:01 GMT-0500 (Central Daylight Time),272986.0,A,enter,O,enter,9926,1,9946.5,263039.5,7153,WL,A,11.0
2,32.15700006484985,learn,27842.999935150146,Fri May 16 2025 15:32:01 GMT-0500 (Central Daylight Time),273485.40000009537,A,enter,O,enter,483,1,498.90000009536743,272986.5,7153,WL,A,12.0
2,32.573999881744385,learn,27426.000118255615,Fri May 16 2025 15:32:01 GMT-0500 (Central Daylight Time),273902.2000000477,A,enter,O,enter,400,1,416.5,273485.7000000477,7153,WL,A,13.0
2,32.94000005722046,learn,27059.99994277954,Fri May 16 2025 15:32:01 GMT-0500 (Central Daylight Time),274268.7000000477,A,enter,O,enter,351,1,366.0,273902.7000000477,7153,WL,A,14.0
2,33.473000049591064,learn,26526.999950408936,Fri May 16 2025 15:32:01 GMT-0500 (Central Daylight Time),274801.90000009537,A,enter,O,enter,521,1,532.8000000715256,274269.10000002384,7153,WL,A,15.0
3,2.7980000972747803,learn,57201.99990272522,Fri May 16 2025 15:32:01 GMT-0500 (Central Daylight Time),344513.3000000715,A,m,O,m,2787,1,2798.600000023842,341714.7000000477,7153,WL,A,1.0
3,2.8990001678466797,learn,57100.99983215332,Fri May 16 2025 15:32:01 GMT-0500 (Central Daylight Time),344613.3000000715,A,me,O,e,83,1,2898.600000023842,341714.7000000477,7153,WL,A,1.0
3,3.0820000171661377,learn,56917.99998283386,Fri May 16 2025 15:32:01 GMT-0500 (Central Daylight Time),344796.60000002384,A,mea,O,a,176,1,3081.899999976158,341714.7000000477,7153,WL,A,1.0
3,3.249000072479248,learn,56750.99992752075,Fri May 16 2025 15:32:01 GMT-0500 (Central Daylight Time),344963.40000009537,A,mead,O,d,152,1,3248.7000000476837,341714.7000000477,7153,WL,A,1.0
3,3.5320000648498535,learn,56467.99993515015,Fri May 16 2025 15:32:01 GMT-0500 (Central Daylight Time),345246.3000000715,A,meado,O,o,266,1,3531.600000023842,341714.7000000477,7153,WL,A,1.0
3,3.697999954223633,learn,56302.00004577637,Fri May 16 2025 15:32:01 GMT-0500 (Central Daylight Time),345413.0,A,meadow,O,w,151,1,3698.2999999523163,341714.7000000477,7153,WL,A,1.0
3,4.3480000495910645,learn,55651.999950408936,Fri May 16 2025 15:32:01 GMT-0500 (Central Daylight Time),346063.10000002384,A,meadowenter,O,enter,633,1,4348.399999976158,341714.7000000477,7153,WL,A,1.0
3,6.081000089645386,learn,53918.999910354614,Fri May 16 2025 15:32:01 GMT-0500 (Central Daylight Time),347795.7000000477,A,r,O,r,1726,1,1732.3999999761581,346063.3000000715,7153,WL,A,2.0
3,6.29800009727478,learn,53701.99990272522,Fri May 16 2025 15:32:01 GMT-0500 (Central Daylight Time),348012.40000009537,A,ra,O,a,202,1,1949.1000000238419,346063.3000000715,7153,WL,A,2.0
3,6.531000137329102,learn,53468.9998626709,Fri May 16 2025 15:32:01 GMT-0500 (Central Daylight Time),348245.5,A,rat,O,t,216,1,2182.1999999284744,346063.3000000715,7153,WL,A,2.0
3,6.697000026702881,learn,53302.99997329712,Fri May 16 2025 15:32:01 GMT-0500 (Central Daylight Time),348412.2000000477,A,ratt,O,t,160,1,2348.899999976158,346063.3000000715,7153,WL,A,2.0
3,6.96399998664856,learn,53036.00001335144,Fri May 16 2025 15:32:01 GMT-0500 (Central Daylight Time),348678.8000000715,A,rattl,O,l,249,1,2615.5,346063.3000000715,7153,WL,A,2.0
3,7.065999984741211,learn,52934.00001525879,Fri May 16 2025 15:32:01 GMT-0500 (Central Daylight Time),348780.40000009537,A,rattle,O,e,87,1,2717.100000023842,346063.3000000715,7153,WL,A,2.0
3,7.297000169754028,learn,52702.99983024597,Fri May 16 2025 15:32:01 GMT-0500 (Central Daylight Time),349012.0,A,rattleenter,O,enter,224,1,2948.6999999284744,346063.3000000715,7153,WL,A,2.0
3,7.5970001220703125,learn,52402.99987792969,Fri May 16 2025 15:32:01 GMT-0500 (Central Daylight Time),349312.10000002384,A,g,O,g,290,1,299.7999999523163,349012.3000000715,7153,WL,A,3.0
3,7.680000066757202,learn,52319.9999332428,Fri May 16 2025 15:32:01 GMT-0500 (Central Daylight Time),349395.10000002384,A,go,O,o,77,1,382.7999999523163,349012.3000000715,7153,WL,A,3.0
3,7.864000082015991,learn,52135.99991798401,Fri May 16 2025 15:32:01 GMT-0500 (Central Daylight Time),349578.3000000715,A,gol,O,l,178,1,566.0,349012.3000000715,7153,WL,A,3.0
3,7.996999979019165,learn,52003.000020980835,Fri May 16 2025 15:32:01 GMT-0500 (Central Daylight Time),349711.8000000715,A,gold,O,d,115,1,699.5,349012.3000000715,7153,WL,A,3.0
3,8.314000129699707,learn,51685.99987030029,Fri May 16 2025 15:32:01 GMT-0500 (Central Daylight Time),350028.5,A,goldenter,O,enter,302,1,1016.1999999284744,349012.3000000715,7153,WL,A,3.0
3,8.797000169754028,learn,51202.99983024597,Fri May 16 2025 15:32:01 GMT-0500 (Central Daylight Time),350511.40000009537,A,k,O,k,465,1,482.60000002384186,350028.8000000715,7153,WL,A,4.0
3,8.86300015449524,learn,51136.99984550476,Fri May 16 2025 15:32:01 GMT-0500 (Central Daylight Time),350578.10000002384,A,ke,O,e,46,1,549.2999999523163,350028.8000000715,7153,WL,A,4.0
3,9.446000099182129,learn,50553.99990081787,Fri May 16 2025 15:32:01 GMT-0500 (Central Daylight Time),351161.2000000477,A,key,O,y,571,1,1132.3999999761581,350028.8000000715,7153,WL,A,4.0
3,9.812999963760376,learn,50187.000036239624,Fri May 16 2025 15:32:01 GMT-0500 (Central Daylight Time),351527.7000000477,A,keyenter,O,enter,356,1,1498.8999999761581,350028.8000000715,7153,WL,A,4.0
3,11.479000091552734,learn,48520.999908447266,Fri May 16 2025 15:32:01 GMT-0500 (Central Daylight Time),353194.10000002384,A,b,O,b,1646,1,1666.0,351528.10000002384,7153,WL,A,5.0
3,11.595999956130981,learn,48404.00004386902,Fri May 16 2025 15:32:01 GMT-0500 (Central Daylight Time),353310.5,A,bu,O,u,107,1,1782.3999999761581,351528.10000002384,7153,WL,A,5.0
3,11.763000011444092,learn,48236.99998855591,Fri May 16 2025 15:32:01 GMT-0500 (Central Daylight Time),353477.3000000715,A,but,O,t,159,1,1949.2000000476837,351528.10000002384,7153,WL,A,5.0
3,11.946000099182129,learn,48053.99990081787,Fri May 16 2025 15:32:01 GMT-0500 (Central Daylight Time),353660.3000000715,A,butt,O,t,168,1,2132.2000000476837,351528.10000002384,7153,WL,A,5.0
3,12.129000186920166,learn,47870.999813079834,Fri May 16 2025 15:32:01 GMT-0500 (Central Daylight Time),353843.7000000477,A,butto,O,o,169,1,2315.600000023842,351528.10000002384,7153,WL,A,5.0
3,12.213000059127808,learn,47786.99994087219,Fri May 16 2025 15:32:01 GMT-0500 (Central Daylight Time),353927.2000000477,A,button,O,n,74,1,2399.100000023842,351528.10000002384,7153,WL,A,5.0
3,12.545000076293945,learn,47454.999923706055,Fri May 16 2025 15:32:01 GMT-0500 (Central Daylight Time),354260.2000000477,A,buttonenter,O,enter,318,1,2732.100000023842,351528.10000002384,7153,WL,A,5.0
3,13.312000036239624,learn,46687.999963760376,Fri May 16 2025 15:32:01 GMT-0500 (Central Daylight Time),355026.60000002384,A,c,O,c,745,1,766.1000000238419,354260.5,7153,WL,A,6.0
3,13.394999980926514,learn,46605.000019073486,Fri May 16 2025 15:32:01 GMT-0500 (Central Daylight Time),355110.3000000715,A,ch,O,h,74,1,849.8000000715256,354260.5,7153,WL,A,6.0
3,14.144999980926514,learn,45855.000019073486,Fri May 16 2025 15:32:01 GMT-0500 (Central Daylight Time),355859.60000002384,A,chi,O,i,743,1,1599.1000000238419,354260.5,7153,WL,A,6.0
3,14.295000076293945,learn,45704.999923706055,Fri May 16 2025 15:32:01 GMT-0500 (Central Daylight Time),356009.90000009537,A,chim,O,m,130,1,1749.4000000953674,354260.5,7153,WL,A,6.0
3,15.128000020980835,learn,44871.999979019165,Fri May 16 2025 15:32:01 GMT-0500 (Central Daylight Time),356842.7000000477,A,chimn,O,n,827,1,2582.2000000476837,354260.5,7153,WL,A,6.0
3,15.278000116348267,learn,44721.99988365173,Fri May 16 2025 15:32:01 GMT-0500 (Central Daylight Time),356992.7000000477,A,chimne,O,e,139,1,2732.2000000476837,354260.5,7153,WL,A,6.0
3,15.41100001335144,learn,44588.99998664856,Fri May 16 2025 15:32:01 GMT-0500 (Central Daylight Time),357126.10000002384,A,chimney,O,y,117,1,2865.600000023842,354260.5,7153,WL,A,6.0
3,16.094000101089478,learn,43905.99989891052,Fri May 16 2025 15:32:01 GMT-0500 (Central Daylight Time),357809.10000002384,A,chimneyenter,O,enter,663,1,3548.600000023842,354260.5,7153,WL,A,6.0
3,16.460999965667725,learn,43539.000034332275,Fri May 16 2025 15:32:01 GMT-0500 (Central Daylight Time),358175.90000009537,A,b,O,b,356,1,366.5,357809.40000009537,7153,WL,A,7.0
3,16.677000045776367,learn,43322.99995422363,Fri May 16 2025 15:32:01 GMT-0500 (Central Daylight Time),358392.3000000715,A,bo,O,o,198,1,582.8999999761581,357809.40000009537,7153,WL,A,7.0
3,16.861000061035156,learn,43138.999938964844,Fri May 16 2025 15:32:01 GMT-0500 (Central Daylight Time),358575.5,A,boo,O,o,173,1,766.0999999046326,357809.40000009537,7153,WL,A,7.0
3,17.094000101089478,learn,42905.99989891052,Fri May 16 2025 15:32:01 GMT-0500 (Central Daylight Time),358809.0,A,book,O,k,214,1,999.5999999046326,357809.40000009537,7153,WL,A,7.0
3,17.39400005340576,learn,42605.99994659424,Fri May 16 2025 15:32:01 GMT-0500 (Central Daylight Time),359108.90000009537,A,bookenter,O,enter,292,1,1299.5,357809.40000009537,7153,WL,A,7.0
3,18.093000173568726,learn,41906.999826431274,Fri May 16 2025 15:32:01 GMT-0500 (Central Daylight Time),359808.3000000715,A,f,O,f,681,1,699.1000000238419,359109.2000000477,7153,WL,A,8.0
3,18.210000038146973,learn,41789.99996185303,Fri May 16 2025 15:32:01 GMT-0500 (Central Daylight Time),359925.10000002384,A,fl,O,l,109,1,815.8999999761581,359109.2000000477,7153,WL,A,8.0
3,18.39400005340576,learn,41605.99994659424,Fri May 16 2025 15:32:01 GMT-0500 (Central Daylight Time),360108.7000000477,A,flo,O,o,176,1,999.5,359109.2000000477,7153,WL,A,8.0
3,18.527000188827515,learn,41472.999811172485,Fri May 16 2025 15:32:01 GMT-0500 (Central Daylight Time),360242.0,A,flow,O,w,113,1,1132.7999999523163,359109.2000000477,7153,WL,A,8.0
3,18.64400005340576,learn,41355.99994659424,Fri May 16 2025 15:32:01 GMT-0500 (Central Daylight Time),360358.5,A,flowe,O,e,108,1,1249.2999999523163,359109.2000000477,7153,WL,A,8.0
3,18.74399995803833,learn,41256.00004196167,Fri May 16 2025 15:32:01 GMT-0500 (Central Daylight Time),360458.60000002384,A,flower,O,r,79,1,1349.3999999761581,359109.2000000477,7153,WL,A,8.0
3,19.06000018119812,learn,40939.99981880188,Fri May 16 2025 15:32:01 GMT-0500 (Central Daylight Time),360775.0,A,flowerenter,O,enter,307,1,1665.7999999523163,359109.2000000477,7153,WL,A,8.0
3,21.176000118255615,learn,38823.999881744385,Fri May 16 2025 15:32:01 GMT-0500 (Central Daylight Time),362890.8000000715,A,t,O,t,2110,1,2115.399999976158,360775.40000009537,7153,WL,A,9.0
3,21.37600016593933,learn,38623.99983406067,Fri May 16 2025 15:32:01 GMT-0500 (Central Daylight Time),363090.90000009537,A,tr,O,r,187,1,2315.5,360775.40000009537,7153,WL,A,9.0
3,21.542999982833862,learn,38457.00001716614,Fri May 16 2025 15:32:01 GMT-0500 (Central Daylight Time),363257.5,A,tra,O,a,155,1,2482.0999999046326,360775.40000009537,7153,WL,A,9.0
3,21.676000118255615,learn,38323.999881744385,Fri May 16 2025 15:32:01 GMT-0500 (Central Daylight Time),363390.8000000715,A,trai,O,i,124,1,2615.399999976158,360775.40000009537,7153,WL,A,9.0
3,21.759999990463257,learn,38240.00000953674,Fri May 16 2025 15:32:01 GMT-0500 (Central Daylight Time),363474.5,A,train,O,n,70,1,2699.0999999046326,360775.40000009537,7153,WL,A,9.0
3,22.343000173568726,learn,37656.999826431274,Fri May 16 2025 15:32:01 GMT-0500 (Central Daylight Time),364057.60000002384,A,trainenter,O,enter,563,1,3282.1999999284744,360775.40000009537,7153,WL,A,9.0
3,23.092000007629395,learn,36907.999992370605,Fri May 16 2025 15:32:01 GMT-0500 (Central Daylight Time),364807.2000000477,A,a,O,a,740,1,749.2999999523163,364057.90000009537,7153,WL,A,10.0
3,23.259000062942505,learn,36740.999937057495,Fri May 16 2025 15:32:01 GMT-0500 (Central Daylight Time),364973.5,A,ap,O,p,150,1,915.5999999046326,364057.90000009537,7153,WL,A,10.0
3,23.409000158309937,learn,36590.99984169006,Fri May 16 2025 15:32:01 GMT-0500 (Central Daylight Time),365123.60000002384,A,app,O,p,144,1,1065.6999999284744,364057.90000009537,7153,WL,A,10.0
3,23.60800004005432,learn,36391.99995994568,Fri May 16 2025 15:32:01 GMT-0500 (Central Daylight Time),365323.3000000715,A,appl,O,l,194,1,1265.3999999761581,364057.90000009537,7153,WL,A,10.0
3,23.79200005531311,learn,36207.99994468689,Fri May 16 2025 15:32:01 GMT-0500 (Central Daylight Time),365506.90000009537,A,apple,O,e,171,1,1449.0,364057.90000009537,7153,WL,A,10.0
3,24.009000062942505,learn,35990.999937057495,Fri May 16 2025 15:32:01 GMT-0500 (Central Daylight Time),365724.40000009537,A,appleenter,O,enter,211,1,1666.5,364057.90000009537,7153,WL,A,10.0
3,24.70800018310547,learn,35291.99981689453,Fri May 16 2025 15:32:01 GMT-0500 (Central Daylight Time),366423.10000002384,A,f,O,f,689,1,698.2999999523163,365724.8000000715,7153,WL,A,11.0
3,24.808000087738037,learn,35191.99991226196,Fri May 16 2025 15:32:01 GMT-0500 (Central Daylight Time),366522.90000009537,A,fi,O,i,94,1,798.1000000238419,365724.8000000715,7153,WL,A,11.0
3,24.891000032424927,learn,35108.99996757507,Fri May 16 2025 15:32:01 GMT-0500 (Central Daylight Time),366606.5,A,fin,O,n,75,1,881.6999999284744,365724.8000000715,7153,WL,A,11.0
3,25.058000087738037,learn,34941.99991226196,Fri May 16 2025 15:32:01 GMT-0500 (Central Daylight Time),366773.10000002384,A,fine,O,e,151,1,1048.2999999523163,365724.8000000715,7153,WL,A,11.0
3,25.125,learn,34875.0,Fri May 16 2025 15:32:01 GMT-0500 (Central Daylight Time),366839.8000000715,A,finer,O,r,56,1,1115.0,365724.8000000715,7153,WL,A,11.0
3,25.80900001525879,learn,34190.99998474121,Fri May 16 2025 15:32:01 GMT-0500 (Central Daylight Time),367523.90000009537,A,fine,O,backspace,678,1,1799.1000000238419,365724.8000000715,7153,WL,A,11.0
3,26.02400016784668,learn,33975.99983215332,Fri May 16 2025 15:32:01 GMT-0500 (Central Daylight Time),367739.5,A,fin,O,backspace,201,1,2014.6999999284744,365724.8000000715,7153,WL,A,11.0
3,26.157999992370605,learn,33842.000007629395,Fri May 16 2025 15:32:01 GMT-0500 (Central Daylight Time),367872.8000000715,A,fing,O,g,122,1,2148.0,365724.8000000715,7153,WL,A,11.0
3,26.35800004005432,learn,33641.99995994568,Fri May 16 2025 15:32:01 GMT-0500 (Central Daylight Time),368072.8000000715,A,finge,O,e,189,1,2348.0,365724.8000000715,7153,WL,A,11.0
3,26.424000024795532,learn,33575.99997520447,Fri May 16 2025 15:32:01 GMT-0500 (Central Daylight Time),368139.10000002384,A,finger,O,r,61,1,2414.2999999523163,365724.8000000715,7153,WL,A,11.0
3,27.10700011253357,learn,32892.99988746643,Fri May 16 2025 15:32:01 GMT-0500 (Central Daylight Time),368822.40000009537,A,fingerenter,O,enter,667,1,3097.600000023842,365724.8000000715,7153,WL,A,11.0
3,36.521000146865845,learn,23478.999853134155,Fri May 16 2025 15:32:01 GMT-0500 (Central Daylight Time),378236.0,A,r,O,r,9407,1,9413.299999952316,368822.7000000477,7153,WL,A,12.0
3,36.9210000038147,learn,23078.999996185303,Fri May 16 2025 15:32:01 GMT-0500 (Central Daylight Time),378636.2000000477,A,ru,O,u,393,1,9813.5,368822.7000000477,7153,WL,A,12.0
3,37.0550000667572,learn,22944.999933242798,Fri May 16 2025 15:32:01 GMT-0500 (Central Daylight Time),378769.5,A,rug,O,g,121,1,9946.799999952316,368822.7000000477,7153,WL,A,12.0
3,37.32100009918213,learn,22678.99990081787,Fri May 16 2025 15:32:01 GMT-0500 (Central Daylight Time),379036.0,A,rugenter,O,enter,252,1,10213.299999952316,368822.7000000477,7153,WL,A,12.0
3,41.503000020980835,learn,18496.999979019165,Fri May 16 2025 15:32:01 GMT-0500 (Central Daylight Time),383217.8000000715,A,k,O,k,4170,1,4181.5,379036.3000000715,7153,WL,A,13.0
3,41.57000017166138,learn,18429.999828338623,Fri May 16 2025 15:32:01 GMT-0500 (Central Daylight Time),383284.5,A,ke,O,e,60,1,4248.199999928474,379036.3000000715,7153,WL,A,13.0
3,41.736000061035156,learn,18263.999938964844,Fri May 16 2025 15:32:01 GMT-0500 (Central Daylight Time),383451.10000002384,A,key,O,y,153,1,4414.799999952316,379036.3000000715,7153,WL,A,13.0
3,42.16900014877319,learn,17830.999851226807,Fri May 16 2025 15:32:01 GMT-0500 (Central Daylight Time),383884.5,A,keyenter,O,enter,419,1,4848.199999928474,379036.3000000715,7153,WL,A,13.0
3,50.467000007629395,learn,9532.999992370605,Fri May 16 2025 15:32:01 GMT-0500 (Central Daylight Time),392181.7000000477,A,enter,O,enter,8281,1,8296.899999976158,383884.8000000715,7153,WL,A,14.0
3,51.23399996757507,learn,8766.000032424927,Fri May 16 2025 15:32:01 GMT-0500 (Central Daylight Time),392948.5,A,enter,O,enter,759,1,766.2999999523163,392182.2000000477,7153,WL,A,15.0
4,0.432999849319458,learn,59567.00015068054,Fri May 16 2025 15:32:01 GMT-0500 (Central Daylight Time),460860.3000000715,A,b,O,b,427,1,433.10000002384186,460427.2000000477,7153,WL,A,1.0
4,0.5989999771118164,learn,59401.00002288818,Fri May 16 2025 15:32:01 GMT-0500 (Central Daylight Time),461026.60000002384,A,bu,O,u,161,1,599.3999999761581,460427.2000000477,7153,WL,A,1.0
4,0.8159999847412109,learn,59184.00001525879,Fri May 16 2025 15:32:01 GMT-0500 (Central Daylight Time),461243.60000002384,A,but,O,t,203,1,816.3999999761581,460427.2000000477,7153,WL,A,1.0
4,0.9830000400543213,learn,59016.99995994568,Fri May 16 2025 15:32:01 GMT-0500 (Central Daylight Time),461410.3000000715,A,butt,O,t,162,1,983.1000000238419,460427.2000000477,7153,WL,A,1.0
4,1.1329998970031738,learn,58867.000102996826,Fri May 16 2025 15:32:01 GMT-0500 (Central Daylight Time),461560.2000000477,A,butto,O,o,139,1,1133.0,460427.2000000477,7153,WL,A,1.0
4,1.2170000076293945,learn,58782.999992370605,Fri May 16 2025 15:32:01 GMT-0500 (Central Daylight Time),461644.40000009537,A,button,O,n,76,1,1217.2000000476837,460427.2000000477,7153,WL,A,1.0
4,1.498999834060669,learn,58501.00016593933,Fri May 16 2025 15:32:01 GMT-0500 (Central Daylight Time),461926.40000009537,A,buttonenter,O,enter,265,1,1499.2000000476837,460427.2000000477,7153,WL,A,1.0
4,1.748999834060669,learn,58251.00016593933,Fri May 16 2025 15:32:01 GMT-0500 (Central Daylight Time),462176.60000002384,A,l,O,l,231,1,249.79999995231628,461926.8000000715,7153,WL,A,2.0
4,1.932999849319458,learn,58067.00015068054,Fri May 16 2025 15:32:01 GMT-0500 (Central Daylight Time),462359.90000009537,A,lo,O,o,173,1,433.10000002384186,461926.8000000715,7153,WL,A,2.0
4,2.065999984741211,learn,57934.00001525879,Fri May 16 2025 15:32:01 GMT-0500 (Central Daylight Time),462493.10000002384,A,log,O,g,125,1,566.2999999523163,461926.8000000715,7153,WL,A,2.0
4,2.6659998893737793,learn,57334.00011062622,Fri May 16 2025 15:32:01 GMT-0500 (Central Daylight Time),463093.40000009537,A,logenter,O,enter,584,1,1166.6000000238419,461926.8000000715,7153,WL,A,2.0
4,3.0829999446868896,learn,56917.00005531311,Fri May 16 2025 15:32:01 GMT-0500 (Central Daylight Time),463509.7000000477,A,k,O,k,400,1,416.0,463093.7000000477,7153,WL,A,3.0
4,3.1989998817443848,learn,56801.000118255615,Fri May 16 2025 15:32:01 GMT-0500 (Central Daylight Time),463626.2000000477,A,ke,O,e,104,1,532.5,463093.7000000477,7153,WL,A,3.0
4,3.365000009536743,learn,56634.99999046326,Fri May 16 2025 15:32:01 GMT-0500 (Central Daylight Time),463792.5,A,key,O,y,155,1,698.7999999523163,463093.7000000477,7153,WL,A,3.0
4,4.031999826431274,learn,55968.000173568726,Fri May 16 2025 15:32:01 GMT-0500 (Central Daylight Time),464458.90000009537,A,keyenter,O,enter,653,1,1365.2000000476837,463093.7000000477,7153,WL,A,3.0
4,4.631999969482422,learn,55368.00003051758,Fri May 16 2025 15:32:01 GMT-0500 (Central Daylight Time),465059.3000000715,A,r,O,r,587,1,600.2000000476837,464459.10000002384,7153,WL,A,4.0
4,4.8480000495910645,learn,55151.999950408936,Fri May 16 2025 15:32:01 GMT-0500 (Central Daylight Time),465275.60000002384,A,ra,O,a,202,1,816.5,464459.10000002384,7153,WL,A,4.0
4,5.065000057220459,learn,54934.99994277954,Fri May 16 2025 15:32:01 GMT-0500 (Central Daylight Time),465492.0,A,rat,O,t,210,1,1032.8999999761581,464459.10000002384,7153,WL,A,4.0
4,5.230999946594238,learn,54769.00005340576,Fri May 16 2025 15:32:01 GMT-0500 (Central Daylight Time),465658.60000002384,A,ratt,O,t,162,1,1199.5,464459.10000002384,7153,WL,A,4.0
4,5.513999938964844,learn,54486.000061035156,Fri May 16 2025 15:32:01 GMT-0500 (Central Daylight Time),465941.60000002384,A,rattl,O,l,275,1,1482.5,464459.10000002384,7153,WL,A,4.0
4,5.63100004196167,learn,54368.99995803833,Fri May 16 2025 15:32:01 GMT-0500 (Central Daylight Time),466058.2000000477,A,rattle,O,e,102,1,1599.1000000238419,464459.10000002384,7153,WL,A,4.0
4,5.830999851226807,learn,54169.00014877319,Fri May 16 2025 15:32:01 GMT-0500 (Central Daylight Time),466258.2000000477,A,rattleenter,O,enter,195,1,1799.1000000238419,464459.10000002384,7153,WL,A,4.0
4,6.113999843597412,learn,53886.00015640259,Fri May 16 2025 15:32:01 GMT-0500 (Central Daylight Time),466541.40000009537,A,g,O,g,267,1,283.0,466258.40000009537,7153,WL,A,5.0
4,6.230999946594238,learn,53769.00005340576,Fri May 16 2025 15:32:01 GMT-0500 (Central Daylight Time),466658.10000002384,A,go,O,o,96,1,399.6999999284744,466258.40000009537,7153,WL,A,5.0
4,6.414000034332275,learn,53585.999965667725,Fri May 16 2025 15:32:01 GMT-0500 (Central Daylight Time),466841.3000000715,A,gol,O,l,171,1,582.8999999761581,466258.40000009537,7153,WL,A,5.0
4,6.697999954223633,learn,53302.00004577637,Fri May 16 2025 15:32:01 GMT-0500 (Central Daylight Time),467125.10000002384,A,gold,O,d,276,1,866.6999999284744,466258.40000009537,7153,WL,A,5.0
4,7.113999843597412,learn,52886.00015640259,Fri May 16 2025 15:32:01 GMT-0500 (Central Daylight Time),467540.90000009537,A,goldenter,O,enter,400,1,1282.5,466258.40000009537,7153,WL,A,5.0
4,8.21399998664856,learn,51786.00001335144,Fri May 16 2025 15:32:01 GMT-0500 (Central Daylight Time),468640.8000000715,A,b,O,b,1081,1,1099.6000000238419,467541.2000000477,7153,WL,A,6.0
4,8.396999835968018,learn,51603.00016403198,Fri May 16 2025 15:32:01 GMT-0500 (Central Daylight Time),468824.0,A,bo,O,o,164,1,1282.7999999523163,467541.2000000477,7153,WL,A,6.0
4,8.579999923706055,learn,51420.000076293945,Fri May 16 2025 15:32:01 GMT-0500 (Central Daylight Time),469007.2000000477,A,boo,O,o,164,1,1466.0,467541.2000000477,7153,WL,A,6.0
4,8.746999979019165,learn,51253.000020980835,Fri May 16 2025 15:32:01 GMT-0500 (Central Daylight Time),469173.90000009537,A,book,O,k,150,1,1632.7000000476837,467541.2000000477,7153,WL,A,6.0
4,9.02999997138977,learn,50970.00002861023,Fri May 16 2025 15:32:01 GMT-0500 (Central Daylight Time),469457.2000000477,A,bookenter,O,enter,263,1,1916.0,467541.2000000477,7153,WL,A,6.0
4,11.11299991607666,learn,48887.00008392334,Fri May 16 2025 15:32:01 GMT-0500 (Central Daylight Time),471539.7000000477,A,f,O,f,2076,1,2082.2000000476837,469457.5,7153,WL,A,7.0
4,11.212999820709229,learn,48787.00017929077,Fri May 16 2025 15:32:01 GMT-0500 (Central Daylight Time),471639.90000009537,A,fl,O,l,81,1,2182.4000000953674,469457.5,7153,WL,A,7.0
4,11.412999868392944,learn,48587.000131607056,Fri May 16 2025 15:32:01 GMT-0500 (Central Daylight Time),471839.60000002384,A,flo,O,o,188,1,2382.100000023842,469457.5,7153,WL,A,7.0
4,11.562000036239624,learn,48437.999963760376,Fri May 16 2025 15:32:01 GMT-0500 (Central Daylight Time),471989.60000002384,A,flow,O,w,133,1,2532.100000023842,469457.5,7153,WL,A,7.0
4,11.645999908447266,learn,48354.000091552734,Fri May 16 2025 15:32:01 GMT-0500 (Central Daylight Time),472072.90000009537,A,flowe,O,e,71,1,2615.4000000953674,469457.5,7153,WL,A,7.0
4,12.078999996185303,learn,47921.0000038147,Fri May 16 2025 15:32:01 GMT-0500 (Central Daylight Time),472506.2000000477,A,flower,O,r,420,1,3048.7000000476837,469457.5,7153,WL,A,7.0
4,12.51199984550476,learn,47488.00015449524,Fri May 16 2025 15:32:01 GMT-0500 (Central Daylight Time),472939.3000000715,A,flowerenter,O,enter,418,1,3481.8000000715256,469457.5,7153,WL,A,7.0
4,13.34500002861023,learn,46654.99997138977,Fri May 16 2025 15:32:01 GMT-0500 (Central Daylight Time),473772.5,A,t,O,t,826,1,832.8999999761581,472939.60000002384,7153,WL,A,8.0
4,13.544999837875366,learn,46455.000162124634,Fri May 16 2025 15:32:01 GMT-0500 (Central Daylight Time),473972.40000009537,A,tr,O,r,184,1,1032.8000000715256,472939.60000002384,7153,WL,A,8.0
4,13.711999893188477,learn,46288.00010681152,Fri May 16 2025 15:32:01 GMT-0500 (Central Daylight Time),474139.0,A,tra,O,a,160,1,1199.3999999761581,472939.60000002384,7153,WL,A,8.0
4,13.84500002861023,learn,46154.99997138977,Fri May 16 2025 15:32:01 GMT-0500 (Central Daylight Time),474272.40000009537,A,trai,O,i,123,1,1332.8000000715256,472939.60000002384,7153,WL,A,8.0
4,13.911999940872192,learn,46088.00005912781,Fri May 16 2025 15:32:01 GMT-0500 (Central Daylight Time),474338.8000000715,A,train,O,n,61,1,1399.2000000476837,472939.60000002384,7153,WL,A,8.0
4,14.327999830245972,learn,45672.00016975403,Fri May 16 2025 15:32:01 GMT-0500 (Central Daylight Time),474755.40000009537,A,trainenter,O,enter,411,1,1815.8000000715256,472939.60000002384,7153,WL,A,8.0
4,14.711999893188477,learn,45288.00010681152,Fri May 16 2025 15:32:01 GMT-0500 (Central Daylight Time),475138.7000000477,A,m,O,m,370,1,383.0,474755.7000000477,7153,WL,A,9.0
4,14.812000036239624,learn,45187.999963760376,Fri May 16 2025 15:32:01 GMT-0500 (Central Daylight Time),475238.60000002384,A,me,O,e,89,1,482.89999997615814,474755.7000000477,7153,WL,A,9.0
4,14.994999885559082,learn,45005.00011444092,Fri May 16 2025 15:32:01 GMT-0500 (Central Daylight Time),475421.90000009537,A,mea,O,a,166,1,666.2000000476837,474755.7000000477,7153,WL,A,9.0
4,15.17799997329712,learn,44822.00002670288,Fri May 16 2025 15:32:01 GMT-0500 (Central Daylight Time),475605.2000000477,A,mead,O,d,174,1,849.5,474755.7000000477,7153,WL,A,9.0
4,15.494999885559082,learn,44505.00011444092,Fri May 16 2025 15:32:01 GMT-0500 (Central Daylight Time),475921.8000000715,A,meado,O,o,304,1,1166.1000000238419,474755.7000000477,7153,WL,A,9.0
4,15.59500002861023,learn,44404.99997138977,Fri May 16 2025 15:32:01 GMT-0500 (Central Daylight Time),476021.90000009537,A,meadow,O,w,83,1,1266.2000000476837,474755.7000000477,7153,WL,A,9.0
4,15.91100001335144,learn,44088.99998664856,Fri May 16 2025 15:32:01 GMT-0500 (Central Daylight Time),476338.40000009537,A,meadowenter,O,enter,304,1,1582.7000000476837,474755.7000000477,7153,WL,A,9.0
4,16.360999822616577,learn,43639.00017738342,Fri May 16 2025 15:32:01 GMT-0500 (Central Daylight Time),476788.3000000715,A,r,O,r,443,1,449.60000002384186,476338.7000000477,7153,WL,A,10.0
4,16.543999910354614,learn,43456.000089645386,Fri May 16 2025 15:32:01 GMT-0500 (Central Daylight Time),476971.5,A,ru,O,u,176,1,632.7999999523163,476338.7000000477,7153,WL,A,10.0
4,16.876999855041504,learn,43123.000144958496,Fri May 16 2025 15:32:01 GMT-0500 (Central Daylight Time),477304.7000000477,A,rug,O,g,313,1,966.0,476338.7000000477,7153,WL,A,10.0
4,17.210000038146973,learn,42789.99996185303,Fri May 16 2025 15:32:01 GMT-0500 (Central Daylight Time),477637.90000009537,A,rugenter,O,enter,317,1,1299.2000000476837,476338.7000000477,7153,WL,A,10.0
4,18.14299988746643,learn,41857.00011253357,Fri May 16 2025 15:32:01 GMT-0500 (Central Daylight Time),478570.90000009537,A,s,O,s,920,1,932.7000000476837,477638.2000000477,7153,WL,A,11.0
4,18.342999935150146,learn,41657.00006484985,Fri May 16 2025 15:32:01 GMT-0500 (Central Daylight Time),478770.8000000715,A,sa,O,a,193,1,1132.6000000238419,477638.2000000477,7153,WL,A,11.0
4,18.526999950408936,learn,41473.000049591064,Fri May 16 2025 15:32:01 GMT-0500 (Central Daylight Time),478954.5,A,sal,O,l,170,1,1316.2999999523163,477638.2000000477,7153,WL,A,11.0
4,18.776000022888184,learn,41223.99997711182,Fri May 16 2025 15:32:01 GMT-0500 (Central Daylight Time),479204.10000002384,A,salt,O,t,235,1,1565.8999999761581,477638.2000000477,7153,WL,A,11.0
4,19.323999881744385,learn,40676.000118255615,Fri May 16 2025 15:32:01 GMT-0500 (Central Daylight Time),479751.3000000715,A,saltenter,O,enter,542,1,2113.100000023842,477638.2000000477,7153,WL,A,11.0
4,21.991999864578247,learn,38008.00013542175,Fri May 16 2025 15:32:01 GMT-0500 (Central Daylight Time),482419.7000000477,A,f,O,f,2654,1,2668.2000000476837,479751.5,7153,WL,A,12.0
4,22.158999919891357,learn,37841.00008010864,Fri May 16 2025 15:32:01 GMT-0500 (Central Daylight Time),482586.3000000715,A,fi,O,i,152,1,2834.8000000715256,479751.5,7153,WL,A,12.0
4,22.241999864578247,learn,37758.00013542175,Fri May 16 2025 15:32:01 GMT-0500 (Central Daylight Time),482669.7000000477,A,fin,O,n,66,1,2918.2000000476837,479751.5,7153,WL,A,12.0
4,22.424999952316284,learn,37575.000047683716,Fri May 16 2025 15:32:01 GMT-0500 (Central Daylight Time),482852.90000009537,A,fing,O,g,167,1,3101.4000000953674,479751.5,7153,WL,A,12.0
4,22.60800004005432,learn,37391.99995994568,Fri May 16 2025 15:32:01 GMT-0500 (Central Daylight Time),483036.2000000477,A,finge,O,e,168,1,3284.7000000476837,479751.5,7153,WL,A,12.0
4,22.691999912261963,learn,37308.00008773804,Fri May 16 2025 15:32:01 GMT-0500 (Central Daylight Time),483119.5,A,finger,O,r,65,1,3368.0,479751.5,7153,WL,A,12.0
4,23.54200005531311,learn,36457.99994468689,Fri May 16 2025 15:32:01 GMT-0500 (Central Daylight Time),483969.2000000477,A,fingerenter,O,enter,830,1,4217.700000047684,479751.5,7153,WL,A,12.0
4,29.85599994659424,learn,30144.00005340576,Fri May 16 2025 15:32:01 GMT-0500 (Central Daylight Time),490283.90000009537,A,a,O,a,6308,1,6314.400000095367,483969.5,7153,WL,A,13.0
4,30.072999954223633,learn,29927.000045776367,Fri May 16 2025 15:32:01 GMT-0500 (Central Daylight Time),490500.7000000477,A,ap,O,p,201,1,6531.200000047684,483969.5,7153,WL,A,13.0
4,30.490000009536743,learn,29509.999990463257,Fri May 16 2025 15:32:01 GMT-0500 (Central Daylight Time),490917.2000000477,A,app,O,p,401,1,6947.700000047684,483969.5,7153,WL,A,13.0
4,30.705999851226807,learn,29294.000148773193,Fri May 16 2025 15:32:01 GMT-0500 (Central Daylight Time),491133.60000002384,A,appl,O,l,200,1,7164.100000023842,483969.5,7153,WL,A,13.0
4,30.83899998664856,learn,29161.00001335144,Fri May 16 2025 15:32:01 GMT-0500 (Central Daylight Time),491267.0,A,apple,O,e,120,1,7297.5,483969.5,7153,WL,A,13.0
4,31.055999994277954,learn,28944.000005722046,Fri May 16 2025 15:32:01 GMT-0500 (Central Daylight Time),491483.8000000715,A,appleenter,O,enter,203,1,7514.300000071526,483969.5,7153,WL,A,13.0
4,35.50499987602234,learn,24495.00012397766,Fri May 16 2025 15:32:01 GMT-0500 (Central Daylight Time),495932.3000000715,A,h,O,h,4442,1,4448.300000071526,491484.0,7153,WL,A,14.0
4,36.12100005149841,learn,23878.999948501587,Fri May 16 2025 15:32:01 GMT-0500 (Central Daylight Time),496548.7000000477,A,ha,O,a,609,1,5064.700000047684,491484.0,7153,WL,A,14.0
4,36.287999868392944,learn,23712.000131607056,Fri May 16 2025 15:32:01 GMT-0500 (Central Daylight Time),496715.2000000477,A,har,O,r,161,1,5231.200000047684,491484.0,7153,WL,A,14.0
4,36.7039999961853,learn,23296.000003814697,Fri May 16 2025 15:32:01 GMT-0500 (Central Daylight Time),497131.8000000715,A,harp,O,p,402,1,5647.800000071526,491484.0,7153,WL,A,14.0
4,37.00399994850159,learn,22996.000051498413,Fri May 16 2025 15:32:01 GMT-0500 (Central Daylight Time),497431.8000000715,A,harpenter,O,enter,282,1,5947.800000071526,491484.0,7153,WL,A,14.0
4,40.88599991798401,learn,19114.00008201599,Fri May 16 2025 15:32:01 GMT-0500 (Central Daylight Time),501313.7000000477,A,enter,O,enter,3862,1,3881.600000023842,497432.10000002384,7153,WL,A,15.0
5,0.4330000877380371,learn,60000.0,Fri May 16 2025 15:32:01 GMT-0500 (Central Daylight Time),566993.7000000477,A,b,O,b,421,1,432.89999997615814,566560.8000000715,7153,WL,A,1.0
5,0.5829999446868896,learn,60000.0,Fri May 16 2025 15:32:01 GMT-0500 (Central Daylight Time),567143.9000000954,A,bu,O,u,139,1,583.1000000238419,566560.8000000715,7153,WL,A,1.0
5,0.7990000247955322,learn,60000.0,Fri May 16 2025 15:32:01 GMT-0500 (Central Daylight Time),567360.2000000477,A,but,O,t,197,1,799.3999999761581,566560.8000000715,7153,WL,A,1.0
5,0.9489998817443848,learn,60000.0,Fri May 16 2025 15:32:01 GMT-0500 (Central Daylight Time),567510.4000000954,A,butt,O,t,133,1,949.6000000238419,566560.8000000715,7153,WL,A,1.0
5,1.1329998970031738,learn,60000.0,Fri May 16 2025 15:32:01 GMT-0500 (Central Daylight Time),567693.6000000238,A,butto,O,o,175,1,1132.7999999523163,566560.8000000715,7153,WL,A,1.0
5,1.2339999675750732,learn,60000.0,Fri May 16 2025 15:32:01 GMT-0500 (Central Daylight Time),567794.5,A,button,O,n,87,1,1233.6999999284744,566560.8000000715,7153,WL,A,1.0
5,1.5490000247955322,learn,60000.0,Fri May 16 2025 15:32:01 GMT-0500 (Central Daylight Time),568110.2000000477,A,buttonenter,O,enter,299,1,1549.3999999761581,566560.8000000715,7153,WL,A,1.0
5,1.8489999771118164,learn,60000.0,Fri May 16 2025 15:32:01 GMT-0500 (Central Daylight Time),568409.9000000954,A,l,O,l,279,1,299.2000000476837,568110.7000000477,7153,WL,A,2.0
5,2.2149999141693115,learn,60000.0,Fri May 16 2025 15:32:01 GMT-0500 (Central Daylight Time),568776.3000000715,A,lo,O,o,355,1,665.6000000238419,568110.7000000477,7153,WL,A,2.0
5,2.381999969482422,learn,60000.0,Fri May 16 2025 15:32:01 GMT-0500 (Central Daylight Time),568943.3000000715,A,log,O,g,149,1,832.6000000238419,568110.7000000477,7153,WL,A,2.0
5,2.631999969482422,learn,60000.0,Fri May 16 2025 15:32:01 GMT-0500 (Central Daylight Time),569192.9000000954,A,logenter,O,enter,229,1,1082.2000000476837,568110.7000000477,7153,WL,A,2.0
5,3.0,learn,60000.0,Fri May 16 2025 15:32:01 GMT-0500 (Central Daylight Time),569560.6000000238,A,k,O,k,349,1,367.39999997615814,569193.2000000477,7153,WL,A,3.0
5,3.0980000495910645,learn,60000.0,Fri May 16 2025 15:32:01 GMT-0500 (Central Daylight Time),569659.3000000715,A,ke,O,e,93,1,466.10000002384186,569193.2000000477,7153,WL,A,3.0
5,3.297999858856201,learn,60000.0,Fri May 16 2025 15:32:01 GMT-0500 (Central Daylight Time),569859.2000000477,A,key,O,y,194,1,666.0,569193.2000000477,7153,WL,A,3.0
5,3.7319998741149902,learn,60000.0,Fri May 16 2025 15:32:01 GMT-0500 (Central Daylight Time),570292.7000000477,A,keyenter,O,enter,418,1,1099.5,569193.2000000477,7153,WL,A,3.0
5,4.080999851226807,learn,60000.0,Fri May 16 2025 15:32:01 GMT-0500 (Central Daylight Time),570642.3000000715,A,r,O,r,345,1,349.3000000715256,570293.0,7153,WL,A,4.0
5,4.330999851226807,learn,60000.0,Fri May 16 2025 15:32:01 GMT-0500 (Central Daylight Time),570892.4000000954,A,ra,O,a,243,1,599.4000000953674,570293.0,7153,WL,A,4.0
5,4.582000017166138,learn,60000.0,Fri May 16 2025 15:32:01 GMT-0500 (Central Daylight Time),571142.4000000954,A,rat,O,t,233,1,849.4000000953674,570293.0,7153,WL,A,4.0
5,4.730999946594238,learn,60000.0,Fri May 16 2025 15:32:01 GMT-0500 (Central Daylight Time),571292.3000000715,A,ratt,O,t,144,1,999.3000000715256,570293.0,7153,WL,A,4.0
5,4.914999961853027,learn,60000.0,Fri May 16 2025 15:32:01 GMT-0500 (Central Daylight Time),571475.6000000238,A,rattl,O,l,169,1,1182.6000000238419,570293.0,7153,WL,A,4.0
5,5.014999866485596,learn,60000.0,Fri May 16 2025 15:32:01 GMT-0500 (Central Daylight Time),571575.6000000238,A,rattle,O,e,82,1,1282.6000000238419,570293.0,7153,WL,A,4.0
5,5.2149999141693115,learn,60000.0,Fri May 16 2025 15:32:01 GMT-0500 (Central Daylight Time),571775.5,A,rattleenter,O,enter,182,1,1482.5,570293.0,7153,WL,A,4.0
5,5.697999954223633,learn,60000.0,Fri May 16 2025 15:32:01 GMT-0500 (Central Daylight Time),572258.8000000715,A,g,O,g,462,1,483.0,571775.8000000715,7153,WL,A,5.0
5,5.8480000495910645,learn,60000.0,Fri May 16 2025 15:32:01 GMT-0500 (Central Daylight Time),572408.4000000954,A,go,O,o,131,1,632.6000000238419,571775.8000000715,7153,WL,A,5.0
5,6.013999938964844,learn,60000.0,Fri May 16 2025 15:32:01 GMT-0500 (Central Daylight Time),572575.2000000477,A,gol,O,l,157,1,799.3999999761581,571775.8000000715,7153,WL,A,5.0
5,6.13100004196167,learn,60000.0,Fri May 16 2025 15:32:01 GMT-0500 (Central Daylight Time),572691.9000000954,A,gold,O,d,103,1,916.1000000238419,571775.8000000715,7153,WL,A,5.0
5,6.330999851226807,learn,60000.0,Fri May 16 2025 15:32:01 GMT-0500 (Central Daylight Time),572891.9000000954,A,goldenter,O,enter,194,1,1116.1000000238419,571775.8000000715,7153,WL,A,5.0
5,8.04699993133545,learn,60000.0,Fri May 16 2025 15:32:01 GMT-0500 (Central Daylight Time),574608.0,A,b,O,b,1698,1,1715.7999999523163,572892.2000000477,7153,WL,A,6.0
5,8.230000019073486,learn,60000.0,Fri May 16 2025 15:32:01 GMT-0500 (Central Daylight Time),574791.2000000477,A,bo,O,o,173,1,1899.0,572892.2000000477,7153,WL,A,6.0
5,8.414000034332275,learn,60000.0,Fri May 16 2025 15:32:01 GMT-0500 (Central Daylight Time),574974.5,A,boo,O,o,166,1,2082.2999999523163,572892.2000000477,7153,WL,A,6.0
5,8.563999891281128,learn,60000.0,Fri May 16 2025 15:32:01 GMT-0500 (Central Daylight Time),575124.6000000238,A,book,O,k,143,1,2232.399999976158,572892.2000000477,7153,WL,A,6.0
5,8.879999876022339,learn,60000.0,Fri May 16 2025 15:32:01 GMT-0500 (Central Daylight Time),575441.0,A,bookenter,O,enter,305,1,2548.7999999523163,572892.2000000477,7153,WL,A,6.0
5,9.263000011444092,learn,60000.0,Fri May 16 2025 15:32:01 GMT-0500 (Central Daylight Time),575824.2000000477,A,f,O,f,373,1,382.89999997615814,575441.3000000715,7153,WL,A,7.0
5,9.379999876022339,learn,60000.0,Fri May 16 2025 15:32:01 GMT-0500 (Central Daylight Time),575940.9000000954,A,fl,O,l,101,1,499.60000002384186,575441.3000000715,7153,WL,A,7.0
5,9.579999923706055,learn,60000.0,Fri May 16 2025 15:32:01 GMT-0500 (Central Daylight Time),576140.7000000477,A,flo,O,o,185,1,699.3999999761581,575441.3000000715,7153,WL,A,7.0
5,9.730000019073486,learn,60000.0,Fri May 16 2025 15:32:01 GMT-0500 (Central Daylight Time),576290.6000000238,A,flow,O,w,145,1,849.2999999523163,575441.3000000715,7153,WL,A,7.0
5,9.846999883651733,learn,60000.0,Fri May 16 2025 15:32:01 GMT-0500 (Central Daylight Time),576407.5,A,flowe,O,e,107,1,966.1999999284744,575441.3000000715,7153,WL,A,7.0
5,9.94599986076355,learn,60000.0,Fri May 16 2025 15:32:01 GMT-0500 (Central Daylight Time),576507.3000000715,A,flower,O,r,86,1,1066.0,575441.3000000715,7153,WL,A,7.0
5,10.230000019073486,learn,60000.0,Fri May 16 2025 15:32:01 GMT-0500 (Central Daylight Time),576790.5,A,flowerenter,O,enter,274,1,1349.1999999284744,575441.3000000715,7153,WL,A,7.0
5,12.345999956130981,learn,60000.0,Fri May 16 2025 15:32:01 GMT-0500 (Central Daylight Time),578906.7000000477,A,t,O,t,2096,1,2115.899999976158,576790.8000000715,7153,WL,A,8.0
5,12.546000003814697,learn,60000.0,Fri May 16 2025 15:32:01 GMT-0500 (Central Daylight Time),579106.5,A,tr,O,r,186,1,2315.6999999284744,576790.8000000715,7153,WL,A,8.0
5,12.728999853134155,learn,60000.0,Fri May 16 2025 15:32:01 GMT-0500 (Central Daylight Time),579289.9000000954,A,tra,O,a,163,1,2499.100000023842,576790.8000000715,7153,WL,A,8.0
5,12.828999996185303,learn,60000.0,Fri May 16 2025 15:32:01 GMT-0500 (Central Daylight Time),579389.9000000954,A,trai,O,i,91,1,2599.100000023842,576790.8000000715,7153,WL,A,8.0
5,12.911999940872192,learn,60000.0,Fri May 16 2025 15:32:01 GMT-0500 (Central Daylight Time),579473.1000000238,A,train,O,n,72,1,2682.2999999523163,576790.8000000715,7153,WL,A,8.0
5,13.19599986076355,learn,60000.0,Fri May 16 2025 15:32:01 GMT-0500 (Central Daylight Time),579756.6000000238,A,trainenter,O,enter,268,1,2965.7999999523163,576790.8000000715,7153,WL,A,8.0
5,13.529000043869019,learn,60000.0,Fri May 16 2025 15:32:01 GMT-0500 (Central Daylight Time),580089.4000000954,A,r,O,r,313,1,332.5,579756.9000000954,7153,WL,A,9.0
5,13.678999900817871,learn,60000.0,Fri May 16 2025 15:32:01 GMT-0500 (Central Daylight Time),580239.6000000238,A,ru,O,u,140,1,482.6999999284744,579756.9000000954,7153,WL,A,9.0
5,13.861999988555908,learn,60000.0,Fri May 16 2025 15:32:01 GMT-0500 (Central Daylight Time),580423.0,A,rug,O,g,174,1,666.0999999046326,579756.9000000954,7153,WL,A,9.0
5,14.194999933242798,learn,60000.0,Fri May 16 2025 15:32:01 GMT-0500 (Central Daylight Time),580755.9000000954,A,rugenter,O,enter,319,1,999.0,579756.9000000954,7153,WL,A,9.0
5,14.494999885559082,learn,60000.0,Fri May 16 2025 15:32:01 GMT-0500 (Central Daylight Time),581055.9000000954,A,m,O,m,290,1,299.60000002384186,580756.3000000715,7153,WL,A,10.0
5,14.59500002861023,learn,60000.0,Fri May 16 2025 15:32:01 GMT-0500 (Central Daylight Time),581155.9000000954,A,me,O,e,86,1,399.60000002384186,580756.3000000715,7153,WL,A,10.0
5,14.744999885559082,learn,60000.0,Fri May 16 2025 15:32:01 GMT-0500 (Central Daylight Time),581306.0,A,mea,O,a,138,1,549.6999999284744,580756.3000000715,7153,WL,A,10.0
5,14.878000020980835,learn,60000.0,Fri May 16 2025 15:32:01 GMT-0500 (Central Daylight Time),581439.2000000477,A,mead,O,d,124,1,682.8999999761581,580756.3000000715,7153,WL,A,10.0
5,15.07800006866455,learn,60000.0,Fri May 16 2025 15:32:01 GMT-0500 (Central Daylight Time),581639.1000000238,A,meado,O,o,190,1,882.7999999523163,580756.3000000715,7153,WL,A,10.0
5,15.210999965667725,learn,60000.0,Fri May 16 2025 15:32:01 GMT-0500 (Central Daylight Time),581772.2000000477,A,meadow,O,w,126,1,1015.8999999761581,580756.3000000715,7153,WL,A,10.0
5,15.628000020980835,learn,60000.0,Fri May 16 2025 15:32:01 GMT-0500 (Central Daylight Time),582188.9000000954,A,meadowenter,O,enter,401,1,1432.6000000238419,580756.3000000715,7153,WL,A,10.0
5,17.26099991798401,learn,60000.0,Fri May 16 2025 15:32:01 GMT-0500 (Central Daylight Time),583821.7000000477,A,h,O,h,1624,1,1632.5,582189.2000000477,7153,WL,A,11.0
5,17.361000061035156,learn,60000.0,Fri May 16 2025 15:32:01 GMT-0500 (Central Daylight Time),583921.7000000477,A,ha,O,a,79,1,1732.5,582189.2000000477,7153,WL,A,11.0
5,17.51099991798401,learn,60000.0,Fri May 16 2025 15:32:01 GMT-0500 (Central Daylight Time),584071.7000000477,A,har,O,r,140,1,1882.5,582189.2000000477,7153,WL,A,11.0
5,17.810999870300293,learn,60000.0,Fri May 16 2025 15:32:01 GMT-0500 (Central Daylight Time),584371.5,A,harp,O,p,286,1,2182.2999999523163,582189.2000000477,7153,WL,A,11.0
5,18.126999855041504,learn,60000.0,Fri May 16 2025 15:32:01 GMT-0500 (Central Daylight Time),584688.2000000477,A,harpenter,O,enter,298,1,2499.0,582189.2000000477,7153,WL,A,11.0
5,18.376999855041504,learn,60000.0,Fri May 16 2025 15:32:01 GMT-0500 (Central Daylight Time),584938.0,A,a,O,a,229,1,249.39999997615814,584688.6000000238,7153,WL,A,12.0
5,18.57699990272522,learn,60000.0,Fri May 16 2025 15:32:01 GMT-0500 (Central Daylight Time),585137.9000000954,A,al,O,l,179,1,449.3000000715256,584688.6000000238,7153,WL,A,12.0
5,18.91000008583069,learn,60000.0,Fri May 16 2025 15:32:01 GMT-0500 (Central Daylight Time),585471.2000000477,A,a,O,backspace,324,1,782.6000000238419,584688.6000000238,7153,WL,A,12.0
5,19.07699990272522,learn,60000.0,Fri May 16 2025 15:32:01 GMT-0500 (Central Daylight Time),585637.9000000954,A,,O,backspace,158,1,949.3000000715256,584688.6000000238,7153,WL,A,12.0
5,19.194000005722046,learn,60000.0,Fri May 16 2025 15:32:01 GMT-0500 (Central Daylight Time),585754.5,A,s,O,s,112,1,1065.8999999761581,584688.6000000238,7153,WL,A,12.0
5,19.376999855041504,learn,60000.0,Fri May 16 2025 15:32:01 GMT-0500 (Central Daylight Time),585937.8000000715,A,sa,O,a,171,1,1249.2000000476837,584688.6000000238,7153,WL,A,12.0
5,19.460000038146973,learn,60000.0,Fri May 16 2025 15:32:01 GMT-0500 (Central Daylight Time),586021.0,A,sal,O,l,76,1,1332.3999999761581,584688.6000000238,7153,WL,A,12.0
5,19.710000038146973,learn,60000.0,Fri May 16 2025 15:32:01 GMT-0500 (Central Daylight Time),586271.1000000238,A,salt,O,t,240,1,1582.5,584688.6000000238,7153,WL,A,12.0
5,19.927000045776367,learn,60000.0,Fri May 16 2025 15:32:01 GMT-0500 (Central Daylight Time),586487.5,A,saltenter,O,enter,206,1,1798.8999999761581,584688.6000000238,7153,WL,A,12.0
5,21.210000038146973,learn,60000.0,Fri May 16 2025 15:32:01 GMT-0500 (Central Daylight Time),587770.4000000954,A,f,O,f,1270,1,1282.7000000476837,586487.7000000477,7153,WL,A,13.0
5,21.342999935150146,learn,60000.0,Fri May 16 2025 15:32:01 GMT-0500 (Central Daylight Time),587903.6000000238,A,fi,O,i,123,1,1415.8999999761581,586487.7000000477,7153,WL,A,13.0
5,21.425999879837036,learn,60000.0,Fri May 16 2025 15:32:01 GMT-0500 (Central Daylight Time),587986.9000000954,A,fin,O,n,78,1,1499.2000000476837,586487.7000000477,7153,WL,A,13.0
5,21.776000022888184,learn,60000.0,Fri May 16 2025 15:32:01 GMT-0500 (Central Daylight Time),588337.3000000715,A,fine,O,e,339,1,1849.6000000238419,586487.7000000477,7153,WL,A,13.0
5,21.858999967575073,learn,60000.0,Fri May 16 2025 15:32:01 GMT-0500 (Central Daylight Time),588420.3000000715,A,finer,O,r,68,1,1932.6000000238419,586487.7000000477,7153,WL,A,13.0
5,22.259000062942505,learn,60000.0,Fri May 16 2025 15:32:01 GMT-0500 (Central Daylight Time),588820.3000000715,A,fine,O,backspace,385,1,2332.600000023842,586487.7000000477,7153,WL,A,13.0
5,22.425999879837036,learn,60000.0,Fri May 16 2025 15:32:01 GMT-0500 (Central Daylight Time),588986.7000000477,A,fin,O,backspace,153,1,2499.0,586487.7000000477,7153,WL,A,13.0
5,22.4760000705719,learn,60000.0,Fri May 16 2025 15:32:01 GMT-0500 (Central Daylight Time),589036.6000000238,A,fing,O,g,35,1,2548.899999976158,586487.7000000477,7153,WL,A,13.0
5,22.675999879837036,learn,60000.0,Fri May 16 2025 15:32:01 GMT-0500 (Central Daylight Time),589236.5,A,finge,O,e,185,1,2748.7999999523163,586487.7000000477,7153,WL,A,13.0
5,22.743000030517578,learn,60000.0,Fri May 16 2025 15:32:01 GMT-0500 (Central Daylight Time),589303.5,A,finger,O,r,49,1,2815.7999999523163,586487.7000000477,7153,WL,A,13.0
5,23.04200005531311,learn,60000.0,Fri May 16 2025 15:32:01 GMT-0500 (Central Daylight Time),589602.9000000954,A,fingerenter,O,enter,294,1,3115.2000000476837,586487.7000000477,7153,WL,A,13.0
5,24.441999912261963,learn,60000.0,Fri May 16 2025 15:32:01 GMT-0500 (Central Daylight Time),591002.6000000238,A,c,O,c,1395,1,1399.3999999761581,589603.2000000477,7153,WL,A,14.0
5,24.524999856948853,learn,60000.0,Fri May 16 2025 15:32:01 GMT-0500 (Central Daylight Time),591086.1000000238,A,ch,O,h,67,1,1482.8999999761581,589603.2000000477,7153,WL,A,14.0
5,24.592000007629395,learn,60000.0,Fri May 16 2025 15:32:01 GMT-0500 (Central Daylight Time),591152.8000000715,A,chi,O,i,55,1,1549.6000000238419,589603.2000000477,7153,WL,A,14.0
5,24.72499990463257,learn,60000.0,Fri May 16 2025 15:32:01 GMT-0500 (Central Daylight Time),591286.1000000238,A,chin,O,n,125,1,1682.8999999761581,589603.2000000477,7153,WL,A,14.0
5,25.125,learn,60000.0,Fri May 16 2025 15:32:01 GMT-0500 (Central Daylight Time),591686.1000000238,A,chinm,O,m,392,1,2082.899999976158,589603.2000000477,7153,WL,A,14.0
5,25.45799994468689,learn,60000.0,Fri May 16 2025 15:32:01 GMT-0500 (Central Daylight Time),592019.2000000477,A,chin,O,backspace,319,1,2416.0,589603.2000000477,7153,WL,A,14.0
5,25.625,learn,60000.0,Fri May 16 2025 15:32:01 GMT-0500 (Central Daylight Time),592185.9000000954,A,chi,O,backspace,146,1,2582.7000000476837,589603.2000000477,7153,WL,A,14.0
5,25.808000087738037,learn,60000.0,Fri May 16 2025 15:32:01 GMT-0500 (Central Daylight Time),592369.1000000238,A,chim,O,m,172,1,2765.899999976158,589603.2000000477,7153,WL,A,14.0
5,26.174999952316284,learn,60000.0,Fri May 16 2025 15:32:01 GMT-0500 (Central Daylight Time),592735.6000000238,A,chimn,O,n,348,1,3132.399999976158,589603.2000000477,7153,WL,A,14.0
5,26.341000080108643,learn,60000.0,Fri May 16 2025 15:32:01 GMT-0500 (Central Daylight Time),592902.3000000715,A,chimne,O,e,157,1,3299.100000023842,589603.2000000477,7153,WL,A,14.0
5,26.490999937057495,learn,60000.0,Fri May 16 2025 15:32:01 GMT-0500 (Central Daylight Time),593052.2000000477,A,chimney,O,y,143,1,3449.0,589603.2000000477,7153,WL,A,14.0
5,28.323999881744385,learn,60000.0,Fri May 16 2025 15:32:01 GMT-0500 (Central Daylight Time),594884.9000000954,A,chimneyenter,O,enter,1817,1,5281.700000047684,589603.2000000477,7153,WL,A,14.0
5,28.473999977111816,learn,60000.0,Fri May 16 2025 15:32:01 GMT-0500 (Central Daylight Time),595034.9000000954,A,a,O,a,136,1,149.60000002384186,594885.3000000715,7153,WL,A,15.0
5,28.7739999294281,learn,60000.0,Fri May 16 2025 15:32:01 GMT-0500 (Central Daylight Time),595334.7000000477,A,ap,O,p,291,1,449.39999997615814,594885.3000000715,7153,WL,A,15.0
5,29.0239999294281,learn,60000.0,Fri May 16 2025 15:32:01 GMT-0500 (Central Daylight Time),595584.8000000715,A,app,O,p,239,1,699.5,594885.3000000715,7153,WL,A,15.0
5,29.256999969482422,learn,60000.0,Fri May 16 2025 15:32:01 GMT-0500 (Central Daylight Time),595818.0,A,appl,O,l,221,1,932.6999999284744,594885.3000000715,7153,WL,A,15.0
5,29.389999866485596,learn,60000.0,Fri May 16 2025 15:32:01 GMT-0500 (Central Daylight Time),595951.3000000715,A,apple,O,e,124,1,1066.0,594885.3000000715,7153,WL,A,15.0
5,29.823999881744385,learn,60000.0,Fri May 16 2025 15:32:01 GMT-0500 (Central Daylight Time),596384.5,A,appleenter,O,enter,414,1,1499.1999999284744,594885.3000000715,7153,WL,A,15.0
6,0.7660000324249268,distr,59233.99996757507,Fri May 16 2025 15:32:01 GMT-0500 (Central Daylight Time),665662.7000000477,B,b,O,b,757,1,766.2999999523163,664896.4000000954,7153,WL,A,1.0
6,0.9160001277923584,distr,59083.99987220764,Fri May 16 2025 15:32:01 GMT-0500 (Central Daylight Time),665812.7000000477,B,bo,O,o,142,1,916.2999999523163,664896.4000000954,7153,WL,A,1.0
6,1.0829999446868896,distr,58917.00005531311,Fri May 16 2025 15:32:01 GMT-0500 (Central Daylight Time),665979.5,B,bot,O,t,152,1,1083.0999999046326,664896.4000000954,7153,WL,A,1.0
6,1.25,distr,58750.0,Fri May 16 2025 15:32:01 GMT-0500 (Central Daylight Time),666146.1000000238,B,bott,O,t,146,1,1249.6999999284744,664896.4000000954,7153,WL,A,1.0
6,1.3659999370574951,distr,58634.000062942505,Fri May 16 2025 15:32:01 GMT-0500 (Central Daylight Time),666262.5,B,bottl,O,l,107,1,1366.0999999046326,664896.4000000954,7153,WL,A,1.0
6,1.4500000476837158,distr,58549.999952316284,Fri May 16 2025 15:32:01 GMT-0500 (Central Daylight Time),666345.9000000954,B,bottle,O,e,71,1,1449.5,664896.4000000954,7153,WL,A,1.0
6,1.683000087738037,distr,58316.99991226196,Fri May 16 2025 15:32:01 GMT-0500 (Central Daylight Time),666578.9000000954,B,bottleenter,O,enter,220,1,1682.5,664896.4000000954,7153,WL,A,1.0
6,2.5160000324249268,distr,57483.99996757507,Fri May 16 2025 15:32:01 GMT-0500 (Central Daylight Time),667412.3000000715,B,p,O,p,827,1,833.0,666579.3000000715,7153,WL,A,2.0
6,2.5820000171661377,distr,57417.99998283386,Fri May 16 2025 15:32:01 GMT-0500 (Central Daylight Time),667478.7000000477,B,pe,O,e,57,1,899.3999999761581,666579.3000000715,7153,WL,A,2.0
6,2.7320001125335693,distr,57267.99988746643,Fri May 16 2025 15:32:01 GMT-0500 (Central Daylight Time),667628.8000000715,B,pea,O,a,135,1,1049.5,666579.3000000715,7153,WL,A,2.0
6,2.9160001277923584,distr,57083.99987220764,Fri May 16 2025 15:32:01 GMT-0500 (Central Daylight Time),667812.3000000715,B,peac,O,c,169,1,1233.0,666579.3000000715,7153,WL,A,2.0
6,3.0490000247955322,distr,56950.99997520447,Fri May 16 2025 15:32:01 GMT-0500 (Central Daylight Time),667945.6000000238,B,peach,O,h,121,1,1366.2999999523163,666579.3000000715,7153,WL,A,2.0
6,3.631999969482422,distr,56368.00003051758,Fri May 16 2025 15:32:01 GMT-0500 (Central Daylight Time),668528.4000000954,B,peachenter,O,enter,572,1,1949.1000000238419,666579.3000000715,7153,WL,A,2.0
6,4.2820000648498535,distr,55717.99993515015,Fri May 16 2025 15:32:01 GMT-0500 (Central Daylight Time),669178.2000000477,B,c,O,c,637,1,649.6000000238419,668528.6000000238,7153,WL,A,3.0
6,4.449000120162964,distr,55550.999879837036,Fri May 16 2025 15:32:01 GMT-0500 (Central Daylight Time),669345.0,B,ch,O,h,155,1,816.3999999761581,668528.6000000238,7153,WL,A,3.0
6,4.4649999141693115,distr,55535.00008583069,Fri May 16 2025 15:32:01 GMT-0500 (Central Daylight Time),669361.6000000238,B,cha,O,a,0,1,833.0,668528.6000000238,7153,WL,A,3.0
6,4.697999954223633,distr,55302.00004577637,Fri May 16 2025 15:32:01 GMT-0500 (Central Daylight Time),669594.7000000477,B,chai,O,i,228,1,1066.1000000238419,668528.6000000238,7153,WL,A,3.0
6,4.9649999141693115,distr,55035.00008583069,Fri May 16 2025 15:32:01 GMT-0500 (Central Daylight Time),669861.4000000954,B,chair,O,r,259,1,1332.8000000715256,668528.6000000238,7153,WL,A,3.0
6,5.232000112533569,distr,54767.99988746643,Fri May 16 2025 15:32:01 GMT-0500 (Central Daylight Time),670128.1000000238,B,chairenter,O,enter,256,1,1599.5,668528.6000000238,7153,WL,A,3.0
6,5.515000104904175,distr,54484.999895095825,Fri May 16 2025 15:32:01 GMT-0500 (Central Daylight Time),670411.1000000238,B,g,O,g,278,1,282.60000002384186,670128.5,7153,WL,A,4.0
6,5.681999921798706,distr,54318.000078201294,Fri May 16 2025 15:32:01 GMT-0500 (Central Daylight Time),670577.9000000954,B,gu,O,u,146,1,449.40000009536743,670128.5,7153,WL,A,4.0
6,6.148000001907349,distr,53851.99999809265,Fri May 16 2025 15:32:01 GMT-0500 (Central Daylight Time),671044.4000000954,B,g,O,backspace,460,1,915.9000000953674,670128.5,7153,WL,A,4.0
6,6.315000057220459,distr,53684.99994277954,Fri May 16 2025 15:32:01 GMT-0500 (Central Daylight Time),671211.2000000477,B,,O,backspace,153,1,1082.7000000476837,670128.5,7153,WL,A,4.0
6,6.581000089645386,distr,53418.999910354614,Fri May 16 2025 15:32:01 GMT-0500 (Central Daylight Time),671477.7000000477,B,u,O,u,259,1,1349.2000000476837,670128.5,7153,WL,A,4.0
6,7.180999994277954,distr,52819.000005722046,Fri May 16 2025 15:32:01 GMT-0500 (Central Daylight Time),672077.3000000715,B,,O,backspace,592,1,1948.8000000715256,670128.5,7153,WL,A,4.0
6,7.364000082015991,distr,52635.99991798401,Fri May 16 2025 15:32:01 GMT-0500 (Central Daylight Time),672260.6000000238,B,j,O,j,177,1,2132.100000023842,670128.5,7153,WL,A,4.0
6,7.5980000495910645,distr,52401.999950408936,Fri May 16 2025 15:32:01 GMT-0500 (Central Daylight Time),672494.0,B,ju,O,u,225,1,2365.5,670128.5,7153,WL,A,4.0
6,7.71399998664856,distr,52286.00001335144,Fri May 16 2025 15:32:01 GMT-0500 (Central Daylight Time),672610.4000000954,B,jud,O,d,111,1,2481.9000000953674,670128.5,7153,WL,A,4.0
6,8.013999938964844,distr,51986.000061035156,Fri May 16 2025 15:32:01 GMT-0500 (Central Daylight Time),672910.3000000715,B,judg,O,g,283,1,2781.8000000715256,670128.5,7153,WL,A,4.0
6,8.180999994277954,distr,51819.000005722046,Fri May 16 2025 15:32:01 GMT-0500 (Central Daylight Time),673077.1000000238,B,judge,O,e,159,1,2948.600000023842,670128.5,7153,WL,A,4.0
6,8.763999938964844,distr,51236.000061035156,Fri May 16 2025 15:32:01 GMT-0500 (Central Daylight Time),673660.3000000715,B,judgeenter,O,enter,568,1,3531.8000000715256,670128.5,7153,WL,A,4.0
6,11.77999997138977,distr,48220.00002861023,Fri May 16 2025 15:32:01 GMT-0500 (Central Daylight Time),676676.1000000238,B,b,O,b,3001,1,3015.600000023842,673660.5,7153,WL,A,5.0
6,11.895999908447266,distr,48104.000091552734,Fri May 16 2025 15:32:01 GMT-0500 (Central Daylight Time),676792.6000000238,B,bo,O,o,97,1,3132.100000023842,673660.5,7153,WL,A,5.0
6,12.046000003814697,distr,47953.9999961853,Fri May 16 2025 15:32:01 GMT-0500 (Central Daylight Time),676942.4000000954,B,bow,O,w,133,1,3281.9000000953674,673660.5,7153,WL,A,5.0
6,12.163000106811523,distr,47836.99989318848,Fri May 16 2025 15:32:01 GMT-0500 (Central Daylight Time),677058.9000000954,B,bowl,O,l,111,1,3398.4000000953674,673660.5,7153,WL,A,5.0
6,12.463000059127808,distr,47536.99994087219,Fri May 16 2025 15:32:01 GMT-0500 (Central Daylight Time),677359.1000000238,B,bowlenter,O,enter,290,1,3698.600000023842,673660.5,7153,WL,A,5.0
6,15.57800006866455,distr,44421.99993133545,Fri May 16 2025 15:32:01 GMT-0500 (Central Daylight Time),680474.7000000477,B,p,O,p,3110,1,3115.2000000476837,677359.5,7153,WL,A,6.0
6,15.76200008392334,distr,44237.99991607666,Fri May 16 2025 15:32:01 GMT-0500 (Central Daylight Time),680658.1000000238,B,pl,O,l,171,1,3298.600000023842,677359.5,7153,WL,A,6.0
6,15.878000020980835,distr,44121.999979019165,Fri May 16 2025 15:32:01 GMT-0500 (Central Daylight Time),680774.6000000238,B,pla,O,a,99,1,3415.100000023842,677359.5,7153,WL,A,6.0
6,15.995000123977661,distr,44004.99987602234,Fri May 16 2025 15:32:01 GMT-0500 (Central Daylight Time),680891.1000000238,B,plan,O,n,103,1,3531.600000023842,677359.5,7153,WL,A,6.0
6,16.128000020980835,distr,43871.999979019165,Fri May 16 2025 15:32:01 GMT-0500 (Central Daylight Time),681024.7000000477,B,plane,O,e,122,1,3665.2000000476837,677359.5,7153,WL,A,6.0
6,16.34500002861023,distr,43654.99997138977,Fri May 16 2025 15:32:01 GMT-0500 (Central Daylight Time),681241.2000000477,B,planeenter,O,enter,205,1,3881.7000000476837,677359.5,7153,WL,A,6.0
6,21.5770001411438,distr,38422.9998588562,Fri May 16 2025 15:32:01 GMT-0500 (Central Daylight Time),686472.9000000954,B,enter,O,enter,5220,1,5231.400000095367,681241.5,7153,WL,A,7.0
6,21.776000022888184,distr,38223.99997711182,Fri May 16 2025 15:32:01 GMT-0500 (Central Daylight Time),686672.8000000715,B,enter,O,enter,189,1,199.5,686473.3000000715,7153,WL,A,8.0
6,21.960000038146973,distr,38039.99996185303,Fri May 16 2025 15:32:01 GMT-0500 (Central Daylight Time),686856.2000000477,B,enter,O,enter,165,1,183.10000002384186,686673.1000000238,7153,WL,A,9.0
6,22.125999927520752,distr,37874.00007247925,Fri May 16 2025 15:32:01 GMT-0500 (Central Daylight Time),687022.6000000238,B,enter,O,enter,150,1,166.0,686856.6000000238,7153,WL,A,10.0
6,22.30999994277954,distr,37690.00005722046,Fri May 16 2025 15:32:01 GMT-0500 (Central Daylight Time),687206.0,B,enter,O,enter,167,1,183.09999990463257,687022.9000000954,7153,WL,A,11.0
6,22.526000022888184,distr,37473.99997711182,Fri May 16 2025 15:32:01 GMT-0500 (Central Daylight Time),687422.6000000238,B,enter,O,enter,200,1,216.29999995231628,687206.3000000715,7153,WL,A,12.0
6,22.875999927520752,distr,37124.00007247925,Fri May 16 2025 15:32:01 GMT-0500 (Central Daylight Time),687772.2000000477,B,enter,O,enter,343,1,349.2999999523163,687422.9000000954,7153,WL,A,13.0
6,23.158999919891357,distr,36841.00008010864,Fri May 16 2025 15:32:01 GMT-0500 (Central Daylight Time),688055.6000000238,B,enter,O,enter,265,1,283.0,687772.6000000238,7153,WL,A,14.0
6,23.676000118255615,distr,36323.999881744385,Fri May 16 2025 15:32:01 GMT-0500 (Central Daylight Time),688572.1000000238,B,enter,O,enter,502,1,516.1999999284744,688055.9000000954,7153,WL,A,15.0
7,0.4330000877380371,immed,59566.99991226196,Fri May 16 2025 15:32:01 GMT-0500 (Central Daylight Time),699552.3000000715,A,b,O,b,415,1,433.2000000476837,699119.1000000238,7153,WL,A,1.0
7,0.6830000877380371,immed,59316.99991226196,Fri May 16 2025 15:32:01 GMT-0500 (Central Daylight Time),699802.1000000238,A,bo,O,o,229,1,683.0,699119.1000000238,7153,WL,A,1.0
7,0.8489999771118164,immed,59151.00002288818,Fri May 16 2025 15:32:01 GMT-0500 (Central Daylight Time),699968.8000000715,A,boo,O,o,147,1,849.7000000476837,699119.1000000238,7153,WL,A,1.0
7,0.999000072479248,immed,59000.99992752075,Fri May 16 2025 15:32:01 GMT-0500 (Central Daylight Time),700118.5,A,book,O,k,133,1,999.3999999761581,699119.1000000238,7153,WL,A,1.0
7,1.2829999923706055,immed,58717.000007629395,Fri May 16 2025 15:32:01 GMT-0500 (Central Daylight Time),700401.9000000954,A,bookenter,O,enter,271,1,1282.8000000715256,699119.1000000238,7153,WL,A,1.0
7,2.131999969482422,immed,57868.00003051758,Fri May 16 2025 15:32:01 GMT-0500 (Central Daylight Time),701251.6000000238,A,m,O,m,836,1,849.2999999523163,700402.3000000715,7153,WL,A,2.0
7,2.2319998741149902,immed,57768.00012588501,Fri May 16 2025 15:32:01 GMT-0500 (Central Daylight Time),701351.5,A,me,O,e,90,1,949.1999999284744,700402.3000000715,7153,WL,A,2.0
7,2.381999969482422,immed,57618.00003051758,Fri May 16 2025 15:32:01 GMT-0500 (Central Daylight Time),701501.4000000954,A,mea,O,a,142,1,1099.1000000238419,700402.3000000715,7153,WL,A,2.0
7,2.5320000648498535,immed,57467.99993515015,Fri May 16 2025 15:32:01 GMT-0500 (Central Daylight Time),701651.3000000715,A,mead,O,d,144,1,1249.0,700402.3000000715,7153,WL,A,2.0
7,2.749000072479248,immed,57250.99992752075,Fri May 16 2025 15:32:01 GMT-0500 (Central Daylight Time),701868.2000000477,A,meado,O,o,202,1,1465.8999999761581,700402.3000000715,7153,WL,A,2.0
7,3.2319998741149902,immed,56768.00012588501,Fri May 16 2025 15:32:01 GMT-0500 (Central Daylight Time),702351.2000000477,A,meadow,O,w,473,1,1948.8999999761581,700402.3000000715,7153,WL,A,2.0
7,3.4819998741149902,immed,56518.00012588501,Fri May 16 2025 15:32:01 GMT-0500 (Central Daylight Time),702601.1000000238,A,meadowenter,O,enter,238,1,2198.7999999523163,700402.3000000715,7153,WL,A,2.0
7,3.797999858856201,immed,56202.0001411438,Fri May 16 2025 15:32:01 GMT-0500 (Central Daylight Time),702917.7000000477,A,t,O,t,301,1,316.2999999523163,702601.4000000954,7153,WL,A,3.0
7,3.9819998741149902,immed,56018.00012588501,Fri May 16 2025 15:32:01 GMT-0500 (Central Daylight Time),703101.0,A,tr,O,r,175,1,499.59999990463257,702601.4000000954,7153,WL,A,3.0
7,4.148999929428101,immed,55851.0000705719,Fri May 16 2025 15:32:01 GMT-0500 (Central Daylight Time),703267.8000000715,A,tra,O,a,153,1,666.3999999761581,702601.4000000954,7153,WL,A,3.0
7,4.264999866485596,immed,55735.000133514404,Fri May 16 2025 15:32:01 GMT-0500 (Central Daylight Time),703384.3000000715,A,trai,O,i,98,1,782.8999999761581,702601.4000000954,7153,WL,A,3.0
7,4.315000057220459,immed,55684.99994277954,Fri May 16 2025 15:32:01 GMT-0500 (Central Daylight Time),703434.3000000715,A,train,O,n,37,1,832.8999999761581,702601.4000000954,7153,WL,A,3.0
7,4.8480000495910645,immed,55151.999950408936,Fri May 16 2025 15:32:01 GMT-0500 (Central Daylight Time),703967.3000000715,A,trainenter,O,enter,523,1,1365.8999999761581,702601.4000000954,7153,WL,A,3.0
7,7.730000019073486,immed,52269.999980926514,Fri May 16 2025 15:32:01 GMT-0500 (Central Daylight Time),706849.8000000715,A,s,O,s,2862,1,2882.2000000476837,703967.6000000238,7153,WL,A,4.0
7,7.897000074386597,immed,52102.9999256134,Fri May 16 2025 15:32:01 GMT-0500 (Central Daylight Time),707016.5,A,sa,O,a,156,1,3048.899999976158,703967.6000000238,7153,WL,A,4.0
7,8.263999938964844,immed,51736.000061035156,Fri May 16 2025 15:32:01 GMT-0500 (Central Daylight Time),707383.0,A,sal,O,l,349,1,3415.399999976158,703967.6000000238,7153,WL,A,4.0
7,8.46399998664856,immed,51536.00001335144,Fri May 16 2025 15:32:01 GMT-0500 (Central Daylight Time),707583.0,A,salt,O,t,183,1,3615.399999976158,703967.6000000238,7153,WL,A,4.0
7,8.662999868392944,immed,51337.000131607056,Fri May 16 2025 15:32:01 GMT-0500 (Central Daylight Time),707782.8000000715,A,saltenter,O,enter,191,1,3815.2000000476837,703967.6000000238,7153,WL,A,4.0
7,9.213000059127808,immed,50786.99994087219,Fri May 16 2025 15:32:01 GMT-0500 (Central Daylight Time),708332.6000000238,A,g,O,g,535,1,549.5,707783.1000000238,7153,WL,A,5.0
7,9.29699993133545,immed,50703.00006866455,Fri May 16 2025 15:32:01 GMT-0500 (Central Daylight Time),708416.1000000238,A,go,O,o,73,1,633.0,707783.1000000238,7153,WL,A,5.0
7,9.480000019073486,immed,50519.999980926514,Fri May 16 2025 15:32:01 GMT-0500 (Central Daylight Time),708599.1000000238,A,gol,O,l,165,1,816.0,707783.1000000238,7153,WL,A,5.0
7,9.579999923706055,immed,50420.000076293945,Fri May 16 2025 15:32:01 GMT-0500 (Central Daylight Time),708699.3000000715,A,gold,O,d,86,1,916.2000000476837,707783.1000000238,7153,WL,A,5.0
7,9.879999876022339,immed,50120.00012397766,Fri May 16 2025 15:32:01 GMT-0500 (Central Daylight Time),708999.4000000954,A,goldenter,O,enter,290,1,1216.3000000715256,707783.1000000238,7153,WL,A,5.0
7,13.111999988555908,immed,46888.00001144409,Fri May 16 2025 15:32:01 GMT-0500 (Central Daylight Time),712231.4000000954,A,r,O,r,3214,1,3231.8000000715256,708999.6000000238,7153,WL,A,6.0
7,13.312000036239624,immed,46687.999963760376,Fri May 16 2025 15:32:01 GMT-0500 (Central Daylight Time),712431.9000000954,A,ru,O,u,182,1,3432.3000000715256,708999.6000000238,7153,WL,A,6.0
7,13.444999933242798,immed,46555.0000667572,Fri May 16 2025 15:32:01 GMT-0500 (Central Daylight Time),712564.6000000238,A,rug,O,g,117,1,3565.0,708999.6000000238,7153,WL,A,6.0
7,13.84500002861023,immed,46154.99997138977,Fri May 16 2025 15:32:01 GMT-0500 (Central Daylight Time),712964.6000000238,A,rugenter,O,enter,393,1,3965.0,708999.6000000238,7153,WL,A,6.0
7,17.060999870300293,immed,42939.00012969971,Fri May 16 2025 15:32:01 GMT-0500 (Central Daylight Time),716180.2000000477,A,f,O,f,3209,1,3215.2999999523163,712964.9000000954,7153,WL,A,7.0
7,17.210999965667725,immed,42789.000034332275,Fri May 16 2025 15:32:01 GMT-0500 (Central Daylight Time),716330.2000000477,A,fl,O,l,137,1,3365.2999999523163,712964.9000000954,7153,WL,A,7.0
7,17.39400005340576,immed,42605.99994659424,Fri May 16 2025 15:32:01 GMT-0500 (Central Daylight Time),716513.5,A,flo,O,o,171,1,3548.5999999046326,712964.9000000954,7153,WL,A,7.0
7,17.527999877929688,immed,42472.00012207031,Fri May 16 2025 15:32:01 GMT-0500 (Central Daylight Time),716647.7000000477,A,flow,O,w,116,1,3682.7999999523163,712964.9000000954,7153,WL,A,7.0
7,18.026999950408936,immed,41973.000049591064,Fri May 16 2025 15:32:01 GMT-0500 (Central Daylight Time),717146.7000000477,A,flowe,O,e,479,1,4181.799999952316,712964.9000000954,7153,WL,A,7.0
7,18.108999967575073,immed,41891.00003242493,Fri May 16 2025 15:32:01 GMT-0500 (Central Daylight Time),717230.0,A,flower,O,r,74,1,4265.099999904633,712964.9000000954,7153,WL,A,7.0
7,18.441999912261963,immed,41558.00008773804,Fri May 16 2025 15:32:01 GMT-0500 (Central Daylight Time),717563.1000000238,A,flowerenter,O,enter,329,1,4598.199999928474,712964.9000000954,7153,WL,A,7.0
7,20.04200005531311,immed,39957.99994468689,Fri May 16 2025 15:32:01 GMT-0500 (Central Daylight Time),719162.7000000477,A,h,O,h,1587,1,1599.5,717563.2000000477,7153,WL,A,8.0
7,20.158999919891357,immed,39841.00008010864,Fri May 16 2025 15:32:01 GMT-0500 (Central Daylight Time),719279.3000000715,A,ha,O,a,99,1,1716.1000000238419,717563.2000000477,7153,WL,A,8.0
7,20.29200005531311,immed,39707.99994468689,Fri May 16 2025 15:32:01 GMT-0500 (Central Daylight Time),719412.5,A,har,O,r,118,1,1849.2999999523163,717563.2000000477,7153,WL,A,8.0
7,20.55900001525879,immed,39440.99998474121,Fri May 16 2025 15:32:01 GMT-0500 (Central Daylight Time),719679.3000000715,A,harp,O,p,249,1,2116.100000023842,717563.2000000477,7153,WL,A,8.0
7,21.97499990463257,immed,38025.00009536743,Fri May 16 2025 15:32:01 GMT-0500 (Central Daylight Time),721095.2000000477,A,harpenter,O,enter,1398,1,3532.0,717563.2000000477,7153,WL,A,8.0
7,25.073999881744385,immed,34926.000118255615,Fri May 16 2025 15:32:01 GMT-0500 (Central Daylight Time),724194.5,A,f,O,f,3094,1,3099.0,721095.5,7153,WL,A,9.0
7,25.22499990463257,immed,34775.00009536743,Fri May 16 2025 15:32:01 GMT-0500 (Central Daylight Time),724345.6000000238,A,fi,O,i,131,1,3250.100000023842,721095.5,7153,WL,A,9.0
7,25.306999921798706,immed,34693.000078201294,Fri May 16 2025 15:32:01 GMT-0500 (Central Daylight Time),724427.5,A,fin,O,n,68,1,3332.0,721095.5,7153,WL,A,9.0
7,25.424000024795532,immed,34575.99997520447,Fri May 16 2025 15:32:01 GMT-0500 (Central Daylight Time),724544.2000000477,A,fine,O,e,106,1,3448.7000000476837,721095.5,7153,WL,A,9.0
7,25.506999969482422,immed,34493.00003051758,Fri May 16 2025 15:32:01 GMT-0500 (Central Daylight Time),724627.5,A,finer,O,r,69,1,3532.0,721095.5,7153,WL,A,9.0
7,25.806999921798706,immed,34193.000078201294,Fri May 16 2025 15:32:01 GMT-0500 (Central Daylight Time),724927.4000000954,A,finerenter,O,enter,290,1,3831.9000000953674,721095.5,7153,WL,A,9.0
7,27.60599994659424,immed,32394.00005340576,Fri May 16 2025 15:32:01 GMT-0500 (Central Daylight Time),726727.0,A,c,O,c,1782,1,1799.2999999523163,724927.7000000477,7153,WL,A,10.0
7,27.706000089645386,immed,32293.999910354614,Fri May 16 2025 15:32:01 GMT-0500 (Central Daylight Time),726826.7000000477,A,ch,O,h,86,1,1899.0,724927.7000000477,7153,WL,A,10.0
7,27.83999991416931,immed,32160.00008583069,Fri May 16 2025 15:32:01 GMT-0500 (Central Daylight Time),726960.3000000715,A,chi,O,i,115,1,2032.6000000238419,724927.7000000477,7153,WL,A,10.0
7,27.956000089645386,immed,32043.999910354614,Fri May 16 2025 15:32:01 GMT-0500 (Central Daylight Time),727076.8000000715,A,chim,O,m,101,1,2149.100000023842,724927.7000000477,7153,WL,A,10.0
7,28.139999866485596,immed,31860.000133514404,Fri May 16 2025 15:32:01 GMT-0500 (Central Daylight Time),727260.2000000477,A,chimi,O,i,177,1,2332.5,724927.7000000477,7153,WL,A,10.0
7,28.206000089645386,immed,31793.999910354614,Fri May 16 2025 15:32:01 GMT-0500 (Central Daylight Time),727326.7000000477,A,chimin,O,n,57,1,2399.0,724927.7000000477,7153,WL,A,10.0
7,28.44000005722046,immed,31559.99994277954,Fri May 16 2025 15:32:01 GMT-0500 (Central Daylight Time),727560.1000000238,A,chimine,O,e,223,1,2632.399999976158,724927.7000000477,7153,WL,A,10.0
7,28.622999906539917,immed,31377.000093460083,Fri May 16 2025 15:32:01 GMT-0500 (Central Daylight Time),727743.2000000477,A,chiminey,O,y,173,1,2815.5,724927.7000000477,7153,WL,A,10.0
7,28.98900008201599,immed,31010.99991798401,Fri May 16 2025 15:32:01 GMT-0500 (Central Daylight Time),728110.0,A,chimine,O,backspace,350,1,3182.2999999523163,724927.7000000477,7153,WL,A,10.0
7,29.155999898910522,immed,30844.000101089478,Fri May 16 2025 15:32:01 GMT-0500 (Central Daylight Time),728276.1000000238,A,chimin,O,backspace,160,1,3348.399999976158,724927.7000000477,7153,WL,A,10.0
7,29.32200002670288,immed,30677.99997329712,Fri May 16 2025 15:32:01 GMT-0500 (Central Daylight Time),728442.8000000715,A,chimi,O,backspace,161,1,3515.100000023842,724927.7000000477,7153,WL,A,10.0
7,29.48900008201599,immed,30510.99991798401,Fri May 16 2025 15:32:01 GMT-0500 (Central Daylight Time),728609.6000000238,A,chim,O,backspace,155,1,3681.899999976158,724927.7000000477,7153,WL,A,10.0
7,29.706000089645386,immed,30293.999910354614,Fri May 16 2025 15:32:01 GMT-0500 (Central Daylight Time),728826.3000000715,A,chimn,O,n,203,1,3898.600000023842,724927.7000000477,7153,WL,A,10.0
7,30.138999938964844,immed,29861.000061035156,Fri May 16 2025 15:32:01 GMT-0500 (Central Daylight Time),729259.2000000477,A,chimne,O,e,427,1,4331.5,724927.7000000477,7153,WL,A,10.0
7,30.32200002670288,immed,29677.99997329712,Fri May 16 2025 15:32:01 GMT-0500 (Central Daylight Time),729442.7000000477,A,chimney,O,y,170,1,4515.0,724927.7000000477,7153,WL,A,10.0
7,30.67199993133545,immed,29328.00006866455,Fri May 16 2025 15:32:01 GMT-0500 (Central Daylight Time),729792.6000000238,A,chimneyenter,O,enter,331,1,4864.899999976158,724927.7000000477,7153,WL,A,10.0
7,34.4210000038147,immed,25578.999996185303,Fri May 16 2025 15:32:01 GMT-0500 (Central Daylight Time),733541.6000000238,A,b,O,b,3740,1,3748.6999999284744,729792.9000000954,7153,WL,A,11.0
7,34.58800005912781,immed,25411.999940872192,Fri May 16 2025 15:32:01 GMT-0500 (Central Daylight Time),733708.2000000477,A,bo,O,o,152,1,3915.2999999523163,729792.9000000954,7153,WL,A,11.0
7,34.78699994087219,immed,25213.000059127808,Fri May 16 2025 15:32:01 GMT-0500 (Central Daylight Time),733908.1000000238,A,bot,O,t,185,1,4115.199999928474,729792.9000000954,7153,WL,A,11.0
7,34.937000036239624,immed,25062.999963760376,Fri May 16 2025 15:32:01 GMT-0500 (Central Daylight Time),734058.0,A,bott,O,t,137,1,4265.099999904633,729792.9000000954,7153,WL,A,11.0
7,35.08800005912781,immed,24911.999940872192,Fri May 16 2025 15:32:01 GMT-0500 (Central Daylight Time),734208.4000000954,A,bottl,O,l,132,1,4415.5,729792.9000000954,7153,WL,A,11.0
7,35.187000036239624,immed,24812.999963760376,Fri May 16 2025 15:32:01 GMT-0500 (Central Daylight Time),734307.9000000954,A,bottle,O,e,85,1,4515.0,729792.9000000954,7153,WL,A,11.0
7,35.937000036239624,immed,24062.999963760376,Fri May 16 2025 15:32:01 GMT-0500 (Central Daylight Time),735057.5,A,bottleenter,O,enter,730,1,5264.599999904633,729792.9000000954,7153,WL,A,11.0
7,36.269999980926514,immed,23730.000019073486,Fri May 16 2025 15:32:01 GMT-0500 (Central Daylight Time),735390.9000000954,A,g,O,g,316,1,333.10000002384186,735057.8000000715,7153,WL,A,12.0
7,36.36999988555908,immed,23630.000114440918,Fri May 16 2025 15:32:01 GMT-0500 (Central Daylight Time),735490.7000000477,A,go,O,o,95,1,432.89999997615814,735057.8000000715,7153,WL,A,12.0
7,36.986000061035156,immed,23013.999938964844,Fri May 16 2025 15:32:01 GMT-0500 (Central Daylight Time),736107.0,A,gol,O,l,611,1,1049.1999999284744,735057.8000000715,7153,WL,A,12.0
7,37.11999988555908,immed,22880.000114440918,Fri May 16 2025 15:32:01 GMT-0500 (Central Daylight Time),736240.9000000954,A,gold,O,d,115,1,1183.1000000238419,735057.8000000715,7153,WL,A,12.0
7,37.28699994087219,immed,22713.000059127808,Fri May 16 2025 15:32:01 GMT-0500 (Central Daylight Time),736407.4000000954,A,goldenter,O,enter,157,1,1349.6000000238419,735057.8000000715,7153,WL,A,12.0
7,37.519999980926514,immed,22480.000019073486,Fri May 16 2025 15:32:01 GMT-0500 (Central Daylight Time),736640.5,A,r,O,r,214,1,232.79999995231628,736407.7000000477,7153,WL,A,13.0
7,37.72000002861023,immed,22279.99997138977,Fri May 16 2025 15:32:01 GMT-0500 (Central Daylight Time),736840.2000000477,A,ra,O,a,189,1,432.5,736407.7000000477,7153,WL,A,13.0
7,37.95300006866455,immed,22046.99993133545,Fri May 16 2025 15:32:01 GMT-0500 (Central Daylight Time),737073.6000000238,A,rat,O,t,221,1,665.8999999761581,736407.7000000477,7153,WL,A,13.0
7,38.11899995803833,immed,21881.00004196167,Fri May 16 2025 15:32:01 GMT-0500 (Central Daylight Time),737240.1000000238,A,ratt,O,t,148,1,832.3999999761581,736407.7000000477,7153,WL,A,13.0
7,38.30299997329712,immed,21697.00002670288,Fri May 16 2025 15:32:01 GMT-0500 (Central Daylight Time),737423.3000000715,A,rattl,O,l,165,1,1015.6000000238419,736407.7000000477,7153,WL,A,13.0
7,38.420000076293945,immed,21579.999923706055,Fri May 16 2025 15:32:01 GMT-0500 (Central Daylight Time),737540.4000000954,A,rattle,O,e,102,1,1132.7000000476837,736407.7000000477,7153,WL,A,13.0
7,38.6029999256134,immed,21397.000074386597,Fri May 16 2025 15:32:01 GMT-0500 (Central Daylight Time),737723.4000000954,A,rattleenter,O,enter,169,1,1315.7000000476837,736407.7000000477,7153,WL,A,13.0
7,40.78600001335144,immed,19213.99998664856,Fri May 16 2025 15:32:01 GMT-0500 (Central Daylight Time),739906.3000000715,A,k,O,k,2162,1,2182.399999976158,737723.9000000954,7153,WL,A,14.0
7,40.86899995803833,immed,19131.00004196167,Fri May 16 2025 15:32:01 GMT-0500 (Central Daylight Time),739989.4000000954,A,ke,O,e,75,1,2265.5,737723.9000000954,7153,WL,A,14.0
7,41.03500008583069,immed,18964.99991416931,Fri May 16 2025 15:32:01 GMT-0500 (Central Daylight Time),740155.9000000954,A,key,O,y,153,1,2432.0,737723.9000000954,7153,WL,A,14.0
7,41.401999950408936,immed,18598.000049591064,Fri May 16 2025 15:32:01 GMT-0500 (Central Daylight Time),740522.6000000238,A,keyenter,O,enter,346,1,2798.6999999284744,737723.9000000954,7153,WL,A,14.0
7,60.01300001144409,immed,-13.000011444091797,Fri May 16 2025 15:32:01 GMT-0500 (Central Daylight Time),759133.4000000954,A,None,O,None,18606,1,18610.5,740522.9000000954,7153,WL,A,15.0
