acc_sum,block,block_c,condition,correct,correct_response,datetime,endtime,flanker,jitter,project,response,response_test_buffer_response,response_test_target_response,response_time,response_time_test_buffer_response,response_time_test_target_response,row_sel,session_number,start_end,starttime,subject_id,target,task,task_vers,time_test_buffer,time_test_buffer_response,time_test_constants,time_test_flanker,time_test_jitter,time_test_logger,time_test_target,time_test_target_response,time_test_variables,trial
0,prac,1,con,0,z,Fri Mar 27 2026 10:03:38 GMT-0500 (Central Daylight Time),166742.80000001192,banana,800,I,None,,,1799,,,1,1,4860.9000000059605,161881.90000000596,8104,banana,NF,C,,,,,,,,,,1
0,prac,1,con,0,m,Fri Mar 27 2026 10:03:38 GMT-0500 (Central Daylight Time),170491.30000001192,zinc,1000,I,z,,,1436,,,15,1,3742.0999999940395,166749.20000001788,8104,zinc,NF,C,,,,,,,,,,2
1,prac,1,con,1,z,Fri Mar 27 2026 10:03:38 GMT-0500 (Central Daylight Time),173774.70000001788,lime,800,I,z,,,1176,,,5,1,3277.7000000178814,170497.0,8104,lime,NF,C,,,,,,,,,,3
2,prac,1,inc,1,z,Fri Mar 27 2026 10:03:38 GMT-0500 (Central Daylight Time),176706.0,iron,900,I,z,,,729,,,6,1,2925.899999976158,173780.10000002384,8104,pear,NF,C,,,,,,,,,,4
3,prac,1,con,1,m,Fri Mar 27 2026 10:03:38 GMT-0500 (Central Daylight Time),179688.5,silver,1000,I,m,,,674,,,11,1,2977.699999988079,176710.80000001192,8104,silver,NF,C,,,,,,,,,,5
4,prac,1,con,1,m,Fri Mar 27 2026 10:03:38 GMT-0500 (Central Daylight Time),182237.70000001788,gold,800,I,m,,,434,,,13,1,2544.0999999940395,179693.60000002384,8104,gold,NF,C,,,,,,,,,,6
5,prac,1,inc,1,m,Fri Mar 27 2026 10:03:38 GMT-0500 (Central Daylight Time),185103.40000000596,cherry,900,I,m,,,665,,,10,1,2859.5,182243.90000000596,8104,copper,NF,C,,,,,,,,,,7
6,prac,1,inc,1,m,Fri Mar 27 2026 10:03:38 GMT-0500 (Central Daylight Time),188169.20000001788,plum,1100,I,m,,,655,,,16,1,3059.800000011921,185109.40000000596,8104,lead,NF,C,,,,,,,,,,8
6,prac,1,con,0,z,Fri Mar 27 2026 10:03:38 GMT-0500 (Central Daylight Time),190886.20000001788,kiwi,1000,I,m,,,403,,,7,1,2712.0999999940395,188174.10000002384,8104,kiwi,NF,C,,,,,,,,,,9
7,prac,1,inc,1,m,Fri Mar 27 2026 10:03:38 GMT-0500 (Central Daylight Time),193567.40000000596,pear,900,I,m,,,483,,,14,1,2676.2999999821186,190891.10000002384,8104,iron,NF,C,,,,,,,,,,10
8,prac,1,con,1,m,Fri Mar 27 2026 10:03:38 GMT-0500 (Central Daylight Time),196166.60000002384,bronze,800,I,m,,,491,,,9,1,2594.5,193572.10000002384,8104,bronze,NF,C,,,,,,,,,,11
9,prac,1,con,1,z,Fri Mar 27 2026 10:03:38 GMT-0500 (Central Daylight Time),198932.40000000596,orange,1000,I,z,,,460,,,3,1,2761.5,196170.90000000596,8104,orange,NF,C,,,,,,,,,,12
10,prac,1,inc,1,z,Fri Mar 27 2026 10:03:38 GMT-0500 (Central Daylight Time),201881.5,copper,900,I,z,,,738,,,2,1,2944.199999988079,198937.30000001192,8104,cherry,NF,C,,,,,,,,,,13
10,prac,1,inc,0,z,Fri Mar 27 2026 10:03:38 GMT-0500 (Central Daylight Time),204897.20000001788,lead,1100,I,m,,,606,,,8,1,3011.300000011921,201885.90000000596,8104,plum,NF,C,,,,,,,,,,14
11,prac,1,inc,1,z,Fri Mar 27 2026 10:03:38 GMT-0500 (Central Daylight Time),208012.90000000596,cobalt,1100,I,z,,,711,,,4,1,3110.7999999821186,204902.10000002384,8104,raisin,NF,C,,,,,,,,,,15
12,prac,1,inc,1,m,Fri Mar 27 2026 10:03:38 GMT-0500 (Central Daylight Time),211095.30000001192,raisin,1100,I,m,,,667,,,12,1,3078.300000011921,208017.0,8104,cobalt,NF,C,,,,,,,,,,16
1,test,1,inc,1,z,Fri Mar 27 2026 10:03:38 GMT-0500 (Central Daylight Time),238053.5,bronze,800,I,z,z,None,635,420.0,215.0,29,1,1962.2999999821186,236091.20000001788,8104,raisin,NF,C,223011,223011,221481,222294,221482,223444,222795,222795,223443,1
2,test,1,con,1,z,Fri Mar 27 2026 10:03:38 GMT-0500 (Central Daylight Time),240119.5,cherry,1000,I,z,z,None,516,317.0,199.0,11,1,2061.5,238058.0,8104,cherry,NF,C,225177,225177,223448,224460,223448,225510,224977,224977,225510,2
2,test,1,inc,0,z,Fri Mar 27 2026 10:03:38 GMT-0500 (Central Daylight Time),242002.10000002384,iron,900,I,m,m,None,439,240.0,199.0,62,1,1878.0,240124.10000002384,8104,plum,NF,C,227143,227143,225514,226426,225514,227392,226943,226943,227392,3
3,test,1,con,1,z,Fri Mar 27 2026 10:03:38 GMT-0500 (Central Daylight Time),243951.5,orange,1000,I,z,z,None,402,202.0,200.0,19,1,1945.0999999940395,242006.40000000596,8104,orange,NF,C,229125,229125,227396,228409,227397,229342,228925,228925,229342,4
4,test,1,con,1,m,Fri Mar 27 2026 10:03:38 GMT-0500 (Central Daylight Time),246067.5,iron,1000,I,m,m,None,571,372.0,199.0,107,1,2110.7999999821186,243956.70000001788,8104,iron,NF,C,231075,231075,229347,230358,229347,231458,230875,230875,231458,5
5,test,1,con,1,z,Fri Mar 27 2026 10:03:38 GMT-0500 (Central Daylight Time),248034.30000001192,cherry,800,I,z,z,None,623,424.0,199.0,9,1,1962.699999988079,246071.60000002384,8104,cherry,NF,C,232991,232991,231462,232274,231462,233424,232791,232791,233424,6
5,test,1,con,0,m,Fri Mar 27 2026 10:03:38 GMT-0500 (Central Daylight Time),249932.90000000596,silver,800,I,z,z,None,562,362.0,200.0,81,1,1894.4000000059605,248038.5,8104,silver,NF,C,234957,234957,233428,234240,233429,235323,234757,234757,235323,7
6,test,1,con,1,z,Fri Mar 27 2026 10:03:38 GMT-0500 (Central Daylight Time),251782.40000000596,orange,900,I,z,z,None,403,203.0,200.0,18,1,1845.199999988079,249937.20000001788,8104,orange,NF,C,236956,236956,235327,236240,235328,237172,236756,236756,237172,8
7,test,1,con,1,z,Fri Mar 27 2026 10:03:38 GMT-0500 (Central Daylight Time),253615.30000001192,raisin,900,I,z,z,None,392,193.0,199.0,26,1,1829.0,251786.30000001192,8104,raisin,NF,C,238806,238806,237176,238089,237177,239005,238606,238606,239005,9
8,test,1,con,1,z,Fri Mar 27 2026 10:03:38 GMT-0500 (Central Daylight Time),255648.0,plum,1000,I,z,z,None,493,293.0,200.0,59,1,2028.0,253620.0,8104,plum,NF,C,240738,240738,239010,240022,239010,241038,240538,240538,241038,10
9,test,1,inc,1,m,Fri Mar 27 2026 10:03:38 GMT-0500 (Central Daylight Time),257797.30000001192,kiwi,1000,I,m,m,None,604,404.0,200.0,111,1,2144.5,255652.80000001192,8104,iron,NF,C,242771,242771,241043,242055,241043,243187,242571,242571,243187,11
10,test,1,inc,1,m,Fri Mar 27 2026 10:03:38 GMT-0500 (Central Daylight Time),259763.30000001192,lime,800,I,m,m,None,630,431.0,199.0,117,1,1961.699999988079,257801.60000002384,8104,zinc,NF,C,244720,244720,243192,244004,243192,245153,244521,244521,245153,12
11,test,1,con,1,z,Fri Mar 27 2026 10:03:38 GMT-0500 (Central Daylight Time),261962.70000001788,kiwi,1100,I,z,z,None,565,365.0,200.0,52,1,2195.5,259767.20000001788,8104,kiwi,NF,C,246986,246986,245157,246270,245158,247353,246786,246786,247353,13
12,test,1,inc,1,m,Fri Mar 27 2026 10:03:38 GMT-0500 (Central Daylight Time),264053.60000002384,pear,900,I,m,m,None,541,341.0,200.0,110,1,2086.4000000059605,261967.20000001788,8104,iron,NF,C,248986,248986,247357,248269,247358,249444,248786,248786,249444,14
13,test,1,inc,1,z,Fri Mar 27 2026 10:03:38 GMT-0500 (Central Daylight Time),265978.0,bronze,800,I,z,z,None,599,399.0,200.0,5,1,1919.5999999940395,264058.40000000596,8104,banana,NF,C,250968,250968,249448,250252,249449,251368,250768,250768,251368,15
14,test,1,con,1,m,Fri Mar 27 2026 10:03:38 GMT-0500 (Central Daylight Time),268294.0,iron,1100,I,m,m,None,678,478.0,200.0,108,1,2311.399999976158,265982.60000002384,8104,iron,NF,C,253201,253201,251373,252485,251373,253684,253001,253001,253684,16
15,test,1,con,1,m,Fri Mar 27 2026 10:03:38 GMT-0500 (Central Daylight Time),270543.2000000179,lead,1000,I,m,m,None,710,510.0,200.0,123,1,2245.300000011921,268297.90000000596,8104,lead,NF,C,255417,255417,253688,254701,253688,255933,255217,255217,255933,17
16,test,1,inc,1,z,Fri Mar 27 2026 10:03:38 GMT-0500 (Central Daylight Time),272642.60000002384,zinc,1000,I,z,z,None,565,365.0,200.0,55,1,2095.4000000059605,270547.2000000179,8104,kiwi,NF,C,257666,257666,255937,256950,255938,258033,257466,257466,258033,18
17,test,1,con,1,z,Fri Mar 27 2026 10:03:38 GMT-0500 (Central Daylight Time),274441.90000000596,raisin,800,I,z,z,None,456,257.0,199.0,25,1,1795.199999988079,272646.7000000179,8104,raisin,NF,C,259566,259566,258037,258849,258037,259832,259366,259366,259832,19
18,test,1,inc,1,z,Fri Mar 27 2026 10:03:38 GMT-0500 (Central Daylight Time),276541.5,iron,900,I,z,z,None,654,454.0,200.0,54,1,2095.699999988079,274445.8000000119,8104,kiwi,NF,C,261465,261465,259836,260749,259836,261932,261265,261265,261931,20
19,test,1,con,1,z,Fri Mar 27 2026 10:03:38 GMT-0500 (Central Daylight Time),278657.3000000119,cherry,1100,I,z,z,None,482,283.0,199.0,12,1,2111.4000000059605,276545.90000000596,8104,cherry,NF,C,263764,263764,261936,263048,261936,264047,263565,263565,264047,21
20,test,1,inc,1,m,Fri Mar 27 2026 10:03:38 GMT-0500 (Central Daylight Time),280923.40000000596,raisin,1100,I,m,m,None,622,423.0,199.0,72,1,2261.0999999940395,278662.3000000119,8104,bronze,NF,C,265880,265880,264052,265164,264053,266313,265681,265681,266313,22
21,test,1,inc,1,m,Fri Mar 27 2026 10:03:38 GMT-0500 (Central Daylight Time),282822.90000000596,lime,800,I,m,m,None,552,353.0,199.0,109,1,1894.4000000059605,280928.5,8104,iron,NF,C,267846,267846,266319,267130,266319,268213,267647,267647,268213,23
22,test,1,inc,1,m,Fri Mar 27 2026 10:03:38 GMT-0500 (Central Daylight Time),285022.10000002384,orange,1000,I,m,m,None,653,453.0,200.0,95,1,2195.0,282827.10000002384,8104,cobalt,NF,C,269946,269946,268217,269229,268217,270412,269746,269746,270412,24
23,test,1,con,1,z,Fri Mar 27 2026 10:03:38 GMT-0500 (Central Daylight Time),287289.2000000179,orange,1100,I,z,z,None,625,426.0,199.0,20,1,2263.5,285025.7000000179,8104,orange,NF,C,272245,272245,270416,271529,270416,272679,272046,272046,272679,25
24,test,1,inc,1,z,Fri Mar 27 2026 10:03:38 GMT-0500 (Central Daylight Time),289554.10000002384,cobalt,1100,I,z,z,None,624,424.0,200.0,24,1,2260.2000000178814,287293.90000000596,8104,orange,NF,C,274511,274511,272684,273795,272684,274944,274311,274311,274944,26
25,test,1,con,1,m,Fri Mar 27 2026 10:03:38 GMT-0500 (Central Daylight Time),291686.60000002384,silver,1100,I,m,m,None,486,286.0,200.0,84,1,2128.800000011921,289557.8000000119,8104,silver,NF,C,276777,276777,274948,276061,274948,277077,276577,276577,277077,27
26,test,1,con,1,z,Fri Mar 27 2026 10:03:38 GMT-0500 (Central Daylight Time),293885.90000000596,banana,1100,I,z,z,None,552,353.0,199.0,4,1,2195.2999999821186,291690.60000002384,8104,banana,NF,C,278910,278910,277081,278193,277081,279276,278710,278710,279276,28
27,test,1,inc,1,m,Fri Mar 27 2026 10:03:38 GMT-0500 (Central Daylight Time),296118.60000002384,raisin,1100,I,m,m,None,594,394.0,200.0,96,1,2228.600000023842,293890.0,8104,cobalt,NF,C,281109,281109,279280,280393,279280,281509,280909,280909,281509,29
28,test,1,inc,1,z,Fri Mar 27 2026 10:03:38 GMT-0500 (Central Daylight Time),298051.40000000596,gold,800,I,z,z,None,588,389.0,199.0,45,1,1928.9000000059605,296122.5,8104,pear,NF,C,283042,283042,281513,282325,281513,283441,282842,282842,283441,30
29,test,1,inc,1,m,Fri Mar 27 2026 10:03:38 GMT-0500 (Central Daylight Time),300118.5,cherry,900,I,m,m,None,621,421.0,200.0,86,1,2063.2999999821186,298055.2000000179,8104,silver,NF,C,285074,285074,283445,284358,283446,285509,284874,284874,285509,31
30,test,1,inc,1,z,Fri Mar 27 2026 10:03:38 GMT-0500 (Central Daylight Time),302283.40000000596,gold,800,I,z,z,None,838,639.0,199.0,37,1,2161.199999988079,300122.2000000179,8104,lime,NF,C,287024,287024,285512,286324,285512,287673,286825,286825,287673,32
31,test,1,inc,1,z,Fri Mar 27 2026 10:03:38 GMT-0500 (Central Daylight Time),304249.8000000119,gold,800,I,z,z,None,624,424.0,200.0,61,1,1962.5999999940395,302287.2000000179,8104,plum,NF,C,289206,289207,287677,288490,287677,289640,289006,289006,289640,33
32,test,1,con,1,m,Fri Mar 27 2026 10:03:38 GMT-0500 (Central Daylight Time),306148.7000000179,lead,800,I,m,m,None,555,355.0,200.0,121,1,1894.0,304254.7000000179,8104,lead,NF,C,291172,291172,289645,290456,289645,291539,290972,290972,291539,34
33,test,1,con,1,z,Fri Mar 27 2026 10:03:38 GMT-0500 (Central Daylight Time),308065.0,banana,800,I,z,z,None,575,375.0,200.0,1,1,1912.699999988079,306152.3000000119,8104,banana,NF,C,293072,293072,291542,292356,291543,293455,292872,292872,293455,35
34,test,1,inc,1,z,Fri Mar 27 2026 10:03:38 GMT-0500 (Central Daylight Time),310080.8000000119,copper,900,I,z,z,None,575,375.0,200.0,22,1,2011.699999988079,308069.10000002384,8104,orange,NF,C,295088,295088,293459,294372,293459,295471,294888,294888,295471,36
35,test,1,inc,1,z,Fri Mar 27 2026 10:03:38 GMT-0500 (Central Daylight Time),312180.3000000119,iron,900,I,z,z,None,537,338.0,199.0,46,1,2095.300000011921,310085.0,8104,pear,NF,C,297221,297221,295475,296512,295475,297570,297021,297021,297570,37
36,test,1,con,1,m,Fri Mar 27 2026 10:03:38 GMT-0500 (Central Daylight Time),314229.60000002384,copper,900,I,m,m,None,604,404.0,200.0,74,1,2045.2000000178814,312184.40000000596,8104,copper,NF,C,299203,299203,297574,298487,297575,299620,299003,299003,299620,38
37,test,1,inc,1,m,Fri Mar 27 2026 10:03:38 GMT-0500 (Central Daylight Time),316412.2000000179,cherry,900,I,m,m,None,737,538.0,199.0,78,1,2179.0999999940395,314233.10000002384,8104,copper,NF,C,301253,301253,299623,300536,299623,301802,301053,301053,301802,39
37,test,1,inc,0,m,Fri Mar 27 2026 10:03:38 GMT-0500 (Central Daylight Time),318444.8000000119,cherry,900,I,z,z,None,596,396.0,200.0,70,1,2028.0999999940395,316416.7000000179,8104,bronze,NF,C,303435,303435,301807,302719,301807,303835,303235,303235,303835,40
38,test,1,inc,1,z,Fri Mar 27 2026 10:03:38 GMT-0500 (Central Daylight Time),320544.2000000179,silver,1000,I,z,z,None,559,359.0,200.0,23,1,2095.4000000059605,318448.8000000119,8104,orange,NF,C,305568,305568,303839,304851,303839,305934,305368,305368,305934,41
39,test,1,con,1,z,Fri Mar 27 2026 10:03:38 GMT-0500 (Central Daylight Time),322876.90000000596,lime,1100,I,z,z,None,696,496.0,200.0,36,1,2328.5,320548.40000000596,8104,lime,NF,C,307767,307767,305938,307051,305939,308267,307567,307567,308267,42
40,test,1,inc,1,m,Fri Mar 27 2026 10:03:38 GMT-0500 (Central Daylight Time),324742.8000000119,lime,800,I,m,m,None,519,319.0,200.0,125,1,1862.0999999940395,322880.7000000179,8104,lead,NF,C,309800,309800,308271,309084,308271,310133,309600,309600,310133,43
41,test,1,inc,1,z,Fri Mar 27 2026 10:03:38 GMT-0500 (Central Daylight Time),326759.0,copper,900,I,z,z,None,577,377.0,200.0,14,1,2012.5999999940395,324746.40000000596,8104,cherry,NF,C,311766,311766,310136,311050,310137,312149,311566,311566,312149,44
42,test,1,inc,1,m,Fri Mar 27 2026 10:03:38 GMT-0500 (Central Daylight Time),328941.60000002384,kiwi,1000,I,m,m,None,637,437.0,200.0,119,1,2178.7000000178814,326762.90000000596,8104,zinc,NF,C,313882,313882,312153,313166,312153,314332,313682,313682,314332,45
43,test,1,con,1,z,Fri Mar 27 2026 10:03:38 GMT-0500 (Central Daylight Time),330924.40000000596,orange,800,I,z,z,None,637,438.0,199.0,17,1,1979.199999988079,328945.2000000179,8104,orange,NF,C,315865,315865,314335,315148,314336,316314,315665,315665,316314,46
44,test,1,inc,1,m,Fri Mar 27 2026 10:03:38 GMT-0500 (Central Daylight Time),332890.40000000596,banana,800,I,m,m,None,638,423.0,215.0,69,1,1962.2999999821186,330928.10000002384,8104,bronze,NF,C,317848,317848,316318,317131,316318,318280,317632,317632,318280,47
45,test,1,inc,1,z,Fri Mar 27 2026 10:03:38 GMT-0500 (Central Daylight Time),334940.10000002384,iron,900,I,z,z,None,613,414.0,199.0,38,1,2046.2000000178814,332893.90000000596,8104,lime,NF,C,319913,319913,318284,319197,318284,320330,319714,319714,320330,48
46,test,1,inc,1,z,Fri Mar 27 2026 10:03:38 GMT-0500 (Central Daylight Time),337189.0,zinc,1000,I,z,z,None,704,504.0,200.0,47,1,2242.5999999940395,334946.40000000596,8104,pear,NF,C,322063,322063,320336,321346,320337,322579,321863,321863,322579,49
47,test,1,con,1,m,Fri Mar 27 2026 10:03:38 GMT-0500 (Central Daylight Time),339055.10000002384,lead,900,I,m,m,None,419,219.0,200.0,122,1,1861.9000000059605,337193.2000000179,8104,lead,NF,C,324212,324212,322583,323496,322584,324445,324012,324012,324445,50
48,test,1,inc,1,z,Fri Mar 27 2026 10:03:38 GMT-0500 (Central Daylight Time),341087.7000000179,copper,900,I,z,z,None,585,385.0,200.0,6,1,2028.7000000178814,339059.0,8104,banana,NF,C,326078,326078,324449,325362,324449,326478,325878,325878,326478,51
48,test,1,inc,0,z,Fri Mar 27 2026 10:03:38 GMT-0500 (Central Daylight Time),343120.5,gold,800,I,m,m,None,684,484.0,200.0,53,1,2029.199999988079,341091.3000000119,8104,kiwi,NF,C,328011,328011,326481,327294,326482,328511,327811,327811,328511,52
49,test,1,con,1,m,Fri Mar 27 2026 10:03:38 GMT-0500 (Central Daylight Time),345369.7000000179,gold,1100,I,m,m,None,606,407.0,199.0,100,1,2244.9000000059605,343124.8000000119,8104,gold,NF,C,330344,330344,328515,329627,328515,330760,330144,330144,330760,53
50,test,1,con,1,m,Fri Mar 27 2026 10:03:38 GMT-0500 (Central Daylight Time),347585.8000000119,copper,1000,I,m,m,None,682,481.0,201.0,75,1,2212.4000000059605,345373.40000000596,8104,copper,NF,C,332494,332494,330763,331776,330764,332976,332293,332293,332976,54
51,test,1,con,1,z,Fri Mar 27 2026 10:03:38 GMT-0500 (Central Daylight Time),349568.5,plum,800,I,z,z,None,632,417.0,215.0,57,1,1979.0,347589.5,8104,plum,NF,C,334526,334526,332980,333792,332980,334959,334310,334310,334959,55
52,test,1,con,1,z,Fri Mar 27 2026 10:03:38 GMT-0500 (Central Daylight Time),351601.2000000179,raisin,1000,I,z,z,None,499,300.0,199.0,27,1,2029.0999999940395,349572.10000002384,8104,raisin,NF,C,336691,336691,334962,335975,334962,336991,336492,336492,336991,56
53,test,1,inc,1,z,Fri Mar 27 2026 10:03:38 GMT-0500 (Central Daylight Time),354033.7000000179,lead,1100,I,z,z,None,799,599.0,200.0,64,1,2428.5999999940395,351605.10000002384,8104,plum,NF,C,338824,338824,336995,338108,336995,339424,338624,338624,339424,57
54,test,1,inc,1,m,Fri Mar 27 2026 10:03:38 GMT-0500 (Central Daylight Time),356099.7000000179,orange,1000,I,m,m,None,529,330.0,199.0,87,1,2062.2000000178814,354037.5,8104,silver,NF,C,341157,341157,339428,340441,339428,341490,340957,340957,341490,58
55,test,1,con,1,m,Fri Mar 27 2026 10:03:38 GMT-0500 (Central Daylight Time),357882.5,zinc,800,I,m,m,None,448,248.0,200.0,113,1,1779.0999999940395,356103.40000000596,8104,zinc,NF,C,343023,343023,341493,342306,341494,343273,342823,342823,343273,59
56,test,1,inc,1,z,Fri Mar 27 2026 10:03:38 GMT-0500 (Central Daylight Time),359931.8000000119,copper,900,I,z,z,None,612,413.0,199.0,30,1,2045.199999988079,357886.60000002384,8104,raisin,NF,C,344906,344906,343277,344189,343277,345322,344706,344706,345322,60
57,test,1,con,1,z,Fri Mar 27 2026 10:03:38 GMT-0500 (Central Daylight Time),362247.7000000179,plum,1100,I,z,z,None,676,476.0,200.0,60,1,2311.7000000178814,359936.0,8104,plum,NF,C,347155,347155,345326,346439,345326,347638,346955,346955,347638,61
58,test,1,con,1,z,Fri Mar 27 2026 10:03:38 GMT-0500 (Central Daylight Time),364280.5,pear,1000,I,z,z,None,492,292.0,200.0,43,1,2028.5999999940395,362251.90000000596,8104,pear,NF,C,349371,349371,347642,348654,347642,349671,349171,349171,349671,62
59,test,1,con,1,m,Fri Mar 27 2026 10:03:38 GMT-0500 (Central Daylight Time),366263.10000002384,bronze,1000,I,m,m,None,443,244.0,199.0,67,1,1978.1000000238419,364285.0,8104,bronze,NF,C,351403,351403,349675,350687,349675,351653,351204,351204,351653,63
60,test,1,con,1,m,Fri Mar 27 2026 10:03:38 GMT-0500 (Central Daylight Time),368262.7000000179,silver,1000,I,m,m,None,453,253.0,200.0,83,1,1995.9000000059605,366266.8000000119,8104,silver,NF,C,353386,353386,351657,352672,351657,353653,353186,353186,353653,64
61,test,1,con,1,m,Fri Mar 27 2026 10:03:38 GMT-0500 (Central Daylight Time),370561.90000000596,bronze,1100,I,m,m,None,657,457.0,200.0,68,1,2294.699999988079,368267.2000000179,8104,bronze,NF,C,355486,355486,353657,354770,353657,355952,355286,355286,355952,65
62,test,1,con,1,m,Fri Mar 27 2026 10:03:38 GMT-0500 (Central Daylight Time),372444.60000002384,bronze,900,I,m,m,None,446,246.0,200.0,66,1,1879.0,370565.60000002384,8104,bronze,NF,C,357585,357585,355956,356868,355956,357835,357385,357385,357835,66
62,test,1,con,0,m,Fri Mar 27 2026 10:03:38 GMT-0500 (Central Daylight Time),374377.40000000596,cobalt,900,I,z,z,None,499,299.0,200.0,90,1,1929.199999988079,372448.2000000179,8104,cobalt,NF,C,359468,359468,357838,358751,357838,359767,359268,359268,359767,67
63,test,1,con,1,m,Fri Mar 27 2026 10:03:38 GMT-0500 (Central Daylight Time),376476.60000002384,gold,900,I,m,m,None,663,463.0,200.0,98,1,2095.7000000178814,374380.90000000596,8104,gold,NF,C,361400,361400,359771,360684,359771,361867,361200,361200,361867,68
64,test,1,inc,1,m,Fri Mar 27 2026 10:03:38 GMT-0500 (Central Daylight Time),378476.10000002384,banana,800,I,m,m,None,655,455.0,200.0,77,1,1995.7000000178814,376480.40000000596,8104,copper,NF,C,363400,363400,361870,362683,361871,363866,363200,363200,363866,69
65,test,1,con,1,z,Fri Mar 27 2026 10:03:38 GMT-0500 (Central Daylight Time),380642.0,kiwi,900,I,z,z,None,724,524.0,200.0,50,1,2162.0999999940395,378479.90000000596,8104,kiwi,NF,C,365499,365499,363870,364783,363870,366032,365299,365299,366032,70
66,test,1,con,1,z,Fri Mar 27 2026 10:03:38 GMT-0500 (Central Daylight Time),382741.60000002384,pear,1100,I,z,z,None,453,254.0,199.0,44,1,2095.7000000178814,380645.90000000596,8104,pear,NF,C,367865,367865,366036,367151,366036,368132,367665,367666,368132,71
67,test,1,con,1,z,Fri Mar 27 2026 10:03:38 GMT-0500 (Central Daylight Time),384591.0,pear,800,I,z,z,None,501,302.0,199.0,41,1,1845.2999999821186,382745.7000000179,8104,pear,NF,C,369665,369665,368136,368948,368136,369981,369465,369465,369981,72
68,test,1,inc,1,m,Fri Mar 27 2026 10:03:38 GMT-0500 (Central Daylight Time),386807.0,plum,1100,I,m,m,None,577,377.0,200.0,104,1,2211.699999988079,384595.3000000119,8104,gold,NF,C,371814,371814,369985,371097,369986,372197,371614,371614,372197,73
69,test,1,con,1,m,Fri Mar 27 2026 10:03:38 GMT-0500 (Central Daylight Time),388772.8000000119,gold,1000,I,m,m,None,428,229.0,199.0,99,1,1961.800000011921,386811.0,8104,gold,NF,C,373930,373930,372201,373213,372201,374163,373730,373730,374163,74
70,test,1,inc,1,z,Fri Mar 27 2026 10:03:38 GMT-0500 (Central Daylight Time),391056.10000002384,lead,1100,I,z,z,None,634,435.0,199.0,56,1,2279.4000000059605,388776.7000000179,8104,kiwi,NF,C,375996,375996,374167,375279,374167,376446,375796,375796,376446,75
71,test,1,con,1,z,Fri Mar 27 2026 10:03:38 GMT-0500 (Central Daylight Time),393188.0,raisin,1100,I,z,z,None,495,296.0,199.0,28,1,2128.199999988079,391059.8000000119,8104,raisin,NF,C,378278,378279,376450,377562,376450,378578,378078,378079,378578,76
72,test,1,inc,1,z,Fri Mar 27 2026 10:03:38 GMT-0500 (Central Daylight Time),395520.7000000179,cobalt,1100,I,z,z,None,692,492.0,200.0,16,1,2328.4000000059605,393192.3000000119,8104,cherry,NF,C,380411,380411,378582,379695,378583,380911,380211,380211,380911,77
73,test,1,inc,1,z,Fri Mar 27 2026 10:03:38 GMT-0500 (Central Daylight Time),397403.40000000596,bronze,800,I,z,z,None,539,339.0,200.0,21,1,1878.9000000059605,395524.5,8104,orange,NF,C,382444,382444,380915,381727,380915,382793,382244,382244,382793,78
74,test,1,inc,1,z,Fri Mar 27 2026 10:03:38 GMT-0500 (Central Daylight Time),399636.0,cobalt,1100,I,z,z,None,596,397.0,199.0,8,1,2229.0999999940395,397406.90000000596,8104,banana,NF,C,384626,384626,382797,383910,382797,385026,384427,384427,385026,79
75,test,1,con,1,z,Fri Mar 27 2026 10:03:38 GMT-0500 (Central Daylight Time),401685.5,banana,1000,I,z,z,None,504,304.0,200.0,3,1,2045.3999999761581,399640.10000002384,8104,banana,NF,C,386759,386759,385030,386043,385030,387076,386559,386559,387076,80
76,test,1,inc,1,m,Fri Mar 27 2026 10:03:38 GMT-0500 (Central Daylight Time),403884.8000000119,plum,1100,I,m,m,None,561,362.0,199.0,120,1,2195.199999988079,401689.60000002384,8104,zinc,NF,C,388908,388909,387080,388193,387080,389275,388709,388709,389275,81
77,test,1,inc,1,m,Fri Mar 27 2026 10:03:38 GMT-0500 (Central Daylight Time),405934.3000000119,pear,900,I,m,m,None,611,300.0,311.0,118,1,2045.5999999940395,403888.7000000179,8104,zinc,NF,C,391019,391019,389279,390191,389279,391324,390708,390708,391324,82
78,test,1,con,1,z,Fri Mar 27 2026 10:03:38 GMT-0500 (Central Daylight Time),407916.8000000119,lime,800,I,z,z,None,638,438.0,200.0,33,1,1978.9000000059605,405937.90000000596,8104,lime,NF,C,392857,392857,391328,392141,391328,393307,392657,392657,393307,83
79,test,1,con,1,m,Fri Mar 27 2026 10:03:38 GMT-0500 (Central Daylight Time),410032.8000000119,copper,1100,I,m,m,None,475,275.0,200.0,76,1,2112.0,407920.8000000119,8104,copper,NF,C,395140,395140,393311,394423,393311,395423,394940,394940,395423,84
80,test,1,inc,1,m,Fri Mar 27 2026 10:03:38 GMT-0500 (Central Daylight Time),412015.7000000179,banana,800,I,m,m,None,643,443.0,200.0,85,1,1978.300000011921,410037.40000000596,8104,silver,NF,C,396956,396956,395427,396239,395428,397406,396756,396756,397406,85
81,test,1,con,1,z,Fri Mar 27 2026 10:03:38 GMT-0500 (Central Daylight Time),414098.3000000119,banana,900,I,z,z,None,639,440.0,199.0,2,1,2078.9000000059605,412019.40000000596,8104,banana,NF,C,399039,399039,397409,398322,397410,399488,398839,398839,399488,86
82,test,1,con,1,z,Fri Mar 27 2026 10:03:38 GMT-0500 (Central Daylight Time),415930.90000000596,plum,900,I,z,z,None,405,206.0,199.0,58,1,1829.0,414101.90000000596,8104,plum,NF,C,401105,401105,399492,400405,399492,401321,400906,400906,401321,87
83,test,1,inc,1,m,Fri Mar 27 2026 10:03:38 GMT-0500 (Central Daylight Time),418180.3000000119,plum,1100,I,m,m,None,605,405.0,200.0,112,1,2244.800000011921,415935.5,8104,iron,NF,C,403154,403154,401326,402438,401326,403570,402954,402954,403570,88
84,test,1,con,1,m,Fri Mar 27 2026 10:03:38 GMT-0500 (Central Daylight Time),420462.8000000119,silver,900,I,m,m,None,843,643.0,200.0,82,1,2278.9000000059605,418183.90000000596,8104,silver,NF,C,405204,405204,403574,404487,403574,405853,405003,405004,405853,89
85,test,1,con,1,m,Fri Mar 27 2026 10:03:38 GMT-0500 (Central Daylight Time),422262.40000000596,cobalt,800,I,m,m,None,453,253.0,200.0,89,1,1795.5,420466.90000000596,8104,cobalt,NF,C,407386,407386,405857,406670,405857,407652,407186,407186,407652,90
86,test,1,inc,1,z,Fri Mar 27 2026 10:03:38 GMT-0500 (Central Daylight Time),424328.40000000596,silver,1000,I,z,z,None,517,318.0,199.0,31,1,2062.2999999821186,422266.10000002384,8104,raisin,NF,C,409385,409385,407656,408669,407656,409718,409186,409186,409718,91
87,test,1,inc,1,m,Fri Mar 27 2026 10:03:38 GMT-0500 (Central Daylight Time),426377.7000000179,pear,900,I,m,m,None,606,406.0,200.0,102,1,2045.0,424332.7000000179,8104,gold,NF,C,411353,411353,409723,410635,409723,411768,411152,411152,411768,92
88,test,1,inc,1,m,Fri Mar 27 2026 10:03:38 GMT-0500 (Central Daylight Time),428510.3000000119,raisin,1100,I,m,m,None,493,294.0,199.0,88,1,2128.9000000059605,426381.40000000596,8104,silver,NF,C,413601,413601,411771,412884,411772,413900,413401,413401,413900,93
89,test,1,inc,1,m,Fri Mar 27 2026 10:03:38 GMT-0500 (Central Daylight Time),430543.10000002384,banana,800,I,m,m,None,693,494.0,199.0,93,1,2028.5,428514.60000002384,8104,cobalt,NF,C,415433,415433,413905,414719,413905,415933,415234,415234,415933,94
90,test,1,inc,1,m,Fri Mar 27 2026 10:03:38 GMT-0500 (Central Daylight Time),432742.40000000596,raisin,1100,I,m,m,None,561,361.0,200.0,80,1,2194.9000000059605,430547.5,8104,copper,NF,C,417766,417766,415938,417050,415938,418132,417566,417566,418132,95
91,test,1,con,1,m,Fri Mar 27 2026 10:03:38 GMT-0500 (Central Daylight Time),434858.5,cobalt,1100,I,m,m,None,473,274.0,199.0,92,1,2112.0999999940395,432746.40000000596,8104,cobalt,NF,C,419965,419965,418136,419250,418137,420249,419766,419766,420249,96
92,test,1,con,1,m,Fri Mar 27 2026 10:03:38 GMT-0500 (Central Daylight Time),436757.7000000179,zinc,1000,I,m,m,None,362,161.0,201.0,115,1,1895.300000011921,434862.40000000596,8104,zinc,NF,C,421982,421982,420252,421267,420253,422148,421781,421781,422148,97
93,test,1,con,1,m,Fri Mar 27 2026 10:03:38 GMT-0500 (Central Daylight Time),438474.0,copper,800,I,m,m,None,382,182.0,200.0,73,1,1712.3999999761581,436761.60000002384,8104,copper,NF,C,423681,423681,422152,422964,422152,423864,423481,423481,423864,98
93,test,1,con,0,z,Fri Mar 27 2026 10:03:38 GMT-0500 (Central Daylight Time),440406.60000002384,lime,900,I,m,m,None,494,293.0,201.0,34,1,1928.9000000059605,438477.7000000179,8104,lime,NF,C,425498,425498,423868,424781,423868,425797,425297,425297,425797,99
94,test,1,inc,1,z,Fri Mar 27 2026 10:03:38 GMT-0500 (Central Daylight Time),442489.7000000179,lead,1100,I,z,z,None,448,249.0,199.0,48,1,2079.300000011921,440410.40000000596,8104,pear,NF,C,427630,427630,425800,426913,425801,427880,427430,427430,427880,100
95,test,1,inc,1,m,Fri Mar 27 2026 10:03:38 GMT-0500 (Central Daylight Time),444705.3000000119,plum,1100,I,m,m,None,582,383.0,199.0,128,1,2211.699999988079,442493.60000002384,8104,lead,NF,C,429712,429712,427884,428996,427884,430095,429512,429513,430095,101
95,test,1,con,0,m,Fri Mar 27 2026 10:03:38 GMT-0500 (Central Daylight Time),446738.2000000179,gold,800,I,z,z,None,689,490.0,199.0,97,1,2029.2000000178814,444709.0,8104,gold,NF,C,431628,431629,430099,430912,430099,432128,431429,431429,432128,102
95,test,1,con,0,z,Fri Mar 27 2026 10:03:38 GMT-0500 (Central Daylight Time),450270.3000000119,kiwi,1000,I,None,None,None,1799,1799.0,200.0,51,1,3528.0999999940395,446742.2000000179,8104,kiwi,NF,C,433861,433861,432132,433145,432132,435660,433661,433661,435660,103
96,test,1,inc,1,z,Fri Mar 27 2026 10:03:38 GMT-0500 (Central Daylight Time),452402.90000000596,zinc,1000,I,z,z,None,598,398.0,200.0,39,1,2129.0,450273.90000000596,8104,lime,NF,C,437393,437393,435664,436677,435664,437793,437193,437193,437793,104
97,test,1,inc,1,m,Fri Mar 27 2026 10:03:38 GMT-0500 (Central Daylight Time),454468.90000000596,kiwi,1000,I,m,m,None,529,329.0,200.0,127,1,2062.2999999821186,452406.60000002384,8104,lead,NF,C,439526,439526,437797,438810,437797,439859,439326,439326,439859,105
98,test,1,inc,1,z,Fri Mar 27 2026 10:03:38 GMT-0500 (Central Daylight Time),456668.3000000119,zinc,1000,I,z,z,None,655,455.0,200.0,63,1,2195.0999999940395,454473.2000000179,8104,plum,NF,C,441592,441592,439863,440875,439863,442058,441392,441392,442058,106
99,test,1,con,1,m,Fri Mar 27 2026 10:03:38 GMT-0500 (Central Daylight Time),458701.0,iron,900,I,m,m,None,588,388.0,200.0,106,1,2028.5999999940395,456672.40000000596,8104,iron,NF,C,443691,443691,442062,442975,442063,444091,443491,443491,444091,107
99,test,1,inc,0,m,Fri Mar 27 2026 10:03:38 GMT-0500 (Central Daylight Time),460850.2000000179,kiwi,1000,I,z,z,None,615,415.0,200.0,103,1,2145.2000000178814,458705.0,8104,gold,NF,C,445824,445824,444095,445108,444095,446240,445624,445624,446240,108
100,test,1,inc,1,z,Fri Mar 27 2026 10:03:38 GMT-0500 (Central Daylight Time),463082.90000000596,cobalt,1100,I,z,z,None,590,390.0,200.0,32,1,2228.4000000059605,460854.5,8104,raisin,NF,C,448073,448073,446245,447357,446245,448473,447873,447873,448473,109
101,test,1,inc,1,m,Fri Mar 27 2026 10:03:38 GMT-0500 (Central Daylight Time),465132.2000000179,pear,900,I,m,m,None,605,405.0,200.0,126,1,2045.0,463087.2000000179,8104,lead,NF,C,450106,450106,448477,449389,448477,450522,449906,449906,450522,110
102,test,1,inc,1,m,Fri Mar 27 2026 10:03:38 GMT-0500 (Central Daylight Time),467331.60000002384,orange,1000,I,m,m,None,664,464.0,200.0,79,1,2195.2000000178814,465136.40000000596,8104,copper,NF,C,452255,452255,450526,451539,450527,452722,452055,452055,452722,111
103,test,1,con,1,m,Fri Mar 27 2026 10:03:38 GMT-0500 (Central Daylight Time),469280.90000000596,iron,800,I,m,m,None,616,416.0,200.0,105,1,1945.699999988079,467335.2000000179,8104,iron,NF,C,454255,454255,452725,453538,452726,454671,454055,454055,454671,112
104,test,1,inc,1,z,Fri Mar 27 2026 10:03:38 GMT-0500 (Central Daylight Time),471230.40000000596,bronze,800,I,z,z,None,603,403.0,200.0,13,1,1945.9000000059605,469284.5,8104,cherry,NF,C,456204,456204,454675,455488,454675,456620,456004,456004,456620,113
105,test,1,inc,1,z,Fri Mar 27 2026 10:03:38 GMT-0500 (Central Daylight Time),473312.90000000596,silver,1000,I,z,z,None,550,350.0,200.0,7,1,2078.7999999821186,471234.10000002384,8104,banana,NF,C,458353,458353,456624,457637,456624,458703,458153,458153,458703,114
106,test,1,con,1,z,Fri Mar 27 2026 10:03:38 GMT-0500 (Central Daylight Time),475512.3000000119,pear,900,I,z,z,None,759,559.0,200.0,42,1,2195.699999988079,473316.60000002384,8104,pear,NF,C,460336,460336,458707,459620,458707,460902,460136,460136,460902,115
107,test,1,inc,1,z,Fri Mar 27 2026 10:03:38 GMT-0500 (Central Daylight Time),477628.2000000179,silver,1000,I,z,z,None,580,380.0,200.0,15,1,2112.2000000178814,475516.0,8104,cherry,NF,C,462635,462635,460906,461919,460906,463018,462435,462435,463018,116
108,test,1,inc,1,m,Fri Mar 27 2026 10:03:38 GMT-0500 (Central Daylight Time),479661.10000002384,cherry,900,I,m,m,None,588,388.0,200.0,94,1,2029.0,477632.10000002384,8104,cobalt,NF,C,464651,464651,463022,463935,463022,465051,464451,464451,465051,117
109,test,1,inc,1,m,Fri Mar 27 2026 10:03:38 GMT-0500 (Central Daylight Time),481627.0,orange,1000,I,m,m,None,431,231.0,200.0,71,1,1962.0999999940395,479664.90000000596,8104,bronze,NF,C,466784,466784,465055,466068,465055,467017,466584,466584,467017,118
110,test,1,con,1,z,Fri Mar 27 2026 10:03:38 GMT-0500 (Central Daylight Time),483659.7000000179,cherry,900,I,z,z,None,597,397.0,200.0,10,1,2029.0999999940395,481630.60000002384,8104,cherry,NF,C,468650,468650,467021,467934,467021,469050,468450,468450,469050,119
111,test,1,inc,1,z,Fri Mar 27 2026 10:03:38 GMT-0500 (Central Daylight Time),485992.5,lead,1100,I,z,z,None,683,484.0,199.0,40,1,2329.2999999821186,483663.2000000179,8104,lime,NF,C,470883,470883,469053,470166,469054,471383,470683,470683,471383,120
112,test,1,con,1,m,Fri Mar 27 2026 10:03:38 GMT-0500 (Central Daylight Time),488158.40000000596,cobalt,1000,I,m,m,None,627,427.0,200.0,91,1,2161.4000000059605,485997.0,8104,cobalt,NF,C,473115,473116,471387,472399,471387,473548,472915,472915,473548,121
113,test,1,con,1,m,Fri Mar 27 2026 10:03:38 GMT-0500 (Central Daylight Time),490174.40000000596,zinc,900,I,m,m,None,576,377.0,199.0,114,1,2012.2999999821186,488162.10000002384,8104,zinc,NF,C,475182,475182,473552,474465,473552,475564,474982,474982,475564,122
114,test,1,con,1,m,Fri Mar 27 2026 10:03:38 GMT-0500 (Central Daylight Time),492390.40000000596,lead,1100,I,m,m,None,578,378.0,200.0,124,1,2212.4000000059605,490178.0,8104,lead,NF,C,477397,477397,475568,476681,475568,477780,477197,477197,477780,123
115,test,1,con,1,m,Fri Mar 27 2026 10:03:38 GMT-0500 (Central Daylight Time),494439.7000000179,zinc,1100,I,m,m,None,410,210.0,200.0,116,1,2045.800000011921,492393.90000000596,8104,zinc,NF,C,479613,479613,477784,478897,477784,479830,479413,479413,479830,124
115,test,1,con,0,z,Fri Mar 27 2026 10:03:38 GMT-0500 (Central Daylight Time),496405.7000000179,lime,1000,I,m,m,None,427,228.0,199.0,35,1,1962.300000011921,494443.40000000596,8104,lime,NF,C,481563,481563,479833,480847,479834,481796,481363,481363,481796,125
116,test,1,con,1,z,Fri Mar 27 2026 10:03:38 GMT-0500 (Central Daylight Time),498155.10000002384,kiwi,800,I,z,z,None,414,214.0,200.0,49,1,1745.6000000238419,496409.5,8104,kiwi,NF,C,483329,483329,481800,482612,481800,483545,483129,483129,483545,126
117,test,1,con,1,m,Fri Mar 27 2026 10:03:38 GMT-0500 (Central Daylight Time),500171.3000000119,bronze,800,I,m,m,None,673,473.0,200.0,65,1,2012.699999988079,498158.60000002384,8104,bronze,NF,C,485078,485078,483549,484362,483549,485561,484878,484878,485561,127
118,test,1,inc,1,m,Fri Mar 27 2026 10:03:38 GMT-0500 (Central Daylight Time),502087.3000000119,lime,800,I,m,m,None,569,369.0,200.0,101,1,1911.800000011921,500175.5,8104,gold,NF,C,487094,487094,485566,486378,485566,487477,486894,486894,487477,128
