acc_sum,block,block_c,change,condition,correct,correct_response,datetime,endtime,face,project,response,response_time,row_sel,session_number,start_end,starttime,subject_id,task,task_vers,trial
0,prac,1,,1-Back,,,Thu Apr 30 2026 16:25:32 GMT-0500 (Central Daylight Time),,005_o_f_d_a.png,I,space,16319,1,2,,,8081,VNB,B,0
0,prac,1,0.0,1-Back,0.0,m,Thu Apr 30 2026 16:25:32 GMT-0500 (Central Daylight Time),168197.0,020_y_f_n_a.png,I,None,2009,2,2,2856.199999988079,165340.80000001192,8081,VNB,B,1
1,prac,1,0.0,1-Back,1.0,m,Thu Apr 30 2026 16:25:32 GMT-0500 (Central Daylight Time),170813.09999999404,007_m_m_h_a.png,I,m,1694,3,2,2610.199999988079,168202.90000000596,8081,VNB,B,2
2,prac,1,0.0,1-Back,1.0,m,Thu Apr 30 2026 16:25:32 GMT-0500 (Central Daylight Time),172378.90000000596,016_y_m_d_a.png,I,m,688,4,2,1558.0999999940395,170820.80000001192,8081,VNB,B,3
3,prac,1,0.0,1-Back,1.0,m,Thu Apr 30 2026 16:25:32 GMT-0500 (Central Daylight Time),174361.80000001192,005_o_f_n_a.png,I,m,1118,5,2,1978.800000011921,172383.0,8081,VNB,B,4
3,prac,1,1.0,1-Back,0.0,z,Thu Apr 30 2026 16:25:32 GMT-0500 (Central Daylight Time),175944.90000000596,016_y_m_n_a.png,I,m,706,6,2,1573.2000000178814,174371.69999998808,8081,VNB,B,5
4,prac,1,0.0,1-Back,1.0,m,Thu Apr 30 2026 16:25:32 GMT-0500 (Central Daylight Time),177777.59999999404,004_o_m_h_a.png,I,m,987,7,2,1828.5999999940395,175949.0,8081,VNB,B,6
4,prac,1,0.0,1-Back,0.0,m,Thu Apr 30 2026 16:25:32 GMT-0500 (Central Daylight Time),179793.30000001192,011_m_f_d_a.png,I,z,1147,8,2,2008.6000000238419,177784.69999998808,8081,VNB,B,7
4,prac,1,1.0,1-Back,0.0,z,Thu Apr 30 2026 16:25:32 GMT-0500 (Central Daylight Time),182659.30000001192,020_y_f_d_a.png,I,None,2016,9,2,2861.7000000178814,179797.59999999404,8081,VNB,B,8
4,prac,1,0.0,1-Back,0.0,m,Thu Apr 30 2026 16:25:32 GMT-0500 (Central Daylight Time),184642.5,007_m_m_n_a.png,I,z,1105,10,2,1972.5,182670.0,8081,VNB,B,9
4,prac,1,0.0,1-Back,0.0,m,Thu Apr 30 2026 16:25:32 GMT-0500 (Central Daylight Time),187507.90000000596,005_o_f_h_a.png,I,None,2006,11,2,2861.300000011921,184646.59999999404,8081,VNB,B,10
4,prac,1,0.0,1-Back,0.0,m,Thu Apr 30 2026 16:25:32 GMT-0500 (Central Daylight Time),190389.80000001192,016_y_m_d_a.png,I,None,2004,12,2,2871.4000000059605,187518.40000000596,8081,VNB,B,11
0,prac,2,0.0,1-Back,,,Thu Apr 30 2026 16:25:32 GMT-0500 (Central Daylight Time),190389.80000001192,005_o_f_d_a.png,I,a,10552,1,2,2871.4000000059605,187518.40000000596,8081,VNB,B,0
0,prac,2,0.0,1-Back,0.0,m,Thu Apr 30 2026 16:25:32 GMT-0500 (Central Daylight Time),206851.59999999404,020_y_f_n_a.png,I,None,2008,2,2,2854.7999999821186,203996.80000001192,8081,VNB,B,1
1,prac,2,0.0,1-Back,1.0,m,Thu Apr 30 2026 16:25:32 GMT-0500 (Central Daylight Time),208934.40000000596,007_m_m_h_a.png,I,m,1211,3,2,2079.0999999940395,206855.30000001192,8081,VNB,B,2
1,prac,2,0.0,1-Back,0.0,m,Thu Apr 30 2026 16:25:32 GMT-0500 (Central Daylight Time),211200.09999999404,016_y_m_d_a.png,I,z,1489,4,2,2256.7999999821186,208943.30000001192,8081,VNB,B,3
1,prac,2,0.0,1-Back,0.0,m,Thu Apr 30 2026 16:25:32 GMT-0500 (Central Daylight Time),214082.80000001192,005_o_f_n_a.png,I,None,2015,5,2,2878.9000000059605,211203.90000000596,8081,VNB,B,4
1,prac,2,1.0,1-Back,0.0,z,Thu Apr 30 2026 16:25:32 GMT-0500 (Central Daylight Time),216965.19999998808,016_y_m_n_a.png,I,None,2008,6,2,2875.0999999940395,214090.09999999404,8081,VNB,B,5
1,prac,2,0.0,1-Back,0.0,m,Thu Apr 30 2026 16:25:32 GMT-0500 (Central Daylight Time),219814.19999998808,004_o_m_h_a.png,I,None,2005,7,2,2845.2999999821186,216968.90000000596,8081,VNB,B,6
1,prac,2,0.0,1-Back,0.0,m,Thu Apr 30 2026 16:25:32 GMT-0500 (Central Daylight Time),222697.0,011_m_f_d_a.png,I,None,2014,8,2,2874.800000011921,219822.19999998808,8081,VNB,B,7
1,prac,2,1.0,1-Back,0.0,z,Thu Apr 30 2026 16:25:32 GMT-0500 (Central Daylight Time),225688.0,020_y_f_d_a.png,I,None,2005,9,2,2987.5999999940395,222700.40000000596,8081,VNB,B,8
1,prac,2,0.0,1-Back,0.0,m,Thu Apr 30 2026 16:25:32 GMT-0500 (Central Daylight Time),228611.59999999404,007_m_m_n_a.png,I,None,2015,10,2,2913.9000000059605,225697.69999998808,8081,VNB,B,9
1,prac,2,0.0,1-Back,0.0,m,Thu Apr 30 2026 16:25:32 GMT-0500 (Central Daylight Time),231477.5,005_o_f_h_a.png,I,None,2007,11,2,2862.199999988079,228615.30000001192,8081,VNB,B,10
2,prac,2,0.0,1-Back,1.0,m,Thu Apr 30 2026 16:25:32 GMT-0500 (Central Daylight Time),233976.59999999404,016_y_m_d_a.png,I,m,1609,12,2,2492.0,231484.59999999404,8081,VNB,B,11
0,prac,3,0.0,1-Back,,,Thu Apr 30 2026 16:25:32 GMT-0500 (Central Daylight Time),233976.59999999404,005_o_f_d_a.png,I,a,2958,1,2,2492.0,231484.59999999404,8081,VNB,B,0
1,prac,3,0.0,1-Back,1.0,m,Thu Apr 30 2026 16:25:32 GMT-0500 (Central Daylight Time),242274.0,020_y_f_n_a.png,I,m,1427,2,2,2289.199999988079,239984.80000001192,8081,VNB,B,1
2,prac,3,0.0,1-Back,1.0,m,Thu Apr 30 2026 16:25:32 GMT-0500 (Central Daylight Time),244023.30000001192,007_m_m_h_a.png,I,m,878,3,2,1745.6000000238419,242277.69999998808,8081,VNB,B,2
3,prac,3,0.0,1-Back,1.0,m,Thu Apr 30 2026 16:25:32 GMT-0500 (Central Daylight Time),246522.69999998808,016_y_m_d_a.png,I,m,1717,4,2,2487.0,244035.69999998808,8081,VNB,B,3
4,prac,3,0.0,1-Back,1.0,m,Thu Apr 30 2026 16:25:32 GMT-0500 (Central Daylight Time),248805.30000001192,005_o_f_n_a.png,I,m,1413,5,2,2279.100000023842,246526.19999998808,8081,VNB,B,4
5,prac,3,1.0,1-Back,1.0,z,Thu Apr 30 2026 16:25:32 GMT-0500 (Central Daylight Time),250688.09999999404,016_y_m_n_a.png,I,z,991,6,2,1873.5999999940395,248814.5,8081,VNB,B,5
6,prac,3,0.0,1-Back,1.0,m,Thu Apr 30 2026 16:25:32 GMT-0500 (Central Daylight Time),252520.80000001192,004_o_m_h_a.png,I,m,980,7,2,1829.2000000178814,250691.59999999404,8081,VNB,B,6
7,prac,3,0.0,1-Back,1.0,m,Thu Apr 30 2026 16:25:32 GMT-0500 (Central Daylight Time),254186.90000000596,011_m_f_d_a.png,I,m,788,8,2,1658.300000011921,252528.59999999404,8081,VNB,B,7
7,prac,3,1.0,1-Back,0.0,z,Thu Apr 30 2026 16:25:32 GMT-0500 (Central Daylight Time),255753.5,020_y_f_d_a.png,I,m,717,9,2,1562.800000011921,254190.69999998808,8081,VNB,B,8
8,prac,3,0.0,1-Back,1.0,m,Thu Apr 30 2026 16:25:32 GMT-0500 (Central Daylight Time),257685.80000001192,007_m_m_n_a.png,I,m,1054,10,2,1925.0,255760.80000001192,8081,VNB,B,9
9,prac,3,0.0,1-Back,1.0,m,Thu Apr 30 2026 16:25:32 GMT-0500 (Central Daylight Time),259452.09999999404,005_o_f_h_a.png,I,m,895,11,2,1762.9000000059605,257689.19999998808,8081,VNB,B,10
10,prac,3,0.0,1-Back,1.0,m,Thu Apr 30 2026 16:25:32 GMT-0500 (Central Daylight Time),261417.90000000596,016_y_m_d_a.png,I,m,1080,12,2,1957.9000000059605,259460.0,8081,VNB,B,11
0,test,1,0.0,1-Back,,,Thu Apr 30 2026 16:25:32 GMT-0500 (Central Daylight Time),261417.90000000596,020_y_f_d_a.png,I,space,16678,1,2,1957.9000000059605,259460.0,8081,VNB,B,0
1,test,1,0.0,1-Back,1.0,m,Thu Apr 30 2026 16:25:32 GMT-0500 (Central Daylight Time),292891.3000000119,011_m_f_n_a.png,I,m,814,2,2,1826.6000000238419,291064.6999999881,8081,VNB,B,1
2,test,1,0.0,1-Back,1.0,m,Thu Apr 30 2026 16:25:32 GMT-0500 (Central Daylight Time),294590.59999999404,004_o_m_h_a.png,I,m,677,3,2,1697.0999999940395,292893.5,8081,VNB,B,2
3,test,1,1.0,1-Back,1.0,z,Thu Apr 30 2026 16:25:32 GMT-0500 (Central Daylight Time),296385.0,007_m_m_h_a.png,I,z,770,4,2,1790.199999988079,294594.8000000119,8081,VNB,B,3
4,test,1,0.0,1-Back,1.0,m,Thu Apr 30 2026 16:25:32 GMT-0500 (Central Daylight Time),297972.90000000596,005_o_f_n_a.png,I,m,580,5,2,1585.300000011921,296387.59999999404,8081,VNB,B,4
5,test,1,0.0,1-Back,1.0,m,Thu Apr 30 2026 16:25:32 GMT-0500 (Central Daylight Time),299889.1999999881,016_y_m_d_a.png,I,m,891,6,2,1909.699999988079,297979.5,8081,VNB,B,5
5,test,1,1.0,1-Back,0.0,z,Thu Apr 30 2026 16:25:32 GMT-0500 (Central Daylight Time),301755.3000000119,011_m_f_d_a.png,I,m,847,7,2,1862.9000000059605,299892.40000000596,8081,VNB,B,6
6,test,1,0.0,1-Back,1.0,m,Thu Apr 30 2026 16:25:32 GMT-0500 (Central Daylight Time),303404.8000000119,020_y_f_h_a.png,I,m,629,8,2,1645.0,301759.8000000119,8081,VNB,B,7
7,test,1,0.0,1-Back,1.0,m,Thu Apr 30 2026 16:25:32 GMT-0500 (Central Daylight Time),304954.1999999881,004_o_m_n_a.png,I,m,524,9,2,1546.7999999821186,303407.40000000596,8081,VNB,B,8
8,test,1,0.0,1-Back,1.0,m,Thu Apr 30 2026 16:25:32 GMT-0500 (Central Daylight Time),306920.40000000596,016_y_m_h_a.png,I,m,943,10,2,1961.9000000059605,304958.5,8081,VNB,B,9
9,test,1,0.0,1-Back,1.0,m,Thu Apr 30 2026 16:25:32 GMT-0500 (Central Daylight Time),308687.5,004_o_m_d_a.png,I,m,745,11,2,1764.699999988079,306922.8000000119,8081,VNB,B,10
10,test,1,1.0,1-Back,1.0,z,Thu Apr 30 2026 16:25:32 GMT-0500 (Central Daylight Time),310452.59999999404,005_o_f_d_a.png,I,z,746,12,2,1759.2999999821186,308693.3000000119,8081,VNB,B,11
11,test,1,0.0,1-Back,1.0,m,Thu Apr 30 2026 16:25:32 GMT-0500 (Central Daylight Time),312201.90000000596,007_m_m_n_a.png,I,m,717,13,2,1746.7000000178814,310455.1999999881,8081,VNB,B,12
11,test,1,1.0,1-Back,0.0,z,Thu Apr 30 2026 16:25:32 GMT-0500 (Central Daylight Time),314451.3000000119,020_y_f_n_a.png,I,m,1222,14,2,2243.7000000178814,312207.59999999404,8081,VNB,B,13
12,test,1,0.0,1-Back,1.0,m,Thu Apr 30 2026 16:25:32 GMT-0500 (Central Daylight Time),316234.0,011_m_f_h_a.png,I,m,758,15,2,1780.0999999940395,314453.90000000596,8081,VNB,B,14
13,test,1,0.0,1-Back,1.0,m,Thu Apr 30 2026 16:25:32 GMT-0500 (Central Daylight Time),318400.3000000119,007_m_m_d_a.png,I,m,1143,16,2,2161.800000011921,316238.5,8081,VNB,B,15
14,test,1,0.0,1-Back,1.0,m,Thu Apr 30 2026 16:25:32 GMT-0500 (Central Daylight Time),320399.1999999881,016_y_m_n_a.png,I,m,975,17,2,1996.3999999761581,318402.8000000119,8081,VNB,B,16
15,test,1,0.0,1-Back,1.0,m,Thu Apr 30 2026 16:25:32 GMT-0500 (Central Daylight Time),322032.1999999881,005_o_f_h_a.png,I,m,609,18,2,1627.3999999761581,320404.8000000119,8081,VNB,B,17
0,test,2,0.0,1-Back,,,Thu Apr 30 2026 16:25:32 GMT-0500 (Central Daylight Time),322032.1999999881,016_y_m_n_a.png,I,space,1688,1,2,1627.3999999761581,320404.8000000119,8081,VNB,B,0
1,test,2,0.0,1-Back,1.0,m,Thu Apr 30 2026 16:25:32 GMT-0500 (Central Daylight Time),327597.1999999881,020_y_f_h_a.png,I,m,830,2,2,1842.0999999940395,325755.09999999404,8081,VNB,B,1
1,test,2,1.0,1-Back,0.0,m,Thu Apr 30 2026 16:25:32 GMT-0500 (Central Daylight Time),329846.40000000596,004_o_m_n_a.png,I,z,1227,3,2,2246.5,327599.90000000596,8081,VNB,B,2
2,test,2,0.0,1-Back,1.0,m,Thu Apr 30 2026 16:25:32 GMT-0500 (Central Daylight Time),331779.09999999404,011_m_f_d_a.png,I,m,915,4,2,1928.0999999940395,329851.0,8081,VNB,B,3
2,test,2,0.0,1-Back,0.0,z,Thu Apr 30 2026 16:25:32 GMT-0500 (Central Daylight Time),334328.6999999881,007_m_m_d_a.png,I,m,1526,5,2,2547.2999999821186,331781.40000000596,8081,VNB,B,4
2,test,2,0.0,1-Back,0.0,m,Thu Apr 30 2026 16:25:32 GMT-0500 (Central Daylight Time),337361.8000000119,016_y_m_h_a.png,I,None,2017,6,2,3029.100000023842,334332.6999999881,8081,VNB,B,5
3,test,2,1.0,1-Back,1.0,z,Thu Apr 30 2026 16:25:32 GMT-0500 (Central Daylight Time),339326.6999999881,005_o_f_h_a.png,I,z,945,7,2,1962.0999999940395,337364.59999999404,8081,VNB,B,6
4,test,2,0.0,1-Back,1.0,m,Thu Apr 30 2026 16:25:32 GMT-0500 (Central Daylight Time),341259.59999999404,011_m_f_n_a.png,I,m,906,8,2,1926.9000000059605,339332.6999999881,8081,VNB,B,7
5,test,2,0.0,1-Back,1.0,m,Thu Apr 30 2026 16:25:32 GMT-0500 (Central Daylight Time),343092.59999999404,020_y_f_d_a.png,I,m,806,9,2,1830.4000000059605,341262.1999999881,8081,VNB,B,8
6,test,2,0.0,1-Back,1.0,m,Thu Apr 30 2026 16:25:32 GMT-0500 (Central Daylight Time),345041.6999999881,007_m_m_n_a.png,I,m,923,10,2,1945.7999999821186,343095.90000000596,8081,VNB,B,9
7,test,2,1.0,1-Back,1.0,m,Thu Apr 30 2026 16:25:32 GMT-0500 (Central Daylight Time),347607.6999999881,011_m_f_h_a.png,I,m,1535,11,2,2563.5999999940395,345044.09999999404,8081,VNB,B,10
8,test,2,0.0,1-Back,1.0,z,Thu Apr 30 2026 16:25:32 GMT-0500 (Central Daylight Time),349107.09999999404,004_o_m_h_a.png,I,z,481,12,2,1494.7999999821186,347612.3000000119,8081,VNB,B,11
9,test,2,0.0,1-Back,1.0,m,Thu Apr 30 2026 16:25:32 GMT-0500 (Central Daylight Time),350756.6999999881,016_y_m_d_a.png,I,m,621,13,2,1646.8999999761581,349109.8000000119,8081,VNB,B,12
10,test,2,0.0,1-Back,1.0,m,Thu Apr 30 2026 16:25:32 GMT-0500 (Central Daylight Time),352406.0,005_o_f_n_a.png,I,m,629,14,2,1646.5999999940395,350759.40000000596,8081,VNB,B,13
11,test,2,0.0,1-Back,1.0,z,Thu Apr 30 2026 16:25:32 GMT-0500 (Central Daylight Time),354721.90000000596,020_y_f_n_a.png,I,z,1291,15,2,2311.800000011921,352410.09999999404,8081,VNB,B,14
12,test,2,1.0,1-Back,1.0,m,Thu Apr 30 2026 16:25:32 GMT-0500 (Central Daylight Time),356454.90000000596,007_m_m_h_a.png,I,m,711,16,2,1730.5,354724.40000000596,8081,VNB,B,15
13,test,2,0.0,1-Back,1.0,m,Thu Apr 30 2026 16:25:32 GMT-0500 (Central Daylight Time),358355.3000000119,005_o_f_d_a.png,I,m,882,17,2,1895.4000000059605,356459.90000000596,8081,VNB,B,16
14,test,2,1.0,1-Back,1.0,z,Thu Apr 30 2026 16:25:32 GMT-0500 (Central Daylight Time),360003.6999999881,004_o_m_d_a.png,I,z,630,18,2,1645.5,358358.1999999881,8081,VNB,B,17
0,test,3,1.0,1-Back,,,Thu Apr 30 2026 16:25:32 GMT-0500 (Central Daylight Time),360003.6999999881,005_o_f_h_a.png,I,space,1405,1,2,1645.5,358358.1999999881,8081,VNB,B,0
1,test,3,0.0,1-Back,1.0,m,Thu Apr 30 2026 16:25:32 GMT-0500 (Central Daylight Time),365352.0,011_m_f_d_a.png,I,m,802,2,2,1830.4000000059605,363521.59999999404,8081,VNB,B,1
2,test,3,1.0,1-Back,1.0,m,Thu Apr 30 2026 16:25:32 GMT-0500 (Central Daylight Time),368001.09999999404,007_m_m_n_a.png,I,m,1625,3,2,2642.9000000059605,365358.1999999881,8081,VNB,B,2
3,test,3,0.0,1-Back,1.0,z,Thu Apr 30 2026 16:25:32 GMT-0500 (Central Daylight Time),369767.1999999881,005_o_f_n_a.png,I,z,744,4,2,1763.7999999821186,368003.40000000596,8081,VNB,B,3
4,test,3,1.0,1-Back,1.0,m,Thu Apr 30 2026 16:25:32 GMT-0500 (Central Daylight Time),371566.6999999881,004_o_m_d_a.png,I,m,770,5,2,1795.2999999821186,369771.40000000596,8081,VNB,B,4
5,test,3,0.0,1-Back,1.0,m,Thu Apr 30 2026 16:25:32 GMT-0500 (Central Daylight Time),373232.8000000119,020_y_f_h_a.png,I,m,643,6,2,1663.800000011921,371569.0,8081,VNB,B,5
6,test,3,0.0,1-Back,1.0,z,Thu Apr 30 2026 16:25:32 GMT-0500 (Central Daylight Time),374799.1999999881,016_y_m_h_a.png,I,z,545,7,2,1562.0,373237.1999999881,8081,VNB,B,6
7,test,3,0.0,1-Back,1.0,m,Thu Apr 30 2026 16:25:32 GMT-0500 (Central Daylight Time),376431.6999999881,011_m_f_n_a.png,I,m,609,8,2,1630.0999999940395,374801.59999999404,8081,VNB,B,7
8,test,3,0.0,1-Back,1.0,m,Thu Apr 30 2026 16:25:32 GMT-0500 (Central Daylight Time),378197.90000000596,020_y_f_d_a.png,I,m,738,9,2,1762.800000011921,376435.09999999404,8081,VNB,B,8
9,test,3,1.0,1-Back,1.0,m,Thu Apr 30 2026 16:25:32 GMT-0500 (Central Daylight Time),379930.40000000596,004_o_m_n_a.png,I,m,715,10,2,1730.2000000178814,378200.1999999881,8081,VNB,B,9
10,test,3,0.0,1-Back,1.0,m,Thu Apr 30 2026 16:25:32 GMT-0500 (Central Daylight Time),381713.5,007_m_m_h_a.png,I,m,766,11,2,1778.0999999940395,379935.40000000596,8081,VNB,B,10
11,test,3,0.0,1-Back,1.0,z,Thu Apr 30 2026 16:25:32 GMT-0500 (Central Daylight Time),383246.40000000596,011_m_f_h_a.png,I,z,504,12,2,1530.7000000178814,381715.6999999881,8081,VNB,B,11
12,test,3,1.0,1-Back,1.0,m,Thu Apr 30 2026 16:25:32 GMT-0500 (Central Daylight Time),384896.09999999404,005_o_f_d_a.png,I,m,619,13,2,1645.2999999821186,383250.8000000119,8081,VNB,B,12
13,test,3,0.0,1-Back,1.0,z,Thu Apr 30 2026 16:25:32 GMT-0500 (Central Daylight Time),386711.8000000119,007_m_m_d_a.png,I,z,786,14,2,1813.4000000059605,384898.40000000596,8081,VNB,B,13
14,test,3,0.0,1-Back,1.0,m,Thu Apr 30 2026 16:25:32 GMT-0500 (Central Daylight Time),388761.40000000596,016_y_m_n_a.png,I,m,1016,15,2,2045.9000000059605,386715.5,8081,VNB,B,14
15,test,3,1.0,1-Back,1.0,m,Thu Apr 30 2026 16:25:32 GMT-0500 (Central Daylight Time),390696.40000000596,004_o_m_h_a.png,I,m,903,16,2,1932.5999999940395,388763.8000000119,8081,VNB,B,15
16,test,3,0.0,1-Back,1.0,m,Thu Apr 30 2026 16:25:32 GMT-0500 (Central Daylight Time),392593.40000000596,016_y_m_d_a.png,I,m,868,17,2,1890.5999999940395,390702.8000000119,8081,VNB,B,16
17,test,3,1.0,1-Back,1.0,m,Thu Apr 30 2026 16:25:32 GMT-0500 (Central Daylight Time),394342.8000000119,020_y_f_n_a.png,I,m,720,18,2,1747.0,392595.8000000119,8081,VNB,B,17
0,test,4,1.0,1-Back,,,Thu Apr 30 2026 16:25:32 GMT-0500 (Central Daylight Time),394342.8000000119,007_m_m_d_a.png,I,space,1530,1,2,1747.0,392595.8000000119,8081,VNB,B,0
1,test,4,0.0,1-Back,1.0,z,Thu Apr 30 2026 16:25:32 GMT-0500 (Central Daylight Time),399807.90000000596,004_o_m_d_a.png,I,z,885,2,2,1913.2000000178814,397894.6999999881,8081,VNB,B,1
2,test,4,0.0,1-Back,1.0,m,Thu Apr 30 2026 16:25:32 GMT-0500 (Central Daylight Time),401490.59999999404,016_y_m_h_a.png,I,m,657,3,2,1677.699999988079,399812.90000000596,8081,VNB,B,2
3,test,4,0.0,1-Back,1.0,m,Thu Apr 30 2026 16:25:32 GMT-0500 (Central Daylight Time),403190.40000000596,011_m_f_n_a.png,I,m,671,4,2,1697.5999999940395,401492.8000000119,8081,VNB,B,3
4,test,4,1.0,1-Back,1.0,m,Thu Apr 30 2026 16:25:32 GMT-0500 (Central Daylight Time),405139.40000000596,005_o_f_h_a.png,I,m,931,5,2,1945.7000000178814,403193.6999999881,8081,VNB,B,4
5,test,4,0.0,1-Back,1.0,m,Thu Apr 30 2026 16:25:32 GMT-0500 (Central Daylight Time),406789.0,007_m_m_n_a.png,I,m,629,6,2,1647.0999999940395,405141.90000000596,8081,VNB,B,5
6,test,4,0.0,1-Back,1.0,m,Thu Apr 30 2026 16:25:32 GMT-0500 (Central Daylight Time),408588.59999999404,016_y_m_d_a.png,I,m,771,7,2,1795.7999999821186,406792.8000000119,8081,VNB,B,6
7,test,4,1.0,1-Back,1.0,z,Thu Apr 30 2026 16:25:32 GMT-0500 (Central Daylight Time),410371.1999999881,020_y_f_d_a.png,I,z,764,8,2,1780.3999999761581,408590.8000000119,8081,VNB,B,7
8,test,4,0.0,1-Back,1.0,m,Thu Apr 30 2026 16:25:32 GMT-0500 (Central Daylight Time),411970.40000000596,011_m_f_h_a.png,I,m,580,9,2,1595.7000000178814,410374.6999999881,8081,VNB,B,8
9,test,4,0.0,1-Back,1.0,z,Thu Apr 30 2026 16:25:32 GMT-0500 (Central Daylight Time),413520.1999999881,004_o_m_h_a.png,I,z,526,10,2,1547.5,411972.6999999881,8081,VNB,B,9
10,test,4,1.0,1-Back,1.0,m,Thu Apr 30 2026 16:25:32 GMT-0500 (Central Daylight Time),415169.6999999881,005_o_f_n_a.png,I,m,616,11,2,1645.5,413524.1999999881,8081,VNB,B,10
10,test,4,0.0,1-Back,0.0,m,Thu Apr 30 2026 16:25:32 GMT-0500 (Central Daylight Time),417852.1999999881,011_m_f_d_a.png,I,z,1663,12,2,2680.0999999940395,415172.09999999404,8081,VNB,B,11
11,test,4,0.0,1-Back,1.0,m,Thu Apr 30 2026 16:25:32 GMT-0500 (Central Daylight Time),419484.90000000596,020_y_f_n_a.png,I,m,612,13,2,1629.2000000178814,417855.6999999881,8081,VNB,B,12
12,test,4,0.0,1-Back,1.0,m,Thu Apr 30 2026 16:25:32 GMT-0500 (Central Daylight Time),422234.1999999881,005_o_f_d_a.png,I,m,1716,14,2,2746.699999988079,419487.5,8081,VNB,B,13
13,test,4,0.0,1-Back,1.0,m,Thu Apr 30 2026 16:25:32 GMT-0500 (Central Daylight Time),424000.1999999881,020_y_f_h_a.png,I,m,734,15,2,1761.199999988079,422239.0,8081,VNB,B,14
14,test,4,1.0,1-Back,1.0,z,Thu Apr 30 2026 16:25:32 GMT-0500 (Central Daylight Time),425533.09999999404,007_m_m_h_a.png,I,z,505,16,2,1530.5,424002.59999999404,8081,VNB,B,15
15,test,4,0.0,1-Back,1.0,m,Thu Apr 30 2026 16:25:32 GMT-0500 (Central Daylight Time),427183.8000000119,004_o_m_n_a.png,I,m,619,17,2,1646.800000011921,425537.0,8081,VNB,B,16
16,test,4,1.0,1-Back,1.0,z,Thu Apr 30 2026 16:25:32 GMT-0500 (Central Daylight Time),428748.59999999404,016_y_m_n_a.png,I,z,547,18,2,1562.2999999821186,427186.3000000119,8081,VNB,B,17
0,test,5,1.0,1-Back,,,Thu Apr 30 2026 16:25:32 GMT-0500 (Central Daylight Time),428748.59999999404,004_o_m_n_a.png,I,space,1709,1,2,1562.2999999821186,427186.3000000119,8081,VNB,B,0
1,test,5,1.0,1-Back,1.0,m,Thu Apr 30 2026 16:25:32 GMT-0500 (Central Daylight Time),434097.0,005_o_f_h_a.png,I,m,583,2,2,1614.0,432483.0,8081,VNB,B,1
2,test,5,0.0,1-Back,1.0,m,Thu Apr 30 2026 16:25:32 GMT-0500 (Central Daylight Time),436013.09999999404,016_y_m_d_a.png,I,m,896,3,2,1912.0999999940395,434101.0,8081,VNB,B,2
3,test,5,0.0,1-Back,1.0,z,Thu Apr 30 2026 16:25:32 GMT-0500 (Central Daylight Time),437625.09999999404,004_o_m_d_a.png,I,z,595,4,2,1609.699999988079,436015.40000000596,8081,VNB,B,3
4,test,5,0.0,1-Back,1.0,m,Thu Apr 30 2026 16:25:32 GMT-0500 (Central Daylight Time),439295.40000000596,011_m_f_h_a.png,I,m,635,5,2,1666.4000000059605,437629.0,8081,VNB,B,4
5,test,5,0.0,1-Back,1.0,m,Thu Apr 30 2026 16:25:32 GMT-0500 (Central Daylight Time),440828.40000000596,020_y_f_n_a.png,I,m,514,6,2,1530.4000000059605,439298.0,8081,VNB,B,5
6,test,5,1.0,1-Back,1.0,z,Thu Apr 30 2026 16:25:32 GMT-0500 (Central Daylight Time),442477.6999999881,005_o_f_n_a.png,I,z,620,7,2,1645.3999999761581,440832.3000000119,8081,VNB,B,6
7,test,5,0.0,1-Back,1.0,m,Thu Apr 30 2026 16:25:32 GMT-0500 (Central Daylight Time),444243.8000000119,011_m_f_d_a.png,I,m,739,8,2,1763.6000000238419,442480.1999999881,8081,VNB,B,7
8,test,5,0.0,1-Back,1.0,m,Thu Apr 30 2026 16:25:32 GMT-0500 (Central Daylight Time),445993.40000000596,016_y_m_h_a.png,I,m,732,9,2,1745.800000011921,444247.59999999404,8081,VNB,B,8
9,test,5,0.0,1-Back,1.0,m,Thu Apr 30 2026 16:25:32 GMT-0500 (Central Daylight Time),447675.90000000596,020_y_f_d_a.png,I,m,656,10,2,1680.2000000178814,445995.6999999881,8081,VNB,B,9
10,test,5,0.0,1-Back,1.0,m,Thu Apr 30 2026 16:25:32 GMT-0500 (Central Daylight Time),449409.0,007_m_m_n_a.png,I,m,709,11,2,1729.699999988079,447679.3000000119,8081,VNB,B,10
11,test,5,1.0,1-Back,1.0,z,Thu Apr 30 2026 16:25:32 GMT-0500 (Central Daylight Time),451108.1999999881,011_m_f_n_a.png,I,z,673,12,2,1696.8999999761581,449411.3000000119,8081,VNB,B,11
12,test,5,0.0,1-Back,1.0,m,Thu Apr 30 2026 16:25:32 GMT-0500 (Central Daylight Time),452757.90000000596,004_o_m_h_a.png,I,m,621,13,2,1644.9000000059605,451113.0,8081,VNB,B,12
13,test,5,0.0,1-Back,1.0,z,Thu Apr 30 2026 16:25:32 GMT-0500 (Central Daylight Time),454357.5,007_m_m_h_a.png,I,z,569,14,2,1597.300000011921,452760.1999999881,8081,VNB,B,13
14,test,5,1.0,1-Back,1.0,m,Thu Apr 30 2026 16:25:32 GMT-0500 (Central Daylight Time),456140.09999999404,005_o_f_d_a.png,I,m,755,15,2,1778.7999999821186,454361.3000000119,8081,VNB,B,14
15,test,5,0.0,1-Back,1.0,m,Thu Apr 30 2026 16:25:32 GMT-0500 (Central Daylight Time),457823.0,016_y_m_n_a.png,I,m,661,16,2,1680.5,456142.5,8081,VNB,B,15
16,test,5,0.0,1-Back,1.0,m,Thu Apr 30 2026 16:25:32 GMT-0500 (Central Daylight Time),460155.5,020_y_f_h_a.png,I,m,1305,17,2,2327.5999999940395,457827.90000000596,8081,VNB,B,16
17,test,5,0.0,1-Back,1.0,m,Thu Apr 30 2026 16:25:32 GMT-0500 (Central Daylight Time),461921.6999999881,007_m_m_d_a.png,I,m,697,18,2,1763.7999999821186,460157.90000000596,8081,VNB,B,17
0,prac,1,0.0,2-Back,,,Thu Apr 30 2026 16:25:32 GMT-0500 (Central Daylight Time),461921.6999999881,011_m_f_n_a.png,I,space,11680,1,2,1763.7999999821186,460157.90000000596,8081,VNB,B,0
0,prac,1,0.0,2-Back,,,Thu Apr 30 2026 16:25:32 GMT-0500 (Central Daylight Time),461921.6999999881,005_o_f_h_a.png,I,space,11680,2,2,1763.7999999821186,460157.90000000596,8081,VNB,B,0
1,prac,1,0.0,2-Back,1.0,m,Thu Apr 30 2026 16:25:32 GMT-0500 (Central Daylight Time),582267.1999999881,004_o_m_d_a.png,I,m,1019,3,2,1862.3999999761581,580404.8000000119,8081,VNB,B,1
2,prac,1,1.0,2-Back,1.0,z,Thu Apr 30 2026 16:25:32 GMT-0500 (Central Daylight Time),584050.099999994,007_m_m_h_a.png,I,z,907,4,2,1773.7999999821186,582276.3000000119,8081,VNB,B,2
3,prac,1,0.0,2-Back,1.0,m,Thu Apr 30 2026 16:25:32 GMT-0500 (Central Daylight Time),585433.099999994,020_y_f_n_a.png,I,m,526,5,2,1379.5,584053.599999994,8081,VNB,B,3
4,prac,1,1.0,2-Back,1.0,z,Thu Apr 30 2026 16:25:32 GMT-0500 (Central Daylight Time),586832.5,004_o_m_h_a.png,I,z,544,6,2,1391.0999999940395,585441.400000006,8081,VNB,B,4
4,prac,1,1.0,2-Back,0.0,z,Thu Apr 30 2026 16:25:32 GMT-0500 (Central Daylight Time),588215.599999994,016_y_m_n_a.png,I,m,502,7,2,1379.7999999821186,586835.8000000119,8081,VNB,B,5
5,prac,1,0.0,2-Back,1.0,m,Thu Apr 30 2026 16:25:32 GMT-0500 (Central Daylight Time),590831.099999994,011_m_f_d_a.png,I,m,1742,8,2,2608.0999999940395,588223.0,8081,VNB,B,6
5,prac,1,0.0,2-Back,0.0,m,Thu Apr 30 2026 16:25:32 GMT-0500 (Central Daylight Time),593147.1999999881,005_o_f_d_a.png,I,z,1455,9,2,2312.5,590834.6999999881,8081,VNB,B,7
5,prac,1,0.0,2-Back,0.0,m,Thu Apr 30 2026 16:25:32 GMT-0500 (Central Daylight Time),595379.8000000119,007_m_m_h_a.png,I,z,1456,10,2,2225.9000000059605,593153.900000006,8081,VNB,B,8
5,prac,1,1.0,2-Back,0.0,z,Thu Apr 30 2026 16:25:32 GMT-0500 (Central Daylight Time),597146.0,020_y_f_d_a.png,I,m,907,11,2,1763.0,595383.0,8081,VNB,B,9
5,prac,1,0.0,2-Back,0.0,m,Thu Apr 30 2026 16:25:32 GMT-0500 (Central Daylight Time),600012.900000006,004_o_m_n_a.png,I,None,2010,12,2,2858.300000011921,597154.599999994,8081,VNB,B,10
0,prac,2,0.0,2-Back,,,Thu Apr 30 2026 16:25:32 GMT-0500 (Central Daylight Time),600012.900000006,011_m_f_n_a.png,I,a,3282,1,2,2858.300000011921,597154.599999994,8081,VNB,B,0
0,prac,2,0.0,2-Back,,,Thu Apr 30 2026 16:25:32 GMT-0500 (Central Daylight Time),600012.900000006,005_o_f_h_a.png,I,a,3282,2,2,2858.300000011921,597154.599999994,8081,VNB,B,0
1,prac,2,0.0,2-Back,1.0,m,Thu Apr 30 2026 16:25:32 GMT-0500 (Central Daylight Time),610508.400000006,004_o_m_d_a.png,I,m,1132,3,2,1978.300000011921,608530.099999994,8081,VNB,B,1
2,prac,2,1.0,2-Back,1.0,z,Thu Apr 30 2026 16:25:32 GMT-0500 (Central Daylight Time),612841.1999999881,007_m_m_h_a.png,I,z,1542,4,2,2326.0,610515.1999999881,8081,VNB,B,2
3,prac,2,0.0,2-Back,1.0,m,Thu Apr 30 2026 16:25:32 GMT-0500 (Central Daylight Time),614890.599999994,020_y_f_n_a.png,I,m,1200,5,2,2046.0,612844.599999994,8081,VNB,B,3
4,prac,2,1.0,2-Back,1.0,z,Thu Apr 30 2026 16:25:32 GMT-0500 (Central Daylight Time),616789.8000000119,004_o_m_h_a.png,I,z,1037,6,2,1890.9000000059605,614898.900000006,8081,VNB,B,4
4,prac,2,1.0,2-Back,0.0,z,Thu Apr 30 2026 16:25:32 GMT-0500 (Central Daylight Time),618556.0,016_y_m_n_a.png,I,m,890,7,2,1762.9000000059605,616793.099999994,8081,VNB,B,5
4,prac,2,0.0,2-Back,0.0,m,Thu Apr 30 2026 16:25:32 GMT-0500 (Central Daylight Time),621438.400000006,011_m_f_d_a.png,I,None,2013,8,2,2874.4000000059605,618564.0,8081,VNB,B,6
5,prac,2,0.0,2-Back,1.0,m,Thu Apr 30 2026 16:25:32 GMT-0500 (Central Daylight Time),624287.8000000119,005_o_f_d_a.png,I,m,1983,9,2,2846.2000000178814,621441.599999994,8081,VNB,B,7
5,prac,2,0.0,2-Back,0.0,m,Thu Apr 30 2026 16:25:32 GMT-0500 (Central Daylight Time),626419.900000006,007_m_m_h_a.png,I,z,1353,10,2,2124.300000011921,624295.599999994,8081,VNB,B,8
6,prac,2,1.0,2-Back,1.0,z,Thu Apr 30 2026 16:25:32 GMT-0500 (Central Daylight Time),628736.1999999881,020_y_f_d_a.png,I,z,1467,11,2,2313.0999999940395,626423.099999994,8081,VNB,B,9
7,prac,2,0.0,2-Back,1.0,m,Thu Apr 30 2026 16:25:32 GMT-0500 (Central Daylight Time),630602.6999999881,004_o_m_n_a.png,I,m,1002,12,2,1857.5999999940395,628745.099999994,8081,VNB,B,10
0,test,1,0.0,2-Back,,,Thu Apr 30 2026 16:25:32 GMT-0500 (Central Daylight Time),630602.6999999881,016_y_m_h_a.png,I,space,11358,1,2,1857.5999999940395,628745.099999994,8081,VNB,B,0
0,test,1,0.0,2-Back,,,Thu Apr 30 2026 16:25:32 GMT-0500 (Central Daylight Time),630602.6999999881,005_o_f_n_a.png,I,space,11358,2,2,1857.5999999940395,628745.099999994,8081,VNB,B,0
0,test,1,0.0,2-Back,0.0,z,Thu Apr 30 2026 16:25:32 GMT-0500 (Central Daylight Time),656727.099999994,004_o_m_h_a.png,I,m,1618,3,2,2646.5,654080.599999994,8081,VNB,B,1
0,test,1,0.0,2-Back,0.0,m,Thu Apr 30 2026 16:25:32 GMT-0500 (Central Daylight Time),659759.400000006,011_m_f_d_a.png,I,None,2015,4,2,3028.0999999940395,656731.3000000119,8081,VNB,B,2
0,test,1,1.0,2-Back,0.0,m,Thu Apr 30 2026 16:25:32 GMT-0500 (Central Daylight Time),662791.900000006,016_y_m_n_a.png,I,None,2016,5,2,3029.4000000059605,659762.5,8081,VNB,B,3
0,test,1,0.0,2-Back,0.0,z,Thu Apr 30 2026 16:25:32 GMT-0500 (Central Daylight Time),664774.8000000119,020_y_f_d_a.png,I,m,960,6,2,1979.1000000238419,662795.6999999881,8081,VNB,B,4
1,test,1,0.0,2-Back,1.0,m,Thu Apr 30 2026 16:25:32 GMT-0500 (Central Daylight Time),666840.8000000119,007_m_m_h_a.png,I,m,1033,7,2,2063.5,664777.3000000119,8081,VNB,B,5
2,test,1,1.0,2-Back,1.0,m,Thu Apr 30 2026 16:25:32 GMT-0500 (Central Daylight Time),669506.400000006,020_y_f_n_a.png,I,m,1647,8,2,2661.5999999940395,666844.8000000119,8081,VNB,B,6
2,test,1,0.0,2-Back,0.0,z,Thu Apr 30 2026 16:25:32 GMT-0500 (Central Daylight Time),672539.0,005_o_f_h_a.png,I,None,2016,9,2,3030.199999988079,669508.8000000119,8081,VNB,B,7
2,test,1,0.0,2-Back,0.0,m,Thu Apr 30 2026 16:25:32 GMT-0500 (Central Daylight Time),675071.599999994,004_o_m_d_a.png,I,z,1511,10,2,2528.199999988079,672543.400000006,8081,VNB,B,8
3,test,1,1.0,2-Back,1.0,m,Thu Apr 30 2026 16:25:32 GMT-0500 (Central Daylight Time),678053.8000000119,007_m_m_d_a.png,I,m,1953,11,2,2979.600000023842,675074.1999999881,8081,VNB,B,9
3,test,1,0.0,2-Back,0.0,m,Thu Apr 30 2026 16:25:32 GMT-0500 (Central Daylight Time),681086.099999994,011_m_f_n_a.png,I,None,2016,12,2,3026.699999988079,678059.400000006,8081,VNB,B,10
4,test,1,0.0,2-Back,1.0,m,Thu Apr 30 2026 16:25:32 GMT-0500 (Central Daylight Time),683918.6999999881,020_y_f_h_a.png,I,m,1811,13,2,2830.0999999940395,681088.599999994,8081,VNB,B,11
5,test,1,0.0,2-Back,1.0,z,Thu Apr 30 2026 16:25:32 GMT-0500 (Central Daylight Time),686334.6999999881,007_m_m_n_a.png,I,z,1387,14,2,2412.399999976158,683922.3000000119,8081,VNB,B,12
6,test,1,0.0,2-Back,1.0,m,Thu Apr 30 2026 16:25:32 GMT-0500 (Central Daylight Time),688633.599999994,016_y_m_d_a.png,I,m,1282,15,2,2296.4000000059605,686337.1999999881,8081,VNB,B,13
6,test,1,1.0,2-Back,0.0,m,Thu Apr 30 2026 16:25:32 GMT-0500 (Central Daylight Time),691266.1999999881,011_m_f_h_a.png,I,z,1613,16,2,2629.5999999940395,688636.599999994,8081,VNB,B,14
7,test,1,0.0,2-Back,1.0,z,Thu Apr 30 2026 16:25:32 GMT-0500 (Central Daylight Time),693632.5,005_o_f_d_a.png,I,z,1342,17,2,2364.0,691268.5,8081,VNB,B,15
8,test,1,0.0,2-Back,1.0,m,Thu Apr 30 2026 16:25:32 GMT-0500 (Central Daylight Time),695798.3000000119,004_o_m_n_a.png,I,m,1144,18,2,2161.4000000059605,693636.900000006,8081,VNB,B,16
0,test,2,0.0,2-Back,,,Thu Apr 30 2026 16:25:32 GMT-0500 (Central Daylight Time),695798.3000000119,007_m_m_h_a.png,I,space,1986,1,2,2161.4000000059605,693636.900000006,8081,VNB,B,0
0,test,2,0.0,2-Back,,,Thu Apr 30 2026 16:25:32 GMT-0500 (Central Daylight Time),695798.3000000119,020_y_f_n_a.png,I,space,1986,2,2,2161.4000000059605,693636.900000006,8081,VNB,B,0
0,test,2,1.0,2-Back,0.0,z,Thu Apr 30 2026 16:25:32 GMT-0500 (Central Daylight Time),704812.099999994,005_o_f_h_a.png,I,m,772,3,2,1797.0,703015.099999994,8081,VNB,B,1
0,test,2,0.0,2-Back,0.0,m,Thu Apr 30 2026 16:25:32 GMT-0500 (Central Daylight Time),707844.400000006,004_o_m_d_a.png,I,None,2015,4,2,3028.300000011921,704816.099999994,8081,VNB,B,2
0,test,2,0.0,2-Back,0.0,m,Thu Apr 30 2026 16:25:32 GMT-0500 (Central Daylight Time),710110.5,011_m_f_d_a.png,I,z,1245,5,2,2263.800000011921,707846.6999999881,8081,VNB,B,3
1,test,2,0.0,2-Back,1.0,m,Thu Apr 30 2026 16:25:32 GMT-0500 (Central Daylight Time),712076.5,016_y_m_h_a.png,I,m,937,6,2,1962.699999988079,710113.8000000119,8081,VNB,B,4
2,test,2,0.0,2-Back,1.0,m,Thu Apr 30 2026 16:25:32 GMT-0500 (Central Daylight Time),714259.400000006,005_o_f_n_a.png,I,m,1157,7,2,2180.0999999940395,712079.3000000119,8081,VNB,B,5
2,test,2,1.0,2-Back,0.0,z,Thu Apr 30 2026 16:25:32 GMT-0500 (Central Daylight Time),716625.1999999881,004_o_m_h_a.png,I,m,1333,8,2,2361.7999999821186,714263.400000006,8081,VNB,B,6
2,test,2,0.0,2-Back,0.0,m,Thu Apr 30 2026 16:25:32 GMT-0500 (Central Daylight Time),719573.900000006,020_y_f_d_a.png,I,z,1920,9,2,2946.300000011921,716627.599999994,8081,VNB,B,7
2,test,2,0.0,2-Back,0.0,m,Thu Apr 30 2026 16:25:32 GMT-0500 (Central Daylight Time),721607.099999994,016_y_m_d_a.png,I,z,1012,10,2,2028.9000000059605,719578.1999999881,8081,VNB,B,8
3,test,2,0.0,2-Back,1.0,m,Thu Apr 30 2026 16:25:32 GMT-0500 (Central Daylight Time),724189.599999994,007_m_m_n_a.png,I,m,1555,11,2,2580.0999999940395,721609.5,8081,VNB,B,9
4,test,2,0.0,2-Back,1.0,m,Thu Apr 30 2026 16:25:32 GMT-0500 (Central Daylight Time),726522.0,011_m_f_h_a.png,I,m,1300,12,2,2328.4000000059605,724193.599999994,8081,VNB,B,10
4,test,2,1.0,2-Back,0.0,z,Thu Apr 30 2026 16:25:32 GMT-0500 (Central Daylight Time),729554.1999999881,004_o_m_n_a.png,I,None,2016,13,2,3029.7999999821186,726524.400000006,8081,VNB,B,11
4,test,2,0.0,2-Back,0.0,m,Thu Apr 30 2026 16:25:32 GMT-0500 (Central Daylight Time),731387.1999999881,005_o_f_d_a.png,I,z,814,14,2,1829.0999999940395,729558.099999994,8081,VNB,B,12
5,test,2,0.0,2-Back,1.0,m,Thu Apr 30 2026 16:25:32 GMT-0500 (Central Daylight Time),734136.400000006,020_y_f_h_a.png,I,m,1718,15,2,2746.5999999940395,731389.8000000119,8081,VNB,B,13
5,test,2,0.0,2-Back,0.0,z,Thu Apr 30 2026 16:25:32 GMT-0500 (Central Daylight Time),736601.900000006,007_m_m_d_a.png,I,m,1449,16,2,2461.0999999940395,734140.8000000119,8081,VNB,B,14
6,test,2,0.0,2-Back,1.0,m,Thu Apr 30 2026 16:25:32 GMT-0500 (Central Daylight Time),739184.8000000119,016_y_m_n_a.png,I,m,1550,17,2,2580.300000011921,736604.5,8081,VNB,B,15
6,test,2,1.0,2-Back,0.0,m,Thu Apr 30 2026 16:25:32 GMT-0500 (Central Daylight Time),741034.3000000119,011_m_f_n_a.png,I,z,824,18,2,1845.7000000178814,739188.599999994,8081,VNB,B,16
0,test,3,1.0,2-Back,,,Thu Apr 30 2026 16:25:32 GMT-0500 (Central Daylight Time),741034.3000000119,004_o_m_n_a.png,I,space,2151,1,2,1845.7000000178814,739188.599999994,8081,VNB,B,0
0,test,3,1.0,2-Back,,,Thu Apr 30 2026 16:25:32 GMT-0500 (Central Daylight Time),741034.3000000119,005_o_f_d_a.png,I,space,2151,2,2,1845.7000000178814,739188.599999994,8081,VNB,B,0
1,test,3,0.0,2-Back,1.0,m,Thu Apr 30 2026 16:25:32 GMT-0500 (Central Daylight Time),749998.0,020_y_f_h_a.png,I,m,721,3,2,1747.300000011921,748250.6999999881,8081,VNB,B,1
1,test,3,0.0,2-Back,0.0,z,Thu Apr 30 2026 16:25:32 GMT-0500 (Central Daylight Time),752147.099999994,011_m_f_d_a.png,I,m,1131,4,2,2143.0999999940395,750004.0,8081,VNB,B,2
2,test,3,1.0,2-Back,1.0,m,Thu Apr 30 2026 16:25:32 GMT-0500 (Central Daylight Time),753913.400000006,016_y_m_n_a.png,I,m,741,5,2,1764.0999999940395,752149.3000000119,8081,VNB,B,3
2,test,3,0.0,2-Back,0.0,m,Thu Apr 30 2026 16:25:32 GMT-0500 (Central Daylight Time),755779.599999994,004_o_m_h_a.png,I,z,847,6,2,1862.5,753917.099999994,8081,VNB,B,4
2,test,3,0.0,2-Back,0.0,z,Thu Apr 30 2026 16:25:32 GMT-0500 (Central Daylight Time),758078.900000006,020_y_f_n_a.png,I,m,1278,7,2,2296.7000000178814,755782.1999999881,8081,VNB,B,5
3,test,3,1.0,2-Back,1.0,m,Thu Apr 30 2026 16:25:32 GMT-0500 (Central Daylight Time),760444.8000000119,007_m_m_d_a.png,I,m,1346,8,2,2361.800000011921,758083.0,8081,VNB,B,6
3,test,3,0.0,2-Back,0.0,m,Thu Apr 30 2026 16:25:32 GMT-0500 (Central Daylight Time),762294.1999999881,016_y_m_d_a.png,I,z,829,9,2,1846.7999999821186,760447.400000006,8081,VNB,B,7
4,test,3,0.0,2-Back,1.0,m,Thu Apr 30 2026 16:25:32 GMT-0500 (Central Daylight Time),765010.0,005_o_f_h_a.png,I,m,1690,10,2,2711.0999999940395,762298.900000006,8081,VNB,B,8
5,test,3,1.0,2-Back,1.0,m,Thu Apr 30 2026 16:25:32 GMT-0500 (Central Daylight Time),767595.0,011_m_f_n_a.png,I,m,1551,11,2,2582.699999988079,765012.3000000119,8081,VNB,B,9
5,test,3,1.0,2-Back,0.0,z,Thu Apr 30 2026 16:25:32 GMT-0500 (Central Daylight Time),770625.0,007_m_m_h_a.png,I,None,2016,12,2,3026.4000000059605,767598.599999994,8081,VNB,B,10
6,test,3,0.0,2-Back,1.0,m,Thu Apr 30 2026 16:25:32 GMT-0500 (Central Daylight Time),772875.099999994,020_y_f_d_a.png,I,m,1232,13,2,2247.9000000059605,770627.1999999881,8081,VNB,B,11
6,test,3,0.0,2-Back,0.0,m,Thu Apr 30 2026 16:25:32 GMT-0500 (Central Daylight Time),775406.8000000119,005_o_f_n_a.png,I,z,1502,14,2,2526.800000011921,772880.0,8081,VNB,B,12
6,test,3,0.0,2-Back,0.0,z,Thu Apr 30 2026 16:25:32 GMT-0500 (Central Daylight Time),777822.8000000119,004_o_m_d_a.png,I,m,1387,15,2,2413.600000023842,775409.1999999881,8081,VNB,B,13
7,test,3,1.0,2-Back,1.0,m,Thu Apr 30 2026 16:25:32 GMT-0500 (Central Daylight Time),780072.099999994,011_m_f_h_a.png,I,m,1227,16,2,2245.7999999821186,777826.3000000119,8081,VNB,B,14
8,test,3,0.0,2-Back,1.0,m,Thu Apr 30 2026 16:25:32 GMT-0500 (Central Daylight Time),782620.8000000119,007_m_m_n_a.png,I,m,1521,17,2,2546.300000011921,780074.5,8081,VNB,B,15
8,test,3,0.0,2-Back,0.0,z,Thu Apr 30 2026 16:25:32 GMT-0500 (Central Daylight Time),784820.599999994,016_y_m_h_a.png,I,m,1180,18,2,2194.5,782626.099999994,8081,VNB,B,16
0,test,4,0.0,2-Back,,,Thu Apr 30 2026 16:25:32 GMT-0500 (Central Daylight Time),784820.599999994,011_m_f_n_a.png,I,space,1477,1,2,2194.5,782626.099999994,8081,VNB,B,0
0,test,4,0.0,2-Back,,,Thu Apr 30 2026 16:25:32 GMT-0500 (Central Daylight Time),784820.599999994,004_o_m_n_a.png,I,space,1477,2,2,2194.5,782626.099999994,8081,VNB,B,0
1,test,4,1.0,2-Back,1.0,m,Thu Apr 30 2026 16:25:32 GMT-0500 (Central Daylight Time),793300.900000006,016_y_m_h_a.png,I,m,772,3,2,1796.7000000178814,791504.1999999881,8081,VNB,B,1
2,test,4,1.0,2-Back,1.0,m,Thu Apr 30 2026 16:25:32 GMT-0500 (Central Daylight Time),795883.8000000119,005_o_f_d_a.png,I,m,1555,4,2,2578.9000000059605,793304.900000006,8081,VNB,B,2
2,test,4,0.0,2-Back,0.0,z,Thu Apr 30 2026 16:25:32 GMT-0500 (Central Daylight Time),798482.6999999881,004_o_m_h_a.png,I,m,1573,5,2,2596.5999999940395,795886.099999994,8081,VNB,B,3
2,test,4,0.0,2-Back,0.0,m,Thu Apr 30 2026 16:25:32 GMT-0500 (Central Daylight Time),800716.5,007_m_m_n_a.png,I,z,1206,6,2,2230.4000000059605,798486.099999994,8081,VNB,B,4
3,test,4,0.0,2-Back,1.0,m,Thu Apr 30 2026 16:25:32 GMT-0500 (Central Daylight Time),803247.900000006,011_m_f_d_a.png,I,m,1501,7,2,2528.800000011921,800719.099999994,8081,VNB,B,5
4,test,4,0.0,2-Back,1.0,z,Thu Apr 30 2026 16:25:32 GMT-0500 (Central Daylight Time),805547.3000000119,020_y_f_n_a.png,I,z,1271,8,2,2296.100000023842,803251.1999999881,8081,VNB,B,6
5,test,4,1.0,2-Back,1.0,m,Thu Apr 30 2026 16:25:32 GMT-0500 (Central Daylight Time),807763.0,005_o_f_h_a.png,I,m,1197,9,2,2213.0,805550.0,8081,VNB,B,7
5,test,4,0.0,2-Back,0.0,m,Thu Apr 30 2026 16:25:32 GMT-0500 (Central Daylight Time),810212.5,007_m_m_h_a.png,I,z,1430,10,2,2445.0,807767.5,8081,VNB,B,8
5,test,4,0.0,2-Back,0.0,m,Thu Apr 30 2026 16:25:32 GMT-0500 (Central Daylight Time),813245.099999994,020_y_f_d_a.png,I,None,2016,11,2,3030.199999988079,810214.900000006,8081,VNB,B,9
6,test,4,0.0,2-Back,1.0,m,Thu Apr 30 2026 16:25:32 GMT-0500 (Central Daylight Time),815977.3000000119,016_y_m_n_a.png,I,m,1700,12,2,2728.0,813249.3000000119,8081,VNB,B,10
6,test,4,0.0,2-Back,0.0,z,Thu Apr 30 2026 16:25:32 GMT-0500 (Central Daylight Time),818859.8000000119,004_o_m_d_a.png,I,m,1856,13,2,2879.9000000059605,815979.900000006,8081,VNB,B,11
7,test,4,1.0,2-Back,1.0,m,Thu Apr 30 2026 16:25:32 GMT-0500 (Central Daylight Time),821209.099999994,011_m_f_h_a.png,I,m,1325,14,2,2345.199999988079,818863.900000006,8081,VNB,B,12
7,test,4,1.0,2-Back,0.0,m,Thu Apr 30 2026 16:25:32 GMT-0500 (Central Daylight Time),823558.1999999881,020_y_f_h_a.png,I,z,1320,15,2,2346.699999988079,821211.5,8081,VNB,B,13
8,test,4,0.0,2-Back,1.0,m,Thu Apr 30 2026 16:25:32 GMT-0500 (Central Daylight Time),825574.3000000119,005_o_f_n_a.png,I,m,995,16,2,2012.6000000238419,823561.6999999881,8081,VNB,B,14
9,test,4,0.0,2-Back,1.0,m,Thu Apr 30 2026 16:25:32 GMT-0500 (Central Daylight Time),828556.900000006,016_y_m_d_a.png,I,m,1953,17,2,2980.300000011921,825576.599999994,8081,VNB,B,15
9,test,4,1.0,2-Back,0.0,m,Thu Apr 30 2026 16:25:32 GMT-0500 (Central Daylight Time),830756.0,007_m_m_d_a.png,I,z,1180,18,2,2195.0,828561.0,8081,VNB,B,16
0,test,5,1.0,2-Back,,,Thu Apr 30 2026 16:25:32 GMT-0500 (Central Daylight Time),830756.0,020_y_f_d_a.png,I,space,1781,1,2,2195.0,828561.0,8081,VNB,B,0
0,test,5,1.0,2-Back,,,Thu Apr 30 2026 16:25:32 GMT-0500 (Central Daylight Time),830756.0,005_o_f_h_a.png,I,space,1781,2,2,2195.0,828561.0,8081,VNB,B,0
0,test,5,1.0,2-Back,0.0,z,Thu Apr 30 2026 16:25:32 GMT-0500 (Central Daylight Time),840286.400000006,004_o_m_d_a.png,I,m,1502,3,2,2530.300000011921,837756.099999994,8081,VNB,B,1
1,test,5,1.0,2-Back,1.0,m,Thu Apr 30 2026 16:25:32 GMT-0500 (Central Daylight Time),842985.5,011_m_f_n_a.png,I,m,1674,4,2,2695.0,840290.5,8081,VNB,B,2
2,test,5,0.0,2-Back,1.0,m,Thu Apr 30 2026 16:25:32 GMT-0500 (Central Daylight Time),845718.0,007_m_m_h_a.png,I,m,1712,5,2,2730.0999999940395,842987.900000006,8081,VNB,B,3
2,test,5,0.0,2-Back,0.0,z,Thu Apr 30 2026 16:25:32 GMT-0500 (Central Daylight Time),848750.1999999881,020_y_f_n_a.png,I,None,2010,6,2,3028.899999976158,845721.3000000119,8081,VNB,B,4
2,test,5,0.0,2-Back,0.0,m,Thu Apr 30 2026 16:25:32 GMT-0500 (Central Daylight Time),851616.099999994,005_o_f_d_a.png,I,z,1843,7,2,2863.5,848752.599999994,8081,VNB,B,5
3,test,5,0.0,2-Back,1.0,m,Thu Apr 30 2026 16:25:32 GMT-0500 (Central Daylight Time),853698.400000006,004_o_m_h_a.png,I,m,1065,8,2,2078.5999999940395,851619.8000000119,8081,VNB,B,6
3,test,5,1.0,2-Back,0.0,z,Thu Apr 30 2026 16:25:32 GMT-0500 (Central Daylight Time),855898.099999994,011_m_f_d_a.png,I,m,1174,9,2,2197.4000000059605,853700.6999999881,8081,VNB,B,7
4,test,5,0.0,2-Back,1.0,m,Thu Apr 30 2026 16:25:32 GMT-0500 (Central Daylight Time),858297.599999994,016_y_m_n_a.png,I,m,1375,10,2,2396.199999988079,855901.400000006,8081,VNB,B,8
5,test,5,0.0,2-Back,1.0,m,Thu Apr 30 2026 16:25:32 GMT-0500 (Central Daylight Time),860913.400000006,007_m_m_n_a.png,I,m,1583,11,2,2613.4000000059605,858300.0,8081,VNB,B,9
6,test,5,0.0,2-Back,1.0,m,Thu Apr 30 2026 16:25:32 GMT-0500 (Central Daylight Time),863579.099999994,020_y_f_h_a.png,I,m,1645,12,2,2662.2999999821186,860916.8000000119,8081,VNB,B,10
7,test,5,0.0,2-Back,1.0,m,Thu Apr 30 2026 16:25:32 GMT-0500 (Central Daylight Time),866578.599999994,016_y_m_d_a.png,I,m,1982,13,2,2996.9000000059605,863581.6999999881,8081,VNB,B,11
8,test,5,1.0,2-Back,1.0,z,Thu Apr 30 2026 16:25:32 GMT-0500 (Central Daylight Time),869377.400000006,011_m_f_h_a.png,I,z,1765,14,2,2795.4000000059605,866582.0,8081,VNB,B,12
9,test,5,0.0,2-Back,1.0,m,Thu Apr 30 2026 16:25:32 GMT-0500 (Central Daylight Time),871443.0,004_o_m_n_a.png,I,m,1049,15,2,2063.199999988079,869379.8000000119,8081,VNB,B,13
10,test,5,0.0,2-Back,1.0,m,Thu Apr 30 2026 16:25:32 GMT-0500 (Central Daylight Time),874125.900000006,007_m_m_d_a.png,I,m,1662,16,2,2678.800000011921,871447.099999994,8081,VNB,B,14
11,test,5,0.0,2-Back,1.0,z,Thu Apr 30 2026 16:25:32 GMT-0500 (Central Daylight Time),876458.099999994,005_o_f_n_a.png,I,z,1307,17,2,2329.699999988079,874128.400000006,8081,VNB,B,15
12,test,5,1.0,2-Back,1.0,m,Thu Apr 30 2026 16:25:32 GMT-0500 (Central Daylight Time),878657.8000000119,016_y_m_h_a.png,I,m,1175,18,2,2196.100000023842,876461.6999999881,8081,VNB,B,16
