block_c,block_dur,condition,countdown,datetime,endtime,list,multichar_response,project,response,response_time,session_number,start_end,starttime,subject_id,task,task_vers,trial
,,,,Mon Jul 14 2025 13:58:50 GMT-0500 (Central Daylight Time),,,,I,space,909,2,,,8039,WL,A,
prac,,0,,Mon Jul 14 2025 13:58:50 GMT-0500 (Central Daylight Time),,NA,b,I,b,5555,2,,,8039,WL,A,1.0
prac,,0,,Mon Jul 14 2025 13:58:50 GMT-0500 (Central Daylight Time),,NA,bo,I,o,506,2,,,8039,WL,A,1.0
prac,,0,,Mon Jul 14 2025 13:58:50 GMT-0500 (Central Daylight Time),,NA,boo,I,o,142,2,,,8039,WL,A,1.0
prac,,0,,Mon Jul 14 2025 13:58:50 GMT-0500 (Central Daylight Time),,NA,booa,I,a,224,2,,,8039,WL,A,1.0
prac,,0,,Mon Jul 14 2025 13:58:50 GMT-0500 (Central Daylight Time),,NA,booas,I,s,0,2,,,8039,WL,A,1.0
prac,,0,,Mon Jul 14 2025 13:58:50 GMT-0500 (Central Daylight Time),,NA,booa,I,backspace,406,2,,,8039,WL,A,1.0
prac,,0,,Mon Jul 14 2025 13:58:50 GMT-0500 (Central Daylight Time),,NA,boo,I,backspace,133,2,,,8039,WL,A,1.0
prac,,0,,Mon Jul 14 2025 13:58:50 GMT-0500 (Central Daylight Time),,NA,boos,I,s,887,2,,,8039,WL,A,1.0
prac,,0,,Mon Jul 14 2025 13:58:50 GMT-0500 (Central Daylight Time),,NA,boost,I,t,460,2,,,8039,WL,A,1.0
prac,,0,,Mon Jul 14 2025 13:58:50 GMT-0500 (Central Daylight Time),,NA,boostenter,I,enter,3001,2,,,8039,WL,A,1.0
1,0.567000150680542,learn,59432.99984931946,Mon Jul 14 2025 13:58:50 GMT-0500 (Central Daylight Time),143067.19999998808,A,b,I,b,559,2,566.0999999940395,142501.09999999404,8039,WL,A,1.0
1,0.7999999523162842,learn,59200.000047683716,Mon Jul 14 2025 13:58:50 GMT-0500 (Central Daylight Time),143300.39999997616,A,bo,I,o,225,2,799.2999999821186,142501.09999999404,8039,WL,A,1.0
1,0.9500000476837158,learn,59049.999952316284,Mon Jul 14 2025 13:58:50 GMT-0500 (Central Daylight Time),143450.29999998212,A,boo,I,o,136,2,949.1999999880791,142501.09999999404,8039,WL,A,1.0
1,1.065999984741211,learn,58934.00001525879,Mon Jul 14 2025 13:58:50 GMT-0500 (Central Daylight Time),143567.09999999404,A,book,I,k,106,2,1066.0,142501.09999999404,8039,WL,A,1.0
1,1.433000087738037,learn,58566.99991226196,Mon Jul 14 2025 13:58:50 GMT-0500 (Central Daylight Time),143933.59999999404,A,bookenter,I,enter,349,2,1432.5,142501.09999999404,8039,WL,A,1.0
1,1.7829999923706055,learn,58217.000007629395,Mon Jul 14 2025 13:58:50 GMT-0500 (Central Daylight Time),144283.39999997616,A,f,I,f,342,2,349.2999999821186,143934.09999999404,8039,WL,A,2.0
1,2.0160000324249268,learn,57983.99996757507,Mon Jul 14 2025 13:58:50 GMT-0500 (Central Daylight Time),144516.59999999404,A,fl,I,l,217,2,582.5,143934.09999999404,8039,WL,A,2.0
1,2.2160000801086426,learn,57783.99991989136,Mon Jul 14 2025 13:58:50 GMT-0500 (Central Daylight Time),144716.69999998808,A,flo,I,o,183,2,782.5999999940395,143934.09999999404,8039,WL,A,2.0
1,2.3329999446868896,learn,57667.00005531311,Mon Jul 14 2025 13:58:50 GMT-0500 (Central Daylight Time),144833.19999998808,A,flow,I,w,104,2,899.0999999940395,143934.09999999404,8039,WL,A,2.0
1,2.433000087738037,learn,57566.99991226196,Mon Jul 14 2025 13:58:50 GMT-0500 (Central Daylight Time),144933.19999998808,A,flowe,I,e,91,2,999.0999999940395,143934.09999999404,8039,WL,A,2.0
1,2.4820001125335693,learn,57517.99988746643,Mon Jul 14 2025 13:58:50 GMT-0500 (Central Daylight Time),144983.09999999404,A,flower,I,r,40,2,1049.0,143934.09999999404,8039,WL,A,2.0
1,2.749000072479248,learn,57250.99992752075,Mon Jul 14 2025 13:58:50 GMT-0500 (Central Daylight Time),145249.79999998212,A,flowerenter,I,enter,254,2,1315.699999988079,143934.09999999404,8039,WL,A,2.0
1,2.999000072479248,learn,57000.99992752075,Mon Jul 14 2025 13:58:50 GMT-0500 (Central Daylight Time),145499.79999998212,A,t,I,t,242,2,249.69999998807907,145250.09999999404,8039,WL,A,3.0
1,3.249000072479248,learn,56750.99992752075,Mon Jul 14 2025 13:58:50 GMT-0500 (Central Daylight Time),145749.5,A,tr,I,r,233,2,499.40000000596046,145250.09999999404,8039,WL,A,3.0
1,3.3489999771118164,learn,56651.00002288818,Mon Jul 14 2025 13:58:50 GMT-0500 (Central Daylight Time),145849.89999997616,A,tra,I,a,87,2,599.7999999821186,145250.09999999404,8039,WL,A,3.0
1,3.4820001125335693,learn,56517.99988746643,Mon Jul 14 2025 13:58:50 GMT-0500 (Central Daylight Time),145982.89999997616,A,trai,I,i,115,2,732.7999999821186,145250.09999999404,8039,WL,A,3.0
1,3.565999984741211,learn,56434.00001525879,Mon Jul 14 2025 13:58:50 GMT-0500 (Central Daylight Time),146066.39999997616,A,train,I,n,62,2,816.2999999821186,145250.09999999404,8039,WL,A,3.0
1,3.881999969482422,learn,56118.00003051758,Mon Jul 14 2025 13:58:50 GMT-0500 (Central Daylight Time),146382.69999998808,A,trainenter,I,enter,298,2,1132.5999999940395,145250.09999999404,8039,WL,A,3.0
1,4.082000017166138,learn,55917.99998283386,Mon Jul 14 2025 13:58:50 GMT-0500 (Central Daylight Time),146582.69999998808,A,r,I,r,190,2,199.69999998807907,146383.0,8039,WL,A,4.0
1,4.315000057220459,learn,55684.99994277954,Mon Jul 14 2025 13:58:50 GMT-0500 (Central Daylight Time),146816.0,A,ru,I,u,214,2,433.0,146383.0,8039,WL,A,4.0
1,4.549000024795532,learn,55450.99997520447,Mon Jul 14 2025 13:58:50 GMT-0500 (Central Daylight Time),147049.29999998212,A,rug,I,g,213,2,666.2999999821186,146383.0,8039,WL,A,4.0
1,4.7820000648498535,learn,55217.99993515015,Mon Jul 14 2025 13:58:50 GMT-0500 (Central Daylight Time),147282.5,A,rugenter,I,enter,227,2,899.5,146383.0,8039,WL,A,4.0
1,5.115000009536743,learn,54884.99999046326,Mon Jul 14 2025 13:58:50 GMT-0500 (Central Daylight Time),147615.89999997616,A,m,I,m,322,2,333.0,147282.89999997616,8039,WL,A,5.0
1,5.2820000648498535,learn,54717.99993515015,Mon Jul 14 2025 13:58:50 GMT-0500 (Central Daylight Time),147782.29999998212,A,me,I,e,148,2,499.40000000596046,147282.89999997616,8039,WL,A,5.0
1,5.432000160217285,learn,54567.999839782715,Mon Jul 14 2025 13:58:50 GMT-0500 (Central Daylight Time),147932.29999998212,A,mea,I,a,135,2,649.4000000059605,147282.89999997616,8039,WL,A,5.0
1,5.631999969482422,learn,54368.00003051758,Mon Jul 14 2025 13:58:50 GMT-0500 (Central Daylight Time),148132.09999999404,A,mead,I,d,192,2,849.2000000178814,147282.89999997616,8039,WL,A,5.0
1,5.947999954223633,learn,54052.00004577637,Mon Jul 14 2025 13:58:50 GMT-0500 (Central Daylight Time),148448.69999998808,A,meado,I,o,305,2,1165.800000011921,147282.89999997616,8039,WL,A,5.0
1,6.065000057220459,learn,53934.99994277954,Mon Jul 14 2025 13:58:50 GMT-0500 (Central Daylight Time),148565.29999998212,A,meadow,I,w,100,2,1282.4000000059605,147282.89999997616,8039,WL,A,5.0
1,6.365000009536743,learn,53634.99999046326,Mon Jul 14 2025 13:58:50 GMT-0500 (Central Daylight Time),148865.59999999404,A,meadowenter,I,enter,279,2,1582.7000000178814,147282.89999997616,8039,WL,A,5.0
1,6.715000152587891,learn,53284.99984741211,Mon Jul 14 2025 13:58:50 GMT-0500 (Central Daylight Time),149215.09999999404,A,h,I,h,331,2,349.2000000178814,148865.89999997616,8039,WL,A,6.0
1,6.865000009536743,learn,53134.99999046326,Mon Jul 14 2025 13:58:50 GMT-0500 (Central Daylight Time),149365.29999998212,A,ha,I,a,133,2,499.40000000596046,148865.89999997616,8039,WL,A,6.0
1,7.064000129699707,learn,52935.99987030029,Mon Jul 14 2025 13:58:50 GMT-0500 (Central Daylight Time),149565.0,A,har,I,r,182,2,699.1000000238419,148865.89999997616,8039,WL,A,6.0
1,7.3480000495910645,learn,52651.999950408936,Mon Jul 14 2025 13:58:50 GMT-0500 (Central Daylight Time),149848.29999998212,A,harp,I,p,263,2,982.4000000059605,148865.89999997616,8039,WL,A,6.0
1,7.71399998664856,learn,52286.00001335144,Mon Jul 14 2025 13:58:50 GMT-0500 (Central Daylight Time),150214.89999997616,A,harpenter,I,enter,357,2,1349.0,148865.89999997616,8039,WL,A,6.0
1,7.947000026702881,learn,52052.99997329712,Mon Jul 14 2025 13:58:50 GMT-0500 (Central Daylight Time),150448.0,A,s,I,s,222,2,232.80000001192093,150215.19999998808,8039,WL,A,7.0
1,8.13100004196167,learn,51868.99995803833,Mon Jul 14 2025 13:58:50 GMT-0500 (Central Daylight Time),150631.59999999404,A,sa,I,a,165,2,416.40000000596046,150215.19999998808,8039,WL,A,7.0
1,8.414000034332275,learn,51585.999965667725,Mon Jul 14 2025 13:58:50 GMT-0500 (Central Daylight Time),150914.69999998808,A,sal,I,l,270,2,699.5,150215.19999998808,8039,WL,A,7.0
1,8.69700002670288,learn,51302.99997329712,Mon Jul 14 2025 13:58:50 GMT-0500 (Central Daylight Time),151197.89999997616,A,salt,I,t,266,2,982.6999999880791,150215.19999998808,8039,WL,A,7.0
1,9.114000082015991,learn,50885.99991798401,Mon Jul 14 2025 13:58:50 GMT-0500 (Central Daylight Time),151614.39999997616,A,saltenter,I,enter,399,2,1399.199999988079,150215.19999998808,8039,WL,A,7.0
1,9.46399998664856,learn,50536.00001335144,Mon Jul 14 2025 13:58:50 GMT-0500 (Central Daylight Time),151964.5,A,g,I,g,342,2,349.80000001192093,151614.69999998808,8039,WL,A,8.0
1,9.763999938964844,learn,50236.000061035156,Mon Jul 14 2025 13:58:50 GMT-0500 (Central Daylight Time),152264.29999998212,A,go,I,o,280,2,649.5999999940395,151614.69999998808,8039,WL,A,8.0
1,10.047000169754028,learn,49952.99983024597,Mon Jul 14 2025 13:58:50 GMT-0500 (Central Daylight Time),152547.39999997616,A,gol,I,l,277,2,932.6999999880791,151614.69999998808,8039,WL,A,8.0
1,10.297000169754028,learn,49702.99983024597,Mon Jul 14 2025 13:58:50 GMT-0500 (Central Daylight Time),152797.5,A,gold,I,d,242,2,1182.800000011921,151614.69999998808,8039,WL,A,8.0
1,11.546000003814697,learn,48453.9999961853,Mon Jul 14 2025 13:58:50 GMT-0500 (Central Daylight Time),154047.09999999404,A,goldenter,I,enter,1232,2,2432.4000000059605,151614.69999998808,8039,WL,A,8.0
1,19.344000101089478,learn,40655.99989891052,Mon Jul 14 2025 13:58:50 GMT-0500 (Central Daylight Time),161844.5,A,m,I,m,7782,2,7797.0,154047.5,8039,WL,A,9.0
1,19.47699999809265,learn,40523.00000190735,Mon Jul 14 2025 13:58:50 GMT-0500 (Central Daylight Time),161977.89999997616,A,me,I,e,111,2,7930.399999976158,154047.5,8039,WL,A,9.0
1,19.627000093460083,learn,40372.99990653992,Mon Jul 14 2025 13:58:50 GMT-0500 (Central Daylight Time),162127.89999997616,A,mea,I,a,131,2,8080.399999976158,154047.5,8039,WL,A,9.0
1,19.844000101089478,learn,40155.99989891052,Mon Jul 14 2025 13:58:50 GMT-0500 (Central Daylight Time),162344.39999997616,A,mead,I,d,205,2,8296.899999976158,154047.5,8039,WL,A,9.0
1,20.044000148773193,learn,39955.99985122681,Mon Jul 14 2025 13:58:50 GMT-0500 (Central Daylight Time),162544.39999997616,A,meado,I,o,180,2,8496.899999976158,154047.5,8039,WL,A,9.0
1,20.127000093460083,learn,39872.99990653992,Mon Jul 14 2025 13:58:50 GMT-0500 (Central Daylight Time),162627.59999999404,A,meadow,I,w,69,2,8580.09999999404,154047.5,8039,WL,A,9.0
1,22.14300012588501,learn,37856.99987411499,Mon Jul 14 2025 13:58:50 GMT-0500 (Central Daylight Time),164643.69999998808,A,meadowenter,I,enter,2009,2,10596.199999988079,154047.5,8039,WL,A,9.0
1,28.324000120162964,learn,31675.999879837036,Mon Jul 14 2025 13:58:50 GMT-0500 (Central Daylight Time),170825.0,A,c,I,c,6169,2,6181.100000023842,164643.89999997616,8039,WL,A,10.0
1,28.54100012779236,learn,31458.99987220764,Mon Jul 14 2025 13:58:50 GMT-0500 (Central Daylight Time),171041.69999998808,A,ch,I,h,196,2,6397.800000011921,164643.89999997616,8039,WL,A,10.0
1,28.758000135421753,learn,31241.999864578247,Mon Jul 14 2025 13:58:50 GMT-0500 (Central Daylight Time),171258.29999998212,A,chi,I,i,195,2,6614.4000000059605,164643.89999997616,8039,WL,A,10.0
1,29.240999937057495,learn,30759.000062942505,Mon Jul 14 2025 13:58:50 GMT-0500 (Central Daylight Time),171741.39999997616,A,chim,I,m,475,2,7097.5,164643.89999997616,8039,WL,A,10.0
1,29.79100012779236,learn,30208.99987220764,Mon Jul 14 2025 13:58:50 GMT-0500 (Central Daylight Time),172291.39999997616,A,chimn,I,n,536,2,7647.5,164643.89999997616,8039,WL,A,10.0
1,30.10700011253357,learn,29892.99988746643,Mon Jul 14 2025 13:58:50 GMT-0500 (Central Daylight Time),172607.79999998212,A,chimne,I,e,306,2,7963.9000000059605,164643.89999997616,8039,WL,A,10.0
1,30.35700011253357,learn,29642.99988746643,Mon Jul 14 2025 13:58:50 GMT-0500 (Central Daylight Time),172857.59999999404,A,chimney,I,y,229,2,8213.700000017881,164643.89999997616,8039,WL,A,10.0
1,31.374000072479248,learn,28625.999927520752,Mon Jul 14 2025 13:58:50 GMT-0500 (Central Daylight Time),173874.29999998212,A,chimneyenter,I,enter,1011,2,9230.40000000596,164643.89999997616,8039,WL,A,10.0
1,38.9539999961853,learn,21046.000003814697,Mon Jul 14 2025 13:58:50 GMT-0500 (Central Daylight Time),181455.0,A,enter,I,enter,7570,2,7580.4000000059605,173874.59999999404,8039,WL,A,11.0
1,39.50399994850159,learn,20496.000051498413,Mon Jul 14 2025 13:58:50 GMT-0500 (Central Daylight Time),182004.89999997616,A,enter,I,enter,541,2,549.5999999940395,181455.29999998212,8039,WL,A,12.0
1,39.6710000038147,learn,20328.999996185303,Mon Jul 14 2025 13:58:50 GMT-0500 (Central Daylight Time),182171.39999997616,A,enter,I,enter,152,2,166.2999999821186,182005.09999999404,8039,WL,A,13.0
1,40.03699994087219,learn,19963.000059127808,Mon Jul 14 2025 13:58:50 GMT-0500 (Central Daylight Time),182538.09999999404,A,enter,I,enter,362,2,366.40000000596046,182171.69999998808,8039,WL,A,14.0
1,40.4539999961853,learn,19546.000003814697,Mon Jul 14 2025 13:58:50 GMT-0500 (Central Daylight Time),182954.39999997616,A,enter,I,enter,403,2,416.0,182538.39999997616,8039,WL,A,15.0
2,0.48200011253356934,learn,59517.99988746643,Mon Jul 14 2025 13:58:50 GMT-0500 (Central Daylight Time),251316.39999997616,A,s,I,s,476,2,482.69999998807907,250833.69999998808,8039,WL,A,1.0
2,0.6490001678466797,learn,59350.99983215332,Mon Jul 14 2025 13:58:50 GMT-0500 (Central Daylight Time),251483.09999999404,A,sa,I,a,160,2,649.4000000059605,250833.69999998808,8039,WL,A,1.0
2,0.81600022315979,learn,59183.99977684021,Mon Jul 14 2025 13:58:50 GMT-0500 (Central Daylight Time),251649.89999997616,A,sal,I,l,146,2,816.1999999880791,250833.69999998808,8039,WL,A,1.0
2,0.9320001602172852,learn,59067.999839782715,Mon Jul 14 2025 13:58:50 GMT-0500 (Central Daylight Time),251766.5,A,salt,I,t,107,2,932.8000000119209,250833.69999998808,8039,WL,A,1.0
2,1.249000072479248,learn,58750.99992752075,Mon Jul 14 2025 13:58:50 GMT-0500 (Central Daylight Time),252082.89999997616,A,saltenter,I,enter,302,2,1249.199999988079,250833.69999998808,8039,WL,A,1.0
2,1.499000072479248,learn,58500.99992752075,Mon Jul 14 2025 13:58:50 GMT-0500 (Central Daylight Time),252332.79999998212,A,f,I,f,234,2,249.5,252083.29999998212,8039,WL,A,2.0
2,1.6990001201629639,learn,58300.999879837036,Mon Jul 14 2025 13:58:50 GMT-0500 (Central Daylight Time),252532.79999998212,A,fi,I,i,192,2,449.5,252083.29999998212,8039,WL,A,2.0
2,1.7990000247955322,learn,58200.99997520447,Mon Jul 14 2025 13:58:50 GMT-0500 (Central Daylight Time),252632.69999998808,A,fin,I,n,80,2,549.4000000059605,252083.29999998212,8039,WL,A,2.0
2,1.9320001602172852,learn,58067.999839782715,Mon Jul 14 2025 13:58:50 GMT-0500 (Central Daylight Time),252766.0,A,fing,I,g,125,2,682.7000000178814,252083.29999998212,8039,WL,A,2.0
2,2.249000072479248,learn,57750.99992752075,Mon Jul 14 2025 13:58:50 GMT-0500 (Central Daylight Time),253082.69999998808,A,finge,I,e,311,2,999.4000000059605,252083.29999998212,8039,WL,A,2.0
2,2.315000057220459,learn,57684.99994277954,Mon Jul 14 2025 13:58:50 GMT-0500 (Central Daylight Time),253149.39999997616,A,finger,I,r,50,2,1066.0999999940395,252083.29999998212,8039,WL,A,2.0
2,2.565000057220459,learn,57434.99994277954,Mon Jul 14 2025 13:58:50 GMT-0500 (Central Daylight Time),253399.19999998808,A,fingerenter,I,enter,232,2,1315.9000000059605,252083.29999998212,8039,WL,A,2.0
2,2.9160001277923584,learn,57083.99987220764,Mon Jul 14 2025 13:58:50 GMT-0500 (Central Daylight Time),253749.89999997616,A,k,I,k,333,2,350.39999997615814,253399.5,8039,WL,A,3.0
2,3.182000160217285,learn,56817.999839782715,Mon Jul 14 2025 13:58:50 GMT-0500 (Central Daylight Time),254015.59999999404,A,ke,I,e,255,2,616.0999999940395,253399.5,8039,WL,A,3.0
2,3.365000009536743,learn,56634.99999046326,Mon Jul 14 2025 13:58:50 GMT-0500 (Central Daylight Time),254198.69999998808,A,key,I,y,174,2,799.1999999880791,253399.5,8039,WL,A,3.0
2,3.682000160217285,learn,56317.999839782715,Mon Jul 14 2025 13:58:50 GMT-0500 (Central Daylight Time),254515.5,A,keyenter,I,enter,303,2,1116.0,253399.5,8039,WL,A,3.0
2,3.948000192642212,learn,56051.99980735779,Mon Jul 14 2025 13:58:50 GMT-0500 (Central Daylight Time),254782.0,A,c,I,c,250,2,266.30000001192093,254515.69999998808,8039,WL,A,4.0
2,4.147000074386597,learn,55852.9999256134,Mon Jul 14 2025 13:58:50 GMT-0500 (Central Daylight Time),254980.5,A,ch,I,h,193,2,464.80000001192093,254515.69999998808,8039,WL,A,4.0
2,4.398000001907349,learn,55601.99999809265,Mon Jul 14 2025 13:58:50 GMT-0500 (Central Daylight Time),255232.0,A,chi,I,i,234,2,716.3000000119209,254515.69999998808,8039,WL,A,4.0
2,4.63100004196167,learn,55368.99995803833,Mon Jul 14 2025 13:58:50 GMT-0500 (Central Daylight Time),255465.0,A,chim,I,m,221,2,949.3000000119209,254515.69999998808,8039,WL,A,4.0
2,4.864000082015991,learn,55135.99991798401,Mon Jul 14 2025 13:58:50 GMT-0500 (Central Daylight Time),255698.39999997616,A,chimn,I,n,228,2,1182.699999988079,254515.69999998808,8039,WL,A,4.0
2,5.081000089645386,learn,54918.999910354614,Mon Jul 14 2025 13:58:50 GMT-0500 (Central Daylight Time),255915.09999999404,A,chimne,I,e,203,2,1399.4000000059605,254515.69999998808,8039,WL,A,4.0
2,5.180999994277954,learn,54819.000005722046,Mon Jul 14 2025 13:58:50 GMT-0500 (Central Daylight Time),256015.0,A,chimney,I,y,90,2,1499.300000011921,254515.69999998808,8039,WL,A,4.0
2,5.547000169754028,learn,54452.99983024597,Mon Jul 14 2025 13:58:50 GMT-0500 (Central Daylight Time),256381.5,A,chimneyenter,I,enter,350,2,1865.800000011921,254515.69999998808,8039,WL,A,4.0
2,5.814000129699707,learn,54185.99987030029,Mon Jul 14 2025 13:58:50 GMT-0500 (Central Daylight Time),256648.0,A,l,I,l,248,2,266.30000001192093,256381.69999998808,8039,WL,A,5.0
2,5.998000144958496,learn,54001.999855041504,Mon Jul 14 2025 13:58:50 GMT-0500 (Central Daylight Time),256831.5,A,lo,I,o,165,2,449.80000001192093,256381.69999998808,8039,WL,A,5.0
2,6.164000034332275,learn,53835.999965667725,Mon Jul 14 2025 13:58:50 GMT-0500 (Central Daylight Time),256998.19999998808,A,log,I,g,158,2,616.5,256381.69999998808,8039,WL,A,5.0
2,6.464000225067139,learn,53535.99977493286,Mon Jul 14 2025 13:58:50 GMT-0500 (Central Daylight Time),257297.89999997616,A,logenter,I,enter,279,2,916.1999999880791,256381.69999998808,8039,WL,A,5.0
2,6.947000026702881,learn,53052.99997329712,Mon Jul 14 2025 13:58:50 GMT-0500 (Central Daylight Time),257781.0,A,b,I,b,475,2,482.80000001192093,257298.19999998808,8039,WL,A,6.0
2,7.0970001220703125,learn,52902.99987792969,Mon Jul 14 2025 13:58:50 GMT-0500 (Central Daylight Time),257931.19999998808,A,bo,I,o,136,2,633.0,257298.19999998808,8039,WL,A,6.0
2,7.264000177383423,learn,52735.99982261658,Mon Jul 14 2025 13:58:50 GMT-0500 (Central Daylight Time),258097.69999998808,A,boo,I,o,146,2,799.5,257298.19999998808,8039,WL,A,6.0
2,7.330000162124634,learn,52669.999837875366,Mon Jul 14 2025 13:58:50 GMT-0500 (Central Daylight Time),258164.29999998212,A,book,I,k,52,2,866.0999999940395,257298.19999998808,8039,WL,A,6.0
2,7.580000162124634,learn,52419.999837875366,Mon Jul 14 2025 13:58:50 GMT-0500 (Central Daylight Time),258414.09999999404,A,bookenter,I,enter,241,2,1115.9000000059605,257298.19999998808,8039,WL,A,6.0
2,7.713000059127808,learn,52286.99994087219,Mon Jul 14 2025 13:58:50 GMT-0500 (Central Daylight Time),258547.39999997616,A,f,I,f,119,2,132.89999997615814,258414.5,8039,WL,A,7.0
2,7.913000106811523,learn,52086.99989318848,Mon Jul 14 2025 13:58:50 GMT-0500 (Central Daylight Time),258747.39999997616,A,fl,I,l,186,2,332.89999997615814,258414.5,8039,WL,A,7.0
2,8.080000162124634,learn,51919.999837875366,Mon Jul 14 2025 13:58:50 GMT-0500 (Central Daylight Time),258914.09999999404,A,flo,I,o,162,2,499.59999999403954,258414.5,8039,WL,A,7.0
2,8.230000019073486,learn,51769.999980926514,Mon Jul 14 2025 13:58:50 GMT-0500 (Central Daylight Time),259064.09999999404,A,flow,I,w,131,2,649.5999999940395,258414.5,8039,WL,A,7.0
2,8.28000020980835,learn,51719.99979019165,Mon Jul 14 2025 13:58:50 GMT-0500 (Central Daylight Time),259114.09999999404,A,flowe,I,e,29,2,699.5999999940395,258414.5,8039,WL,A,7.0
2,8.36300015449524,learn,51636.99984550476,Mon Jul 14 2025 13:58:50 GMT-0500 (Central Daylight Time),259197.39999997616,A,flower,I,r,75,2,782.8999999761581,258414.5,8039,WL,A,7.0
2,8.563000202178955,learn,51436.999797821045,Mon Jul 14 2025 13:58:50 GMT-0500 (Central Daylight Time),259397.29999998212,A,flowerenter,I,enter,192,2,982.7999999821186,258414.5,8039,WL,A,7.0
2,8.730000019073486,learn,51269.999980926514,Mon Jul 14 2025 13:58:50 GMT-0500 (Central Daylight Time),259563.89999997616,A,t,I,t,160,2,166.2999999821186,259397.59999999404,8039,WL,A,8.0
2,8.946000099182129,learn,51053.99990081787,Mon Jul 14 2025 13:58:50 GMT-0500 (Central Daylight Time),259780.39999997616,A,tr,I,r,209,2,382.7999999821186,259397.59999999404,8039,WL,A,8.0
2,9.063000202178955,learn,50936.999797821045,Mon Jul 14 2025 13:58:50 GMT-0500 (Central Daylight Time),259897.0,A,tra,I,a,105,2,499.40000000596046,259397.59999999404,8039,WL,A,8.0
2,9.230000019073486,learn,50769.999980926514,Mon Jul 14 2025 13:58:50 GMT-0500 (Central Daylight Time),260063.59999999404,A,trai,I,i,148,2,666.0,259397.59999999404,8039,WL,A,8.0
2,9.36300015449524,learn,50636.99984550476,Mon Jul 14 2025 13:58:50 GMT-0500 (Central Daylight Time),260196.89999997616,A,train,I,n,125,2,799.2999999821186,259397.59999999404,8039,WL,A,8.0
2,11.912000179290771,learn,48087.99982070923,Mon Jul 14 2025 13:58:50 GMT-0500 (Central Daylight Time),262746.09999999404,A,trainenter,I,enter,2536,2,3348.5,259397.59999999404,8039,WL,A,8.0
2,18.993000030517578,learn,41006.99996948242,Mon Jul 14 2025 13:58:50 GMT-0500 (Central Daylight Time),269827.39999997616,A,g,I,g,7075,2,7081.0,262746.39999997616,8039,WL,A,9.0
2,19.14300012588501,learn,40856.99987411499,Mon Jul 14 2025 13:58:50 GMT-0500 (Central Daylight Time),269977.2999999821,A,go,I,o,137,2,7230.9000000059605,262746.39999997616,8039,WL,A,9.0
2,19.360000133514404,learn,40639.999866485596,Mon Jul 14 2025 13:58:50 GMT-0500 (Central Daylight Time),270193.7999999821,A,gol,I,l,196,2,7447.4000000059605,262746.39999997616,8039,WL,A,9.0
2,19.460000038146973,learn,40539.99996185303,Mon Jul 14 2025 13:58:50 GMT-0500 (Central Daylight Time),270293.89999997616,A,gold,I,d,91,2,7547.5,262746.39999997616,8039,WL,A,9.0
2,19.760000228881836,learn,40239.999771118164,Mon Jul 14 2025 13:58:50 GMT-0500 (Central Daylight Time),270593.59999999404,A,goldenter,I,enter,287,2,7847.200000017881,262746.39999997616,8039,WL,A,9.0
2,23.175000190734863,learn,36824.99980926514,Mon Jul 14 2025 13:58:50 GMT-0500 (Central Daylight Time),274009.2999999821,A,m,I,m,3404,2,3415.4000000059605,270593.89999997616,8039,WL,A,10.0
2,23.27500009536743,learn,36724.99990463257,Mon Jul 14 2025 13:58:50 GMT-0500 (Central Daylight Time),274109.39999997616,A,me,I,e,83,2,3515.5,270593.89999997616,8039,WL,A,10.0
2,23.409000158309937,learn,36590.99984169006,Mon Jul 14 2025 13:58:50 GMT-0500 (Central Daylight Time),274242.7999999821,A,mea,I,a,112,2,3648.9000000059605,270593.89999997616,8039,WL,A,10.0
2,23.575000047683716,learn,36424.999952316284,Mon Jul 14 2025 13:58:50 GMT-0500 (Central Daylight Time),274409.2999999821,A,mead,I,d,154,2,3815.4000000059605,270593.89999997616,8039,WL,A,10.0
2,23.758000135421753,learn,36241.99986457825,Mon Jul 14 2025 13:58:50 GMT-0500 (Central Daylight Time),274592.5,A,meado,I,o,172,2,3998.600000023842,270593.89999997616,8039,WL,A,10.0
2,23.825000047683716,learn,36174.999952316284,Mon Jul 14 2025 13:58:50 GMT-0500 (Central Daylight Time),274659.1999999881,A,meadow,I,w,53,2,4065.300000011921,270593.89999997616,8039,WL,A,10.0
2,25.058000087738037,learn,34941.99991226196,Mon Jul 14 2025 13:58:50 GMT-0500 (Central Daylight Time),275892.0,A,meadowenter,I,enter,1218,2,5298.100000023842,270593.89999997616,8039,WL,A,10.0
2,25.45800018310547,learn,34541.99981689453,Mon Jul 14 2025 13:58:50 GMT-0500 (Central Daylight Time),276291.89999997616,A,k,I,k,385,2,399.69999998807907,275892.1999999881,8039,WL,A,11.0
2,25.575000047683716,learn,34424.999952316284,Mon Jul 14 2025 13:58:50 GMT-0500 (Central Daylight Time),276408.7999999821,A,ke,I,e,105,2,516.5999999940395,275892.1999999881,8039,WL,A,11.0
2,25.741000175476074,learn,34258.999824523926,Mon Jul 14 2025 13:58:50 GMT-0500 (Central Daylight Time),276575.2999999821,A,key,I,y,148,2,683.0999999940395,275892.1999999881,8039,WL,A,11.0
2,26.124000072479248,learn,33875.99992752075,Mon Jul 14 2025 13:58:50 GMT-0500 (Central Daylight Time),276958.2999999821,A,keyenter,I,enter,374,2,1066.0999999940395,275892.1999999881,8039,WL,A,11.0
2,31.356000185012817,learn,28643.999814987183,Mon Jul 14 2025 13:58:50 GMT-0500 (Central Daylight Time),282190.0,A,b,I,b,5215,2,5231.4000000059605,276958.59999999404,8039,WL,A,12.0
2,31.6560001373291,learn,28343.9998626709,Mon Jul 14 2025 13:58:50 GMT-0500 (Central Daylight Time),282489.89999997616,A,bt,I,t,287,2,5531.299999982119,276958.59999999404,8039,WL,A,12.0
2,32.039000034332275,learn,27960.999965667725,Mon Jul 14 2025 13:58:50 GMT-0500 (Central Daylight Time),282873.2999999821,A,b,I,backspace,371,2,5914.699999988079,276958.59999999404,8039,WL,A,12.0
2,32.305999994277954,learn,27694.000005722046,Mon Jul 14 2025 13:58:50 GMT-0500 (Central Daylight Time),283139.6999999881,A,bu,I,u,252,2,6181.0999999940395,276958.59999999404,8039,WL,A,12.0
2,32.42300009727478,learn,27576.99990272522,Mon Jul 14 2025 13:58:50 GMT-0500 (Central Daylight Time),283256.59999999404,A,but,I,t,97,2,6298.0,276958.59999999404,8039,WL,A,12.0
2,32.555999994277954,learn,27444.000005722046,Mon Jul 14 2025 13:58:50 GMT-0500 (Central Daylight Time),283389.59999999404,A,butt,I,t,125,2,6431.0,276958.59999999404,8039,WL,A,12.0
2,32.68900012969971,learn,27310.999870300293,Mon Jul 14 2025 13:58:50 GMT-0500 (Central Daylight Time),283522.89999997616,A,butto,I,o,128,2,6564.299999982119,276958.59999999404,8039,WL,A,12.0
2,32.789000034332275,learn,27210.999965667725,Mon Jul 14 2025 13:58:50 GMT-0500 (Central Daylight Time),283623.09999999404,A,button,I,n,82,2,6664.5,276958.59999999404,8039,WL,A,12.0
2,33.72200012207031,learn,26277.999877929688,Mon Jul 14 2025 13:58:50 GMT-0500 (Central Daylight Time),284556.0,A,buttonenter,I,enter,917,2,7597.4000000059605,276958.59999999404,8039,WL,A,12.0
2,35.58800005912781,learn,24411.999940872192,Mon Jul 14 2025 13:58:50 GMT-0500 (Central Daylight Time),286422.09999999404,A,enter,I,enter,1857,2,1865.7000000178814,284556.39999997616,8039,WL,A,13.0
2,35.73800015449524,learn,24261.99984550476,Mon Jul 14 2025 13:58:50 GMT-0500 (Central Daylight Time),286572.09999999404,A,enter,I,enter,143,2,149.80000001192093,286422.2999999821,8039,WL,A,14.0
2,37.3050000667572,learn,22694.999933242798,Mon Jul 14 2025 13:58:50 GMT-0500 (Central Daylight Time),288138.5,A,enter,I,enter,1561,2,1566.1000000238419,286572.39999997616,8039,WL,A,15.0
3,0.3169999122619629,learn,59683.00008773804,Mon Jul 14 2025 13:58:50 GMT-0500 (Central Daylight Time),358416.59999999404,A,b,I,b,307,2,316.7000000178814,358099.89999997616,8039,WL,A,1.0
3,0.6169998645782471,learn,59383.00013542175,Mon Jul 14 2025 13:58:50 GMT-0500 (Central Daylight Time),358716.5,A,bo,I,o,291,2,616.6000000238419,358099.89999997616,8039,WL,A,1.0
3,1.0169999599456787,learn,58983.00004005432,Mon Jul 14 2025 13:58:50 GMT-0500 (Central Daylight Time),359116.5,A,boo,I,o,393,2,1016.6000000238419,358099.89999997616,8039,WL,A,1.0
3,1.3509998321533203,learn,58649.00016784668,Mon Jul 14 2025 13:58:50 GMT-0500 (Central Daylight Time),359449.7999999821,A,book,I,k,313,2,1349.9000000059605,358099.89999997616,8039,WL,A,1.0
3,1.6339998245239258,learn,58366.000175476074,Mon Jul 14 2025 13:58:50 GMT-0500 (Central Daylight Time),359732.7999999821,A,bookenter,I,enter,267,2,1632.9000000059605,358099.89999997616,8039,WL,A,1.0
3,1.8499999046325684,learn,58150.00009536743,Mon Jul 14 2025 13:58:50 GMT-0500 (Central Daylight Time),359949.5,A,d,I,d,209,2,216.30000001192093,359733.1999999881,8039,WL,A,2.0
3,2.0,learn,58000.0,Mon Jul 14 2025 13:58:50 GMT-0500 (Central Daylight Time),360099.59999999404,A,dl,I,l,136,2,366.40000000596046,359733.1999999881,8039,WL,A,2.0
3,2.2339999675750732,learn,57766.00003242493,Mon Jul 14 2025 13:58:50 GMT-0500 (Central Daylight Time),360332.89999997616,A,dlo,I,o,218,2,599.6999999880791,359733.1999999881,8039,WL,A,2.0
3,2.5999999046325684,learn,57400.00009536743,Mon Jul 14 2025 13:58:50 GMT-0500 (Central Daylight Time),360699.0,A,dl,I,backspace,360,2,965.8000000119209,359733.1999999881,8039,WL,A,2.0
3,2.7829999923706055,learn,57217.000007629395,Mon Jul 14 2025 13:58:50 GMT-0500 (Central Daylight Time),360882.6999999881,A,d,I,backspace,170,2,1149.5,359733.1999999881,8039,WL,A,2.0
3,2.9159998893737793,learn,57084.00011062622,Mon Jul 14 2025 13:58:50 GMT-0500 (Central Daylight Time),361015.59999999404,A,,I,backspace,122,2,1282.4000000059605,359733.1999999881,8039,WL,A,2.0
3,3.4830000400543213,learn,56516.99995994568,Mon Jul 14 2025 13:58:50 GMT-0500 (Central Daylight Time),361582.0,A,f,I,f,550,2,1848.800000011921,359733.1999999881,8039,WL,A,2.0
3,3.615999937057495,learn,56384.000062942505,Mon Jul 14 2025 13:58:50 GMT-0500 (Central Daylight Time),361715.6999999881,A,fl,I,l,119,2,1982.5,359733.1999999881,8039,WL,A,2.0
3,3.799999952316284,learn,56200.000047683716,Mon Jul 14 2025 13:58:50 GMT-0500 (Central Daylight Time),361898.89999997616,A,flo,I,o,163,2,2165.699999988079,359733.1999999881,8039,WL,A,2.0
3,3.8489999771118164,learn,56151.00002288818,Mon Jul 14 2025 13:58:50 GMT-0500 (Central Daylight Time),361948.5,A,flow,I,w,42,2,2215.300000011921,359733.1999999881,8039,WL,A,2.0
3,3.932999849319458,learn,56067.00015068054,Mon Jul 14 2025 13:58:50 GMT-0500 (Central Daylight Time),362031.89999997616,A,flowe,I,e,65,2,2298.699999988079,359733.1999999881,8039,WL,A,2.0
3,3.9830000400543213,learn,56016.99995994568,Mon Jul 14 2025 13:58:50 GMT-0500 (Central Daylight Time),362082.1999999881,A,flower,I,r,38,2,2349.0,359733.1999999881,8039,WL,A,2.0
3,4.233000040054321,learn,55766.99995994568,Mon Jul 14 2025 13:58:50 GMT-0500 (Central Daylight Time),362332.0,A,flowerenter,I,enter,236,2,2598.800000011921,359733.1999999881,8039,WL,A,2.0
3,4.448999881744385,learn,55551.000118255615,Mon Jul 14 2025 13:58:50 GMT-0500 (Central Daylight Time),362548.39999997616,A,t,I,t,202,2,216.09999999403954,362332.2999999821,8039,WL,A,3.0
3,4.616999864578247,learn,55383.00013542175,Mon Jul 14 2025 13:58:50 GMT-0500 (Central Daylight Time),362716.39999997616,A,tr,I,r,161,2,384.09999999403954,362332.2999999821,8039,WL,A,3.0
3,4.7159998416900635,learn,55284.00015830994,Mon Jul 14 2025 13:58:50 GMT-0500 (Central Daylight Time),362815.1999999881,A,tra,I,a,89,2,482.90000000596046,362332.2999999821,8039,WL,A,3.0
3,4.799000024795532,learn,55200.99997520447,Mon Jul 14 2025 13:58:50 GMT-0500 (Central Daylight Time),362898.6999999881,A,trai,I,i,78,2,566.4000000059605,362332.2999999821,8039,WL,A,3.0
3,5.014999866485596,learn,54985.000133514404,Mon Jul 14 2025 13:58:50 GMT-0500 (Central Daylight Time),363114.7999999821,A,train,I,n,211,2,782.5,362332.2999999821,8039,WL,A,3.0
3,5.631999969482422,learn,54368.00003051758,Mon Jul 14 2025 13:58:50 GMT-0500 (Central Daylight Time),363731.1999999881,A,trainenter,I,enter,611,2,1398.9000000059605,362332.2999999821,8039,WL,A,3.0
3,5.931999921798706,learn,54068.000078201294,Mon Jul 14 2025 13:58:50 GMT-0500 (Central Daylight Time),364031.5,A,r,I,r,282,2,300.0,363731.5,8039,WL,A,4.0
3,6.082000017166138,learn,53917.99998283386,Mon Jul 14 2025 13:58:50 GMT-0500 (Central Daylight Time),364181.5,A,ru,I,u,142,2,450.0,363731.5,8039,WL,A,4.0
3,6.281999826431274,learn,53718.000173568726,Mon Jul 14 2025 13:58:50 GMT-0500 (Central Daylight Time),364381.5,A,rug,I,g,184,2,650.0,363731.5,8039,WL,A,4.0
3,6.498999834060669,learn,53501.00016593933,Mon Jul 14 2025 13:58:50 GMT-0500 (Central Daylight Time),364598.09999999404,A,rugenter,I,enter,201,2,866.5999999940395,363731.5,8039,WL,A,4.0
3,6.764999866485596,learn,53235.000133514404,Mon Jul 14 2025 13:58:50 GMT-0500 (Central Daylight Time),364864.5,A,m,I,m,247,2,266.2000000178814,364598.2999999821,8039,WL,A,5.0
3,6.832000017166138,learn,53167.99998283386,Mon Jul 14 2025 13:58:50 GMT-0500 (Central Daylight Time),364931.1999999881,A,me,I,e,52,2,332.90000000596046,364598.2999999821,8039,WL,A,5.0
3,6.997999906539917,learn,53002.00009346008,Mon Jul 14 2025 13:58:50 GMT-0500 (Central Daylight Time),365097.6999999881,A,mea,I,a,154,2,499.40000000596046,364598.2999999821,8039,WL,A,5.0
3,7.197999954223633,learn,52802.00004577637,Mon Jul 14 2025 13:58:50 GMT-0500 (Central Daylight Time),365297.7999999821,A,mead,I,d,188,2,699.5,364598.2999999821,8039,WL,A,5.0
3,7.398000001907349,learn,52601.99999809265,Mon Jul 14 2025 13:58:50 GMT-0500 (Central Daylight Time),365497.39999997616,A,meado,I,o,188,2,899.0999999940395,364598.2999999821,8039,WL,A,5.0
3,7.514999866485596,learn,52485.000133514404,Mon Jul 14 2025 13:58:50 GMT-0500 (Central Daylight Time),365614.09999999404,A,meadow,I,w,100,2,1015.8000000119209,364598.2999999821,8039,WL,A,5.0
3,7.764999866485596,learn,52235.000133514404,Mon Jul 14 2025 13:58:50 GMT-0500 (Central Daylight Time),365864.1999999881,A,meadowenter,I,enter,231,2,1265.9000000059605,364598.2999999821,8039,WL,A,5.0
3,8.06499981880188,learn,51935.00018119812,Mon Jul 14 2025 13:58:50 GMT-0500 (Central Daylight Time),366164.09999999404,A,k,I,k,285,2,299.5,365864.59999999404,8039,WL,A,6.0
3,8.330999851226807,learn,51669.00014877319,Mon Jul 14 2025 13:58:50 GMT-0500 (Central Daylight Time),366430.59999999404,A,ke,I,e,249,2,566.0,365864.59999999404,8039,WL,A,6.0
3,8.514999866485596,learn,51485.000133514404,Mon Jul 14 2025 13:58:50 GMT-0500 (Central Daylight Time),366614.0,A,key,I,y,167,2,749.4000000059605,365864.59999999404,8039,WL,A,6.0
3,8.947999954223633,learn,51052.00004577637,Mon Jul 14 2025 13:58:50 GMT-0500 (Central Daylight Time),367047.1999999881,A,keyenter,I,enter,415,2,1182.5999999940395,365864.59999999404,8039,WL,A,6.0
3,9.146999835968018,learn,50853.00016403198,Mon Jul 14 2025 13:58:50 GMT-0500 (Central Daylight Time),367246.59999999404,A,s,I,s,190,2,199.09999999403954,367047.5,8039,WL,A,7.0
3,9.263999938964844,learn,50736.000061035156,Mon Jul 14 2025 13:58:50 GMT-0500 (Central Daylight Time),367363.39999997616,A,sa,I,a,111,2,315.89999997615814,367047.5,8039,WL,A,7.0
3,9.447999954223633,learn,50552.00004577637,Mon Jul 14 2025 13:58:50 GMT-0500 (Central Daylight Time),367546.89999997616,A,sal,I,l,170,2,499.39999997615814,367047.5,8039,WL,A,7.0
3,9.63100004196167,learn,50368.99995803833,Mon Jul 14 2025 13:58:50 GMT-0500 (Central Daylight Time),367730.2999999821,A,salt,I,t,163,2,682.7999999821186,367047.5,8039,WL,A,7.0
3,9.848000049591064,learn,50151.999950408936,Mon Jul 14 2025 13:58:50 GMT-0500 (Central Daylight Time),367946.89999997616,A,saltenter,I,enter,196,2,899.3999999761581,367047.5,8039,WL,A,7.0
3,10.04699993133545,learn,49953.00006866455,Mon Jul 14 2025 13:58:50 GMT-0500 (Central Daylight Time),368146.7999999821,A,f,I,f,180,2,199.5,367947.2999999821,8039,WL,A,8.0
3,10.246999979019165,learn,49753.000020980835,Mon Jul 14 2025 13:58:50 GMT-0500 (Central Daylight Time),368346.5,A,fi,I,i,186,2,399.2000000178814,367947.2999999821,8039,WL,A,8.0
3,10.363999843597412,learn,49636.00015640259,Mon Jul 14 2025 13:58:50 GMT-0500 (Central Daylight Time),368463.39999997616,A,fin,I,n,108,2,516.0999999940395,367947.2999999821,8039,WL,A,8.0
3,10.513999938964844,learn,49486.000061035156,Mon Jul 14 2025 13:58:50 GMT-0500 (Central Daylight Time),368613.6999999881,A,fing,I,g,142,2,666.4000000059605,367947.2999999821,8039,WL,A,8.0
3,10.929999828338623,learn,49070.00017166138,Mon Jul 14 2025 13:58:50 GMT-0500 (Central Daylight Time),369029.6999999881,A,finge,I,e,401,2,1082.4000000059605,367947.2999999821,8039,WL,A,8.0
3,10.98199987411499,learn,49018.00012588501,Mon Jul 14 2025 13:58:50 GMT-0500 (Central Daylight Time),369081.0,A,finger,I,r,32,2,1133.7000000178814,367947.2999999821,8039,WL,A,8.0
3,11.246999979019165,learn,48753.000020980835,Mon Jul 14 2025 13:58:50 GMT-0500 (Central Daylight Time),369346.59999999404,A,fingerenter,I,enter,244,2,1399.300000011921,367947.2999999821,8039,WL,A,8.0
3,11.46399998664856,learn,48536.00001335144,Mon Jul 14 2025 13:58:50 GMT-0500 (Central Daylight Time),369563.09999999404,A,g,I,g,196,2,216.30000001192093,369346.7999999821,8039,WL,A,9.0
3,11.579999923706055,learn,48420.000076293945,Mon Jul 14 2025 13:58:50 GMT-0500 (Central Daylight Time),369679.59999999404,A,go,I,o,106,2,332.80000001192093,369346.7999999821,8039,WL,A,9.0
3,11.77999997138977,learn,48220.00002861023,Mon Jul 14 2025 13:58:50 GMT-0500 (Central Daylight Time),369879.6999999881,A,gol,I,l,182,2,532.9000000059605,369346.7999999821,8039,WL,A,9.0
3,11.914000034332275,learn,48085.999965667725,Mon Jul 14 2025 13:58:50 GMT-0500 (Central Daylight Time),370012.89999997616,A,gold,I,d,119,2,666.0999999940395,369346.7999999821,8039,WL,A,9.0
3,12.230000019073486,learn,47769.999980926514,Mon Jul 14 2025 13:58:50 GMT-0500 (Central Daylight Time),370329.5,A,goldenter,I,enter,297,2,982.7000000178814,369346.7999999821,8039,WL,A,9.0
3,12.980000019073486,learn,47019.999980926514,Mon Jul 14 2025 13:58:50 GMT-0500 (Central Daylight Time),371079.1999999881,A,b,I,b,732,2,749.4000000059605,370329.7999999821,8039,WL,A,10.0
3,13.212999820709229,learn,46787.00017929077,Mon Jul 14 2025 13:58:50 GMT-0500 (Central Daylight Time),371312.5,A,bu,I,u,222,2,982.7000000178814,370329.7999999821,8039,WL,A,10.0
3,13.379999876022339,learn,46620.00012397766,Mon Jul 14 2025 13:58:50 GMT-0500 (Central Daylight Time),371479.09999999404,A,but,I,t,149,2,1149.300000011921,370329.7999999821,8039,WL,A,10.0
3,13.52999997138977,learn,46470.00002861023,Mon Jul 14 2025 13:58:50 GMT-0500 (Central Daylight Time),371629.0,A,butt,I,t,134,2,1299.2000000178814,370329.7999999821,8039,WL,A,10.0
3,14.013000011444092,learn,45986.99998855591,Mon Jul 14 2025 13:58:50 GMT-0500 (Central Daylight Time),372112.2999999821,A,butto,I,o,472,2,1782.5,370329.7999999821,8039,WL,A,10.0
3,14.079999923706055,learn,45920.000076293945,Mon Jul 14 2025 13:58:50 GMT-0500 (Central Daylight Time),372178.89999997616,A,button,I,n,62,2,1849.0999999940395,370329.7999999821,8039,WL,A,10.0
3,14.819999933242798,learn,45180.0000667572,Mon Jul 14 2025 13:58:50 GMT-0500 (Central Daylight Time),372919.6999999881,A,buttonenter,I,enter,736,2,2589.9000000059605,370329.7999999821,8039,WL,A,10.0
3,15.013000011444092,learn,44986.99998855591,Mon Jul 14 2025 13:58:50 GMT-0500 (Central Daylight Time),373111.89999997616,A,c,I,c,174,2,191.7999999821186,372920.09999999404,8039,WL,A,11.0
3,15.246000051498413,learn,44753.99994850159,Mon Jul 14 2025 13:58:50 GMT-0500 (Central Daylight Time),373345.1999999881,A,ch,I,h,213,2,425.09999999403954,372920.09999999404,8039,WL,A,11.0
3,15.44599986076355,learn,44554.00013923645,Mon Jul 14 2025 13:58:50 GMT-0500 (Central Daylight Time),373545.09999999404,A,chi,I,i,188,2,625.0,372920.09999999404,8039,WL,A,11.0
3,15.661999940872192,learn,44338.00005912781,Mon Jul 14 2025 13:58:50 GMT-0500 (Central Daylight Time),373761.7999999821,A,chim,I,m,196,2,841.6999999880791,372920.09999999404,8039,WL,A,11.0
3,15.928999900817871,learn,44071.00009918213,Mon Jul 14 2025 13:58:50 GMT-0500 (Central Daylight Time),374028.39999997616,A,chimn,I,n,260,2,1108.2999999821186,372920.09999999404,8039,WL,A,11.0
3,16.128999948501587,learn,43871.00005149841,Mon Jul 14 2025 13:58:50 GMT-0500 (Central Daylight Time),374228.2999999821,A,chimne,I,e,185,2,1308.199999988079,372920.09999999404,8039,WL,A,11.0
3,16.211999893188477,learn,43788.00010681152,Mon Jul 14 2025 13:58:50 GMT-0500 (Central Daylight Time),374311.59999999404,A,chimney,I,y,74,2,1391.5,372920.09999999404,8039,WL,A,11.0
3,16.494999885559082,learn,43505.00011444092,Mon Jul 14 2025 13:58:50 GMT-0500 (Central Daylight Time),374594.89999997616,A,chimneyenter,I,enter,279,2,1674.7999999821186,372920.09999999404,8039,WL,A,11.0
3,16.777999877929688,learn,43222.00012207031,Mon Jul 14 2025 13:58:50 GMT-0500 (Central Daylight Time),374877.7999999821,A,l,I,l,275,2,282.69999998807907,374595.09999999404,8039,WL,A,12.0
3,17.027999877929688,learn,42972.00012207031,Mon Jul 14 2025 13:58:50 GMT-0500 (Central Daylight Time),375127.7999999821,A,lo,I,o,232,2,532.6999999880791,374595.09999999404,8039,WL,A,12.0
3,17.144999980926514,learn,42855.000019073486,Mon Jul 14 2025 13:58:50 GMT-0500 (Central Daylight Time),375244.6999999881,A,log,I,g,102,2,649.5999999940395,374595.09999999404,8039,WL,A,12.0
3,18.17799997329712,learn,41822.00002670288,Mon Jul 14 2025 13:58:50 GMT-0500 (Central Daylight Time),376277.59999999404,A,logenter,I,enter,1026,2,1682.5,374595.09999999404,8039,WL,A,12.0
3,21.47699999809265,learn,38523.00000190735,Mon Jul 14 2025 13:58:50 GMT-0500 (Central Daylight Time),379576.59999999404,A,b,I,b,3288,2,3298.7000000178814,376277.89999997616,8039,WL,A,13.0
3,21.5939998626709,learn,38406.0001373291,Mon Jul 14 2025 13:58:50 GMT-0500 (Central Daylight Time),379693.1999999881,A,bu,I,u,109,2,3415.300000011921,376277.89999997616,8039,WL,A,13.0
3,21.72699999809265,learn,38273.00000190735,Mon Jul 14 2025 13:58:50 GMT-0500 (Central Daylight Time),379826.59999999404,A,but,I,t,112,2,3548.7000000178814,376277.89999997616,8039,WL,A,13.0
3,21.859999895095825,learn,38140.000104904175,Mon Jul 14 2025 13:58:50 GMT-0500 (Central Daylight Time),379959.7999999821,A,butt,I,t,115,2,3681.9000000059605,376277.89999997616,8039,WL,A,13.0
3,21.927000045776367,learn,38072.99995422363,Mon Jul 14 2025 13:58:50 GMT-0500 (Central Daylight Time),380026.5,A,butto,I,o,46,2,3748.600000023842,376277.89999997616,8039,WL,A,13.0
3,21.960000038146973,learn,38039.99996185303,Mon Jul 14 2025 13:58:50 GMT-0500 (Central Daylight Time),380059.5,A,button,I,n,20,2,3781.600000023842,376277.89999997616,8039,WL,A,13.0
3,24.442999839782715,learn,35557.000160217285,Mon Jul 14 2025 13:58:50 GMT-0500 (Central Daylight Time),382542.1999999881,A,buttonenter,I,enter,2466,2,6264.300000011921,376277.89999997616,8039,WL,A,13.0
3,28.20799994468689,learn,31792.00005531311,Mon Jul 14 2025 13:58:50 GMT-0500 (Central Daylight Time),386307.6999999881,A,enter,I,enter,3752,2,3765.0999999940395,382542.59999999404,8039,WL,A,14.0
3,28.424999952316284,learn,31575.000047683716,Mon Jul 14 2025 13:58:50 GMT-0500 (Central Daylight Time),386524.39999997616,A,enter,I,enter,202,2,216.39999997615814,386308.0,8039,WL,A,15.0
4,0.4500000476837158,learn,59549.999952316284,Mon Jul 14 2025 13:58:50 GMT-0500 (Central Daylight Time),456202.59999999404,A,r,I,r,445,2,449.7000000178814,455752.89999997616,8039,WL,A,1.0
4,0.75,learn,59250.0,Mon Jul 14 2025 13:58:50 GMT-0500 (Central Daylight Time),456502.5,A,ru,I,u,282,2,749.6000000238419,455752.89999997616,8039,WL,A,1.0
4,0.9159998893737793,learn,59084.00011062622,Mon Jul 14 2025 13:58:50 GMT-0500 (Central Daylight Time),456668.89999997616,A,rug,I,g,159,2,916.0,455752.89999997616,8039,WL,A,1.0
4,1.1659998893737793,learn,58834.00011062622,Mon Jul 14 2025 13:58:50 GMT-0500 (Central Daylight Time),456918.7999999821,A,rugenter,I,enter,241,2,1165.9000000059605,455752.89999997616,8039,WL,A,1.0
4,1.4660000801086426,learn,58533.99991989136,Mon Jul 14 2025 13:58:50 GMT-0500 (Central Daylight Time),457218.59999999404,A,m,I,m,287,2,299.5,456919.09999999404,8039,WL,A,2.0
4,1.5829999446868896,learn,58417.00005531311,Mon Jul 14 2025 13:58:50 GMT-0500 (Central Daylight Time),457335.59999999404,A,me,I,e,108,2,416.5,456919.09999999404,8039,WL,A,2.0
4,1.7660000324249268,learn,58233.99996757507,Mon Jul 14 2025 13:58:50 GMT-0500 (Central Daylight Time),457518.5,A,mea,I,a,174,2,599.4000000059605,456919.09999999404,8039,WL,A,2.0
4,1.9830000400543213,learn,58016.99995994568,Mon Jul 14 2025 13:58:50 GMT-0500 (Central Daylight Time),457735.39999997616,A,mead,I,d,199,2,816.2999999821186,456919.09999999404,8039,WL,A,2.0
4,2.183000087738037,learn,57816.99991226196,Mon Jul 14 2025 13:58:50 GMT-0500 (Central Daylight Time),457935.39999997616,A,meado,I,o,190,2,1016.2999999821186,456919.09999999404,8039,WL,A,2.0
4,2.315999984741211,learn,57684.00001525879,Mon Jul 14 2025 13:58:50 GMT-0500 (Central Daylight Time),458068.5,A,meadow,I,w,118,2,1149.4000000059605,456919.09999999404,8039,WL,A,2.0
4,2.499000072479248,learn,57500.99992752075,Mon Jul 14 2025 13:58:50 GMT-0500 (Central Daylight Time),458251.5,A,meadowenter,I,enter,177,2,1332.4000000059605,456919.09999999404,8039,WL,A,2.0
4,2.7660000324249268,learn,57233.99996757507,Mon Jul 14 2025 13:58:50 GMT-0500 (Central Daylight Time),458518.5,A,h,I,h,250,2,266.7000000178814,458251.7999999821,8039,WL,A,3.0
4,2.881999969482422,learn,57118.00003051758,Mon Jul 14 2025 13:58:50 GMT-0500 (Central Daylight Time),458635.0,A,ha,I,a,112,2,383.2000000178814,458251.7999999821,8039,WL,A,3.0
4,3.0160000324249268,learn,56983.99996757507,Mon Jul 14 2025 13:58:50 GMT-0500 (Central Daylight Time),458768.5,A,har,I,r,115,2,516.7000000178814,458251.7999999821,8039,WL,A,3.0
4,3.1989998817443848,learn,56801.000118255615,Mon Jul 14 2025 13:58:50 GMT-0500 (Central Daylight Time),458951.59999999404,A,harp,I,p,166,2,699.8000000119209,458251.7999999821,8039,WL,A,3.0
4,3.4489998817443848,learn,56551.000118255615,Mon Jul 14 2025 13:58:50 GMT-0500 (Central Daylight Time),459201.2999999821,A,harpenter,I,enter,230,2,949.5,458251.7999999821,8039,WL,A,3.0
4,3.5989999771118164,learn,56401.00002288818,Mon Jul 14 2025 13:58:50 GMT-0500 (Central Daylight Time),459351.5,A,b,I,b,140,2,149.90000000596046,459201.59999999404,8039,WL,A,4.0
4,3.749000072479248,learn,56250.99992752075,Mon Jul 14 2025 13:58:50 GMT-0500 (Central Daylight Time),459501.39999997616,A,bo,I,o,142,2,299.7999999821186,459201.59999999404,8039,WL,A,4.0
4,3.881999969482422,learn,56118.00003051758,Mon Jul 14 2025 13:58:50 GMT-0500 (Central Daylight Time),459634.7999999821,A,boo,I,o,128,2,433.19999998807907,459201.59999999404,8039,WL,A,4.0
4,4.115000009536743,learn,55884.99999046326,Mon Jul 14 2025 13:58:50 GMT-0500 (Central Daylight Time),459867.89999997616,A,book,I,k,220,2,666.2999999821186,459201.59999999404,8039,WL,A,4.0
4,4.365000009536743,learn,55634.99999046326,Mon Jul 14 2025 13:58:50 GMT-0500 (Central Daylight Time),460118.0,A,bookenter,I,enter,235,2,916.4000000059605,459201.59999999404,8039,WL,A,4.0
4,4.514999866485596,learn,55485.000133514404,Mon Jul 14 2025 13:58:50 GMT-0500 (Central Daylight Time),460268.09999999404,A,f,I,f,137,2,149.80000001192093,460118.2999999821,8039,WL,A,5.0
4,4.664999961853027,learn,55335.00003814697,Mon Jul 14 2025 13:58:50 GMT-0500 (Central Daylight Time),460417.6999999881,A,fl,I,l,137,2,299.40000000596046,460118.2999999821,8039,WL,A,5.0
4,4.8480000495910645,learn,55151.999950408936,Mon Jul 14 2025 13:58:50 GMT-0500 (Central Daylight Time),460601.0,A,flo,I,o,172,2,482.7000000178814,460118.2999999821,8039,WL,A,5.0
4,4.931999921798706,learn,55068.000078201294,Mon Jul 14 2025 13:58:50 GMT-0500 (Central Daylight Time),460684.39999997616,A,flow,I,w,69,2,566.0999999940395,460118.2999999821,8039,WL,A,5.0
4,4.997999906539917,learn,55002.00009346008,Mon Jul 14 2025 13:58:50 GMT-0500 (Central Daylight Time),460750.89999997616,A,flowe,I,e,50,2,632.5999999940395,460118.2999999821,8039,WL,A,5.0
4,5.065999984741211,learn,54934.00001525879,Mon Jul 14 2025 13:58:50 GMT-0500 (Central Daylight Time),460818.1999999881,A,flower,I,r,54,2,699.9000000059605,460118.2999999821,8039,WL,A,5.0
4,5.249000072479248,learn,54750.99992752075,Mon Jul 14 2025 13:58:50 GMT-0500 (Central Daylight Time),461002.0,A,flowerenter,I,enter,163,2,883.7000000178814,460118.2999999821,8039,WL,A,5.0
4,5.497999906539917,learn,54502.00009346008,Mon Jul 14 2025 13:58:50 GMT-0500 (Central Daylight Time),461250.7999999821,A,t,I,t,236,2,248.5,461002.2999999821,8039,WL,A,6.0
4,5.697999954223633,learn,54302.00004577637,Mon Jul 14 2025 13:58:50 GMT-0500 (Central Daylight Time),461450.6999999881,A,tr,I,r,194,2,448.40000000596046,461002.2999999821,8039,WL,A,6.0
4,5.79800009727478,learn,54201.99990272522,Mon Jul 14 2025 13:58:50 GMT-0500 (Central Daylight Time),461550.6999999881,A,tra,I,a,91,2,548.4000000059605,461002.2999999821,8039,WL,A,6.0
4,5.898000001907349,learn,54101.99999809265,Mon Jul 14 2025 13:58:50 GMT-0500 (Central Daylight Time),461650.7999999821,A,trai,I,i,95,2,648.5,461002.2999999821,8039,WL,A,6.0
4,6.0309998989105225,learn,53969.00010108948,Mon Jul 14 2025 13:58:50 GMT-0500 (Central Daylight Time),461784.0,A,train,I,n,124,2,781.7000000178814,461002.2999999821,8039,WL,A,6.0
4,6.313999891281128,learn,53686.00010871887,Mon Jul 14 2025 13:58:50 GMT-0500 (Central Daylight Time),462067.09999999404,A,trainenter,I,enter,278,2,1064.800000011921,461002.2999999821,8039,WL,A,6.0
4,6.497999906539917,learn,53502.00009346008,Mon Jul 14 2025 13:58:50 GMT-0500 (Central Daylight Time),462250.7999999821,A,s,I,s,179,2,183.5,462067.2999999821,8039,WL,A,7.0
4,6.648000001907349,learn,53351.99999809265,Mon Jul 14 2025 13:58:50 GMT-0500 (Central Daylight Time),462400.39999997616,A,sa,I,a,130,2,333.09999999403954,462067.2999999821,8039,WL,A,7.0
4,6.7809998989105225,learn,53219.00010108948,Mon Jul 14 2025 13:58:50 GMT-0500 (Central Daylight Time),462533.6999999881,A,sal,I,l,126,2,466.40000000596046,462067.2999999821,8039,WL,A,7.0
4,6.930999994277954,learn,53069.000005722046,Mon Jul 14 2025 13:58:50 GMT-0500 (Central Daylight Time),462683.6999999881,A,salt,I,t,144,2,616.4000000059605,462067.2999999821,8039,WL,A,7.0
4,7.164000034332275,learn,52835.999965667725,Mon Jul 14 2025 13:58:50 GMT-0500 (Central Daylight Time),462917.09999999404,A,saltenter,I,enter,227,2,849.8000000119209,462067.2999999821,8039,WL,A,7.0
4,7.398999929428101,learn,52601.0000705719,Mon Jul 14 2025 13:58:50 GMT-0500 (Central Daylight Time),463151.5,A,f,I,f,216,2,234.10000002384186,462917.39999997616,8039,WL,A,8.0
4,7.5309998989105225,learn,52469.00010108948,Mon Jul 14 2025 13:58:50 GMT-0500 (Central Daylight Time),463283.2999999821,A,fi,I,i,126,2,365.90000000596046,462917.39999997616,8039,WL,A,8.0
4,7.614000082015991,learn,52385.99991798401,Mon Jul 14 2025 13:58:50 GMT-0500 (Central Daylight Time),463367.0,A,fin,I,n,74,2,449.60000002384186,462917.39999997616,8039,WL,A,8.0
4,7.763999938964844,learn,52236.000061035156,Mon Jul 14 2025 13:58:50 GMT-0500 (Central Daylight Time),463516.89999997616,A,fing,I,g,134,2,599.5,462917.39999997616,8039,WL,A,8.0
4,7.947999954223633,learn,52052.00004577637,Mon Jul 14 2025 13:58:50 GMT-0500 (Central Daylight Time),463700.09999999404,A,finge,I,e,177,2,782.7000000178814,462917.39999997616,8039,WL,A,8.0
4,7.996999979019165,learn,52003.000020980835,Mon Jul 14 2025 13:58:50 GMT-0500 (Central Daylight Time),463749.89999997616,A,finger,I,r,41,2,832.5,462917.39999997616,8039,WL,A,8.0
4,8.147000074386597,learn,51852.9999256134,Mon Jul 14 2025 13:58:50 GMT-0500 (Central Daylight Time),463900.09999999404,A,fingerenter,I,enter,143,2,982.7000000178814,462917.39999997616,8039,WL,A,8.0
4,8.331000089645386,learn,51668.999910354614,Mon Jul 14 2025 13:58:50 GMT-0500 (Central Daylight Time),464083.2999999821,A,a,I,a,171,2,182.90000000596046,463900.39999997616,8039,WL,A,9.0
4,8.497999906539917,learn,51502.00009346008,Mon Jul 14 2025 13:58:50 GMT-0500 (Central Daylight Time),464250.1999999881,A,ap,I,p,146,2,349.80000001192093,463900.39999997616,8039,WL,A,9.0
4,8.614000082015991,learn,51385.99991798401,Mon Jul 14 2025 13:58:50 GMT-0500 (Central Daylight Time),464366.59999999404,A,app,I,p,107,2,466.2000000178814,463900.39999997616,8039,WL,A,9.0
4,8.914000034332275,learn,51085.999965667725,Mon Jul 14 2025 13:58:50 GMT-0500 (Central Daylight Time),464666.59999999404,A,appl,I,l,288,2,766.2000000178814,463900.39999997616,8039,WL,A,9.0
4,9.013999938964844,learn,50986.000061035156,Mon Jul 14 2025 13:58:50 GMT-0500 (Central Daylight Time),464766.39999997616,A,apple,I,e,83,2,866.0,463900.39999997616,8039,WL,A,9.0
4,9.614000082015991,learn,50385.99991798401,Mon Jul 14 2025 13:58:50 GMT-0500 (Central Daylight Time),465366.09999999404,A,appleenter,I,enter,584,2,1465.7000000178814,463900.39999997616,8039,WL,A,9.0
4,9.897000074386597,learn,50102.9999256134,Mon Jul 14 2025 13:58:50 GMT-0500 (Central Daylight Time),465649.59999999404,A,c,I,c,271,2,283.09999999403954,465366.5,8039,WL,A,10.0
4,10.02999997138977,learn,49970.00002861023,Mon Jul 14 2025 13:58:50 GMT-0500 (Central Daylight Time),465783.0,A,ch,I,h,124,2,416.5,465366.5,8039,WL,A,10.0
4,10.263000011444092,learn,49736.99998855591,Mon Jul 14 2025 13:58:50 GMT-0500 (Central Daylight Time),466016.0,A,chi,I,i,215,2,649.5,465366.5,8039,WL,A,10.0
4,10.496000051498413,learn,49503.99994850159,Mon Jul 14 2025 13:58:50 GMT-0500 (Central Daylight Time),466249.0,A,chim,I,m,224,2,882.5,465366.5,8039,WL,A,10.0
4,10.713000059127808,learn,49286.99994087219,Mon Jul 14 2025 13:58:50 GMT-0500 (Central Daylight Time),466466.0,A,chimn,I,n,196,2,1099.5,465366.5,8039,WL,A,10.0
4,10.898000001907349,learn,49101.99999809265,Mon Jul 14 2025 13:58:50 GMT-0500 (Central Daylight Time),466650.59999999404,A,chimne,I,e,180,2,1284.0999999940395,465366.5,8039,WL,A,10.0
4,11.02999997138977,learn,48970.00002861023,Mon Jul 14 2025 13:58:50 GMT-0500 (Central Daylight Time),466782.5,A,chimney,I,y,123,2,1416.0,465366.5,8039,WL,A,10.0
4,11.595999956130981,learn,48404.00004386902,Mon Jul 14 2025 13:58:50 GMT-0500 (Central Daylight Time),467349.0,A,chimneyenter,I,enter,551,2,1982.5,465366.5,8039,WL,A,10.0
4,11.946000099182129,learn,48053.99990081787,Mon Jul 14 2025 13:58:50 GMT-0500 (Central Daylight Time),467698.6999999881,A,l,I,l,337,2,349.40000000596046,467349.2999999821,8039,WL,A,11.0
4,12.345999956130981,learn,47654.00004386902,Mon Jul 14 2025 13:58:50 GMT-0500 (Central Daylight Time),468098.89999997616,A,lo,I,o,380,2,749.5999999940395,467349.2999999821,8039,WL,A,11.0
4,12.595999956130981,learn,47404.00004386902,Mon Jul 14 2025 13:58:50 GMT-0500 (Central Daylight Time),468348.7999999821,A,log,I,g,235,2,999.5,467349.2999999821,8039,WL,A,11.0
4,12.878999948501587,learn,47121.00005149841,Mon Jul 14 2025 13:58:50 GMT-0500 (Central Daylight Time),468631.89999997616,A,logenter,I,enter,273,2,1282.5999999940395,467349.2999999821,8039,WL,A,11.0
4,13.178999900817871,learn,46821.00009918213,Mon Jul 14 2025 13:58:50 GMT-0500 (Central Daylight Time),468931.59999999404,A,b,I,b,294,2,299.40000000596046,468632.1999999881,8039,WL,A,12.0
4,13.428999900817871,learn,46571.00009918213,Mon Jul 14 2025 13:58:50 GMT-0500 (Central Daylight Time),469181.89999997616,A,bu,I,u,243,2,549.6999999880791,468632.1999999881,8039,WL,A,12.0
4,13.661999940872192,learn,46338.00005912781,Mon Jul 14 2025 13:58:50 GMT-0500 (Central Daylight Time),469415.0,A,but,I,t,224,2,782.8000000119209,468632.1999999881,8039,WL,A,12.0
4,13.812000036239624,learn,46187.999963760376,Mon Jul 14 2025 13:58:50 GMT-0500 (Central Daylight Time),469564.89999997616,A,butt,I,t,134,2,932.6999999880791,468632.1999999881,8039,WL,A,12.0
4,13.946000099182129,learn,46053.99990081787,Mon Jul 14 2025 13:58:50 GMT-0500 (Central Daylight Time),469698.39999997616,A,butto,I,o,120,2,1066.199999988079,468632.1999999881,8039,WL,A,12.0
4,14.229000091552734,learn,45770.999908447266,Mon Jul 14 2025 13:58:50 GMT-0500 (Central Daylight Time),469981.39999997616,A,button,I,n,275,2,1349.199999988079,468632.1999999881,8039,WL,A,12.0
4,15.861999988555908,learn,44138.00001144409,Mon Jul 14 2025 13:58:50 GMT-0500 (Central Daylight Time),471614.39999997616,A,buttonenter,I,enter,1616,2,2982.199999988079,468632.1999999881,8039,WL,A,12.0
4,17.89400005340576,learn,42105.99994659424,Mon Jul 14 2025 13:58:50 GMT-0500 (Central Daylight Time),473646.89999997616,A,k,I,k,2015,2,2032.199999988079,471614.6999999881,8039,WL,A,13.0
4,18.358999967575073,learn,41641.00003242493,Mon Jul 14 2025 13:58:50 GMT-0500 (Central Daylight Time),474113.2999999821,A,ke,I,e,447,2,2498.5999999940395,471614.6999999881,8039,WL,A,13.0
4,18.408999919891357,learn,41591.00008010864,Mon Jul 14 2025 13:58:50 GMT-0500 (Central Daylight Time),474163.2999999821,A,key,I,y,44,2,2548.5999999940395,471614.6999999881,8039,WL,A,13.0
4,18.925999879837036,learn,41074.000120162964,Mon Jul 14 2025 13:58:50 GMT-0500 (Central Daylight Time),474679.89999997616,A,keyenter,I,enter,506,2,3065.199999988079,471614.6999999881,8039,WL,A,13.0
4,30.08899998664856,learn,29911.00001335144,Mon Jul 14 2025 13:58:50 GMT-0500 (Central Daylight Time),485843.39999997616,A,enter,I,enter,11151,2,11163.199999988079,474680.1999999881,8039,WL,A,14.0
4,30.27300000190735,learn,29726.99999809265,Mon Jul 14 2025 13:58:50 GMT-0500 (Central Daylight Time),486026.39999997616,A,enter,I,enter,170,2,182.69999998807907,485843.6999999881,8039,WL,A,15.0
5,0.9159998893737793,learn,60000.0,Mon Jul 14 2025 13:58:50 GMT-0500 (Central Daylight Time),554421.599999994,A,c,I,c,901,2,916.2000000178814,553505.3999999762,8039,WL,A,1.0
5,1.0829999446868896,learn,60000.0,Mon Jul 14 2025 13:58:50 GMT-0500 (Central Daylight Time),554588.1999999881,A,ch,I,h,159,2,1082.800000011921,553505.3999999762,8039,WL,A,1.0
5,1.2999999523162842,learn,60000.0,Mon Jul 14 2025 13:58:50 GMT-0500 (Central Daylight Time),554804.7999999821,A,chi,I,i,201,2,1299.4000000059605,553505.3999999762,8039,WL,A,1.0
5,1.5,learn,60000.0,Mon Jul 14 2025 13:58:50 GMT-0500 (Central Daylight Time),555004.6999999881,A,chim,I,m,193,2,1499.300000011921,553505.3999999762,8039,WL,A,1.0
5,1.7160000801086426,learn,60000.0,Mon Jul 14 2025 13:58:50 GMT-0500 (Central Daylight Time),555221.5,A,chimn,I,n,209,2,1716.1000000238419,553505.3999999762,8039,WL,A,1.0
5,1.8829998970031738,learn,60000.0,Mon Jul 14 2025 13:58:50 GMT-0500 (Central Daylight Time),555387.7999999821,A,chimne,I,e,152,2,1882.4000000059605,553505.3999999762,8039,WL,A,1.0
5,1.9660000801086426,learn,60000.0,Mon Jul 14 2025 13:58:50 GMT-0500 (Central Daylight Time),555471.2999999821,A,chimney,I,y,65,2,1965.9000000059605,553505.3999999762,8039,WL,A,1.0
5,2.1989998817443848,learn,60000.0,Mon Jul 14 2025 13:58:50 GMT-0500 (Central Daylight Time),555704.5,A,chimneyenter,I,enter,214,2,2199.100000023842,553505.3999999762,8039,WL,A,1.0
5,2.382999897003174,learn,60000.0,Mon Jul 14 2025 13:58:50 GMT-0500 (Central Daylight Time),555887.7999999821,A,b,I,b,173,2,182.90000000596046,555704.8999999762,8039,WL,A,2.0
5,2.5490000247955322,learn,60000.0,Mon Jul 14 2025 13:58:50 GMT-0500 (Central Daylight Time),556054.599999994,A,bu,I,u,150,2,349.7000000178814,555704.8999999762,8039,WL,A,2.0
5,2.6989998817443848,learn,60000.0,Mon Jul 14 2025 13:58:50 GMT-0500 (Central Daylight Time),556204.5,A,but,I,t,143,2,499.60000002384186,555704.8999999762,8039,WL,A,2.0
5,2.865999937057495,learn,60000.0,Mon Jul 14 2025 13:58:50 GMT-0500 (Central Daylight Time),556370.6999999881,A,butt,I,t,145,2,665.8000000119209,555704.8999999762,8039,WL,A,2.0
5,2.9819998741149902,learn,60000.0,Mon Jul 14 2025 13:58:50 GMT-0500 (Central Daylight Time),556487.6999999881,A,butto,I,o,108,2,782.8000000119209,555704.8999999762,8039,WL,A,2.0
5,3.065999984741211,learn,60000.0,Mon Jul 14 2025 13:58:50 GMT-0500 (Central Daylight Time),556570.8999999762,A,button,I,n,79,2,866.0,555704.8999999762,8039,WL,A,2.0
5,3.2990000247955322,learn,60000.0,Mon Jul 14 2025 13:58:50 GMT-0500 (Central Daylight Time),556804.2999999821,A,buttonenter,I,enter,219,2,1099.4000000059605,555704.8999999762,8039,WL,A,2.0
5,3.5490000247955322,learn,60000.0,Mon Jul 14 2025 13:58:50 GMT-0500 (Central Daylight Time),557054.099999994,A,l,I,l,241,2,249.5,556804.599999994,8039,WL,A,3.0
5,3.7990000247955322,learn,60000.0,Mon Jul 14 2025 13:58:50 GMT-0500 (Central Daylight Time),557303.7999999821,A,lo,I,o,239,2,499.19999998807907,556804.599999994,8039,WL,A,3.0
5,3.931999921798706,learn,60000.0,Mon Jul 14 2025 13:58:50 GMT-0500 (Central Daylight Time),557437.3999999762,A,log,I,g,117,2,632.7999999821186,556804.599999994,8039,WL,A,3.0
5,4.181999921798706,learn,60000.0,Mon Jul 14 2025 13:58:50 GMT-0500 (Central Daylight Time),557687.2999999821,A,logenter,I,enter,232,2,882.6999999880791,556804.599999994,8039,WL,A,3.0
5,4.48199987411499,learn,60000.0,Mon Jul 14 2025 13:58:50 GMT-0500 (Central Daylight Time),557987.099999994,A,k,I,k,279,2,299.40000000596046,557687.6999999881,8039,WL,A,4.0
5,4.698999881744385,learn,60000.0,Mon Jul 14 2025 13:58:50 GMT-0500 (Central Daylight Time),558203.7999999821,A,ke,I,e,202,2,516.0999999940395,557687.6999999881,8039,WL,A,4.0
5,4.832000017166138,learn,60000.0,Mon Jul 14 2025 13:58:50 GMT-0500 (Central Daylight Time),558337.099999994,A,key,I,y,122,2,649.4000000059605,557687.6999999881,8039,WL,A,4.0
5,5.082000017166138,learn,60000.0,Mon Jul 14 2025 13:58:50 GMT-0500 (Central Daylight Time),558587.0,A,keyenter,I,enter,237,2,899.3000000119209,557687.6999999881,8039,WL,A,4.0
5,5.2820000648498535,learn,60000.0,Mon Jul 14 2025 13:58:50 GMT-0500 (Central Daylight Time),558786.8999999762,A,r,I,r,186,2,199.5,558587.3999999762,8039,WL,A,5.0
5,5.48199987411499,learn,60000.0,Mon Jul 14 2025 13:58:50 GMT-0500 (Central Daylight Time),558987.099999994,A,ra,I,a,179,2,399.7000000178814,558587.3999999762,8039,WL,A,5.0
5,5.582000017166138,learn,60000.0,Mon Jul 14 2025 13:58:50 GMT-0500 (Central Daylight Time),559086.8999999762,A,rat,I,t,91,2,499.5,558587.3999999762,8039,WL,A,5.0
5,5.7149999141693115,learn,60000.0,Mon Jul 14 2025 13:58:50 GMT-0500 (Central Daylight Time),559220.0,A,ratt,I,t,126,2,632.6000000238419,558587.3999999762,8039,WL,A,5.0
5,5.832000017166138,learn,60000.0,Mon Jul 14 2025 13:58:50 GMT-0500 (Central Daylight Time),559336.6999999881,A,rattl,I,l,105,2,749.3000000119209,558587.3999999762,8039,WL,A,5.0
5,5.997999906539917,learn,60000.0,Mon Jul 14 2025 13:58:50 GMT-0500 (Central Daylight Time),559503.3999999762,A,rattle,I,e,157,2,916.0,558587.3999999762,8039,WL,A,5.0
5,6.197999954223633,learn,60000.0,Mon Jul 14 2025 13:58:50 GMT-0500 (Central Daylight Time),559703.2999999821,A,rattleenter,I,enter,182,2,1115.9000000059605,558587.3999999762,8039,WL,A,5.0
5,6.497999906539917,learn,60000.0,Mon Jul 14 2025 13:58:50 GMT-0500 (Central Daylight Time),560003.1999999881,A,g,I,g,286,2,299.59999999403954,559703.599999994,8039,WL,A,6.0
5,6.63100004196167,learn,60000.0,Mon Jul 14 2025 13:58:50 GMT-0500 (Central Daylight Time),560136.3999999762,A,go,I,o,114,2,432.7999999821186,559703.599999994,8039,WL,A,6.0
5,6.831000089645386,learn,60000.0,Mon Jul 14 2025 13:58:50 GMT-0500 (Central Daylight Time),560336.5,A,gol,I,l,181,2,632.9000000059605,559703.599999994,8039,WL,A,6.0
5,6.9649999141693115,learn,60000.0,Mon Jul 14 2025 13:58:50 GMT-0500 (Central Daylight Time),560469.6999999881,A,gold,I,d,117,2,766.0999999940395,559703.599999994,8039,WL,A,6.0
5,7.514999866485596,learn,60000.0,Mon Jul 14 2025 13:58:50 GMT-0500 (Central Daylight Time),561019.7999999821,A,goldenter,I,enter,536,2,1316.199999988079,559703.599999994,8039,WL,A,6.0
5,7.841000080108643,learn,60000.0,Mon Jul 14 2025 13:58:50 GMT-0500 (Central Daylight Time),561346.2999999821,A,b,I,b,322,2,326.19999998807907,561020.099999994,8039,WL,A,7.0
5,7.9029998779296875,learn,60000.0,Mon Jul 14 2025 13:58:50 GMT-0500 (Central Daylight Time),561408.2999999821,A,bo,I,o,41,2,388.19999998807907,561020.099999994,8039,WL,A,7.0
5,8.02999997138977,learn,60000.0,Mon Jul 14 2025 13:58:50 GMT-0500 (Central Daylight Time),561535.6999999881,A,boo,I,o,117,2,515.5999999940395,561020.099999994,8039,WL,A,7.0
5,8.21399998664856,learn,60000.0,Mon Jul 14 2025 13:58:50 GMT-0500 (Central Daylight Time),561718.8999999762,A,book,I,k,174,2,698.7999999821186,561020.099999994,8039,WL,A,7.0
5,8.480000019073486,learn,60000.0,Mon Jul 14 2025 13:58:50 GMT-0500 (Central Daylight Time),561985.5,A,bookenter,I,enter,247,2,965.4000000059605,561020.099999994,8039,WL,A,7.0
5,8.71399998664856,learn,60000.0,Mon Jul 14 2025 13:58:50 GMT-0500 (Central Daylight Time),562218.8999999762,A,f,I,f,220,2,233.09999999403954,561985.7999999821,8039,WL,A,8.0
5,8.879999876022339,learn,60000.0,Mon Jul 14 2025 13:58:50 GMT-0500 (Central Daylight Time),562385.3999999762,A,fl,I,l,147,2,399.59999999403954,561985.7999999821,8039,WL,A,8.0
5,9.079999923706055,learn,60000.0,Mon Jul 14 2025 13:58:50 GMT-0500 (Central Daylight Time),562585.2999999821,A,flo,I,o,180,2,599.5,561985.7999999821,8039,WL,A,8.0
5,9.21399998664856,learn,60000.0,Mon Jul 14 2025 13:58:50 GMT-0500 (Central Daylight Time),562719.0,A,flow,I,w,124,2,733.2000000178814,561985.7999999821,8039,WL,A,8.0
5,9.247999906539917,learn,60000.0,Mon Jul 14 2025 13:58:50 GMT-0500 (Central Daylight Time),562752.6999999881,A,flowe,I,e,14,2,766.9000000059605,561985.7999999821,8039,WL,A,8.0
5,9.313999891281128,learn,60000.0,Mon Jul 14 2025 13:58:50 GMT-0500 (Central Daylight Time),562819.0,A,flower,I,r,62,2,833.2000000178814,561985.7999999821,8039,WL,A,8.0
5,9.596999883651733,learn,60000.0,Mon Jul 14 2025 13:58:50 GMT-0500 (Central Daylight Time),563102.1999999881,A,flowerenter,I,enter,267,2,1116.4000000059605,561985.7999999821,8039,WL,A,8.0
5,9.879999876022339,learn,60000.0,Mon Jul 14 2025 13:58:50 GMT-0500 (Central Daylight Time),563385.3999999762,A,t,I,t,272,2,282.89999997615814,563102.5,8039,WL,A,9.0
5,10.114000082015991,learn,60000.0,Mon Jul 14 2025 13:58:50 GMT-0500 (Central Daylight Time),563618.8999999762,A,tr,I,r,229,2,516.3999999761581,563102.5,8039,WL,A,9.0
5,10.313999891281128,learn,60000.0,Mon Jul 14 2025 13:58:50 GMT-0500 (Central Daylight Time),563818.7999999821,A,tra,I,a,188,2,716.2999999821186,563102.5,8039,WL,A,9.0
5,10.61299991607666,learn,60000.0,Mon Jul 14 2025 13:58:50 GMT-0500 (Central Daylight Time),564118.599999994,A,trai,I,i,282,2,1016.0999999940395,563102.5,8039,WL,A,9.0
5,10.69700002670288,learn,60000.0,Mon Jul 14 2025 13:58:50 GMT-0500 (Central Daylight Time),564202.099999994,A,train,I,n,63,2,1099.5999999940395,563102.5,8039,WL,A,9.0
5,11.412999868392944,learn,60000.0,Mon Jul 14 2025 13:58:50 GMT-0500 (Central Daylight Time),564918.1999999881,A,trainenter,I,enter,700,2,1815.699999988079,563102.5,8039,WL,A,9.0
5,11.645999908447266,learn,60000.0,Mon Jul 14 2025 13:58:50 GMT-0500 (Central Daylight Time),565151.599999994,A,s,I,s,223,2,232.90000000596046,564918.6999999881,8039,WL,A,10.0
5,11.829999923706055,learn,60000.0,Mon Jul 14 2025 13:58:50 GMT-0500 (Central Daylight Time),565334.6999999881,A,sa,I,a,166,2,416.0,564918.6999999881,8039,WL,A,10.0
5,11.980000019073486,learn,60000.0,Mon Jul 14 2025 13:58:50 GMT-0500 (Central Daylight Time),565484.7999999821,A,sal,I,l,143,2,566.0999999940395,564918.6999999881,8039,WL,A,10.0
5,12.129999876022339,learn,60000.0,Mon Jul 14 2025 13:58:50 GMT-0500 (Central Daylight Time),565634.7999999821,A,salt,I,t,129,2,716.0999999940395,564918.6999999881,8039,WL,A,10.0
5,12.378999948501587,learn,60000.0,Mon Jul 14 2025 13:58:50 GMT-0500 (Central Daylight Time),565884.599999994,A,saltenter,I,enter,235,2,965.9000000059605,564918.6999999881,8039,WL,A,10.0
5,12.562999963760376,learn,60000.0,Mon Jul 14 2025 13:58:50 GMT-0500 (Central Daylight Time),566067.7999999821,A,a,I,a,169,2,182.90000000596046,565884.8999999762,8039,WL,A,11.0
5,12.878999948501587,learn,60000.0,Mon Jul 14 2025 13:58:50 GMT-0500 (Central Daylight Time),566384.3999999762,A,ap,I,p,297,2,499.5,565884.8999999762,8039,WL,A,11.0
5,13.779000043869019,learn,60000.0,Mon Jul 14 2025 13:58:50 GMT-0500 (Central Daylight Time),567284.1999999881,A,a,I,backspace,885,2,1399.300000011921,565884.8999999762,8039,WL,A,11.0
5,13.912999868392944,learn,60000.0,Mon Jul 14 2025 13:58:50 GMT-0500 (Central Daylight Time),567417.599999994,A,,I,backspace,113,2,1532.7000000178814,565884.8999999762,8039,WL,A,11.0
5,14.046000003814697,learn,60000.0,Mon Jul 14 2025 13:58:50 GMT-0500 (Central Daylight Time),567550.7999999821,A,f,I,f,124,2,1665.9000000059605,565884.8999999762,8039,WL,A,11.0
5,14.229000091552734,learn,60000.0,Mon Jul 14 2025 13:58:50 GMT-0500 (Central Daylight Time),567734.099999994,A,fi,I,i,167,2,1849.2000000178814,565884.8999999762,8039,WL,A,11.0
5,14.279000043869019,learn,60000.0,Mon Jul 14 2025 13:58:50 GMT-0500 (Central Daylight Time),567783.8999999762,A,fin,I,n,31,2,1899.0,565884.8999999762,8039,WL,A,11.0
5,14.428999900817871,learn,60000.0,Mon Jul 14 2025 13:58:50 GMT-0500 (Central Daylight Time),567934.099999994,A,fing,I,g,134,2,2049.2000000178814,565884.8999999762,8039,WL,A,11.0
5,14.595999956130981,learn,60000.0,Mon Jul 14 2025 13:58:50 GMT-0500 (Central Daylight Time),568100.7999999821,A,finge,I,e,159,2,2215.9000000059605,565884.8999999762,8039,WL,A,11.0
5,14.678999900817871,learn,60000.0,Mon Jul 14 2025 13:58:50 GMT-0500 (Central Daylight Time),568183.7999999821,A,finger,I,r,65,2,2298.9000000059605,565884.8999999762,8039,WL,A,11.0
5,15.045000076293945,learn,60000.0,Mon Jul 14 2025 13:58:50 GMT-0500 (Central Daylight Time),568550.599999994,A,fingerenter,I,enter,350,2,2665.7000000178814,565884.8999999762,8039,WL,A,11.0
5,15.312000036239624,learn,60000.0,Mon Jul 14 2025 13:58:50 GMT-0500 (Central Daylight Time),568817.0,A,a,I,a,247,2,266.0,568551.0,8039,WL,A,12.0
5,15.59500002861023,learn,60000.0,Mon Jul 14 2025 13:58:50 GMT-0500 (Central Daylight Time),569100.5,A,ap,I,p,268,2,549.5,568551.0,8039,WL,A,12.0
5,15.76200008392334,learn,60000.0,Mon Jul 14 2025 13:58:50 GMT-0500 (Central Daylight Time),569267.1999999881,A,app,I,p,154,2,716.1999999880791,568551.0,8039,WL,A,12.0
5,16.062000036239624,learn,60000.0,Mon Jul 14 2025 13:58:50 GMT-0500 (Central Daylight Time),569566.8999999762,A,appl,I,l,282,2,1015.8999999761581,568551.0,8039,WL,A,12.0
5,16.194999933242798,learn,60000.0,Mon Jul 14 2025 13:58:50 GMT-0500 (Central Daylight Time),569700.1999999881,A,apple,I,e,126,2,1149.199999988079,568551.0,8039,WL,A,12.0
5,16.562000036239624,learn,60000.0,Mon Jul 14 2025 13:58:50 GMT-0500 (Central Daylight Time),570066.599999994,A,appleenter,I,enter,345,2,1515.5999999940395,568551.0,8039,WL,A,12.0
5,21.092999935150146,learn,60000.0,Mon Jul 14 2025 13:58:50 GMT-0500 (Central Daylight Time),574598.599999994,A,m,I,m,4523,2,4531.5999999940395,570067.0,8039,WL,A,13.0
5,21.194000005722046,learn,60000.0,Mon Jul 14 2025 13:58:50 GMT-0500 (Central Daylight Time),574698.599999994,A,me,I,e,79,2,4631.5999999940395,570067.0,8039,WL,A,13.0
5,21.32699990272522,learn,60000.0,Mon Jul 14 2025 13:58:50 GMT-0500 (Central Daylight Time),574831.6999999881,A,mea,I,a,124,2,4764.699999988079,570067.0,8039,WL,A,13.0
5,21.594000101089478,learn,60000.0,Mon Jul 14 2025 13:58:50 GMT-0500 (Central Daylight Time),575098.6999999881,A,mead,I,d,262,2,5031.699999988079,570067.0,8039,WL,A,13.0
5,21.91000008583069,learn,60000.0,Mon Jul 14 2025 13:58:50 GMT-0500 (Central Daylight Time),575414.7999999821,A,meado,I,o,299,2,5347.799999982119,570067.0,8039,WL,A,13.0
5,21.97699999809265,learn,60000.0,Mon Jul 14 2025 13:58:50 GMT-0500 (Central Daylight Time),575481.599999994,A,meadow,I,w,55,2,5414.5999999940395,570067.0,8039,WL,A,13.0
5,22.443000078201294,learn,60000.0,Mon Jul 14 2025 13:58:50 GMT-0500 (Central Daylight Time),575948.2999999821,A,meadowenter,I,enter,460,2,5881.299999982119,570067.0,8039,WL,A,13.0
5,23.175999879837036,learn,60000.0,Mon Jul 14 2025 13:58:50 GMT-0500 (Central Daylight Time),576681.3999999762,A,k,I,k,721,2,732.7999999821186,575948.599999994,8039,WL,A,14.0
5,23.408999919891357,learn,60000.0,Mon Jul 14 2025 13:58:50 GMT-0500 (Central Daylight Time),576914.599999994,A,ke,I,e,228,2,966.0,575948.599999994,8039,WL,A,14.0
5,23.542999982833862,learn,60000.0,Mon Jul 14 2025 13:58:50 GMT-0500 (Central Daylight Time),577047.7999999821,A,key,I,y,115,2,1099.199999988079,575948.599999994,8039,WL,A,14.0
5,24.875999927520752,learn,60000.0,Mon Jul 14 2025 13:58:50 GMT-0500 (Central Daylight Time),578380.8999999762,A,keyenter,I,enter,1319,2,2432.2999999821186,575948.599999994,8039,WL,A,14.0
5,28.058000087738037,learn,60000.0,Mon Jul 14 2025 13:58:50 GMT-0500 (Central Daylight Time),581563.0,A,r,I,r,3178,2,3181.9000000059605,578381.099999994,8039,WL,A,15.0
5,28.174999952316284,learn,60000.0,Mon Jul 14 2025 13:58:50 GMT-0500 (Central Daylight Time),581679.599999994,A,ru,I,u,107,2,3298.5,578381.099999994,8039,WL,A,15.0
5,28.27500009536743,learn,60000.0,Mon Jul 14 2025 13:58:50 GMT-0500 (Central Daylight Time),581779.599999994,A,rug,I,g,94,2,3398.5,578381.099999994,8039,WL,A,15.0
5,28.45799994468689,learn,60000.0,Mon Jul 14 2025 13:58:50 GMT-0500 (Central Daylight Time),581962.8999999762,A,rugenter,I,enter,162,2,3581.7999999821186,578381.099999994,8039,WL,A,15.0
6,0.5160000324249268,distr,59483.99996757507,Mon Jul 14 2025 13:58:50 GMT-0500 (Central Daylight Time),654940.0,B,b,I,b,502,2,516.3000000119209,654423.6999999881,8039,WL,A,1.0
6,0.7159998416900635,distr,59284.00015830994,Mon Jul 14 2025 13:58:50 GMT-0500 (Central Daylight Time),655139.6999999881,B,bo,I,o,193,2,716.0,654423.6999999881,8039,WL,A,1.0
6,0.8159999847412109,distr,59184.00001525879,Mon Jul 14 2025 13:58:50 GMT-0500 (Central Daylight Time),655239.7999999821,B,bow,I,w,90,2,816.0999999940395,654423.6999999881,8039,WL,A,1.0
6,1.1489999294281006,distr,58851.0000705719,Mon Jul 14 2025 13:58:50 GMT-0500 (Central Daylight Time),655572.7999999821,B,bowl,I,l,319,2,1149.0999999940395,654423.6999999881,8039,WL,A,1.0
6,1.7660000324249268,distr,58233.99996757507,Mon Jul 14 2025 13:58:50 GMT-0500 (Central Daylight Time),656189.5,B,bowlenter,I,enter,608,2,1765.800000011921,654423.6999999881,8039,WL,A,1.0
6,2.0160000324249268,distr,57983.99996757507,Mon Jul 14 2025 13:58:50 GMT-0500 (Central Daylight Time),656439.599999994,B,s,I,s,240,2,249.7000000178814,656189.8999999762,8039,WL,A,2.0
6,2.2159998416900635,distr,57784.00015830994,Mon Jul 14 2025 13:58:50 GMT-0500 (Central Daylight Time),656639.599999994,B,sa,I,a,190,2,449.7000000178814,656189.8999999762,8039,WL,A,2.0
6,2.7660000324249268,distr,57233.99996757507,Mon Jul 14 2025 13:58:50 GMT-0500 (Central Daylight Time),657189.3999999762,B,s,I,backspace,542,2,999.5,656189.8999999762,8039,WL,A,2.0
6,2.9149999618530273,distr,57085.00003814697,Mon Jul 14 2025 13:58:50 GMT-0500 (Central Daylight Time),657339.1999999881,B,,I,backspace,136,2,1149.300000011921,656189.8999999762,8039,WL,A,2.0
6,3.797999858856201,distr,56202.0001411438,Mon Jul 14 2025 13:58:50 GMT-0500 (Central Daylight Time),658222.2999999821,B,d,I,d,867,2,2032.4000000059605,656189.8999999762,8039,WL,A,2.0
6,3.9649999141693115,distr,56035.00008583069,Mon Jul 14 2025 13:58:50 GMT-0500 (Central Daylight Time),658389.099999994,B,da,I,a,159,2,2199.2000000178814,656189.8999999762,8039,WL,A,2.0
6,4.181999921798706,distr,55818.000078201294,Mon Jul 14 2025 13:58:50 GMT-0500 (Central Daylight Time),658605.599999994,B,daw,I,w,208,2,2415.7000000178814,656189.8999999762,8039,WL,A,2.0
6,4.447999954223633,distr,55552.00004577637,Mon Jul 14 2025 13:58:50 GMT-0500 (Central Daylight Time),658872.2999999821,B,dawn,I,n,249,2,2682.4000000059605,656189.8999999762,8039,WL,A,2.0
6,4.73199987411499,distr,55268.00012588501,Mon Jul 14 2025 13:58:50 GMT-0500 (Central Daylight Time),659156.2999999821,B,dawnenter,I,enter,278,2,2966.4000000059605,656189.8999999762,8039,WL,A,2.0
6,4.997999906539917,distr,55002.00009346008,Mon Jul 14 2025 13:58:50 GMT-0500 (Central Daylight Time),659422.099999994,B,j,I,j,257,2,265.40000000596046,659156.6999999881,8039,WL,A,3.0
6,5.230999946594238,distr,54769.00005340576,Mon Jul 14 2025 13:58:50 GMT-0500 (Central Daylight Time),659655.1999999881,B,ju,I,u,224,2,498.5,659156.6999999881,8039,WL,A,3.0
6,5.347999811172485,distr,54652.000188827515,Mon Jul 14 2025 13:58:50 GMT-0500 (Central Daylight Time),659771.6999999881,B,jud,I,d,110,2,615.0,659156.6999999881,8039,WL,A,3.0
6,5.563999891281128,distr,54436.00010871887,Mon Jul 14 2025 13:58:50 GMT-0500 (Central Daylight Time),659988.2999999821,B,judg,I,g,210,2,831.5999999940395,659156.6999999881,8039,WL,A,3.0
6,5.680999994277954,distr,54319.000005722046,Mon Jul 14 2025 13:58:50 GMT-0500 (Central Daylight Time),660105.0,B,judge,I,e,105,2,948.3000000119209,659156.6999999881,8039,WL,A,3.0
6,5.9649999141693115,distr,54035.00008583069,Mon Jul 14 2025 13:58:50 GMT-0500 (Central Daylight Time),660388.599999994,B,judgeenter,I,enter,270,2,1231.9000000059605,659156.6999999881,8039,WL,A,3.0
6,6.164000034332275,distr,53835.999965667725,Mon Jul 14 2025 13:58:50 GMT-0500 (Central Daylight Time),660588.2999999821,B,g,I,g,185,2,199.40000000596046,660388.8999999762,8039,WL,A,4.0
6,8.29699993133545,distr,51703.00006866455,Mon Jul 14 2025 13:58:50 GMT-0500 (Central Daylight Time),662720.6999999881,B,gr,I,r,2121,2,2331.800000011921,660388.8999999762,8039,WL,A,4.0
6,8.44700002670288,distr,51552.99997329712,Mon Jul 14 2025 13:58:50 GMT-0500 (Central Daylight Time),662870.5,B,gra,I,a,139,2,2481.600000023842,660388.8999999762,8039,WL,A,4.0
6,8.579999923706055,distr,51420.000076293945,Mon Jul 14 2025 13:58:50 GMT-0500 (Central Daylight Time),663004.2999999821,B,gran,I,n,119,2,2615.4000000059605,660388.8999999762,8039,WL,A,4.0
6,8.746999979019165,distr,51253.000020980835,Mon Jul 14 2025 13:58:50 GMT-0500 (Central Daylight Time),663170.6999999881,B,grant,I,t,161,2,2781.800000011921,660388.8999999762,8039,WL,A,4.0
6,9.179999828338623,distr,50820.00017166138,Mon Jul 14 2025 13:58:50 GMT-0500 (Central Daylight Time),663603.8999999762,B,grantenter,I,enter,427,2,3215.0,660388.8999999762,8039,WL,A,4.0
6,9.562999963760376,distr,50437.000036239624,Mon Jul 14 2025 13:58:50 GMT-0500 (Central Daylight Time),663987.099999994,B,i,I,i,378,2,382.80000001192093,663604.2999999821,8039,WL,A,5.0
6,9.646999835968018,distr,50353.00016403198,Mon Jul 14 2025 13:58:50 GMT-0500 (Central Daylight Time),664070.5,B,in,I,n,67,2,466.2000000178814,663604.2999999821,8039,WL,A,5.0
6,9.896999835968018,distr,50103.00016403198,Mon Jul 14 2025 13:58:50 GMT-0500 (Central Daylight Time),664320.5,B,ins,I,s,231,2,716.2000000178814,663604.2999999821,8039,WL,A,5.0
6,10.079999923706055,distr,49920.000076293945,Mon Jul 14 2025 13:58:50 GMT-0500 (Central Daylight Time),664503.599999994,B,inse,I,e,173,2,899.3000000119209,663604.2999999821,8039,WL,A,5.0
6,10.36299991607666,distr,49637.00008392334,Mon Jul 14 2025 13:58:50 GMT-0500 (Central Daylight Time),664786.8999999762,B,insec,I,c,278,2,1182.5999999940395,663604.2999999821,8039,WL,A,5.0
6,11.395999908447266,distr,48604.000091552734,Mon Jul 14 2025 13:58:50 GMT-0500 (Central Daylight Time),665819.6999999881,B,insect,I,t,1027,2,2215.4000000059605,663604.2999999821,8039,WL,A,5.0
6,11.86299991607666,distr,48137.00008392334,Mon Jul 14 2025 13:58:50 GMT-0500 (Central Daylight Time),666286.599999994,B,insectenter,I,enter,451,2,2682.300000011921,663604.2999999821,8039,WL,A,5.0
6,12.228999853134155,distr,47771.000146865845,Mon Jul 14 2025 13:58:50 GMT-0500 (Central Daylight Time),666653.0,B,p,I,p,351,2,366.2000000178814,666286.7999999821,8039,WL,A,6.0
6,12.328999996185303,distr,47671.0000038147,Mon Jul 14 2025 13:58:50 GMT-0500 (Central Daylight Time),666753.099999994,B,pe,I,e,80,2,466.30000001192093,666286.7999999821,8039,WL,A,6.0
6,12.478999853134155,distr,47521.000146865845,Mon Jul 14 2025 13:58:50 GMT-0500 (Central Daylight Time),666902.7999999821,B,pea,I,a,132,2,616.0,666286.7999999821,8039,WL,A,6.0
6,12.79699993133545,distr,47203.00006866455,Mon Jul 14 2025 13:58:50 GMT-0500 (Central Daylight Time),667220.5,B,peac,I,c,311,2,933.7000000178814,666286.7999999821,8039,WL,A,6.0
6,12.878999948501587,distr,47121.00005149841,Mon Jul 14 2025 13:58:50 GMT-0500 (Central Daylight Time),667302.7999999821,B,peach,I,h,65,2,1016.0,666286.7999999821,8039,WL,A,6.0
6,13.263000011444092,distr,46736.99998855591,Mon Jul 14 2025 13:58:50 GMT-0500 (Central Daylight Time),667687.099999994,B,peachenter,I,enter,375,2,1400.300000011921,666286.7999999821,8039,WL,A,6.0
6,13.595999956130981,distr,46404.00004386902,Mon Jul 14 2025 13:58:50 GMT-0500 (Central Daylight Time),668020.2999999821,B,b,I,b,326,2,332.90000000596046,667687.3999999762,8039,WL,A,7.0
6,13.861999988555908,distr,46138.00001144409,Mon Jul 14 2025 13:58:50 GMT-0500 (Central Daylight Time),668285.6999999881,B,bu,I,u,249,2,598.3000000119209,667687.3999999762,8039,WL,A,7.0
6,14.01199984550476,distr,45988.00015449524,Mon Jul 14 2025 13:58:50 GMT-0500 (Central Daylight Time),668435.599999994,B,but,I,t,144,2,748.2000000178814,667687.3999999762,8039,WL,A,7.0
6,14.178999900817871,distr,45821.00009918213,Mon Jul 14 2025 13:58:50 GMT-0500 (Central Daylight Time),668602.3999999762,B,butt,I,t,146,2,915.0,667687.3999999762,8039,WL,A,7.0
6,14.994999885559082,distr,45005.00011444092,Mon Jul 14 2025 13:58:50 GMT-0500 (Central Daylight Time),669418.7999999821,B,butto,I,o,811,2,1731.4000000059605,667687.3999999762,8039,WL,A,7.0
6,15.062000036239624,distr,44937.999963760376,Mon Jul 14 2025 13:58:50 GMT-0500 (Central Daylight Time),669485.599999994,B,button,I,n,52,2,1798.2000000178814,667687.3999999762,8039,WL,A,7.0
6,15.494999885559082,distr,44505.00011444092,Mon Jul 14 2025 13:58:50 GMT-0500 (Central Daylight Time),669918.599999994,B,buttonenter,I,enter,425,2,2231.2000000178814,667687.3999999762,8039,WL,A,7.0
6,15.860999822616577,distr,44139.00017738342,Mon Jul 14 2025 13:58:50 GMT-0500 (Central Daylight Time),670285.1999999881,B,p,I,p,360,2,366.30000001192093,669918.8999999762,8039,WL,A,8.0
6,16.277999877929688,distr,43722.00012207031,Mon Jul 14 2025 13:58:50 GMT-0500 (Central Daylight Time),670701.8999999762,B,po,I,o,409,2,783.0,669918.8999999762,8039,WL,A,8.0
6,16.460999965667725,distr,43539.000034332275,Mon Jul 14 2025 13:58:50 GMT-0500 (Central Daylight Time),670885.0,B,poo,I,o,169,2,966.1000000238419,669918.8999999762,8039,WL,A,8.0
6,18.01099991798401,distr,41989.00008201599,Mon Jul 14 2025 13:58:50 GMT-0500 (Central Daylight Time),672434.5,B,pool,I,l,1536,2,2515.600000023842,669918.8999999762,8039,WL,A,8.0
6,19.80999994277954,distr,40190.00005722046,Mon Jul 14 2025 13:58:50 GMT-0500 (Central Daylight Time),674233.8999999762,B,poolenter,I,enter,1787,2,4315.0,669918.8999999762,8039,WL,A,8.0
6,22.858999967575073,distr,37141.00003242493,Mon Jul 14 2025 13:58:50 GMT-0500 (Central Daylight Time),677282.8999999762,B,enter,I,enter,3037,2,3048.699999988079,674234.1999999881,8039,WL,A,9.0
6,23.592000007629395,distr,36407.999992370605,Mon Jul 14 2025 13:58:50 GMT-0500 (Central Daylight Time),678016.0,B,enter,I,enter,714,2,732.7000000178814,677283.2999999821,8039,WL,A,10.0
6,23.741999864578247,distr,36258.00013542175,Mon Jul 14 2025 13:58:50 GMT-0500 (Central Daylight Time),678166.0,B,enter,I,enter,141,2,149.60000002384186,678016.3999999762,8039,WL,A,11.0
6,24.04199981689453,distr,35958.00018310547,Mon Jul 14 2025 13:58:50 GMT-0500 (Central Daylight Time),678465.599999994,B,enter,I,enter,288,2,299.2000000178814,678166.3999999762,8039,WL,A,12.0
6,24.375,distr,35625.0,Mon Jul 14 2025 13:58:50 GMT-0500 (Central Daylight Time),678798.8999999762,B,enter,I,enter,324,2,333.09999999403954,678465.7999999821,8039,WL,A,13.0
6,24.824999809265137,distr,35175.00019073486,Mon Jul 14 2025 13:58:50 GMT-0500 (Central Daylight Time),679248.8999999762,B,enter,I,enter,438,2,449.59999999403954,678799.2999999821,8039,WL,A,14.0
6,26.625,distr,33375.0,Mon Jul 14 2025 13:58:50 GMT-0500 (Central Daylight Time),681048.5,B,enter,I,enter,1789,2,1799.300000011921,679249.1999999881,8039,WL,A,15.0
7,0.5510001182556152,immed,59448.999881744385,Mon Jul 14 2025 13:58:50 GMT-0500 (Central Daylight Time),697993.599999994,A,c,I,c,531,2,550.0999999940395,697443.5,8039,WL,A,1.0
7,0.6670000553131104,immed,59332.99994468689,Mon Jul 14 2025 13:58:50 GMT-0500 (Central Daylight Time),698109.7999999821,A,ch,I,h,109,2,666.2999999821186,697443.5,8039,WL,A,1.0
7,0.8340001106262207,immed,59165.99988937378,Mon Jul 14 2025 13:58:50 GMT-0500 (Central Daylight Time),698276.5,A,cho,I,o,160,2,833.0,697443.5,8039,WL,A,1.0
7,1.0830001831054688,immed,58916.99981689453,Mon Jul 14 2025 13:58:50 GMT-0500 (Central Daylight Time),698526.1999999881,A,chom,I,m,241,2,1082.699999988079,697443.5,8039,WL,A,1.0
7,1.4500000476837158,immed,58549.999952316284,Mon Jul 14 2025 13:58:50 GMT-0500 (Central Daylight Time),698893.1999999881,A,cho,I,backspace,360,2,1449.699999988079,697443.5,8039,WL,A,1.0
7,1.5330002307891846,immed,58466.999769210815,Mon Jul 14 2025 13:58:50 GMT-0500 (Central Daylight Time),698976.1999999881,A,ch,I,backspace,73,2,1532.699999988079,697443.5,8039,WL,A,1.0
7,1.8670001029968262,immed,58132.999897003174,Mon Jul 14 2025 13:58:50 GMT-0500 (Central Daylight Time),699309.5,A,chi,I,i,317,2,1866.0,697443.5,8039,WL,A,1.0
7,2.117000102996826,immed,57882.999897003174,Mon Jul 14 2025 13:58:50 GMT-0500 (Central Daylight Time),699559.5,A,chim,I,m,231,2,2116.0,697443.5,8039,WL,A,1.0
7,2.3330001831054688,immed,57666.99981689453,Mon Jul 14 2025 13:58:50 GMT-0500 (Central Daylight Time),699776.0,A,chimn,I,n,207,2,2332.5,697443.5,8039,WL,A,1.0
7,2.5330002307891846,immed,57466.999769210815,Mon Jul 14 2025 13:58:50 GMT-0500 (Central Daylight Time),699975.599999994,A,chimne,I,e,191,2,2532.0999999940395,697443.5,8039,WL,A,1.0
7,2.6000001430511475,immed,57399.99985694885,Mon Jul 14 2025 13:58:50 GMT-0500 (Central Daylight Time),700042.7999999821,A,chimney,I,y,54,2,2599.2999999821186,697443.5,8039,WL,A,1.0
7,3.133000135421753,immed,56866.99986457825,Mon Jul 14 2025 13:58:50 GMT-0500 (Central Daylight Time),700575.599999994,A,chimneyenter,I,enter,515,2,3132.0999999940395,697443.5,8039,WL,A,1.0
7,4.432000160217285,immed,55567.999839782715,Mon Jul 14 2025 13:58:50 GMT-0500 (Central Daylight Time),701875.1999999881,A,l,I,l,1294,2,1299.199999988079,700576.0,8039,WL,A,2.0
7,4.682000160217285,immed,55317.999839782715,Mon Jul 14 2025 13:58:50 GMT-0500 (Central Daylight Time),702125.2999999821,A,lo,I,o,242,2,1549.2999999821186,700576.0,8039,WL,A,2.0
7,4.799000024795532,immed,55200.99997520447,Mon Jul 14 2025 13:58:50 GMT-0500 (Central Daylight Time),702241.7999999821,A,log,I,g,96,2,1665.7999999821186,700576.0,8039,WL,A,2.0
7,5.232000112533569,immed,54767.99988746643,Mon Jul 14 2025 13:58:50 GMT-0500 (Central Daylight Time),702674.7999999821,A,logenter,I,enter,428,2,2098.7999999821186,700576.0,8039,WL,A,2.0
7,5.582000017166138,immed,54417.99998283386,Mon Jul 14 2025 13:58:50 GMT-0500 (Central Daylight Time),703024.7999999821,A,k,I,k,328,2,349.69999998807907,702675.099999994,8039,WL,A,3.0
7,5.7820000648498535,immed,54217.99993515015,Mon Jul 14 2025 13:58:50 GMT-0500 (Central Daylight Time),703224.7999999821,A,ke,I,e,188,2,549.6999999880791,702675.099999994,8039,WL,A,3.0
7,5.882000207901001,immed,54117.999792099,Mon Jul 14 2025 13:58:50 GMT-0500 (Central Daylight Time),703324.6999999881,A,key,I,y,93,2,649.5999999940395,702675.099999994,8039,WL,A,3.0
7,6.265000104904175,immed,53734.999895095825,Mon Jul 14 2025 13:58:50 GMT-0500 (Central Daylight Time),703708.0,A,keyenter,I,enter,369,2,1032.9000000059605,702675.099999994,8039,WL,A,3.0
7,6.582000017166138,immed,53417.99998283386,Mon Jul 14 2025 13:58:50 GMT-0500 (Central Daylight Time),704024.5,A,b,I,b,305,2,316.10000002384186,703708.3999999762,8039,WL,A,4.0
7,6.765000104904175,immed,53234.999895095825,Mon Jul 14 2025 13:58:50 GMT-0500 (Central Daylight Time),704207.7999999821,A,bu,I,u,165,2,499.40000000596046,703708.3999999762,8039,WL,A,4.0
7,7.0320000648498535,immed,52967.99993515015,Mon Jul 14 2025 13:58:50 GMT-0500 (Central Daylight Time),704474.5,A,but,I,t,254,2,766.1000000238419,703708.3999999762,8039,WL,A,4.0
7,7.182000160217285,immed,52817.999839782715,Mon Jul 14 2025 13:58:50 GMT-0500 (Central Daylight Time),704624.599999994,A,butt,I,t,131,2,916.2000000178814,703708.3999999762,8039,WL,A,4.0
7,8.648000001907349,immed,51351.99999809265,Mon Jul 14 2025 13:58:50 GMT-0500 (Central Daylight Time),706090.599999994,A,butto,I,o,1446,2,2382.2000000178814,703708.3999999762,8039,WL,A,4.0
7,8.714000225067139,immed,51285.99977493286,Mon Jul 14 2025 13:58:50 GMT-0500 (Central Daylight Time),706157.0,A,button,I,n,59,2,2448.600000023842,703708.3999999762,8039,WL,A,4.0
7,9.264000177383423,immed,50735.99982261658,Mon Jul 14 2025 13:58:50 GMT-0500 (Central Daylight Time),706707.0,A,buttonenter,I,enter,544,2,2998.600000023842,703708.3999999762,8039,WL,A,4.0
7,9.547000169754028,immed,50452.99983024597,Mon Jul 14 2025 13:58:50 GMT-0500 (Central Daylight Time),706990.2999999821,A,h,I,h,266,2,283.0,706707.2999999821,8039,WL,A,5.0
7,9.714000225067139,immed,50285.99977493286,Mon Jul 14 2025 13:58:50 GMT-0500 (Central Daylight Time),707156.8999999762,A,ha,I,a,151,2,449.59999999403954,706707.2999999821,8039,WL,A,5.0
7,9.797000169754028,immed,50202.99983024597,Mon Jul 14 2025 13:58:50 GMT-0500 (Central Daylight Time),707240.2999999821,A,har,I,r,72,2,533.0,706707.2999999821,8039,WL,A,5.0
7,10.214000225067139,immed,49785.99977493286,Mon Jul 14 2025 13:58:50 GMT-0500 (Central Daylight Time),707656.7999999821,A,harp,I,p,405,2,949.5,706707.2999999821,8039,WL,A,5.0
7,14.696000099182129,immed,45303.99990081787,Mon Jul 14 2025 13:58:50 GMT-0500 (Central Daylight Time),712138.599999994,A,harpenter,I,enter,4469,2,5431.300000011921,706707.2999999821,8039,WL,A,5.0
7,16.66200017929077,immed,43337.99982070923,Mon Jul 14 2025 13:58:50 GMT-0500 (Central Daylight Time),714104.599999994,A,g,I,g,1947,2,1965.5999999940395,712139.0,8039,WL,A,6.0
7,16.74500012397766,immed,43254.99987602234,Mon Jul 14 2025 13:58:50 GMT-0500 (Central Daylight Time),714188.099999994,A,go,I,o,76,2,2049.0999999940395,712139.0,8039,WL,A,6.0
7,16.945000171661377,immed,43054.99982833862,Mon Jul 14 2025 13:58:50 GMT-0500 (Central Daylight Time),714388.0,A,gol,I,l,185,2,2249.0,712139.0,8039,WL,A,6.0
7,17.045000076293945,immed,42954.999923706055,Mon Jul 14 2025 13:58:50 GMT-0500 (Central Daylight Time),714488.099999994,A,gold,I,d,81,2,2349.0999999940395,712139.0,8039,WL,A,6.0
7,17.528000116348267,immed,42471.99988365173,Mon Jul 14 2025 13:58:50 GMT-0500 (Central Daylight Time),714971.2999999821,A,goldenter,I,enter,478,2,2832.2999999821186,712139.0,8039,WL,A,6.0
7,21.593000173568726,immed,38406.999826431274,Mon Jul 14 2025 13:58:50 GMT-0500 (Central Daylight Time),719036.599999994,A,m,I,m,4057,2,4065.0,714971.599999994,8039,WL,A,7.0
7,21.66000008583069,immed,38339.99991416931,Mon Jul 14 2025 13:58:50 GMT-0500 (Central Daylight Time),719103.2999999821,A,me,I,e,57,2,4131.699999988079,714971.599999994,8039,WL,A,7.0
7,21.79300022125244,immed,38206.99977874756,Mon Jul 14 2025 13:58:50 GMT-0500 (Central Daylight Time),719236.599999994,A,mea,I,a,118,2,4265.0,714971.599999994,8039,WL,A,7.0
7,21.960000038146973,immed,38039.99996185303,Mon Jul 14 2025 13:58:50 GMT-0500 (Central Daylight Time),719403.2999999821,A,mead,I,d,153,2,4431.699999988079,714971.599999994,8039,WL,A,7.0
7,22.06000018119812,immed,37939.99981880188,Mon Jul 14 2025 13:58:50 GMT-0500 (Central Daylight Time),719503.099999994,A,meado,I,o,83,2,4531.5,714971.599999994,8039,WL,A,7.0
7,22.16000008583069,immed,37839.99991416931,Mon Jul 14 2025 13:58:50 GMT-0500 (Central Daylight Time),719603.0,A,meadow,I,w,87,2,4631.4000000059605,714971.599999994,8039,WL,A,7.0
7,22.45900011062622,immed,37540.99988937378,Mon Jul 14 2025 13:58:50 GMT-0500 (Central Daylight Time),719902.8999999762,A,meadowenter,I,enter,290,2,4931.299999982119,714971.599999994,8039,WL,A,7.0
7,30.257000207901,immed,29742.999792099,Mon Jul 14 2025 13:58:50 GMT-0500 (Central Daylight Time),727700.7999999821,A,d,I,d,7790,2,7797.5,719903.2999999821,8039,WL,A,8.0
7,30.374000072479248,immed,29625.999927520752,Mon Jul 14 2025 13:58:50 GMT-0500 (Central Daylight Time),727817.1999999881,A,da,I,a,105,2,7913.9000000059605,719903.2999999821,8039,WL,A,8.0
7,30.540000200271606,immed,29459.999799728394,Mon Jul 14 2025 13:58:50 GMT-0500 (Central Daylight Time),727983.6999999881,A,daw,I,w,148,2,8080.4000000059605,719903.2999999821,8039,WL,A,8.0
7,30.707000017166138,immed,29292.999982833862,Mon Jul 14 2025 13:58:50 GMT-0500 (Central Daylight Time),728150.599999994,A,dawn,I,n,150,2,8247.300000011921,719903.2999999821,8039,WL,A,8.0
7,31.007000207901,immed,28992.999792099,Mon Jul 14 2025 13:58:50 GMT-0500 (Central Daylight Time),728450.3999999762,A,dawnenter,I,enter,280,2,8547.09999999404,719903.2999999821,8039,WL,A,8.0
7,42.27000021934509,immed,17729.999780654907,Mon Jul 14 2025 13:58:50 GMT-0500 (Central Daylight Time),739713.1999999881,A,h,I,h,11252,2,11262.5,728450.6999999881,8039,WL,A,9.0
7,42.337000131607056,immed,17662.999868392944,Mon Jul 14 2025 13:58:50 GMT-0500 (Central Daylight Time),739780.099999994,A,ha,I,a,60,2,11329.40000000596,728450.6999999881,8039,WL,A,9.0
7,42.47000002861023,immed,17529.99997138977,Mon Jul 14 2025 13:58:50 GMT-0500 (Central Daylight Time),739913.5,A,har,I,r,114,2,11462.800000011921,728450.6999999881,8039,WL,A,9.0
7,42.57000017166138,immed,17429.999828338623,Mon Jul 14 2025 13:58:50 GMT-0500 (Central Daylight Time),740013.2999999821,A,harp,I,p,84,2,11562.59999999404,728450.6999999881,8039,WL,A,9.0
7,42.986000061035156,immed,17013.999938964844,Mon Jul 14 2025 13:58:50 GMT-0500 (Central Daylight Time),740429.7999999821,A,harpenter,I,enter,400,2,11979.09999999404,728450.6999999881,8039,WL,A,9.0
7,45.93600010871887,immed,14063.999891281128,Mon Jul 14 2025 13:58:50 GMT-0500 (Central Daylight Time),743379.0,A,enter,I,enter,2945,2,2948.9000000059605,740430.099999994,8039,WL,A,10.0
7,46.135000228881836,immed,13864.999771118164,Mon Jul 14 2025 13:58:50 GMT-0500 (Central Daylight Time),743578.8999999762,A,enter,I,enter,188,2,199.5,743379.3999999762,8039,WL,A,11.0
7,46.50200009346008,immed,13497.999906539917,Mon Jul 14 2025 13:58:50 GMT-0500 (Central Daylight Time),743945.1999999881,A,enter,I,enter,347,2,366.0,743579.1999999881,8039,WL,A,12.0
7,46.68500018119812,immed,13314.99981880188,Mon Jul 14 2025 13:58:50 GMT-0500 (Central Daylight Time),744128.599999994,A,enter,I,enter,172,2,183.0,743945.599999994,8039,WL,A,13.0
7,47.135000228881836,immed,12864.999771118164,Mon Jul 14 2025 13:58:50 GMT-0500 (Central Daylight Time),744578.599999994,A,enter,I,enter,429,2,449.59999999403954,744129.0,8039,WL,A,14.0
7,47.53600001335144,immed,12463.99998664856,Mon Jul 14 2025 13:58:50 GMT-0500 (Central Daylight Time),744979.0,A,enter,I,enter,395,2,400.10000002384186,744578.8999999762,8039,WL,A,15.0
