acc_sum,block,block_c,block_cond,con_img,correct,correct_response,datetime,endtime,face,jitter,line,project,response,response_time,row_sel,session_number,start_end,starttime,subject_id,task,task_vers,trial
1,prac,1,A,haborder.png,1,z,Wed May 20 2026 18:20:46 GMT-0500 (Central Daylight Time),44853.60000002384,CFD-BM-037-041-A.jpg,1600,solid,I,z,1397,2,1,3782.2000000476837,41071.39999997616,8114,ATS,B,1
2,prac,1,A,haborder.png,1,m,Wed May 20 2026 18:20:46 GMT-0500 (Central Daylight Time),47787.10000002384,CFD-BM-020-024-HC.jpg,1500,solid,I,m,643,3,1,6715.700000047684,41071.39999997616,8114,ATS,B,2
3,prac,1,A,haborder.png,1,z,Wed May 20 2026 18:20:46 GMT-0500 (Central Daylight Time),50302.0,CFD-BF-051-043-A.jpg,1000,solid,I,z,723,4,1,9230.600000023842,41071.39999997616,8114,ATS,B,3
4,prac,1,A,haborder.png,1,m,Wed May 20 2026 18:20:46 GMT-0500 (Central Daylight Time),53084.60000002384,CFD-WM-011-006-HC.jpg,1400,solid,I,m,590,7,1,12013.200000047684,41071.39999997616,8114,ATS,B,4
5,prac,1,A,haborder.png,1,z,Wed May 20 2026 18:20:46 GMT-0500 (Central Daylight Time),55700.200000047684,CFD-WF-013-015-A.jpg,1000,solid,I,z,811,12,1,14628.800000071526,41071.39999997616,8114,ATS,B,5
6,prac,1,A,haborder.png,1,z,Wed May 20 2026 18:20:46 GMT-0500 (Central Daylight Time),58299.5,CFD-BF-050-012-A.jpg,1200,solid,I,z,608,6,1,17228.100000023842,41071.39999997616,8114,ATS,B,6
7,prac,1,A,haborder.png,1,m,Wed May 20 2026 18:20:46 GMT-0500 (Central Daylight Time),61698.10000002384,CFD-BF-035-007-HC.jpg,2000,solid,I,m,609,5,1,20626.700000047684,41071.39999997616,8114,ATS,B,7
8,prac,1,A,haborder.png,1,m,Wed May 20 2026 18:20:46 GMT-0500 (Central Daylight Time),64830.700000047684,CFD-BM-015-017-HC.jpg,1700,solid,I,m,646,1,1,23759.300000071526,41071.39999997616,8114,ATS,B,8
9,prac,1,A,haborder.png,1,z,Wed May 20 2026 18:20:46 GMT-0500 (Central Daylight Time),68164.10000002384,CFD-WM-009-009-A.jpg,1900,solid,I,z,666,8,1,27092.700000047684,41071.39999997616,8114,ATS,B,9
10,prac,1,A,haborder.png,1,m,Wed May 20 2026 18:20:46 GMT-0500 (Central Daylight Time),71295.20000004768,CFD-WM-012-007-HC.jpg,1700,solid,I,m,645,9,1,30223.800000071526,41071.39999997616,8114,ATS,B,10
11,prac,1,A,haborder.png,1,z,Wed May 20 2026 18:20:46 GMT-0500 (Central Daylight Time),74260.89999997616,CFD-WF-026-008-A.jpg,1600,solid,I,z,573,10,1,33189.5,41071.39999997616,8114,ATS,B,11
12,prac,1,A,haborder.png,1,m,Wed May 20 2026 18:20:46 GMT-0500 (Central Daylight Time),77176.79999995232,CFD-WF-011-006-HC.jpg,1500,solid,I,m,628,11,1,36105.39999997616,41071.39999997616,8114,ATS,B,12
1,prac,1,B,mfborder.png,1,z,Wed May 20 2026 18:20:46 GMT-0500 (Central Daylight Time),99686.39999997616,CFD-BF-035-007-HC.jpg,1400,dash,I,z,1396,7,1,3582.2999999523163,96104.10000002384,8114,ATS,B,1
2,prac,1,B,mfborder.png,1,z,Wed May 20 2026 18:20:46 GMT-0500 (Central Daylight Time),102019.0,CFD-WF-011-006-HC.jpg,1000,dash,I,z,541,12,1,5914.899999976158,96104.10000002384,8114,ATS,B,2
3,prac,1,B,mfborder.png,1,m,Wed May 20 2026 18:20:46 GMT-0500 (Central Daylight Time),104951.20000004768,CFD-WM-012-007-HC.jpg,1600,dash,I,m,546,10,1,8847.100000023842,96104.10000002384,8114,ATS,B,3
4,prac,1,B,mfborder.png,1,m,Wed May 20 2026 18:20:46 GMT-0500 (Central Daylight Time),108216.79999995232,CFD-BM-037-041-A.jpg,2000,dash,I,m,477,5,1,12112.699999928474,96104.10000002384,8114,ATS,B,4
5,prac,1,B,mfborder.png,1,z,Wed May 20 2026 18:20:46 GMT-0500 (Central Daylight Time),111482.29999995232,CFD-WF-027-007-HC.jpg,1900,dash,I,z,576,8,1,15378.199999928474,96104.10000002384,8114,ATS,B,5
6,prac,1,B,mfborder.png,1,z,Wed May 20 2026 18:20:46 GMT-0500 (Central Daylight Time),114381.60000002384,CFD-BF-027-013-HC.jpg,1500,dash,I,z,606,3,1,18277.5,96104.10000002384,8114,ATS,B,6
7,prac,1,B,mfborder.png,1,m,Wed May 20 2026 18:20:46 GMT-0500 (Central Daylight Time),117280.29999995232,CFD-BM-041-048-A.jpg,1600,dash,I,m,503,2,1,21176.199999928474,96104.10000002384,8114,ATS,B,7
8,prac,1,B,mfborder.png,1,z,Wed May 20 2026 18:20:46 GMT-0500 (Central Daylight Time),120146.70000004768,CFD-WF-026-008-A.jpg,1500,dash,I,z,568,11,1,24042.600000023842,96104.10000002384,8114,ATS,B,8
9,prac,1,B,mfborder.png,1,z,Wed May 20 2026 18:20:46 GMT-0500 (Central Daylight Time),122512.60000002384,CFD-BF-051-043-A.jpg,1000,dash,I,z,570,4,1,26408.5,96104.10000002384,8114,ATS,B,9
10,prac,1,B,mfborder.png,1,m,Wed May 20 2026 18:20:46 GMT-0500 (Central Daylight Time),125545.0,CFD-WM-009-009-A.jpg,1700,dash,I,m,560,9,1,29440.899999976158,96104.10000002384,8114,ATS,B,10
11,prac,1,B,mfborder.png,1,m,Wed May 20 2026 18:20:46 GMT-0500 (Central Daylight Time),128227.39999997616,CFD-WM-037-060-A.jpg,1200,dash,I,m,700,6,1,32123.299999952316,96104.10000002384,8114,ATS,B,11
12,prac,1,B,mfborder.png,1,m,Wed May 20 2026 18:20:46 GMT-0500 (Central Daylight Time),131176.20000004768,CFD-BM-020-024-HC.jpg,1700,dash,I,m,453,1,1,35072.10000002384,96104.10000002384,8114,ATS,B,12
1,test,1,A,haborder.png,1,z,Wed May 20 2026 18:20:46 GMT-0500 (Central Daylight Time),149770.70000004768,CFD-BF-051-043-A.jpg,1000,solid,I,z,719,4,1,1749.5,148021.20000004768,8114,ATS,B,1
2,test,1,A,haborder.png,1,m,Wed May 20 2026 18:20:46 GMT-0500 (Central Daylight Time),151986.60000002384,CFD-WF-011-006-HC.jpg,1500,solid,I,m,694,11,1,3965.399999976158,148021.20000004768,8114,ATS,B,2
3,test,1,A,haborder.png,1,m,Wed May 20 2026 18:20:46 GMT-0500 (Central Daylight Time),154185.79999995232,CFD-WM-011-006-HC.jpg,1400,solid,I,m,778,7,1,6164.599999904633,148021.20000004768,8114,ATS,B,3
4,test,1,A,haborder.png,1,m,Wed May 20 2026 18:20:46 GMT-0500 (Central Daylight Time),156718.39999997616,CFD-BM-015-017-HC.jpg,1700,solid,I,m,807,1,1,8697.199999928474,148021.20000004768,8114,ATS,B,4
5,test,1,A,haborder.png,1,z,Wed May 20 2026 18:20:46 GMT-0500 (Central Daylight Time),159134.39999997616,CFD-WM-009-009-A.jpg,1900,solid,I,z,490,8,1,11113.199999928474,148021.20000004768,8114,ATS,B,5
6,test,1,A,haborder.png,1,z,Wed May 20 2026 18:20:46 GMT-0500 (Central Daylight Time),160733.60000002384,CFD-BF-051-043-A.jpg,1000,solid,I,z,582,4,1,12712.399999976158,148021.20000004768,8114,ATS,B,6
7,test,1,A,haborder.png,1,m,Wed May 20 2026 18:20:46 GMT-0500 (Central Daylight Time),163066.5,CFD-BM-015-017-HC.jpg,1700,solid,I,m,611,1,1,15045.299999952316,148021.20000004768,8114,ATS,B,7
8,test,1,A,haborder.png,1,z,Wed May 20 2026 18:20:46 GMT-0500 (Central Daylight Time),165282.39999997616,CFD-WF-026-008-A.jpg,1600,solid,I,z,586,10,1,17261.199999928474,148021.20000004768,8114,ATS,B,8
9,test,1,A,haborder.png,1,z,Wed May 20 2026 18:20:46 GMT-0500 (Central Daylight Time),167648.29999995232,CFD-BM-037-041-A.jpg,1600,solid,I,z,746,2,1,19627.099999904633,148021.20000004768,8114,ATS,B,9
10,test,1,A,haborder.png,1,m,Wed May 20 2026 18:20:46 GMT-0500 (Central Daylight Time),169614.60000002384,CFD-WM-011-006-HC.jpg,1400,solid,I,m,540,7,1,21593.399999976158,148021.20000004768,8114,ATS,B,10
11,test,1,A,haborder.png,1,m,Wed May 20 2026 18:20:46 GMT-0500 (Central Daylight Time),172147.0,CFD-BF-035-007-HC.jpg,2000,solid,I,m,510,5,1,24125.799999952316,148021.20000004768,8114,ATS,B,11
12,test,1,A,haborder.png,1,z,Wed May 20 2026 18:20:46 GMT-0500 (Central Daylight Time),174314.20000004768,CFD-WF-026-008-A.jpg,1600,solid,I,z,544,10,1,26293.0,148021.20000004768,8114,ATS,B,12
13,test,1,A,haborder.png,1,z,Wed May 20 2026 18:20:46 GMT-0500 (Central Daylight Time),177462.0,CFD-WM-009-009-A.jpg,1900,solid,I,z,1223,8,1,29440.799999952316,148021.20000004768,8114,ATS,B,13
14,test,1,A,haborder.png,1,m,Wed May 20 2026 18:20:46 GMT-0500 (Central Daylight Time),179961.10000002384,CFD-WF-011-006-HC.jpg,1500,solid,I,m,970,11,1,31939.899999976158,148021.20000004768,8114,ATS,B,14
15,test,1,A,haborder.png,1,m,Wed May 20 2026 18:20:46 GMT-0500 (Central Daylight Time),182127.20000004768,CFD-BM-020-024-HC.jpg,1500,solid,I,m,640,3,1,34106.0,148021.20000004768,8114,ATS,B,15
16,test,1,A,haborder.png,1,z,Wed May 20 2026 18:20:46 GMT-0500 (Central Daylight Time),183793.10000002384,CFD-WF-013-015-A.jpg,1000,solid,I,z,645,12,1,35771.89999997616,148021.20000004768,8114,ATS,B,16
17,test,1,A,haborder.png,1,m,Wed May 20 2026 18:20:46 GMT-0500 (Central Daylight Time),186042.5,CFD-WM-012-007-HC.jpg,1700,solid,I,m,527,9,1,38021.299999952316,148021.20000004768,8114,ATS,B,17
18,test,1,A,haborder.png,1,z,Wed May 20 2026 18:20:46 GMT-0500 (Central Daylight Time),187726.60000002384,CFD-WF-013-015-A.jpg,1000,solid,I,z,651,12,1,39705.39999997616,148021.20000004768,8114,ATS,B,18
19,test,1,A,haborder.png,1,z,Wed May 20 2026 18:20:46 GMT-0500 (Central Daylight Time),189574.5,CFD-BF-050-012-A.jpg,1200,solid,I,z,631,6,1,41553.299999952316,148021.20000004768,8114,ATS,B,19
20,test,1,A,haborder.png,1,m,Wed May 20 2026 18:20:46 GMT-0500 (Central Daylight Time),192290.39999997616,CFD-BF-035-007-HC.jpg,2000,solid,I,m,694,5,1,44269.199999928474,148021.20000004768,8114,ATS,B,20
21,test,1,A,haborder.png,1,m,Wed May 20 2026 18:20:46 GMT-0500 (Central Daylight Time),194356.60000002384,CFD-BM-020-024-HC.jpg,1500,solid,I,m,533,3,1,46335.39999997616,148021.20000004768,8114,ATS,B,21
22,test,1,A,haborder.png,1,z,Wed May 20 2026 18:20:46 GMT-0500 (Central Daylight Time),196089.20000004768,CFD-BF-050-012-A.jpg,1200,solid,I,z,508,6,1,48068.0,148021.20000004768,8114,ATS,B,22
23,test,1,A,haborder.png,1,m,Wed May 20 2026 18:20:46 GMT-0500 (Central Daylight Time),198438.79999995232,CFD-WM-012-007-HC.jpg,1700,solid,I,m,623,9,1,50417.59999990463,148021.20000004768,8114,ATS,B,23
24,test,1,A,haborder.png,1,z,Wed May 20 2026 18:20:46 GMT-0500 (Central Daylight Time),200922.5,CFD-BM-037-041-A.jpg,1600,solid,I,z,862,2,1,52901.299999952316,148021.20000004768,8114,ATS,B,24
1,test,1,B,mfborder.png,1,m,Wed May 20 2026 18:20:46 GMT-0500 (Central Daylight Time),216316.60000002384,CFD-WM-037-060-A.jpg,1200,dash,I,m,784,6,1,2016.2000000476837,214300.39999997616,8114,ATS,B,1
2,test,1,B,mfborder.png,1,z,Wed May 20 2026 18:20:46 GMT-0500 (Central Daylight Time),217932.39999997616,CFD-BF-051-043-A.jpg,1000,dash,I,z,592,4,1,3632.0,214300.39999997616,8114,ATS,B,2
3,test,1,B,mfborder.png,1,m,Wed May 20 2026 18:20:46 GMT-0500 (Central Daylight Time),220265.20000004768,CFD-BM-020-024-HC.jpg,1700,dash,I,m,612,1,1,5964.800000071526,214300.39999997616,8114,ATS,B,3
4,test,1,B,mfborder.png,1,z,Wed May 20 2026 18:20:46 GMT-0500 (Central Daylight Time),222681.0,CFD-WF-027-007-HC.jpg,1900,dash,I,z,495,8,1,8380.600000023842,214300.39999997616,8114,ATS,B,4
5,test,1,B,mfborder.png,1,z,Wed May 20 2026 18:20:46 GMT-0500 (Central Daylight Time),225097.20000004768,CFD-WF-027-007-HC.jpg,1900,dash,I,z,487,8,1,10796.800000071526,214300.39999997616,8114,ATS,B,5
6,test,1,B,mfborder.png,1,m,Wed May 20 2026 18:20:46 GMT-0500 (Central Daylight Time),227446.20000004768,CFD-WM-012-007-HC.jpg,1600,dash,I,m,725,10,1,13145.800000071526,214300.39999997616,8114,ATS,B,6
7,test,1,B,mfborder.png,1,m,Wed May 20 2026 18:20:46 GMT-0500 (Central Daylight Time),229995.39999997616,CFD-BM-037-041-A.jpg,2000,dash,I,m,526,5,1,15695.0,214300.39999997616,8114,ATS,B,7
8,test,1,B,mfborder.png,1,z,Wed May 20 2026 18:20:46 GMT-0500 (Central Daylight Time),231578.20000004768,CFD-BF-051-043-A.jpg,1000,dash,I,z,553,4,1,17277.800000071526,214300.39999997616,8114,ATS,B,8
9,test,1,B,mfborder.png,1,m,Wed May 20 2026 18:20:46 GMT-0500 (Central Daylight Time),233811.10000002384,CFD-WM-012-007-HC.jpg,1600,dash,I,m,602,10,1,19510.700000047684,214300.39999997616,8114,ATS,B,9
10,test,1,B,mfborder.png,1,m,Wed May 20 2026 18:20:46 GMT-0500 (Central Daylight Time),236276.79999995232,CFD-BM-041-048-A.jpg,1600,dash,I,m,833,2,1,21976.399999976158,214300.39999997616,8114,ATS,B,10
11,test,1,B,mfborder.png,1,z,Wed May 20 2026 18:20:46 GMT-0500 (Central Daylight Time),238509.29999995232,CFD-BF-027-013-HC.jpg,1500,dash,I,z,715,3,1,24208.899999976158,214300.39999997616,8114,ATS,B,11
12,test,1,B,mfborder.png,1,m,Wed May 20 2026 18:20:46 GMT-0500 (Central Daylight Time),241008.79999995232,CFD-BM-037-041-A.jpg,2000,dash,I,m,478,5,1,26708.399999976158,214300.39999997616,8114,ATS,B,12
13,test,1,B,mfborder.png,1,m,Wed May 20 2026 18:20:46 GMT-0500 (Central Daylight Time),243407.79999995232,CFD-WM-009-009-A.jpg,1700,dash,I,m,670,9,1,29107.399999976158,214300.39999997616,8114,ATS,B,13
14,test,1,B,mfborder.png,1,z,Wed May 20 2026 18:20:46 GMT-0500 (Central Daylight Time),245457.20000004768,CFD-WF-026-008-A.jpg,1500,dash,I,z,521,11,1,31156.800000071526,214300.39999997616,8114,ATS,B,14
15,test,1,B,mfborder.png,1,m,Wed May 20 2026 18:20:46 GMT-0500 (Central Daylight Time),247590.0,CFD-BM-041-048-A.jpg,1600,dash,I,m,507,2,1,33289.60000002384,214300.39999997616,8114,ATS,B,15
16,test,1,B,mfborder.png,1,z,Wed May 20 2026 18:20:46 GMT-0500 (Central Daylight Time),249672.60000002384,CFD-BF-027-013-HC.jpg,1500,dash,I,z,554,3,1,35372.200000047684,214300.39999997616,8114,ATS,B,16
17,test,1,B,mfborder.png,1,z,Wed May 20 2026 18:20:46 GMT-0500 (Central Daylight Time),251688.70000004768,CFD-BF-035-007-HC.jpg,1400,dash,I,z,588,7,1,37388.300000071526,214300.39999997616,8114,ATS,B,17
18,test,1,B,mfborder.png,1,m,Wed May 20 2026 18:20:46 GMT-0500 (Central Daylight Time),253954.60000002384,CFD-WM-009-009-A.jpg,1700,dash,I,m,544,9,1,39654.200000047684,214300.39999997616,8114,ATS,B,18
19,test,1,B,mfborder.png,1,m,Wed May 20 2026 18:20:46 GMT-0500 (Central Daylight Time),256187.29999995232,CFD-BM-020-024-HC.jpg,1700,dash,I,m,509,1,1,41886.89999997616,214300.39999997616,8114,ATS,B,19
20,test,1,B,mfborder.png,1,m,Wed May 20 2026 18:20:46 GMT-0500 (Central Daylight Time),257969.89999997616,CFD-WM-037-060-A.jpg,1200,dash,I,m,553,6,1,43669.5,214300.39999997616,8114,ATS,B,20
21,test,1,B,mfborder.png,1,z,Wed May 20 2026 18:20:46 GMT-0500 (Central Daylight Time),260002.60000002384,CFD-WF-026-008-A.jpg,1500,dash,I,z,511,11,1,45702.200000047684,214300.39999997616,8114,ATS,B,21
22,test,1,B,mfborder.png,1,z,Wed May 20 2026 18:20:46 GMT-0500 (Central Daylight Time),261752.20000004768,CFD-WF-011-006-HC.jpg,1000,dash,I,z,730,12,1,47451.800000071526,214300.39999997616,8114,ATS,B,22
23,test,1,B,mfborder.png,1,z,Wed May 20 2026 18:20:46 GMT-0500 (Central Daylight Time),263701.39999997616,CFD-BF-035-007-HC.jpg,1400,dash,I,z,524,7,1,49401.0,214300.39999997616,8114,ATS,B,23
24,test,1,B,mfborder.png,1,z,Wed May 20 2026 18:20:46 GMT-0500 (Central Daylight Time),265251.0,CFD-WF-011-006-HC.jpg,1000,dash,I,z,527,12,1,50950.60000002384,214300.39999997616,8114,ATS,B,24
1,8,1,C,haborder.png,1,z,Wed May 20 2026 18:20:46 GMT-0500 (Central Daylight Time),296724.7999999523,CFD-BF-050-012-A.jpg,1700,solid,I,z,1073,prac,1,3565.899999976158,293158.89999997616,8114,ATS,B,1
2,4,1,C,mfborder.png,1,m,Wed May 20 2026 18:20:46 GMT-0500 (Central Daylight Time),300606.7999999523,CFD-BM-015-017-HC.jpg,2000,solid,I,m,1096,prac,1,7447.899999976158,293158.89999997616,8114,ATS,B,2
2,2,1,C,mfborder.png,0,z,Wed May 20 2026 18:20:46 GMT-0500 (Central Daylight Time),304405.2999999523,CFD-WF-013-015-A.jpg,1500,solid,I,None,1517,prac,1,11246.399999976158,293158.89999997616,8114,ATS,B,3
3,5,1,C,mfborder.png,1,m,Wed May 20 2026 18:20:46 GMT-0500 (Central Daylight Time),307871.0,CFD-BM-037-041-A.jpg,1200,dash,I,m,1471,prac,1,14712.100000023842,293158.89999997616,8114,ATS,B,4
4,1,1,C,mfborder.png,1,z,Wed May 20 2026 18:20:46 GMT-0500 (Central Daylight Time),311070.2999999523,CFD-WF-011-006-HC.jpg,1600,dash,I,z,806,prac,1,17911.399999976158,293158.89999997616,8114,ATS,B,5
5,7,1,C,haborder.png,1,z,Wed May 20 2026 18:20:46 GMT-0500 (Central Daylight Time),314569.10000002384,CFD-BF-051-043-A.jpg,1900,dash,I,z,802,prac,1,21410.200000047684,293158.89999997616,8114,ATS,B,6
6,9,1,C,haborder.png,1,z,Wed May 20 2026 18:20:46 GMT-0500 (Central Daylight Time),318001.2000000477,CFD-WF-026-008-A.jpg,1600,dash,I,z,1036,prac,1,24842.300000071526,293158.89999997616,8114,ATS,B,7
6,3,1,C,mfborder.png,0,z,Wed May 20 2026 18:20:46 GMT-0500 (Central Daylight Time),320650.39999997616,CFD-BF-035-007-HC.jpg,1000,dash,I,m,850,prac,1,27491.5,293158.89999997616,8114,ATS,B,8
7,11,1,C,haborder.png,1,m,Wed May 20 2026 18:20:46 GMT-0500 (Central Daylight Time),323149.7000000477,CFD-WM-011-006-HC.jpg,1000,dash,I,m,705,prac,1,29990.800000071526,293158.89999997616,8114,ATS,B,9
7,6,1,C,mfborder.png,0,m,Wed May 20 2026 18:20:46 GMT-0500 (Central Daylight Time),326598.5,CFD-WM-009-009-A.jpg,1700,solid,I,z,955,prac,1,33439.60000002384,293158.89999997616,8114,ATS,B,10
8,12,1,C,haborder.png,1,m,Wed May 20 2026 18:20:46 GMT-0500 (Central Daylight Time),329964.0,CFD-WM-011-006-HC.jpg,1400,solid,I,m,1167,prac,1,36805.10000002384,293158.89999997616,8114,ATS,B,11
9,10,1,C,haborder.png,1,m,Wed May 20 2026 18:20:46 GMT-0500 (Central Daylight Time),333213.2000000477,CFD-BM-020-024-HC.jpg,1500,solid,I,m,964,prac,1,40054.300000071526,293158.89999997616,8114,ATS,B,12
0,test,1,C,mfborder.png,0,m,Wed May 20 2026 18:20:46 GMT-0500 (Central Daylight Time),352241.0,CFD-WM-012-007-HC.jpg,1000,dash,I,None,1516,4,1,2533.100000023842,349707.89999997616,8114,ATS,B,1
1,test,1,C,mfborder.png,1,z,Wed May 20 2026 18:20:46 GMT-0500 (Central Daylight Time),355056.0,CFD-BF-027-013-HC.jpg,1700,dash,I,z,1088,1,1,5348.100000023842,349707.89999997616,8114,ATS,B,2
2,test,1,C,mfborder.png,1,m,Wed May 20 2026 18:20:46 GMT-0500 (Central Daylight Time),357788.7000000477,CFD-WM-037-060-A.jpg,2000,dash,I,m,701,5,1,8080.800000071526,349707.89999997616,8114,ATS,B,3
3,test,1,C,haborder.png,1,z,Wed May 20 2026 18:20:46 GMT-0500 (Central Daylight Time),360512.10000002384,CFD-BM-041-048-A.jpg,1700,solid,I,z,1007,9,1,10804.200000047684,349707.89999997616,8114,ATS,B,4
4,test,1,C,mfborder.png,1,m,Wed May 20 2026 18:20:46 GMT-0500 (Central Daylight Time),363003.7000000477,CFD-BM-020-024-HC.jpg,1200,dash,I,m,1276,6,1,13295.800000071526,349707.89999997616,8114,ATS,B,5
5,test,1,C,mfborder.png,1,z,Wed May 20 2026 18:20:46 GMT-0500 (Central Daylight Time),365386.2999999523,CFD-BF-051-043-A.jpg,1600,dash,I,z,761,2,1,15678.399999976158,349707.89999997616,8114,ATS,B,6
6,test,1,C,haborder.png,1,m,Wed May 20 2026 18:20:46 GMT-0500 (Central Daylight Time),368035.5,CFD-WF-027-007-HC.jpg,1500,solid,I,m,1118,11,1,18327.600000023842,349707.89999997616,8114,ATS,B,7
6,test,1,C,mfborder.png,0,m,Wed May 20 2026 18:20:46 GMT-0500 (Central Daylight Time),370568.10000002384,CFD-WM-012-007-HC.jpg,1000,dash,I,None,1516,4,1,20860.200000047684,349707.89999997616,8114,ATS,B,8
7,test,1,C,haborder.png,1,z,Wed May 20 2026 18:20:46 GMT-0500 (Central Daylight Time),373033.7999999523,CFD-WM-009-009-A.jpg,1400,solid,I,z,1044,7,1,23325.899999976158,349707.89999997616,8114,ATS,B,9
8,test,1,C,haborder.png,1,m,Wed May 20 2026 18:20:46 GMT-0500 (Central Daylight Time),374900.2000000477,CFD-WF-011-006-HC.jpg,1000,solid,I,m,842,12,1,25192.300000071526,349707.89999997616,8114,ATS,B,10
9,test,1,C,mfborder.png,1,z,Wed May 20 2026 18:20:46 GMT-0500 (Central Daylight Time),377549.2000000477,CFD-WF-026-008-A.jpg,1500,dash,I,z,1124,3,1,27841.300000071526,349707.89999997616,8114,ATS,B,11
10,test,1,C,haborder.png,1,z,Wed May 20 2026 18:20:46 GMT-0500 (Central Daylight Time),380065.0,CFD-WM-009-009-A.jpg,1400,solid,I,z,1087,7,1,30357.100000023842,349707.89999997616,8114,ATS,B,12
11,test,1,C,haborder.png,1,z,Wed May 20 2026 18:20:46 GMT-0500 (Central Daylight Time),383047.2999999523,CFD-BM-037-041-A.jpg,1900,solid,I,z,1054,8,1,33339.39999997616,349707.89999997616,8114,ATS,B,13
11,test,1,C,haborder.png,0,m,Wed May 20 2026 18:20:46 GMT-0500 (Central Daylight Time),385563.60000002384,CFD-WF-011-006-HC.jpg,1000,solid,I,None,1507,12,1,35855.700000047684,349707.89999997616,8114,ATS,B,14
12,test,1,C,mfborder.png,1,z,Wed May 20 2026 18:20:46 GMT-0500 (Central Daylight Time),388095.89999997616,CFD-BF-051-043-A.jpg,1600,dash,I,z,913,2,1,38388.0,349707.89999997616,8114,ATS,B,15
13,test,1,C,mfborder.png,1,m,Wed May 20 2026 18:20:46 GMT-0500 (Central Daylight Time),390845.0,CFD-WM-037-060-A.jpg,2000,dash,I,m,725,5,1,41137.10000002384,349707.89999997616,8114,ATS,B,16
14,test,1,C,haborder.png,1,z,Wed May 20 2026 18:20:46 GMT-0500 (Central Daylight Time),393677.39999997616,CFD-BM-037-041-A.jpg,1900,solid,I,z,916,8,1,43969.5,349707.89999997616,8114,ATS,B,17
15,test,1,C,haborder.png,1,z,Wed May 20 2026 18:20:46 GMT-0500 (Central Daylight Time),396176.60000002384,CFD-BM-041-048-A.jpg,1700,solid,I,z,779,9,1,46468.700000047684,349707.89999997616,8114,ATS,B,18
16,test,1,C,mfborder.png,1,z,Wed May 20 2026 18:20:46 GMT-0500 (Central Daylight Time),398959.0,CFD-WF-026-008-A.jpg,1500,dash,I,z,1264,3,1,49251.10000002384,349707.89999997616,8114,ATS,B,19
17,test,1,C,haborder.png,1,m,Wed May 20 2026 18:20:46 GMT-0500 (Central Daylight Time),401441.7999999523,CFD-BF-035-007-HC.jpg,1600,solid,I,m,862,10,1,51733.89999997616,349707.89999997616,8114,ATS,B,20
18,test,1,C,haborder.png,1,m,Wed May 20 2026 18:20:46 GMT-0500 (Central Daylight Time),403741.10000002384,CFD-WF-027-007-HC.jpg,1500,solid,I,m,767,11,1,54033.200000047684,349707.89999997616,8114,ATS,B,21
19,test,1,C,mfborder.png,1,m,Wed May 20 2026 18:20:46 GMT-0500 (Central Daylight Time),405957.10000002384,CFD-BM-020-024-HC.jpg,1200,dash,I,m,984,6,1,56249.200000047684,349707.89999997616,8114,ATS,B,22
20,test,1,C,mfborder.png,1,z,Wed May 20 2026 18:20:46 GMT-0500 (Central Daylight Time),408506.2999999523,CFD-BF-027-013-HC.jpg,1700,dash,I,z,817,1,1,58798.39999997616,349707.89999997616,8114,ATS,B,23
21,test,1,C,haborder.png,1,m,Wed May 20 2026 18:20:46 GMT-0500 (Central Daylight Time),411222.0,CFD-BF-035-007-HC.jpg,1600,solid,I,m,1091,10,1,61514.10000002384,349707.89999997616,8114,ATS,B,24
1,test,2,C,mfborder.png,1,z,Wed May 20 2026 18:20:46 GMT-0500 (Central Daylight Time),416803.2999999523,CFD-BF-035-007-HC.jpg,1500,dash,I,z,1275,3,1,2798.5999999046326,414004.7000000477,8114,ATS,B,1
2,test,2,C,mfborder.png,1,m,Wed May 20 2026 18:20:46 GMT-0500 (Central Daylight Time),419485.89999997616,CFD-BM-037-041-A.jpg,2000,dash,I,m,657,5,1,5481.199999928474,414004.7000000477,8114,ATS,B,2
3,test,2,C,haborder.png,1,z,Wed May 20 2026 18:20:46 GMT-0500 (Central Daylight Time),421985.2000000477,CFD-WF-026-008-A.jpg,1700,solid,I,z,779,9,1,7980.5,414004.7000000477,8114,ATS,B,3
4,test,2,C,haborder.png,1,z,Wed May 20 2026 18:20:46 GMT-0500 (Central Daylight Time),424901.10000002384,CFD-BF-050-012-A.jpg,1900,solid,I,z,991,8,1,10896.399999976158,414004.7000000477,8114,ATS,B,4
5,test,2,C,haborder.png,1,z,Wed May 20 2026 18:20:46 GMT-0500 (Central Daylight Time),427533.2999999523,CFD-BF-050-012-A.jpg,1900,solid,I,z,708,8,1,13528.599999904633,414004.7000000477,8114,ATS,B,5
6,test,2,C,mfborder.png,1,z,Wed May 20 2026 18:20:46 GMT-0500 (Central Daylight Time),430299.2999999523,CFD-WF-011-006-HC.jpg,1700,dash,I,z,1043,1,1,16294.599999904633,414004.7000000477,8114,ATS,B,6
7,test,2,C,mfborder.png,1,z,Wed May 20 2026 18:20:46 GMT-0500 (Central Daylight Time),432748.60000002384,CFD-WF-011-006-HC.jpg,1700,dash,I,z,725,1,1,18743.899999976158,414004.7000000477,8114,ATS,B,7
8,test,2,C,haborder.png,1,z,Wed May 20 2026 18:20:46 GMT-0500 (Central Daylight Time),435897.39999997616,CFD-WF-026-008-A.jpg,1700,solid,I,z,1420,9,1,21892.699999928474,414004.7000000477,8114,ATS,B,8
9,test,2,C,mfborder.png,1,m,Wed May 20 2026 18:20:46 GMT-0500 (Central Daylight Time),439246.2000000477,CFD-BM-037-041-A.jpg,2000,dash,I,m,1331,5,1,25241.5,414004.7000000477,8114,ATS,B,9
10,test,2,C,mfborder.png,1,m,Wed May 20 2026 18:20:46 GMT-0500 (Central Daylight Time),441179.0,CFD-BM-015-017-HC.jpg,1000,dash,I,m,901,4,1,27174.299999952316,414004.7000000477,8114,ATS,B,10
11,test,2,C,haborder.png,1,m,Wed May 20 2026 18:20:46 GMT-0500 (Central Daylight Time),442912.0,CFD-WM-011-006-HC.jpg,1000,solid,I,m,705,12,1,28907.299999952316,414004.7000000477,8114,ATS,B,11
12,test,2,C,haborder.png,1,m,Wed May 20 2026 18:20:46 GMT-0500 (Central Daylight Time),445211.2000000477,CFD-WM-011-006-HC.jpg,1500,solid,I,m,767,11,1,31206.5,414004.7000000477,8114,ATS,B,12
13,test,2,C,haborder.png,1,z,Wed May 20 2026 18:20:46 GMT-0500 (Central Daylight Time),447510.2000000477,CFD-BF-051-043-A.jpg,1400,solid,I,z,881,7,1,33505.5,414004.7000000477,8114,ATS,B,13
14,test,2,C,mfborder.png,1,z,Wed May 20 2026 18:20:46 GMT-0500 (Central Daylight Time),450442.89999997616,CFD-WF-013-015-A.jpg,1600,dash,I,z,1302,2,1,36438.199999928474,414004.7000000477,8114,ATS,B,14
15,test,2,C,haborder.png,1,m,Wed May 20 2026 18:20:46 GMT-0500 (Central Daylight Time),453241.89999997616,CFD-BM-020-024-HC.jpg,1600,solid,I,m,1177,10,1,39237.199999928474,414004.7000000477,8114,ATS,B,15
16,test,2,C,haborder.png,1,m,Wed May 20 2026 18:20:46 GMT-0500 (Central Daylight Time),455041.7000000477,CFD-WM-011-006-HC.jpg,1000,solid,I,m,778,12,1,41037.0,414004.7000000477,8114,ATS,B,16
17,test,2,C,mfborder.png,1,z,Wed May 20 2026 18:20:46 GMT-0500 (Central Daylight Time),457724.10000002384,CFD-WF-013-015-A.jpg,1600,dash,I,z,1051,2,1,43719.39999997616,414004.7000000477,8114,ATS,B,17
17,test,2,C,haborder.png,0,z,Wed May 20 2026 18:20:46 GMT-0500 (Central Daylight Time),460540.2999999523,CFD-BF-051-043-A.jpg,1400,solid,I,m,1392,7,1,46535.59999990463,414004.7000000477,8114,ATS,B,18
18,test,2,C,haborder.png,1,m,Wed May 20 2026 18:20:46 GMT-0500 (Central Daylight Time),463238.7000000477,CFD-WM-011-006-HC.jpg,1500,solid,I,m,1181,11,1,49234.0,414004.7000000477,8114,ATS,B,19
19,test,2,C,mfborder.png,1,m,Wed May 20 2026 18:20:46 GMT-0500 (Central Daylight Time),465638.2000000477,CFD-BM-015-017-HC.jpg,1000,dash,I,m,1374,4,1,51633.5,414004.7000000477,8114,ATS,B,20
20,test,2,C,mfborder.png,1,m,Wed May 20 2026 18:20:46 GMT-0500 (Central Daylight Time),467954.2999999523,CFD-WM-009-009-A.jpg,1200,dash,I,m,1086,6,1,53949.59999990463,414004.7000000477,8114,ATS,B,21
21,test,2,C,haborder.png,1,m,Wed May 20 2026 18:20:46 GMT-0500 (Central Daylight Time),470419.7000000477,CFD-BM-020-024-HC.jpg,1600,solid,I,m,841,10,1,56415.0,414004.7000000477,8114,ATS,B,22
22,test,2,C,mfborder.png,1,z,Wed May 20 2026 18:20:46 GMT-0500 (Central Daylight Time),473402.39999997616,CFD-BF-035-007-HC.jpg,1500,dash,I,z,1460,3,1,59397.699999928474,414004.7000000477,8114,ATS,B,23
22,test,2,C,mfborder.png,0,m,Wed May 20 2026 18:20:46 GMT-0500 (Central Daylight Time),476135.2999999523,CFD-WM-009-009-A.jpg,1200,dash,I,None,1516,6,1,62130.59999990463,414004.7000000477,8114,ATS,B,24
1,test,3,C,haborder.png,1,m,Wed May 20 2026 18:20:46 GMT-0500 (Central Daylight Time),481799.7000000477,CFD-WF-011-006-HC.jpg,1000,solid,I,m,1455,12,1,2482.100000023842,479317.60000002384,8114,ATS,B,1
2,test,3,C,mfborder.png,1,z,Wed May 20 2026 18:20:46 GMT-0500 (Central Daylight Time),484265.89999997616,CFD-BF-051-043-A.jpg,1600,dash,I,z,837,2,1,4948.299999952316,479317.60000002384,8114,ATS,B,2
2,test,3,C,haborder.png,0,z,Wed May 20 2026 18:20:46 GMT-0500 (Central Daylight Time),486998.10000002384,CFD-WM-009-009-A.jpg,1400,solid,I,m,1307,7,1,7680.5,479317.60000002384,8114,ATS,B,3
3,test,3,C,haborder.png,1,m,Wed May 20 2026 18:20:46 GMT-0500 (Central Daylight Time),489597.39999997616,CFD-BF-035-007-HC.jpg,1600,solid,I,m,974,10,1,10279.799999952316,479317.60000002384,8114,ATS,B,4
4,test,3,C,mfborder.png,1,z,Wed May 20 2026 18:20:46 GMT-0500 (Central Daylight Time),492129.89999997616,CFD-WF-026-008-A.jpg,1500,dash,I,z,1011,3,1,12812.299999952316,479317.60000002384,8114,ATS,B,5
5,test,3,C,mfborder.png,1,m,Wed May 20 2026 18:20:46 GMT-0500 (Central Daylight Time),495362.39999997616,CFD-WM-037-060-A.jpg,2000,dash,I,m,1211,5,1,16044.799999952316,479317.60000002384,8114,ATS,B,6
6,test,3,C,mfborder.png,1,z,Wed May 20 2026 18:20:46 GMT-0500 (Central Daylight Time),497594.7999999523,CFD-WF-026-008-A.jpg,1500,dash,I,z,702,3,1,18277.199999928474,479317.60000002384,8114,ATS,B,7
7,test,3,C,haborder.png,1,z,Wed May 20 2026 18:20:46 GMT-0500 (Central Daylight Time),500494.0,CFD-BM-037-041-A.jpg,1900,solid,I,z,975,8,1,21176.399999976158,479317.60000002384,8114,ATS,B,8
8,test,3,C,haborder.png,1,z,Wed May 20 2026 18:20:46 GMT-0500 (Central Daylight Time),502726.60000002384,CFD-WM-009-009-A.jpg,1400,solid,I,z,812,7,1,23409.0,479317.60000002384,8114,ATS,B,9
9,test,3,C,haborder.png,1,z,Wed May 20 2026 18:20:46 GMT-0500 (Central Daylight Time),505375.89999997616,CFD-BM-037-041-A.jpg,1900,solid,I,z,722,8,1,26058.299999952316,479317.60000002384,8114,ATS,B,10
10,test,3,C,haborder.png,1,z,Wed May 20 2026 18:20:46 GMT-0500 (Central Daylight Time),507908.10000002384,CFD-BM-041-048-A.jpg,1700,solid,I,z,809,9,1,28590.5,479317.60000002384,8114,ATS,B,11
11,test,3,C,mfborder.png,1,z,Wed May 20 2026 18:20:46 GMT-0500 (Central Daylight Time),510740.7999999523,CFD-BF-027-013-HC.jpg,1700,dash,I,z,1100,1,1,31423.199999928474,479317.60000002384,8114,ATS,B,12
11,test,3,C,mfborder.png,0,m,Wed May 20 2026 18:20:46 GMT-0500 (Central Daylight Time),513173.2999999523,CFD-BM-020-024-HC.jpg,1200,dash,I,z,1208,6,1,33855.699999928474,479317.60000002384,8114,ATS,B,13
12,test,3,C,haborder.png,1,m,Wed May 20 2026 18:20:46 GMT-0500 (Central Daylight Time),516022.5,CFD-WF-027-007-HC.jpg,1500,solid,I,m,1323,11,1,36704.89999997616,479317.60000002384,8114,ATS,B,14
13,test,3,C,mfborder.png,1,z,Wed May 20 2026 18:20:46 GMT-0500 (Central Daylight Time),518405.0,CFD-BF-051-043-A.jpg,1600,dash,I,z,750,2,1,39087.39999997616,479317.60000002384,8114,ATS,B,15
14,test,3,C,mfborder.png,1,m,Wed May 20 2026 18:20:46 GMT-0500 (Central Daylight Time),520154.60000002384,CFD-WM-012-007-HC.jpg,1000,dash,I,m,726,4,1,40837.0,479317.60000002384,8114,ATS,B,16
15,test,3,C,mfborder.png,1,m,Wed May 20 2026 18:20:46 GMT-0500 (Central Daylight Time),523236.7999999523,CFD-WM-037-060-A.jpg,2000,dash,I,m,1050,5,1,43919.199999928474,479317.60000002384,8114,ATS,B,17
16,test,3,C,haborder.png,1,m,Wed May 20 2026 18:20:46 GMT-0500 (Central Daylight Time),525536.2000000477,CFD-WF-027-007-HC.jpg,1500,solid,I,m,780,11,1,46218.60000002384,479317.60000002384,8114,ATS,B,18
17,test,3,C,haborder.png,1,z,Wed May 20 2026 18:20:46 GMT-0500 (Central Daylight Time),528485.2000000477,CFD-BM-041-048-A.jpg,1700,solid,I,z,1224,9,1,49167.60000002384,479317.60000002384,8114,ATS,B,19
18,test,3,C,haborder.png,1,m,Wed May 20 2026 18:20:46 GMT-0500 (Central Daylight Time),530334.3999999762,CFD-WF-011-006-HC.jpg,1000,solid,I,m,831,12,1,51016.799999952316,479317.60000002384,8114,ATS,B,20
19,test,3,C,mfborder.png,1,z,Wed May 20 2026 18:20:46 GMT-0500 (Central Daylight Time),532883.8999999762,CFD-BF-027-013-HC.jpg,1700,dash,I,z,826,1,1,53566.299999952316,479317.60000002384,8114,ATS,B,21
20,test,3,C,mfborder.png,1,m,Wed May 20 2026 18:20:46 GMT-0500 (Central Daylight Time),534700.1000000238,CFD-WM-012-007-HC.jpg,1000,dash,I,m,784,4,1,55382.5,479317.60000002384,8114,ATS,B,22
21,test,3,C,haborder.png,1,m,Wed May 20 2026 18:20:46 GMT-0500 (Central Daylight Time),537215.5,CFD-BF-035-007-HC.jpg,1600,solid,I,m,888,10,1,57897.89999997616,479317.60000002384,8114,ATS,B,23
22,test,3,C,mfborder.png,1,m,Wed May 20 2026 18:20:46 GMT-0500 (Central Daylight Time),539748.2000000477,CFD-BM-020-024-HC.jpg,1200,dash,I,m,1309,6,1,60430.60000002384,479317.60000002384,8114,ATS,B,24
0,test,4,C,haborder.png,0,z,Wed May 20 2026 18:20:46 GMT-0500 (Central Daylight Time),545046.7000000477,CFD-WF-026-008-A.jpg,1700,solid,I,m,1190,9,1,2915.8000000715256,542130.8999999762,8114,ATS,B,1
1,test,4,C,haborder.png,1,z,Wed May 20 2026 18:20:46 GMT-0500 (Central Daylight Time),547429.3999999762,CFD-BF-051-043-A.jpg,1400,solid,I,z,966,7,1,5298.5,542130.8999999762,8114,ATS,B,2
2,test,4,C,haborder.png,1,m,Wed May 20 2026 18:20:46 GMT-0500 (Central Daylight Time),549945.1000000238,CFD-BM-020-024-HC.jpg,1600,solid,I,m,900,10,1,7814.200000047684,542130.8999999762,8114,ATS,B,3
3,test,4,C,mfborder.png,1,z,Wed May 20 2026 18:20:46 GMT-0500 (Central Daylight Time),552228.0,CFD-BF-035-007-HC.jpg,1500,dash,I,z,759,3,1,10097.100000023842,542130.8999999762,8114,ATS,B,4
4,test,4,C,haborder.png,1,m,Wed May 20 2026 18:20:46 GMT-0500 (Central Daylight Time),554677.0,CFD-BM-020-024-HC.jpg,1600,solid,I,m,817,10,1,12546.100000023842,542130.8999999762,8114,ATS,B,5
5,test,4,C,haborder.png,1,z,Wed May 20 2026 18:20:46 GMT-0500 (Central Daylight Time),557359.2999999523,CFD-BF-050-012-A.jpg,1900,solid,I,z,757,8,1,15228.399999976158,542130.8999999762,8114,ATS,B,6
6,test,4,C,mfborder.png,1,z,Wed May 20 2026 18:20:46 GMT-0500 (Central Daylight Time),559692.1000000238,CFD-BF-035-007-HC.jpg,1500,dash,I,z,800,3,1,17561.200000047684,542130.8999999762,8114,ATS,B,7
7,test,4,C,mfborder.png,1,m,Wed May 20 2026 18:20:46 GMT-0500 (Central Daylight Time),561508.0,CFD-WM-009-009-A.jpg,1200,dash,I,m,583,6,1,19377.100000023842,542130.8999999762,8114,ATS,B,8
8,test,4,C,mfborder.png,1,m,Wed May 20 2026 18:20:46 GMT-0500 (Central Daylight Time),563190.7999999523,CFD-BM-015-017-HC.jpg,1000,dash,I,m,656,4,1,21059.899999976158,542130.8999999762,8114,ATS,B,9
9,test,4,C,haborder.png,1,m,Wed May 20 2026 18:20:46 GMT-0500 (Central Daylight Time),565490.2000000477,CFD-WM-011-006-HC.jpg,1500,solid,I,m,769,11,1,23359.300000071526,542130.8999999762,8114,ATS,B,10
10,test,4,C,haborder.png,1,m,Wed May 20 2026 18:20:46 GMT-0500 (Central Daylight Time),567806.2999999523,CFD-WM-011-006-HC.jpg,1500,solid,I,m,790,11,1,25675.399999976158,542130.8999999762,8114,ATS,B,11
10,test,4,C,mfborder.png,0,z,Wed May 20 2026 18:20:46 GMT-0500 (Central Daylight Time),570472.1000000238,CFD-WF-011-006-HC.jpg,1700,dash,I,m,938,1,1,28341.200000047684,542130.8999999762,8114,ATS,B,12
11,test,4,C,haborder.png,1,m,Wed May 20 2026 18:20:46 GMT-0500 (Central Daylight Time),572238.0,CFD-WM-011-006-HC.jpg,1000,solid,I,m,740,12,1,30107.100000023842,542130.8999999762,8114,ATS,B,13
12,test,4,C,mfborder.png,1,z,Wed May 20 2026 18:20:46 GMT-0500 (Central Daylight Time),574937.2000000477,CFD-WF-013-015-A.jpg,1600,dash,I,z,1078,2,1,32806.300000071526,542130.8999999762,8114,ATS,B,14
13,test,4,C,mfborder.png,1,m,Wed May 20 2026 18:20:46 GMT-0500 (Central Daylight Time),577686.3999999762,CFD-BM-037-041-A.jpg,2000,dash,I,m,723,5,1,35555.5,542130.8999999762,8114,ATS,B,15
14,test,4,C,mfborder.png,1,m,Wed May 20 2026 18:20:46 GMT-0500 (Central Daylight Time),579602.6000000238,CFD-WM-009-009-A.jpg,1200,dash,I,m,695,6,1,37471.700000047684,542130.8999999762,8114,ATS,B,16
14,test,4,C,mfborder.png,0,z,Wed May 20 2026 18:20:46 GMT-0500 (Central Daylight Time),581951.8999999762,CFD-WF-013-015-A.jpg,1600,dash,I,m,722,2,1,39821.0,542130.8999999762,8114,ATS,B,17
14,test,4,C,mfborder.png,0,z,Wed May 20 2026 18:20:46 GMT-0500 (Central Daylight Time),585184.2000000477,CFD-WF-011-006-HC.jpg,1700,dash,I,None,1516,1,1,43053.300000071526,542130.8999999762,8114,ATS,B,18
15,test,4,C,mfborder.png,1,m,Wed May 20 2026 18:20:46 GMT-0500 (Central Daylight Time),588382.7999999523,CFD-BM-037-041-A.jpg,2000,dash,I,m,1181,5,1,46251.89999997616,542130.8999999762,8114,ATS,B,19
16,test,4,C,haborder.png,1,m,Wed May 20 2026 18:20:46 GMT-0500 (Central Daylight Time),590399.2000000477,CFD-WM-011-006-HC.jpg,1000,solid,I,m,989,12,1,48268.300000071526,542130.8999999762,8114,ATS,B,20
17,test,4,C,haborder.png,1,z,Wed May 20 2026 18:20:46 GMT-0500 (Central Daylight Time),592948.2999999523,CFD-BF-051-043-A.jpg,1400,solid,I,z,1125,7,1,50817.39999997616,542130.8999999762,8114,ATS,B,21
18,test,4,C,haborder.png,1,z,Wed May 20 2026 18:20:46 GMT-0500 (Central Daylight Time),595714.3999999762,CFD-BF-050-012-A.jpg,1900,solid,I,z,835,8,1,53583.5,542130.8999999762,8114,ATS,B,22
19,test,4,C,haborder.png,1,z,Wed May 20 2026 18:20:46 GMT-0500 (Central Daylight Time),598279.8999999762,CFD-WF-026-008-A.jpg,1700,solid,I,z,847,9,1,56149.0,542130.8999999762,8114,ATS,B,23
20,test,4,C,mfborder.png,1,m,Wed May 20 2026 18:20:46 GMT-0500 (Central Daylight Time),600312.7999999523,CFD-BM-015-017-HC.jpg,1000,dash,I,m,1004,4,1,58181.89999997616,542130.8999999762,8114,ATS,B,24
