acc_sum,block,block_c,condition,correct,correct_response,datetime,endtime,flanker,jitter,project,response,response_test_buffer_response,response_test_target_response,response_time,response_time_test_buffer_response,response_time_test_target_response,row_sel,session_number,start_end,starttime,subject_id,target,task,task_vers,time_test_buffer,time_test_buffer_response,time_test_constants,time_test_flanker,time_test_jitter,time_test_logger,time_test_target,time_test_target_response,time_test_variables,trial
0,prac,1,inc,0,m,Tue Mar 03 2026 10:45:26 GMT-0600 (Central Standard Time),171400.89999997616,kind,900,O,z,,,848,,,2,1,3045.0,168355.89999997616,7762,rock,AF,A,,,,,,,,,,1
0,prac,1,con,0,m,Tue Mar 03 2026 10:45:26 GMT-0600 (Central Standard Time),176465.60000002384,bell,1000,O,None,,,1800,,,3,1,5059.600000023842,171406.0,7762,bell,AF,A,,,,,,,,,,2
1,prac,1,con,1,z,Tue Mar 03 2026 10:45:26 GMT-0600 (Central Standard Time),180298.0,rage,1000,O,z,,,1530,,,15,1,3827.899999976158,176470.10000002384,7762,rage,AF,A,,,,,,,,,,3
2,prac,1,inc,1,z,Tue Mar 03 2026 10:45:26 GMT-0600 (Central Standard Time),183496.89999997616,film,900,O,z,,,990,,,14,1,3194.5999999046326,180302.30000007153,7762,hate,AF,A,,,,,,,,,,4
3,prac,1,con,1,z,Tue Mar 03 2026 10:45:26 GMT-0600 (Central Standard Time),186479.5,love,1000,O,z,,,675,,,11,1,2977.600000023842,183501.89999997616,7762,love,AF,A,,,,,,,,,,5
4,prac,1,con,1,z,Tue Mar 03 2026 10:45:26 GMT-0600 (Central Standard Time),189478.5,brutal,800,O,z,,,883,,,13,1,2993.899999976158,186484.60000002384,7762,brutal,AF,A,,,,,,,,,,6
5,prac,1,inc,1,z,Tue Mar 03 2026 10:45:26 GMT-0600 (Central Standard Time),193243.80000007153,napkin,1100,O,z,,,1354,,,12,1,3760.8000000715256,189483.0,7762,friend,AF,A,,,,,,,,,,7
6,prac,1,inc,1,m,Tue Mar 03 2026 10:45:26 GMT-0600 (Central Standard Time),196559.5,hate,1100,O,m,,,907,,,4,1,3311.5,193248.0,7762,film,AF,A,,,,,,,,,,8
7,prac,1,inc,1,m,Tue Mar 03 2026 10:45:26 GMT-0600 (Central Standard Time),199841.60000002384,elated,900,O,m,,,1071,,,6,1,3277.600000023842,196564.0,7762,napkin,AF,A,,,,,,,,,,9
8,prac,1,inc,1,z,Tue Mar 03 2026 10:45:26 GMT-0600 (Central Standard Time),202857.5,rock,900,O,z,,,805,,,10,1,3011.399999976158,199846.10000002384,7762,kind,AF,A,,,,,,,,,,10
9,prac,1,con,1,m,Tue Mar 03 2026 10:45:26 GMT-0600 (Central Standard Time),206039.80000007153,remote,1000,O,m,,,873,,,7,1,3177.2000000476837,202862.60000002384,7762,remote,AF,A,,,,,,,,,,11
10,prac,1,inc,1,m,Tue Mar 03 2026 10:45:26 GMT-0600 (Central Standard Time),210155.39999997616,brutal,1100,O,m,,,1712,,,8,1,4110.899999976158,206044.5,7762,window,AF,A,,,,,,,,,,12
11,prac,1,con,1,m,Tue Mar 03 2026 10:45:26 GMT-0600 (Central Standard Time),213220.89999997616,jacket,800,O,m,,,839,,,5,1,3061.1999999284744,210159.70000004768,7762,jacket,AF,A,,,,,,,,,,13
12,prac,1,con,1,m,Tue Mar 03 2026 10:45:26 GMT-0600 (Central Standard Time),216553.10000002384,step,800,O,m,,,1223,,,1,1,3328.2999999523163,213224.80000007153,7762,step,AF,A,,,,,,,,,,14
13,prac,1,con,1,z,Tue Mar 03 2026 10:45:26 GMT-0600 (Central Standard Time),219619.0,elated,800,O,z,,,962,,,9,1,3061.6999999284744,216557.30000007153,7762,elated,AF,A,,,,,,,,,,15
14,prac,1,inc,1,z,Tue Mar 03 2026 10:45:26 GMT-0600 (Central Standard Time),222835.60000002384,window,1100,O,z,,,813,,,16,1,3212.2000000476837,219623.39999997616,7762,temper,AF,A,,,,,,,,,,16
1,test,1,inc,1,m,Tue Mar 03 2026 10:45:26 GMT-0600 (Central Standard Time),265204.7000000477,temper,1000,O,m,m,None,838,638.0,200.0,111,1,2378.8000000715256,262825.89999997616,7762,napkin,AF,A,262968,262968,261239,262252,261239,263618,262768,262768,263618,1
2,test,1,con,1,m,Tue Mar 03 2026 10:45:26 GMT-0600 (Central Standard Time),267470.7000000477,step,900,O,m,m,None,818,619.0,199.0,66,1,2260.899999976158,265209.8000000715,7762,step,AF,A,265251,265251,263623,264534,263623,265884,265051,265051,265884,2
3,test,1,inc,1,m,Tue Mar 03 2026 10:45:26 GMT-0600 (Central Standard Time),270086.39999997616,love,1000,O,m,m,None,1068,869.0,199.0,79,1,2611.399999976158,267475.0,7762,rock,AF,A,267617,267617,265888,266900,265888,268500,267417,267417,268499,3
4,test,1,con,1,z,Tue Mar 03 2026 10:45:26 GMT-0600 (Central Standard Time),272369.0,rage,900,O,z,z,None,833,634.0,199.0,50,1,2278.399999976158,270090.60000002384,7762,rage,AF,A,270132,270132,268504,269416,268504,270782,269933,269933,270782,4
4,test,1,con,0,m,Tue Mar 03 2026 10:45:26 GMT-0600 (Central Standard Time),275701.2000000477,remote,800,O,None,None,None,1799,1799.0,200.0,113,1,3328.2000000476837,272373.0,7762,remote,AF,A,272315,272315,270786,271599,270786,274114,272115,272115,274114,5
5,test,1,con,1,m,Tue Mar 03 2026 10:45:26 GMT-0600 (Central Standard Time),278000.8000000715,jacket,1100,O,m,m,None,667,467.0,200.0,100,1,2295.600000023842,275705.2000000477,7762,jacket,AF,A,275947,275947,274118,275232,274119,276414,275747,275747,276414,6
6,test,1,con,1,m,Tue Mar 03 2026 10:45:26 GMT-0600 (Central Standard Time),280184.2000000477,jacket,1000,O,m,m,None,635,435.0,200.0,99,1,2179.8000000715256,278004.39999997616,7762,jacket,AF,A,278147,278147,276417,277430,276418,278597,277947,277947,278597,7
7,test,1,con,1,z,Tue Mar 03 2026 10:45:26 GMT-0600 (Central Standard Time),282699.2000000477,friend,900,O,z,z,None,1072,873.0,199.0,26,1,2511.100000023842,280188.10000002384,7762,friend,AF,A,280229,280229,278601,279513,278601,281112,280030,280030,281112,8
8,test,1,con,1,m,Tue Mar 03 2026 10:45:26 GMT-0600 (Central Standard Time),284815.3000000715,rock,800,O,m,m,None,769,568.0,201.0,73,1,2112.2000000476837,282703.10000002384,7762,rock,AF,A,282646,282646,281116,281929,281117,283228,282445,282445,283228,9
9,test,1,inc,1,m,Tue Mar 03 2026 10:45:26 GMT-0600 (Central Standard Time),286897.60000002384,elated,800,O,m,m,None,749,549.0,200.0,101,1,2078.2999999523163,284819.3000000715,7762,jacket,AF,A,284761,284761,283232,284045,283233,285311,284561,284561,285311,10
10,test,1,inc,1,z,Tue Mar 03 2026 10:45:26 GMT-0600 (Central Standard Time),289097.10000002384,rock,900,O,z,z,None,758,558.0,200.0,54,1,2194.7999999523163,286902.3000000715,7762,rage,AF,A,286944,286944,285315,286228,285316,287510,286744,286744,287510,11
11,test,1,con,1,z,Tue Mar 03 2026 10:45:26 GMT-0600 (Central Standard Time),291446.60000002384,friend,800,O,z,z,None,1003,803.0,200.0,25,1,2345.2999999523163,289101.3000000715,7762,friend,AF,A,289043,289043,287514,288327,287515,289860,288843,288843,289860,12
12,test,1,inc,1,z,Tue Mar 03 2026 10:45:26 GMT-0600 (Central Standard Time),293929.2000000477,bell,1000,O,z,z,None,940,741.0,199.0,15,1,2478.600000023842,291450.60000002384,7762,kind,AF,A,291593,291593,289864,290876,289864,292342,291392,291393,292342,13
13,test,1,inc,1,z,Tue Mar 03 2026 10:45:26 GMT-0600 (Central Standard Time),296028.2000000477,napkin,900,O,z,z,None,655,454.0,201.0,30,1,2095.0,293933.2000000477,7762,friend,AF,A,293976,293976,292346,293260,292347,294441,293775,293775,294441,14
13,test,1,inc,0,z,Tue Mar 03 2026 10:45:26 GMT-0600 (Central Standard Time),298244.10000002384,rock,900,O,m,m,None,780,580.0,200.0,46,1,2212.0,296032.10000002384,7762,hate,AF,A,296074,296074,294445,295358,294445,296657,295874,295874,296657,15
14,test,1,inc,1,m,Tue Mar 03 2026 10:45:26 GMT-0600 (Central Standard Time),300609.89999997616,love,1000,O,m,m,None,832,632.0,200.0,95,1,2361.399999976158,298248.5,7762,film,AF,A,298390,298390,296662,297674,296662,299023,298190,298190,299023,16
15,test,1,con,1,z,Tue Mar 03 2026 10:45:26 GMT-0600 (Central Standard Time),302759.39999997616,rage,800,O,z,z,None,800,600.0,200.0,49,1,2145.5,300613.89999997616,7762,rage,AF,A,300557,300557,299027,299840,299027,301173,300356,300356,301172,17
16,test,1,inc,1,z,Tue Mar 03 2026 10:45:26 GMT-0600 (Central Standard Time),304892.3000000715,jacket,800,O,z,z,None,787,588.0,199.0,5,1,2129.100000023842,302763.2000000477,7762,elated,AF,A,302706,302706,301176,301989,301177,303305,302506,302506,303305,18
17,test,1,inc,1,m,Tue Mar 03 2026 10:45:26 GMT-0600 (Central Standard Time),307158.2000000477,kind,900,O,m,m,None,711,511.0,200.0,78,1,2262.0,304896.2000000477,7762,rock,AF,A,305055,305055,303309,304344,303310,305571,304855,304855,305571,19
18,test,1,inc,1,z,Tue Mar 03 2026 10:45:26 GMT-0600 (Central Standard Time),309507.8000000715,remote,1000,O,z,z,None,813,614.0,199.0,39,1,2345.8000000715256,307162.0,7762,brutal,AF,A,307304,307304,305575,306588,305575,307921,307105,307105,307921,20
18,test,1,con,0,z,Tue Mar 03 2026 10:45:26 GMT-0600 (Central Standard Time),312489.5,brutal,1000,O,m,m,None,1464,1264.0,200.0,35,1,2977.399999976158,309512.10000002384,7762,brutal,AF,A,309638,309638,307925,308937,307926,310903,309438,309438,310903,21
19,test,1,inc,1,z,Tue Mar 03 2026 10:45:26 GMT-0600 (Central Standard Time),314839.10000002384,remote,1000,O,z,z,None,801,601.0,200.0,7,1,2343.600000023842,312495.5,7762,elated,AF,A,312636,312636,310909,311920,310909,313252,312436,312436,313252,22
20,test,1,inc,1,m,Tue Mar 03 2026 10:45:26 GMT-0600 (Central Standard Time),317122.0,love,1000,O,m,m,None,733,533.0,200.0,71,1,2278.2999999523163,314843.7000000477,7762,step,AF,A,314985,314985,313257,314269,313257,315535,314785,314785,315535,23
21,test,1,con,1,z,Tue Mar 03 2026 10:45:26 GMT-0600 (Central Standard Time),319637.7000000477,hate,1100,O,z,z,None,878,678.0,200.0,44,1,2511.5,317126.2000000477,7762,hate,AF,A,317368,317368,315539,316651,315540,318051,317168,317168,318051,24
22,test,1,inc,1,m,Tue Mar 03 2026 10:45:26 GMT-0600 (Central Standard Time),321753.2000000477,brutal,900,O,m,m,None,682,482.0,200.0,102,1,2111.5,319641.7000000477,7762,jacket,AF,A,319683,319683,318055,318967,318055,320166,319483,319483,320166,25
23,test,1,con,1,z,Tue Mar 03 2026 10:45:26 GMT-0600 (Central Standard Time),324102.5,temper,1100,O,z,z,None,710,511.0,199.0,60,1,2345.1999999284744,321757.3000000715,7762,temper,AF,A,321999,321999,320170,321283,320171,322516,321800,321800,322516,26
24,test,1,con,1,m,Tue Mar 03 2026 10:45:26 GMT-0600 (Central Standard Time),326252.0,film,900,O,m,m,None,703,504.0,199.0,90,1,2145.6999999284744,324106.3000000715,7762,film,AF,A,324149,324149,322519,323432,322520,324665,323948,323949,324665,27
25,test,1,con,1,m,Tue Mar 03 2026 10:45:26 GMT-0600 (Central Standard Time),328301.60000002384,film,800,O,m,m,None,703,504.0,199.0,89,1,2045.0,326256.60000002384,7762,film,AF,A,326198,326198,324670,325482,324670,326715,325998,325999,326715,28
26,test,1,con,1,m,Tue Mar 03 2026 10:45:26 GMT-0600 (Central Standard Time),330467.60000002384,window,900,O,m,m,None,730,531.0,199.0,122,1,2162.2999999523163,328305.3000000715,7762,window,AF,A,328347,328347,326718,327631,326719,328881,328148,328148,328881,29
27,test,1,inc,1,m,Tue Mar 03 2026 10:45:26 GMT-0600 (Central Standard Time),332983.2000000477,elated,800,O,m,m,None,1174,975.0,199.0,117,1,2511.2000000476837,330472.0,7762,remote,AF,A,330414,330414,328885,329698,328885,331396,330214,330214,331396,30
28,test,1,inc,1,z,Tue Mar 03 2026 10:45:26 GMT-0600 (Central Standard Time),335315.7000000477,film,1100,O,z,z,None,696,496.0,200.0,24,1,2328.7000000476837,332987.0,7762,love,AF,A,333229,333229,331400,332513,331400,333729,333029,333029,333729,31
29,test,1,inc,1,m,Tue Mar 03 2026 10:45:26 GMT-0600 (Central Standard Time),337431.7000000477,kind,900,O,m,m,None,667,467.0,200.0,70,1,2112.3000000715256,335319.39999997616,7762,step,AF,A,335362,335362,333732,334645,333733,335845,335162,335162,335845,32
30,test,1,con,1,z,Tue Mar 03 2026 10:45:26 GMT-0600 (Central Standard Time),339747.7000000477,kind,1000,O,z,z,None,771,571.0,200.0,11,1,2311.899999976158,337435.8000000715,7762,kind,AF,A,337578,337578,335849,336861,335849,338161,337378,337378,338161,33
31,test,1,con,1,z,Tue Mar 03 2026 10:45:26 GMT-0600 (Central Standard Time),341946.89999997616,hate,900,O,z,z,None,762,563.0,199.0,42,1,2195.0999999046326,339751.8000000715,7762,hate,AF,A,339794,339794,338165,339077,338165,340360,339594,339594,340360,34
32,test,1,inc,1,m,Tue Mar 03 2026 10:45:26 GMT-0600 (Central Standard Time),344246.3000000715,friend,1100,O,m,m,None,677,477.0,200.0,104,1,2295.2000000476837,341951.10000002384,7762,jacket,AF,A,342176,342176,340364,341467,340364,342659,341976,341976,342659,35
33,test,1,con,1,z,Tue Mar 03 2026 10:45:26 GMT-0600 (Central Standard Time),346562.2000000477,love,1100,O,z,z,None,673,473.0,200.0,20,1,2312.0,344250.2000000477,7762,love,AF,A,344492,344492,342663,343776,342664,344975,344292,344292,344975,36
34,test,1,inc,1,m,Tue Mar 03 2026 10:45:26 GMT-0600 (Central Standard Time),348761.60000002384,temper,1000,O,m,m,None,665,465.0,200.0,127,1,2195.2000000476837,346566.39999997616,7762,window,AF,A,346708,346708,344979,345992,344980,347175,346508,346508,347175,37
35,test,1,inc,1,z,Tue Mar 03 2026 10:45:26 GMT-0600 (Central Standard Time),350810.8000000715,jacket,800,O,z,z,None,712,497.0,215.0,61,1,2045.3000000715256,348765.5,7762,temper,AF,A,348724,348724,347179,347991,347179,349224,348509,348509,349224,38
36,test,1,inc,1,z,Tue Mar 03 2026 10:45:26 GMT-0600 (Central Standard Time),353105.0,remote,1000,O,z,z,None,761,561.0,200.0,31,1,2289.899999976158,350815.10000002384,7762,friend,AF,A,350957,350957,349228,350241,349228,351518,350757,350757,351518,39
37,test,1,con,1,z,Tue Mar 03 2026 10:45:26 GMT-0600 (Central Standard Time),355492.8000000715,kind,900,O,z,z,None,945,745.0,200.0,10,1,2383.2000000476837,353109.60000002384,7762,kind,AF,A,353156,353156,351523,352440,351523,353906,352956,352956,353906,40
38,test,1,con,1,z,Tue Mar 03 2026 10:45:26 GMT-0600 (Central Standard Time),357775.3000000715,hate,1000,O,z,z,None,741,542.0,199.0,43,1,2278.7000000476837,355496.60000002384,7762,hate,AF,A,355639,355639,353910,354923,353910,356188,355439,355439,356188,41
39,test,1,con,1,m,Tue Mar 03 2026 10:45:26 GMT-0600 (Central Standard Time),359941.39999997616,remote,900,O,m,m,None,727,528.0,199.0,114,1,2162.1999999284744,357779.2000000477,7762,remote,AF,A,357821,357821,356192,357105,356193,358354,357622,357622,358354,42
40,test,1,con,1,z,Tue Mar 03 2026 10:45:26 GMT-0600 (Central Standard Time),362507.3000000715,elated,900,O,z,z,None,1121,921.0,200.0,2,1,2562.0,359945.3000000715,7762,elated,AF,A,359988,359988,358358,359271,358359,360920,359787,359787,360920,43
41,test,1,inc,1,m,Tue Mar 03 2026 10:45:26 GMT-0600 (Central Standard Time),365039.8000000715,hate,1100,O,m,m,None,884,684.0,200.0,96,1,2528.8000000715256,362511.0,7762,film,AF,A,362753,362753,360924,362037,360924,363453,362553,362553,363453,44
42,test,1,con,1,m,Tue Mar 03 2026 10:45:26 GMT-0600 (Central Standard Time),367339.0,bell,800,O,m,m,None,963,762.0,201.0,81,1,2295.100000023842,365043.89999997616,7762,bell,AF,A,364987,364987,363457,364269,363457,365752,364786,364786,365752,45
43,test,1,con,1,z,Tue Mar 03 2026 10:45:26 GMT-0600 (Central Standard Time),369388.39999997616,brutal,800,O,z,z,None,704,504.0,200.0,33,1,2045.5,367342.89999997616,7762,brutal,AF,A,367285,367285,365756,366569,365756,367802,367085,367085,367801,46
44,test,1,con,1,z,Tue Mar 03 2026 10:45:26 GMT-0600 (Central Standard Time),371820.89999997616,friend,1100,O,z,z,None,795,595.0,200.0,28,1,2427.899999976158,369393.0,7762,friend,AF,A,369634,369634,367806,368918,367806,370234,369434,369434,370234,47
45,test,1,inc,1,m,Tue Mar 03 2026 10:45:26 GMT-0600 (Central Standard Time),374136.7000000477,hate,1100,O,m,m,None,682,482.0,200.0,88,1,2312.100000023842,371824.60000002384,7762,bell,AF,A,372067,372067,370238,371351,370238,372550,371867,371867,372550,48
45,test,1,con,0,m,Tue Mar 03 2026 10:45:26 GMT-0600 (Central Standard Time),376453.0,window,1000,O,z,z,None,778,578.0,200.0,123,1,2312.1999999284744,374140.8000000715,7762,window,AF,A,374283,374283,372554,373567,372554,374866,374083,374083,374866,49
46,test,1,inc,1,m,Tue Mar 03 2026 10:45:26 GMT-0600 (Central Standard Time),378885.39999997616,friend,1100,O,m,m,None,794,594.0,200.0,120,1,2427.899999976158,376457.5,7762,remote,AF,A,376699,376699,374871,375982,374871,377299,376499,376499,377298,50
47,test,1,con,1,z,Tue Mar 03 2026 10:45:26 GMT-0600 (Central Standard Time),381318.0,kind,1100,O,z,z,None,786,585.0,201.0,12,1,2428.7999999523163,378889.2000000477,7762,kind,AF,A,379133,379133,377302,378415,377303,379731,378931,378931,379731,51
48,test,1,con,1,m,Tue Mar 03 2026 10:45:26 GMT-0600 (Central Standard Time),383350.7000000477,window,800,O,m,m,None,685,485.0,200.0,121,1,2028.1000000238419,381322.60000002384,7762,window,AF,A,381264,381264,379736,380548,379736,381764,381064,381064,381764,52
49,test,1,con,1,m,Tue Mar 03 2026 10:45:26 GMT-0600 (Central Standard Time),385783.3000000715,film,1100,O,m,m,None,784,584.0,200.0,92,1,2428.8000000715256,383354.5,7762,film,AF,A,383597,383597,381768,382880,381768,384196,383397,383397,384196,53
50,test,1,inc,1,z,Tue Mar 03 2026 10:45:26 GMT-0600 (Central Standard Time),388165.7000000477,window,1100,O,z,z,None,735,535.0,200.0,40,1,2378.5,385787.2000000477,7762,brutal,AF,A,386030,386030,384200,385313,384201,386579,385829,385829,386579,54
51,test,1,con,1,m,Tue Mar 03 2026 10:45:26 GMT-0600 (Central Standard Time),390831.60000002384,rock,1100,O,m,m,None,1025,825.0,200.0,76,1,2661.0,388170.60000002384,7762,rock,AF,A,388412,388412,386584,387695,386584,389245,388212,388212,389245,55
52,test,1,con,1,m,Tue Mar 03 2026 10:45:26 GMT-0600 (Central Standard Time),392781.0,jacket,800,O,m,m,None,604,404.0,200.0,97,1,1945.8999999761581,390835.10000002384,7762,jacket,AF,A,390778,390778,389248,390061,389248,391194,390578,390578,391194,56
53,test,1,con,1,m,Tue Mar 03 2026 10:45:26 GMT-0600 (Central Standard Time),394730.39999997616,jacket,900,O,m,m,None,514,314.0,200.0,98,1,1945.3999999761581,392785.0,7762,jacket,AF,A,392827,392827,391198,392111,391198,393144,392627,392627,393143,57
54,test,1,inc,1,z,Tue Mar 03 2026 10:45:26 GMT-0600 (Central Standard Time),396879.8000000715,bell,1000,O,z,z,None,599,400.0,199.0,23,1,2145.5,394734.3000000715,7762,love,AF,A,394877,394877,393147,394160,393148,395293,394677,394677,395293,58
55,test,1,inc,1,z,Tue Mar 03 2026 10:45:26 GMT-0600 (Central Standard Time),399079.2000000477,step,800,O,z,z,None,859,659.0,200.0,45,1,2195.3000000715256,396883.89999997616,7762,hate,AF,A,396826,396826,395297,396109,395297,397492,396626,396626,397492,59
56,test,1,inc,1,m,Tue Mar 03 2026 10:45:26 GMT-0600 (Central Standard Time),401228.5,kind,900,O,m,m,None,704,504.0,200.0,94,1,2145.2999999523163,399083.2000000477,7762,film,AF,A,399125,399125,397496,398409,397497,399642,398925,398925,399642,60
57,test,1,inc,1,z,Tue Mar 03 2026 10:45:26 GMT-0600 (Central Standard Time),403611.0,window,1100,O,z,z,None,738,538.0,200.0,8,1,2378.600000023842,401232.39999997616,7762,elated,AF,A,401475,401475,399645,400758,399646,402024,401274,401274,402024,61
58,test,1,con,1,z,Tue Mar 03 2026 10:45:26 GMT-0600 (Central Standard Time),405910.2000000477,brutal,1100,O,z,z,None,652,452.0,200.0,36,1,2295.399999976158,403614.8000000715,7762,brutal,AF,A,403857,403857,402028,403140,402028,404323,403657,403657,404323,62
59,test,1,inc,1,m,Tue Mar 03 2026 10:45:26 GMT-0600 (Central Standard Time),407959.60000002384,rage,800,O,m,m,None,709,509.0,200.0,85,1,2045.2000000476837,405914.39999997616,7762,bell,AF,A,405856,405856,404327,405140,404328,406373,405656,405656,406373,63
60,test,1,con,1,z,Tue Mar 03 2026 10:45:26 GMT-0600 (Central Standard Time),410025.5,love,1000,O,z,z,None,531,331.0,200.0,19,1,2062.0,407963.5,7762,love,AF,A,408106,408106,406377,407389,406377,408439,407906,407906,408439,64
61,test,1,inc,1,z,Tue Mar 03 2026 10:45:26 GMT-0600 (Central Standard Time),412458.3000000715,film,1100,O,z,z,None,789,590.0,199.0,16,1,2429.0,410029.3000000715,7762,kind,AF,A,410272,410272,408442,409555,408443,410871,410072,410072,410871,65
61,test,1,inc,0,z,Tue Mar 03 2026 10:45:26 GMT-0600 (Central Standard Time),414257.60000002384,step,800,O,m,m,None,466,266.0,200.0,53,1,1795.5,412462.10000002384,7762,rage,AF,A,412404,412404,410875,411688,410875,412671,412204,412204,412671,66
62,test,1,inc,1,m,Tue Mar 03 2026 10:45:26 GMT-0600 (Central Standard Time),416440.3000000715,rage,800,O,m,m,None,841,641.0,200.0,77,1,2178.8000000715256,414261.5,7762,rock,AF,A,414204,414204,412674,413487,412675,414853,414004,414004,414853,67
63,test,1,con,1,z,Tue Mar 03 2026 10:45:26 GMT-0600 (Central Standard Time),418356.3000000715,brutal,900,O,z,z,None,470,270.0,200.0,34,1,1912.3000000715256,416444.0,7762,brutal,AF,A,416487,416487,414857,415770,414857,416769,416286,416286,416769,68
63,test,1,inc,0,z,Tue Mar 03 2026 10:45:26 GMT-0600 (Central Standard Time),420739.0,remote,1000,O,m,m,None,839,639.0,200.0,63,1,2378.899999976158,418360.10000002384,7762,temper,AF,A,418502,418502,416773,417786,416773,419152,418302,418302,419152,69
64,test,1,inc,1,m,Tue Mar 03 2026 10:45:26 GMT-0600 (Central Standard Time),423021.60000002384,temper,1000,O,m,m,None,736,536.0,200.0,103,1,2277.5,420744.10000002384,7762,jacket,AF,A,420885,420885,419157,420168,419157,421435,420685,420685,421435,70
65,test,1,inc,1,m,Tue Mar 03 2026 10:45:26 GMT-0600 (Central Standard Time),425204.2000000477,temper,1000,O,m,m,None,645,446.0,199.0,119,1,2178.600000023842,423025.60000002384,7762,remote,AF,A,423168,423168,421439,422457,421439,423617,422968,422968,423617,71
66,test,1,con,1,m,Tue Mar 03 2026 10:45:26 GMT-0600 (Central Standard Time),428236.7000000477,remote,1100,O,m,m,None,1395,1195.0,200.0,116,1,3028.7000000476837,425208.0,7762,remote,AF,A,425450,425450,423621,424734,423621,426650,425250,425250,426650,72
67,test,1,con,1,m,Tue Mar 03 2026 10:45:26 GMT-0600 (Central Standard Time),430819.10000002384,step,1100,O,m,m,None,945,730.0,215.0,68,1,2578.399999976158,428240.7000000477,7762,step,AF,A,428499,428499,426654,427766,426654,429232,428284,428284,429232,73
68,test,1,con,1,m,Tue Mar 03 2026 10:45:26 GMT-0600 (Central Standard Time),432868.39999997616,napkin,900,O,m,m,None,604,404.0,200.0,106,1,2045.5,430822.89999997616,7762,napkin,AF,A,430865,430865,429236,430149,429236,431281,430665,430665,431281,74
69,test,1,inc,1,z,Tue Mar 03 2026 10:45:26 GMT-0600 (Central Standard Time),435051.10000002384,rock,900,O,z,z,None,745,546.0,199.0,14,1,2179.100000023842,432872.0,7762,kind,AF,A,432915,432915,431285,432198,431285,433464,432715,432715,433464,75
70,test,1,inc,1,z,Tue Mar 03 2026 10:45:26 GMT-0600 (Central Standard Time),437300.5,napkin,900,O,z,z,None,805,604.0,201.0,62,1,2245.899999976158,435054.60000002384,7762,temper,AF,A,435098,435098,433468,434381,433468,435714,434897,434897,435714,76
71,test,1,con,1,z,Tue Mar 03 2026 10:45:26 GMT-0600 (Central Standard Time),439383.2000000477,friend,1000,O,z,z,None,534,335.0,199.0,27,1,2078.7000000476837,437304.5,7762,friend,AF,A,437446,437446,435718,436730,435718,437796,437247,437247,437796,77
72,test,1,inc,1,m,Tue Mar 03 2026 10:45:26 GMT-0600 (Central Standard Time),441482.7000000477,rage,800,O,m,m,None,756,556.0,200.0,93,1,2095.8000000715256,439386.89999997616,7762,film,AF,A,439329,439329,437800,438613,437800,439896,439129,439129,439896,78
73,test,1,inc,1,z,Tue Mar 03 2026 10:45:26 GMT-0600 (Central Standard Time),443848.3000000715,napkin,900,O,z,z,None,916,716.0,200.0,38,1,2360.9000000953674,441487.39999997616,7762,brutal,AF,A,441529,441529,439900,440812,439901,442261,441328,441328,442261,79
74,test,1,con,1,z,Tue Mar 03 2026 10:45:26 GMT-0600 (Central Standard Time),445831.10000002384,love,800,O,z,z,None,633,434.0,199.0,17,1,1978.7000000476837,443852.39999997616,7762,love,AF,A,443795,443795,442265,443078,442266,444244,443595,443595,444244,80
74,test,1,inc,0,z,Tue Mar 03 2026 10:45:26 GMT-0600 (Central Standard Time),448180.39999997616,film,1100,O,m,m,None,652,437.0,215.0,48,1,2345.6999999284744,445834.7000000477,7762,hate,AF,A,446144,446144,444248,445361,444248,446594,445929,445929,446593,81
75,test,1,con,1,m,Tue Mar 03 2026 10:45:26 GMT-0600 (Central Standard Time),450346.3000000715,napkin,1000,O,m,m,None,630,431.0,199.0,107,1,2161.7000000476837,448184.60000002384,7762,napkin,AF,A,448326,448326,446598,447610,446598,448759,448127,448127,448759,82
76,test,1,inc,1,m,Tue Mar 03 2026 10:45:26 GMT-0600 (Central Standard Time),452729.10000002384,hate,1100,O,m,m,None,750,550.0,200.0,80,1,2379.0,450350.10000002384,7762,rock,AF,A,450592,450592,448763,449876,448763,451142,450392,450392,451142,83
77,test,1,con,1,z,Tue Mar 03 2026 10:45:26 GMT-0600 (Central Standard Time),455045.0,elated,1100,O,z,z,None,670,470.0,200.0,4,1,2311.899999976158,452733.10000002384,7762,elated,AF,A,452975,452975,451146,452259,451146,453458,452775,452775,453458,84
77,test,1,inc,0,z,Tue Mar 03 2026 10:45:26 GMT-0600 (Central Standard Time),456877.60000002384,jacket,800,O,m,m,None,486,286.0,200.0,29,1,1828.7000000476837,455048.89999997616,7762,friend,AF,A,454991,454991,453462,454275,453462,455291,454791,454791,455291,85
78,test,1,con,1,z,Tue Mar 03 2026 10:45:26 GMT-0600 (Central Standard Time),458793.60000002384,elated,800,O,z,z,None,581,381.0,200.0,1,1,1912.1000000238419,456881.5,7762,elated,AF,A,456824,456824,455295,456107,455295,457207,456624,456624,457207,86
79,test,1,inc,1,m,Tue Mar 03 2026 10:45:26 GMT-0600 (Central Standard Time),461193.3000000715,friend,1100,O,m,m,None,756,557.0,199.0,112,1,2395.8000000715256,458797.5,7762,napkin,AF,A,459040,459040,457211,458323,457211,459606,458840,458840,459606,87
80,test,1,con,1,z,Tue Mar 03 2026 10:45:26 GMT-0600 (Central Standard Time),463425.5,rage,1000,O,z,z,None,698,498.0,200.0,51,1,2228.2999999523163,461197.2000000477,7762,rage,AF,A,461339,461339,459610,460622,459610,461839,461139,461139,461839,88
81,test,1,inc,1,z,Tue Mar 03 2026 10:45:26 GMT-0600 (Central Standard Time),465774.89999997616,window,1100,O,z,z,None,700,501.0,199.0,64,1,2345.5,463429.39999997616,7762,temper,AF,A,463672,463672,461842,462955,461843,464188,463472,463472,464188,89
82,test,1,inc,1,m,Tue Mar 03 2026 10:45:26 GMT-0600 (Central Standard Time),468040.89999997616,brutal,900,O,m,m,None,832,632.0,200.0,118,1,2262.2999999523163,465778.60000002384,7762,remote,AF,A,465821,465821,464192,465104,464192,466454,465621,465621,466454,90
83,test,1,con,1,m,Tue Mar 03 2026 10:45:26 GMT-0600 (Central Standard Time),470890.7000000477,remote,1000,O,m,m,None,1315,1115.0,200.0,115,1,2846.0,468044.7000000477,7762,remote,AF,A,468187,468187,466458,467470,466458,469304,467987,467987,469304,91
84,test,1,inc,1,m,Tue Mar 03 2026 10:45:26 GMT-0600 (Central Standard Time),473072.60000002384,rage,800,O,m,m,None,849,649.0,200.0,69,1,2175.5,470897.10000002384,7762,step,AF,A,470836,470836,469310,470120,469310,471486,470636,470636,471486,92
85,test,1,inc,1,m,Tue Mar 03 2026 10:45:26 GMT-0600 (Central Standard Time),475455.2000000477,friend,1100,O,m,m,None,734,534.0,200.0,128,1,2379.100000023842,473076.10000002384,7762,window,AF,A,473319,473319,471489,472602,471489,473868,473119,473119,473868,93
86,test,1,con,1,z,Tue Mar 03 2026 10:45:26 GMT-0600 (Central Standard Time),477404.60000002384,hate,800,O,z,z,None,604,404.0,200.0,41,1,1945.2000000476837,475459.39999997616,7762,hate,AF,A,475401,475401,473872,474685,473873,475818,475201,475201,475818,94
86,test,1,inc,0,z,Tue Mar 03 2026 10:45:26 GMT-0600 (Central Standard Time),479254.0,step,800,O,m,m,None,510,310.0,200.0,13,1,1845.5,477408.5,7762,kind,AF,A,477351,477351,475822,476634,475822,477667,477151,477151,477667,95
87,test,1,con,1,m,Tue Mar 03 2026 10:45:26 GMT-0600 (Central Standard Time),481603.3000000715,window,1100,O,m,m,None,714,514.0,200.0,124,1,2345.4000000953674,479257.89999997616,7762,window,AF,A,479500,479500,477671,478783,477671,480016,479300,479300,480016,96
88,test,1,con,1,m,Tue Mar 03 2026 10:45:26 GMT-0600 (Central Standard Time),483602.60000002384,rock,900,O,m,m,None,556,356.0,200.0,74,1,1995.7000000476837,481606.89999997616,7762,rock,AF,A,481649,481649,480020,480933,480020,482016,481449,481449,482016,97
89,test,1,inc,1,z,Tue Mar 03 2026 10:45:26 GMT-0600 (Central Standard Time),485618.60000002384,jacket,800,O,z,z,None,680,480.0,200.0,37,1,2012.0,483606.60000002384,7762,brutal,AF,A,483549,483549,482020,482832,482020,484032,483349,483349,484032,98
90,test,1,con,1,m,Tue Mar 03 2026 10:45:26 GMT-0600 (Central Standard Time),488367.8000000715,bell,1000,O,m,m,None,1200,1000.0,200.0,83,1,2745.3000000715256,485622.5,7762,bell,AF,A,485765,485765,484036,485049,484036,486781,485565,485565,486781,99
91,test,1,inc,1,m,Tue Mar 03 2026 10:45:26 GMT-0600 (Central Standard Time),490650.5,hate,1100,O,m,m,None,639,439.0,200.0,72,1,2279.0,488371.5,7762,step,AF,A,488614,488614,486785,487897,486785,489064,488414,488414,489063,100
92,test,1,con,1,z,Tue Mar 03 2026 10:45:26 GMT-0600 (Central Standard Time),492783.10000002384,elated,1000,O,z,z,None,592,393.0,199.0,3,1,2128.899999976158,490654.2000000477,7762,elated,AF,A,490796,490796,489067,490080,489067,491196,490597,490597,491196,101
93,test,1,con,1,z,Tue Mar 03 2026 10:45:26 GMT-0600 (Central Standard Time),494899.10000002384,temper,1000,O,z,z,None,572,369.0,203.0,59,1,2112.2000000476837,492786.89999997616,7762,temper,AF,A,492932,492932,491200,492213,491200,493312,492729,492729,493312,102
94,test,1,inc,1,m,Tue Mar 03 2026 10:45:26 GMT-0600 (Central Standard Time),497131.7000000477,kind,900,O,m,m,None,796,596.0,200.0,86,1,2229.0,494902.7000000477,7762,bell,AF,A,494945,494945,493316,494229,493316,495545,494745,494745,495545,103
95,test,1,con,1,m,Tue Mar 03 2026 10:45:26 GMT-0600 (Central Standard Time),499047.8000000715,napkin,800,O,m,m,None,567,367.0,200.0,105,1,1912.2000000476837,497135.60000002384,7762,napkin,AF,A,497078,497078,495549,496361,495549,497461,496878,496878,497461,104
96,test,1,inc,1,z,Tue Mar 03 2026 10:45:26 GMT-0600 (Central Standard Time),501380.60000002384,napkin,900,O,z,z,None,896,696.0,200.0,6,1,2329.2999999523163,499051.3000000715,7762,elated,AF,A,499094,499094,497464,498377,497465,499794,498894,498894,499794,105
97,test,1,inc,1,m,Tue Mar 03 2026 10:45:26 GMT-0600 (Central Standard Time),503579.89999997616,brutal,900,O,m,m,None,754,555.0,199.0,110,1,2194.2999999523163,501385.60000002384,7762,napkin,AF,A,501427,501427,499799,500710,499799,501993,501227,501227,501993,106
98,test,1,inc,1,z,Tue Mar 03 2026 10:45:26 GMT-0600 (Central Standard Time),506045.39999997616,film,1100,O,z,z,None,818,619.0,199.0,56,1,2461.2999999523163,503584.10000002384,7762,rage,AF,A,503826,503826,501997,503109,501997,504459,503627,503627,504458,107
99,test,1,inc,1,z,Tue Mar 03 2026 10:45:26 GMT-0600 (Central Standard Time),508144.8000000715,bell,1000,O,z,z,None,565,365.0,200.0,47,1,2095.600000023842,506049.2000000477,7762,hate,AF,A,506192,506192,504462,505475,504462,506558,505992,505992,506558,108
100,test,1,con,1,z,Tue Mar 03 2026 10:45:26 GMT-0600 (Central Standard Time),510394.3000000715,temper,900,O,z,z,None,806,606.0,200.0,58,1,2245.0,508149.3000000715,7762,temper,AF,A,508191,508191,506562,507475,506563,508807,507991,507991,508807,109
101,test,1,con,1,z,Tue Mar 03 2026 10:45:26 GMT-0600 (Central Standard Time),512576.8000000715,rage,1100,O,z,z,None,548,349.0,199.0,52,1,2177.0,510399.8000000715,7762,rage,AF,A,510640,510640,508813,509924,508813,510990,510441,510441,510990,110
102,test,1,con,1,m,Tue Mar 03 2026 10:45:26 GMT-0600 (Central Standard Time),514759.8000000715,rock,1000,O,m,m,None,634,434.0,200.0,75,1,2179.0,512580.8000000715,7762,rock,AF,A,512723,512723,510994,512006,510994,513173,512523,512523,513173,111
103,test,1,inc,1,z,Tue Mar 03 2026 10:45:26 GMT-0600 (Central Standard Time),517008.89999997616,window,1100,O,z,z,None,606,407.0,199.0,32,1,2245.2999999523163,514763.60000002384,7762,friend,AF,A,515006,515006,513177,514289,513177,515422,514806,514806,515422,112
104,test,1,con,1,m,Tue Mar 03 2026 10:45:26 GMT-0600 (Central Standard Time),519074.89999997616,bell,900,O,m,m,None,631,422.0,209.0,82,1,2062.0999999046326,517012.8000000715,7762,bell,AF,A,517055,517055,515426,516338,515426,517488,516846,516846,517488,113
105,test,1,inc,1,m,Tue Mar 03 2026 10:45:26 GMT-0600 (Central Standard Time),521140.8000000715,elated,800,O,m,m,None,728,528.0,200.0,125,1,2062.0,519078.8000000715,7762,window,AF,A,519021,519021,517492,518305,517492,519554,518821,518821,519554,114
105,test,1,con,0,m,Tue Mar 03 2026 10:45:26 GMT-0600 (Central Standard Time),523323.60000002384,film,1000,O,z,z,None,638,438.0,200.0,91,1,2179.399999976158,521144.2000000477,7762,film,AF,A,521287,521287,519557,520570,519557,521737,521087,521087,521737,115
105,test,1,con,0,m,Tue Mar 03 2026 10:45:26 GMT-0600 (Central Standard Time),525406.2000000477,step,800,O,z,z,None,734,535.0,199.0,65,1,2078.899999976158,523327.3000000715,7762,step,AF,A,523270,523270,521740,522553,521741,523819,523069,523070,523819,116
106,test,1,inc,1,m,Tue Mar 03 2026 10:45:26 GMT-0600 (Central Standard Time),527972.0,brutal,900,O,m,m,None,1121,921.0,200.0,126,1,2562.2999999523163,525409.7000000477,7762,window,AF,A,525452,525452,523823,524736,523823,526385,525252,525252,526385,117
107,test,1,con,1,z,Tue Mar 03 2026 10:45:26 GMT-0600 (Central Standard Time),530088.1000000238,temper,800,O,z,z,None,775,575.0,200.0,57,1,2112.2999999523163,527975.8000000715,7762,temper,AF,A,527918,527918,526389,527202,526389,528501,527718,527718,528501,118
108,test,1,inc,1,m,Tue Mar 03 2026 10:45:26 GMT-0600 (Central Standard Time),532320.7000000477,love,1000,O,m,m,None,699,499.0,200.0,87,1,2228.600000023842,530092.1000000238,7762,bell,AF,A,530234,530234,528505,529518,528505,530734,530034,530034,530734,119
109,test,1,con,1,m,Tue Mar 03 2026 10:45:26 GMT-0600 (Central Standard Time),534603.3000000715,bell,1100,O,m,m,None,638,439.0,199.0,84,1,2278.5,532324.8000000715,7762,bell,AF,A,532567,532567,530738,531850,530738,533016,532367,532367,533016,120
110,test,1,inc,1,z,Tue Mar 03 2026 10:45:26 GMT-0600 (Central Standard Time),536669.2000000477,step,800,O,z,z,None,727,528.0,199.0,21,1,2062.399999976158,534606.8000000715,7762,love,AF,A,534550,534550,533020,533833,533020,535082,534349,534350,535082,121
111,test,1,con,1,m,Tue Mar 03 2026 10:45:26 GMT-0600 (Central Standard Time),538901.8999999762,napkin,1100,O,m,m,None,586,386.0,200.0,108,1,2228.899999976158,536673.0,7762,napkin,AF,A,536915,536915,535086,536199,535086,537315,536715,536715,537315,122
112,test,1,con,1,z,Tue Mar 03 2026 10:45:26 GMT-0600 (Central Standard Time),540884.7000000477,kind,800,O,z,z,None,645,445.0,200.0,9,1,1979.1000000238419,538905.6000000238,7762,kind,AF,A,538848,538848,537319,538132,537319,539298,538648,538648,539298,123
113,test,1,con,1,z,Tue Mar 03 2026 10:45:26 GMT-0600 (Central Standard Time),543900.3000000715,love,900,O,z,z,None,1495,1295.0,200.0,18,1,3011.4000000953674,540888.8999999762,7762,love,AF,A,541014,541014,539302,540300,539302,542313,540814,540814,542313,124
114,test,1,con,1,m,Tue Mar 03 2026 10:45:26 GMT-0600 (Central Standard Time),546233.0,step,1000,O,m,m,None,791,592.0,199.0,67,1,2329.100000023842,543903.8999999762,7762,step,AF,A,544046,544046,542317,543331,542317,544646,543847,543847,544646,125
115,test,1,inc,1,z,Tue Mar 03 2026 10:45:26 GMT-0600 (Central Standard Time),548449.1000000238,bell,1000,O,z,z,None,667,467.0,200.0,55,1,2212.0,546237.1000000238,7762,rage,AF,A,546379,546379,544650,545663,544650,546862,546179,546179,546862,126
115,test,1,inc,0,z,Tue Mar 03 2026 10:45:26 GMT-0600 (Central Standard Time),550548.2000000477,rock,900,O,m,m,None,662,462.0,200.0,22,1,2095.0,548453.2000000477,7762,love,AF,A,548495,548495,546866,547779,546866,548961,548295,548295,548961,127
116,test,1,inc,1,m,Tue Mar 03 2026 10:45:26 GMT-0600 (Central Standard Time),552730.8999999762,elated,800,O,m,m,None,847,647.0,200.0,109,1,2179.2999999523163,550551.6000000238,7762,napkin,AF,A,550494,550494,548965,549778,548965,551144,550294,550294,551144,128
