block_c,block_dur,condition,countdown,datetime,endtime,list,multichar_response,project,response,response_time,session_number,start_end,starttime,subject_id,task,task_vers,trial
,,,,Tue Dec 02 2025 12:08:44 GMT-0500 (Eastern Standard Time),,,,I,space,1129,3,,,9021,WL,A,
prac,,0,,Tue Dec 02 2025 12:08:44 GMT-0500 (Eastern Standard Time),,NA,b,I,b,2653,3,,,9021,WL,A,1.0
prac,,0,,Tue Dec 02 2025 12:08:44 GMT-0500 (Eastern Standard Time),,NA,bo,I,o,167,3,,,9021,WL,A,1.0
prac,,0,,Tue Dec 02 2025 12:08:44 GMT-0500 (Eastern Standard Time),,NA,boo,I,o,175,3,,,9021,WL,A,1.0
prac,,0,,Tue Dec 02 2025 12:08:44 GMT-0500 (Eastern Standard Time),,NA,boos,I,s,527,3,,,9021,WL,A,1.0
prac,,0,,Tue Dec 02 2025 12:08:44 GMT-0500 (Eastern Standard Time),,NA,boost,I,t,169,3,,,9021,WL,A,1.0
prac,,0,,Tue Dec 02 2025 12:08:44 GMT-0500 (Eastern Standard Time),,NA,boostenter,I,enter,261,3,,,9021,WL,A,1.0
1,0.5329999923706055,learn,59467.000007629395,Tue Dec 02 2025 12:08:44 GMT-0500 (Eastern Standard Time),136852.79999995232,A,l,I,l,515,3,531.7000000476837,136321.09999990463,9021,WL,A,1.0
1,0.8819999694824219,learn,59118.00003051758,Tue Dec 02 2025 12:08:44 GMT-0500 (Eastern Standard Time),137202.39999985695,A,lo,I,o,330,3,881.2999999523163,136321.09999990463,9021,WL,A,1.0
1,1.2819998264312744,learn,58718.000173568726,Tue Dec 02 2025 12:08:44 GMT-0500 (Eastern Standard Time),137602.5,A,loc,I,c,385,3,1281.4000000953674,136321.09999990463,9021,WL,A,1.0
1,1.4659998416900635,learn,58534.00015830994,Tue Dec 02 2025 12:08:44 GMT-0500 (Eastern Standard Time),137785.69999980927,A,lock,I,k,160,3,1464.5999999046326,136321.09999990463,9021,WL,A,1.0
1,2.315000057220459,learn,57684.99994277954,Tue Dec 02 2025 12:08:44 GMT-0500 (Eastern Standard Time),138635.19999980927,A,lockenter,I,enter,824,3,2314.0999999046326,136321.09999990463,9021,WL,A,1.0
1,2.7819998264312744,learn,57218.000173568726,Tue Dec 02 2025 12:08:44 GMT-0500 (Eastern Standard Time),139102.29999995232,A,k,I,k,458,3,466.5,138635.79999995232,9021,WL,A,2.0
1,3.0319998264312744,learn,56968.000173568726,Tue Dec 02 2025 12:08:44 GMT-0500 (Eastern Standard Time),139352.39999985695,A,ke,I,e,228,3,716.5999999046326,138635.79999995232,9021,WL,A,2.0
1,3.1989998817443848,learn,56801.000118255615,Tue Dec 02 2025 12:08:44 GMT-0500 (Eastern Standard Time),139518.79999995232,A,key,I,y,145,3,883.0,138635.79999995232,9021,WL,A,2.0
1,3.6649999618530273,learn,56335.00003814697,Tue Dec 02 2025 12:08:44 GMT-0500 (Eastern Standard Time),139985.19999980927,A,keyenter,I,enter,452,3,1349.3999998569489,138635.79999995232,9021,WL,A,2.0
1,4.115999937057495,learn,55884.000062942505,Tue Dec 02 2025 12:08:44 GMT-0500 (Eastern Standard Time),140435.79999995232,A,g,I,g,436,3,450.10000014305115,139985.69999980927,9021,WL,A,3.0
1,4.23199987411499,learn,55768.00012588501,Tue Dec 02 2025 12:08:44 GMT-0500 (Eastern Standard Time),140552.5,A,go,I,o,95,3,566.8000001907349,139985.69999980927,9021,WL,A,3.0
1,4.431999921798706,learn,55568.000078201294,Tue Dec 02 2025 12:08:44 GMT-0500 (Eastern Standard Time),140752.29999995232,A,gol,I,l,177,3,766.6000001430511,139985.69999980927,9021,WL,A,3.0
1,4.565999984741211,learn,55434.00001525879,Tue Dec 02 2025 12:08:44 GMT-0500 (Eastern Standard Time),140885.69999980927,A,gold,I,d,115,3,900.0,139985.69999980927,9021,WL,A,3.0
1,5.082000017166138,learn,54917.99998283386,Tue Dec 02 2025 12:08:44 GMT-0500 (Eastern Standard Time),141401.79999995232,A,goldenter,I,enter,487,3,1416.1000001430511,139985.69999980927,9021,WL,A,3.0
1,5.448999881744385,learn,54551.000118255615,Tue Dec 02 2025 12:08:44 GMT-0500 (Eastern Standard Time),141769.09999990463,A,b,I,b,349,3,366.7000000476837,141402.39999985695,9021,WL,A,4.0
1,5.832000017166138,learn,54167.99998283386,Tue Dec 02 2025 12:08:44 GMT-0500 (Eastern Standard Time),142152.29999995232,A,bo,I,o,362,3,749.9000000953674,141402.39999985695,9021,WL,A,4.0
1,5.98199987411499,learn,54018.00012588501,Tue Dec 02 2025 12:08:44 GMT-0500 (Eastern Standard Time),142302.29999995232,A,boo,I,o,139,3,899.9000000953674,141402.39999985695,9021,WL,A,4.0
1,6.381999969482422,learn,53618.00003051758,Tue Dec 02 2025 12:08:44 GMT-0500 (Eastern Standard Time),142702.19999980927,A,book,I,k,391,3,1299.7999999523163,141402.39999985695,9021,WL,A,4.0
1,6.73199987411499,learn,53268.00012588501,Tue Dec 02 2025 12:08:44 GMT-0500 (Eastern Standard Time),143051.79999995232,A,bookenter,I,enter,324,3,1649.4000000953674,141402.39999985695,9021,WL,A,4.0
1,7.148999929428101,learn,52851.0000705719,Tue Dec 02 2025 12:08:44 GMT-0500 (Eastern Standard Time),143468.89999985695,A,t,I,t,394,3,416.5,143052.39999985695,9021,WL,A,5.0
1,7.365999937057495,learn,52634.000062942505,Tue Dec 02 2025 12:08:44 GMT-0500 (Eastern Standard Time),143685.69999980927,A,tr,I,r,195,3,633.2999999523163,143052.39999985695,9021,WL,A,5.0
1,7.549000024795532,learn,52450.99997520447,Tue Dec 02 2025 12:08:44 GMT-0500 (Eastern Standard Time),143869.19999980927,A,tra,I,a,157,3,816.7999999523163,143052.39999985695,9021,WL,A,5.0
1,7.748999834060669,learn,52251.00016593933,Tue Dec 02 2025 12:08:44 GMT-0500 (Eastern Standard Time),144069.0,A,trai,I,i,173,3,1016.6000001430511,143052.39999985695,9021,WL,A,5.0
1,8.049000024795532,learn,51950.99997520447,Tue Dec 02 2025 12:08:44 GMT-0500 (Eastern Standard Time),144369.0,A,train,I,n,288,3,1316.6000001430511,143052.39999985695,9021,WL,A,5.0
1,9.115000009536743,learn,50884.99999046326,Tue Dec 02 2025 12:08:44 GMT-0500 (Eastern Standard Time),145435.19999980927,A,trainenter,I,enter,1041,3,2382.7999999523163,143052.39999985695,9021,WL,A,5.0
1,9.766000032424927,learn,50233.99996757507,Tue Dec 02 2025 12:08:44 GMT-0500 (Eastern Standard Time),146085.69999980927,A,f,I,f,635,3,650.0,145435.69999980927,9021,WL,A,6.0
1,10.381999969482422,learn,49618.00003051758,Tue Dec 02 2025 12:08:44 GMT-0500 (Eastern Standard Time),146702.19999980927,A,,I,backspace,606,3,1266.5,145435.69999980927,9021,WL,A,6.0
1,10.681999921798706,learn,49318.000078201294,Tue Dec 02 2025 12:08:44 GMT-0500 (Eastern Standard Time),147002.29999995232,A,r,I,r,279,3,1566.6000001430511,145435.69999980927,9021,WL,A,6.0
1,10.881999969482422,learn,49118.00003051758,Tue Dec 02 2025 12:08:44 GMT-0500 (Eastern Standard Time),147202.29999995232,A,ru,I,u,184,3,1766.6000001430511,145435.69999980927,9021,WL,A,6.0
1,11.198999881744385,learn,48801.000118255615,Tue Dec 02 2025 12:08:44 GMT-0500 (Eastern Standard Time),147518.69999980927,A,rug,I,g,306,3,2083.0,145435.69999980927,9021,WL,A,6.0
1,12.964999914169312,learn,47035.00008583069,Tue Dec 02 2025 12:08:44 GMT-0500 (Eastern Standard Time),149285.19999980927,A,rugenter,I,enter,1748,3,3849.5,145435.69999980927,9021,WL,A,6.0
1,13.3989999294281,learn,46601.0000705719,Tue Dec 02 2025 12:08:44 GMT-0500 (Eastern Standard Time),149719.09999990463,A,w,I,w,417,3,433.5,149285.59999990463,9021,WL,A,7.0
1,13.498999834060669,learn,46501.00016593933,Tue Dec 02 2025 12:08:44 GMT-0500 (Eastern Standard Time),149819.0,A,wi,I,i,75,3,533.4000000953674,149285.59999990463,9021,WL,A,7.0
1,13.715999841690063,learn,46284.00015830994,Tue Dec 02 2025 12:08:44 GMT-0500 (Eastern Standard Time),150035.59999990463,A,win,I,n,198,3,750.0,149285.59999990463,9021,WL,A,7.0
1,13.832000017166138,learn,46167.99998283386,Tue Dec 02 2025 12:08:44 GMT-0500 (Eastern Standard Time),150152.39999985695,A,wind,I,d,87,3,866.7999999523163,149285.59999990463,9021,WL,A,7.0
1,14.014999866485596,learn,45985.000133514404,Tue Dec 02 2025 12:08:44 GMT-0500 (Eastern Standard Time),150335.5,A,windo,I,o,162,3,1049.9000000953674,149285.59999990463,9021,WL,A,7.0
1,14.348999977111816,learn,45651.00002288818,Tue Dec 02 2025 12:08:44 GMT-0500 (Eastern Standard Time),150669.0,A,window,I,w,307,3,1383.4000000953674,149285.59999990463,9021,WL,A,7.0
1,14.747999906539917,learn,45252.00009346008,Tue Dec 02 2025 12:08:44 GMT-0500 (Eastern Standard Time),151068.59999990463,A,windowenter,I,enter,375,3,1783.0,149285.59999990463,9021,WL,A,7.0
1,15.131999969482422,learn,44868.00003051758,Tue Dec 02 2025 12:08:44 GMT-0500 (Eastern Standard Time),151452.29999995232,A,s,I,s,361,3,383.2000000476837,151069.09999990463,9021,WL,A,8.0
1,15.299000024795532,learn,44700.99997520447,Tue Dec 02 2025 12:08:44 GMT-0500 (Eastern Standard Time),151619.0,A,sa,I,a,154,3,549.9000000953674,151069.09999990463,9021,WL,A,8.0
1,15.465999841690063,learn,44534.00015830994,Tue Dec 02 2025 12:08:44 GMT-0500 (Eastern Standard Time),151785.59999990463,A,sal,I,l,146,3,716.5,151069.09999990463,9021,WL,A,8.0
1,15.848999977111816,learn,44151.00002288818,Tue Dec 02 2025 12:08:44 GMT-0500 (Eastern Standard Time),152169.0,A,salt,I,t,352,3,1099.9000000953674,151069.09999990463,9021,WL,A,8.0
1,16.164999961853027,learn,43835.00003814697,Tue Dec 02 2025 12:08:44 GMT-0500 (Eastern Standard Time),152485.19999980927,A,saltenter,I,enter,297,3,1416.0999999046326,151069.09999990463,9021,WL,A,8.0
1,16.81500005722046,learn,43184.99994277954,Tue Dec 02 2025 12:08:44 GMT-0500 (Eastern Standard Time),153135.59999990463,A,m,I,m,642,3,650.0,152485.59999990463,9021,WL,A,9.0
1,16.8989999294281,learn,43101.0000705719,Tue Dec 02 2025 12:08:44 GMT-0500 (Eastern Standard Time),153219.19999980927,A,me,I,e,66,3,733.5999999046326,152485.59999990463,9021,WL,A,9.0
1,17.049000024795532,learn,42950.99997520447,Tue Dec 02 2025 12:08:44 GMT-0500 (Eastern Standard Time),153369.19999980927,A,mea,I,a,120,3,883.5999999046326,152485.59999990463,9021,WL,A,9.0
1,17.24899983406067,learn,42751.00016593933,Tue Dec 02 2025 12:08:44 GMT-0500 (Eastern Standard Time),153569.09999990463,A,mead,I,d,179,3,1083.5,152485.59999990463,9021,WL,A,9.0
1,17.49899983406067,learn,42501.00016593933,Tue Dec 02 2025 12:08:44 GMT-0500 (Eastern Standard Time),153819.0,A,meado,I,o,228,3,1333.4000000953674,152485.59999990463,9021,WL,A,9.0
1,17.848999977111816,learn,42151.00002288818,Tue Dec 02 2025 12:08:44 GMT-0500 (Eastern Standard Time),154169.0,A,meadow,I,w,320,3,1683.4000000953674,152485.59999990463,9021,WL,A,9.0
1,18.281999826431274,learn,41718.000173568726,Tue Dec 02 2025 12:08:44 GMT-0500 (Eastern Standard Time),154601.79999995232,A,meadowenter,I,enter,411,3,2116.2000000476837,152485.59999990463,9021,WL,A,9.0
1,18.681999921798706,learn,41318.000078201294,Tue Dec 02 2025 12:08:44 GMT-0500 (Eastern Standard Time),155002.29999995232,A,f,I,f,382,3,400.10000014305115,154602.19999980927,9021,WL,A,10.0
1,18.799000024795532,learn,41200.99997520447,Tue Dec 02 2025 12:08:44 GMT-0500 (Eastern Standard Time),155118.69999980927,A,fl,I,l,86,3,516.5,154602.19999980927,9021,WL,A,10.0
1,19.299000024795532,learn,40700.99997520447,Tue Dec 02 2025 12:08:44 GMT-0500 (Eastern Standard Time),155619.0,A,flo,I,o,483,3,1016.8000001907349,154602.19999980927,9021,WL,A,10.0
1,19.448999881744385,learn,40551.000118255615,Tue Dec 02 2025 12:08:44 GMT-0500 (Eastern Standard Time),155769.0,A,flow,I,w,129,3,1166.8000001907349,154602.19999980927,9021,WL,A,10.0
1,19.56599998474121,learn,40434.00001525879,Tue Dec 02 2025 12:08:44 GMT-0500 (Eastern Standard Time),155885.69999980927,A,flowe,I,e,91,3,1283.5,154602.19999980927,9021,WL,A,10.0
1,19.631999969482422,learn,40368.00003051758,Tue Dec 02 2025 12:08:44 GMT-0500 (Eastern Standard Time),155952.0,A,flower,I,r,53,3,1349.8000001907349,154602.19999980927,9021,WL,A,10.0
1,20.14800000190735,learn,39851.99999809265,Tue Dec 02 2025 12:08:44 GMT-0500 (Eastern Standard Time),156468.39999985695,A,flowerenter,I,enter,494,3,1866.2000000476837,154602.19999980927,9021,WL,A,10.0
1,20.56599998474121,learn,39434.00001525879,Tue Dec 02 2025 12:08:44 GMT-0500 (Eastern Standard Time),156885.69999980927,A,f,I,f,403,3,416.89999985694885,156468.79999995232,9021,WL,A,11.0
1,20.681999921798706,learn,39318.000078201294,Tue Dec 02 2025 12:08:44 GMT-0500 (Eastern Standard Time),157002.29999995232,A,fi,I,i,94,3,533.5,156468.79999995232,9021,WL,A,11.0
1,20.8989999294281,learn,39101.0000705719,Tue Dec 02 2025 12:08:44 GMT-0500 (Eastern Standard Time),157219.09999990463,A,fin,I,n,202,3,750.2999999523163,156468.79999995232,9021,WL,A,11.0
1,21.049000024795532,learn,38950.99997520447,Tue Dec 02 2025 12:08:44 GMT-0500 (Eastern Standard Time),157369.0,A,fing,I,g,129,3,900.2000000476837,156468.79999995232,9021,WL,A,11.0
1,21.48199987411499,learn,38518.00012588501,Tue Dec 02 2025 12:08:44 GMT-0500 (Eastern Standard Time),157802.19999980927,A,finge,I,e,402,3,1333.3999998569489,156468.79999995232,9021,WL,A,11.0
1,21.5479998588562,learn,38452.0001411438,Tue Dec 02 2025 12:08:44 GMT-0500 (Eastern Standard Time),157868.59999990463,A,finger,I,r,39,3,1399.7999999523163,156468.79999995232,9021,WL,A,11.0
1,21.98300004005432,learn,38016.99995994568,Tue Dec 02 2025 12:08:44 GMT-0500 (Eastern Standard Time),158302.89999985695,A,fingerenter,I,enter,423,3,1834.0999999046326,156468.79999995232,9021,WL,A,11.0
1,22.348999977111816,learn,37651.00002288818,Tue Dec 02 2025 12:08:44 GMT-0500 (Eastern Standard Time),158669.09999990463,A,b,I,b,344,3,365.90000009536743,158303.19999980927,9021,WL,A,12.0
1,22.549000024795532,learn,37450.99997520447,Tue Dec 02 2025 12:08:44 GMT-0500 (Eastern Standard Time),158869.0,A,bu,I,u,184,3,565.8000001907349,158303.19999980927,9021,WL,A,12.0
1,22.74899983406067,learn,37251.00016593933,Tue Dec 02 2025 12:08:44 GMT-0500 (Eastern Standard Time),159069.0,A,but,I,t,172,3,765.8000001907349,158303.19999980927,9021,WL,A,12.0
1,22.931999921798706,learn,37068.000078201294,Tue Dec 02 2025 12:08:44 GMT-0500 (Eastern Standard Time),159252.39999985695,A,butt,I,t,168,3,949.2000000476837,158303.19999980927,9021,WL,A,12.0
1,23.014999866485596,learn,36985.000133514404,Tue Dec 02 2025 12:08:44 GMT-0500 (Eastern Standard Time),159335.59999990463,A,butto,I,o,54,3,1032.4000000953674,158303.19999980927,9021,WL,A,12.0
1,23.299000024795532,learn,36700.99997520447,Tue Dec 02 2025 12:08:44 GMT-0500 (Eastern Standard Time),159619.09999990463,A,button,I,n,261,3,1315.9000000953674,158303.19999980927,9021,WL,A,12.0
1,25.89800000190735,learn,34101.99999809265,Tue Dec 02 2025 12:08:44 GMT-0500 (Eastern Standard Time),162218.5,A,buttonenter,I,enter,2575,3,3915.300000190735,158303.19999980927,9021,WL,A,12.0
1,31.615000009536743,learn,28384.999990463257,Tue Dec 02 2025 12:08:44 GMT-0500 (Eastern Standard Time),167935.09999990463,A,enter,I,enter,5708,3,5716.200000047684,162218.89999985695,9021,WL,A,13.0
1,32.41499996185303,learn,27585.000038146973,Tue Dec 02 2025 12:08:44 GMT-0500 (Eastern Standard Time),168735.09999990463,A,enter,I,enter,791,3,799.5999999046326,167935.5,9021,WL,A,14.0
1,32.88199996948242,learn,27118.000030517578,Tue Dec 02 2025 12:08:44 GMT-0500 (Eastern Standard Time),169201.89999985695,A,enter,I,enter,455,3,466.39999985694885,168735.5,9021,WL,A,15.0
2,0.5339999198913574,learn,59466.00008010864,Tue Dec 02 2025 12:08:44 GMT-0500 (Eastern Standard Time),238269.09999990463,A,g,I,g,509,3,533.0999999046326,237736.0,9021,WL,A,1.0
2,0.6169998645782471,learn,59383.00013542175,Tue Dec 02 2025 12:08:44 GMT-0500 (Eastern Standard Time),238352.19999980927,A,go,I,o,69,3,616.1999998092651,237736.0,9021,WL,A,1.0
2,0.8510000705718994,learn,59148.9999294281,Tue Dec 02 2025 12:08:44 GMT-0500 (Eastern Standard Time),238585.69999980927,A,gol,I,l,212,3,849.6999998092651,237736.0,9021,WL,A,1.0
2,0.9839999675750732,learn,59016.00003242493,Tue Dec 02 2025 12:08:44 GMT-0500 (Eastern Standard Time),238718.79999995232,A,gold,I,d,120,3,982.7999999523163,237736.0,9021,WL,A,1.0
2,1.8329999446868896,learn,58167.00005531311,Tue Dec 02 2025 12:08:44 GMT-0500 (Eastern Standard Time),239568.5,A,goldenter,I,enter,838,3,1832.5,237736.0,9021,WL,A,1.0
2,2.25,learn,57750.0,Tue Dec 02 2025 12:08:44 GMT-0500 (Eastern Standard Time),239985.39999985695,A,l,I,l,407,3,416.59999990463257,239568.79999995232,9021,WL,A,2.0
2,2.4839999675750732,learn,57516.00003242493,Tue Dec 02 2025 12:08:44 GMT-0500 (Eastern Standard Time),240219.0,A,lo,I,o,209,3,650.2000000476837,239568.79999995232,9021,WL,A,2.0
2,3.0339999198913574,learn,56966.00008010864,Tue Dec 02 2025 12:08:44 GMT-0500 (Eastern Standard Time),240768.89999985695,A,log,I,g,536,3,1200.0999999046326,239568.79999995232,9021,WL,A,2.0
2,3.616999864578247,learn,56383.00013542175,Tue Dec 02 2025 12:08:44 GMT-0500 (Eastern Standard Time),241351.69999980927,A,logenter,I,enter,562,3,1782.8999998569489,239568.79999995232,9021,WL,A,2.0
2,4.083999872207642,learn,55916.00012779236,Tue Dec 02 2025 12:08:44 GMT-0500 (Eastern Standard Time),241819.0,A,b,I,b,446,3,466.90000009536743,241352.09999990463,9021,WL,A,3.0
2,4.316999912261963,learn,55683.00008773804,Tue Dec 02 2025 12:08:44 GMT-0500 (Eastern Standard Time),242052.19999980927,A,bo,I,o,216,3,700.0999999046326,241352.09999990463,9021,WL,A,3.0
2,4.5,learn,55500.0,Tue Dec 02 2025 12:08:44 GMT-0500 (Eastern Standard Time),242235.39999985695,A,boo,I,o,158,3,883.2999999523163,241352.09999990463,9021,WL,A,3.0
2,4.866999864578247,learn,55133.00013542175,Tue Dec 02 2025 12:08:44 GMT-0500 (Eastern Standard Time),242602.19999980927,A,book,I,k,347,3,1250.0999999046326,241352.09999990463,9021,WL,A,3.0
2,5.33299994468689,learn,54667.00005531311,Tue Dec 02 2025 12:08:44 GMT-0500 (Eastern Standard Time),243068.39999985695,A,bookenter,I,enter,441,3,1716.2999999523163,241352.09999990463,9021,WL,A,3.0
2,5.849999904632568,learn,54150.00009536743,Tue Dec 02 2025 12:08:44 GMT-0500 (Eastern Standard Time),243585.59999990463,A,r,I,r,506,3,516.7999999523163,243068.79999995232,9021,WL,A,4.0
2,6.049999952316284,learn,53950.000047683716,Tue Dec 02 2025 12:08:44 GMT-0500 (Eastern Standard Time),243785.59999990463,A,ra,I,a,177,3,716.7999999523163,243068.79999995232,9021,WL,A,4.0
2,6.150000095367432,learn,53849.99990463257,Tue Dec 02 2025 12:08:44 GMT-0500 (Eastern Standard Time),243885.5,A,rat,I,t,72,3,816.7000000476837,243068.79999995232,9021,WL,A,4.0
2,6.316999912261963,learn,53683.00008773804,Tue Dec 02 2025 12:08:44 GMT-0500 (Eastern Standard Time),244052.29999995232,A,ratt,I,t,150,3,983.5,243068.79999995232,9021,WL,A,4.0
2,6.483999967575073,learn,53516.00003242493,Tue Dec 02 2025 12:08:44 GMT-0500 (Eastern Standard Time),244219.0,A,rattl,I,l,142,3,1150.2000000476837,243068.79999995232,9021,WL,A,4.0
2,6.66700005531311,learn,53332.99994468689,Tue Dec 02 2025 12:08:44 GMT-0500 (Eastern Standard Time),244402.19999980927,A,rattle,I,e,161,3,1333.3999998569489,243068.79999995232,9021,WL,A,4.0
2,7.0,learn,53000.0,Tue Dec 02 2025 12:08:44 GMT-0500 (Eastern Standard Time),244735.09999990463,A,rattleenter,I,enter,321,3,1666.2999999523163,243068.79999995232,9021,WL,A,4.0
2,7.566999912261963,learn,52433.00008773804,Tue Dec 02 2025 12:08:44 GMT-0500 (Eastern Standard Time),245302.29999995232,A,k,I,k,553,3,566.9000000953674,244735.39999985695,9021,WL,A,5.0
2,7.733999967575073,learn,52266.00003242493,Tue Dec 02 2025 12:08:44 GMT-0500 (Eastern Standard Time),245468.79999995232,A,ke,I,e,142,3,733.4000000953674,244735.39999985695,9021,WL,A,5.0
2,7.934000015258789,learn,52065.99998474121,Tue Dec 02 2025 12:08:44 GMT-0500 (Eastern Standard Time),245668.89999985695,A,key,I,y,184,3,933.5,244735.39999985695,9021,WL,A,5.0
2,8.782999992370605,learn,51217.000007629395,Tue Dec 02 2025 12:08:44 GMT-0500 (Eastern Standard Time),246518.39999985695,A,keyenter,I,enter,822,3,1783.0,244735.39999985695,9021,WL,A,5.0
2,9.16700005531311,learn,50832.99994468689,Tue Dec 02 2025 12:08:44 GMT-0500 (Eastern Standard Time),246902.19999980927,A,l,I,l,368,3,383.39999985694885,246518.79999995232,9021,WL,A,6.0
2,9.400000095367432,learn,50599.99990463257,Tue Dec 02 2025 12:08:44 GMT-0500 (Eastern Standard Time),247135.39999985695,A,lo,I,o,220,3,616.5999999046326,246518.79999995232,9021,WL,A,6.0
2,9.516999959945679,learn,50483.00004005432,Tue Dec 02 2025 12:08:44 GMT-0500 (Eastern Standard Time),247252.29999995232,A,loc,I,c,101,3,733.5,246518.79999995232,9021,WL,A,6.0
2,9.785000085830688,learn,50214.99991416931,Tue Dec 02 2025 12:08:44 GMT-0500 (Eastern Standard Time),247519.79999995232,A,lock,I,k,253,3,1001.0,246518.79999995232,9021,WL,A,6.0
2,10.116999864578247,learn,49883.00013542175,Tue Dec 02 2025 12:08:44 GMT-0500 (Eastern Standard Time),247851.79999995232,A,lockenter,I,enter,307,3,1333.0,246518.79999995232,9021,WL,A,6.0
2,10.884000062942505,learn,49115.999937057495,Tue Dec 02 2025 12:08:44 GMT-0500 (Eastern Standard Time),248619.0,A,b,I,b,747,3,766.9000000953674,247852.09999990463,9021,WL,A,7.0
2,11.049999952316284,learn,48950.000047683716,Tue Dec 02 2025 12:08:44 GMT-0500 (Eastern Standard Time),248785.5,A,bo,I,o,151,3,933.4000000953674,247852.09999990463,9021,WL,A,7.0
2,11.233999967575073,learn,48766.00003242493,Tue Dec 02 2025 12:08:44 GMT-0500 (Eastern Standard Time),248968.79999995232,A,boo,I,o,163,3,1116.7000000476837,247852.09999990463,9021,WL,A,7.0
2,11.483999967575073,learn,48516.00003242493,Tue Dec 02 2025 12:08:44 GMT-0500 (Eastern Standard Time),249219.0,A,book,I,k,236,3,1366.9000000953674,247852.09999990463,9021,WL,A,7.0
2,11.75,learn,48250.0,Tue Dec 02 2025 12:08:44 GMT-0500 (Eastern Standard Time),249485.09999990463,A,bookenter,I,enter,257,3,1633.0,247852.09999990463,9021,WL,A,7.0
2,12.099999904632568,learn,47900.00009536743,Tue Dec 02 2025 12:08:44 GMT-0500 (Eastern Standard Time),249835.39999985695,A,t,I,t,329,3,350.0,249485.39999985695,9021,WL,A,8.0
2,12.316999912261963,learn,47683.00008773804,Tue Dec 02 2025 12:08:44 GMT-0500 (Eastern Standard Time),250052.39999985695,A,tr,I,r,200,3,567.0,249485.39999985695,9021,WL,A,8.0
2,12.450000047683716,learn,47549.999952316284,Tue Dec 02 2025 12:08:44 GMT-0500 (Eastern Standard Time),250185.5,A,tra,I,a,101,3,700.1000001430511,249485.39999985695,9021,WL,A,8.0
2,12.549999952316284,learn,47450.000047683716,Tue Dec 02 2025 12:08:44 GMT-0500 (Eastern Standard Time),250285.59999990463,A,trai,I,i,74,3,800.2000000476837,249485.39999985695,9021,WL,A,8.0
2,12.733999967575073,learn,47266.00003242493,Tue Dec 02 2025 12:08:44 GMT-0500 (Eastern Standard Time),250468.89999985695,A,train,I,n,166,3,983.5,249485.39999985695,9021,WL,A,8.0
2,13.183000087738037,learn,46816.99991226196,Tue Dec 02 2025 12:08:44 GMT-0500 (Eastern Standard Time),250918.39999985695,A,trainenter,I,enter,423,3,1433.0,249485.39999985695,9021,WL,A,8.0
2,13.533999919891357,learn,46466.00008010864,Tue Dec 02 2025 12:08:44 GMT-0500 (Eastern Standard Time),251268.89999985695,A,f,I,f,336,3,350.09999990463257,250918.79999995232,9021,WL,A,9.0
2,13.66700005531311,learn,46332.99994468689,Tue Dec 02 2025 12:08:44 GMT-0500 (Eastern Standard Time),251402.29999995232,A,fi,I,i,110,3,483.5,250918.79999995232,9021,WL,A,9.0
2,13.866999864578247,learn,46133.00013542175,Tue Dec 02 2025 12:08:44 GMT-0500 (Eastern Standard Time),251602.19999980927,A,fin,I,n,184,3,683.3999998569489,250918.79999995232,9021,WL,A,9.0
2,14.016999959945679,learn,45983.00004005432,Tue Dec 02 2025 12:08:44 GMT-0500 (Eastern Standard Time),251752.29999995232,A,fing,I,g,129,3,833.5,250918.79999995232,9021,WL,A,9.0
2,14.5,learn,45500.0,Tue Dec 02 2025 12:08:44 GMT-0500 (Eastern Standard Time),252235.5,A,finge,I,e,459,3,1316.7000000476837,250918.79999995232,9021,WL,A,9.0
2,14.599999904632568,learn,45400.00009536743,Tue Dec 02 2025 12:08:44 GMT-0500 (Eastern Standard Time),252335.0,A,finger,I,r,87,3,1416.2000000476837,250918.79999995232,9021,WL,A,9.0
2,14.866999864578247,learn,45133.00013542175,Tue Dec 02 2025 12:08:44 GMT-0500 (Eastern Standard Time),252601.69999980927,A,fingerenter,I,enter,248,3,1682.8999998569489,250918.79999995232,9021,WL,A,9.0
2,15.266999959945679,learn,44733.00004005432,Tue Dec 02 2025 12:08:44 GMT-0500 (Eastern Standard Time),253002.29999995232,A,r,I,r,382,3,400.2999999523163,252602.0,9021,WL,A,10.0
2,15.384000062942505,learn,44615.999937057495,Tue Dec 02 2025 12:08:44 GMT-0500 (Eastern Standard Time),253118.89999985695,A,ru,I,u,90,3,516.8999998569489,252602.0,9021,WL,A,10.0
2,15.533999919891357,learn,44466.00008010864,Tue Dec 02 2025 12:08:44 GMT-0500 (Eastern Standard Time),253268.79999995232,A,rug,I,g,132,3,666.7999999523163,252602.0,9021,WL,A,10.0
2,16.15000009536743,learn,43849.99990463257,Tue Dec 02 2025 12:08:44 GMT-0500 (Eastern Standard Time),253885.0,A,rugenter,I,enter,591,3,1283.0,252602.0,9021,WL,A,10.0
2,16.65000009536743,learn,43349.99990463257,Tue Dec 02 2025 12:08:44 GMT-0500 (Eastern Standard Time),254385.5,A,m,I,m,489,3,500.10000014305115,253885.39999985695,9021,WL,A,11.0
2,16.83399987220764,learn,43166.00012779236,Tue Dec 02 2025 12:08:44 GMT-0500 (Eastern Standard Time),254568.89999985695,A,me,I,e,162,3,683.5,253885.39999985695,9021,WL,A,11.0
2,17.01699995994568,learn,42983.00004005432,Tue Dec 02 2025 12:08:44 GMT-0500 (Eastern Standard Time),254752.19999980927,A,mea,I,a,170,3,866.7999999523163,253885.39999985695,9021,WL,A,11.0
2,17.283999919891357,learn,42716.00008010864,Tue Dec 02 2025 12:08:44 GMT-0500 (Eastern Standard Time),255018.89999985695,A,mead,I,d,241,3,1133.5,253885.39999985695,9021,WL,A,11.0
2,17.43400001525879,learn,42565.99998474121,Tue Dec 02 2025 12:08:44 GMT-0500 (Eastern Standard Time),255168.89999985695,A,meado,I,o,137,3,1283.5,253885.39999985695,9021,WL,A,11.0
2,17.616999864578247,learn,42383.00013542175,Tue Dec 02 2025 12:08:44 GMT-0500 (Eastern Standard Time),255352.29999995232,A,meadow,I,w,154,3,1466.9000000953674,253885.39999985695,9021,WL,A,11.0
2,17.866999864578247,learn,42133.00013542175,Tue Dec 02 2025 12:08:44 GMT-0500 (Eastern Standard Time),255601.69999980927,A,meadowenter,I,enter,226,3,1716.2999999523163,253885.39999985695,9021,WL,A,11.0
2,18.233999967575073,learn,41766.00003242493,Tue Dec 02 2025 12:08:44 GMT-0500 (Eastern Standard Time),255968.89999985695,A,s,I,s,357,3,366.89999985694885,255602.0,9021,WL,A,12.0
2,18.43400001525879,learn,41565.99998474121,Tue Dec 02 2025 12:08:44 GMT-0500 (Eastern Standard Time),256169.0,A,sa,I,a,178,3,567.0,255602.0,9021,WL,A,12.0
2,18.566999912261963,learn,41433.00008773804,Tue Dec 02 2025 12:08:44 GMT-0500 (Eastern Standard Time),256302.09999990463,A,sal,I,l,113,3,700.0999999046326,255602.0,9021,WL,A,12.0
2,18.967000007629395,learn,41032.999992370605,Tue Dec 02 2025 12:08:44 GMT-0500 (Eastern Standard Time),256702.09999990463,A,salt,I,t,390,3,1100.0999999046326,255602.0,9021,WL,A,12.0
2,19.33299994468689,learn,40667.00005531311,Tue Dec 02 2025 12:08:44 GMT-0500 (Eastern Standard Time),257068.39999985695,A,saltenter,I,enter,342,3,1466.3999998569489,255602.0,9021,WL,A,12.0
2,19.884000062942505,learn,40115.999937057495,Tue Dec 02 2025 12:08:44 GMT-0500 (Eastern Standard Time),257618.79999995232,A,h,I,h,539,3,550.1000001430511,257068.69999980927,9021,WL,A,13.0
2,19.983999967575073,learn,40016.00003242493,Tue Dec 02 2025 12:08:44 GMT-0500 (Eastern Standard Time),257718.89999985695,A,ha,I,a,81,3,650.2000000476837,257068.69999980927,9021,WL,A,13.0
2,20.066999912261963,learn,39933.00008773804,Tue Dec 02 2025 12:08:44 GMT-0500 (Eastern Standard Time),257802.19999980927,A,har,I,r,60,3,733.5,257068.69999980927,9021,WL,A,13.0
2,20.84999990463257,learn,39150.00009536743,Tue Dec 02 2025 12:08:44 GMT-0500 (Eastern Standard Time),258585.0,A,harm,I,m,760,3,1516.3000001907349,257068.69999980927,9021,WL,A,13.0
2,22.049999952316284,learn,37950.000047683716,Tue Dec 02 2025 12:08:44 GMT-0500 (Eastern Standard Time),259785.5,A,har,I,backspace,1182,3,2716.800000190735,257068.69999980927,9021,WL,A,13.0
2,22.5,learn,37500.0,Tue Dec 02 2025 12:08:44 GMT-0500 (Eastern Standard Time),260235.59999990463,A,harp,I,p,425,3,3166.9000000953674,257068.69999980927,9021,WL,A,13.0
2,23.33299994468689,learn,36667.00005531311,Tue Dec 02 2025 12:08:44 GMT-0500 (Eastern Standard Time),261068.39999985695,A,harpenter,I,enter,806,3,3999.7000000476837,257068.69999980927,9021,WL,A,13.0
2,24.049999952316284,learn,35950.000047683716,Tue Dec 02 2025 12:08:44 GMT-0500 (Eastern Standard Time),261785.59999990463,A,b,I,b,698,3,716.9000000953674,261068.69999980927,9021,WL,A,14.0
2,24.16700005531311,learn,35832.99994468689,Tue Dec 02 2025 12:08:44 GMT-0500 (Eastern Standard Time),261902.39999985695,A,bu,I,u,89,3,833.7000000476837,261068.69999980927,9021,WL,A,14.0
2,24.34999990463257,learn,35650.00009536743,Tue Dec 02 2025 12:08:44 GMT-0500 (Eastern Standard Time),262085.59999990463,A,but,I,t,156,3,1016.9000000953674,261068.69999980927,9021,WL,A,14.0
2,24.566999912261963,learn,35433.00008773804,Tue Dec 02 2025 12:08:44 GMT-0500 (Eastern Standard Time),262302.19999980927,A,butt,I,t,207,3,1233.5,261068.69999980927,9021,WL,A,14.0
2,24.65000009536743,learn,35349.99990463257,Tue Dec 02 2025 12:08:44 GMT-0500 (Eastern Standard Time),262385.5,A,butto,I,o,70,3,1316.8000001907349,261068.69999980927,9021,WL,A,14.0
2,24.91700005531311,learn,35082.99994468689,Tue Dec 02 2025 12:08:44 GMT-0500 (Eastern Standard Time),262652.2999999523,A,button,I,n,241,3,1583.6000001430511,261068.69999980927,9021,WL,A,14.0
2,25.33299994468689,learn,34667.00005531311,Tue Dec 02 2025 12:08:44 GMT-0500 (Eastern Standard Time),263068.39999985695,A,buttonenter,I,enter,391,3,1999.7000000476837,261068.69999980927,9021,WL,A,14.0
2,26.717000007629395,learn,33282.999992370605,Tue Dec 02 2025 12:08:44 GMT-0500 (Eastern Standard Time),264451.69999980927,A,enter,I,enter,1370,3,1383.0,263068.69999980927,9021,WL,A,15.0
3,0.75,learn,59250.0,Tue Dec 02 2025 12:08:44 GMT-0500 (Eastern Standard Time),331502.09999990463,A,k,I,k,742,3,749.4000000953674,330752.69999980927,9021,WL,A,1.0
3,1.2000000476837158,learn,58799.999952316284,Tue Dec 02 2025 12:08:44 GMT-0500 (Eastern Standard Time),331951.89999985695,A,ke,I,e,435,3,1199.2000000476837,330752.69999980927,9021,WL,A,1.0
3,1.3670001029968262,learn,58632.999897003174,Tue Dec 02 2025 12:08:44 GMT-0500 (Eastern Standard Time),332118.7999999523,A,key,I,y,149,3,1366.1000001430511,330752.69999980927,9021,WL,A,1.0
3,1.815999984741211,learn,58184.00001525879,Tue Dec 02 2025 12:08:44 GMT-0500 (Eastern Standard Time),332568.19999980927,A,keyenter,I,enter,430,3,1815.5,330752.69999980927,9021,WL,A,1.0
3,2.1670000553131104,learn,57832.99994468689,Tue Dec 02 2025 12:08:44 GMT-0500 (Eastern Standard Time),332918.7999999523,A,l,I,l,334,3,350.2000000476837,332568.59999990463,9021,WL,A,2.0
3,2.368000030517578,learn,57631.99996948242,Tue Dec 02 2025 12:08:44 GMT-0500 (Eastern Standard Time),333119.69999980927,A,lo,I,o,187,3,551.0999999046326,332568.59999990463,9021,WL,A,2.0
3,2.549999952316284,learn,57450.000047683716,Tue Dec 02 2025 12:08:44 GMT-0500 (Eastern Standard Time),333302.19999980927,A,log,I,g,165,3,733.5999999046326,332568.59999990463,9021,WL,A,2.0
3,3.065999984741211,learn,56934.00001525879,Tue Dec 02 2025 12:08:44 GMT-0500 (Eastern Standard Time),333818.39999985695,A,logenter,I,enter,493,3,1249.7999999523163,332568.59999990463,9021,WL,A,2.0
3,3.4670000076293945,learn,56532.999992370605,Tue Dec 02 2025 12:08:44 GMT-0500 (Eastern Standard Time),334218.7999999523,A,r,I,r,381,3,400.2000000476837,333818.59999990463,9021,WL,A,3.0
3,3.6500000953674316,learn,56349.99990463257,Tue Dec 02 2025 12:08:44 GMT-0500 (Eastern Standard Time),334402.09999990463,A,ra,I,a,168,3,583.5,333818.59999990463,9021,WL,A,3.0
3,3.950000047683716,learn,56049.999952316284,Tue Dec 02 2025 12:08:44 GMT-0500 (Eastern Standard Time),334702.19999980927,A,rat,I,t,265,3,883.5999999046326,333818.59999990463,9021,WL,A,3.0
3,4.133000135421753,learn,55866.99986457825,Tue Dec 02 2025 12:08:44 GMT-0500 (Eastern Standard Time),334885.5,A,ratt,I,t,165,3,1066.9000000953674,333818.59999990463,9021,WL,A,3.0
3,4.266999959945679,learn,55733.00004005432,Tue Dec 02 2025 12:08:44 GMT-0500 (Eastern Standard Time),335018.7999999523,A,rattl,I,l,105,3,1200.2000000476837,333818.59999990463,9021,WL,A,3.0
3,4.433000087738037,learn,55566.99991226196,Tue Dec 02 2025 12:08:44 GMT-0500 (Eastern Standard Time),335185.5,A,rattle,I,e,152,3,1366.9000000953674,333818.59999990463,9021,WL,A,3.0
3,5.58299994468689,learn,54417.00005531311,Tue Dec 02 2025 12:08:44 GMT-0500 (Eastern Standard Time),336334.89999985695,A,rattleenter,I,enter,1131,3,2516.2999999523163,333818.59999990463,9021,WL,A,3.0
3,7.617000102996826,learn,52382.999897003174,Tue Dec 02 2025 12:08:44 GMT-0500 (Eastern Standard Time),338368.69999980927,A,c,I,c,2024,3,2033.3999998569489,336335.2999999523,9021,WL,A,4.0
3,7.950000047683716,learn,52049.999952316284,Tue Dec 02 2025 12:08:44 GMT-0500 (Eastern Standard Time),338702.09999990463,A,ch,I,h,306,3,2366.7999999523163,336335.2999999523,9021,WL,A,4.0
3,8.099999904632568,learn,51900.00009536743,Tue Dec 02 2025 12:08:44 GMT-0500 (Eastern Standard Time),338852.0,A,chi,I,i,134,3,2516.7000000476837,336335.2999999523,9021,WL,A,4.0
3,8.41700005531311,learn,51582.99994468689,Tue Dec 02 2025 12:08:44 GMT-0500 (Eastern Standard Time),339168.7999999523,A,chim,I,m,296,3,2833.5,336335.2999999523,9021,WL,A,4.0
3,9.483000040054321,learn,50516.99995994568,Tue Dec 02 2025 12:08:44 GMT-0500 (Eastern Standard Time),340235.5,A,chimn,I,n,1043,3,3900.2000000476837,336335.2999999523,9021,WL,A,4.0
3,9.599999904632568,learn,50400.00009536743,Tue Dec 02 2025 12:08:44 GMT-0500 (Eastern Standard Time),340351.89999985695,A,chimne,I,e,104,3,4016.5999999046326,336335.2999999523,9021,WL,A,4.0
3,9.766999959945679,learn,50233.00004005432,Tue Dec 02 2025 12:08:44 GMT-0500 (Eastern Standard Time),340518.7999999523,A,chimney,I,y,147,3,4183.5,336335.2999999523,9021,WL,A,4.0
3,10.166000127792358,learn,49833.99987220764,Tue Dec 02 2025 12:08:44 GMT-0500 (Eastern Standard Time),340918.39999985695,A,chimneyenter,I,enter,380,3,4583.099999904633,336335.2999999523,9021,WL,A,4.0
3,10.483000040054321,learn,49516.99995994568,Tue Dec 02 2025 12:08:44 GMT-0500 (Eastern Standard Time),341235.39999985695,A,t,I,t,304,3,316.7000000476837,340918.69999980927,9021,WL,A,5.0
3,10.700000047683716,learn,49299.999952316284,Tue Dec 02 2025 12:08:44 GMT-0500 (Eastern Standard Time),341452.09999990463,A,tr,I,r,193,3,533.4000000953674,340918.69999980927,9021,WL,A,5.0
3,10.782999992370605,learn,49217.000007629395,Tue Dec 02 2025 12:08:44 GMT-0500 (Eastern Standard Time),341535.39999985695,A,tra,I,a,71,3,616.7000000476837,340918.69999980927,9021,WL,A,5.0
3,10.91700005531311,learn,49082.99994468689,Tue Dec 02 2025 12:08:44 GMT-0500 (Eastern Standard Time),341668.7999999523,A,trai,I,i,107,3,750.1000001430511,340918.69999980927,9021,WL,A,5.0
3,11.233000040054321,learn,48766.99995994568,Tue Dec 02 2025 12:08:44 GMT-0500 (Eastern Standard Time),341985.39999985695,A,train,I,n,294,3,1066.7000000476837,340918.69999980927,9021,WL,A,5.0
3,11.532999992370605,learn,48467.000007629395,Tue Dec 02 2025 12:08:44 GMT-0500 (Eastern Standard Time),342285.09999990463,A,trainenter,I,enter,289,3,1366.4000000953674,340918.69999980927,9021,WL,A,5.0
3,12.150000095367432,learn,47849.99990463257,Tue Dec 02 2025 12:08:44 GMT-0500 (Eastern Standard Time),342902.19999980927,A,f,I,f,602,3,616.8999998569489,342285.2999999523,9021,WL,A,6.0
3,12.318000078201294,learn,47681.999921798706,Tue Dec 02 2025 12:08:44 GMT-0500 (Eastern Standard Time),343070.09999990463,A,fl,I,l,140,3,784.7999999523163,342285.2999999523,9021,WL,A,6.0
3,12.5,learn,47500.0,Tue Dec 02 2025 12:08:44 GMT-0500 (Eastern Standard Time),343251.89999985695,A,flo,I,o,169,3,966.5999999046326,342285.2999999523,9021,WL,A,6.0
3,12.58299994468689,learn,47417.00005531311,Tue Dec 02 2025 12:08:44 GMT-0500 (Eastern Standard Time),343335.0,A,flow,I,w,56,3,1049.7000000476837,342285.2999999523,9021,WL,A,6.0
3,13.08299994468689,learn,46917.00005531311,Tue Dec 02 2025 12:08:44 GMT-0500 (Eastern Standard Time),343835.39999985695,A,flowr,I,r,477,3,1550.0999999046326,342285.2999999523,9021,WL,A,6.0
3,15.0,learn,45000.0,Tue Dec 02 2025 12:08:44 GMT-0500 (Eastern Standard Time),345752.19999980927,A,flow,I,backspace,1893,3,3466.899999856949,342285.2999999523,9021,WL,A,6.0
3,15.233000040054321,learn,44766.99995994568,Tue Dec 02 2025 12:08:44 GMT-0500 (Eastern Standard Time),345985.39999985695,A,flowe,I,e,217,3,3700.0999999046326,342285.2999999523,9021,WL,A,6.0
3,15.367000102996826,learn,44632.999897003174,Tue Dec 02 2025 12:08:44 GMT-0500 (Eastern Standard Time),346118.69999980927,A,flower,I,r,114,3,3833.399999856949,342285.2999999523,9021,WL,A,6.0
3,15.815999984741211,learn,44184.00001525879,Tue Dec 02 2025 12:08:44 GMT-0500 (Eastern Standard Time),346568.2999999523,A,flowerenter,I,enter,422,3,4283.0,342285.2999999523,9021,WL,A,6.0
3,16.199000120162964,learn,43800.999879837036,Tue Dec 02 2025 12:08:44 GMT-0500 (Eastern Standard Time),346951.5,A,r,I,r,366,3,382.90000009536743,346568.59999990463,9021,WL,A,7.0
3,16.33299994468689,learn,43667.00005531311,Tue Dec 02 2025 12:08:44 GMT-0500 (Eastern Standard Time),347085.2999999523,A,ru,I,u,110,3,516.7000000476837,346568.59999990463,9021,WL,A,7.0
3,16.5,learn,43500.0,Tue Dec 02 2025 12:08:44 GMT-0500 (Eastern Standard Time),347252.09999990463,A,rug,I,g,143,3,683.5,346568.59999990463,9021,WL,A,7.0
3,16.83299994468689,learn,43167.00005531311,Tue Dec 02 2025 12:08:44 GMT-0500 (Eastern Standard Time),347585.0,A,rugenter,I,enter,312,3,1016.4000000953674,346568.59999990463,9021,WL,A,7.0
3,17.316999912261963,learn,42683.00008773804,Tue Dec 02 2025 12:08:44 GMT-0500 (Eastern Standard Time),348068.7999999523,A,m,I,m,469,3,483.5,347585.2999999523,9021,WL,A,8.0
3,17.433000087738037,learn,42566.99991226196,Tue Dec 02 2025 12:08:44 GMT-0500 (Eastern Standard Time),348185.39999985695,A,me,I,e,95,3,600.0999999046326,347585.2999999523,9021,WL,A,8.0
3,17.566999912261963,learn,42433.00008773804,Tue Dec 02 2025 12:08:44 GMT-0500 (Eastern Standard Time),348318.89999985695,A,mea,I,a,106,3,733.5999999046326,347585.2999999523,9021,WL,A,8.0
3,17.816999912261963,learn,42183.00008773804,Tue Dec 02 2025 12:08:44 GMT-0500 (Eastern Standard Time),348568.69999980927,A,mead,I,d,221,3,983.3999998569489,347585.2999999523,9021,WL,A,8.0
3,18.0,learn,42000.0,Tue Dec 02 2025 12:08:44 GMT-0500 (Eastern Standard Time),348752.0,A,meado,I,o,170,3,1166.7000000476837,347585.2999999523,9021,WL,A,8.0
3,18.26699995994568,learn,41733.00004005432,Tue Dec 02 2025 12:08:44 GMT-0500 (Eastern Standard Time),349018.69999980927,A,meadow,I,w,244,3,1433.3999998569489,347585.2999999523,9021,WL,A,8.0
3,18.75,learn,41250.0,Tue Dec 02 2025 12:08:44 GMT-0500 (Eastern Standard Time),349502.5,A,meadowenter,I,enter,472,3,1917.2000000476837,347585.2999999523,9021,WL,A,8.0
3,19.48300004005432,learn,40516.99995994568,Tue Dec 02 2025 12:08:44 GMT-0500 (Eastern Standard Time),350235.5,A,h,I,h,711,3,732.5,349503.0,9021,WL,A,9.0
3,19.58299994468689,learn,40417.00005531311,Tue Dec 02 2025 12:08:44 GMT-0500 (Eastern Standard Time),350335.19999980927,A,ha,I,a,88,3,832.1999998092651,349503.0,9021,WL,A,9.0
3,19.700000047683716,learn,40299.999952316284,Tue Dec 02 2025 12:08:44 GMT-0500 (Eastern Standard Time),350452.19999980927,A,har,I,r,102,3,949.1999998092651,349503.0,9021,WL,A,9.0
3,19.967999935150146,learn,40032.00006484985,Tue Dec 02 2025 12:08:44 GMT-0500 (Eastern Standard Time),350719.69999980927,A,harm,I,m,248,3,1216.6999998092651,349503.0,9021,WL,A,9.0
3,21.51699995994568,learn,38483.00004005432,Tue Dec 02 2025 12:08:44 GMT-0500 (Eastern Standard Time),352268.7999999523,A,har,I,backspace,1524,3,2765.7999999523163,349503.0,9021,WL,A,9.0
3,21.950000047683716,learn,38049.999952316284,Tue Dec 02 2025 12:08:44 GMT-0500 (Eastern Standard Time),352701.89999985695,A,harp,I,p,421,3,3198.899999856949,349503.0,9021,WL,A,9.0
3,22.33299994468689,learn,37667.00005531311,Tue Dec 02 2025 12:08:44 GMT-0500 (Eastern Standard Time),353085.09999990463,A,harpenter,I,enter,374,3,3582.0999999046326,349503.0,9021,WL,A,9.0
3,24.633000135421753,learn,35366.99986457825,Tue Dec 02 2025 12:08:44 GMT-0500 (Eastern Standard Time),355385.5,A,b,I,b,2281,3,2300.2000000476837,353085.2999999523,9021,WL,A,10.0
3,24.83299994468689,learn,35167.00005531311,Tue Dec 02 2025 12:08:44 GMT-0500 (Eastern Standard Time),355585.5,A,bu,I,u,177,3,2500.2000000476837,353085.2999999523,9021,WL,A,10.0
3,25.049999952316284,learn,34950.000047683716,Tue Dec 02 2025 12:08:44 GMT-0500 (Eastern Standard Time),355802.09999990463,A,but,I,t,195,3,2716.7999999523163,353085.2999999523,9021,WL,A,10.0
3,25.23300004005432,learn,34766.99995994568,Tue Dec 02 2025 12:08:44 GMT-0500 (Eastern Standard Time),355985.39999985695,A,butt,I,t,168,3,2900.0999999046326,353085.2999999523,9021,WL,A,10.0
3,25.34999990463257,learn,34650.00009536743,Tue Dec 02 2025 12:08:44 GMT-0500 (Eastern Standard Time),356102.09999990463,A,butto,I,o,98,3,3016.7999999523163,353085.2999999523,9021,WL,A,10.0
3,25.717000007629395,learn,34282.999992370605,Tue Dec 02 2025 12:08:44 GMT-0500 (Eastern Standard Time),356468.7999999523,A,button,I,n,345,3,3383.5,353085.2999999523,9021,WL,A,10.0
3,26.032999992370605,learn,33967.000007629395,Tue Dec 02 2025 12:08:44 GMT-0500 (Eastern Standard Time),356784.89999985695,A,buttonenter,I,enter,302,3,3699.5999999046326,353085.2999999523,9021,WL,A,10.0
3,28.59999990463257,learn,31400.00009536743,Tue Dec 02 2025 12:08:44 GMT-0500 (Eastern Standard Time),359352.19999980927,A,f,I,f,2550,3,2566.899999856949,356785.2999999523,9021,WL,A,11.0
3,28.717000007629395,learn,31282.999992370605,Tue Dec 02 2025 12:08:44 GMT-0500 (Eastern Standard Time),359468.89999985695,A,fi,I,i,92,3,2683.5999999046326,356785.2999999523,9021,WL,A,11.0
3,28.883000135421753,learn,31116.999864578247,Tue Dec 02 2025 12:08:44 GMT-0500 (Eastern Standard Time),359635.39999985695,A,fin,I,n,143,3,2850.0999999046326,356785.2999999523,9021,WL,A,11.0
3,29.032999992370605,learn,30967.000007629395,Tue Dec 02 2025 12:08:44 GMT-0500 (Eastern Standard Time),359785.2999999523,A,fing,I,g,120,3,3000.0,356785.2999999523,9021,WL,A,11.0
3,29.282999992370605,learn,30717.000007629395,Tue Dec 02 2025 12:08:44 GMT-0500 (Eastern Standard Time),360035.39999985695,A,finge,I,e,236,3,3250.0999999046326,356785.2999999523,9021,WL,A,11.0
3,29.41700005531311,learn,30582.99994468689,Tue Dec 02 2025 12:08:44 GMT-0500 (Eastern Standard Time),360168.7999999523,A,finger,I,r,103,3,3383.5,356785.2999999523,9021,WL,A,11.0
3,31.532999992370605,learn,28467.000007629395,Tue Dec 02 2025 12:08:44 GMT-0500 (Eastern Standard Time),362285.19999980927,A,fingerenter,I,enter,2098,3,5499.899999856949,356785.2999999523,9021,WL,A,11.0
3,32.117000102996826,learn,27882.999897003174,Tue Dec 02 2025 12:08:44 GMT-0500 (Eastern Standard Time),362868.69999980927,A,a,I,a,570,3,583.2999999523163,362285.39999985695,9021,WL,A,12.0
3,32.34999990463257,learn,27650.00009536743,Tue Dec 02 2025 12:08:44 GMT-0500 (Eastern Standard Time),363102.0,A,ap,I,p,222,3,816.6000001430511,362285.39999985695,9021,WL,A,12.0
3,32.93300008773804,learn,27066.999912261963,Tue Dec 02 2025 12:08:44 GMT-0500 (Eastern Standard Time),363685.39999985695,A,app,I,p,565,3,1400.0,362285.39999985695,9021,WL,A,12.0
3,33.15000009536743,learn,26849.99990463257,Tue Dec 02 2025 12:08:44 GMT-0500 (Eastern Standard Time),363902.0,A,appl,I,l,206,3,1616.6000001430511,362285.39999985695,9021,WL,A,12.0
3,34.56699991226196,learn,25433.000087738037,Tue Dec 02 2025 12:08:44 GMT-0500 (Eastern Standard Time),365318.59999990463,A,apple,I,e,1398,3,3033.2000000476837,362285.39999985695,9021,WL,A,12.0
3,35.0,learn,25000.0,Tue Dec 02 2025 12:08:44 GMT-0500 (Eastern Standard Time),365751.59999990463,A,appleenter,I,enter,412,3,3466.2000000476837,362285.39999985695,9021,WL,A,12.0
3,37.5,learn,22500.0,Tue Dec 02 2025 12:08:44 GMT-0500 (Eastern Standard Time),368252.09999990463,A,c,I,c,2479,3,2500.2000000476837,365751.89999985695,9021,WL,A,13.0
3,37.63300013542175,learn,22366.999864578247,Tue Dec 02 2025 12:08:44 GMT-0500 (Eastern Standard Time),368385.39999985695,A,ch,I,h,121,3,2633.5,365751.89999985695,9021,WL,A,13.0
3,37.81699991226196,learn,22183.000087738037,Tue Dec 02 2025 12:08:44 GMT-0500 (Eastern Standard Time),368568.69999980927,A,chi,I,i,161,3,2816.7999999523163,365751.89999985695,9021,WL,A,13.0
3,38.117000102996826,learn,21882.999897003174,Tue Dec 02 2025 12:08:44 GMT-0500 (Eastern Standard Time),368868.69999980927,A,chim,I,m,281,3,3116.7999999523163,365751.89999985695,9021,WL,A,13.0
3,38.75,learn,21250.0,Tue Dec 02 2025 12:08:44 GMT-0500 (Eastern Standard Time),369502.19999980927,A,chimn,I,n,621,3,3750.2999999523163,365751.89999985695,9021,WL,A,13.0
3,39.032999992370605,learn,20967.000007629395,Tue Dec 02 2025 12:08:44 GMT-0500 (Eastern Standard Time),369785.2999999523,A,chimne,I,e,262,3,4033.4000000953674,365751.89999985695,9021,WL,A,13.0
3,39.09999990463257,learn,20900.00009536743,Tue Dec 02 2025 12:08:44 GMT-0500 (Eastern Standard Time),369852.2999999523,A,chimney,I,y,43,3,4100.400000095367,365751.89999985695,9021,WL,A,13.0
3,41.532999992370605,learn,18467.000007629395,Tue Dec 02 2025 12:08:44 GMT-0500 (Eastern Standard Time),372284.89999985695,A,chimneyenter,I,enter,2407,3,6533.0,365751.89999985695,9021,WL,A,13.0
3,43.58299994468689,learn,16417.00005531311,Tue Dec 02 2025 12:08:44 GMT-0500 (Eastern Standard Time),374334.89999985695,A,enter,I,enter,2042,3,2049.5999999046326,372285.2999999523,9021,WL,A,14.0
3,44.032999992370605,learn,15967.000007629395,Tue Dec 02 2025 12:08:44 GMT-0500 (Eastern Standard Time),374784.89999985695,A,enter,I,enter,439,3,449.7000000476837,374335.19999980927,9021,WL,A,15.0
4,0.817000150680542,learn,59182.99984931946,Tue Dec 02 2025 12:08:44 GMT-0500 (Eastern Standard Time),440902.09999990463,A,g,I,g,799,3,816.0999999046326,440086.0,9021,WL,A,1.0
4,0.9340000152587891,learn,59065.99998474121,Tue Dec 02 2025 12:08:44 GMT-0500 (Eastern Standard Time),441018.69999980927,A,go,I,o,91,3,932.6999998092651,440086.0,9021,WL,A,1.0
4,1.1340000629425049,learn,58865.999937057495,Tue Dec 02 2025 12:08:44 GMT-0500 (Eastern Standard Time),441218.69999980927,A,gol,I,l,186,3,1132.6999998092651,440086.0,9021,WL,A,1.0
4,1.317000150680542,learn,58682.99984931946,Tue Dec 02 2025 12:08:44 GMT-0500 (Eastern Standard Time),441401.89999985695,A,gold,I,d,154,3,1315.8999998569489,440086.0,9021,WL,A,1.0
4,1.7829999923706055,learn,58217.000007629395,Tue Dec 02 2025 12:08:44 GMT-0500 (Eastern Standard Time),441868.19999980927,A,goldenter,I,enter,441,3,1782.1999998092651,440086.0,9021,WL,A,1.0
4,2.200000047683716,learn,57799.999952316284,Tue Dec 02 2025 12:08:44 GMT-0500 (Eastern Standard Time),442285.19999980927,A,l,I,l,395,3,416.69999980926514,441868.5,9021,WL,A,2.0
4,2.384000062942505,learn,57615.999937057495,Tue Dec 02 2025 12:08:44 GMT-0500 (Eastern Standard Time),442468.69999980927,A,lo,I,o,166,3,600.1999998092651,441868.5,9021,WL,A,2.0
4,2.5500001907348633,learn,57449.99980926514,Tue Dec 02 2025 12:08:44 GMT-0500 (Eastern Standard Time),442635.2999999523,A,log,I,g,141,3,766.7999999523163,441868.5,9021,WL,A,2.0
4,3.0,learn,57000.0,Tue Dec 02 2025 12:08:44 GMT-0500 (Eastern Standard Time),443084.89999985695,A,logenter,I,enter,440,3,1216.3999998569489,441868.5,9021,WL,A,2.0
4,3.4000000953674316,learn,56599.99990463257,Tue Dec 02 2025 12:08:44 GMT-0500 (Eastern Standard Time),443485.2999999523,A,k,I,k,378,3,400.0,443085.2999999523,9021,WL,A,3.0
4,3.567000150680542,learn,56432.99984931946,Tue Dec 02 2025 12:08:44 GMT-0500 (Eastern Standard Time),443652.0,A,ke,I,e,150,3,566.7000000476837,443085.2999999523,9021,WL,A,3.0
4,3.75,learn,56250.0,Tue Dec 02 2025 12:08:44 GMT-0500 (Eastern Standard Time),443835.2999999523,A,key,I,y,158,3,750.0,443085.2999999523,9021,WL,A,3.0
4,4.200000047683716,learn,55799.999952316284,Tue Dec 02 2025 12:08:44 GMT-0500 (Eastern Standard Time),444284.89999985695,A,keyenter,I,enter,425,3,1199.5999999046326,443085.2999999523,9021,WL,A,3.0
4,4.550000190734863,learn,55449.99980926514,Tue Dec 02 2025 12:08:44 GMT-0500 (Eastern Standard Time),444635.39999985695,A,r,I,r,330,3,350.09999990463257,444285.2999999523,9021,WL,A,4.0
4,4.700000047683716,learn,55299.999952316284,Tue Dec 02 2025 12:08:44 GMT-0500 (Eastern Standard Time),444785.19999980927,A,ra,I,a,136,3,499.89999985694885,444285.2999999523,9021,WL,A,4.0
4,4.900000095367432,learn,55099.99990463257,Tue Dec 02 2025 12:08:44 GMT-0500 (Eastern Standard Time),444985.19999980927,A,rat,I,t,170,3,699.8999998569489,444285.2999999523,9021,WL,A,4.0
4,5.084000110626221,learn,54915.99988937378,Tue Dec 02 2025 12:08:44 GMT-0500 (Eastern Standard Time),445168.69999980927,A,ratt,I,t,169,3,883.3999998569489,444285.2999999523,9021,WL,A,4.0
4,5.400000095367432,learn,54599.99990463257,Tue Dec 02 2025 12:08:44 GMT-0500 (Eastern Standard Time),445485.2999999523,A,rattl,I,l,291,3,1200.0,444285.2999999523,9021,WL,A,4.0
4,5.5340001583099365,learn,54465.99984169006,Tue Dec 02 2025 12:08:44 GMT-0500 (Eastern Standard Time),445618.69999980927,A,rattle,I,e,118,3,1333.3999998569489,444285.2999999523,9021,WL,A,4.0
4,5.8500001430511475,learn,54149.99985694885,Tue Dec 02 2025 12:08:44 GMT-0500 (Eastern Standard Time),445934.7999999523,A,rattleenter,I,enter,304,3,1649.5,444285.2999999523,9021,WL,A,4.0
4,6.5340001583099365,learn,53465.99984169006,Tue Dec 02 2025 12:08:44 GMT-0500 (Eastern Standard Time),446618.69999980927,A,a,I,a,664,3,683.5999999046326,445935.09999990463,9021,WL,A,5.0
4,6.75,learn,53250.0,Tue Dec 02 2025 12:08:44 GMT-0500 (Eastern Standard Time),446835.2999999523,A,ap,I,p,200,3,900.2000000476837,445935.09999990463,9021,WL,A,5.0
4,6.933000087738037,learn,53066.99991226196,Tue Dec 02 2025 12:08:44 GMT-0500 (Eastern Standard Time),447018.59999990463,A,app,I,p,160,3,1083.5,445935.09999990463,9021,WL,A,5.0
4,7.150000095367432,learn,52849.99990463257,Tue Dec 02 2025 12:08:44 GMT-0500 (Eastern Standard Time),447235.2999999523,A,appl,I,l,200,3,1300.2000000476837,445935.09999990463,9021,WL,A,5.0
4,7.2829999923706055,learn,52717.000007629395,Tue Dec 02 2025 12:08:44 GMT-0500 (Eastern Standard Time),447368.5,A,apple,I,e,112,3,1433.4000000953674,445935.09999990463,9021,WL,A,5.0
4,7.933000087738037,learn,52066.99991226196,Tue Dec 02 2025 12:08:44 GMT-0500 (Eastern Standard Time),448018.19999980927,A,appleenter,I,enter,627,3,2083.0999999046326,445935.09999990463,9021,WL,A,5.0
4,9.0,learn,51000.0,Tue Dec 02 2025 12:08:44 GMT-0500 (Eastern Standard Time),449085.39999985695,A,f,I,f,1044,3,1066.7999999523163,448018.59999990463,9021,WL,A,6.0
4,9.117000102996826,learn,50882.999897003174,Tue Dec 02 2025 12:08:44 GMT-0500 (Eastern Standard Time),449202.0,A,fi,I,i,101,3,1183.4000000953674,448018.59999990463,9021,WL,A,6.0
4,9.300000190734863,learn,50699.99980926514,Tue Dec 02 2025 12:08:44 GMT-0500 (Eastern Standard Time),449385.19999980927,A,fin,I,n,161,3,1366.5999999046326,448018.59999990463,9021,WL,A,6.0
4,9.434000015258789,learn,50565.99998474121,Tue Dec 02 2025 12:08:44 GMT-0500 (Eastern Standard Time),449518.69999980927,A,fing,I,g,122,3,1500.0999999046326,448018.59999990463,9021,WL,A,6.0
4,9.634000062942505,learn,50365.999937057495,Tue Dec 02 2025 12:08:44 GMT-0500 (Eastern Standard Time),449718.69999980927,A,finge,I,e,172,3,1700.0999999046326,448018.59999990463,9021,WL,A,6.0
4,9.75,learn,50250.0,Tue Dec 02 2025 12:08:44 GMT-0500 (Eastern Standard Time),449835.19999980927,A,finger,I,r,93,3,1816.5999999046326,448018.59999990463,9021,WL,A,6.0
4,9.950000047683716,learn,50049.999952316284,Tue Dec 02 2025 12:08:44 GMT-0500 (Eastern Standard Time),450034.89999985695,A,fingerenter,I,enter,184,3,2016.2999999523163,448018.59999990463,9021,WL,A,6.0
4,10.516999959945679,learn,49483.00004005432,Tue Dec 02 2025 12:08:44 GMT-0500 (Eastern Standard Time),450602.0,A,h,I,h,548,3,566.8000001907349,450035.19999980927,9021,WL,A,7.0
4,10.583000183105469,learn,49416.99981689453,Tue Dec 02 2025 12:08:44 GMT-0500 (Eastern Standard Time),450668.59999990463,A,ha,I,a,41,3,633.4000000953674,450035.19999980927,9021,WL,A,7.0
4,10.684000015258789,learn,49315.99998474121,Tue Dec 02 2025 12:08:44 GMT-0500 (Eastern Standard Time),450768.59999990463,A,har,I,r,87,3,733.4000000953674,450035.19999980927,9021,WL,A,7.0
4,11.233999967575073,learn,48766.00003242493,Tue Dec 02 2025 12:08:44 GMT-0500 (Eastern Standard Time),451318.7999999523,A,harp,I,p,523,3,1283.6000001430511,450035.19999980927,9021,WL,A,7.0
4,11.967000007629395,learn,48032.999992370605,Tue Dec 02 2025 12:08:44 GMT-0500 (Eastern Standard Time),452052.2999999523,A,harpenter,I,enter,708,3,2017.1000001430511,450035.19999980927,9021,WL,A,7.0
4,12.617000102996826,learn,47382.999897003174,Tue Dec 02 2025 12:08:44 GMT-0500 (Eastern Standard Time),452701.7999999523,A,b,I,b,643,3,649.1000001430511,452052.69999980927,9021,WL,A,8.0
4,12.75,learn,47250.0,Tue Dec 02 2025 12:08:44 GMT-0500 (Eastern Standard Time),452835.19999980927,A,bu,I,u,119,3,782.5,452052.69999980927,9021,WL,A,8.0
4,12.91700005531311,learn,47082.99994468689,Tue Dec 02 2025 12:08:44 GMT-0500 (Eastern Standard Time),453002.09999990463,A,but,I,t,144,3,949.4000000953674,452052.69999980927,9021,WL,A,8.0
4,13.100000143051147,learn,46899.99985694885,Tue Dec 02 2025 12:08:44 GMT-0500 (Eastern Standard Time),453185.2999999523,A,butt,I,t,167,3,1132.6000001430511,452052.69999980927,9021,WL,A,8.0
4,13.16700005531311,learn,46832.99994468689,Tue Dec 02 2025 12:08:44 GMT-0500 (Eastern Standard Time),453251.89999985695,A,butto,I,o,51,3,1199.2000000476837,452052.69999980927,9021,WL,A,8.0
4,13.5,learn,46500.0,Tue Dec 02 2025 12:08:44 GMT-0500 (Eastern Standard Time),453585.19999980927,A,button,I,n,313,3,1532.5,452052.69999980927,9021,WL,A,8.0
4,14.950000047683716,learn,45049.999952316284,Tue Dec 02 2025 12:08:44 GMT-0500 (Eastern Standard Time),455034.7999999523,A,buttonenter,I,enter,1425,3,2982.100000143051,452052.69999980927,9021,WL,A,8.0
4,16.200000047683716,learn,43799.999952316284,Tue Dec 02 2025 12:08:44 GMT-0500 (Eastern Standard Time),456285.19999980927,A,t,I,t,1228,3,1250.0999999046326,455035.09999990463,9021,WL,A,9.0
4,16.43400001525879,learn,43565.99998474121,Tue Dec 02 2025 12:08:44 GMT-0500 (Eastern Standard Time),456518.69999980927,A,tr,I,r,214,3,1483.5999999046326,455035.09999990463,9021,WL,A,9.0
4,16.567000150680542,learn,43432.99984931946,Tue Dec 02 2025 12:08:44 GMT-0500 (Eastern Standard Time),456652.0,A,tra,I,a,108,3,1616.9000000953674,455035.09999990463,9021,WL,A,9.0
4,16.700000047683716,learn,43299.999952316284,Tue Dec 02 2025 12:08:44 GMT-0500 (Eastern Standard Time),456785.2999999523,A,trai,I,i,119,3,1750.2000000476837,455035.09999990463,9021,WL,A,9.0
4,16.950000047683716,learn,43049.999952316284,Tue Dec 02 2025 12:08:44 GMT-0500 (Eastern Standard Time),457035.2999999523,A,train,I,n,217,3,2000.2000000476837,455035.09999990463,9021,WL,A,9.0
4,17.25,learn,42750.0,Tue Dec 02 2025 12:08:44 GMT-0500 (Eastern Standard Time),457334.7999999523,A,trainenter,I,enter,280,3,2299.7000000476837,455035.09999990463,9021,WL,A,9.0
4,17.66700005531311,learn,42332.99994468689,Tue Dec 02 2025 12:08:44 GMT-0500 (Eastern Standard Time),457751.89999985695,A,f,I,f,400,3,416.7000000476837,457335.19999980927,9021,WL,A,10.0
4,17.817000150680542,learn,42182.99984931946,Tue Dec 02 2025 12:08:44 GMT-0500 (Eastern Standard Time),457901.7999999523,A,fl,I,l,139,3,566.6000001430511,457335.19999980927,9021,WL,A,10.0
4,18.050000190734863,learn,41949.99980926514,Tue Dec 02 2025 12:08:44 GMT-0500 (Eastern Standard Time),458135.2999999523,A,flo,I,o,214,3,800.1000001430511,457335.19999980927,9021,WL,A,10.0
4,18.15000009536743,learn,41849.99990463257,Tue Dec 02 2025 12:08:44 GMT-0500 (Eastern Standard Time),458235.2999999523,A,flow,I,w,76,3,900.1000001430511,457335.19999980927,9021,WL,A,10.0
4,18.25,learn,41750.0,Tue Dec 02 2025 12:08:44 GMT-0500 (Eastern Standard Time),458335.2999999523,A,flowe,I,e,81,3,1000.1000001430511,457335.19999980927,9021,WL,A,10.0
4,18.300000190734863,learn,41699.99980926514,Tue Dec 02 2025 12:08:44 GMT-0500 (Eastern Standard Time),458384.69999980927,A,flower,I,r,26,3,1049.5,457335.19999980927,9021,WL,A,10.0
4,18.966000080108643,learn,41033.99991989136,Tue Dec 02 2025 12:08:44 GMT-0500 (Eastern Standard Time),459051.5,A,flowerenter,I,enter,646,3,1716.3000001907349,457335.19999980927,9021,WL,A,10.0
4,19.33400011062622,learn,40665.99988937378,Tue Dec 02 2025 12:08:44 GMT-0500 (Eastern Standard Time),459418.59999990463,A,r,I,r,348,3,366.7000000476837,459051.89999985695,9021,WL,A,11.0
4,19.450000047683716,learn,40549.999952316284,Tue Dec 02 2025 12:08:44 GMT-0500 (Eastern Standard Time),459535.09999990463,A,ru,I,u,104,3,483.2000000476837,459051.89999985695,9021,WL,A,11.0
4,19.600000143051147,learn,40399.99985694885,Tue Dec 02 2025 12:08:44 GMT-0500 (Eastern Standard Time),459685.2999999523,A,rug,I,g,125,3,633.4000000953674,459051.89999985695,9021,WL,A,11.0
4,20.200000047683716,learn,39799.999952316284,Tue Dec 02 2025 12:08:44 GMT-0500 (Eastern Standard Time),460285.0,A,rugenter,I,enter,583,3,1233.1000001430511,459051.89999985695,9021,WL,A,11.0
4,20.617000102996826,learn,39382.999897003174,Tue Dec 02 2025 12:08:44 GMT-0500 (Eastern Standard Time),460701.89999985695,A,c,I,c,410,3,416.7000000476837,460285.19999980927,9021,WL,A,12.0
4,20.800000190734863,learn,39199.99980926514,Tue Dec 02 2025 12:08:44 GMT-0500 (Eastern Standard Time),460885.2999999523,A,ch,I,h,166,3,600.1000001430511,460285.19999980927,9021,WL,A,12.0
4,20.91700005531311,learn,39082.99994468689,Tue Dec 02 2025 12:08:44 GMT-0500 (Eastern Standard Time),461002.0,A,chi,I,i,87,3,716.8000001907349,460285.19999980927,9021,WL,A,12.0
4,21.200000047683716,learn,38799.999952316284,Tue Dec 02 2025 12:08:44 GMT-0500 (Eastern Standard Time),461285.2999999523,A,chim,I,m,265,3,1000.1000001430511,460285.19999980927,9021,WL,A,12.0
4,21.567000150680542,learn,38432.99984931946,Tue Dec 02 2025 12:08:44 GMT-0500 (Eastern Standard Time),461652.0,A,chimn,I,n,349,3,1366.8000001907349,460285.19999980927,9021,WL,A,12.0
4,21.91700005531311,learn,38082.99994468689,Tue Dec 02 2025 12:08:44 GMT-0500 (Eastern Standard Time),462002.0,A,chimne,I,e,336,3,1716.8000001907349,460285.19999980927,9021,WL,A,12.0
4,22.067000150680542,learn,37932.99984931946,Tue Dec 02 2025 12:08:44 GMT-0500 (Eastern Standard Time),462152.0,A,chimney,I,y,130,3,1866.8000001907349,460285.19999980927,9021,WL,A,12.0
4,23.33300018310547,learn,36666.99981689453,Tue Dec 02 2025 12:08:44 GMT-0500 (Eastern Standard Time),463418.09999990463,A,chimneyenter,I,enter,1235,3,3132.9000000953674,460285.19999980927,9021,WL,A,12.0
4,23.717000007629395,learn,36282.999992370605,Tue Dec 02 2025 12:08:44 GMT-0500 (Eastern Standard Time),463802.0,A,m,I,m,365,3,383.60000014305115,463418.39999985695,9021,WL,A,13.0
4,23.850000143051147,learn,36149.99985694885,Tue Dec 02 2025 12:08:44 GMT-0500 (Eastern Standard Time),463935.2999999523,A,me,I,e,121,3,516.9000000953674,463418.39999985695,9021,WL,A,13.0
4,24.0,learn,36000.0,Tue Dec 02 2025 12:08:44 GMT-0500 (Eastern Standard Time),464085.39999985695,A,mea,I,a,123,3,667.0,463418.39999985695,9021,WL,A,13.0
4,24.26699995994568,learn,35733.00004005432,Tue Dec 02 2025 12:08:44 GMT-0500 (Eastern Standard Time),464351.89999985695,A,mead,I,d,245,3,933.5,463418.39999985695,9021,WL,A,13.0
4,24.40000009536743,learn,35599.99990463257,Tue Dec 02 2025 12:08:44 GMT-0500 (Eastern Standard Time),464485.19999980927,A,meado,I,o,115,3,1066.7999999523163,463418.39999985695,9021,WL,A,13.0
4,25.40000009536743,learn,34599.99990463257,Tue Dec 02 2025 12:08:44 GMT-0500 (Eastern Standard Time),465485.19999980927,A,meadow,I,w,966,3,2066.7999999523163,463418.39999985695,9021,WL,A,13.0
4,26.883000135421753,learn,33116.99986457825,Tue Dec 02 2025 12:08:44 GMT-0500 (Eastern Standard Time),466967.89999985695,A,meadowenter,I,enter,1460,3,3549.5,463418.39999985695,9021,WL,A,13.0
4,36.116000175476074,learn,23883.999824523926,Tue Dec 02 2025 12:08:44 GMT-0500 (Eastern Standard Time),476201.39999985695,A,enter,I,enter,9215,3,9233.299999952316,466968.09999990463,9021,WL,A,14.0
4,37.13300013542175,learn,22866.999864578247,Tue Dec 02 2025 12:08:44 GMT-0500 (Eastern Standard Time),477218.09999990463,A,enter,I,enter,1005,3,1016.2999999523163,476201.7999999523,9021,WL,A,15.0
5,2.549999952316284,learn,60000.0,Tue Dec 02 2025 12:08:44 GMT-0500 (Eastern Standard Time),559935.399999857,A,g,I,g,2539,3,2549.7999999523163,557385.5999999046,9021,WL,A,1.0
5,2.6499998569488525,learn,60000.0,Tue Dec 02 2025 12:08:44 GMT-0500 (Eastern Standard Time),560035.1999998093,A,go,I,o,81,3,2649.5999999046326,557385.5999999046,9021,WL,A,1.0
5,2.8999998569488525,learn,60000.0,Tue Dec 02 2025 12:08:44 GMT-0500 (Eastern Standard Time),560285.1999998093,A,gol,I,l,214,3,2899.5999999046326,557385.5999999046,9021,WL,A,1.0
5,3.0169999599456787,learn,60000.0,Tue Dec 02 2025 12:08:44 GMT-0500 (Eastern Standard Time),560401.7999999523,A,gold,I,d,104,3,3016.2000000476837,557385.5999999046,9021,WL,A,1.0
5,3.4659998416900635,learn,60000.0,Tue Dec 02 2025 12:08:44 GMT-0500 (Eastern Standard Time),560851.399999857,A,goldenter,I,enter,426,3,3465.7999999523163,557385.5999999046,9021,WL,A,1.0
5,3.816999912261963,learn,60000.0,Tue Dec 02 2025 12:08:44 GMT-0500 (Eastern Standard Time),561201.899999857,A,l,I,l,339,3,350.2000000476837,560851.6999998093,9021,WL,A,2.0
5,4.049999952316284,learn,60000.0,Tue Dec 02 2025 12:08:44 GMT-0500 (Eastern Standard Time),561435.0999999046,A,lo,I,o,210,3,583.4000000953674,560851.6999998093,9021,WL,A,2.0
5,4.166999816894531,learn,60000.0,Tue Dec 02 2025 12:08:44 GMT-0500 (Eastern Standard Time),561551.7999999523,A,log,I,g,104,3,700.1000001430511,560851.6999998093,9021,WL,A,2.0
5,4.5329999923706055,learn,60000.0,Tue Dec 02 2025 12:08:44 GMT-0500 (Eastern Standard Time),561917.899999857,A,logenter,I,enter,356,3,1066.2000000476837,560851.6999998093,9021,WL,A,2.0
5,4.866999864578247,learn,60000.0,Tue Dec 02 2025 12:08:44 GMT-0500 (Eastern Standard Time),562251.7999999523,A,k,I,k,312,3,333.40000009536743,561918.399999857,9021,WL,A,3.0
5,5.182999849319458,learn,60000.0,Tue Dec 02 2025 12:08:44 GMT-0500 (Eastern Standard Time),562568.5,A,ke,I,e,296,3,650.1000001430511,561918.399999857,9021,WL,A,3.0
5,5.466999769210815,learn,60000.0,Tue Dec 02 2025 12:08:44 GMT-0500 (Eastern Standard Time),562851.899999857,A,key,I,y,267,3,933.5,561918.399999857,9021,WL,A,3.0
5,6.134999990463257,learn,60000.0,Tue Dec 02 2025 12:08:44 GMT-0500 (Eastern Standard Time),563519.6999998093,A,keyenter,I,enter,655,3,1601.2999999523163,561918.399999857,9021,WL,A,3.0
5,6.516999959945679,learn,60000.0,Tue Dec 02 2025 12:08:44 GMT-0500 (Eastern Standard Time),563901.899999857,A,r,I,r,358,3,381.7999999523163,563520.0999999046,9021,WL,A,4.0
5,6.666999816894531,learn,60000.0,Tue Dec 02 2025 12:08:44 GMT-0500 (Eastern Standard Time),564051.899999857,A,ra,I,a,133,3,531.7999999523163,563520.0999999046,9021,WL,A,4.0
5,6.799999952316284,learn,60000.0,Tue Dec 02 2025 12:08:44 GMT-0500 (Eastern Standard Time),564185.0999999046,A,rat,I,t,111,3,665.0,563520.0999999046,9021,WL,A,4.0
5,6.966999769210815,learn,60000.0,Tue Dec 02 2025 12:08:44 GMT-0500 (Eastern Standard Time),564351.7999999523,A,ratt,I,t,154,3,831.7000000476837,563520.0999999046,9021,WL,A,4.0
5,7.116999864578247,learn,60000.0,Tue Dec 02 2025 12:08:44 GMT-0500 (Eastern Standard Time),564502.0,A,rattl,I,l,122,3,981.9000000953674,563520.0999999046,9021,WL,A,4.0
5,7.482999801635742,learn,60000.0,Tue Dec 02 2025 12:08:44 GMT-0500 (Eastern Standard Time),564868.5,A,rattle,I,e,341,3,1348.4000000953674,563520.0999999046,9021,WL,A,4.0
5,7.766999959945679,learn,60000.0,Tue Dec 02 2025 12:08:44 GMT-0500 (Eastern Standard Time),565151.7999999523,A,rattles,I,s,270,3,1631.7000000476837,563520.0999999046,9021,WL,A,4.0
5,8.916999816894531,learn,60000.0,Tue Dec 02 2025 12:08:44 GMT-0500 (Eastern Standard Time),566302.399999857,A,rattlesenter,I,enter,1139,3,2782.2999999523163,563520.0999999046,9021,WL,A,4.0
5,9.5,learn,60000.0,Tue Dec 02 2025 12:08:44 GMT-0500 (Eastern Standard Time),566885.0999999046,A,s,I,s,568,3,582.2999999523163,566302.7999999523,9021,WL,A,5.0
5,9.932999849319458,learn,60000.0,Tue Dec 02 2025 12:08:44 GMT-0500 (Eastern Standard Time),567318.5999999046,A,sa,I,a,414,3,1015.7999999523163,566302.7999999523,9021,WL,A,5.0
5,10.016999959945679,learn,60000.0,Tue Dec 02 2025 12:08:44 GMT-0500 (Eastern Standard Time),567401.7999999523,A,sal,I,l,61,3,1099.0,566302.7999999523,9021,WL,A,5.0
5,10.532999992370605,learn,60000.0,Tue Dec 02 2025 12:08:44 GMT-0500 (Eastern Standard Time),567918.1999998093,A,salt,I,t,505,3,1615.3999998569489,566302.7999999523,9021,WL,A,5.0
5,10.765999794006348,learn,60000.0,Tue Dec 02 2025 12:08:44 GMT-0500 (Eastern Standard Time),568151.0999999046,A,saltenter,I,enter,212,3,1848.2999999523163,566302.7999999523,9021,WL,A,5.0
5,11.248999834060669,learn,60000.0,Tue Dec 02 2025 12:08:44 GMT-0500 (Eastern Standard Time),568634.2999999523,A,m,I,m,462,3,482.7999999523163,568151.5,9021,WL,A,6.0
5,11.365999937057495,learn,60000.0,Tue Dec 02 2025 12:08:44 GMT-0500 (Eastern Standard Time),568751.0999999046,A,me,I,e,107,3,599.5999999046326,568151.5,9021,WL,A,6.0
5,11.515999794006348,learn,60000.0,Tue Dec 02 2025 12:08:44 GMT-0500 (Eastern Standard Time),568901.2999999523,A,mea,I,a,135,3,749.7999999523163,568151.5,9021,WL,A,6.0
5,11.75,learn,60000.0,Tue Dec 02 2025 12:08:44 GMT-0500 (Eastern Standard Time),569135.0999999046,A,mead,I,d,226,3,983.5999999046326,568151.5,9021,WL,A,6.0
5,12.232999801635742,learn,60000.0,Tue Dec 02 2025 12:08:44 GMT-0500 (Eastern Standard Time),569618.5,A,meado,I,o,468,3,1467.0,568151.5,9021,WL,A,6.0
5,12.516999959945679,learn,60000.0,Tue Dec 02 2025 12:08:44 GMT-0500 (Eastern Standard Time),569901.6999998093,A,meadow,I,w,255,3,1750.1999998092651,568151.5,9021,WL,A,6.0
5,13.16599988937378,learn,60000.0,Tue Dec 02 2025 12:08:44 GMT-0500 (Eastern Standard Time),570551.399999857,A,meadowenter,I,enter,630,3,2399.899999856949,568151.5,9021,WL,A,6.0
5,13.666999816894531,learn,60000.0,Tue Dec 02 2025 12:08:44 GMT-0500 (Eastern Standard Time),571051.899999857,A,h,I,h,479,3,500.09999990463257,570551.7999999523,9021,WL,A,7.0
5,13.75,learn,60000.0,Tue Dec 02 2025 12:08:44 GMT-0500 (Eastern Standard Time),571135.0999999046,A,ha,I,a,71,3,583.2999999523163,570551.7999999523,9021,WL,A,7.0
5,13.866999864578247,learn,60000.0,Tue Dec 02 2025 12:08:44 GMT-0500 (Eastern Standard Time),571251.899999857,A,har,I,r,100,3,700.0999999046326,570551.7999999523,9021,WL,A,7.0
5,14.766999959945679,learn,60000.0,Tue Dec 02 2025 12:08:44 GMT-0500 (Eastern Standard Time),572151.899999857,A,harp,I,p,871,3,1600.0999999046326,570551.7999999523,9021,WL,A,7.0
5,15.099999904632568,learn,60000.0,Tue Dec 02 2025 12:08:44 GMT-0500 (Eastern Standard Time),572484.6999998093,A,harpenter,I,enter,315,3,1932.8999998569489,570551.7999999523,9021,WL,A,7.0
5,15.566999912261963,learn,60000.0,Tue Dec 02 2025 12:08:44 GMT-0500 (Eastern Standard Time),572951.7999999523,A,f,I,f,450,3,466.7999999523163,572485.0,9021,WL,A,8.0
5,15.632999897003174,learn,60000.0,Tue Dec 02 2025 12:08:44 GMT-0500 (Eastern Standard Time),573018.0999999046,A,fi,I,i,43,3,533.0999999046326,572485.0,9021,WL,A,8.0
5,15.899999856948853,learn,60000.0,Tue Dec 02 2025 12:08:44 GMT-0500 (Eastern Standard Time),573284.5999999046,A,fin,I,n,247,3,799.5999999046326,572485.0,9021,WL,A,8.0
5,16.08299994468689,learn,60000.0,Tue Dec 02 2025 12:08:44 GMT-0500 (Eastern Standard Time),573468.5999999046,A,fing,I,g,159,3,983.5999999046326,572485.0,9021,WL,A,8.0
5,16.549999952316284,learn,60000.0,Tue Dec 02 2025 12:08:44 GMT-0500 (Eastern Standard Time),573935.0,A,finge,I,e,446,3,1450.0,572485.0,9021,WL,A,8.0
5,16.66699981689453,learn,60000.0,Tue Dec 02 2025 12:08:44 GMT-0500 (Eastern Standard Time),574051.899999857,A,finger,I,r,98,3,1566.8999998569489,572485.0,9021,WL,A,8.0
5,16.899999856948853,learn,60000.0,Tue Dec 02 2025 12:08:44 GMT-0500 (Eastern Standard Time),574284.899999857,A,fingerenter,I,enter,223,3,1799.8999998569489,572485.0,9021,WL,A,8.0
5,17.232999801635742,learn,60000.0,Tue Dec 02 2025 12:08:44 GMT-0500 (Eastern Standard Time),574618.5999999046,A,b,I,b,313,3,333.40000009536743,574285.1999998093,9021,WL,A,9.0
5,17.41699981689453,learn,60000.0,Tue Dec 02 2025 12:08:44 GMT-0500 (Eastern Standard Time),574801.899999857,A,bu,I,u,169,3,516.7000000476837,574285.1999998093,9021,WL,A,9.0
5,17.58299994468689,learn,60000.0,Tue Dec 02 2025 12:08:44 GMT-0500 (Eastern Standard Time),574968.5,A,but,I,t,145,3,683.3000001907349,574285.1999998093,9021,WL,A,9.0
5,17.76699995994568,learn,60000.0,Tue Dec 02 2025 12:08:44 GMT-0500 (Eastern Standard Time),575151.7999999523,A,butt,I,t,171,3,866.6000001430511,574285.1999998093,9021,WL,A,9.0
5,17.866999864578247,learn,60000.0,Tue Dec 02 2025 12:08:44 GMT-0500 (Eastern Standard Time),575251.7999999523,A,butto,I,o,84,3,966.6000001430511,574285.1999998093,9021,WL,A,9.0
5,18.116999864578247,learn,60000.0,Tue Dec 02 2025 12:08:44 GMT-0500 (Eastern Standard Time),575501.7999999523,A,button,I,n,241,3,1216.6000001430511,574285.1999998093,9021,WL,A,9.0
5,18.399999856948853,learn,60000.0,Tue Dec 02 2025 12:08:44 GMT-0500 (Eastern Standard Time),575784.6999998093,A,buttonenter,I,enter,262,3,1499.5,574285.1999998093,9021,WL,A,9.0
5,18.982999801635742,learn,60000.0,Tue Dec 02 2025 12:08:44 GMT-0500 (Eastern Standard Time),576368.5999999046,A,b,I,b,574,3,583.5999999046326,575785.0,9021,WL,A,10.0
5,19.182999849319458,learn,60000.0,Tue Dec 02 2025 12:08:44 GMT-0500 (Eastern Standard Time),576568.5,A,bo,I,o,177,3,783.5,575785.0,9021,WL,A,10.0
5,19.366999864578247,learn,60000.0,Tue Dec 02 2025 12:08:44 GMT-0500 (Eastern Standard Time),576751.7999999523,A,boo,I,o,170,3,966.7999999523163,575785.0,9021,WL,A,10.0
5,19.66699981689453,learn,60000.0,Tue Dec 02 2025 12:08:44 GMT-0500 (Eastern Standard Time),577051.899999857,A,book,I,k,276,3,1266.8999998569489,575785.0,9021,WL,A,10.0
5,20.08299994468689,learn,60000.0,Tue Dec 02 2025 12:08:44 GMT-0500 (Eastern Standard Time),577468.0999999046,A,bookenter,I,enter,390,3,1683.0999999046326,575785.0,9021,WL,A,10.0
5,20.482999801635742,learn,60000.0,Tue Dec 02 2025 12:08:44 GMT-0500 (Eastern Standard Time),577868.5,A,f,I,f,378,3,400.0,577468.5,9021,WL,A,11.0
5,20.566999912261963,learn,60000.0,Tue Dec 02 2025 12:08:44 GMT-0500 (Eastern Standard Time),577951.6999998093,A,fl,I,l,73,3,483.19999980926514,577468.5,9021,WL,A,11.0
5,20.799999952316284,learn,60000.0,Tue Dec 02 2025 12:08:44 GMT-0500 (Eastern Standard Time),578184.899999857,A,flo,I,o,212,3,716.3999998569489,577468.5,9021,WL,A,11.0
5,20.932999849319458,learn,60000.0,Tue Dec 02 2025 12:08:44 GMT-0500 (Eastern Standard Time),578318.0999999046,A,flow,I,w,123,3,849.5999999046326,577468.5,9021,WL,A,11.0
5,21.299999952316284,learn,60000.0,Tue Dec 02 2025 12:08:44 GMT-0500 (Eastern Standard Time),578685.0999999046,A,flowr,I,r,343,3,1216.5999999046326,577468.5,9021,WL,A,11.0
5,22.66699981689453,learn,60000.0,Tue Dec 02 2025 12:08:44 GMT-0500 (Eastern Standard Time),580051.7999999523,A,flow,I,backspace,1349,3,2583.2999999523163,577468.5,9021,WL,A,11.0
5,22.982999801635742,learn,60000.0,Tue Dec 02 2025 12:08:44 GMT-0500 (Eastern Standard Time),580368.5,A,flowe,I,e,304,3,2900.0,577468.5,9021,WL,A,11.0
5,23.09999990463257,learn,60000.0,Tue Dec 02 2025 12:08:44 GMT-0500 (Eastern Standard Time),580485.1999998093,A,flower,I,r,99,3,3016.699999809265,577468.5,9021,WL,A,11.0
5,23.59999990463257,learn,60000.0,Tue Dec 02 2025 12:08:44 GMT-0500 (Eastern Standard Time),580984.6999998093,A,flowerenter,I,enter,470,3,3516.199999809265,577468.5,9021,WL,A,11.0
5,23.966999769210815,learn,60000.0,Tue Dec 02 2025 12:08:44 GMT-0500 (Eastern Standard Time),581351.7999999523,A,t,I,t,350,3,366.7000000476837,580985.0999999046,9021,WL,A,12.0
5,24.199999809265137,learn,60000.0,Tue Dec 02 2025 12:08:44 GMT-0500 (Eastern Standard Time),581585.0,A,tr,I,r,219,3,599.9000000953674,580985.0999999046,9021,WL,A,12.0
5,24.316999912261963,learn,60000.0,Tue Dec 02 2025 12:08:44 GMT-0500 (Eastern Standard Time),581701.899999857,A,tra,I,a,90,3,716.7999999523163,580985.0999999046,9021,WL,A,12.0
5,24.649999856948853,learn,60000.0,Tue Dec 02 2025 12:08:44 GMT-0500 (Eastern Standard Time),582035.0999999046,A,trai,I,i,308,3,1050.0,580985.0999999046,9021,WL,A,12.0
5,24.899999856948853,learn,60000.0,Tue Dec 02 2025 12:08:44 GMT-0500 (Eastern Standard Time),582285.0999999046,A,train,I,n,224,3,1300.0,580985.0999999046,9021,WL,A,12.0
5,26.75,learn,60000.0,Tue Dec 02 2025 12:08:44 GMT-0500 (Eastern Standard Time),584134.6999998093,A,trainenter,I,enter,1830,3,3149.5999999046326,580985.0999999046,9021,WL,A,12.0
5,27.199999809265137,learn,60000.0,Tue Dec 02 2025 12:08:44 GMT-0500 (Eastern Standard Time),584585.0999999046,A,r,I,r,432,3,450.09999990463257,584135.0,9021,WL,A,13.0
5,27.33299994468689,learn,60000.0,Tue Dec 02 2025 12:08:44 GMT-0500 (Eastern Standard Time),584718.0999999046,A,ru,I,u,123,3,583.0999999046326,584135.0,9021,WL,A,13.0
5,27.5,learn,60000.0,Tue Dec 02 2025 12:08:44 GMT-0500 (Eastern Standard Time),584885.1999998093,A,rug,I,g,149,3,750.1999998092651,584135.0,9021,WL,A,13.0
5,27.965999841690063,learn,60000.0,Tue Dec 02 2025 12:08:44 GMT-0500 (Eastern Standard Time),585351.2999999523,A,rugenter,I,enter,446,3,1216.2999999523163,584135.0,9021,WL,A,13.0
5,28.366999864578247,learn,60000.0,Tue Dec 02 2025 12:08:44 GMT-0500 (Eastern Standard Time),585751.7999999523,A,c,I,c,383,3,400.10000014305115,585351.6999998093,9021,WL,A,14.0
5,28.549999952316284,learn,60000.0,Tue Dec 02 2025 12:08:44 GMT-0500 (Eastern Standard Time),585935.0999999046,A,ch,I,h,171,3,583.4000000953674,585351.6999998093,9021,WL,A,14.0
5,28.66699981689453,learn,60000.0,Tue Dec 02 2025 12:08:44 GMT-0500 (Eastern Standard Time),586051.7999999523,A,chi,I,i,100,3,700.1000001430511,585351.6999998093,9021,WL,A,14.0
5,28.982999801635742,learn,60000.0,Tue Dec 02 2025 12:08:44 GMT-0500 (Eastern Standard Time),586368.5,A,chim,I,m,303,3,1016.8000001907349,585351.6999998093,9021,WL,A,14.0
5,29.26699995994568,learn,60000.0,Tue Dec 02 2025 12:08:44 GMT-0500 (Eastern Standard Time),586652.0,A,chimn,I,n,258,3,1300.3000001907349,585351.6999998093,9021,WL,A,14.0
5,29.5,learn,60000.0,Tue Dec 02 2025 12:08:44 GMT-0500 (Eastern Standard Time),586884.7999999523,A,chimne,I,e,216,3,1533.1000001430511,585351.6999998093,9021,WL,A,14.0
5,29.58299994468689,learn,60000.0,Tue Dec 02 2025 12:08:44 GMT-0500 (Eastern Standard Time),586968.0,A,chimney,I,y,64,3,1616.3000001907349,585351.6999998093,9021,WL,A,14.0
5,30.715999841690063,learn,60000.0,Tue Dec 02 2025 12:08:44 GMT-0500 (Eastern Standard Time),588101.399999857,A,chimneyenter,I,enter,1119,3,2749.7000000476837,585351.6999998093,9021,WL,A,14.0
5,31.616999864578247,learn,60000.0,Tue Dec 02 2025 12:08:44 GMT-0500 (Eastern Standard Time),589001.7999999523,A,a,I,a,881,3,900.1000001430511,588101.6999998093,9021,WL,A,15.0
5,31.716999769210815,learn,60000.0,Tue Dec 02 2025 12:08:44 GMT-0500 (Eastern Standard Time),589101.5999999046,A,ap,I,p,89,3,999.9000000953674,588101.6999998093,9021,WL,A,15.0
5,31.899999856948853,learn,60000.0,Tue Dec 02 2025 12:08:44 GMT-0500 (Eastern Standard Time),589285.0999999046,A,app,I,p,167,3,1183.4000000953674,588101.6999998093,9021,WL,A,15.0
5,32.06699991226196,learn,60000.0,Tue Dec 02 2025 12:08:44 GMT-0500 (Eastern Standard Time),589451.6999998093,A,appl,I,l,135,3,1350.0,588101.6999998093,9021,WL,A,15.0
5,32.14999985694885,learn,60000.0,Tue Dec 02 2025 12:08:44 GMT-0500 (Eastern Standard Time),589535.0,A,apple,I,e,71,3,1433.3000001907349,588101.6999998093,9021,WL,A,15.0
5,32.299999952316284,learn,60000.0,Tue Dec 02 2025 12:08:44 GMT-0500 (Eastern Standard Time),589685.1999998093,A,applea,I,a,133,3,1583.5,588101.6999998093,9021,WL,A,15.0
5,33.0,learn,60000.0,Tue Dec 02 2025 12:08:44 GMT-0500 (Eastern Standard Time),590385.0,A,apple,I,backspace,678,3,2283.300000190735,588101.6999998093,9021,WL,A,15.0
5,33.69999980926514,learn,60000.0,Tue Dec 02 2025 12:08:44 GMT-0500 (Eastern Standard Time),591084.6999998093,A,appleenter,I,enter,672,3,2983.0,588101.6999998093,9021,WL,A,15.0
6,1.133000135421753,distr,58866.99986457825,Tue Dec 02 2025 12:08:44 GMT-0500 (Eastern Standard Time),660985.0,B,c,I,c,1105,3,1132.6000001430511,659852.399999857,9021,WL,A,1.0
6,1.633000135421753,distr,58366.99986457825,Tue Dec 02 2025 12:08:44 GMT-0500 (Eastern Standard Time),661485.0,B,ch,I,h,471,3,1632.6000001430511,659852.399999857,9021,WL,A,1.0
6,1.7830002307891846,distr,58216.999769210815,Tue Dec 02 2025 12:08:44 GMT-0500 (Eastern Standard Time),661635.0999999046,B,cha,I,a,135,3,1782.7000000476837,659852.399999857,9021,WL,A,1.0
6,1.9160001277923584,distr,58083.99987220764,Tue Dec 02 2025 12:08:44 GMT-0500 (Eastern Standard Time),661768.5,B,chai,I,i,104,3,1916.1000001430511,659852.399999857,9021,WL,A,1.0
6,2.067000150680542,distr,57932.99984931946,Tue Dec 02 2025 12:08:44 GMT-0500 (Eastern Standard Time),661919.399999857,B,chair,I,r,128,3,2067.0,659852.399999857,9021,WL,A,1.0
6,2.4840002059936523,distr,57515.99979400635,Tue Dec 02 2025 12:08:44 GMT-0500 (Eastern Standard Time),662335.5999999046,B,chairenter,I,enter,403,3,2483.2000000476837,659852.399999857,9021,WL,A,1.0
6,2.9660000801086426,distr,57033.99991989136,Tue Dec 02 2025 12:08:44 GMT-0500 (Eastern Standard Time),662818.399999857,B,p,I,p,471,3,482.39999985694885,662336.0,9021,WL,A,2.0
6,3.200000047683716,distr,56799.999952316284,Tue Dec 02 2025 12:08:44 GMT-0500 (Eastern Standard Time),663051.7999999523,B,pl,I,l,209,3,715.7999999523163,662336.0,9021,WL,A,2.0
6,3.683000087738037,distr,56316.99991226196,Tue Dec 02 2025 12:08:44 GMT-0500 (Eastern Standard Time),663535.0,B,pla,I,a,471,3,1199.0,662336.0,9021,WL,A,2.0
6,3.8330001831054688,distr,56166.99981689453,Tue Dec 02 2025 12:08:44 GMT-0500 (Eastern Standard Time),663685.0,B,plan,I,n,133,3,1349.0,662336.0,9021,WL,A,2.0
6,4.133000135421753,distr,55866.99986457825,Tue Dec 02 2025 12:08:44 GMT-0500 (Eastern Standard Time),663984.899999857,B,plane,I,e,286,3,1648.8999998569489,662336.0,9021,WL,A,2.0
6,4.81600022315979,distr,55183.99977684021,Tue Dec 02 2025 12:08:44 GMT-0500 (Eastern Standard Time),664667.899999857,B,planeenter,I,enter,649,3,2331.899999856949,662336.0,9021,WL,A,2.0
6,5.200000047683716,distr,54799.999952316284,Tue Dec 02 2025 12:08:44 GMT-0500 (Eastern Standard Time),665051.6999998093,B,c,I,c,363,3,383.39999985694885,664668.2999999523,9021,WL,A,3.0
6,5.3500001430511475,distr,54649.99985694885,Tue Dec 02 2025 12:08:44 GMT-0500 (Eastern Standard Time),665201.6999998093,B,co,I,o,135,3,533.3999998569489,664668.2999999523,9021,WL,A,3.0
6,5.450000047683716,distr,54549.999952316284,Tue Dec 02 2025 12:08:44 GMT-0500 (Eastern Standard Time),665301.7999999523,B,cou,I,u,73,3,633.5,664668.2999999523,9021,WL,A,3.0
6,5.683000087738037,distr,54316.99991226196,Tue Dec 02 2025 12:08:44 GMT-0500 (Eastern Standard Time),665534.899999857,B,coun,I,n,213,3,866.5999999046326,664668.2999999523,9021,WL,A,3.0
6,5.866000175476074,distr,54133.999824523926,Tue Dec 02 2025 12:08:44 GMT-0500 (Eastern Standard Time),665718.399999857,B,count,I,t,163,3,1050.0999999046326,664668.2999999523,9021,WL,A,3.0
6,5.983000040054321,distr,54016.99995994568,Tue Dec 02 2025 12:08:44 GMT-0500 (Eastern Standard Time),665835.0,B,county,I,y,84,3,1166.7000000476837,664668.2999999523,9021,WL,A,3.0
6,6.916000127792358,distr,53083.99987220764,Tue Dec 02 2025 12:08:44 GMT-0500 (Eastern Standard Time),666767.7999999523,B,countyenter,I,enter,911,3,2099.5,664668.2999999523,9021,WL,A,3.0
6,8.016000032424927,distr,51983.99996757507,Tue Dec 02 2025 12:08:44 GMT-0500 (Eastern Standard Time),667868.399999857,B,s,I,s,1079,3,1100.2999999523163,666768.0999999046,9021,WL,A,4.0
6,8.166000127792358,distr,51833.99987220764,Tue Dec 02 2025 12:08:44 GMT-0500 (Eastern Standard Time),668018.5,B,se,I,e,135,3,1250.4000000953674,666768.0999999046,9021,WL,A,4.0
6,8.383000135421753,distr,51616.99986457825,Tue Dec 02 2025 12:08:44 GMT-0500 (Eastern Standard Time),668235.0,B,see,I,e,192,3,1466.9000000953674,666768.0999999046,9021,WL,A,4.0
6,8.600000143051147,distr,51399.99985694885,Tue Dec 02 2025 12:08:44 GMT-0500 (Eastern Standard Time),668451.6999998093,B,seed,I,d,199,3,1683.5999999046326,666768.0999999046,9021,WL,A,4.0
6,9.533000230789185,distr,50466.999769210815,Tue Dec 02 2025 12:08:44 GMT-0500 (Eastern Standard Time),669384.5999999046,B,seedenter,I,enter,911,3,2616.5,666768.0999999046,9021,WL,A,4.0
6,24.98300004005432,distr,35016.99995994568,Tue Dec 02 2025 12:08:44 GMT-0500 (Eastern Standard Time),684834.899999857,B,j,I,j,15438,3,15449.899999856949,669385.0,9021,WL,A,5.0
6,25.200000047683716,distr,34799.999952316284,Tue Dec 02 2025 12:08:44 GMT-0500 (Eastern Standard Time),685051.6999998093,B,ju,I,u,190,3,15666.699999809265,669385.0,9021,WL,A,5.0
6,25.350000143051147,distr,34649.99985694885,Tue Dec 02 2025 12:08:44 GMT-0500 (Eastern Standard Time),685201.7999999523,B,jud,I,d,137,3,15816.799999952316,669385.0,9021,WL,A,5.0
6,25.683000087738037,distr,34316.99991226196,Tue Dec 02 2025 12:08:44 GMT-0500 (Eastern Standard Time),685534.899999857,B,judg,I,g,314,3,16149.899999856949,669385.0,9021,WL,A,5.0
6,26.200000047683716,distr,33799.999952316284,Tue Dec 02 2025 12:08:44 GMT-0500 (Eastern Standard Time),686051.7999999523,B,judge,I,e,500,3,16666.799999952316,669385.0,9021,WL,A,5.0
6,27.032000064849854,distr,32967.99993515015,Tue Dec 02 2025 12:08:44 GMT-0500 (Eastern Standard Time),686884.5,B,judgeenter,I,enter,814,3,17499.5,669385.0,9021,WL,A,5.0
6,30.58300018310547,distr,29416.99981689453,Tue Dec 02 2025 12:08:44 GMT-0500 (Eastern Standard Time),690435.0,B,p,I,p,3539,3,3550.100000143051,686884.899999857,9021,WL,A,6.0
6,30.73300004005432,distr,29266.99995994568,Tue Dec 02 2025 12:08:44 GMT-0500 (Eastern Standard Time),690585.0,B,pe,I,e,127,3,3700.100000143051,686884.899999857,9021,WL,A,6.0
6,30.89900016784668,distr,29100.99983215332,Tue Dec 02 2025 12:08:44 GMT-0500 (Eastern Standard Time),690751.5,B,pea,I,a,155,3,3866.600000143051,686884.899999857,9021,WL,A,6.0
6,31.183000087738037,distr,28816.999912261963,Tue Dec 02 2025 12:08:44 GMT-0500 (Eastern Standard Time),691034.899999857,B,peac,I,c,259,3,4150.0,686884.899999857,9021,WL,A,6.0
6,31.31600022315979,distr,28683.99977684021,Tue Dec 02 2025 12:08:44 GMT-0500 (Eastern Standard Time),691168.2999999523,B,peach,I,h,120,3,4283.400000095367,686884.899999857,9021,WL,A,6.0
6,31.73200011253357,distr,28267.99988746643,Tue Dec 02 2025 12:08:44 GMT-0500 (Eastern Standard Time),691584.5999999046,B,peachenter,I,enter,401,3,4699.700000047684,686884.899999857,9021,WL,A,6.0
6,32.05000019073486,distr,27949.999809265137,Tue Dec 02 2025 12:08:44 GMT-0500 (Eastern Standard Time),691901.5999999046,B,b,I,b,310,3,316.7999999523163,691584.7999999523,9021,WL,A,7.0
6,32.18300008773804,distr,27816.999912261963,Tue Dec 02 2025 12:08:44 GMT-0500 (Eastern Standard Time),692035.0,B,bo,I,o,117,3,450.2000000476837,691584.7999999523,9021,WL,A,7.0
6,32.33300018310547,distr,27666.99981689453,Tue Dec 02 2025 12:08:44 GMT-0500 (Eastern Standard Time),692185.0999999046,B,bot,I,t,130,3,600.2999999523163,691584.7999999523,9021,WL,A,7.0
6,32.51600003242493,distr,27483.999967575073,Tue Dec 02 2025 12:08:44 GMT-0500 (Eastern Standard Time),692368.2999999523,B,bott,I,t,161,3,783.5,691584.7999999523,9021,WL,A,7.0
6,32.66600012779236,distr,27333.99987220764,Tue Dec 02 2025 12:08:44 GMT-0500 (Eastern Standard Time),692518.5,B,bottl,I,l,132,3,933.7000000476837,691584.7999999523,9021,WL,A,7.0
6,33.24900007247925,distr,26750.999927520752,Tue Dec 02 2025 12:08:44 GMT-0500 (Eastern Standard Time),693101.5,B,bottle,I,e,573,3,1516.7000000476837,691584.7999999523,9021,WL,A,7.0
6,34.349000215530396,distr,25650.999784469604,Tue Dec 02 2025 12:08:44 GMT-0500 (Eastern Standard Time),694201.1999998093,B,bottleenter,I,enter,1078,3,2616.399999856949,691584.7999999523,9021,WL,A,7.0
6,36.866000175476074,distr,23133.999824523926,Tue Dec 02 2025 12:08:44 GMT-0500 (Eastern Standard Time),696717.7999999523,B,enter,I,enter,2510,3,2516.2000000476837,694201.5999999046,9021,WL,A,8.0
6,37.099000215530396,distr,22900.999784469604,Tue Dec 02 2025 12:08:44 GMT-0500 (Eastern Standard Time),696951.1999998093,B,enter,I,enter,215,3,233.0,696718.1999998093,9021,WL,A,9.0
6,37.29900002479553,distr,22700.999975204468,Tue Dec 02 2025 12:08:44 GMT-0500 (Eastern Standard Time),697151.1999998093,B,enter,I,enter,191,3,199.59999990463257,696951.5999999046,9021,WL,A,10.0
6,37.449000120162964,distr,22550.999879837036,Tue Dec 02 2025 12:08:44 GMT-0500 (Eastern Standard Time),697301.1999998093,B,enter,I,enter,135,3,149.59999990463257,697151.5999999046,9021,WL,A,11.0
6,37.616000175476074,distr,22383.999824523926,Tue Dec 02 2025 12:08:44 GMT-0500 (Eastern Standard Time),697467.7999999523,B,enter,I,enter,144,3,166.20000004768372,697301.5999999046,9021,WL,A,12.0
6,37.81700015068054,distr,22182.999849319458,Tue Dec 02 2025 12:08:44 GMT-0500 (Eastern Standard Time),697668.899999857,B,enter,I,enter,186,3,200.70000004768372,697468.1999998093,9021,WL,A,13.0
6,37.99900007247925,distr,22000.999927520752,Tue Dec 02 2025 12:08:44 GMT-0500 (Eastern Standard Time),697851.1999998093,B,enter,I,enter,161,3,181.89999985694885,697669.2999999523,9021,WL,A,14.0
6,38.699000120162964,distr,21300.999879837036,Tue Dec 02 2025 12:08:44 GMT-0500 (Eastern Standard Time),698551.2999999523,B,enter,I,enter,682,3,699.7000000476837,697851.5999999046,9021,WL,A,15.0
7,12.966000080108643,immed,47033.99991989136,Tue Dec 02 2025 12:08:44 GMT-0500 (Eastern Standard Time),712568.399999857,A,b,I,b,12947,3,12966.099999904633,699602.2999999523,9021,WL,A,1.0
7,14.283000230789185,immed,45716.999769210815,Tue Dec 02 2025 12:08:44 GMT-0500 (Eastern Standard Time),713885.1999998093,A,,I,backspace,1291,3,14282.899999856949,699602.2999999523,9021,WL,A,1.0
7,16.58300018310547,immed,43416.99981689453,Tue Dec 02 2025 12:08:44 GMT-0500 (Eastern Standard Time),716185.0,A,t,I,t,2278,3,16582.700000047684,699602.2999999523,9021,WL,A,1.0
7,16.883000135421753,immed,43116.99986457825,Tue Dec 02 2025 12:08:44 GMT-0500 (Eastern Standard Time),716485.0,A,tr,I,r,282,3,16882.700000047684,699602.2999999523,9021,WL,A,1.0
7,17.016000032424927,immed,42983.99996757507,Tue Dec 02 2025 12:08:44 GMT-0500 (Eastern Standard Time),716618.1999998093,A,tra,I,a,110,3,17015.89999985695,699602.2999999523,9021,WL,A,1.0
7,17.31600022315979,immed,42683.99977684021,Tue Dec 02 2025 12:08:44 GMT-0500 (Eastern Standard Time),716918.5,A,trai,I,i,278,3,17316.200000047684,699602.2999999523,9021,WL,A,1.0
7,17.73300004005432,immed,42266.99995994568,Tue Dec 02 2025 12:08:44 GMT-0500 (Eastern Standard Time),717334.899999857,A,train,I,n,397,3,17732.599999904633,699602.2999999523,9021,WL,A,1.0
7,19.14900016784668,immed,40850.99983215332,Tue Dec 02 2025 12:08:44 GMT-0500 (Eastern Standard Time),718750.899999857,A,trainenter,I,enter,1403,3,19148.599999904633,699602.2999999523,9021,WL,A,1.0
7,19.56600022315979,immed,40433.99977684021,Tue Dec 02 2025 12:08:44 GMT-0500 (Eastern Standard Time),719168.2999999523,A,r,I,r,408,3,417.10000014305115,718751.1999998093,9021,WL,A,2.0
7,19.73300004005432,immed,40266.99995994568,Tue Dec 02 2025 12:08:44 GMT-0500 (Eastern Standard Time),719334.899999857,A,ru,I,u,147,3,583.7000000476837,718751.1999998093,9021,WL,A,2.0
7,19.950000047683716,immed,40049.999952316284,Tue Dec 02 2025 12:08:44 GMT-0500 (Eastern Standard Time),719551.6999998093,A,rug,I,g,198,3,800.5,718751.1999998093,9021,WL,A,2.0
7,20.199000120162964,immed,39800.999879837036,Tue Dec 02 2025 12:08:44 GMT-0500 (Eastern Standard Time),719801.2999999523,A,rugenter,I,enter,228,3,1050.1000001430511,718751.1999998093,9021,WL,A,2.0
7,20.58300018310547,immed,39416.99981689453,Tue Dec 02 2025 12:08:44 GMT-0500 (Eastern Standard Time),720185.0999999046,A,c,I,c,366,3,383.5,719801.5999999046,9021,WL,A,3.0
7,20.73300004005432,immed,39266.99995994568,Tue Dec 02 2025 12:08:44 GMT-0500 (Eastern Standard Time),720334.899999857,A,ch,I,h,138,3,533.2999999523163,719801.5999999046,9021,WL,A,3.0
7,20.766000032424927,immed,39233.99996757507,Tue Dec 02 2025 12:08:44 GMT-0500 (Eastern Standard Time),720368.1999998093,A,chi,I,i,11,3,566.5999999046326,719801.5999999046,9021,WL,A,3.0
7,21.14900016784668,immed,38850.99983215332,Tue Dec 02 2025 12:08:44 GMT-0500 (Eastern Standard Time),720751.5999999046,A,chim,I,m,369,3,950.0,719801.5999999046,9021,WL,A,3.0
7,21.383000135421753,immed,38616.99986457825,Tue Dec 02 2025 12:08:44 GMT-0500 (Eastern Standard Time),720984.899999857,A,chimn,I,n,213,3,1183.2999999523163,719801.5999999046,9021,WL,A,3.0
7,21.56600022315979,immed,38433.99977684021,Tue Dec 02 2025 12:08:44 GMT-0500 (Eastern Standard Time),721168.2999999523,A,chimne,I,e,170,3,1366.7000000476837,719801.5999999046,9021,WL,A,3.0
7,21.683000087738037,immed,38316.99991226196,Tue Dec 02 2025 12:08:44 GMT-0500 (Eastern Standard Time),721284.899999857,A,chimney,I,y,90,3,1483.2999999523163,719801.5999999046,9021,WL,A,3.0
7,22.249000072479248,immed,37750.99992752075,Tue Dec 02 2025 12:08:44 GMT-0500 (Eastern Standard Time),721851.1999998093,A,chimneyenter,I,enter,541,3,2049.5999999046326,719801.5999999046,9021,WL,A,3.0
7,22.58300018310547,immed,37416.99981689453,Tue Dec 02 2025 12:08:44 GMT-0500 (Eastern Standard Time),722185.0999999046,A,a,I,a,316,3,333.5,721851.5999999046,9021,WL,A,4.0
7,22.749000072479248,immed,37250.99992752075,Tue Dec 02 2025 12:08:44 GMT-0500 (Eastern Standard Time),722351.0999999046,A,ap,I,p,153,3,499.5,721851.5999999046,9021,WL,A,4.0
7,22.950000047683716,immed,37049.999952316284,Tue Dec 02 2025 12:08:44 GMT-0500 (Eastern Standard Time),722551.6999998093,A,app,I,p,183,3,700.0999999046326,721851.5999999046,9021,WL,A,4.0
7,23.14900016784668,immed,36850.99983215332,Tue Dec 02 2025 12:08:44 GMT-0500 (Eastern Standard Time),722751.6999998093,A,appl,I,l,179,3,900.0999999046326,721851.5999999046,9021,WL,A,4.0
7,23.283000230789185,immed,36716.999769210815,Tue Dec 02 2025 12:08:44 GMT-0500 (Eastern Standard Time),722885.0999999046,A,apple,I,e,116,3,1033.5,721851.5999999046,9021,WL,A,4.0
7,23.5,immed,36500.0,Tue Dec 02 2025 12:08:44 GMT-0500 (Eastern Standard Time),723102.1999998093,A,appleenter,I,enter,204,3,1250.5999999046326,721851.5999999046,9021,WL,A,4.0
7,23.90000009536743,immed,36099.99990463257,Tue Dec 02 2025 12:08:44 GMT-0500 (Eastern Standard Time),723501.6999998093,A,h,I,h,392,3,399.09999990463257,723102.5999999046,9021,WL,A,5.0
7,24.033000230789185,immed,35966.999769210815,Tue Dec 02 2025 12:08:44 GMT-0500 (Eastern Standard Time),723635.0999999046,A,ha,I,a,118,3,532.5,723102.5999999046,9021,WL,A,5.0
7,24.133000135421753,immed,35866.99986457825,Tue Dec 02 2025 12:08:44 GMT-0500 (Eastern Standard Time),723735.0,A,har,I,r,80,3,632.4000000953674,723102.5999999046,9021,WL,A,5.0
7,24.58300018310547,immed,35416.99981689453,Tue Dec 02 2025 12:08:44 GMT-0500 (Eastern Standard Time),724185.0999999046,A,harp,I,p,420,3,1082.5,723102.5999999046,9021,WL,A,5.0
7,24.866000175476074,immed,35133.999824523926,Tue Dec 02 2025 12:08:44 GMT-0500 (Eastern Standard Time),724467.899999857,A,harpenter,I,enter,264,3,1365.2999999523163,723102.5999999046,9021,WL,A,5.0
7,25.133000135421753,immed,34866.99986457825,Tue Dec 02 2025 12:08:44 GMT-0500 (Eastern Standard Time),724735.0,A,f,I,f,259,3,266.80000019073486,724468.1999998093,9021,WL,A,6.0
7,25.23300004005432,immed,34766.99995994568,Tue Dec 02 2025 12:08:44 GMT-0500 (Eastern Standard Time),724835.0,A,fi,I,i,84,3,366.80000019073486,724468.1999998093,9021,WL,A,6.0
7,25.48300004005432,immed,34516.99995994568,Tue Dec 02 2025 12:08:44 GMT-0500 (Eastern Standard Time),725084.899999857,A,fin,I,n,224,3,616.7000000476837,724468.1999998093,9021,WL,A,6.0
7,25.66600012779236,immed,34333.99987220764,Tue Dec 02 2025 12:08:44 GMT-0500 (Eastern Standard Time),725268.2999999523,A,fing,I,g,166,3,800.1000001430511,724468.1999998093,9021,WL,A,6.0
7,26.0,immed,34000.0,Tue Dec 02 2025 12:08:44 GMT-0500 (Eastern Standard Time),725601.6999998093,A,finge,I,e,311,3,1133.5,724468.1999998093,9021,WL,A,6.0
7,26.16600012779236,immed,33833.99987220764,Tue Dec 02 2025 12:08:44 GMT-0500 (Eastern Standard Time),725768.399999857,A,finger,I,r,146,3,1300.2000000476837,724468.1999998093,9021,WL,A,6.0
7,26.332000017166138,immed,33667.99998283386,Tue Dec 02 2025 12:08:44 GMT-0500 (Eastern Standard Time),725934.5,A,fingerenter,I,enter,154,3,1466.3000001907349,724468.1999998093,9021,WL,A,6.0
7,26.616000175476074,immed,33383.999824523926,Tue Dec 02 2025 12:08:44 GMT-0500 (Eastern Standard Time),726218.399999857,A,b,I,b,264,3,283.5,725934.899999857,9021,WL,A,7.0
7,26.716000080108643,immed,33283.99991989136,Tue Dec 02 2025 12:08:44 GMT-0500 (Eastern Standard Time),726318.2999999523,A,bu,I,u,87,3,383.40000009536743,725934.899999857,9021,WL,A,7.0
7,26.866000175476074,immed,33133.999824523926,Tue Dec 02 2025 12:08:44 GMT-0500 (Eastern Standard Time),726468.2999999523,A,but,I,t,133,3,533.4000000953674,725934.899999857,9021,WL,A,7.0
7,27.06600022315979,immed,32933.99977684021,Tue Dec 02 2025 12:08:44 GMT-0500 (Eastern Standard Time),726668.2999999523,A,butt,I,t,169,3,733.4000000953674,725934.899999857,9021,WL,A,7.0
7,27.133000135421753,immed,32866.99986457825,Tue Dec 02 2025 12:08:44 GMT-0500 (Eastern Standard Time),726734.5999999046,A,butto,I,o,55,3,799.7000000476837,725934.899999857,9021,WL,A,7.0
7,27.56600022315979,immed,32433.99977684021,Tue Dec 02 2025 12:08:44 GMT-0500 (Eastern Standard Time),727168.399999857,A,button,I,n,415,3,1233.5,725934.899999857,9021,WL,A,7.0
7,28.366000175476074,immed,31633.999824523926,Tue Dec 02 2025 12:08:44 GMT-0500 (Eastern Standard Time),727967.7999999523,A,buttonenter,I,enter,787,3,2032.9000000953674,725934.899999857,9021,WL,A,7.0
7,28.866000175476074,immed,31133.999824523926,Tue Dec 02 2025 12:08:44 GMT-0500 (Eastern Standard Time),728468.2999999523,A,g,I,g,487,3,500.2000000476837,727968.0999999046,9021,WL,A,8.0
7,28.966000080108643,immed,31033.999919891357,Tue Dec 02 2025 12:08:44 GMT-0500 (Eastern Standard Time),728568.399999857,A,go,I,o,80,3,600.2999999523163,727968.0999999046,9021,WL,A,8.0
7,29.200000047683716,immed,30799.999952316284,Tue Dec 02 2025 12:08:44 GMT-0500 (Eastern Standard Time),728801.5999999046,A,gol,I,l,219,3,833.5,727968.0999999046,9021,WL,A,8.0
7,29.33300018310547,immed,30666.99981689453,Tue Dec 02 2025 12:08:44 GMT-0500 (Eastern Standard Time),728935.0,A,gold,I,d,108,3,966.9000000953674,727968.0999999046,9021,WL,A,8.0
7,29.882000207901,immed,30117.999792099,Tue Dec 02 2025 12:08:44 GMT-0500 (Eastern Standard Time),729484.5,A,goldenter,I,enter,523,3,1516.4000000953674,727968.0999999046,9021,WL,A,8.0
7,30.266000032424927,immed,29733.999967575073,Tue Dec 02 2025 12:08:44 GMT-0500 (Eastern Standard Time),729868.2999999523,A,k,I,k,362,3,383.2999999523163,729485.0,9021,WL,A,9.0
7,30.383000135421753,immed,29616.999864578247,Tue Dec 02 2025 12:08:44 GMT-0500 (Eastern Standard Time),729984.899999857,A,ke,I,e,102,3,499.89999985694885,729485.0,9021,WL,A,9.0
7,30.600000143051147,immed,29399.999856948853,Tue Dec 02 2025 12:08:44 GMT-0500 (Eastern Standard Time),730201.6999998093,A,key,I,y,195,3,716.6999998092651,729485.0,9021,WL,A,9.0
7,31.049000024795532,immed,28950.999975204468,Tue Dec 02 2025 12:08:44 GMT-0500 (Eastern Standard Time),730651.1999998093,A,keyenter,I,enter,424,3,1166.1999998092651,729485.0,9021,WL,A,9.0
7,31.866000175476074,immed,28133.999824523926,Tue Dec 02 2025 12:08:44 GMT-0500 (Eastern Standard Time),731468.2999999523,A,l,I,l,796,3,816.7999999523163,730651.5,9021,WL,A,10.0
7,32.116000175476074,immed,27883.999824523926,Tue Dec 02 2025 12:08:44 GMT-0500 (Eastern Standard Time),731718.399999857,A,lo,I,o,230,3,1066.8999998569489,730651.5,9021,WL,A,10.0
7,32.74900007247925,immed,27250.999927520752,Tue Dec 02 2025 12:08:44 GMT-0500 (Eastern Standard Time),732351.5999999046,A,log,I,g,612,3,1700.0999999046326,730651.5,9021,WL,A,10.0
7,34.54900002479553,immed,25450.999975204468,Tue Dec 02 2025 12:08:44 GMT-0500 (Eastern Standard Time),734151.0999999046,A,logenter,I,enter,1779,3,3499.5999999046326,730651.5,9021,WL,A,10.0
7,48.60000014305115,immed,11399.999856948853,Tue Dec 02 2025 12:08:44 GMT-0500 (Eastern Standard Time),748201.6999998093,A,f,I,f,14031,3,14050.199999809265,734151.5,9021,WL,A,11.0
7,48.74900007247925,immed,11250.999927520752,Tue Dec 02 2025 12:08:44 GMT-0500 (Eastern Standard Time),748351.5999999046,A,fl,I,l,136,3,14200.099999904633,734151.5,9021,WL,A,11.0
7,49.033000230789185,immed,10966.999769210815,Tue Dec 02 2025 12:08:44 GMT-0500 (Eastern Standard Time),748634.7999999523,A,flo,I,o,252,3,14483.299999952316,734151.5,9021,WL,A,11.0
7,49.116000175476074,immed,10883.999824523926,Tue Dec 02 2025 12:08:44 GMT-0500 (Eastern Standard Time),748718.0,A,flow,I,w,74,3,14566.5,734151.5,9021,WL,A,11.0
7,49.43300008773804,immed,10566.999912261963,Tue Dec 02 2025 12:08:44 GMT-0500 (Eastern Standard Time),749034.899999857,A,flowr,I,r,286,3,14883.399999856949,734151.5,9021,WL,A,11.0
7,50.51600003242493,immed,9483.999967575073,Tue Dec 02 2025 12:08:44 GMT-0500 (Eastern Standard Time),750118.399999857,A,flow,I,backspace,1064,3,15966.899999856949,734151.5,9021,WL,A,11.0
7,50.700000047683716,immed,9299.999952316284,Tue Dec 02 2025 12:08:44 GMT-0500 (Eastern Standard Time),750301.6999998093,A,flowe,I,e,158,3,16150.199999809265,734151.5,9021,WL,A,11.0
7,50.76600003242493,immed,9233.999967575073,Tue Dec 02 2025 12:08:44 GMT-0500 (Eastern Standard Time),750368.0999999046,A,flower,I,r,54,3,16216.599999904633,734151.5,9021,WL,A,11.0
7,51.01600003242493,immed,8983.999967575073,Tue Dec 02 2025 12:08:44 GMT-0500 (Eastern Standard Time),750617.7999999523,A,flowerenter,I,enter,220,3,16466.299999952316,734151.5,9021,WL,A,11.0
7,51.41600012779236,immed,8583.999872207642,Tue Dec 02 2025 12:08:44 GMT-0500 (Eastern Standard Time),751018.399999857,A,m,I,m,381,3,400.2999999523163,750618.0999999046,9021,WL,A,12.0
7,51.49900007247925,immed,8500.999927520752,Tue Dec 02 2025 12:08:44 GMT-0500 (Eastern Standard Time),751101.5,A,me,I,e,74,3,483.40000009536743,750618.0999999046,9021,WL,A,12.0
7,51.616000175476074,immed,8383.999824523926,Tue Dec 02 2025 12:08:44 GMT-0500 (Eastern Standard Time),751218.399999857,A,mea,I,a,94,3,600.2999999523163,750618.0999999046,9021,WL,A,12.0
7,51.85000014305115,immed,8149.9998569488525,Tue Dec 02 2025 12:08:44 GMT-0500 (Eastern Standard Time),751451.5999999046,A,mead,I,d,209,3,833.5,750618.0999999046,9021,WL,A,12.0
7,52.0,immed,8000.0,Tue Dec 02 2025 12:08:44 GMT-0500 (Eastern Standard Time),751601.5999999046,A,meado,I,o,135,3,983.5,750618.0999999046,9021,WL,A,12.0
7,52.23300004005432,immed,7766.999959945679,Tue Dec 02 2025 12:08:44 GMT-0500 (Eastern Standard Time),751835.0999999046,A,meadow,I,w,202,3,1217.0,750618.0999999046,9021,WL,A,12.0
7,53.16600012779236,immed,6833.999872207642,Tue Dec 02 2025 12:08:44 GMT-0500 (Eastern Standard Time),752767.7999999523,A,meadowenter,I,enter,910,3,2149.7000000476837,750618.0999999046,9021,WL,A,12.0
7,57.33200001716614,immed,2667.9999828338623,Tue Dec 02 2025 12:08:44 GMT-0500 (Eastern Standard Time),756934.5,A,enter,I,enter,4150,3,4166.400000095367,752768.0999999046,9021,WL,A,13.0
7,57.76600003242493,immed,2233.9999675750732,Tue Dec 02 2025 12:08:44 GMT-0500 (Eastern Standard Time),757367.7999999523,A,enter,I,enter,415,3,432.90000009536743,756934.899999857,9021,WL,A,14.0
7,58.366000175476074,immed,1633.9998245239258,Tue Dec 02 2025 12:08:44 GMT-0500 (Eastern Standard Time),757967.7999999523,A,enter,I,enter,590,3,599.6000001430511,757368.1999998093,9021,WL,A,15.0
