block_c,block_dur,condition,countdown,datetime,endtime,list,multichar_response,project,response,response_time,session_number,start_end,starttime,subject_id,task,task_vers,trial
,,,,Thu Jun 12 2025 11:52:31 GMT-0400 (Eastern Daylight Time),,,,I,space,1090,1,,,9021,WL,B,
prac,,0,,Thu Jun 12 2025 11:52:31 GMT-0400 (Eastern Daylight Time),,NA,b,I,b,4283,1,,,9021,WL,B,1.0
prac,,0,,Thu Jun 12 2025 11:52:31 GMT-0400 (Eastern Daylight Time),,NA,bo,I,o,465,1,,,9021,WL,B,1.0
prac,,0,,Thu Jun 12 2025 11:52:31 GMT-0400 (Eastern Daylight Time),,NA,boo,I,o,178,1,,,9021,WL,B,1.0
prac,,0,,Thu Jun 12 2025 11:52:31 GMT-0400 (Eastern Daylight Time),,NA,boos,I,s,232,1,,,9021,WL,B,1.0
prac,,0,,Thu Jun 12 2025 11:52:31 GMT-0400 (Eastern Daylight Time),,NA,boost,I,t,207,1,,,9021,WL,B,1.0
prac,,0,,Thu Jun 12 2025 11:52:31 GMT-0400 (Eastern Daylight Time),,NA,boostenter,I,enter,517,1,,,9021,WL,B,1.0
1,1.6670000553131104,learn,58332.99994468689,Thu Jun 12 2025 11:52:31 GMT-0400 (Eastern Daylight Time),118715.7000002861,A,s,I,s,1647,1,1665.7000002861023,117050.0,9021,WL,B,1.0
1,2.2330000400543213,learn,57766.99995994568,Thu Jun 12 2025 11:52:31 GMT-0400 (Eastern Daylight Time),119282.2000002861,A,st,I,t,541,1,2232.2000002861023,117050.0,9021,WL,B,1.0
1,2.4830000400543213,learn,57516.99995994568,Thu Jun 12 2025 11:52:31 GMT-0400 (Eastern Daylight Time),119532.0,A,str,I,r,220,1,2482.0,117050.0,9021,WL,B,1.0
1,2.683000087738037,learn,57316.99991226196,Thu Jun 12 2025 11:52:31 GMT-0400 (Eastern Daylight Time),119732.0,A,stre,I,e,187,1,2682.0,117050.0,9021,WL,B,1.0
1,2.9000000953674316,learn,57099.99990463257,Thu Jun 12 2025 11:52:31 GMT-0400 (Eastern Daylight Time),119949.0,A,stree,I,e,194,1,2899.0,117050.0,9021,WL,B,1.0
1,3.1670000553131104,learn,56832.99994468689,Thu Jun 12 2025 11:52:31 GMT-0400 (Eastern Daylight Time),120215.40000009537,A,street,I,t,243,1,3165.4000000953674,117050.0,9021,WL,B,1.0
1,3.865999937057495,learn,56134.000062942505,Thu Jun 12 2025 11:52:31 GMT-0400 (Eastern Daylight Time),120915.0,A,streetenter,I,enter,664,1,3865.0,117050.0,9021,WL,B,1.0
1,5.383000135421753,learn,54616.99986457825,Thu Jun 12 2025 11:52:31 GMT-0400 (Eastern Daylight Time),122431.60000038147,A,g,I,g,1496,1,1515.9000000953674,120915.7000002861,9021,WL,B,2.0
1,5.58299994468689,learn,54417.00005531311,Thu Jun 12 2025 11:52:31 GMT-0400 (Eastern Daylight Time),122632.10000038147,A,gr,I,r,188,1,1716.4000000953674,120915.7000002861,9021,WL,B,2.0
1,5.733000040054321,learn,54266.99995994568,Thu Jun 12 2025 11:52:31 GMT-0400 (Eastern Daylight Time),122782.10000038147,A,gra,I,a,128,1,1866.4000000953674,120915.7000002861,9021,WL,B,2.0
1,5.867000102996826,learn,54132.999897003174,Thu Jun 12 2025 11:52:31 GMT-0400 (Eastern Daylight Time),122915.60000038147,A,gras,I,s,112,1,1999.9000000953674,120915.7000002861,9021,WL,B,2.0
1,6.133000135421753,learn,53866.99986457825,Thu Jun 12 2025 11:52:31 GMT-0400 (Eastern Daylight Time),123182.0,A,grass,I,s,236,1,2266.2999997138977,120915.7000002861,9021,WL,B,2.0
1,7.115999937057495,learn,52884.000062942505,Thu Jun 12 2025 11:52:31 GMT-0400 (Eastern Daylight Time),124165.0,A,grassenter,I,enter,968,1,3249.2999997138977,120915.7000002861,9021,WL,B,2.0
1,8.315999984741211,learn,51684.00001525879,Thu Jun 12 2025 11:52:31 GMT-0400 (Eastern Daylight Time),125364.90000009537,A,d,I,d,1190,1,1199.4000000953674,124165.5,9021,WL,B,3.0
1,8.483000040054321,learn,51516.99995994568,Thu Jun 12 2025 11:52:31 GMT-0400 (Eastern Daylight Time),125531.7000002861,A,do,I,o,149,1,1366.2000002861023,124165.5,9021,WL,B,3.0
1,8.650000095367432,learn,51349.99990463257,Thu Jun 12 2025 11:52:31 GMT-0400 (Eastern Daylight Time),125698.60000038147,A,doo,I,o,144,1,1533.1000003814697,124165.5,9021,WL,B,3.0
1,8.900000095367432,learn,51099.99990463257,Thu Jun 12 2025 11:52:31 GMT-0400 (Eastern Daylight Time),125948.80000019073,A,door,I,r,230,1,1783.3000001907349,124165.5,9021,WL,B,3.0
1,9.33299994468689,learn,50667.00005531311,Thu Jun 12 2025 11:52:31 GMT-0400 (Eastern Daylight Time),126381.60000038147,A,doorenter,I,enter,411,1,2216.1000003814697,124165.5,9021,WL,B,3.0
1,9.883000135421753,learn,50116.99986457825,Thu Jun 12 2025 11:52:31 GMT-0400 (Eastern Daylight Time),126931.90000009537,A,a,I,a,542,1,549.9000000953674,126382.0,9021,WL,B,4.0
1,10.016999959945679,learn,49983.00004005432,Thu Jun 12 2025 11:52:31 GMT-0400 (Eastern Daylight Time),127065.5,A,ar,I,r,108,1,683.5,126382.0,9021,WL,B,4.0
1,10.532999992370605,learn,49467.000007629395,Thu Jun 12 2025 11:52:31 GMT-0400 (Eastern Daylight Time),127582.0,A,arm,I,m,497,1,1200.0,126382.0,9021,WL,B,4.0
1,10.966000080108643,learn,49033.99991989136,Thu Jun 12 2025 11:52:31 GMT-0400 (Eastern Daylight Time),128014.90000009537,A,armenter,I,enter,410,1,1632.9000000953674,126382.0,9021,WL,B,4.0
1,11.367000102996826,learn,48632.999897003174,Thu Jun 12 2025 11:52:31 GMT-0400 (Eastern Daylight Time),128415.40000009537,A,w,I,w,381,1,399.90000009536743,128015.5,9021,WL,B,5.0
1,11.516999959945679,learn,48483.00004005432,Thu Jun 12 2025 11:52:31 GMT-0400 (Eastern Daylight Time),128565.30000019073,A,wi,I,i,136,1,549.8000001907349,128015.5,9021,WL,B,5.0
1,11.75,learn,48250.0,Thu Jun 12 2025 11:52:31 GMT-0400 (Eastern Daylight Time),128798.7000002861,A,wif,I,f,212,1,783.2000002861023,128015.5,9021,WL,B,5.0
1,11.967000007629395,learn,48032.999992370605,Thu Jun 12 2025 11:52:31 GMT-0400 (Eastern Daylight Time),129015.5,A,wife,I,e,197,1,1000.0,128015.5,9021,WL,B,5.0
1,13.365999937057495,learn,46634.000062942505,Thu Jun 12 2025 11:52:31 GMT-0400 (Eastern Daylight Time),130414.80000019073,A,wifeenter,I,enter,1376,1,2399.300000190735,128015.5,9021,WL,B,5.0
1,13.91700005531311,learn,46082.99994468689,Thu Jun 12 2025 11:52:31 GMT-0400 (Eastern Daylight Time),130965.40000009537,A,s,I,s,541,1,550.0999999046326,130415.30000019073,9021,WL,B,6.0
1,14.067000150680542,learn,45932.99984931946,Thu Jun 12 2025 11:52:31 GMT-0400 (Eastern Daylight Time),131115.40000009537,A,st,I,t,124,1,700.0999999046326,130415.30000019073,9021,WL,B,6.0
1,14.266999959945679,learn,45733.00004005432,Thu Jun 12 2025 11:52:31 GMT-0400 (Eastern Daylight Time),131315.60000038147,A,sta,I,a,189,1,900.3000001907349,130415.30000019073,9021,WL,B,6.0
1,14.532999992370605,learn,45467.000007629395,Thu Jun 12 2025 11:52:31 GMT-0400 (Eastern Daylight Time),131581.5,A,star,I,r,238,1,1166.1999998092651,130415.30000019073,9021,WL,B,6.0
1,15.25,learn,44750.0,Thu Jun 12 2025 11:52:31 GMT-0400 (Eastern Daylight Time),132298.30000019073,A,starenter,I,enter,702,1,1883.0,130415.30000019073,9021,WL,B,6.0
1,18.266000032424927,learn,41733.99996757507,Thu Jun 12 2025 11:52:31 GMT-0400 (Eastern Daylight Time),135315.0,A,p,I,p,2993,1,3016.2999997138977,132298.7000002861,9021,WL,B,7.0
1,19.467000007629395,learn,40532.999992370605,Thu Jun 12 2025 11:52:31 GMT-0400 (Eastern Daylight Time),136515.30000019073,A,pu,I,u,1175,1,4216.599999904633,132298.7000002861,9021,WL,B,7.0
1,19.76699995994568,learn,40233.00004005432,Thu Jun 12 2025 11:52:31 GMT-0400 (Eastern Daylight Time),136815.40000009537,A,pup,I,p,276,1,4516.699999809265,132298.7000002861,9021,WL,B,7.0
1,20.01699995994568,learn,39983.00004005432,Thu Jun 12 2025 11:52:31 GMT-0400 (Eastern Daylight Time),137065.40000009537,A,pupi,I,i,234,1,4766.699999809265,132298.7000002861,9021,WL,B,7.0
1,20.183000087738037,learn,39816.99991226196,Thu Jun 12 2025 11:52:31 GMT-0400 (Eastern Daylight Time),137232.10000038147,A,pupil,I,l,141,1,4933.400000095367,132298.7000002861,9021,WL,B,7.0
1,21.0,learn,39000.0,Thu Jun 12 2025 11:52:31 GMT-0400 (Eastern Daylight Time),138048.40000009537,A,pupilenter,I,enter,785,1,5749.699999809265,132298.7000002861,9021,WL,B,7.0
1,21.600000143051147,learn,38399.99985694885,Thu Jun 12 2025 11:52:31 GMT-0400 (Eastern Daylight Time),138648.60000038147,A,c,I,c,588,1,599.8000001907349,138048.80000019073,9021,WL,B,8.0
1,21.75,learn,38250.0,Thu Jun 12 2025 11:52:31 GMT-0400 (Eastern Daylight Time),138798.5,A,ci,I,i,129,1,749.6999998092651,138048.80000019073,9021,WL,B,8.0
1,21.967000007629395,learn,38032.999992370605,Thu Jun 12 2025 11:52:31 GMT-0400 (Eastern Daylight Time),139015.40000009537,A,cit,I,t,199,1,966.5999999046326,138048.80000019073,9021,WL,B,8.0
1,22.08299994468689,learn,37917.00005531311,Thu Jun 12 2025 11:52:31 GMT-0400 (Eastern Daylight Time),139131.90000009537,A,city,I,y,88,1,1083.0999999046326,138048.80000019073,9021,WL,B,8.0
1,23.615999937057495,learn,36384.000062942505,Thu Jun 12 2025 11:52:31 GMT-0400 (Eastern Daylight Time),140665.0,A,cityenter,I,enter,1509,1,2616.199999809265,138048.80000019073,9021,WL,B,8.0
1,24.90000009536743,learn,35099.99990463257,Thu Jun 12 2025 11:52:31 GMT-0400 (Eastern Daylight Time),141948.60000038147,A,l,I,l,1267,1,1283.2000002861023,140665.40000009537,9021,WL,B,9.0
1,25.08299994468689,learn,34917.00005531311,Thu Jun 12 2025 11:52:31 GMT-0400 (Eastern Daylight Time),142132.30000019073,A,la,I,a,173,1,1466.9000000953674,140665.40000009537,9021,WL,B,9.0
1,25.217000007629395,learn,34782.999992370605,Thu Jun 12 2025 11:52:31 GMT-0400 (Eastern Daylight Time),142265.40000009537,A,lak,I,k,109,1,1600.0,140665.40000009537,9021,WL,B,9.0
1,25.89900016784668,learn,34100.99983215332,Thu Jun 12 2025 11:52:31 GMT-0400 (Eastern Daylight Time),142948.2000002861,A,lake,I,e,672,1,2282.800000190735,140665.40000009537,9021,WL,B,9.0
1,26.615999937057495,learn,33384.000062942505,Thu Jun 12 2025 11:52:31 GMT-0400 (Eastern Daylight Time),143665.0,A,lakeenter,I,enter,695,1,2999.5999999046326,140665.40000009537,9021,WL,B,9.0
1,27.200000047683716,learn,32799.999952316284,Thu Jun 12 2025 11:52:31 GMT-0400 (Eastern Daylight Time),144248.40000009537,A,p,I,p,571,1,583.0999999046326,143665.30000019073,9021,WL,B,10.0
1,27.450000047683716,learn,32549.999952316284,Thu Jun 12 2025 11:52:31 GMT-0400 (Eastern Daylight Time),144498.80000019073,A,pi,I,i,228,1,833.5,143665.30000019073,9021,WL,B,10.0
1,27.532999992370605,learn,32467.000007629395,Thu Jun 12 2025 11:52:31 GMT-0400 (Eastern Daylight Time),144581.90000009537,A,pio,I,o,69,1,916.5999999046326,143665.30000019073,9021,WL,B,10.0
1,27.633000135421753,learn,32366.999864578247,Thu Jun 12 2025 11:52:31 GMT-0400 (Eastern Daylight Time),144682.10000038147,A,piop,I,p,83,1,1016.8000001907349,143665.30000019073,9021,WL,B,10.0
1,28.450000047683716,learn,31549.999952316284,Thu Jun 12 2025 11:52:31 GMT-0400 (Eastern Daylight Time),145498.80000019073,A,pio,I,backspace,798,1,1833.5,143665.30000019073,9021,WL,B,10.0
1,28.65000009536743,learn,31349.99990463257,Thu Jun 12 2025 11:52:31 GMT-0400 (Eastern Daylight Time),145698.80000019073,A,pi,I,backspace,174,1,2033.5,143665.30000019073,9021,WL,B,10.0
1,28.950000047683716,learn,31049.999952316284,Thu Jun 12 2025 11:52:31 GMT-0400 (Eastern Daylight Time),145998.60000038147,A,pip,I,p,278,1,2333.300000190735,143665.30000019073,9021,WL,B,10.0
1,29.41600012779236,learn,30583.99987220764,Thu Jun 12 2025 11:52:31 GMT-0400 (Eastern Daylight Time),146465.2000002861,A,pipe,I,e,443,1,2799.9000000953674,143665.30000019073,9021,WL,B,10.0
1,29.766000032424927,learn,30233.999967575073,Thu Jun 12 2025 11:52:31 GMT-0400 (Eastern Daylight Time),146814.90000009537,A,pipeenter,I,enter,327,1,3149.5999999046326,143665.30000019073,9021,WL,B,10.0
1,30.100000143051147,learn,29899.999856948853,Thu Jun 12 2025 11:52:31 GMT-0400 (Eastern Daylight Time),147148.60000038147,A,s,I,s,318,1,333.30000019073486,146815.30000019073,9021,WL,B,11.0
1,30.266000032424927,learn,29733.999967575073,Thu Jun 12 2025 11:52:31 GMT-0400 (Eastern Daylight Time),147314.90000009537,A,sk,I,k,149,1,499.59999990463257,146815.30000019073,9021,WL,B,11.0
1,30.5,learn,29500.0,Thu Jun 12 2025 11:52:31 GMT-0400 (Eastern Daylight Time),147548.7000002861,A,ski,I,i,218,1,733.4000000953674,146815.30000019073,9021,WL,B,11.0
1,30.66600012779236,learn,29333.99987220764,Thu Jun 12 2025 11:52:31 GMT-0400 (Eastern Daylight Time),147715.2000002861,A,skin,I,n,142,1,899.9000000953674,146815.30000019073,9021,WL,B,11.0
1,31.067000150680542,learn,28932.999849319458,Thu Jun 12 2025 11:52:31 GMT-0400 (Eastern Daylight Time),148115.60000038147,A,skinenter,I,enter,389,1,1300.3000001907349,146815.30000019073,9021,WL,B,11.0
1,31.516000032424927,learn,28483.999967575073,Thu Jun 12 2025 11:52:31 GMT-0400 (Eastern Daylight Time),148565.2000002861,A,f,I,f,441,1,449.30000019073486,148115.90000009537,9021,WL,B,12.0
1,31.633000135421753,learn,28366.999864578247,Thu Jun 12 2025 11:52:31 GMT-0400 (Eastern Daylight Time),148682.0,A,fi,I,i,103,1,566.0999999046326,148115.90000009537,9021,WL,B,12.0
1,31.782999992370605,learn,28217.000007629395,Thu Jun 12 2025 11:52:31 GMT-0400 (Eastern Daylight Time),148832.0,A,fir,I,r,127,1,716.0999999046326,148115.90000009537,9021,WL,B,12.0
1,31.90000009536743,learn,28099.99990463257,Thu Jun 12 2025 11:52:31 GMT-0400 (Eastern Daylight Time),148948.60000038147,A,fire,I,e,96,1,832.7000002861023,148115.90000009537,9021,WL,B,12.0
1,33.01600003242493,learn,26983.999967575073,Thu Jun 12 2025 11:52:31 GMT-0400 (Eastern Daylight Time),150064.90000009537,A,fireenter,I,enter,1091,1,1949.0,148115.90000009537,9021,WL,B,12.0
1,60.01699995994568,learn,-16.99995994567871,Thu Jun 12 2025 11:52:31 GMT-0400 (Eastern Daylight Time),177065.60000038147,A,None,I,None,26993,1,27000.300000190735,150065.30000019073,9021,WL,B,13.0
2,1.317000150680542,learn,58682.99984931946,Thu Jun 12 2025 11:52:31 GMT-0400 (Eastern Daylight Time),247365.5,A,s,I,s,1306,1,1316.5999999046326,246048.90000009537,9021,WL,B,1.0
2,1.6660001277923584,learn,58333.99987220764,Thu Jun 12 2025 11:52:31 GMT-0400 (Eastern Daylight Time),247715.30000019073,A,st,I,t,323,1,1666.4000000953674,246048.90000009537,9021,WL,B,1.0
2,1.9160001277923584,learn,58083.99987220764,Thu Jun 12 2025 11:52:31 GMT-0400 (Eastern Daylight Time),247965.10000038147,A,str,I,r,229,1,1916.2000002861023,246048.90000009537,9021,WL,B,1.0
2,2.0,learn,58000.0,Thu Jun 12 2025 11:52:31 GMT-0400 (Eastern Daylight Time),248048.30000019073,A,stre,I,e,60,1,1999.4000000953674,246048.90000009537,9021,WL,B,1.0
2,2.200000047683716,learn,57799.999952316284,Thu Jun 12 2025 11:52:31 GMT-0400 (Eastern Daylight Time),248248.7000002861,A,stree,I,e,188,1,2199.800000190735,246048.90000009537,9021,WL,B,1.0
2,2.4000000953674316,learn,57599.99990463257,Thu Jun 12 2025 11:52:31 GMT-0400 (Eastern Daylight Time),248448.5,A,street,I,t,176,1,2399.5999999046326,246048.90000009537,9021,WL,B,1.0
2,2.7829999923706055,learn,57217.000007629395,Thu Jun 12 2025 11:52:31 GMT-0400 (Eastern Daylight Time),248831.5,A,streetenter,I,enter,361,1,2782.5999999046326,246048.90000009537,9021,WL,B,1.0
2,3.2160000801086426,learn,56783.99991989136,Thu Jun 12 2025 11:52:31 GMT-0400 (Eastern Daylight Time),249265.2000002861,A,g,I,g,413,1,433.30000019073486,248831.90000009537,9021,WL,B,2.0
2,3.5,learn,56500.0,Thu Jun 12 2025 11:52:31 GMT-0400 (Eastern Daylight Time),249548.7000002861,A,gr,I,r,264,1,716.8000001907349,248831.90000009537,9021,WL,B,2.0
2,3.6500000953674316,learn,56349.99990463257,Thu Jun 12 2025 11:52:31 GMT-0400 (Eastern Daylight Time),249698.60000038147,A,gra,I,a,117,1,866.7000002861023,248831.90000009537,9021,WL,B,2.0
2,3.7330000400543213,learn,56266.99995994568,Thu Jun 12 2025 11:52:31 GMT-0400 (Eastern Daylight Time),249781.60000038147,A,gras,I,s,62,1,949.7000002861023,248831.90000009537,9021,WL,B,2.0
2,3.9670000076293945,learn,56032.999992370605,Thu Jun 12 2025 11:52:31 GMT-0400 (Eastern Daylight Time),250015.30000019073,A,grass,I,s,208,1,1183.4000000953674,248831.90000009537,9021,WL,B,2.0
2,4.466000080108643,learn,55533.99991989136,Thu Jun 12 2025 11:52:31 GMT-0400 (Eastern Daylight Time),250514.7000002861,A,grassenter,I,enter,481,1,1682.8000001907349,248831.90000009537,9021,WL,B,2.0
2,4.8500001430511475,learn,55149.99985694885,Thu Jun 12 2025 11:52:31 GMT-0400 (Eastern Daylight Time),250898.60000038147,A,d,I,d,362,1,383.6000003814697,250515.0,9021,WL,B,3.0
2,4.983000040054321,learn,55016.99995994568,Thu Jun 12 2025 11:52:31 GMT-0400 (Eastern Daylight Time),251031.90000009537,A,do,I,o,117,1,516.9000000953674,250515.0,9021,WL,B,3.0
2,5.133000135421753,learn,54866.99986457825,Thu Jun 12 2025 11:52:31 GMT-0400 (Eastern Daylight Time),251181.90000009537,A,doo,I,o,122,1,666.9000000953674,250515.0,9021,WL,B,3.0
2,5.266999959945679,learn,54733.00004005432,Thu Jun 12 2025 11:52:31 GMT-0400 (Eastern Daylight Time),251315.7000002861,A,door,I,r,116,1,800.7000002861023,250515.0,9021,WL,B,3.0
2,5.865999937057495,learn,54134.000062942505,Thu Jun 12 2025 11:52:31 GMT-0400 (Eastern Daylight Time),251914.80000019073,A,doorenter,I,enter,574,1,1399.8000001907349,250515.0,9021,WL,B,3.0
2,6.25,learn,53750.0,Thu Jun 12 2025 11:52:31 GMT-0400 (Eastern Daylight Time),252298.5,A,a,I,a,370,1,383.19999980926514,251915.30000019073,9021,WL,B,4.0
2,6.3500001430511475,learn,53649.99985694885,Thu Jun 12 2025 11:52:31 GMT-0400 (Eastern Daylight Time),252398.60000038147,A,ar,I,r,78,1,483.30000019073486,251915.30000019073,9021,WL,B,4.0
2,6.716000080108643,learn,53283.99991989136,Thu Jun 12 2025 11:52:31 GMT-0400 (Eastern Daylight Time),252765.2000002861,A,arm,I,m,339,1,849.9000000953674,251915.30000019073,9021,WL,B,4.0
2,7.299000024795532,learn,52700.99997520447,Thu Jun 12 2025 11:52:31 GMT-0400 (Eastern Daylight Time),253348.2000002861,A,armenter,I,enter,571,1,1432.9000000953674,251915.30000019073,9021,WL,B,4.0
2,7.733000040054321,learn,52266.99995994568,Thu Jun 12 2025 11:52:31 GMT-0400 (Eastern Daylight Time),253781.40000009537,A,w,I,w,423,1,432.7999997138977,253348.60000038147,9021,WL,B,5.0
2,7.883000135421753,learn,52116.99986457825,Thu Jun 12 2025 11:52:31 GMT-0400 (Eastern Daylight Time),253932.0,A,wi,I,i,132,1,583.3999996185303,253348.60000038147,9021,WL,B,5.0
2,8.065999984741211,learn,51934.00001525879,Thu Jun 12 2025 11:52:31 GMT-0400 (Eastern Daylight Time),254114.80000019073,A,wif,I,f,150,1,766.1999998092651,253348.60000038147,9021,WL,B,5.0
2,8.266000032424927,learn,51733.99996757507,Thu Jun 12 2025 11:52:31 GMT-0400 (Eastern Daylight Time),254315.2000002861,A,wife,I,e,186,1,966.5999999046326,253348.60000038147,9021,WL,B,5.0
2,8.815999984741211,learn,51184.00001525879,Thu Jun 12 2025 11:52:31 GMT-0400 (Eastern Daylight Time),254864.7000002861,A,wifeenter,I,enter,523,1,1516.0999999046326,253348.60000038147,9021,WL,B,5.0
2,9.133000135421753,learn,50866.99986457825,Thu Jun 12 2025 11:52:31 GMT-0400 (Eastern Daylight Time),255181.90000009537,A,c,I,c,301,1,316.7999997138977,254865.10000038147,9021,WL,B,6.0
2,9.282999992370605,learn,50717.000007629395,Thu Jun 12 2025 11:52:31 GMT-0400 (Eastern Daylight Time),255331.7000002861,A,cl,I,l,140,1,466.59999990463257,254865.10000038147,9021,WL,B,6.0
2,9.532999992370605,learn,50467.000007629395,Thu Jun 12 2025 11:52:31 GMT-0400 (Eastern Daylight Time),255581.90000009537,A,clo,I,o,221,1,716.7999997138977,254865.10000038147,9021,WL,B,6.0
2,10.150000095367432,learn,49849.99990463257,Thu Jun 12 2025 11:52:31 GMT-0400 (Eastern Daylight Time),256198.7000002861,A,cloc,I,c,604,1,1333.5999999046326,254865.10000038147,9021,WL,B,6.0
2,10.315999984741211,learn,49684.00001525879,Thu Jun 12 2025 11:52:31 GMT-0400 (Eastern Daylight Time),256365.2000002861,A,clock,I,k,146,1,1500.0999999046326,254865.10000038147,9021,WL,B,6.0
2,10.651000022888184,learn,49348.99997711182,Thu Jun 12 2025 11:52:31 GMT-0400 (Eastern Daylight Time),256699.5,A,clockenter,I,enter,313,1,1834.3999996185303,254865.10000038147,9021,WL,B,6.0
2,10.983000040054321,learn,49016.99995994568,Thu Jun 12 2025 11:52:31 GMT-0400 (Eastern Daylight Time),257031.80000019073,A,w,I,w,321,1,331.90000009536743,256699.90000009537,9021,WL,B,7.0
2,11.065999984741211,learn,48934.00001525879,Thu Jun 12 2025 11:52:31 GMT-0400 (Eastern Daylight Time),257115.2000002861,A,wi,I,i,65,1,415.30000019073486,256699.90000009537,9021,WL,B,7.0
2,11.266999959945679,learn,48733.00004005432,Thu Jun 12 2025 11:52:31 GMT-0400 (Eastern Daylight Time),257315.40000009537,A,win,I,n,185,1,615.5,256699.90000009537,9021,WL,B,7.0
2,11.416000127792358,learn,48583.99987220764,Thu Jun 12 2025 11:52:31 GMT-0400 (Eastern Daylight Time),257465.30000019073,A,wind,I,d,132,1,765.4000000953674,256699.90000009537,9021,WL,B,7.0
2,11.64900016784668,learn,48350.99983215332,Thu Jun 12 2025 11:52:31 GMT-0400 (Eastern Daylight Time),257698.0,A,windo,I,o,199,1,998.0999999046326,256699.90000009537,9021,WL,B,7.0
2,11.782999992370605,learn,48217.000007629395,Thu Jun 12 2025 11:52:31 GMT-0400 (Eastern Daylight Time),257831.80000019073,A,window,I,w,119,1,1131.9000000953674,256699.90000009537,9021,WL,B,7.0
2,12.282999992370605,learn,47717.000007629395,Thu Jun 12 2025 11:52:31 GMT-0400 (Eastern Daylight Time),258331.60000038147,A,windowenter,I,enter,474,1,1631.7000002861023,256699.90000009537,9021,WL,B,7.0
2,12.565999984741211,learn,47434.00001525879,Thu Jun 12 2025 11:52:31 GMT-0400 (Eastern Daylight Time),258615.2000002861,A,c,I,c,273,1,283.2000002861023,258332.0,9021,WL,B,8.0
2,12.75,learn,47250.0,Thu Jun 12 2025 11:52:31 GMT-0400 (Eastern Daylight Time),258798.60000038147,A,ci,I,i,156,1,466.6000003814697,258332.0,9021,WL,B,8.0
2,12.916000127792358,learn,47083.99987220764,Thu Jun 12 2025 11:52:31 GMT-0400 (Eastern Daylight Time),258965.2000002861,A,cit,I,t,147,1,633.2000002861023,258332.0,9021,WL,B,8.0
2,13.016000032424927,learn,46983.99996757507,Thu Jun 12 2025 11:52:31 GMT-0400 (Eastern Daylight Time),259065.2000002861,A,city,I,y,84,1,733.2000002861023,258332.0,9021,WL,B,8.0
2,13.516999959945679,learn,46483.00004005432,Thu Jun 12 2025 11:52:31 GMT-0400 (Eastern Daylight Time),259565.7000002861,A,cityenter,I,enter,480,1,1233.7000002861023,258332.0,9021,WL,B,8.0
2,13.916000127792358,learn,46083.99987220764,Thu Jun 12 2025 11:52:31 GMT-0400 (Eastern Daylight Time),259965.30000019073,A,p,I,p,382,1,399.19999980926514,259566.10000038147,9021,WL,B,9.0
2,14.065999984741211,learn,45934.00001525879,Thu Jun 12 2025 11:52:31 GMT-0400 (Eastern Daylight Time),260115.2000002861,A,pu,I,u,122,1,549.0999999046326,259566.10000038147,9021,WL,B,9.0
2,14.549999952316284,learn,45450.000047683716,Thu Jun 12 2025 11:52:31 GMT-0400 (Eastern Daylight Time),260598.5,A,pup,I,p,463,1,1032.3999996185303,259566.10000038147,9021,WL,B,9.0
2,14.716000080108643,learn,45283.99991989136,Thu Jun 12 2025 11:52:31 GMT-0400 (Eastern Daylight Time),260765.0,A,pupi,I,i,146,1,1198.8999996185303,259566.10000038147,9021,WL,B,9.0
2,15.0,learn,45000.0,Thu Jun 12 2025 11:52:31 GMT-0400 (Eastern Daylight Time),261048.60000038147,A,pupil,I,l,269,1,1482.5,259566.10000038147,9021,WL,B,9.0
2,15.666000127792358,learn,44333.99987220764,Thu Jun 12 2025 11:52:31 GMT-0400 (Eastern Daylight Time),261714.7000002861,A,pupilenter,I,enter,656,1,2148.5999999046326,259566.10000038147,9021,WL,B,9.0
2,16.049999952316284,learn,43950.000047683716,Thu Jun 12 2025 11:52:31 GMT-0400 (Eastern Daylight Time),262098.40000009537,A,l,I,l,361,1,383.40000009536743,261715.0,9021,WL,B,10.0
2,16.23300004005432,learn,43766.99995994568,Thu Jun 12 2025 11:52:31 GMT-0400 (Eastern Daylight Time),262282.0,A,la,I,a,168,1,567.0,261715.0,9021,WL,B,10.0
2,16.383000135421753,learn,43616.99986457825,Thu Jun 12 2025 11:52:31 GMT-0400 (Eastern Daylight Time),262432.0,A,lak,I,k,126,1,717.0,261715.0,9021,WL,B,10.0
2,16.516000032424927,learn,43483.99996757507,Thu Jun 12 2025 11:52:31 GMT-0400 (Eastern Daylight Time),262565.2000002861,A,lake,I,e,121,1,850.2000002861023,261715.0,9021,WL,B,10.0
2,18.183000087738037,learn,41816.99991226196,Thu Jun 12 2025 11:52:31 GMT-0400 (Eastern Daylight Time),264231.5,A,lakeenter,I,enter,1651,1,2516.5,261715.0,9021,WL,B,10.0
2,18.716000080108643,learn,41283.99991989136,Thu Jun 12 2025 11:52:31 GMT-0400 (Eastern Daylight Time),264765.2000002861,A,f,I,f,517,1,533.3000001907349,264231.90000009537,9021,WL,B,11.0
2,18.81599998474121,learn,41184.00001525879,Thu Jun 12 2025 11:52:31 GMT-0400 (Eastern Daylight Time),264865.10000038147,A,fi,I,i,69,1,633.2000002861023,264231.90000009537,9021,WL,B,11.0
2,19.032999992370605,learn,40967.000007629395,Thu Jun 12 2025 11:52:31 GMT-0400 (Eastern Daylight Time),265082.0,A,fir,I,r,193,1,850.0999999046326,264231.90000009537,9021,WL,B,11.0
2,19.15000009536743,learn,40849.99990463257,Thu Jun 12 2025 11:52:31 GMT-0400 (Eastern Daylight Time),265198.5,A,fire,I,e,89,1,966.5999999046326,264231.90000009537,9021,WL,B,11.0
2,19.58299994468689,learn,40417.00005531311,Thu Jun 12 2025 11:52:31 GMT-0400 (Eastern Daylight Time),265631.5,A,fireenter,I,enter,409,1,1399.5999999046326,264231.90000009537,9021,WL,B,11.0
2,20.0,learn,40000.0,Thu Jun 12 2025 11:52:31 GMT-0400 (Eastern Daylight Time),266048.40000009537,A,s,I,s,397,1,416.5,265631.90000009537,9021,WL,B,12.0
2,20.115999937057495,learn,39884.000062942505,Thu Jun 12 2025 11:52:31 GMT-0400 (Eastern Daylight Time),266165.30000019073,A,sk,I,k,98,1,533.4000000953674,265631.90000009537,9021,WL,B,12.0
2,20.532999992370605,learn,39467.000007629395,Thu Jun 12 2025 11:52:31 GMT-0400 (Eastern Daylight Time),266581.80000019073,A,ski,I,i,405,1,949.9000000953674,265631.90000009537,9021,WL,B,12.0
2,20.90000009536743,learn,39099.99990463257,Thu Jun 12 2025 11:52:31 GMT-0400 (Eastern Daylight Time),266948.60000038147,A,skin,I,n,348,1,1316.7000002861023,265631.90000009537,9021,WL,B,12.0
2,23.098999977111816,learn,36901.00002288818,Thu Jun 12 2025 11:52:31 GMT-0400 (Eastern Daylight Time),269148.30000019073,A,skinenter,I,enter,2181,1,3516.4000000953674,265631.90000009537,9021,WL,B,12.0
2,60.01600003242493,learn,-16.000032424926758,Thu Jun 12 2025 11:52:31 GMT-0400 (Eastern Daylight Time),306065.2000002861,A,None,I,None,36910,1,36916.59999990463,269148.60000038147,9021,WL,B,13.0
3,0.7669999599456787,learn,59233.00004005432,Thu Jun 12 2025 11:52:31 GMT-0400 (Eastern Daylight Time),384831.90000009537,A,c,I,c,745,1,766.4000000953674,384065.5,9021,WL,B,1.0
3,1.0169999599456787,learn,58983.00004005432,Thu Jun 12 2025 11:52:31 GMT-0400 (Eastern Daylight Time),385081.40000009537,A,cl,I,l,232,1,1015.9000000953674,384065.5,9021,WL,B,1.0
3,1.9000000953674316,learn,58099.99990463257,Thu Jun 12 2025 11:52:31 GMT-0400 (Eastern Daylight Time),385965.2000002861,A,clo,I,o,868,1,1899.7000002861023,384065.5,9021,WL,B,1.0
3,2.2669999599456787,learn,57733.00004005432,Thu Jun 12 2025 11:52:31 GMT-0400 (Eastern Daylight Time),386331.7000002861,A,cloc,I,c,348,1,2266.2000002861023,384065.5,9021,WL,B,1.0
3,2.384000062942505,learn,57615.999937057495,Thu Jun 12 2025 11:52:31 GMT-0400 (Eastern Daylight Time),386448.40000009537,A,clock,I,k,92,1,2382.9000000953674,384065.5,9021,WL,B,1.0
3,2.700000047683716,learn,57299.999952316284,Thu Jun 12 2025 11:52:31 GMT-0400 (Eastern Daylight Time),386764.80000019073,A,clockenter,I,enter,289,1,2699.300000190735,384065.5,9021,WL,B,1.0
3,3.0840001106262207,learn,56915.99988937378,Thu Jun 12 2025 11:52:31 GMT-0400 (Eastern Daylight Time),387148.40000009537,A,s,I,s,368,1,383.2999997138977,386765.10000038147,9021,WL,B,2.0
3,3.299999952316284,learn,56700.000047683716,Thu Jun 12 2025 11:52:31 GMT-0400 (Eastern Daylight Time),387365.10000038147,A,st,I,t,206,1,600.0,386765.10000038147,9021,WL,B,2.0
3,3.5339999198913574,learn,56466.00008010864,Thu Jun 12 2025 11:52:31 GMT-0400 (Eastern Daylight Time),387598.40000009537,A,str,I,r,206,1,833.2999997138977,386765.10000038147,9021,WL,B,2.0
3,3.5999999046325684,learn,56400.00009536743,Thu Jun 12 2025 11:52:31 GMT-0400 (Eastern Daylight Time),387664.80000019073,A,stre,I,e,43,1,899.6999998092651,386765.10000038147,9021,WL,B,2.0
3,3.816999912261963,learn,56183.00008773804,Thu Jun 12 2025 11:52:31 GMT-0400 (Eastern Daylight Time),387881.7000002861,A,stree,I,e,204,1,1116.5999999046326,386765.10000038147,9021,WL,B,2.0
3,3.9670000076293945,learn,56032.999992370605,Thu Jun 12 2025 11:52:31 GMT-0400 (Eastern Daylight Time),388031.90000009537,A,street,I,t,125,1,1266.7999997138977,386765.10000038147,9021,WL,B,2.0
3,4.200000047683716,learn,55799.999952316284,Thu Jun 12 2025 11:52:31 GMT-0400 (Eastern Daylight Time),388264.80000019073,A,streetenter,I,enter,216,1,1499.6999998092651,386765.10000038147,9021,WL,B,2.0
3,4.650000095367432,learn,55349.99990463257,Thu Jun 12 2025 11:52:31 GMT-0400 (Eastern Daylight Time),388715.2000002861,A,g,I,g,436,1,450.09999990463257,388265.10000038147,9021,WL,B,3.0
3,4.849999904632568,learn,55150.00009536743,Thu Jun 12 2025 11:52:31 GMT-0400 (Eastern Daylight Time),388915.30000019073,A,gr,I,r,170,1,650.1999998092651,388265.10000038147,9021,WL,B,3.0
3,5.0,learn,55000.0,Thu Jun 12 2025 11:52:31 GMT-0400 (Eastern Daylight Time),389065.2000002861,A,gra,I,a,134,1,800.0999999046326,388265.10000038147,9021,WL,B,3.0
3,5.099999904632568,learn,54900.00009536743,Thu Jun 12 2025 11:52:31 GMT-0400 (Eastern Daylight Time),389165.2000002861,A,gras,I,s,81,1,900.0999999046326,388265.10000038147,9021,WL,B,3.0
3,5.334000110626221,learn,54665.99988937378,Thu Jun 12 2025 11:52:31 GMT-0400 (Eastern Daylight Time),389398.40000009537,A,grass,I,s,212,1,1133.2999997138977,388265.10000038147,9021,WL,B,3.0
3,6.150000095367432,learn,53849.99990463257,Thu Jun 12 2025 11:52:31 GMT-0400 (Eastern Daylight Time),390214.7000002861,A,grassenter,I,enter,803,1,1949.5999999046326,388265.10000038147,9021,WL,B,3.0
3,6.7170000076293945,learn,53282.999992370605,Thu Jun 12 2025 11:52:31 GMT-0400 (Eastern Daylight Time),390781.90000009537,A,d,I,d,550,1,566.7999997138977,390215.10000038147,9021,WL,B,4.0
3,6.851000070571899,learn,53148.9999294281,Thu Jun 12 2025 11:52:31 GMT-0400 (Eastern Daylight Time),390915.60000038147,A,do,I,o,120,1,700.5,390215.10000038147,9021,WL,B,4.0
3,7.0,learn,53000.0,Thu Jun 12 2025 11:52:31 GMT-0400 (Eastern Daylight Time),391065.10000038147,A,doo,I,o,134,1,850.0,390215.10000038147,9021,WL,B,4.0
3,7.233999967575073,learn,52766.00003242493,Thu Jun 12 2025 11:52:31 GMT-0400 (Eastern Daylight Time),391298.5,A,door,I,r,207,1,1083.3999996185303,390215.10000038147,9021,WL,B,4.0
3,7.5,learn,52500.0,Thu Jun 12 2025 11:52:31 GMT-0400 (Eastern Daylight Time),391564.80000019073,A,doorenter,I,enter,246,1,1349.6999998092651,390215.10000038147,9021,WL,B,4.0
3,8.467000007629395,learn,51532.999992370605,Thu Jun 12 2025 11:52:31 GMT-0400 (Eastern Daylight Time),392531.80000019073,A,a,I,a,960,1,966.6999998092651,391565.10000038147,9021,WL,B,5.0
3,8.617000102996826,learn,51382.999897003174,Thu Jun 12 2025 11:52:31 GMT-0400 (Eastern Daylight Time),392681.7000002861,A,ar,I,r,133,1,1116.5999999046326,391565.10000038147,9021,WL,B,5.0
3,8.983000040054321,learn,51016.99995994568,Thu Jun 12 2025 11:52:31 GMT-0400 (Eastern Daylight Time),393048.10000038147,A,arm,I,m,344,1,1483.0,391565.10000038147,9021,WL,B,5.0
3,9.33299994468689,learn,50667.00005531311,Thu Jun 12 2025 11:52:31 GMT-0400 (Eastern Daylight Time),393398.10000038147,A,armenter,I,enter,340,1,1833.0,391565.10000038147,9021,WL,B,5.0
3,9.617000102996826,learn,50382.999897003174,Thu Jun 12 2025 11:52:31 GMT-0400 (Eastern Daylight Time),393681.80000019073,A,w,I,w,263,1,283.19999980926514,393398.60000038147,9021,WL,B,6.0
3,9.733999967575073,learn,50266.00003242493,Thu Jun 12 2025 11:52:31 GMT-0400 (Eastern Daylight Time),393798.30000019073,A,wi,I,i,104,1,399.69999980926514,393398.60000038147,9021,WL,B,6.0
3,9.967000007629395,learn,50032.999992370605,Thu Jun 12 2025 11:52:31 GMT-0400 (Eastern Daylight Time),394031.80000019073,A,wif,I,f,205,1,633.1999998092651,393398.60000038147,9021,WL,B,6.0
3,10.134000062942505,learn,49865.999937057495,Thu Jun 12 2025 11:52:31 GMT-0400 (Eastern Daylight Time),394198.5,A,wife,I,e,149,1,799.8999996185303,393398.60000038147,9021,WL,B,6.0
3,10.483000040054321,learn,49516.99995994568,Thu Jun 12 2025 11:52:31 GMT-0400 (Eastern Daylight Time),394548.10000038147,A,wifeenter,I,enter,336,1,1149.5,393398.60000038147,9021,WL,B,6.0
3,10.867000102996826,learn,49132.999897003174,Thu Jun 12 2025 11:52:31 GMT-0400 (Eastern Daylight Time),394931.80000019073,A,s,I,s,377,1,383.30000019073486,394548.5,9021,WL,B,7.0
3,11.033999919891357,learn,48966.00008010864,Thu Jun 12 2025 11:52:31 GMT-0400 (Eastern Daylight Time),395098.90000009537,A,st,I,t,147,1,550.4000000953674,394548.5,9021,WL,B,7.0
3,11.25,learn,48750.0,Thu Jun 12 2025 11:52:31 GMT-0400 (Eastern Daylight Time),395314.7000002861,A,sta,I,a,182,1,766.2000002861023,394548.5,9021,WL,B,7.0
3,11.33400011062622,learn,48665.99988937378,Thu Jun 12 2025 11:52:31 GMT-0400 (Eastern Daylight Time),395398.5,A,star,I,r,70,1,850.0,394548.5,9021,WL,B,7.0
3,13.400000095367432,learn,46599.99990463257,Thu Jun 12 2025 11:52:31 GMT-0400 (Eastern Daylight Time),397464.7000002861,A,starenter,I,enter,2044,1,2916.2000002861023,394548.5,9021,WL,B,7.0
3,16.08400011062622,learn,43915.99988937378,Thu Jun 12 2025 11:52:31 GMT-0400 (Eastern Daylight Time),400148.30000019073,A,p,I,p,2675,1,2683.199999809265,397465.10000038147,9021,WL,B,8.0
3,16.450999975204468,learn,43549.00002479553,Thu Jun 12 2025 11:52:31 GMT-0400 (Eastern Daylight Time),400515.5,A,pu,I,u,359,1,3050.3999996185303,397465.10000038147,9021,WL,B,8.0
3,17.01699995994568,learn,42983.00004005432,Thu Jun 12 2025 11:52:31 GMT-0400 (Eastern Daylight Time),401081.7000002861,A,pup,I,p,551,1,3616.5999999046326,397465.10000038147,9021,WL,B,8.0
3,17.200000047683716,learn,42799.999952316284,Thu Jun 12 2025 11:52:31 GMT-0400 (Eastern Daylight Time),401265.10000038147,A,pupi,I,i,159,1,3800.0,397465.10000038147,9021,WL,B,8.0
3,17.43400001525879,learn,42565.99998474121,Thu Jun 12 2025 11:52:31 GMT-0400 (Eastern Daylight Time),401498.40000009537,A,pupil,I,l,215,1,4033.2999997138977,397465.10000038147,9021,WL,B,8.0
3,18.383000135421753,learn,41616.99986457825,Thu Jun 12 2025 11:52:31 GMT-0400 (Eastern Daylight Time),402448.10000038147,A,pupilenter,I,enter,928,1,4983.0,397465.10000038147,9021,WL,B,8.0
3,18.83400011062622,learn,41165.99988937378,Thu Jun 12 2025 11:52:31 GMT-0400 (Eastern Daylight Time),402898.5,A,c,I,c,428,1,450.0,402448.5,9021,WL,B,9.0
3,19.066999912261963,learn,40933.00008773804,Thu Jun 12 2025 11:52:31 GMT-0400 (Eastern Daylight Time),403131.80000019073,A,ca,I,a,208,1,683.3000001907349,402448.5,9021,WL,B,9.0
3,19.33400011062622,learn,40665.99988937378,Thu Jun 12 2025 11:52:31 GMT-0400 (Eastern Daylight Time),403398.40000009537,A,cab,I,b,254,1,949.9000000953674,402448.5,9021,WL,B,9.0
3,19.450000047683716,learn,40549.999952316284,Thu Jun 12 2025 11:52:31 GMT-0400 (Eastern Daylight Time),403514.60000038147,A,cabi,I,i,92,1,1066.1000003814697,402448.5,9021,WL,B,9.0
3,19.66700005531311,learn,40332.99994468689,Thu Jun 12 2025 11:52:31 GMT-0400 (Eastern Daylight Time),403731.5,A,cabin,I,n,210,1,1283.0,402448.5,9021,WL,B,9.0
3,19.967000007629395,learn,40032.999992370605,Thu Jun 12 2025 11:52:31 GMT-0400 (Eastern Daylight Time),404031.40000009537,A,cabinenter,I,enter,270,1,1582.9000000953674,402448.5,9021,WL,B,9.0
3,20.367000102996826,learn,39632.999897003174,Thu Jun 12 2025 11:52:31 GMT-0400 (Eastern Daylight Time),404431.40000009537,A,l,I,l,380,1,399.69999980926514,404031.7000002861,9021,WL,B,10.0
3,20.58400011062622,learn,39415.99988937378,Thu Jun 12 2025 11:52:31 GMT-0400 (Eastern Daylight Time),404648.30000019073,A,lo,I,o,205,1,616.5999999046326,404031.7000002861,9021,WL,B,10.0
3,21.33400011062622,learn,38665.99988937378,Thu Jun 12 2025 11:52:31 GMT-0400 (Eastern Daylight Time),405398.40000009537,A,l,I,backspace,737,1,1366.6999998092651,404031.7000002861,9021,WL,B,10.0
3,21.634000062942505,learn,38365.999937057495,Thu Jun 12 2025 11:52:31 GMT-0400 (Eastern Daylight Time),405698.40000009537,A,la,I,a,267,1,1666.6999998092651,404031.7000002861,9021,WL,B,10.0
3,21.73300004005432,learn,38266.99995994568,Thu Jun 12 2025 11:52:31 GMT-0400 (Eastern Daylight Time),405798.0,A,lak,I,k,86,1,1766.2999997138977,404031.7000002861,9021,WL,B,10.0
3,22.200000047683716,learn,37799.999952316284,Thu Jun 12 2025 11:52:31 GMT-0400 (Eastern Daylight Time),406265.10000038147,A,lake,I,e,454,1,2233.4000000953674,404031.7000002861,9021,WL,B,10.0
3,23.16700005531311,learn,36832.99994468689,Thu Jun 12 2025 11:52:31 GMT-0400 (Eastern Daylight Time),407231.5,A,lakeenter,I,enter,943,1,3199.7999997138977,404031.7000002861,9021,WL,B,10.0
3,24.15000009536743,learn,35849.99990463257,Thu Jun 12 2025 11:52:31 GMT-0400 (Eastern Daylight Time),408215.2000002861,A,p,I,p,973,1,983.4000000953674,407231.80000019073,9021,WL,B,11.0
3,24.700000047683716,learn,35299.999952316284,Thu Jun 12 2025 11:52:31 GMT-0400 (Eastern Daylight Time),408764.60000038147,A,pi,I,i,529,1,1532.8000001907349,407231.80000019073,9021,WL,B,11.0
3,24.91600012779236,learn,35083.99987220764,Thu Jun 12 2025 11:52:31 GMT-0400 (Eastern Daylight Time),408981.2000002861,A,pip,I,p,207,1,1749.4000000953674,407231.80000019073,9021,WL,B,11.0
3,25.532999992370605,learn,34467.000007629395,Thu Jun 12 2025 11:52:31 GMT-0400 (Eastern Daylight Time),409597.90000009537,A,pipe,I,e,598,1,2366.0999999046326,407231.80000019073,9021,WL,B,11.0
3,26.73300004005432,learn,33266.99995994568,Thu Jun 12 2025 11:52:31 GMT-0400 (Eastern Daylight Time),410797.7000002861,A,pipeenter,I,enter,1182,1,3565.9000000953674,407231.80000019073,9021,WL,B,11.0
3,33.384000062942505,learn,26615.999937057495,Thu Jun 12 2025 11:52:31 GMT-0400 (Eastern Daylight Time),417448.40000009537,A,s,I,s,6640,1,6650.400000095367,410798.0,9021,WL,B,12.0
3,33.78399991989136,learn,26216.000080108643,Thu Jun 12 2025 11:52:31 GMT-0400 (Eastern Daylight Time),417848.5,A,sk,I,k,381,1,7050.5,410798.0,9021,WL,B,12.0
3,34.032999992370605,learn,25967.000007629395,Thu Jun 12 2025 11:52:31 GMT-0400 (Eastern Daylight Time),418098.10000038147,A,ski,I,i,224,1,7300.10000038147,410798.0,9021,WL,B,12.0
3,34.450000047683716,learn,25549.999952316284,Thu Jun 12 2025 11:52:31 GMT-0400 (Eastern Daylight Time),418515.10000038147,A,skin,I,n,395,1,7717.10000038147,410798.0,9021,WL,B,12.0
3,34.84999990463257,learn,25150.00009536743,Thu Jun 12 2025 11:52:31 GMT-0400 (Eastern Daylight Time),418914.7000002861,A,skinenter,I,enter,389,1,8116.700000286102,410798.0,9021,WL,B,12.0
3,35.40000009536743,learn,24599.99990463257,Thu Jun 12 2025 11:52:31 GMT-0400 (Eastern Daylight Time),419465.2000002861,A,f,I,f,535,1,550.0999999046326,418915.10000038147,9021,WL,B,13.0
3,35.549999952316284,learn,24450.000047683716,Thu Jun 12 2025 11:52:31 GMT-0400 (Eastern Daylight Time),419615.0,A,fi,I,i,121,1,699.8999996185303,418915.10000038147,9021,WL,B,13.0
3,35.84999990463257,learn,24150.00009536743,Thu Jun 12 2025 11:52:31 GMT-0400 (Eastern Daylight Time),419915.2000002861,A,fir,I,r,283,1,1000.0999999046326,418915.10000038147,9021,WL,B,13.0
3,35.967000007629395,learn,24032.999992370605,Thu Jun 12 2025 11:52:31 GMT-0400 (Eastern Daylight Time),420031.7000002861,A,fire,I,e,89,1,1116.5999999046326,418915.10000038147,9021,WL,B,13.0
3,37.76699995994568,learn,22233.00004005432,Thu Jun 12 2025 11:52:31 GMT-0400 (Eastern Daylight Time),421831.40000009537,A,fireenter,I,enter,1785,1,2916.2999997138977,418915.10000038147,9021,WL,B,13.0
3,60.01699995994568,learn,-16.99995994567871,Thu Jun 12 2025 11:52:31 GMT-0400 (Eastern Daylight Time),444081.5,A,None,I,None,22243,1,22249.699999809265,421831.80000019073,9021,WL,B,14.0
4,0.5999999046325684,learn,59400.00009536743,Thu Jun 12 2025 11:52:31 GMT-0400 (Eastern Daylight Time),525597.8000001907,A,c,I,c,579,1,599.0999999046326,524998.7000002861,9021,WL,B,1.0
4,0.7669999599456787,learn,59233.00004005432,Thu Jun 12 2025 11:52:31 GMT-0400 (Eastern Daylight Time),525764.8000001907,A,cl,I,l,159,1,766.0999999046326,524998.7000002861,9021,WL,B,1.0
4,0.9670000076293945,learn,59032.999992370605,Thu Jun 12 2025 11:52:31 GMT-0400 (Eastern Daylight Time),525964.9000000954,A,clo,I,o,174,1,966.1999998092651,524998.7000002861,9021,WL,B,1.0
4,1.3339998722076416,learn,58666.00012779236,Thu Jun 12 2025 11:52:31 GMT-0400 (Eastern Daylight Time),526331.7000002861,A,cloc,I,c,348,1,1333.0,524998.7000002861,9021,WL,B,1.0
4,1.4839999675750732,learn,58516.00003242493,Thu Jun 12 2025 11:52:31 GMT-0400 (Eastern Daylight Time),526481.6000003815,A,clock,I,k,125,1,1482.9000000953674,524998.7000002861,9021,WL,B,1.0
4,1.7999999523162842,learn,58200.000047683716,Thu Jun 12 2025 11:52:31 GMT-0400 (Eastern Daylight Time),526798.0,A,clockenter,I,enter,293,1,1799.2999997138977,524998.7000002861,9021,WL,B,1.0
4,2.434000015258789,learn,57565.99998474121,Thu Jun 12 2025 11:52:31 GMT-0400 (Eastern Daylight Time),527431.3000001907,A,g,I,g,622,1,632.9000000953674,526798.4000000954,9021,WL,B,2.0
4,2.934000015258789,learn,57065.99998474121,Thu Jun 12 2025 11:52:31 GMT-0400 (Eastern Daylight Time),527931.3000001907,A,gr,I,r,483,1,1132.9000000953674,526798.4000000954,9021,WL,B,2.0
4,5.000999927520752,learn,54999.00007247925,Thu Jun 12 2025 11:52:31 GMT-0400 (Eastern Daylight Time),529998.4000000954,A,g,I,backspace,2048,1,3200.0,526798.4000000954,9021,WL,B,2.0
4,5.299999952316284,learn,54700.000047683716,Thu Jun 12 2025 11:52:31 GMT-0400 (Eastern Daylight Time),530298.0,A,,I,backspace,282,1,3499.5999999046326,526798.4000000954,9021,WL,B,2.0
4,5.666999816894531,learn,54333.00018310547,Thu Jun 12 2025 11:52:31 GMT-0400 (Eastern Daylight Time),530665.0,A,s,I,s,355,1,3866.5999999046326,526798.4000000954,9021,WL,B,2.0
4,5.833999872207642,learn,54166.00012779236,Thu Jun 12 2025 11:52:31 GMT-0400 (Eastern Daylight Time),530831.8000001907,A,st,I,t,144,1,4033.4000000953674,526798.4000000954,9021,WL,B,2.0
4,6.050999879837036,learn,53949.000120162964,Thu Jun 12 2025 11:52:31 GMT-0400 (Eastern Daylight Time),531048.3000001907,A,str,I,r,195,1,4249.900000095367,526798.4000000954,9021,WL,B,2.0
4,6.133999824523926,learn,53866.000175476074,Thu Jun 12 2025 11:52:31 GMT-0400 (Eastern Daylight Time),531131.7000002861,A,stre,I,e,58,1,4333.300000190735,526798.4000000954,9021,WL,B,2.0
4,6.299999952316284,learn,53700.000047683716,Thu Jun 12 2025 11:52:31 GMT-0400 (Eastern Daylight Time),531298.0,A,stree,I,e,140,1,4499.599999904633,526798.4000000954,9021,WL,B,2.0
4,6.483999967575073,learn,53516.00003242493,Thu Jun 12 2025 11:52:31 GMT-0400 (Eastern Daylight Time),531481.5,A,street,I,t,168,1,4683.099999904633,526798.4000000954,9021,WL,B,2.0
4,6.799999952316284,learn,53200.000047683716,Thu Jun 12 2025 11:52:31 GMT-0400 (Eastern Daylight Time),531798.0,A,streetenter,I,enter,295,1,4999.599999904633,526798.4000000954,9021,WL,B,2.0
4,7.633999824523926,learn,52366.000175476074,Thu Jun 12 2025 11:52:31 GMT-0400 (Eastern Daylight Time),532631.8000001907,A,g,I,g,823,1,833.4000000953674,531798.4000000954,9021,WL,B,3.0
4,7.849999904632568,learn,52150.00009536743,Thu Jun 12 2025 11:52:31 GMT-0400 (Eastern Daylight Time),532848.3000001907,A,gr,I,r,195,1,1049.9000000953674,531798.4000000954,9021,WL,B,3.0
4,7.983999967575073,learn,52016.00003242493,Thu Jun 12 2025 11:52:31 GMT-0400 (Eastern Daylight Time),532981.8000001907,A,gra,I,a,120,1,1183.4000000953674,531798.4000000954,9021,WL,B,3.0
4,8.166999816894531,learn,51833.00018310547,Thu Jun 12 2025 11:52:31 GMT-0400 (Eastern Daylight Time),533164.9000000954,A,gras,I,s,157,1,1366.5,531798.4000000954,9021,WL,B,3.0
4,8.399999856948853,learn,51600.00014305115,Thu Jun 12 2025 11:52:31 GMT-0400 (Eastern Daylight Time),533398.3000001907,A,grass,I,s,214,1,1599.9000000953674,531798.4000000954,9021,WL,B,3.0
4,9.033999919891357,learn,50966.00008010864,Thu Jun 12 2025 11:52:31 GMT-0400 (Eastern Daylight Time),534031.6000003815,A,grassd,I,d,611,1,2233.2000002861023,531798.4000000954,9021,WL,B,3.0
4,9.901000022888184,learn,50098.99997711182,Thu Jun 12 2025 11:52:31 GMT-0400 (Eastern Daylight Time),534898.4000000954,A,grass,I,backspace,842,1,3100.0,531798.4000000954,9021,WL,B,3.0
4,10.316999912261963,learn,49683.00008773804,Thu Jun 12 2025 11:52:31 GMT-0400 (Eastern Daylight Time),535314.5,A,grassenter,I,enter,407,1,3516.0999999046326,531798.4000000954,9021,WL,B,3.0
4,10.717000007629395,learn,49282.999992370605,Thu Jun 12 2025 11:52:31 GMT-0400 (Eastern Daylight Time),535715.0,A,d,I,d,379,1,400.2999997138977,535314.7000002861,9021,WL,B,4.0
4,10.816999912261963,learn,49183.00008773804,Thu Jun 12 2025 11:52:31 GMT-0400 (Eastern Daylight Time),535815.0,A,do,I,o,80,1,500.2999997138977,535314.7000002861,9021,WL,B,4.0
4,10.983999967575073,learn,49016.00003242493,Thu Jun 12 2025 11:52:31 GMT-0400 (Eastern Daylight Time),535981.7000002861,A,doo,I,o,140,1,667.0,535314.7000002861,9021,WL,B,4.0
4,11.483999967575073,learn,48516.00003242493,Thu Jun 12 2025 11:52:31 GMT-0400 (Eastern Daylight Time),536481.8000001907,A,door,I,r,476,1,1167.0999999046326,535314.7000002861,9021,WL,B,4.0
4,11.799999952316284,learn,48200.000047683716,Thu Jun 12 2025 11:52:31 GMT-0400 (Eastern Daylight Time),536798.0,A,doorenter,I,enter,288,1,1483.2999997138977,535314.7000002861,9021,WL,B,4.0
4,12.25,learn,47750.0,Thu Jun 12 2025 11:52:31 GMT-0400 (Eastern Daylight Time),537248.3000001907,A,a,I,a,430,1,449.90000009536743,536798.4000000954,9021,WL,B,5.0
4,12.383999824523926,learn,47616.000175476074,Thu Jun 12 2025 11:52:31 GMT-0400 (Eastern Daylight Time),537381.6000003815,A,ar,I,r,121,1,583.2000002861023,536798.4000000954,9021,WL,B,5.0
4,13.049999952316284,learn,46950.000047683716,Thu Jun 12 2025 11:52:31 GMT-0400 (Eastern Daylight Time),538047.9000000954,A,arm,I,m,645,1,1249.5,536798.4000000954,9021,WL,B,5.0
4,13.799999952316284,learn,46200.000047683716,Thu Jun 12 2025 11:52:31 GMT-0400 (Eastern Daylight Time),538798.1000003815,A,armenter,I,enter,732,1,1999.7000002861023,536798.4000000954,9021,WL,B,5.0
4,14.166999816894531,learn,45833.00018310547,Thu Jun 12 2025 11:52:31 GMT-0400 (Eastern Daylight Time),539164.8000001907,A,w,I,w,350,1,366.19999980926514,538798.6000003815,9021,WL,B,6.0
4,14.317999839782715,learn,45682.000160217285,Thu Jun 12 2025 11:52:31 GMT-0400 (Eastern Daylight Time),539315.4000000954,A,wi,I,i,136,1,516.7999997138977,538798.6000003815,9021,WL,B,6.0
4,14.533999919891357,learn,45466.00008010864,Thu Jun 12 2025 11:52:31 GMT-0400 (Eastern Daylight Time),539531.7000002861,A,wif,I,f,196,1,733.0999999046326,538798.6000003815,9021,WL,B,6.0
4,15.166999816894531,learn,44833.00018310547,Thu Jun 12 2025 11:52:31 GMT-0400 (Eastern Daylight Time),540165.1000003815,A,wife,I,e,621,1,1366.5,538798.6000003815,9021,WL,B,6.0
4,15.549999952316284,learn,44450.000047683716,Thu Jun 12 2025 11:52:31 GMT-0400 (Eastern Daylight Time),540548.0,A,wifeenter,I,enter,370,1,1749.3999996185303,538798.6000003815,9021,WL,B,6.0
4,15.883999824523926,learn,44116.000175476074,Thu Jun 12 2025 11:52:31 GMT-0400 (Eastern Daylight Time),540881.7000002861,A,c,I,c,311,1,333.40000009536743,540548.3000001907,9021,WL,B,7.0
4,16.050999879837036,learn,43949.000120162964,Thu Jun 12 2025 11:52:31 GMT-0400 (Eastern Daylight Time),541048.5,A,ci,I,i,151,1,500.19999980926514,540548.3000001907,9021,WL,B,7.0
4,16.250999927520752,learn,43749.00007247925,Thu Jun 12 2025 11:52:31 GMT-0400 (Eastern Daylight Time),541248.4000000954,A,cit,I,t,177,1,700.0999999046326,540548.3000001907,9021,WL,B,7.0
4,16.401000022888184,learn,43598.99997711182,Thu Jun 12 2025 11:52:31 GMT-0400 (Eastern Daylight Time),541398.3000001907,A,city,I,y,132,1,850.0,540548.3000001907,9021,WL,B,7.0
4,16.76699995994568,learn,43233.00004005432,Thu Jun 12 2025 11:52:31 GMT-0400 (Eastern Daylight Time),541764.6000003815,A,cityenter,I,enter,348,1,1216.3000001907349,540548.3000001907,9021,WL,B,7.0
4,17.401000022888184,learn,42598.99997711182,Thu Jun 12 2025 11:52:31 GMT-0400 (Eastern Daylight Time),542398.5,A,s,I,s,616,1,633.5,541765.0,9021,WL,B,8.0
4,17.500999927520752,learn,42499.00007247925,Thu Jun 12 2025 11:52:31 GMT-0400 (Eastern Daylight Time),542498.4000000954,A,st,I,t,75,1,733.4000000953674,541765.0,9021,WL,B,8.0
4,17.750999927520752,learn,42249.00007247925,Thu Jun 12 2025 11:52:31 GMT-0400 (Eastern Daylight Time),542748.4000000954,A,sta,I,a,224,1,983.4000000953674,541765.0,9021,WL,B,8.0
4,18.401000022888184,learn,41598.99997711182,Thu Jun 12 2025 11:52:31 GMT-0400 (Eastern Daylight Time),543398.3000001907,A,star,I,r,637,1,1633.3000001907349,541765.0,9021,WL,B,8.0
4,19.533999919891357,learn,40466.00008010864,Thu Jun 12 2025 11:52:31 GMT-0400 (Eastern Daylight Time),544531.5,A,stars,I,s,1118,1,2766.5,541765.0,9021,WL,B,8.0
4,19.84999990463257,learn,40150.00009536743,Thu Jun 12 2025 11:52:31 GMT-0400 (Eastern Daylight Time),544848.0,A,starsenter,I,enter,294,1,3083.0,541765.0,9021,WL,B,8.0
4,20.200999975204468,learn,39799.00002479553,Thu Jun 12 2025 11:52:31 GMT-0400 (Eastern Daylight Time),545198.4000000954,A,w,I,w,333,1,350.0,544848.4000000954,9021,WL,B,9.0
4,20.316999912261963,learn,39683.00008773804,Thu Jun 12 2025 11:52:31 GMT-0400 (Eastern Daylight Time),545315.0,A,wi,I,i,88,1,466.59999990463257,544848.4000000954,9021,WL,B,9.0
4,20.550999879837036,learn,39449.000120162964,Thu Jun 12 2025 11:52:31 GMT-0400 (Eastern Daylight Time),545548.5,A,win,I,n,207,1,700.0999999046326,544848.4000000954,9021,WL,B,9.0
4,20.717999935150146,learn,39282.00006484985,Thu Jun 12 2025 11:52:31 GMT-0400 (Eastern Daylight Time),545715.4000000954,A,wind,I,d,158,1,867.0,544848.4000000954,9021,WL,B,9.0
4,20.866999864578247,learn,39133.00013542175,Thu Jun 12 2025 11:52:31 GMT-0400 (Eastern Daylight Time),545865.0,A,windo,I,o,124,1,1016.5999999046326,544848.4000000954,9021,WL,B,9.0
4,21.066999912261963,learn,38933.00008773804,Thu Jun 12 2025 11:52:31 GMT-0400 (Eastern Daylight Time),546065.1000003815,A,window,I,w,169,1,1216.7000002861023,544848.4000000954,9021,WL,B,9.0
4,21.633999824523926,learn,38366.000175476074,Thu Jun 12 2025 11:52:31 GMT-0400 (Eastern Daylight Time),546631.3000001907,A,windowenter,I,enter,543,1,1782.9000000953674,544848.4000000954,9021,WL,B,9.0
4,22.41699981689453,learn,37583.00018310547,Thu Jun 12 2025 11:52:31 GMT-0400 (Eastern Daylight Time),547415.1000003815,A,p,I,p,773,1,783.5,546631.6000003815,9021,WL,B,10.0
4,22.616999864578247,learn,37383.00013542175,Thu Jun 12 2025 11:52:31 GMT-0400 (Eastern Daylight Time),547615.0,A,pu,I,u,180,1,983.3999996185303,546631.6000003815,9021,WL,B,10.0
4,22.93400001525879,learn,37065.99998474121,Thu Jun 12 2025 11:52:31 GMT-0400 (Eastern Daylight Time),547931.6000003815,A,pup,I,p,298,1,1300.0,546631.6000003815,9021,WL,B,10.0
4,23.118000030517578,learn,36881.99996948242,Thu Jun 12 2025 11:52:31 GMT-0400 (Eastern Daylight Time),548115.5,A,pupi,I,i,174,1,1483.8999996185303,546631.6000003815,9021,WL,B,10.0
4,23.316999912261963,learn,36683.00008773804,Thu Jun 12 2025 11:52:31 GMT-0400 (Eastern Daylight Time),548315.0,A,pupil,I,l,182,1,1683.3999996185303,546631.6000003815,9021,WL,B,10.0
4,23.91699981689453,learn,36083.00018310547,Thu Jun 12 2025 11:52:31 GMT-0400 (Eastern Daylight Time),548914.5,A,pupilenter,I,enter,582,1,2282.8999996185303,546631.6000003815,9021,WL,B,10.0
4,24.317999839782715,learn,35682.000160217285,Thu Jun 12 2025 11:52:31 GMT-0400 (Eastern Daylight Time),549315.8000001907,A,l,I,l,394,1,401.0,548914.8000001907,9021,WL,B,11.0
4,24.549999952316284,learn,35450.000047683716,Thu Jun 12 2025 11:52:31 GMT-0400 (Eastern Daylight Time),549548.3000001907,A,la,I,a,202,1,633.5,548914.8000001907,9021,WL,B,11.0
4,24.76699995994568,learn,35233.00004005432,Thu Jun 12 2025 11:52:31 GMT-0400 (Eastern Daylight Time),549765.0,A,lab,I,b,205,1,850.1999998092651,548914.8000001907,9021,WL,B,11.0
4,25.018999814987183,learn,34981.00018501282,Thu Jun 12 2025 11:52:31 GMT-0400 (Eastern Daylight Time),550016.4000000954,A,labi,I,i,222,1,1101.5999999046326,548914.8000001907,9021,WL,B,11.0
4,28.16699981689453,learn,31833.00018310547,Thu Jun 12 2025 11:52:31 GMT-0400 (Eastern Daylight Time),553165.1000003815,A,lab,I,backspace,3122,1,4250.300000190735,548914.8000001907,9021,WL,B,11.0
4,28.649999856948853,learn,31350.000143051147,Thu Jun 12 2025 11:52:31 GMT-0400 (Eastern Daylight Time),553648.3000001907,A,la,I,backspace,461,1,4733.5,548914.8000001907,9021,WL,B,11.0
4,28.85199999809265,learn,31148.00000190735,Thu Jun 12 2025 11:52:31 GMT-0400 (Eastern Daylight Time),553849.9000000954,A,l,I,backspace,185,1,4935.099999904633,548914.8000001907,9021,WL,B,11.0
4,29.118000030517578,learn,30881.999969482422,Thu Jun 12 2025 11:52:31 GMT-0400 (Eastern Daylight Time),554115.5,A,,I,backspace,259,1,5200.699999809265,548914.8000001907,9021,WL,B,11.0
4,29.41699981689453,learn,30583.00018310547,Thu Jun 12 2025 11:52:31 GMT-0400 (Eastern Daylight Time),554415.0,A,c,I,c,279,1,5500.199999809265,548914.8000001907,9021,WL,B,11.0
4,29.68400001525879,learn,30315.99998474121,Thu Jun 12 2025 11:52:31 GMT-0400 (Eastern Daylight Time),554681.6000003815,A,ca,I,a,251,1,5766.800000190735,548914.8000001907,9021,WL,B,11.0
4,29.901000022888184,learn,30098.999977111816,Thu Jun 12 2025 11:52:31 GMT-0400 (Eastern Daylight Time),554898.4000000954,A,cab,I,b,183,1,5983.599999904633,548914.8000001907,9021,WL,B,11.0
4,30.151000022888184,learn,29848.999977111816,Thu Jun 12 2025 11:52:31 GMT-0400 (Eastern Daylight Time),555148.6000003815,A,cabi,I,i,226,1,6233.800000190735,548914.8000001907,9021,WL,B,11.0
4,30.43400001525879,learn,29565.99998474121,Thu Jun 12 2025 11:52:31 GMT-0400 (Eastern Daylight Time),555431.7000002861,A,cabin,I,n,267,1,6516.900000095367,548914.8000001907,9021,WL,B,11.0
4,30.733999967575073,learn,29266.000032424927,Thu Jun 12 2025 11:52:31 GMT-0400 (Eastern Daylight Time),555731.3000001907,A,cabinenter,I,enter,282,1,6816.5,548914.8000001907,9021,WL,B,11.0
4,31.116999864578247,learn,28883.000135421753,Thu Jun 12 2025 11:52:31 GMT-0400 (Eastern Daylight Time),556114.5,A,l,I,l,361,1,382.7999997138977,555731.7000002861,9021,WL,B,12.0
4,31.717000007629395,learn,28282.999992370605,Thu Jun 12 2025 11:52:31 GMT-0400 (Eastern Daylight Time),556714.9000000954,A,la,I,a,587,1,983.1999998092651,555731.7000002861,9021,WL,B,12.0
4,31.816999912261963,learn,28183.000087738037,Thu Jun 12 2025 11:52:31 GMT-0400 (Eastern Daylight Time),556815.0,A,lak,I,k,80,1,1083.2999997138977,555731.7000002861,9021,WL,B,12.0
4,32.11699986457825,learn,27883.000135421753,Thu Jun 12 2025 11:52:31 GMT-0400 (Eastern Daylight Time),557114.9000000954,A,lake,I,e,275,1,1383.1999998092651,555731.7000002861,9021,WL,B,12.0
4,33.93299984931946,learn,26067.000150680542,Thu Jun 12 2025 11:52:31 GMT-0400 (Eastern Daylight Time),558931.2000002861,A,lakeenter,I,enter,1799,1,3199.5,555731.7000002861,9021,WL,B,12.0
4,36.91699981689453,learn,23083.00018310547,Thu Jun 12 2025 11:52:31 GMT-0400 (Eastern Daylight Time),561915.0,A,a,I,a,2970,1,2983.3999996185303,558931.6000003815,9021,WL,B,13.0
4,38.70099997520447,learn,21299.000024795532,Thu Jun 12 2025 11:52:31 GMT-0400 (Eastern Daylight Time),563698.5,A,ar,I,r,1753,1,4766.89999961853,558931.6000003815,9021,WL,B,13.0
4,39.51799988746643,learn,20482.00011253357,Thu Jun 12 2025 11:52:31 GMT-0400 (Eastern Daylight Time),564515.3000001907,A,arm,I,m,806,1,5583.699999809265,558931.6000003815,9021,WL,B,13.0
4,40.56699991226196,learn,19433.000087738037,Thu Jun 12 2025 11:52:31 GMT-0400 (Eastern Daylight Time),565564.6000003815,A,armenter,I,enter,1029,1,6633.0,558931.6000003815,9021,WL,B,13.0
4,41.16699981689453,learn,18833.00018310547,Thu Jun 12 2025 11:52:31 GMT-0400 (Eastern Daylight Time),566165.0,A,f,I,f,591,1,600.0,565565.0,9021,WL,B,14.0
4,41.31699991226196,learn,18683.000087738037,Thu Jun 12 2025 11:52:31 GMT-0400 (Eastern Daylight Time),566314.9000000954,A,fi,I,i,129,1,749.9000000953674,565565.0,9021,WL,B,14.0
4,41.467000007629395,learn,18532.999992370605,Thu Jun 12 2025 11:52:31 GMT-0400 (Eastern Daylight Time),566465.0,A,fir,I,r,120,1,900.0,565565.0,9021,WL,B,14.0
4,41.549999952316284,learn,18450.000047683716,Thu Jun 12 2025 11:52:31 GMT-0400 (Eastern Daylight Time),566548.0,A,fire,I,e,72,1,983.0,565565.0,9021,WL,B,14.0
4,43.98399996757507,learn,16016.000032424927,Thu Jun 12 2025 11:52:31 GMT-0400 (Eastern Daylight Time),568981.3000001907,A,fireenter,I,enter,2413,1,3416.300000190735,565565.0,9021,WL,B,14.0
4,51.66699981689453,learn,8333.000183105469,Thu Jun 12 2025 11:52:31 GMT-0400 (Eastern Daylight Time),576664.7000002861,A,enter,I,enter,7670,1,7683.099999904633,568981.6000003815,9021,WL,B,15.0
5,1.6170001029968262,learn,60000.0,Thu Jun 12 2025 11:52:31 GMT-0400 (Eastern Daylight Time),647715.4000000954,A,c,I,c,1595,1,1617.1999998092651,646098.2000002861,9021,WL,B,1.0
5,1.7829999923706055,learn,60000.0,Thu Jun 12 2025 11:52:31 GMT-0400 (Eastern Daylight Time),647881.2000002861,A,cl,I,l,147,1,1783.0,646098.2000002861,9021,WL,B,1.0
5,2.566999912261963,learn,60000.0,Thu Jun 12 2025 11:52:31 GMT-0400 (Eastern Daylight Time),648664.9000000954,A,clo,I,o,770,1,2566.699999809265,646098.2000002861,9021,WL,B,1.0
5,4.049999952316284,learn,60000.0,Thu Jun 12 2025 11:52:31 GMT-0400 (Eastern Daylight Time),650148.3000001907,A,cloc,I,c,1472,1,4050.0999999046326,646098.2000002861,9021,WL,B,1.0
5,4.367000102996826,learn,60000.0,Thu Jun 12 2025 11:52:31 GMT-0400 (Eastern Daylight Time),650465.0,A,clock,I,k,287,1,4366.799999713898,646098.2000002861,9021,WL,B,1.0
5,4.983999967575073,learn,60000.0,Thu Jun 12 2025 11:52:31 GMT-0400 (Eastern Daylight Time),651081.3000001907,A,clockenter,I,enter,597,1,4983.099999904633,646098.2000002861,9021,WL,B,1.0
5,5.549999952316284,learn,60000.0,Thu Jun 12 2025 11:52:31 GMT-0400 (Eastern Daylight Time),651648.2000002861,A,p,I,p,546,1,566.5,651081.7000002861,9021,WL,B,2.0
5,5.733999967575073,learn,60000.0,Thu Jun 12 2025 11:52:31 GMT-0400 (Eastern Daylight Time),651831.5,A,pi,I,i,168,1,749.7999997138977,651081.7000002861,9021,WL,B,2.0
5,5.900000095367432,learn,60000.0,Thu Jun 12 2025 11:52:31 GMT-0400 (Eastern Daylight Time),651997.7000002861,A,pip,I,p,145,1,916.0,651081.7000002861,9021,WL,B,2.0
5,6.233000040054321,learn,60000.0,Thu Jun 12 2025 11:52:31 GMT-0400 (Eastern Daylight Time),652331.1000003815,A,pipl,I,l,318,1,1249.4000000953674,651081.7000002861,9021,WL,B,2.0
5,6.867000102996826,learn,60000.0,Thu Jun 12 2025 11:52:31 GMT-0400 (Eastern Daylight Time),652965.0,A,pip,I,backspace,625,1,1883.2999997138977,651081.7000002861,9021,WL,B,2.0
5,7.084000110626221,learn,60000.0,Thu Jun 12 2025 11:52:31 GMT-0400 (Eastern Daylight Time),653181.6000003815,A,pipe,I,e,195,1,2099.9000000953674,651081.7000002861,9021,WL,B,2.0
5,7.316999912261963,learn,60000.0,Thu Jun 12 2025 11:52:31 GMT-0400 (Eastern Daylight Time),653414.5,A,pipeenter,I,enter,219,1,2332.7999997138977,651081.7000002861,9021,WL,B,2.0
5,8.58299994468689,learn,60000.0,Thu Jun 12 2025 11:52:31 GMT-0400 (Eastern Daylight Time),654681.1000003815,A,s,I,s,1253,1,1266.3000001907349,653414.8000001907,9021,WL,B,3.0
5,8.816999912261963,learn,60000.0,Thu Jun 12 2025 11:52:31 GMT-0400 (Eastern Daylight Time),654914.9000000954,A,st,I,t,210,1,1500.0999999046326,653414.8000001907,9021,WL,B,3.0
5,9.16700005531311,learn,60000.0,Thu Jun 12 2025 11:52:31 GMT-0400 (Eastern Daylight Time),655264.7000002861,A,ste,I,e,320,1,1849.9000000953674,653414.8000001907,9021,WL,B,3.0
5,9.400000095367432,learn,60000.0,Thu Jun 12 2025 11:52:31 GMT-0400 (Eastern Daylight Time),655498.2000002861,A,stee,I,e,218,1,2083.4000000953674,653414.8000001907,9021,WL,B,3.0
5,9.566999912261963,learn,60000.0,Thu Jun 12 2025 11:52:31 GMT-0400 (Eastern Daylight Time),655664.9000000954,A,steet,I,t,136,1,2250.0999999046326,653414.8000001907,9021,WL,B,3.0
5,9.83400011062622,learn,60000.0,Thu Jun 12 2025 11:52:31 GMT-0400 (Eastern Daylight Time),655931.3000001907,A,steetenter,I,enter,248,1,2516.5,653414.8000001907,9021,WL,B,3.0
5,10.100000143051147,learn,60000.0,Thu Jun 12 2025 11:52:31 GMT-0400 (Eastern Daylight Time),656197.9000000954,A,g,I,g,256,1,266.19999980926514,655931.7000002861,9021,WL,B,4.0
5,10.266999959945679,learn,60000.0,Thu Jun 12 2025 11:52:31 GMT-0400 (Eastern Daylight Time),656365.0,A,gr,I,r,150,1,433.2999997138977,655931.7000002861,9021,WL,B,4.0
5,10.433000087738037,learn,60000.0,Thu Jun 12 2025 11:52:31 GMT-0400 (Eastern Daylight Time),656531.2000002861,A,gra,I,a,156,1,599.5,655931.7000002861,9021,WL,B,4.0
5,10.549999952316284,learn,60000.0,Thu Jun 12 2025 11:52:31 GMT-0400 (Eastern Daylight Time),656648.3000001907,A,gras,I,s,105,1,716.5999999046326,655931.7000002861,9021,WL,B,4.0
5,10.799999952316284,learn,60000.0,Thu Jun 12 2025 11:52:31 GMT-0400 (Eastern Daylight Time),656898.2000002861,A,grass,I,s,218,1,966.5,655931.7000002861,9021,WL,B,4.0
5,11.633000135421753,learn,60000.0,Thu Jun 12 2025 11:52:31 GMT-0400 (Eastern Daylight Time),657731.1000003815,A,grassenter,I,enter,821,1,1799.4000000953674,655931.7000002861,9021,WL,B,4.0
5,11.950000047683716,learn,60000.0,Thu Jun 12 2025 11:52:31 GMT-0400 (Eastern Daylight Time),658048.3000001907,A,d,I,d,296,1,316.80000019073486,657731.5,9021,WL,B,5.0
5,12.100000143051147,learn,60000.0,Thu Jun 12 2025 11:52:31 GMT-0400 (Eastern Daylight Time),658198.2000002861,A,do,I,o,137,1,466.7000002861023,657731.5,9021,WL,B,5.0
5,12.283999919891357,learn,60000.0,Thu Jun 12 2025 11:52:31 GMT-0400 (Eastern Daylight Time),658381.7000002861,A,doo,I,o,161,1,650.2000002861023,657731.5,9021,WL,B,5.0
5,12.66700005531311,learn,60000.0,Thu Jun 12 2025 11:52:31 GMT-0400 (Eastern Daylight Time),658764.9000000954,A,door,I,r,364,1,1033.4000000953674,657731.5,9021,WL,B,5.0
5,12.950000047683716,learn,60000.0,Thu Jun 12 2025 11:52:31 GMT-0400 (Eastern Daylight Time),659047.8000001907,A,doorenter,I,enter,262,1,1316.3000001907349,657731.5,9021,WL,B,5.0
5,13.184000015258789,learn,60000.0,Thu Jun 12 2025 11:52:31 GMT-0400 (Eastern Daylight Time),659281.7000002861,A,a,I,a,212,1,233.7000002861023,659048.0,9021,WL,B,6.0
5,13.316999912261963,learn,60000.0,Thu Jun 12 2025 11:52:31 GMT-0400 (Eastern Daylight Time),659414.9000000954,A,ar,I,r,116,1,366.90000009536743,659048.0,9021,WL,B,6.0
5,13.6010000705719,learn,60000.0,Thu Jun 12 2025 11:52:31 GMT-0400 (Eastern Daylight Time),659698.3000001907,A,arm,I,m,256,1,650.3000001907349,659048.0,9021,WL,B,6.0
5,13.867000102996826,learn,60000.0,Thu Jun 12 2025 11:52:31 GMT-0400 (Eastern Daylight Time),659964.5,A,armenter,I,enter,238,1,916.5,659048.0,9021,WL,B,6.0
5,14.16700005531311,learn,60000.0,Thu Jun 12 2025 11:52:31 GMT-0400 (Eastern Daylight Time),660265.1000003815,A,w,I,w,288,1,300.30000019073486,659964.8000001907,9021,WL,B,7.0
5,14.316999912261963,learn,60000.0,Thu Jun 12 2025 11:52:31 GMT-0400 (Eastern Daylight Time),660414.9000000954,A,wi,I,i,130,1,450.09999990463257,659964.8000001907,9021,WL,B,7.0
5,14.483999967575073,learn,60000.0,Thu Jun 12 2025 11:52:31 GMT-0400 (Eastern Daylight Time),660581.3000001907,A,wif,I,f,154,1,616.5,659964.8000001907,9021,WL,B,7.0
5,14.700999975204468,learn,60000.0,Thu Jun 12 2025 11:52:31 GMT-0400 (Eastern Daylight Time),660798.4000000954,A,wife,I,e,199,1,833.5999999046326,659964.8000001907,9021,WL,B,7.0
5,16.0,learn,60000.0,Thu Jun 12 2025 11:52:31 GMT-0400 (Eastern Daylight Time),662098.0,A,wifeenter,I,enter,1267,1,2133.199999809265,659964.8000001907,9021,WL,B,7.0
5,16.483999967575073,learn,60000.0,Thu Jun 12 2025 11:52:31 GMT-0400 (Eastern Daylight Time),662581.7000002861,A,s,I,s,474,1,483.40000009536743,662098.3000001907,9021,WL,B,8.0
5,16.617000102996826,learn,60000.0,Thu Jun 12 2025 11:52:31 GMT-0400 (Eastern Daylight Time),662714.9000000954,A,st,I,t,109,1,616.5999999046326,662098.3000001907,9021,WL,B,8.0
5,16.83400011062622,learn,60000.0,Thu Jun 12 2025 11:52:31 GMT-0400 (Eastern Daylight Time),662931.5,A,sta,I,a,207,1,833.1999998092651,662098.3000001907,9021,WL,B,8.0
5,17.0,learn,60000.0,Thu Jun 12 2025 11:52:31 GMT-0400 (Eastern Daylight Time),663098.3000001907,A,star,I,r,149,1,1000.0,662098.3000001907,9021,WL,B,8.0
5,17.983999967575073,learn,60000.0,Thu Jun 12 2025 11:52:31 GMT-0400 (Eastern Daylight Time),664081.2000002861,A,starenter,I,enter,952,1,1982.9000000953674,662098.3000001907,9021,WL,B,8.0
5,18.350000143051147,learn,60000.0,Thu Jun 12 2025 11:52:31 GMT-0400 (Eastern Daylight Time),664447.9000000954,A,w,I,w,345,1,366.2999997138977,664081.6000003815,9021,WL,B,9.0
5,18.43400001525879,learn,60000.0,Thu Jun 12 2025 11:52:31 GMT-0400 (Eastern Daylight Time),664531.6000003815,A,wi,I,i,74,1,450.0,664081.6000003815,9021,WL,B,9.0
5,18.700999975204468,learn,60000.0,Thu Jun 12 2025 11:52:31 GMT-0400 (Eastern Daylight Time),664798.4000000954,A,win,I,n,247,1,716.7999997138977,664081.6000003815,9021,WL,B,9.0
5,18.850000143051147,learn,60000.0,Thu Jun 12 2025 11:52:31 GMT-0400 (Eastern Daylight Time),664947.9000000954,A,wind,I,d,141,1,866.2999997138977,664081.6000003815,9021,WL,B,9.0
5,18.983999967575073,learn,60000.0,Thu Jun 12 2025 11:52:31 GMT-0400 (Eastern Daylight Time),665081.6000003815,A,windo,I,o,118,1,1000.0,664081.6000003815,9021,WL,B,9.0
5,19.467000007629395,learn,60000.0,Thu Jun 12 2025 11:52:31 GMT-0400 (Eastern Daylight Time),665564.9000000954,A,window,I,w,456,1,1483.2999997138977,664081.6000003815,9021,WL,B,9.0
5,20.549999952316284,learn,60000.0,Thu Jun 12 2025 11:52:31 GMT-0400 (Eastern Daylight Time),666647.9000000954,A,windowenter,I,enter,1067,1,2566.2999997138977,664081.6000003815,9021,WL,B,9.0
5,21.41700005531311,learn,60000.0,Thu Jun 12 2025 11:52:31 GMT-0400 (Eastern Daylight Time),667514.9000000954,A,c,I,c,852,1,866.5999999046326,666648.3000001907,9021,WL,B,10.0
5,21.549999952316284,learn,60000.0,Thu Jun 12 2025 11:52:31 GMT-0400 (Eastern Daylight Time),667648.2000002861,A,ci,I,i,108,1,999.9000000953674,666648.3000001907,9021,WL,B,10.0
5,21.783999919891357,learn,60000.0,Thu Jun 12 2025 11:52:31 GMT-0400 (Eastern Daylight Time),667881.6000003815,A,cit,I,t,217,1,1233.3000001907349,666648.3000001907,9021,WL,B,10.0
5,21.90000009536743,learn,60000.0,Thu Jun 12 2025 11:52:31 GMT-0400 (Eastern Daylight Time),667998.2000002861,A,city,I,y,97,1,1349.9000000953674,666648.3000001907,9021,WL,B,10.0
5,22.700000047683716,learn,60000.0,Thu Jun 12 2025 11:52:31 GMT-0400 (Eastern Daylight Time),668798.0,A,cityenter,I,enter,776,1,2149.699999809265,666648.3000001907,9021,WL,B,10.0
5,23.217000007629395,learn,60000.0,Thu Jun 12 2025 11:52:31 GMT-0400 (Eastern Daylight Time),669314.5,A,p,I,p,509,1,516.1999998092651,668798.3000001907,9021,WL,B,11.0
5,23.384000062942505,learn,60000.0,Thu Jun 12 2025 11:52:31 GMT-0400 (Eastern Daylight Time),669481.6000003815,A,pu,I,u,152,1,683.3000001907349,668798.3000001907,9021,WL,B,11.0
5,24.01800012588501,learn,60000.0,Thu Jun 12 2025 11:52:31 GMT-0400 (Eastern Daylight Time),670115.7000002861,A,pup,I,p,623,1,1317.4000000953674,668798.3000001907,9021,WL,B,11.0
5,24.15000009536743,learn,60000.0,Thu Jun 12 2025 11:52:31 GMT-0400 (Eastern Daylight Time),670248.1000003815,A,pupi,I,i,117,1,1449.8000001907349,668798.3000001907,9021,WL,B,11.0
5,24.43400001525879,learn,60000.0,Thu Jun 12 2025 11:52:31 GMT-0400 (Eastern Daylight Time),670531.5,A,pupil,I,l,275,1,1733.1999998092651,668798.3000001907,9021,WL,B,11.0
5,24.717000007629395,learn,60000.0,Thu Jun 12 2025 11:52:31 GMT-0400 (Eastern Daylight Time),670814.6000003815,A,pupilenter,I,enter,260,1,2016.3000001907349,668798.3000001907,9021,WL,B,11.0
5,25.117000102996826,learn,60000.0,Thu Jun 12 2025 11:52:31 GMT-0400 (Eastern Daylight Time),671214.5,A,c,I,c,381,1,399.59999990463257,670814.9000000954,9021,WL,B,12.0
5,25.450999975204468,learn,60000.0,Thu Jun 12 2025 11:52:31 GMT-0400 (Eastern Daylight Time),671548.3000001907,A,ca,I,a,318,1,733.4000000953674,670814.9000000954,9021,WL,B,12.0
5,25.700000047683716,learn,60000.0,Thu Jun 12 2025 11:52:31 GMT-0400 (Eastern Daylight Time),671798.1000003815,A,cab,I,b,237,1,983.2000002861023,670814.9000000954,9021,WL,B,12.0
5,25.801000118255615,learn,60000.0,Thu Jun 12 2025 11:52:31 GMT-0400 (Eastern Daylight Time),671898.3000001907,A,cabi,I,i,76,1,1083.4000000953674,670814.9000000954,9021,WL,B,12.0
5,26.051000118255615,learn,60000.0,Thu Jun 12 2025 11:52:31 GMT-0400 (Eastern Daylight Time),672148.4000000954,A,cabin,I,n,235,1,1333.5,670814.9000000954,9021,WL,B,12.0
5,26.566999912261963,learn,60000.0,Thu Jun 12 2025 11:52:31 GMT-0400 (Eastern Daylight Time),672664.5,A,cabinenter,I,enter,501,1,1849.5999999046326,670814.9000000954,9021,WL,B,12.0
5,27.0,learn,60000.0,Thu Jun 12 2025 11:52:31 GMT-0400 (Eastern Daylight Time),673098.2000002861,A,l,I,l,419,1,433.30000019073486,672664.9000000954,9021,WL,B,13.0
5,27.58299994468689,learn,60000.0,Thu Jun 12 2025 11:52:31 GMT-0400 (Eastern Daylight Time),673681.2000002861,A,la,I,a,555,1,1016.3000001907349,672664.9000000954,9021,WL,B,13.0
5,27.634000062942505,learn,60000.0,Thu Jun 12 2025 11:52:31 GMT-0400 (Eastern Daylight Time),673731.4000000954,A,lak,I,k,39,1,1066.5,672664.9000000954,9021,WL,B,13.0
5,27.83400011062622,learn,60000.0,Thu Jun 12 2025 11:52:31 GMT-0400 (Eastern Daylight Time),673931.4000000954,A,lake,I,e,186,1,1266.5,672664.9000000954,9021,WL,B,13.0
5,29.066999912261963,learn,60000.0,Thu Jun 12 2025 11:52:31 GMT-0400 (Eastern Daylight Time),675164.5,A,lakeenter,I,enter,1213,1,2499.5999999046326,672664.9000000954,9021,WL,B,13.0
5,32.53399991989136,learn,60000.0,Thu Jun 12 2025 11:52:31 GMT-0400 (Eastern Daylight Time),678631.5,A,s,I,s,3456,1,3466.699999809265,675164.8000001907,9021,WL,B,14.0
5,32.717000007629395,learn,60000.0,Thu Jun 12 2025 11:52:31 GMT-0400 (Eastern Daylight Time),678814.4000000954,A,sk,I,k,159,1,3649.5999999046326,675164.8000001907,9021,WL,B,14.0
5,32.93400001525879,learn,60000.0,Thu Jun 12 2025 11:52:31 GMT-0400 (Eastern Daylight Time),679031.5,A,ski,I,i,203,1,3866.699999809265,675164.8000001907,9021,WL,B,14.0
5,33.16700005531311,learn,60000.0,Thu Jun 12 2025 11:52:31 GMT-0400 (Eastern Daylight Time),679264.9000000954,A,skin,I,n,202,1,4100.099999904633,675164.8000001907,9021,WL,B,14.0
5,33.93300008773804,learn,60000.0,Thu Jun 12 2025 11:52:31 GMT-0400 (Eastern Daylight Time),680031.2000002861,A,skinenter,I,enter,736,1,4866.400000095367,675164.8000001907,9021,WL,B,14.0
5,34.801000118255615,learn,60000.0,Thu Jun 12 2025 11:52:31 GMT-0400 (Eastern Daylight Time),680898.3000001907,A,f,I,f,844,1,866.6999998092651,680031.6000003815,9021,WL,B,15.0
5,34.901000022888184,learn,60000.0,Thu Jun 12 2025 11:52:31 GMT-0400 (Eastern Daylight Time),680998.3000001907,A,fi,I,i,87,1,966.6999998092651,680031.6000003815,9021,WL,B,15.0
5,35.08400011062622,learn,60000.0,Thu Jun 12 2025 11:52:31 GMT-0400 (Eastern Daylight Time),681181.8000001907,A,fir,I,r,160,1,1150.1999998092651,680031.6000003815,9021,WL,B,15.0
5,35.35000014305115,learn,60000.0,Thu Jun 12 2025 11:52:31 GMT-0400 (Eastern Daylight Time),681448.2000002861,A,fire,I,e,246,1,1416.5999999046326,680031.6000003815,9021,WL,B,15.0
5,38.93300008773804,learn,60000.0,Thu Jun 12 2025 11:52:31 GMT-0400 (Eastern Daylight Time),685031.2000002861,A,fireenter,I,enter,3563,1,4999.599999904633,680031.6000003815,9021,WL,B,15.0
6,0.8660001754760742,distr,59133.999824523926,Thu Jun 12 2025 11:52:31 GMT-0400 (Eastern Daylight Time),764281.1000003815,B,b,I,b,851,1,866.0,763415.1000003815,9021,WL,B,1.0
6,1.2670001983642578,distr,58732.99980163574,Thu Jun 12 2025 11:52:31 GMT-0400 (Eastern Daylight Time),764681.5,B,ba,I,a,387,1,1266.3999996185303,763415.1000003815,9021,WL,B,1.0
6,1.5330002307891846,distr,58466.999769210815,Thu Jun 12 2025 11:52:31 GMT-0400 (Eastern Daylight Time),764948.2000002861,B,bab,I,b,249,1,1533.0999999046326,763415.1000003815,9021,WL,B,1.0
6,2.700000047683716,distr,57299.999952316284,Thu Jun 12 2025 11:52:31 GMT-0400 (Eastern Daylight Time),766114.8000001907,B,baby,I,y,1134,1,2699.699999809265,763415.1000003815,9021,WL,B,1.0
6,4.483000040054321,distr,55516.99995994568,Thu Jun 12 2025 11:52:31 GMT-0400 (Eastern Daylight Time),767897.9000000954,B,babyenter,I,enter,1765,1,4482.799999713898,763415.1000003815,9021,WL,B,1.0
6,5.050000190734863,distr,54949.99980926514,Thu Jun 12 2025 11:52:31 GMT-0400 (Eastern Daylight Time),768464.7000002861,B,p,I,p,546,1,566.5,767898.2000002861,9021,WL,B,2.0
6,5.300000190734863,distr,54699.99980926514,Thu Jun 12 2025 11:52:31 GMT-0400 (Eastern Daylight Time),768714.8000001907,B,pl,I,l,234,1,816.5999999046326,767898.2000002861,9021,WL,B,2.0
6,5.900000095367432,distr,54099.99990463257,Thu Jun 12 2025 11:52:31 GMT-0400 (Eastern Daylight Time),769314.8000001907,B,p,I,backspace,574,1,1416.5999999046326,767898.2000002861,9021,WL,B,2.0
6,6.117000102996826,distr,53882.999897003174,Thu Jun 12 2025 11:52:31 GMT-0400 (Eastern Daylight Time),769531.6000003815,B,pa,I,a,191,1,1633.4000000953674,767898.2000002861,9021,WL,B,2.0
6,6.300000190734863,distr,53699.99980926514,Thu Jun 12 2025 11:52:31 GMT-0400 (Eastern Daylight Time),769714.9000000954,B,pal,I,l,151,1,1816.6999998092651,767898.2000002861,9021,WL,B,2.0
6,6.567000150680542,distr,53432.99984931946,Thu Jun 12 2025 11:52:31 GMT-0400 (Eastern Daylight Time),769981.4000000954,B,pala,I,a,239,1,2083.199999809265,767898.2000002861,9021,WL,B,2.0
6,6.8500001430511475,distr,53149.99985694885,Thu Jun 12 2025 11:52:31 GMT-0400 (Eastern Daylight Time),770264.9000000954,B,palac,I,c,268,1,2366.699999809265,767898.2000002861,9021,WL,B,2.0
6,7.283000230789185,distr,52716.999769210815,Thu Jun 12 2025 11:52:31 GMT-0400 (Eastern Daylight Time),770698.1000003815,B,palace,I,e,409,1,2799.9000000953674,767898.2000002861,9021,WL,B,2.0
6,9.266000032424927,distr,50733.99996757507,Thu Jun 12 2025 11:52:31 GMT-0400 (Eastern Daylight Time),772681.1000003815,B,palaceenter,I,enter,1969,1,4782.900000095367,767898.2000002861,9021,WL,B,2.0
6,9.967000007629395,distr,50032.999992370605,Thu Jun 12 2025 11:52:31 GMT-0400 (Eastern Daylight Time),773381.5,B,l,I,l,692,1,700.0,772681.5,9021,WL,B,3.0
6,10.25,distr,49750.0,Thu Jun 12 2025 11:52:31 GMT-0400 (Eastern Daylight Time),773664.8000001907,B,li,I,i,254,1,983.3000001907349,772681.5,9021,WL,B,3.0
6,10.450000047683716,distr,49549.999952316284,Thu Jun 12 2025 11:52:31 GMT-0400 (Eastern Daylight Time),773864.8000001907,B,lip,I,p,185,1,1183.3000001907349,772681.5,9021,WL,B,3.0
6,11.516000032424927,distr,48483.99996757507,Thu Jun 12 2025 11:52:31 GMT-0400 (Eastern Daylight Time),774931.2000002861,B,lipenter,I,enter,1057,1,2249.7000002861023,772681.5,9021,WL,B,3.0
6,12.283000230789185,distr,47716.999769210815,Thu Jun 12 2025 11:52:31 GMT-0400 (Eastern Daylight Time),775698.1000003815,B,o,I,o,744,1,766.5,774931.6000003815,9021,WL,B,4.0
6,12.483000040054321,distr,47516.99995994568,Thu Jun 12 2025 11:52:31 GMT-0400 (Eastern Daylight Time),775898.3000001907,B,oc,I,c,183,1,966.6999998092651,774931.6000003815,9021,WL,B,4.0
6,12.850000143051147,distr,47149.99985694885,Thu Jun 12 2025 11:52:31 GMT-0400 (Eastern Daylight Time),776264.4000000954,B,oce,I,e,350,1,1332.7999997138977,774931.6000003815,9021,WL,B,4.0
6,13.050000190734863,distr,46949.99980926514,Thu Jun 12 2025 11:52:31 GMT-0400 (Eastern Daylight Time),776464.5,B,ocea,I,a,179,1,1532.8999996185303,774931.6000003815,9021,WL,B,4.0
6,13.200000047683716,distr,46799.999952316284,Thu Jun 12 2025 11:52:31 GMT-0400 (Eastern Daylight Time),776614.8000001907,B,ocean,I,n,140,1,1683.1999998092651,774931.6000003815,9021,WL,B,4.0
6,13.933000087738037,distr,46066.99991226196,Thu Jun 12 2025 11:52:31 GMT-0400 (Eastern Daylight Time),777347.9000000954,B,oceanenter,I,enter,716,1,2416.2999997138977,774931.6000003815,9021,WL,B,4.0
6,14.383000135421753,distr,45616.99986457825,Thu Jun 12 2025 11:52:31 GMT-0400 (Eastern Daylight Time),777798.1000003815,B,r,I,r,440,1,450.0,777348.1000003815,9021,WL,B,5.0
6,14.483000040054321,distr,45516.99995994568,Thu Jun 12 2025 11:52:31 GMT-0400 (Eastern Daylight Time),777898.2000002861,B,ro,I,o,83,1,550.0999999046326,777348.1000003815,9021,WL,B,5.0
6,14.83400011062622,distr,45165.99988937378,Thu Jun 12 2025 11:52:31 GMT-0400 (Eastern Daylight Time),778248.3000001907,B,roc,I,c,335,1,900.1999998092651,777348.1000003815,9021,WL,B,5.0
6,16.81600022315979,distr,43183.99977684021,Thu Jun 12 2025 11:52:31 GMT-0400 (Eastern Daylight Time),780231.0,B,rock,I,k,1960,1,2882.8999996185303,777348.1000003815,9021,WL,B,5.0
6,17.98300004005432,distr,42016.99995994568,Thu Jun 12 2025 11:52:31 GMT-0400 (Eastern Daylight Time),781397.8000001907,B,rockenter,I,enter,1156,1,4049.699999809265,777348.1000003815,9021,WL,B,5.0
6,18.450000047683716,distr,41549.999952316284,Thu Jun 12 2025 11:52:31 GMT-0400 (Eastern Daylight Time),781864.9000000954,B,a,I,a,455,1,466.69999980926514,781398.2000002861,9021,WL,B,6.0
6,18.567000150680542,distr,41432.99984931946,Thu Jun 12 2025 11:52:31 GMT-0400 (Eastern Daylight Time),781981.4000000954,B,ar,I,r,89,1,583.1999998092651,781398.2000002861,9021,WL,B,6.0
6,19.40000009536743,distr,40599.99990463257,Thu Jun 12 2025 11:52:31 GMT-0400 (Eastern Daylight Time),782814.7000002861,B,arm,I,m,813,1,1416.5,781398.2000002861,9021,WL,B,6.0
6,21.017000198364258,distr,38982.99980163574,Thu Jun 12 2025 11:52:31 GMT-0400 (Eastern Daylight Time),784431.4000000954,B,army,I,y,1594,1,3033.199999809265,781398.2000002861,9021,WL,B,6.0
6,21.73300004005432,distr,38266.99995994568,Thu Jun 12 2025 11:52:31 GMT-0400 (Eastern Daylight Time),785147.9000000954,B,armyenter,I,enter,699,1,3749.699999809265,781398.2000002861,9021,WL,B,6.0
6,22.517000198364258,distr,37482.99980163574,Thu Jun 12 2025 11:52:31 GMT-0400 (Eastern Daylight Time),785931.7000002861,B,v,I,v,769,1,783.4000000953674,785148.3000001907,9021,WL,B,7.0
6,22.683000087738037,distr,37316.99991226196,Thu Jun 12 2025 11:52:31 GMT-0400 (Eastern Daylight Time),786098.3000001907,B,vi,I,i,141,1,950.0,785148.3000001907,9021,WL,B,7.0
6,22.950000047683716,distr,37049.999952316284,Thu Jun 12 2025 11:52:31 GMT-0400 (Eastern Daylight Time),786364.8000001907,B,vil,I,l,239,1,1216.5,785148.3000001907,9021,WL,B,7.0
6,23.40000009536743,distr,36599.99990463257,Thu Jun 12 2025 11:52:31 GMT-0400 (Eastern Daylight Time),786814.9000000954,B,vila,I,a,429,1,1666.5999999046326,785148.3000001907,9021,WL,B,7.0
6,24.15000009536743,distr,35849.99990463257,Thu Jun 12 2025 11:52:31 GMT-0400 (Eastern Daylight Time),787564.7000002861,B,vil,I,backspace,725,1,2416.4000000953674,785148.3000001907,9021,WL,B,7.0
6,24.450000047683716,distr,35549.999952316284,Thu Jun 12 2025 11:52:31 GMT-0400 (Eastern Daylight Time),787864.9000000954,B,vill,I,l,286,1,2716.5999999046326,785148.3000001907,9021,WL,B,7.0
6,24.600000143051147,distr,35399.99985694885,Thu Jun 12 2025 11:52:31 GMT-0400 (Eastern Daylight Time),788014.8000001907,B,villa,I,a,128,1,2866.5,785148.3000001907,9021,WL,B,7.0
6,24.700000047683716,distr,35299.999952316284,Thu Jun 12 2025 11:52:31 GMT-0400 (Eastern Daylight Time),788114.7000002861,B,villag,I,g,73,1,2966.4000000953674,785148.3000001907,9021,WL,B,7.0
6,25.767000198364258,distr,34232.99980163574,Thu Jun 12 2025 11:52:31 GMT-0400 (Eastern Daylight Time),789181.5,B,village,I,e,1047,1,4033.199999809265,785148.3000001907,9021,WL,B,7.0
6,26.216000080108643,distr,33783.99991989136,Thu Jun 12 2025 11:52:31 GMT-0400 (Eastern Daylight Time),789631.2000002861,B,villageenter,I,enter,428,1,4482.900000095367,785148.3000001907,9021,WL,B,7.0
6,26.701000213623047,distr,33298.99978637695,Thu Jun 12 2025 11:52:31 GMT-0400 (Eastern Daylight Time),790115.2000002861,B,f,I,f,477,1,483.59999990463257,789631.6000003815,9021,WL,B,8.0
6,26.90000009536743,distr,33099.99990463257,Thu Jun 12 2025 11:52:31 GMT-0400 (Eastern Daylight Time),790314.8000001907,B,fr,I,r,182,1,683.1999998092651,789631.6000003815,9021,WL,B,8.0
6,27.550000190734863,distr,32449.999809265137,Thu Jun 12 2025 11:52:31 GMT-0400 (Eastern Daylight Time),790964.9000000954,B,fri,I,i,638,1,1333.2999997138977,789631.6000003815,9021,WL,B,8.0
6,27.68400001525879,distr,32315.99998474121,Thu Jun 12 2025 11:52:31 GMT-0400 (Eastern Daylight Time),791098.3000001907,B,frie,I,e,116,1,1466.6999998092651,789631.6000003815,9021,WL,B,8.0
6,27.866000175476074,distr,32133.999824523926,Thu Jun 12 2025 11:52:31 GMT-0400 (Eastern Daylight Time),791281.2000002861,B,frien,I,n,162,1,1649.5999999046326,789631.6000003815,9021,WL,B,8.0
6,28.016000032424927,distr,31983.999967575073,Thu Jun 12 2025 11:52:31 GMT-0400 (Eastern Daylight Time),791431.0,B,friend,I,d,139,1,1799.3999996185303,789631.6000003815,9021,WL,B,8.0
6,28.56600022315979,distr,31433.99977684021,Thu Jun 12 2025 11:52:31 GMT-0400 (Eastern Daylight Time),791980.9000000954,B,friendenter,I,enter,533,1,2349.2999997138977,789631.6000003815,9021,WL,B,8.0
6,28.883000135421753,distr,31116.999864578247,Thu Jun 12 2025 11:52:31 GMT-0400 (Eastern Daylight Time),792298.2000002861,B,c,I,c,302,1,316.90000009536743,791981.3000001907,9021,WL,B,9.0
6,29.183000087738037,distr,30816.999912261963,Thu Jun 12 2025 11:52:31 GMT-0400 (Eastern Daylight Time),792598.1000003815,B,ce,I,e,285,1,616.8000001907349,791981.3000001907,9021,WL,B,9.0
6,29.367000102996826,distr,30632.999897003174,Thu Jun 12 2025 11:52:31 GMT-0400 (Eastern Daylight Time),792781.6000003815,B,cel,I,l,155,1,800.3000001907349,791981.3000001907,9021,WL,B,9.0
6,29.517000198364258,distr,30482.999801635742,Thu Jun 12 2025 11:52:31 GMT-0400 (Eastern Daylight Time),792932.2000002861,B,cell,I,l,133,1,950.9000000953674,791981.3000001907,9021,WL,B,9.0
6,29.950000047683716,distr,30049.999952316284,Thu Jun 12 2025 11:52:31 GMT-0400 (Eastern Daylight Time),793364.4000000954,B,cellenter,I,enter,413,1,1383.0999999046326,791981.3000001907,9021,WL,B,9.0
6,35.699000120162964,distr,24300.999879837036,Thu Jun 12 2025 11:52:31 GMT-0400 (Eastern Daylight Time),799114.2000002861,B,d,I,d,5735,1,5749.5,793364.7000002861,9021,WL,B,10.0
6,35.91700005531311,distr,24082.99994468689,Thu Jun 12 2025 11:52:31 GMT-0400 (Eastern Daylight Time),799331.5,B,dr,I,r,206,1,5966.799999713898,793364.7000002861,9021,WL,B,10.0
6,36.15000009536743,distr,23849.99990463257,Thu Jun 12 2025 11:52:31 GMT-0400 (Eastern Daylight Time),799564.6000003815,B,dre,I,e,207,1,6199.900000095367,793364.7000002861,9021,WL,B,10.0
6,36.35000014305115,distr,23649.999856948853,Thu Jun 12 2025 11:52:31 GMT-0400 (Eastern Daylight Time),799764.8000001907,B,dres,I,s,186,1,6400.099999904633,793364.7000002861,9021,WL,B,10.0
6,36.55000019073486,distr,23449.999809265137,Thu Jun 12 2025 11:52:31 GMT-0400 (Eastern Daylight Time),799964.5,B,dress,I,s,172,1,6599.799999713898,793364.7000002861,9021,WL,B,10.0
6,37.01600003242493,distr,22983.999967575073,Thu Jun 12 2025 11:52:31 GMT-0400 (Eastern Daylight Time),800431.0,B,dressenter,I,enter,448,1,7066.299999713898,793364.7000002861,9021,WL,B,10.0
6,60.01700019836426,distr,-17.000198364257812,Thu Jun 12 2025 11:52:31 GMT-0400 (Eastern Daylight Time),823431.6000003815,B,None,I,None,22994,1,23000.400000095367,800431.2000002861,9021,WL,B,11.0
7,1.2999999523162842,immed,58700.000047683716,Thu Jun 12 2025 11:52:31 GMT-0400 (Eastern Daylight Time),834764.9000000954,A,s,I,s,1279,1,1299.5999999046326,833465.3000001907,9021,WL,B,1.0
7,1.8499999046325684,immed,58150.00009536743,Thu Jun 12 2025 11:52:31 GMT-0400 (Eastern Daylight Time),835315.2000002861,A,st,I,t,537,1,1849.9000000953674,833465.3000001907,9021,WL,B,1.0
7,2.116999864578247,immed,57883.00013542175,Thu Jun 12 2025 11:52:31 GMT-0400 (Eastern Daylight Time),835581.6000003815,A,str,I,r,245,1,2116.300000190735,833465.3000001907,9021,WL,B,1.0
7,2.2669999599456787,immed,57733.00004005432,Thu Jun 12 2025 11:52:31 GMT-0400 (Eastern Daylight Time),835731.6000003815,A,stre,I,e,141,1,2266.300000190735,833465.3000001907,9021,WL,B,1.0
7,2.4499998092651367,immed,57550.00019073486,Thu Jun 12 2025 11:52:31 GMT-0400 (Eastern Daylight Time),835914.9000000954,A,stree,I,e,164,1,2449.5999999046326,833465.3000001907,9021,WL,B,1.0
7,2.6669998168945312,immed,57333.00018310547,Thu Jun 12 2025 11:52:31 GMT-0400 (Eastern Daylight Time),836131.6000003815,A,street,I,t,206,1,2666.300000190735,833465.3000001907,9021,WL,B,1.0
7,3.4659998416900635,immed,56534.00015830994,Thu Jun 12 2025 11:52:31 GMT-0400 (Eastern Daylight Time),836931.0,A,streetenter,I,enter,780,1,3465.699999809265,833465.3000001907,9021,WL,B,1.0
7,3.8499999046325684,immed,56150.00009536743,Thu Jun 12 2025 11:52:31 GMT-0400 (Eastern Daylight Time),837314.7000002861,A,g,I,g,361,1,383.30000019073486,836931.4000000954,9021,WL,B,2.0
7,4.0329999923706055,immed,55967.000007629395,Thu Jun 12 2025 11:52:31 GMT-0400 (Eastern Daylight Time),837498.2000002861,A,gr,I,r,166,1,566.8000001907349,836931.4000000954,9021,WL,B,2.0
7,4.166999816894531,immed,55833.00018310547,Thu Jun 12 2025 11:52:31 GMT-0400 (Eastern Daylight Time),837631.3000001907,A,gra,I,a,112,1,699.9000000953674,836931.4000000954,9021,WL,B,2.0
7,4.25,immed,55750.0,Thu Jun 12 2025 11:52:31 GMT-0400 (Eastern Daylight Time),837714.8000001907,A,gras,I,s,58,1,783.4000000953674,836931.4000000954,9021,WL,B,2.0
7,4.4670000076293945,immed,55532.999992370605,Thu Jun 12 2025 11:52:31 GMT-0400 (Eastern Daylight Time),837931.4000000954,A,grass,I,s,190,1,1000.0,836931.4000000954,9021,WL,B,2.0
7,5.0,immed,55000.0,Thu Jun 12 2025 11:52:31 GMT-0400 (Eastern Daylight Time),838464.5,A,grassenter,I,enter,511,1,1533.0999999046326,836931.4000000954,9021,WL,B,2.0
7,5.33299994468689,immed,54667.00005531311,Thu Jun 12 2025 11:52:31 GMT-0400 (Eastern Daylight Time),838798.1000003815,A,d,I,d,316,1,333.30000019073486,838464.8000001907,9021,WL,B,3.0
7,5.516999959945679,immed,54483.00004005432,Thu Jun 12 2025 11:52:31 GMT-0400 (Eastern Daylight Time),838981.4000000954,A,do,I,o,171,1,516.5999999046326,838464.8000001907,9021,WL,B,3.0
7,5.682999849319458,immed,54317.00015068054,Thu Jun 12 2025 11:52:31 GMT-0400 (Eastern Daylight Time),839148.2000002861,A,doo,I,o,141,1,683.4000000953674,838464.8000001907,9021,WL,B,3.0
7,5.83299994468689,immed,54167.00005531311,Thu Jun 12 2025 11:52:31 GMT-0400 (Eastern Daylight Time),839297.9000000954,A,door,I,r,119,1,833.0999999046326,838464.8000001907,9021,WL,B,3.0
7,6.266000032424927,immed,53733.99996757507,Thu Jun 12 2025 11:52:31 GMT-0400 (Eastern Daylight Time),839731.0,A,doorenter,I,enter,422,1,1266.1999998092651,838464.8000001907,9021,WL,B,3.0
7,6.58299994468689,immed,53417.00005531311,Thu Jun 12 2025 11:52:31 GMT-0400 (Eastern Daylight Time),840047.8000001907,A,a,I,a,297,1,316.40000009536743,839731.4000000954,9021,WL,B,4.0
7,6.733000040054321,immed,53266.99995994568,Thu Jun 12 2025 11:52:31 GMT-0400 (Eastern Daylight Time),840198.2000002861,A,ar,I,r,138,1,466.80000019073486,839731.4000000954,9021,WL,B,4.0
7,7.299999952316284,immed,52700.000047683716,Thu Jun 12 2025 11:52:31 GMT-0400 (Eastern Daylight Time),840764.8000001907,A,arm,I,m,546,1,1033.4000000953674,839731.4000000954,9021,WL,B,4.0
7,7.75,immed,52250.0,Thu Jun 12 2025 11:52:31 GMT-0400 (Eastern Daylight Time),841214.4000000954,A,armenter,I,enter,422,1,1483.0,839731.4000000954,9021,WL,B,4.0
7,8.649999856948853,immed,51350.00014305115,Thu Jun 12 2025 11:52:31 GMT-0400 (Eastern Daylight Time),842115.0,A,w,I,w,894,1,900.1999998092651,841214.8000001907,9021,WL,B,5.0
7,8.816999912261963,immed,51183.00008773804,Thu Jun 12 2025 11:52:31 GMT-0400 (Eastern Daylight Time),842281.6000003815,A,wi,I,i,144,1,1066.8000001907349,841214.8000001907,9021,WL,B,5.0
7,9.049999952316284,immed,50950.000047683716,Thu Jun 12 2025 11:52:31 GMT-0400 (Eastern Daylight Time),842514.8000001907,A,wif,I,f,206,1,1300.0,841214.8000001907,9021,WL,B,5.0
7,9.233000040054321,immed,50766.99995994568,Thu Jun 12 2025 11:52:31 GMT-0400 (Eastern Daylight Time),842698.1000003815,A,wife,I,e,162,1,1483.3000001907349,841214.8000001907,9021,WL,B,5.0
7,9.949999809265137,immed,50050.00019073486,Thu Jun 12 2025 11:52:31 GMT-0400 (Eastern Daylight Time),843414.4000000954,A,wifeenter,I,enter,698,1,2199.5999999046326,841214.8000001907,9021,WL,B,5.0
7,10.233999967575073,immed,49766.00003242493,Thu Jun 12 2025 11:52:31 GMT-0400 (Eastern Daylight Time),843698.4000000954,A,w,I,w,261,1,283.59999990463257,843414.8000001907,9021,WL,B,6.0
7,10.349999904632568,immed,49650.00009536743,Thu Jun 12 2025 11:52:31 GMT-0400 (Eastern Daylight Time),843814.6000003815,A,wi,I,i,102,1,399.80000019073486,843414.8000001907,9021,WL,B,6.0
7,10.532999992370605,immed,49467.000007629395,Thu Jun 12 2025 11:52:31 GMT-0400 (Eastern Daylight Time),843998.3000001907,A,win,I,n,159,1,583.5,843414.8000001907,9021,WL,B,6.0
7,10.717000007629395,immed,49282.999992370605,Thu Jun 12 2025 11:52:31 GMT-0400 (Eastern Daylight Time),844181.4000000954,A,wind,I,d,170,1,766.5999999046326,843414.8000001907,9021,WL,B,6.0
7,10.865999937057495,immed,49134.000062942505,Thu Jun 12 2025 11:52:31 GMT-0400 (Eastern Daylight Time),844331.1000003815,A,windo,I,o,131,1,916.3000001907349,843414.8000001907,9021,WL,B,6.0
7,11.0,immed,49000.0,Thu Jun 12 2025 11:52:31 GMT-0400 (Eastern Daylight Time),844464.8000001907,A,window,I,w,112,1,1050.0,843414.8000001907,9021,WL,B,6.0
7,11.41599988937378,immed,48584.00011062622,Thu Jun 12 2025 11:52:31 GMT-0400 (Eastern Daylight Time),844881.0,A,windowenter,I,enter,384,1,1466.1999998092651,843414.8000001907,9021,WL,B,6.0
7,11.649999856948853,immed,48350.00014305115,Thu Jun 12 2025 11:52:31 GMT-0400 (Eastern Daylight Time),845114.6000003815,A,s,I,s,219,1,233.2000002861023,844881.4000000954,9021,WL,B,7.0
7,11.782999992370605,immed,48217.000007629395,Thu Jun 12 2025 11:52:31 GMT-0400 (Eastern Daylight Time),845248.3000001907,A,st,I,t,112,1,366.90000009536743,844881.4000000954,9021,WL,B,7.0
7,11.949999809265137,immed,48050.00019073486,Thu Jun 12 2025 11:52:31 GMT-0400 (Eastern Daylight Time),845414.8000001907,A,sta,I,a,147,1,533.4000000953674,844881.4000000954,9021,WL,B,7.0
7,12.066999912261963,immed,47933.00008773804,Thu Jun 12 2025 11:52:31 GMT-0400 (Eastern Daylight Time),845531.4000000954,A,star,I,r,91,1,650.0,844881.4000000954,9021,WL,B,7.0
7,12.615999937057495,immed,47384.000062942505,Thu Jun 12 2025 11:52:31 GMT-0400 (Eastern Daylight Time),846081.1000003815,A,starenter,I,enter,518,1,1199.7000002861023,844881.4000000954,9021,WL,B,7.0
7,13.0,immed,47000.0,Thu Jun 12 2025 11:52:31 GMT-0400 (Eastern Daylight Time),846464.9000000954,A,c,I,c,363,1,383.40000009536743,846081.5,9021,WL,B,8.0
7,13.132999897003174,immed,46867.000102996826,Thu Jun 12 2025 11:52:31 GMT-0400 (Eastern Daylight Time),846598.1000003815,A,ci,I,i,111,1,516.6000003814697,846081.5,9021,WL,B,8.0
7,13.366999864578247,immed,46633.00013542175,Thu Jun 12 2025 11:52:31 GMT-0400 (Eastern Daylight Time),846831.4000000954,A,cit,I,t,205,1,749.9000000953674,846081.5,9021,WL,B,8.0
7,13.5,immed,46500.0,Thu Jun 12 2025 11:52:31 GMT-0400 (Eastern Daylight Time),846964.8000001907,A,city,I,y,122,1,883.3000001907349,846081.5,9021,WL,B,8.0
7,14.932999849319458,immed,45067.00015068054,Thu Jun 12 2025 11:52:31 GMT-0400 (Eastern Daylight Time),848397.9000000954,A,cityenter,I,enter,1404,1,2316.4000000953674,846081.5,9021,WL,B,8.0
7,17.500999927520752,immed,42499.00007247925,Thu Jun 12 2025 11:52:31 GMT-0400 (Eastern Daylight Time),850965.5,A,p,I,p,2558,1,2567.2999997138977,848398.2000002861,9021,WL,B,9.0
7,17.715999841690063,immed,42284.00015830994,Thu Jun 12 2025 11:52:31 GMT-0400 (Eastern Daylight Time),851181.1000003815,A,pu,I,u,187,1,2782.9000000953674,848398.2000002861,9021,WL,B,9.0
7,18.132999897003174,immed,41867.000102996826,Thu Jun 12 2025 11:52:31 GMT-0400 (Eastern Daylight Time),851598.3000001907,A,pup,I,p,400,1,3200.0999999046326,848398.2000002861,9021,WL,B,9.0
7,18.5,immed,41500.0,Thu Jun 12 2025 11:52:31 GMT-0400 (Eastern Daylight Time),851964.8000001907,A,pupi,I,i,347,1,3566.5999999046326,848398.2000002861,9021,WL,B,9.0
7,18.66699981689453,immed,41333.00018310547,Thu Jun 12 2025 11:52:31 GMT-0400 (Eastern Daylight Time),852131.4000000954,A,pupil,I,l,156,1,3733.199999809265,848398.2000002861,9021,WL,B,9.0
7,19.049999952316284,immed,40950.000047683716,Thu Jun 12 2025 11:52:31 GMT-0400 (Eastern Daylight Time),852514.7000002861,A,pupilenter,I,enter,368,1,4116.5,848398.2000002861,9021,WL,B,9.0
7,19.41699981689453,immed,40583.00018310547,Thu Jun 12 2025 11:52:31 GMT-0400 (Eastern Daylight Time),852881.6000003815,A,l,I,l,344,1,366.7000002861023,852514.9000000954,9021,WL,B,10.0
7,20.08299994468689,immed,39917.00005531311,Thu Jun 12 2025 11:52:31 GMT-0400 (Eastern Daylight Time),853548.2000002861,A,la,I,a,649,1,1033.3000001907349,852514.9000000954,9021,WL,B,10.0
7,20.149999856948853,immed,39850.00014305115,Thu Jun 12 2025 11:52:31 GMT-0400 (Eastern Daylight Time),853614.4000000954,A,lak,I,k,37,1,1099.5,852514.9000000954,9021,WL,B,10.0
7,20.34999990463257,immed,39650.00009536743,Thu Jun 12 2025 11:52:31 GMT-0400 (Eastern Daylight Time),853814.9000000954,A,lake,I,e,190,1,1300.0,852514.9000000954,9021,WL,B,10.0
7,20.899999856948853,immed,39100.00014305115,Thu Jun 12 2025 11:52:31 GMT-0400 (Eastern Daylight Time),854364.4000000954,A,lakeenter,I,enter,530,1,1849.5,852514.9000000954,9021,WL,B,10.0
7,21.316999912261963,immed,38683.00008773804,Thu Jun 12 2025 11:52:31 GMT-0400 (Eastern Daylight Time),854781.4000000954,A,c,I,c,397,1,416.69999980926514,854364.7000002861,9021,WL,B,11.0
7,21.83299994468689,immed,38167.00005531311,Thu Jun 12 2025 11:52:31 GMT-0400 (Eastern Daylight Time),855298.2000002861,A,ca,I,a,491,1,933.5,854364.7000002861,9021,WL,B,11.0
7,22.01699995994568,immed,37983.00004005432,Thu Jun 12 2025 11:52:31 GMT-0400 (Eastern Daylight Time),855481.4000000954,A,cab,I,b,167,1,1116.6999998092651,854364.7000002861,9021,WL,B,11.0
7,22.132999897003174,immed,37867.000102996826,Thu Jun 12 2025 11:52:31 GMT-0400 (Eastern Daylight Time),855598.2000002861,A,cabi,I,i,97,1,1233.5,854364.7000002861,9021,WL,B,11.0
7,22.399999856948853,immed,37600.00014305115,Thu Jun 12 2025 11:52:31 GMT-0400 (Eastern Daylight Time),855864.8000001907,A,cabin,I,n,243,1,1500.0999999046326,854364.7000002861,9021,WL,B,11.0
7,23.215999841690063,immed,36784.00015830994,Thu Jun 12 2025 11:52:31 GMT-0400 (Eastern Daylight Time),856681.0,A,cabinenter,I,enter,800,1,2316.2999997138977,854364.7000002861,9021,WL,B,11.0
7,23.649999856948853,immed,36350.00014305115,Thu Jun 12 2025 11:52:31 GMT-0400 (Eastern Daylight Time),857114.7000002861,A,p,I,p,419,1,433.40000009536743,856681.3000001907,9021,WL,B,12.0
7,24.217000007629395,immed,35782.999992370605,Thu Jun 12 2025 11:52:31 GMT-0400 (Eastern Daylight Time),857681.7000002861,A,pi,I,i,542,1,1000.4000000953674,856681.3000001907,9021,WL,B,12.0
7,24.366999864578247,immed,35633.00013542175,Thu Jun 12 2025 11:52:31 GMT-0400 (Eastern Daylight Time),857831.6000003815,A,pip,I,p,134,1,1150.3000001907349,856681.3000001907,9021,WL,B,12.0
7,24.799999952316284,immed,35200.000047683716,Thu Jun 12 2025 11:52:31 GMT-0400 (Eastern Daylight Time),858264.7000002861,A,pipe,I,e,418,1,1583.4000000953674,856681.3000001907,9021,WL,B,12.0
7,25.215999841690063,immed,34784.00015830994,Thu Jun 12 2025 11:52:31 GMT-0400 (Eastern Daylight Time),858681.0,A,pipeenter,I,enter,394,1,1999.6999998092651,856681.3000001907,9021,WL,B,12.0
7,25.633999824523926,immed,34366.000175476074,Thu Jun 12 2025 11:52:31 GMT-0400 (Eastern Daylight Time),859098.6000003815,A,f,I,f,403,1,417.40000009536743,858681.2000002861,9021,WL,B,13.0
7,25.766000032424927,immed,34233.99996757507,Thu Jun 12 2025 11:52:31 GMT-0400 (Eastern Daylight Time),859230.9000000954,A,fi,I,i,110,1,549.6999998092651,858681.2000002861,9021,WL,B,13.0
7,25.882999897003174,immed,34117.000102996826,Thu Jun 12 2025 11:52:31 GMT-0400 (Eastern Daylight Time),859347.8000001907,A,fir,I,r,105,1,666.5999999046326,858681.2000002861,9021,WL,B,13.0
7,25.949999809265137,immed,34050.00019073486,Thu Jun 12 2025 11:52:31 GMT-0400 (Eastern Daylight Time),859414.5,A,fire,I,e,48,1,733.2999997138977,858681.2000002861,9021,WL,B,13.0
7,26.384999990463257,immed,33615.00000953674,Thu Jun 12 2025 11:52:31 GMT-0400 (Eastern Daylight Time),859849.6000003815,A,fireenter,I,enter,410,1,1168.4000000953674,858681.2000002861,9021,WL,B,13.0
7,26.717000007629395,immed,33282.999992370605,Thu Jun 12 2025 11:52:31 GMT-0400 (Eastern Daylight Time),860181.4000000954,A,s,I,s,323,1,331.40000009536743,859850.0,9021,WL,B,14.0
7,26.91699981689453,immed,33083.00018310547,Thu Jun 12 2025 11:52:31 GMT-0400 (Eastern Daylight Time),860381.6000003815,A,sk,I,k,174,1,531.6000003814697,859850.0,9021,WL,B,14.0
7,27.132999897003174,immed,32867.000102996826,Thu Jun 12 2025 11:52:31 GMT-0400 (Eastern Daylight Time),860598.1000003815,A,ski,I,i,195,1,748.1000003814697,859850.0,9021,WL,B,14.0
7,28.33299994468689,immed,31667.00005531311,Thu Jun 12 2025 11:52:31 GMT-0400 (Eastern Daylight Time),861798.1000003815,A,skin,I,n,1186,1,1948.1000003814697,859850.0,9021,WL,B,14.0
7,29.049999952316284,immed,30950.000047683716,Thu Jun 12 2025 11:52:31 GMT-0400 (Eastern Daylight Time),862514.3000001907,A,skinenter,I,enter,685,1,2664.300000190735,859850.0,9021,WL,B,14.0
7,33.73300004005432,immed,26266.99995994568,Thu Jun 12 2025 11:52:31 GMT-0400 (Eastern Daylight Time),867197.9000000954,A,c,I,c,4664,1,4683.199999809265,862514.7000002861,9021,WL,B,15.0
7,35.73300004005432,immed,24266.99995994568,Thu Jun 12 2025 11:52:31 GMT-0400 (Eastern Daylight Time),869198.2000002861,A,,I,backspace,1981,1,6683.5,862514.7000002861,9021,WL,B,15.0
7,60.01699995994568,immed,-16.99995994567871,Thu Jun 12 2025 11:52:31 GMT-0400 (Eastern Daylight Time),893481.6000003815,A,None,I,None,24274,1,30966.900000095367,862514.7000002861,9021,WL,B,15.0
