acc_sum,block,block_c,condition,correct,correct_response,datetime,endtime,flanker,jitter,project,response,response_test_buffer_response,response_test_target_response,response_time,response_time_test_buffer_response,response_time_test_target_response,row_sel,session_number,start_end,starttime,subject_id,target,task,task_vers,time_test_buffer,time_test_buffer_response,time_test_constants,time_test_flanker,time_test_jitter,time_test_logger,time_test_target,time_test_target_response,time_test_variables,trial
0,prac,1,inc,0,z,Thu Oct 09 2025 09:51:06 GMT-0500 (Central Daylight Time),129097.39999997616,iron,900,I,None,,,1799,,,6,1,4962.600000023842,124134.79999995232,7701,pear,NF,C,,,,,,,,,,1
0,prac,1,con,0,z,Thu Oct 09 2025 09:51:06 GMT-0500 (Central Daylight Time),133979.5,lime,800,I,None,,,1800,,,5,1,4874.400000095367,129105.09999990463,7701,lime,NF,C,,,,,,,,,,2
0,prac,1,inc,0,m,Thu Oct 09 2025 09:51:06 GMT-0500 (Central Daylight Time),137128.59999990463,raisin,1100,I,z,,,757,,,12,1,3142.0999999046326,133986.5,7701,cobalt,NF,C,,,,,,,,,,3
0,prac,1,inc,0,z,Thu Oct 09 2025 09:51:06 GMT-0500 (Central Daylight Time),139927.89999997616,cobalt,1100,I,m,,,399,,,4,1,2792.899999976158,137135.0,7701,raisin,NF,C,,,,,,,,,,4
1,prac,1,con,1,m,Thu Oct 09 2025 09:51:06 GMT-0500 (Central Daylight Time),142908.59999990463,gold,800,I,m,,,867,,,13,1,2974.7999999523163,139933.79999995232,7701,gold,NF,C,,,,,,,,,,5
2,prac,1,con,1,z,Thu Oct 09 2025 09:51:06 GMT-0500 (Central Daylight Time),145474.69999992847,kiwi,1000,I,z,,,254,,,7,1,2559.7999999523163,142914.89999997616,7701,kiwi,NF,C,,,,,,,,,,6
3,prac,1,con,1,m,Thu Oct 09 2025 09:51:06 GMT-0500 (Central Daylight Time),148291.0,bronze,800,I,m,,,712,,,9,1,2811.9000000953674,145479.09999990463,7701,bronze,NF,C,,,,,,,,,,7
3,prac,1,inc,0,z,Thu Oct 09 2025 09:51:06 GMT-0500 (Central Daylight Time),151323.09999990463,lead,1100,I,m,,,629,,,8,1,3027.5999999046326,148295.5,7701,plum,NF,C,,,,,,,,,,8
4,prac,1,inc,1,m,Thu Oct 09 2025 09:51:06 GMT-0500 (Central Daylight Time),154139.5,cherry,900,I,m,,,614,,,10,1,2809.5,151330.0,7701,copper,NF,C,,,,,,,,,,9
5,prac,1,con,1,m,Thu Oct 09 2025 09:51:06 GMT-0500 (Central Daylight Time),157155.0,silver,1000,I,m,,,704,,,11,1,3009.100000023842,154145.89999997616,7701,silver,NF,C,,,,,,,,,,10
6,prac,1,inc,1,z,Thu Oct 09 2025 09:51:06 GMT-0500 (Central Daylight Time),159939.09999990463,copper,900,I,z,,,583,,,2,1,2777.1999999284744,157161.89999997616,7701,cherry,NF,C,,,,,,,,,,11
7,prac,1,con,1,m,Thu Oct 09 2025 09:51:06 GMT-0500 (Central Daylight Time),163035.89999997616,zinc,1000,I,m,,,783,,,15,1,3092.0,159943.89999997616,7701,zinc,NF,C,,,,,,,,,,12
8,prac,1,inc,1,m,Thu Oct 09 2025 09:51:06 GMT-0500 (Central Daylight Time),165868.39999997616,pear,900,I,m,,,619,,,14,1,2826.3000000715256,163042.09999990463,7701,iron,NF,C,,,,,,,,,,13
9,prac,1,con,1,z,Thu Oct 09 2025 09:51:06 GMT-0500 (Central Daylight Time),168635.0,banana,800,I,z,,,663,,,1,1,2763.0,165872.0,7701,banana,NF,C,,,,,,,,,,14
10,prac,1,con,1,z,Thu Oct 09 2025 09:51:06 GMT-0500 (Central Daylight Time),171650.0,orange,1000,I,z,,,704,,,3,1,3010.100000023842,168639.89999997616,7701,orange,NF,C,,,,,,,,,,15
11,prac,1,inc,1,m,Thu Oct 09 2025 09:51:06 GMT-0500 (Central Daylight Time),174615.09999990463,plum,1100,I,m,,,566,,,16,1,2958.0,171657.09999990463,7701,lead,NF,C,,,,,,,,,,16
1,prac,2,con,1,z,Thu Oct 09 2025 09:51:06 GMT-0500 (Central Daylight Time),189728.89999997616,kiwi,1000,I,z,,,741,,,7,1,3044.600000023842,186684.29999995232,7701,kiwi,NF,C,,,,,,,,,,1
2,prac,2,con,1,m,Thu Oct 09 2025 09:51:06 GMT-0500 (Central Daylight Time),192342.79999995232,bronze,800,I,m,,,506,,,9,1,2607.5,189735.29999995232,7701,bronze,NF,C,,,,,,,,,,2
3,prac,2,inc,1,m,Thu Oct 09 2025 09:51:06 GMT-0500 (Central Daylight Time),195109.09999990463,cherry,900,I,m,,,552,,,10,1,2763.0,192346.09999990463,7701,copper,NF,C,,,,,,,,,,3
4,prac,2,con,1,m,Thu Oct 09 2025 09:51:06 GMT-0500 (Central Daylight Time),197925.5,silver,1000,I,m,,,510,,,11,1,2811.100000023842,195114.39999997616,7701,silver,NF,C,,,,,,,,,,4
5,prac,2,inc,1,z,Thu Oct 09 2025 09:51:06 GMT-0500 (Central Daylight Time),200957.69999992847,lead,1100,I,z,,,618,,,8,1,3028.399999976158,197929.29999995232,7701,plum,NF,C,,,,,,,,,,5
6,prac,2,con,1,m,Thu Oct 09 2025 09:51:06 GMT-0500 (Central Daylight Time),203656.69999992847,gold,800,I,m,,,592,,,13,1,2691.899999976158,200964.79999995232,7701,gold,NF,C,,,,,,,,,,6
7,prac,2,con,1,z,Thu Oct 09 2025 09:51:06 GMT-0500 (Central Daylight Time),206555.09999990463,orange,1000,I,z,,,585,,,3,1,2894.0,203661.09999990463,7701,orange,NF,C,,,,,,,,,,7
8,prac,2,inc,1,z,Thu Oct 09 2025 09:51:06 GMT-0500 (Central Daylight Time),209487.79999995232,copper,900,I,z,,,732,,,2,1,2927.399999976158,206560.39999997616,7701,cherry,NF,C,,,,,,,,,,8
9,prac,2,con,1,m,Thu Oct 09 2025 09:51:06 GMT-0500 (Central Daylight Time),212304.29999995232,zinc,1000,I,m,,,506,,,15,1,2811.899999976158,209492.39999997616,7701,zinc,NF,C,,,,,,,,,,9
10,prac,2,inc,1,m,Thu Oct 09 2025 09:51:06 GMT-0500 (Central Daylight Time),215052.69999992847,pear,900,I,m,,,539,,,14,1,2742.6999999284744,212310.0,7701,iron,NF,C,,,,,,,,,,10
11,prac,2,inc,1,m,Thu Oct 09 2025 09:51:06 GMT-0500 (Central Daylight Time),218054.89999997616,raisin,1100,I,m,,,594,,,12,1,2993.100000023842,215061.79999995232,7701,cobalt,NF,C,,,,,,,,,,11
12,prac,2,con,1,z,Thu Oct 09 2025 09:51:06 GMT-0500 (Central Daylight Time),220636.5,banana,800,I,z,,,479,,,1,1,2577.0,218059.5,7701,banana,NF,C,,,,,,,,,,12
13,prac,2,inc,1,z,Thu Oct 09 2025 09:51:06 GMT-0500 (Central Daylight Time),223733.09999990463,cobalt,1100,I,z,,,693,,,4,1,3092.5999999046326,220640.5,7701,raisin,NF,C,,,,,,,,,,13
14,prac,2,inc,1,z,Thu Oct 09 2025 09:51:06 GMT-0500 (Central Daylight Time),226449.0,iron,900,I,z,,,502,,,6,1,2710.8000000715256,223738.19999992847,7701,pear,NF,C,,,,,,,,,,14
15,prac,2,inc,1,m,Thu Oct 09 2025 09:51:06 GMT-0500 (Central Daylight Time),229365.19999992847,plum,1100,I,m,,,525,,,16,1,2909.2999999523163,226455.89999997616,7701,lead,NF,C,,,,,,,,,,15
16,prac,2,con,1,z,Thu Oct 09 2025 09:51:06 GMT-0500 (Central Daylight Time),231964.0,lime,800,I,z,,,494,,,5,1,2593.3000000715256,229370.69999992847,7701,lime,NF,C,,,,,,,,,,16
1,test,1,con,1,m,Thu Oct 09 2025 09:51:06 GMT-0500 (Central Daylight Time),246393.39999997616,lead,800,I,m,m,None,600,400.0,200.0,121,1,1928.3000000715256,244465.09999990463,7701,lead,NF,C,240950,240950,239422,240235,239422,241350,240750,240750,241350,1
2,test,1,inc,1,m,Thu Oct 09 2025 09:51:06 GMT-0500 (Central Daylight Time),248626.0,plum,1100,I,m,m,None,592,392.0,200.0,104,1,2228.7000000476837,246397.29999995232,7701,gold,NF,C,243183,243183,241354,242467,241355,243583,242983,242983,243583,2
3,test,1,inc,1,m,Thu Oct 09 2025 09:51:06 GMT-0500 (Central Daylight Time),250709.19999992847,kiwi,1000,I,m,m,None,548,349.0,199.0,111,1,2078.399999976158,248630.79999995232,7701,iron,NF,C,245300,245300,243588,244599,243588,245666,245100,245100,245666,3
4,test,1,con,1,z,Thu Oct 09 2025 09:51:06 GMT-0500 (Central Daylight Time),252507.19999992847,raisin,800,I,z,z,None,461,248.0,213.0,25,1,1792.6999999284744,250714.5,7701,raisin,NF,C,247215,247215,245672,246482,245672,247464,247001,247001,247464,4
5,test,1,inc,1,z,Thu Oct 09 2025 09:51:06 GMT-0500 (Central Daylight Time),254673.69999992847,iron,900,I,z,z,None,723,524.0,199.0,54,1,2160.6999999284744,252513.0,7701,kiwi,NF,C,249098,249098,247470,248381,247470,249631,248898,248898,249631,5
6,test,1,con,1,m,Thu Oct 09 2025 09:51:06 GMT-0500 (Central Daylight Time),256822.79999995232,iron,1100,I,m,m,None,510,310.0,200.0,108,1,2145.399999976158,254677.39999997616,7701,iron,NF,C,251464,251464,249634,250747,249635,251780,251264,251264,251780,6
7,test,1,con,1,z,Thu Oct 09 2025 09:51:06 GMT-0500 (Central Daylight Time),258873.59999990463,plum,900,I,z,z,None,598,384.0,214.0,58,1,2045.3999999761581,256828.19999992847,7701,plum,NF,C,253429,253429,251785,252697,251786,253831,253215,253215,253831,7
8,test,1,inc,1,m,Thu Oct 09 2025 09:51:06 GMT-0500 (Central Daylight Time),260805.59999990463,cherry,900,I,m,m,None,488,288.0,200.0,86,1,1927.3999999761581,258878.19999992847,7701,silver,NF,C,255463,255463,253835,254746,253835,255763,255262,255262,255763,8
9,test,1,con,1,z,Thu Oct 09 2025 09:51:06 GMT-0500 (Central Daylight Time),263037.89999997616,kiwi,1100,I,z,z,None,594,394.0,200.0,52,1,2228.2000000476837,260809.69999992847,7701,kiwi,NF,C,257596,257596,255767,256879,255767,257995,257395,257395,257995,9
10,test,1,inc,1,m,Thu Oct 09 2025 09:51:06 GMT-0500 (Central Daylight Time),264986.59999990463,lime,800,I,m,m,None,605,406.0,199.0,101,1,1943.5,263043.09999990463,7701,gold,NF,C,259528,259528,258000,258812,258001,259944,259328,259328,259944,10
11,test,1,inc,1,z,Thu Oct 09 2025 09:51:06 GMT-0500 (Central Daylight Time),267153.5,silver,1000,I,z,z,None,615,416.0,199.0,31,1,2163.100000023842,264990.39999997616,7701,raisin,NF,C,261678,261678,259947,260961,259948,262111,261478,261478,262111,11
12,test,1,con,1,z,Thu Oct 09 2025 09:51:06 GMT-0500 (Central Daylight Time),269287.1999999285,raisin,1100,I,z,z,None,485,270.0,215.0,28,1,2128.2999999523163,267158.89999997616,7701,raisin,NF,C,263960,263960,262116,263227,262116,264244,263744,263744,264244,12
13,test,1,con,1,z,Thu Oct 09 2025 09:51:06 GMT-0500 (Central Daylight Time),271235.0,raisin,900,I,z,z,None,506,305.0,201.0,26,1,1943.3000000715256,269291.6999999285,7701,raisin,NF,C,265877,265877,264249,265160,264249,266192,265676,265676,266192,13
14,test,1,con,1,m,Thu Oct 09 2025 09:51:06 GMT-0500 (Central Daylight Time),273250.5,silver,900,I,m,m,None,577,365.0,212.0,82,1,2009.7000000476837,271240.7999999523,7701,silver,NF,C,267826,267826,266198,267108,266198,268208,267613,267613,268208,14
15,test,1,inc,1,z,Thu Oct 09 2025 09:51:06 GMT-0500 (Central Daylight Time),275217.09999990463,bronze,800,I,z,z,None,625,425.0,200.0,5,1,1963.0,273254.09999990463,7701,banana,NF,C,269741,269741,268211,269025,268211,270174,269541,269541,270174,15
16,test,1,con,1,z,Thu Oct 09 2025 09:51:06 GMT-0500 (Central Daylight Time),277432.7999999523,kiwi,1000,I,z,z,None,675,474.0,201.0,51,1,2211.5,275221.2999999523,7701,kiwi,NF,C,271907,271907,270178,271191,270179,272390,271706,271706,272390,16
17,test,1,inc,1,m,Thu Oct 09 2025 09:51:06 GMT-0500 (Central Daylight Time),279332.09999990463,banana,800,I,m,m,None,554,353.0,201.0,85,1,1895.0,277437.09999990463,7701,silver,NF,C,273924,273924,272394,273207,272394,274289,273723,273723,274289,17
18,test,1,inc,1,z,Thu Oct 09 2025 09:51:06 GMT-0500 (Central Daylight Time),281448.0,zinc,1000,I,z,z,None,567,366.0,201.0,39,1,2112.600000023842,279335.39999997616,7701,lime,NF,C,276023,276023,274292,275305,274293,276405,275822,275822,276405,18
19,test,1,inc,1,z,Thu Oct 09 2025 09:51:06 GMT-0500 (Central Daylight Time),283698.0,lead,1100,I,z,z,None,608,407.0,201.0,56,1,2245.9000000953674,281452.09999990463,7701,kiwi,NF,C,278239,278239,276409,277522,276409,278655,278038,278038,278655,19
20,test,1,con,1,m,Thu Oct 09 2025 09:51:06 GMT-0500 (Central Daylight Time),285746.6999999285,lead,900,I,m,m,None,605,390.0,215.0,122,1,2044.6000000238419,283702.09999990463,7701,lead,NF,C,280304,280304,278659,279571,278659,280704,280089,280089,280704,20
21,test,1,con,1,z,Thu Oct 09 2025 09:51:06 GMT-0500 (Central Daylight Time),287662.7999999523,orange,800,I,z,z,None,574,358.0,216.0,17,1,1912.8999999761581,285749.89999997616,7701,orange,NF,C,282256,282256,280707,281521,280707,282620,282040,282040,282620,21
22,test,1,con,1,m,Thu Oct 09 2025 09:51:06 GMT-0500 (Central Daylight Time),289729.0,copper,1000,I,m,m,None,524,325.0,199.0,75,1,2062.2000000476837,287666.7999999523,7701,copper,NF,C,284353,284353,282624,283637,282624,284686,284154,284154,284686,22
22,test,1,inc,0,z,Thu Oct 09 2025 09:51:06 GMT-0500 (Central Daylight Time),291928.89999997616,lead,1100,I,m,m,None,557,358.0,199.0,48,1,2195.3000000715256,289733.59999990463,7701,pear,NF,C,286519,286519,284691,285803,284691,286886,286320,286320,286886,23
23,test,1,inc,1,m,Thu Oct 09 2025 09:51:06 GMT-0500 (Central Daylight Time),294160.89999997616,kiwi,1000,I,m,m,None,690,491.0,199.0,103,1,2228.600000023842,291932.2999999523,7701,gold,NF,C,288618,288618,286889,287902,286890,289118,288419,288419,289118,24
24,test,1,con,1,z,Thu Oct 09 2025 09:51:06 GMT-0500 (Central Daylight Time),296393.1999999285,raisin,1000,I,z,z,None,708,507.0,201.0,27,1,2229.6999999284744,294163.5,7701,raisin,NF,C,290837,290837,289121,290134,289121,291350,290635,290635,291350,25
25,test,1,con,1,m,Thu Oct 09 2025 09:51:06 GMT-0500 (Central Daylight Time),298293.1999999285,gold,800,I,m,m,None,554,353.0,201.0,97,1,1895.1000000238419,296398.09999990463,7701,gold,NF,C,292884,292884,291355,292169,291355,293250,292683,292683,293250,26
26,test,1,inc,1,m,Thu Oct 09 2025 09:51:06 GMT-0500 (Central Daylight Time),300459.7999999523,orange,1000,I,m,m,None,634,432.0,202.0,95,1,2163.5,298296.2999999523,7701,cobalt,NF,C,294985,294985,293253,294269,293253,295417,294783,294783,295417,27
27,test,1,con,1,z,Thu Oct 09 2025 09:51:06 GMT-0500 (Central Daylight Time),302525.39999997616,pear,900,I,z,z,None,628,429.0,199.0,42,1,2060.600000023842,300464.7999999523,7701,pear,NF,C,297049,297049,295422,296333,295422,297482,296849,296849,297482,28
28,test,1,con,1,z,Thu Oct 09 2025 09:51:06 GMT-0500 (Central Daylight Time),304507.1999999285,kiwi,800,I,z,z,None,637,438.0,199.0,49,1,1976.5,302530.6999999285,7701,kiwi,NF,C,299015,299015,297488,298299,297488,299464,298816,298816,299464,29
29,test,1,con,1,z,Thu Oct 09 2025 09:51:06 GMT-0500 (Central Daylight Time),306508.09999990463,orange,900,I,z,z,None,566,367.0,199.0,18,1,1997.3999999761581,304510.6999999285,7701,orange,NF,C,301098,301098,299468,300382,299468,301465,300899,300899,301465,30
30,test,1,con,1,z,Thu Oct 09 2025 09:51:06 GMT-0500 (Central Daylight Time),308840.09999990463,lime,1100,I,z,z,None,693,493.0,200.0,36,1,2328.7999999523163,306511.2999999523,7701,lime,NF,C,303296,303296,301468,302581,301469,303797,303096,303096,303797,31
31,test,1,inc,1,z,Thu Oct 09 2025 09:51:06 GMT-0500 (Central Daylight Time),311006.89999997616,zinc,1000,I,z,z,None,645,446.0,199.0,55,1,2163.100000023842,308843.7999999523,7701,kiwi,NF,C,305513,305513,303801,304813,303801,305964,305314,305314,305964,32
32,test,1,inc,1,z,Thu Oct 09 2025 09:51:06 GMT-0500 (Central Daylight Time),313088.7999999523,silver,1000,I,z,z,None,548,334.0,214.0,15,1,2078.5,311010.2999999523,7701,cherry,NF,C,307712,307712,305967,306980,305968,308046,307497,307497,308046,33
33,test,1,inc,1,z,Thu Oct 09 2025 09:51:06 GMT-0500 (Central Daylight Time),315355.2999999523,lead,1100,I,z,z,None,636,423.0,213.0,64,1,2261.600000023842,313093.6999999285,7701,plum,NF,C,309878,309878,308051,309163,308051,310312,309664,309664,310312,34
34,test,1,con,1,z,Thu Oct 09 2025 09:51:06 GMT-0500 (Central Daylight Time),317186.59999990463,pear,800,I,z,z,None,498,299.0,199.0,41,1,1828.5999999046326,315358.0,7701,pear,NF,C,311845,311845,310315,311128,310315,312144,311645,311645,312144,35
35,test,1,con,1,m,Thu Oct 09 2025 09:51:06 GMT-0500 (Central Daylight Time),318953.39999997616,copper,800,I,m,m,None,441,225.0,216.0,73,1,1763.3999999761581,317190.0,7701,copper,NF,C,313677,313677,312147,312960,312147,313910,313461,313461,313910,36
36,test,1,inc,1,m,Thu Oct 09 2025 09:51:06 GMT-0500 (Central Daylight Time),320970.09999990463,orange,1000,I,m,m,None,474,275.0,199.0,79,1,2013.5999999046326,318956.5,7701,copper,NF,C,315643,315643,313914,314928,313914,315927,315443,315444,315927,37
37,test,1,con,1,z,Thu Oct 09 2025 09:51:06 GMT-0500 (Central Daylight Time),322968.7999999523,banana,900,I,z,z,None,575,359.0,216.0,2,1,1994.3999999761581,320974.39999997616,7701,banana,NF,C,317560,317560,315931,316843,315932,317926,317344,317344,317926,38
38,test,1,inc,1,z,Thu Oct 09 2025 09:51:06 GMT-0500 (Central Daylight Time),325201.7999999523,cobalt,1100,I,z,z,None,599,399.0,200.0,32,1,2228.899999976158,322972.89999997616,7701,raisin,NF,C,319760,319760,317930,319043,317930,320159,319559,319559,320159,39
39,test,1,con,1,m,Thu Oct 09 2025 09:51:06 GMT-0500 (Central Daylight Time),327166.5,bronze,800,I,m,m,None,626,426.0,200.0,65,1,1959.4000000953674,325207.09999990463,7701,bronze,NF,C,321693,321693,320164,320976,320164,322124,321491,321492,322124,40
40,test,1,inc,1,m,Thu Oct 09 2025 09:51:06 GMT-0500 (Central Daylight Time),329416.59999990463,raisin,1100,I,m,m,None,601,399.0,202.0,72,1,2246.5999999046326,327170.0,7701,bronze,NF,C,323959,323959,322127,323241,322127,324374,323757,323757,324374,41
41,test,1,con,1,m,Thu Oct 09 2025 09:51:06 GMT-0500 (Central Daylight Time),331367.59999990463,iron,800,I,m,m,None,603,404.0,199.0,105,1,1946.3999999761581,329421.1999999285,7701,iron,NF,C,325907,325907,324378,325191,324378,326325,325707,325707,326325,42
42,test,1,con,1,z,Thu Oct 09 2025 09:51:06 GMT-0500 (Central Daylight Time),333398.7999999523,pear,1000,I,z,z,None,493,278.0,215.0,43,1,2027.3999999761581,331371.39999997616,7701,pear,NF,C,328072,328072,326328,327340,326329,328356,327857,327857,328356,43
43,test,1,inc,1,z,Thu Oct 09 2025 09:51:06 GMT-0500 (Central Daylight Time),335365.1999999285,bronze,800,I,z,z,None,621,420.0,201.0,21,1,1963.5,333401.6999999285,7701,orange,NF,C,329890,329890,328359,329173,328359,330322,329689,329689,330322,44
44,test,1,inc,1,m,Thu Oct 09 2025 09:51:06 GMT-0500 (Central Daylight Time),337280.09999990463,lime,800,I,m,m,None,575,375.0,200.0,109,1,1910.7999999523163,335369.2999999523,7701,iron,NF,C,331855,331855,330326,331138,330327,332237,331655,331655,332237,45
45,test,1,con,1,z,Thu Oct 09 2025 09:51:06 GMT-0500 (Central Daylight Time),339329.59999990463,lime,900,I,z,z,None,606,407.0,199.0,34,1,2041.8999999761581,337287.6999999285,7701,lime,NF,C,333871,333871,332245,333154,332245,334287,333671,333671,334287,46
46,test,1,inc,1,m,Thu Oct 09 2025 09:51:06 GMT-0500 (Central Daylight Time),341346.7999999523,lime,800,I,m,m,None,666,466.0,200.0,125,1,2010.3999999761581,339336.39999997616,7701,lead,NF,C,335821,335821,334293,335104,334294,336304,335620,335620,336304,47
47,test,1,inc,1,m,Thu Oct 09 2025 09:51:06 GMT-0500 (Central Daylight Time),343210.89999997616,pear,900,I,m,m,None,443,230.0,213.0,126,1,1858.8000000715256,341352.09999990463,7701,lead,NF,C,337935,337935,336309,337220,336309,338168,337722,337722,338168,48
48,test,1,inc,1,m,Thu Oct 09 2025 09:51:06 GMT-0500 (Central Daylight Time),345411.89999997616,raisin,1100,I,m,m,None,556,356.0,200.0,88,1,2198.3000000715256,343213.59999990463,7701,silver,NF,C,340002,340002,338171,339285,338171,340369,339802,339802,340369,49
49,test,1,con,1,m,Thu Oct 09 2025 09:51:06 GMT-0500 (Central Daylight Time),347195.2999999523,silver,800,I,m,m,None,447,232.0,215.0,81,1,1775.7000000476837,345419.59999990463,7701,silver,NF,C,341918,341918,340377,341185,340377,342154,341703,341703,342152,50
50,test,1,con,1,m,Thu Oct 09 2025 09:51:06 GMT-0500 (Central Daylight Time),349226.2999999523,cobalt,900,I,m,m,None,596,381.0,215.0,90,1,2022.6000000238419,347203.6999999285,7701,cobalt,NF,C,343801,343801,342161,343068,342161,344183,343585,343585,344183,51
51,test,1,inc,1,m,Thu Oct 09 2025 09:51:06 GMT-0500 (Central Daylight Time),351093.6999999285,lime,800,I,m,m,None,528,328.0,200.0,117,1,1861.6000000238419,349232.09999990463,7701,zinc,NF,C,345718,345718,344189,345001,344190,346051,345517,345517,346051,52
52,test,1,con,1,m,Thu Oct 09 2025 09:51:06 GMT-0500 (Central Daylight Time),353259.1999999285,bronze,1100,I,m,m,None,532,333.0,199.0,68,1,2156.0,351103.1999999285,7701,bronze,NF,C,347882,347882,346060,347167,346061,348216,347683,347683,348216,53
53,test,1,con,1,z,Thu Oct 09 2025 09:51:06 GMT-0500 (Central Daylight Time),355458.39999997616,orange,1100,I,z,z,None,556,357.0,199.0,20,1,2191.7000000476837,353266.6999999285,7701,orange,NF,C,350049,350049,348224,349333,348224,350415,349849,349849,350415,54
54,test,1,con,1,m,Thu Oct 09 2025 09:51:06 GMT-0500 (Central Daylight Time),357524.39999997616,zinc,1000,I,m,m,None,530,330.0,200.0,115,1,2060.5,355463.89999997616,7701,zinc,NF,C,352148,352148,350421,351432,350421,352481,351948,351948,352481,55
55,test,1,inc,1,z,Thu Oct 09 2025 09:51:06 GMT-0500 (Central Daylight Time),359489.6999999285,bronze,800,I,z,z,None,623,424.0,199.0,29,1,1960.6999999284744,357529.0,7701,raisin,NF,C,354014,354014,352486,353298,352486,354447,353814,353814,354447,56
56,test,1,inc,1,m,Thu Oct 09 2025 09:51:06 GMT-0500 (Central Daylight Time),361723.39999997616,orange,1000,I,m,m,None,688,489.0,199.0,71,1,2228.0,359495.39999997616,7701,bronze,NF,C,356180,356180,354452,355465,354453,356680,355981,355981,356680,57
57,test,1,inc,1,m,Thu Oct 09 2025 09:51:06 GMT-0500 (Central Daylight Time),363805.09999990463,kiwi,1000,I,m,m,None,536,336.0,200.0,119,1,2072.899999976158,361732.1999999285,7701,zinc,NF,C,358413,358414,356689,357696,356690,358762,358213,358213,358762,58
58,test,1,inc,1,m,Thu Oct 09 2025 09:51:06 GMT-0500 (Central Daylight Time),365871.89999997616,orange,1000,I,m,m,None,526,311.0,215.0,87,1,2061.8000000715256,363810.09999990463,7701,silver,NF,C,360512,360512,358767,359780,358767,360829,360296,360297,360829,59
59,test,1,con,1,m,Thu Oct 09 2025 09:51:06 GMT-0500 (Central Daylight Time),367804.0,cobalt,800,I,m,m,None,595,396.0,199.0,89,1,1928.7000000476837,365875.2999999523,7701,cobalt,NF,C,362362,362362,360832,361647,360832,362761,362162,362162,362761,60
60,test,1,con,1,m,Thu Oct 09 2025 09:51:06 GMT-0500 (Central Daylight Time),369770.1999999285,cobalt,1000,I,m,m,None,422,207.0,215.0,91,1,1958.6000000238419,367811.59999990463,7701,cobalt,NF,C,364511,364511,362769,363779,362769,364727,364295,364295,364727,61
61,test,1,con,1,m,Thu Oct 09 2025 09:51:06 GMT-0500 (Central Daylight Time),371653.09999990463,copper,900,I,m,m,None,445,245.0,200.0,74,1,1878.2999999523163,369774.7999999523,7701,copper,NF,C,366361,366361,364732,365645,364732,366610,366161,366161,366610,62
62,test,1,inc,1,m,Thu Oct 09 2025 09:51:06 GMT-0500 (Central Daylight Time),373753.5,plum,1100,I,m,m,None,467,266.0,201.0,128,1,2096.7000000476837,371656.7999999523,7701,lead,NF,C,368444,368444,366614,367726,366614,368711,368243,368243,368711,63
63,test,1,con,1,m,Thu Oct 09 2025 09:51:06 GMT-0500 (Central Daylight Time),375902.1999999285,cobalt,1100,I,m,m,None,503,304.0,199.0,92,1,2142.6999999284744,373759.5,7701,cobalt,NF,C,370542,370542,368717,369826,368717,370859,370343,370343,370859,64
64,test,1,con,1,m,Thu Oct 09 2025 09:51:06 GMT-0500 (Central Daylight Time),377801.5,bronze,900,I,m,m,None,447,233.0,214.0,66,1,1894.8000000715256,375906.6999999285,7701,bronze,NF,C,372509,372509,370864,371776,370864,372759,372294,372294,372759,65
65,test,1,con,1,m,Thu Oct 09 2025 09:51:06 GMT-0500 (Central Daylight Time),379783.6999999285,silver,1000,I,m,m,None,432,233.0,199.0,83,1,1976.3999999761581,377807.2999999523,7701,silver,NF,C,374492,374492,372764,373776,372765,374741,374292,374292,374741,66
66,test,1,con,1,z,Thu Oct 09 2025 09:51:06 GMT-0500 (Central Daylight Time),381883.7999999523,plum,1000,I,z,z,None,555,355.0,200.0,59,1,2095.899999976158,379787.89999997616,7701,plum,NF,C,376474,376474,374745,375757,374745,376841,376274,376274,376841,67
67,test,1,con,1,z,Thu Oct 09 2025 09:51:06 GMT-0500 (Central Daylight Time),384216.0,banana,1100,I,z,z,None,692,493.0,199.0,4,1,2326.7000000476837,381889.2999999523,7701,banana,NF,C,378673,378673,376846,377958,376847,379173,378474,378474,379173,68
68,test,1,inc,1,z,Thu Oct 09 2025 09:51:06 GMT-0500 (Central Daylight Time),386215.0,gold,800,I,z,z,None,652,452.0,200.0,37,1,1994.4000000953674,384220.59999990463,7701,lime,NF,C,380706,380706,379178,379989,379178,381172,380506,380506,381172,69
69,test,1,con,1,z,Thu Oct 09 2025 09:51:06 GMT-0500 (Central Daylight Time),388381.0,lime,1000,I,z,z,None,616,403.0,213.0,35,1,2161.100000023842,386219.89999997616,7701,lime,NF,C,382922,382923,381177,382190,381177,383338,382708,382708,383338,70
70,test,1,con,1,z,Thu Oct 09 2025 09:51:06 GMT-0500 (Central Daylight Time),390263.1999999285,cherry,800,I,z,z,None,542,343.0,199.0,9,1,1877.2999999523163,388385.89999997616,7701,cherry,NF,C,384871,384871,383343,384155,383343,385220,384672,384672,385220,71
71,test,1,con,1,m,Thu Oct 09 2025 09:51:06 GMT-0500 (Central Daylight Time),392346.7999999523,bronze,1000,I,m,m,None,548,349.0,199.0,67,1,2080.899999976158,390265.89999997616,7701,bronze,NF,C,386954,386954,385223,386237,385223,387304,386754,386754,387304,72
72,test,1,inc,1,z,Thu Oct 09 2025 09:51:06 GMT-0500 (Central Daylight Time),394512.59999990463,iron,900,I,z,z,None,727,526.0,201.0,46,1,2161.7999999523163,392350.7999999523,7701,pear,NF,C,388937,388937,387308,388221,387308,389470,388736,388736,389470,73
73,test,1,con,1,z,Thu Oct 09 2025 09:51:06 GMT-0500 (Central Daylight Time),396328.7999999523,banana,800,I,z,z,None,475,258.0,217.0,1,1,1811.8999999761581,394516.89999997616,7701,banana,NF,C,391020,391020,389474,390286,389474,391286,390803,390803,391286,74
74,test,1,inc,1,m,Thu Oct 09 2025 09:51:06 GMT-0500 (Central Daylight Time),398395.0,kiwi,1000,I,m,m,None,533,331.0,202.0,127,1,2061.4000000953674,396333.59999990463,7701,lead,NF,C,393021,393021,391291,392303,391291,393352,392818,392818,393352,75
75,test,1,inc,1,m,Thu Oct 09 2025 09:51:06 GMT-0500 (Central Daylight Time),400194.1999999285,banana,800,I,m,m,None,455,240.0,215.0,69,1,1795.6999999284744,398398.5,7701,bronze,NF,C,394901,394901,393356,394169,393356,395151,394686,394686,395151,76
76,test,1,inc,1,z,Thu Oct 09 2025 09:51:06 GMT-0500 (Central Daylight Time),402160.09999990463,copper,900,I,z,z,None,515,315.0,200.0,30,1,1961.5,400198.59999990463,7701,raisin,NF,C,396786,396786,395156,396068,395156,397117,396585,396585,397117,77
77,test,1,inc,1,m,Thu Oct 09 2025 09:51:06 GMT-0500 (Central Daylight Time),404259.2999999523,pear,900,I,m,m,None,664,449.0,215.0,118,1,2094.2000000476837,402165.09999990463,7701,zinc,NF,C,398767,398767,397122,398036,397122,399216,398552,398552,399216,78
78,test,1,inc,1,m,Thu Oct 09 2025 09:51:06 GMT-0500 (Central Daylight Time),406208.39999997616,cherry,900,I,m,m,None,523,322.0,201.0,70,1,1945.2000000476837,404263.1999999285,7701,bronze,NF,C,400835,400835,399220,400122,399221,401165,400633,400633,401165,79
79,test,1,con,1,z,Thu Oct 09 2025 09:51:06 GMT-0500 (Central Daylight Time),408124.59999990463,plum,800,I,z,z,None,598,399.0,199.0,57,1,1912.6999999284744,406211.89999997616,7701,plum,NF,C,402682,402682,401169,401982,401169,403082,402483,402483,403082,80
80,test,1,inc,1,z,Thu Oct 09 2025 09:51:06 GMT-0500 (Central Daylight Time),409973.6999999285,copper,900,I,z,z,None,411,211.0,200.0,14,1,1845.2999999523163,408128.39999997616,7701,cherry,NF,C,404715,404715,403085,403998,403086,404931,404515,404515,404931,81
81,test,1,con,1,m,Thu Oct 09 2025 09:51:06 GMT-0500 (Central Daylight Time),412073.59999990463,iron,1000,I,m,m,None,581,382.0,199.0,107,1,2096.0999999046326,409977.5,7701,iron,NF,C,406648,406648,404935,405948,404935,407031,406449,406449,407031,82
82,test,1,con,1,m,Thu Oct 09 2025 09:51:06 GMT-0500 (Central Daylight Time),414255.89999997616,zinc,1100,I,m,m,None,533,333.0,200.0,116,1,2178.2000000476837,412077.6999999285,7701,zinc,NF,C,408864,408864,407035,408148,407035,409213,408663,408663,409213,83
83,test,1,inc,1,z,Thu Oct 09 2025 09:51:06 GMT-0500 (Central Daylight Time),416338.59999990463,silver,1000,I,z,z,None,563,348.0,215.0,7,1,2079.7999999523163,414258.7999999523,7701,banana,NF,C,410947,410947,409216,410230,409216,411296,410732,410732,411296,84
84,test,1,inc,1,z,Thu Oct 09 2025 09:51:06 GMT-0500 (Central Daylight Time),418505.1999999285,cobalt,1100,I,z,z,None,517,318.0,199.0,16,1,2164.0,416341.1999999285,7701,cherry,NF,C,413129,413129,411298,412413,411298,413462,412929,412929,413462,85
85,test,1,con,1,z,Thu Oct 09 2025 09:51:06 GMT-0500 (Central Daylight Time),420620.59999990463,cherry,1100,I,z,z,None,496,296.0,200.0,12,1,2110.0,418510.59999990463,7701,cherry,NF,C,415278,415278,413468,414577,413468,415578,415078,415078,415577,86
86,test,1,con,1,m,Thu Oct 09 2025 09:51:06 GMT-0500 (Central Daylight Time),422553.59999990463,zinc,800,I,m,m,None,590,389.0,201.0,113,1,1928.8999999761581,420624.6999999285,7701,zinc,NF,C,417113,417113,415582,416394,415582,417511,416912,416912,417511,87
87,test,1,inc,1,z,Thu Oct 09 2025 09:51:06 GMT-0500 (Central Daylight Time),424619.39999997616,copper,900,I,z,z,None,629,429.0,200.0,6,1,2062.899999976158,422556.5,7701,banana,NF,C,419144,419144,417514,418427,417514,419576,418944,418944,419576,88
88,test,1,con,1,m,Thu Oct 09 2025 09:51:06 GMT-0500 (Central Daylight Time),426869.0,gold,1100,I,m,m,None,613,413.0,200.0,100,1,2245.7000000476837,424623.2999999523,7701,gold,NF,C,421409,421409,419580,420694,419581,421826,421209,421209,421826,89
89,test,1,inc,1,z,Thu Oct 09 2025 09:51:06 GMT-0500 (Central Daylight Time),428983.6999999285,zinc,1000,I,z,z,None,565,365.0,200.0,63,1,2110.600000023842,426873.09999990463,7701,plum,NF,C,423560,423560,421830,422843,421830,423941,423360,423360,423941,90
90,test,1,con,1,z,Thu Oct 09 2025 09:51:06 GMT-0500 (Central Daylight Time),430884.6999999285,cherry,900,I,z,z,None,456,256.0,200.0,10,1,1898.5,428986.1999999285,7701,cherry,NF,C,425575,425575,423943,424859,423943,425842,425375,425375,425842,91
91,test,1,inc,1,m,Thu Oct 09 2025 09:51:06 GMT-0500 (Central Daylight Time),433050.0,plum,1100,I,m,m,None,522,323.0,199.0,120,1,2160.100000023842,430889.89999997616,7701,zinc,NF,C,427675,427675,425847,426958,425847,428007,427475,427475,428007,92
91,test,1,inc,0,z,Thu Oct 09 2025 09:51:06 GMT-0500 (Central Daylight Time),434982.6999999285,iron,900,I,m,m,None,502,302.0,200.0,62,1,1928.1999999284744,433054.5,7701,plum,NF,C,429625,429625,428012,428923,428012,429940,429424,429424,429940,93
92,test,1,con,1,z,Thu Oct 09 2025 09:51:06 GMT-0500 (Central Daylight Time),437148.6999999285,cherry,1000,I,z,z,None,628,428.0,200.0,11,1,2161.1999999284744,434987.5,7701,cherry,NF,C,431674,431674,429945,430957,429945,432106,431473,431473,432106,94
93,test,1,con,1,z,Thu Oct 09 2025 09:51:06 GMT-0500 (Central Daylight Time),439231.59999990463,banana,1000,I,z,z,None,543,343.0,200.0,3,1,2079.1999999284744,437152.39999997616,7701,banana,NF,C,433839,433839,432109,433123,432110,434189,433639,433639,434189,95
94,test,1,inc,1,z,Thu Oct 09 2025 09:51:06 GMT-0500 (Central Daylight Time),441363.89999997616,cobalt,1100,I,z,z,None,484,283.0,201.0,24,1,2129.600000023842,439234.2999999523,7701,orange,NF,C,436022,436022,434191,435305,434192,436321,435821,435821,436321,96
95,test,1,con,1,m,Thu Oct 09 2025 09:51:06 GMT-0500 (Central Daylight Time),443379.59999990463,zinc,900,I,m,m,None,571,371.0,200.0,114,1,2012.3999999761581,441367.1999999285,7701,zinc,NF,C,437955,437955,436324,437237,436325,438337,437754,437754,438337,97
96,test,1,inc,1,z,Thu Oct 09 2025 09:51:06 GMT-0500 (Central Daylight Time),445513.39999997616,copper,900,I,z,z,None,699,499.0,200.0,22,1,2129.8000000715256,443383.59999990463,7701,orange,NF,C,439970,439971,438341,439255,438341,440471,439770,439770,440470,98
97,test,1,con,1,z,Thu Oct 09 2025 09:51:06 GMT-0500 (Central Daylight Time),447429.09999990463,lime,800,I,z,z,None,579,379.0,200.0,33,1,1911.6999999284744,445517.39999997616,7701,lime,NF,C,442004,442004,440474,441287,440475,442386,441804,441804,442386,99
98,test,1,con,1,z,Thu Oct 09 2025 09:51:06 GMT-0500 (Central Daylight Time),449512.0,plum,1100,I,z,z,None,434,235.0,199.0,60,1,2079.4000000953674,447432.59999990463,7701,plum,NF,C,444220,444220,442390,443504,442390,444469,444020,444020,444469,100
99,test,1,con,1,m,Thu Oct 09 2025 09:51:06 GMT-0500 (Central Daylight Time),451728.0,gold,1000,I,m,m,None,683,484.0,199.0,99,1,2211.600000023842,449516.39999997616,7701,gold,NF,C,446186,446186,444473,445485,444474,446685,445986,445986,446685,101
100,test,1,inc,1,m,Thu Oct 09 2025 09:51:06 GMT-0500 (Central Daylight Time),453709.89999997616,cherry,900,I,m,m,None,537,337.0,200.0,78,1,1977.1000000238419,451732.7999999523,7701,copper,NF,C,448317,448317,446690,447601,446690,448667,448117,448117,448667,102
101,test,1,inc,1,m,Thu Oct 09 2025 09:51:06 GMT-0500 (Central Daylight Time),455742.7999999523,pear,900,I,m,m,None,585,385.0,200.0,110,1,2024.6000000238419,453718.1999999285,7701,iron,NF,C,450300,450300,448675,449585,448676,450700,450100,450100,450700,103
102,test,1,con,1,m,Thu Oct 09 2025 09:51:06 GMT-0500 (Central Daylight Time),457575.59999990463,iron,900,I,m,m,None,408,193.0,215.0,106,1,1828.0,455747.59999990463,7701,iron,NF,C,452333,452333,450705,451616,450705,452533,452118,452118,452533,104
103,test,1,con,1,m,Thu Oct 09 2025 09:51:06 GMT-0500 (Central Daylight Time),459842.0,silver,1100,I,m,m,None,631,431.0,200.0,84,1,2262.7000000476837,457579.2999999523,7701,silver,NF,C,454366,454367,452536,453649,452537,454799,454166,454166,454799,105
104,test,1,con,1,m,Thu Oct 09 2025 09:51:06 GMT-0500 (Central Daylight Time),461825.2999999523,lead,1000,I,m,m,None,442,240.0,202.0,123,1,1977.0,459848.2999999523,7701,lead,NF,C,456534,456534,454805,455815,454806,456782,456332,456332,456782,106
105,test,1,inc,1,m,Thu Oct 09 2025 09:51:06 GMT-0500 (Central Daylight Time),463706.7999999523,banana,800,I,m,m,None,540,338.0,202.0,93,1,1874.1000000238419,461832.6999999285,7701,cobalt,NF,C,458316,458316,456790,457598,456790,458664,458114,458114,458664,107
106,test,1,con,1,m,Thu Oct 09 2025 09:51:06 GMT-0500 (Central Daylight Time),465906.39999997616,lead,1100,I,m,m,None,556,356.0,200.0,124,1,2192.5,463713.89999997616,7701,lead,NF,C,460497,460497,458671,459780,458671,460863,460297,460297,460863,108
107,test,1,con,1,z,Thu Oct 09 2025 09:51:06 GMT-0500 (Central Daylight Time),467838.6999999285,orange,1000,I,z,z,None,385,185.0,200.0,19,1,1928.7999999523163,465909.89999997616,7701,orange,NF,C,462597,462597,460867,461882,460867,462796,462396,462396,462796,109
108,test,1,inc,1,m,Thu Oct 09 2025 09:51:06 GMT-0500 (Central Daylight Time),469971.5,raisin,1100,I,m,m,None,498,283.0,215.0,80,1,2127.5,467844.0,7701,copper,NF,C,464629,464629,462801,463912,462801,464929,464414,464414,464929,110
109,test,1,inc,1,z,Thu Oct 09 2025 09:51:06 GMT-0500 (Central Daylight Time),471805.09999990463,bronze,800,I,z,z,None,495,276.0,219.0,13,1,1828.6999999284744,469976.39999997616,7701,cherry,NF,C,466482,466482,464933,465744,464934,466762,466263,466263,466762,111
110,test,1,inc,1,m,Thu Oct 09 2025 09:51:06 GMT-0500 (Central Daylight Time),473970.2999999523,plum,1100,I,m,m,None,523,323.0,200.0,112,1,2159.600000023842,471810.6999999285,7701,iron,NF,C,468594,468595,466768,467878,466768,468927,468394,468394,468927,112
111,test,1,inc,1,z,Thu Oct 09 2025 09:51:06 GMT-0500 (Central Daylight Time),476154.2999999523,zinc,1000,I,z,z,None,633,434.0,199.0,47,1,2181.100000023842,473973.1999999285,7701,pear,NF,C,470661,470661,468930,469944,468930,471111,470461,470461,471111,113
112,test,1,inc,1,z,Thu Oct 09 2025 09:51:06 GMT-0500 (Central Daylight Time),478302.0,iron,900,I,z,z,None,703,501.0,202.0,38,1,2143.5,476158.5,7701,lime,NF,C,472744,472744,471116,472027,471116,473259,472542,472542,473259,114
113,test,1,inc,1,m,Thu Oct 09 2025 09:51:06 GMT-0500 (Central Daylight Time),480316.09999990463,cherry,900,I,m,m,None,570,370.0,200.0,94,1,2010.0999999046326,478306.0,7701,cobalt,NF,C,474891,474891,473263,474173,473263,475273,474690,474690,475273,115
114,test,1,inc,1,m,Thu Oct 09 2025 09:51:06 GMT-0500 (Central Daylight Time),482116.39999997616,banana,800,I,m,m,None,454,254.0,200.0,77,1,1795.3000000715256,480321.09999990463,7701,copper,NF,C,476807,476807,475278,476090,475278,477074,476606,476606,477073,116
115,test,1,inc,1,m,Thu Oct 09 2025 09:51:06 GMT-0500 (Central Daylight Time),484066.89999997616,pear,900,I,m,m,None,529,314.0,215.0,102,1,1946.7000000476837,482120.1999999285,7701,gold,NF,C,478708,478708,477077,477991,477077,479024,478492,478492,479024,117
116,test,1,con,1,m,Thu Oct 09 2025 09:51:06 GMT-0500 (Central Daylight Time),485950.5,gold,900,I,m,m,None,443,243.0,200.0,98,1,1877.9000000953674,484072.59999990463,7701,gold,NF,C,480658,480658,479030,479941,479030,480908,480458,480458,480907,118
117,test,1,inc,1,m,Thu Oct 09 2025 09:51:06 GMT-0500 (Central Daylight Time),488131.39999997616,raisin,1100,I,m,m,None,537,338.0,199.0,96,1,2175.600000023842,485955.7999999523,7701,cobalt,NF,C,482740,482740,480913,482023,480913,483088,482540,482540,483088,119
118,test,1,con,1,m,Thu Oct 09 2025 09:51:06 GMT-0500 (Central Daylight Time),490199.09999990463,copper,1100,I,m,m,None,434,234.0,200.0,76,1,2063.0,488136.09999990463,7701,copper,NF,C,484908,484908,483093,484205,483093,485156,484707,484707,485156,120
119,test,1,inc,1,z,Thu Oct 09 2025 09:51:06 GMT-0500 (Central Daylight Time),492114.5,gold,800,I,z,z,None,571,372.0,199.0,45,1,1909.7000000476837,490204.7999999523,7701,pear,NF,C,486690,486690,485162,485973,485162,487072,486490,486490,487072,121
120,test,1,inc,1,z,Thu Oct 09 2025 09:51:06 GMT-0500 (Central Daylight Time),494097.89999997616,silver,1000,I,z,z,None,450,250.0,200.0,23,1,1978.1000000238419,492119.7999999523,7701,orange,NF,C,488805,488805,487077,488089,487077,489055,488604,488604,489055,122
121,test,1,inc,1,z,Thu Oct 09 2025 09:51:06 GMT-0500 (Central Daylight Time),496199.2999999523,cobalt,1100,I,z,z,None,455,255.0,200.0,8,1,2095.7999999523163,494103.5,7701,banana,NF,C,490888,490888,489061,490172,489061,491156,490687,490687,491156,123
122,test,1,con,1,z,Thu Oct 09 2025 09:51:06 GMT-0500 (Central Daylight Time),498279.0,pear,1100,I,z,z,None,442,226.0,216.0,44,1,2076.100000023842,496202.89999997616,7701,pear,NF,C,493004,493004,491160,492272,491160,493236,492788,492788,493236,124
123,test,1,inc,1,z,Thu Oct 09 2025 09:51:06 GMT-0500 (Central Daylight Time),500261.7999999523,gold,800,I,z,z,None,644,444.0,200.0,53,1,1978.7000000476837,498283.09999990463,7701,kiwi,NF,C,494770,494770,493240,494054,493240,495219,494569,494569,495219,125
124,test,1,con,1,z,Thu Oct 09 2025 09:51:06 GMT-0500 (Central Daylight Time),502129.0,kiwi,900,I,z,z,None,434,235.0,199.0,50,1,1863.4000000953674,500265.59999990463,7701,kiwi,NF,C,496851,496851,495223,496137,495223,497086,496652,496652,497086,126
125,test,1,inc,1,z,Thu Oct 09 2025 09:51:06 GMT-0500 (Central Daylight Time),504377.89999997616,lead,1100,I,z,z,None,614,400.0,214.0,40,1,2245.2000000476837,502132.6999999285,7701,lime,NF,C,498935,498935,497090,498203,497090,499335,498720,498720,499335,127
126,test,1,inc,1,z,Thu Oct 09 2025 09:51:06 GMT-0500 (Central Daylight Time),506143.59999990463,gold,800,I,z,z,None,422,210.0,212.0,61,1,1761.1999999284744,504382.39999997616,7701,plum,NF,C,500884,500884,499339,500151,499340,501101,500672,500672,501101,128
