acc_sum,block,block_c,change,condition,correct,correct_response,datetime,endtime,face,project,response,response_time,row_sel,session_number,start_end,starttime,subject_id,task,task_vers,trial
0,prac,1,,1-Back,,,Fri Mar 13 2026 10:07:59 GMT-0500 (Central Daylight Time),,124_o_f_d_a.png,O,space,7823,1,1,,,7739,VNB,A,0
0,prac,1,0.0,1-Back,0.0,m,Fri Mar 13 2026 10:07:59 GMT-0500 (Central Daylight Time),131737.20000004768,071_y_f_n_a.png,O,None,2002,2,1,2806.9000000953674,128930.29999995232,7739,VNB,A,1
1,prac,1,0.0,1-Back,1.0,m,Fri Mar 13 2026 10:07:59 GMT-0500 (Central Daylight Time),132570.39999985695,165_m_m_h_a.png,O,m,7,3,1,824.0,131746.39999985695,7739,VNB,A,2
1,prac,1,0.0,1-Back,0.0,m,Fri Mar 13 2026 10:07:59 GMT-0500 (Central Daylight Time),135119.5,109_y_m_d_a.png,O,z,1724,4,1,2541.600000143051,132577.89999985695,7739,VNB,A,3
2,prac,1,0.0,1-Back,1.0,m,Fri Mar 13 2026 10:07:59 GMT-0500 (Central Daylight Time),137486.20000004768,124_o_f_n_a.png,O,m,1508,5,1,2358.5,135127.70000004768,7739,VNB,A,4
3,prac,1,1.0,1-Back,1.0,z,Fri Mar 13 2026 10:07:59 GMT-0500 (Central Daylight Time),140051.79999995232,109_y_m_n_a.png,O,z,1709,6,1,2540.2999999523163,137511.5,7739,VNB,A,5
4,prac,1,0.0,1-Back,1.0,m,Fri Mar 13 2026 10:07:59 GMT-0500 (Central Daylight Time),142633.5,039_o_m_h_a.png,O,m,1711,7,1,2560.100000143051,140073.39999985695,7739,VNB,A,6
5,prac,1,0.0,1-Back,1.0,m,Fri Mar 13 2026 10:07:59 GMT-0500 (Central Daylight Time),145000.39999985695,139_m_f_d_a.png,O,m,1543,8,1,2360.899999856949,142639.5,7739,VNB,A,7
5,prac,1,1.0,1-Back,0.0,z,Fri Mar 13 2026 10:07:59 GMT-0500 (Central Daylight Time),147666.20000004768,071_y_f_d_a.png,O,m,1795,9,1,2643.2000000476837,145023.0,7739,VNB,A,8
6,prac,1,0.0,1-Back,1.0,m,Fri Mar 13 2026 10:07:59 GMT-0500 (Central Daylight Time),150132.09999990463,165_m_m_n_a.png,O,m,1618,10,1,2445.2000000476837,147686.89999985695,7739,VNB,A,9
7,prac,1,0.0,1-Back,1.0,m,Fri Mar 13 2026 10:07:59 GMT-0500 (Central Daylight Time),152748.09999990463,124_o_f_h_a.png,O,m,1722,11,1,2591.5,150156.59999990463,7739,VNB,A,10
8,prac,1,0.0,1-Back,1.0,m,Fri Mar 13 2026 10:07:59 GMT-0500 (Central Daylight Time),154746.59999990463,109_y_m_d_a.png,O,m,1197,12,1,1973.2999999523163,152773.29999995232,7739,VNB,A,11
0,test,1,0.0,1-Back,,,Fri Mar 13 2026 10:07:59 GMT-0500 (Central Daylight Time),154746.59999990463,071_y_f_d_a.png,O,space,7345,1,1,1973.2999999523163,152773.29999995232,7739,VNB,A,0
1,test,1,0.0,1-Back,1.0,m,Fri Mar 13 2026 10:07:59 GMT-0500 (Central Daylight Time),177356.59999990463,139_m_f_n_a.png,O,m,1124,2,1,2150.899999856949,175205.70000004768,7739,VNB,A,1
2,test,1,0.0,1-Back,1.0,m,Fri Mar 13 2026 10:07:59 GMT-0500 (Central Daylight Time),179405.59999990463,039_o_m_h_a.png,O,m,1006,3,1,2034.5999999046326,177371.0,7739,VNB,A,2
3,test,1,1.0,1-Back,1.0,z,Fri Mar 13 2026 10:07:59 GMT-0500 (Central Daylight Time),181588.5,165_m_m_h_a.png,O,z,1133,4,1,2166.0,179422.5,7739,VNB,A,3
4,test,1,0.0,1-Back,1.0,m,Fri Mar 13 2026 10:07:59 GMT-0500 (Central Daylight Time),183854.0,124_o_f_n_a.png,O,m,1231,5,1,2249.9000000953674,181604.09999990463,7739,VNB,A,4
5,test,1,0.0,1-Back,1.0,m,Fri Mar 13 2026 10:07:59 GMT-0500 (Central Daylight Time),185987.20000004768,109_y_m_d_a.png,O,m,1084,6,1,2115.0,183872.20000004768,7739,VNB,A,5
6,test,1,1.0,1-Back,1.0,z,Fri Mar 13 2026 10:07:59 GMT-0500 (Central Daylight Time),188701.79999995232,139_m_f_d_a.png,O,z,1679,7,1,2700.2000000476837,186001.59999990463,7739,VNB,A,6
7,test,1,0.0,1-Back,1.0,m,Fri Mar 13 2026 10:07:59 GMT-0500 (Central Daylight Time),190918.39999985695,071_y_f_h_a.png,O,m,1196,8,1,2210.699999809265,188707.70000004768,7739,VNB,A,7
8,test,1,0.0,1-Back,1.0,m,Fri Mar 13 2026 10:07:59 GMT-0500 (Central Daylight Time),193551.0,039_o_m_n_a.png,O,m,1604,9,1,2618.9000000953674,190932.09999990463,7739,VNB,A,8
9,test,1,0.0,1-Back,1.0,m,Fri Mar 13 2026 10:07:59 GMT-0500 (Central Daylight Time),195583.70000004768,109_y_m_h_a.png,O,m,1013,10,1,2018.5,193565.20000004768,7739,VNB,A,9
10,test,1,0.0,1-Back,1.0,m,Fri Mar 13 2026 10:07:59 GMT-0500 (Central Daylight Time),198132.79999995232,039_o_m_d_a.png,O,m,1525,11,1,2535.2999999523163,195597.5,7739,VNB,A,10
11,test,1,1.0,1-Back,1.0,z,Fri Mar 13 2026 10:07:59 GMT-0500 (Central Daylight Time),200465.59999990463,124_o_f_d_a.png,O,z,1302,12,1,2319.2000000476837,198146.39999985695,7739,VNB,A,11
12,test,1,0.0,1-Back,1.0,m,Fri Mar 13 2026 10:07:59 GMT-0500 (Central Daylight Time),202581.5,165_m_m_n_a.png,O,m,1090,13,1,2102.4000000953674,200479.09999990463,7739,VNB,A,12
13,test,1,1.0,1-Back,1.0,z,Fri Mar 13 2026 10:07:59 GMT-0500 (Central Daylight Time),205114.0,071_y_f_n_a.png,O,z,1510,14,1,2518.7999999523163,202595.20000004768,7739,VNB,A,13
14,test,1,0.0,1-Back,1.0,m,Fri Mar 13 2026 10:07:59 GMT-0500 (Central Daylight Time),207228.89999985695,139_m_f_h_a.png,O,m,1070,15,1,2093.399999856949,205135.5,7739,VNB,A,14
15,test,1,0.0,1-Back,1.0,m,Fri Mar 13 2026 10:07:59 GMT-0500 (Central Daylight Time),209845.29999995232,165_m_m_d_a.png,O,m,1597,16,1,2612.4000000953674,207232.89999985695,7739,VNB,A,15
16,test,1,0.0,1-Back,1.0,m,Fri Mar 13 2026 10:07:59 GMT-0500 (Central Daylight Time),212644.59999990463,109_y_m_n_a.png,O,m,1766,17,1,2785.2999999523163,209859.29999995232,7739,VNB,A,16
17,test,1,0.0,1-Back,1.0,m,Fri Mar 13 2026 10:07:59 GMT-0500 (Central Daylight Time),214527.5,124_o_f_h_a.png,O,m,854,18,1,1869.2000000476837,212658.29999995232,7739,VNB,A,17
0,test,2,0.0,1-Back,,,Fri Mar 13 2026 10:07:59 GMT-0500 (Central Daylight Time),214527.5,109_y_m_n_a.png,O,space,3564,1,1,1869.2000000476837,212658.29999995232,7739,VNB,A,0
1,test,2,0.0,1-Back,1.0,m,Fri Mar 13 2026 10:07:59 GMT-0500 (Central Daylight Time),222208.20000004768,071_y_f_h_a.png,O,m,1078,2,1,2085.4000000953674,220122.79999995232,7739,VNB,A,1
2,test,2,1.0,1-Back,1.0,m,Fri Mar 13 2026 10:07:59 GMT-0500 (Central Daylight Time),224790.59999990463,039_o_m_n_a.png,O,m,1564,3,1,2568.7999999523163,222221.79999995232,7739,VNB,A,2
2,test,2,0.0,1-Back,0.0,m,Fri Mar 13 2026 10:07:59 GMT-0500 (Central Daylight Time),227822.59999990463,139_m_f_d_a.png,O,None,2013,4,1,3018.399999856949,224804.20000004768,7739,VNB,A,3
2,test,2,0.0,1-Back,0.0,z,Fri Mar 13 2026 10:07:59 GMT-0500 (Central Daylight Time),230855.59999990463,165_m_m_d_a.png,O,None,2015,5,1,3024.899999856949,227830.70000004768,7739,VNB,A,4
3,test,2,0.0,1-Back,1.0,m,Fri Mar 13 2026 10:07:59 GMT-0500 (Central Daylight Time),232988.59999990463,109_y_m_h_a.png,O,m,1099,6,1,2116.0,230872.59999990463,7739,VNB,A,5
3,test,2,1.0,1-Back,0.0,z,Fri Mar 13 2026 10:07:59 GMT-0500 (Central Daylight Time),235820.39999985695,124_o_f_h_a.png,O,m,1799,7,1,2818.5,233001.89999985695,7739,VNB,A,6
3,test,2,0.0,1-Back,0.0,m,Fri Mar 13 2026 10:07:59 GMT-0500 (Central Daylight Time),237819.70000004768,139_m_f_n_a.png,O,z,966,8,1,1984.9000000953674,235834.79999995232,7739,VNB,A,7
4,test,2,0.0,1-Back,1.0,m,Fri Mar 13 2026 10:07:59 GMT-0500 (Central Daylight Time),240003.79999995232,071_y_f_d_a.png,O,m,1134,9,1,2165.5,237838.29999995232,7739,VNB,A,8
5,test,2,0.0,1-Back,1.0,m,Fri Mar 13 2026 10:07:59 GMT-0500 (Central Daylight Time),242351.70000004768,165_m_m_n_a.png,O,m,1304,10,1,2332.5,240019.20000004768,7739,VNB,A,9
6,test,2,1.0,1-Back,1.0,m,Fri Mar 13 2026 10:07:59 GMT-0500 (Central Daylight Time),244767.5,139_m_f_h_a.png,O,m,1372,11,1,2401.7999999523163,242365.70000004768,7739,VNB,A,10
6,test,2,0.0,1-Back,0.0,z,Fri Mar 13 2026 10:07:59 GMT-0500 (Central Daylight Time),247633.09999990463,039_o_m_h_a.png,O,m,1835,12,1,2851.0,244782.09999990463,7739,VNB,A,11
7,test,2,0.0,1-Back,1.0,m,Fri Mar 13 2026 10:07:59 GMT-0500 (Central Daylight Time),249699.20000004768,109_y_m_d_a.png,O,m,1041,13,1,2054.800000190735,247644.39999985695,7739,VNB,A,12
8,test,2,0.0,1-Back,1.0,m,Fri Mar 13 2026 10:07:59 GMT-0500 (Central Daylight Time),251734.5,124_o_f_n_a.png,O,m,1001,14,1,2020.7000000476837,249713.79999995232,7739,VNB,A,13
8,test,2,0.0,1-Back,0.0,z,Fri Mar 13 2026 10:07:59 GMT-0500 (Central Daylight Time),254314.20000004768,071_y_f_n_a.png,O,m,1534,15,1,2565.300000190735,251748.89999985695,7739,VNB,A,14
9,test,2,1.0,1-Back,1.0,m,Fri Mar 13 2026 10:07:59 GMT-0500 (Central Daylight Time),256629.89999985695,165_m_m_h_a.png,O,m,1297,16,1,2301.399999856949,254328.5,7739,VNB,A,15
10,test,2,0.0,1-Back,1.0,m,Fri Mar 13 2026 10:07:59 GMT-0500 (Central Daylight Time),258679.59999990463,124_o_f_d_a.png,O,m,1029,17,1,2036.5,256643.09999990463,7739,VNB,A,16
11,test,2,1.0,1-Back,1.0,z,Fri Mar 13 2026 10:07:59 GMT-0500 (Central Daylight Time),260612.39999985695,039_o_m_d_a.png,O,z,899,18,1,1919.1999998092651,258693.20000004768,7739,VNB,A,17
0,test,3,1.0,1-Back,,,Fri Mar 13 2026 10:07:59 GMT-0500 (Central Daylight Time),260612.39999985695,124_o_f_h_a.png,O,space,2111,1,1,1919.1999998092651,258693.20000004768,7739,VNB,A,0
1,test,3,0.0,1-Back,1.0,m,Fri Mar 13 2026 10:07:59 GMT-0500 (Central Daylight Time),266859.2999999523,139_m_f_d_a.png,O,m,1032,2,1,2039.7999999523163,264819.5,7739,VNB,A,1
2,test,3,1.0,1-Back,1.0,m,Fri Mar 13 2026 10:07:59 GMT-0500 (Central Daylight Time),269542.09999990463,165_m_m_n_a.png,O,m,1654,3,1,2677.0999999046326,266865.0,7739,VNB,A,2
3,test,3,0.0,1-Back,1.0,z,Fri Mar 13 2026 10:07:59 GMT-0500 (Central Daylight Time),271475.39999985695,124_o_f_n_a.png,O,z,909,4,1,1927.3999998569489,269548.0,7739,VNB,A,3
4,test,3,1.0,1-Back,1.0,m,Fri Mar 13 2026 10:07:59 GMT-0500 (Central Daylight Time),273424.7000000477,039_o_m_d_a.png,O,m,910,5,1,1932.6000001430511,271492.09999990463,7739,VNB,A,4
5,test,3,0.0,1-Back,1.0,m,Fri Mar 13 2026 10:07:59 GMT-0500 (Central Daylight Time),275624.0,071_y_f_h_a.png,O,m,1178,6,1,2184.9000000953674,273439.09999990463,7739,VNB,A,5
6,test,3,0.0,1-Back,1.0,z,Fri Mar 13 2026 10:07:59 GMT-0500 (Central Daylight Time),277923.2999999523,109_y_m_h_a.png,O,z,1276,7,1,2284.9000000953674,275638.39999985695,7739,VNB,A,6
7,test,3,0.0,1-Back,1.0,m,Fri Mar 13 2026 10:07:59 GMT-0500 (Central Daylight Time),280271.89999985695,139_m_f_n_a.png,O,m,1318,8,1,2334.199999809265,277937.7000000477,7739,VNB,A,7
8,test,3,0.0,1-Back,1.0,m,Fri Mar 13 2026 10:07:59 GMT-0500 (Central Daylight Time),282437.7000000477,071_y_f_d_a.png,O,m,1146,9,1,2159.300000190735,280278.39999985695,7739,VNB,A,8
9,test,3,1.0,1-Back,1.0,m,Fri Mar 13 2026 10:07:59 GMT-0500 (Central Daylight Time),284971.09999990463,039_o_m_n_a.png,O,m,1502,10,1,2529.2999999523163,282441.7999999523,7739,VNB,A,9
10,test,3,0.0,1-Back,1.0,m,Fri Mar 13 2026 10:07:59 GMT-0500 (Central Daylight Time),287520.09999990463,165_m_m_h_a.png,O,m,1511,11,1,2531.7999999523163,284988.2999999523,7739,VNB,A,10
11,test,3,0.0,1-Back,1.0,z,Fri Mar 13 2026 10:07:59 GMT-0500 (Central Daylight Time),289336.2000000477,139_m_f_h_a.png,O,z,788,12,1,1802.9000000953674,287533.2999999523,7739,VNB,A,11
12,test,3,1.0,1-Back,1.0,m,Fri Mar 13 2026 10:07:59 GMT-0500 (Central Daylight Time),291318.09999990463,124_o_f_d_a.png,O,m,953,13,1,1968.7000000476837,289349.39999985695,7739,VNB,A,12
12,test,3,0.0,1-Back,0.0,z,Fri Mar 13 2026 10:07:59 GMT-0500 (Central Daylight Time),293468.09999990463,165_m_m_d_a.png,O,m,1116,14,1,2145.399999856949,291322.7000000477,7739,VNB,A,13
13,test,3,0.0,1-Back,1.0,m,Fri Mar 13 2026 10:07:59 GMT-0500 (Central Daylight Time),295384.2000000477,109_y_m_n_a.png,O,m,893,15,1,1901.9000000953674,293482.2999999523,7739,VNB,A,14
14,test,3,1.0,1-Back,1.0,m,Fri Mar 13 2026 10:07:59 GMT-0500 (Central Daylight Time),297418.2000000477,039_o_m_h_a.png,O,m,1012,16,1,2019.8000001907349,295398.39999985695,7739,VNB,A,15
15,test,3,0.0,1-Back,1.0,m,Fri Mar 13 2026 10:07:59 GMT-0500 (Central Daylight Time),299398.7999999523,109_y_m_d_a.png,O,m,945,17,1,1967.0,297431.7999999523,7739,VNB,A,16
16,test,3,1.0,1-Back,1.0,m,Fri Mar 13 2026 10:07:59 GMT-0500 (Central Daylight Time),301648.7000000477,071_y_f_n_a.png,O,m,1220,18,1,2244.300000190735,299404.39999985695,7739,VNB,A,17
0,test,4,1.0,1-Back,,,Fri Mar 13 2026 10:07:59 GMT-0500 (Central Daylight Time),301648.7000000477,165_m_m_d_a.png,O,space,1625,1,1,2244.300000190735,299404.39999985695,7739,VNB,A,0
1,test,4,0.0,1-Back,1.0,z,Fri Mar 13 2026 10:07:59 GMT-0500 (Central Daylight Time),306980.2000000477,039_o_m_d_a.png,O,z,650,2,1,1677.6000001430511,305302.59999990463,7739,VNB,A,1
2,test,4,0.0,1-Back,1.0,m,Fri Mar 13 2026 10:07:59 GMT-0500 (Central Daylight Time),308879.7999999523,109_y_m_h_a.png,O,m,879,3,1,1885.5999999046326,306994.2000000477,7739,VNB,A,2
3,test,4,0.0,1-Back,1.0,m,Fri Mar 13 2026 10:07:59 GMT-0500 (Central Daylight Time),311295.59999990463,139_m_f_n_a.png,O,m,1396,4,1,2403.2000000476837,308892.39999985695,7739,VNB,A,3
4,test,4,1.0,1-Back,1.0,m,Fri Mar 13 2026 10:07:59 GMT-0500 (Central Daylight Time),313378.39999985695,124_o_f_h_a.png,O,m,1052,5,1,2069.5999999046326,311308.7999999523,7739,VNB,A,4
5,test,4,0.0,1-Back,1.0,m,Fri Mar 13 2026 10:07:59 GMT-0500 (Central Daylight Time),315161.09999990463,165_m_m_n_a.png,O,m,762,6,1,1769.0,313392.09999990463,7739,VNB,A,5
5,test,4,0.0,1-Back,0.0,m,Fri Mar 13 2026 10:07:59 GMT-0500 (Central Daylight Time),317827.0,109_y_m_d_a.png,O,z,1634,7,1,2651.600000143051,315175.39999985695,7739,VNB,A,6
6,test,4,1.0,1-Back,1.0,z,Fri Mar 13 2026 10:07:59 GMT-0500 (Central Daylight Time),319826.2000000477,071_y_f_d_a.png,O,z,968,8,1,1985.8000001907349,317840.39999985695,7739,VNB,A,7
7,test,4,0.0,1-Back,1.0,m,Fri Mar 13 2026 10:07:59 GMT-0500 (Central Daylight Time),321942.2999999523,139_m_f_h_a.png,O,m,1089,9,1,2102.5,319839.7999999523,7739,VNB,A,8
7,test,4,0.0,1-Back,0.0,z,Fri Mar 13 2026 10:07:59 GMT-0500 (Central Daylight Time),324024.0,039_o_m_h_a.png,O,m,1053,10,1,2068.9000000953674,321955.09999990463,7739,VNB,A,9
8,test,4,1.0,1-Back,1.0,m,Fri Mar 13 2026 10:07:59 GMT-0500 (Central Daylight Time),326090.7000000477,124_o_f_n_a.png,O,m,1034,11,1,2059.9000000953674,324030.7999999523,7739,VNB,A,10
9,test,4,0.0,1-Back,1.0,m,Fri Mar 13 2026 10:07:59 GMT-0500 (Central Daylight Time),328240.09999990463,139_m_f_d_a.png,O,m,1120,12,1,2135.7000000476837,326104.39999985695,7739,VNB,A,11
10,test,4,0.0,1-Back,1.0,m,Fri Mar 13 2026 10:07:59 GMT-0500 (Central Daylight Time),330271.89999985695,071_y_f_n_a.png,O,m,985,13,1,2017.1999998092651,328254.7000000477,7739,VNB,A,12
11,test,4,0.0,1-Back,1.0,m,Fri Mar 13 2026 10:07:59 GMT-0500 (Central Daylight Time),332255.2000000477,124_o_f_d_a.png,O,m,963,14,1,1979.6000001430511,330275.59999990463,7739,VNB,A,13
12,test,4,0.0,1-Back,1.0,m,Fri Mar 13 2026 10:07:59 GMT-0500 (Central Daylight Time),334388.09999990463,071_y_f_h_a.png,O,m,1108,15,1,2118.5,332269.59999990463,7739,VNB,A,14
12,test,4,1.0,1-Back,0.0,z,Fri Mar 13 2026 10:07:59 GMT-0500 (Central Daylight Time),337420.7000000477,165_m_m_h_a.png,O,None,2015,16,1,3020.100000143051,334400.59999990463,7739,VNB,A,15
13,test,4,0.0,1-Back,1.0,m,Fri Mar 13 2026 10:07:59 GMT-0500 (Central Daylight Time),339469.39999985695,039_o_m_n_a.png,O,m,1031,17,1,2035.5,337433.89999985695,7739,VNB,A,16
14,test,4,1.0,1-Back,1.0,z,Fri Mar 13 2026 10:07:59 GMT-0500 (Central Daylight Time),341451.59999990463,109_y_m_n_a.png,O,z,949,18,1,1967.5999999046326,339484.0,7739,VNB,A,17
0,test,5,1.0,1-Back,,,Fri Mar 13 2026 10:07:59 GMT-0500 (Central Daylight Time),341451.59999990463,039_o_m_n_a.png,O,space,1961,1,1,1967.5999999046326,339484.0,7739,VNB,A,0
0,test,5,1.0,1-Back,0.0,m,Fri Mar 13 2026 10:07:59 GMT-0500 (Central Daylight Time),348467.0,124_o_f_h_a.png,O,None,2015,2,1,3019.7000000476837,345447.2999999523,7739,VNB,A,1
1,test,5,0.0,1-Back,1.0,m,Fri Mar 13 2026 10:07:59 GMT-0500 (Central Daylight Time),350333.59999990463,109_y_m_d_a.png,O,m,833,3,1,1847.5999999046326,348486.0,7739,VNB,A,2
1,test,5,0.0,1-Back,0.0,z,Fri Mar 13 2026 10:07:59 GMT-0500 (Central Daylight Time),352365.5,039_o_m_d_a.png,O,m,990,4,1,2017.6000001430511,350347.89999985695,7739,VNB,A,3
2,test,5,0.0,1-Back,1.0,m,Fri Mar 13 2026 10:07:59 GMT-0500 (Central Daylight Time),354264.89999985695,139_m_f_h_a.png,O,m,872,5,1,1885.7999999523163,352379.09999990463,7739,VNB,A,4
3,test,5,0.0,1-Back,1.0,m,Fri Mar 13 2026 10:07:59 GMT-0500 (Central Daylight Time),356280.7000000477,071_y_f_n_a.png,O,m,986,6,1,2002.5,354278.2000000477,7739,VNB,A,5
3,test,5,1.0,1-Back,0.0,z,Fri Mar 13 2026 10:07:59 GMT-0500 (Central Daylight Time),358480.2999999523,124_o_f_n_a.png,O,m,1162,7,1,2184.4000000953674,356295.89999985695,7739,VNB,A,6
4,test,5,0.0,1-Back,1.0,m,Fri Mar 13 2026 10:07:59 GMT-0500 (Central Daylight Time),360345.39999985695,139_m_f_d_a.png,O,m,834,8,1,1851.7999999523163,358493.59999990463,7739,VNB,A,7
5,test,5,0.0,1-Back,1.0,m,Fri Mar 13 2026 10:07:59 GMT-0500 (Central Daylight Time),362079.0,109_y_m_h_a.png,O,m,703,9,1,1727.9000000953674,360351.09999990463,7739,VNB,A,8
6,test,5,0.0,1-Back,1.0,m,Fri Mar 13 2026 10:07:59 GMT-0500 (Central Daylight Time),363795.09999990463,071_y_f_d_a.png,O,m,693,10,1,1702.7000000476837,362092.39999985695,7739,VNB,A,9
7,test,5,0.0,1-Back,1.0,m,Fri Mar 13 2026 10:07:59 GMT-0500 (Central Daylight Time),365693.7000000477,165_m_m_n_a.png,O,m,872,11,1,1885.1000001430511,363808.59999990463,7739,VNB,A,10
8,test,5,1.0,1-Back,1.0,z,Fri Mar 13 2026 10:07:59 GMT-0500 (Central Daylight Time),367510.2000000477,139_m_f_n_a.png,O,z,788,12,1,1810.9000000953674,365699.2999999523,7739,VNB,A,11
9,test,5,0.0,1-Back,1.0,m,Fri Mar 13 2026 10:07:59 GMT-0500 (Central Daylight Time),369459.2000000477,039_o_m_h_a.png,O,m,924,13,1,1939.7000000476837,367519.5,7739,VNB,A,12
10,test,5,0.0,1-Back,1.0,z,Fri Mar 13 2026 10:07:59 GMT-0500 (Central Daylight Time),372208.7999999523,165_m_m_h_a.png,O,z,1719,14,1,2745.9000000953674,369462.89999985695,7739,VNB,A,13
11,test,5,1.0,1-Back,1.0,m,Fri Mar 13 2026 10:07:59 GMT-0500 (Central Daylight Time),374174.39999985695,124_o_f_d_a.png,O,m,945,15,1,1952.1999998092651,372222.2000000477,7739,VNB,A,14
12,test,5,0.0,1-Back,1.0,m,Fri Mar 13 2026 10:07:59 GMT-0500 (Central Daylight Time),376323.5,109_y_m_n_a.png,O,m,1130,16,1,2141.2000000476837,374182.2999999523,7739,VNB,A,15
13,test,5,0.0,1-Back,1.0,m,Fri Mar 13 2026 10:07:59 GMT-0500 (Central Daylight Time),378790.09999990463,071_y_f_h_a.png,O,m,1447,17,1,2460.5999999046326,376329.5,7739,VNB,A,16
14,test,5,0.0,1-Back,1.0,m,Fri Mar 13 2026 10:07:59 GMT-0500 (Central Daylight Time),380572.2000000477,165_m_m_d_a.png,O,m,757,18,1,1769.2000000476837,378803.0,7739,VNB,A,17
0,prac,1,0.0,2-Back,,,Fri Mar 13 2026 10:07:59 GMT-0500 (Central Daylight Time),380572.2000000477,139_m_f_n_a.png,O,space,4170,1,1,1769.2000000476837,378803.0,7739,VNB,A,0
0,prac,1,0.0,2-Back,,,Fri Mar 13 2026 10:07:59 GMT-0500 (Central Daylight Time),380572.2000000477,124_o_f_h_a.png,O,space,4170,2,1,1769.2000000476837,378803.0,7739,VNB,A,0
0,prac,1,0.0,2-Back,0.0,m,Fri Mar 13 2026 10:07:59 GMT-0500 (Central Daylight Time),495551.89999985695,039_o_m_d_a.png,O,None,2012,3,1,2824.0999999046326,492727.7999999523,7739,VNB,A,1
0,prac,1,1.0,2-Back,0.0,z,Fri Mar 13 2026 10:07:59 GMT-0500 (Central Daylight Time),498416.7999999523,165_m_m_h_a.png,O,None,2003,4,1,2836.9000000953674,495579.89999985695,7739,VNB,A,2
1,prac,1,0.0,2-Back,1.0,m,Fri Mar 13 2026 10:07:59 GMT-0500 (Central Daylight Time),499483.7999999523,071_y_f_n_a.png,O,m,251,5,1,1060.0999999046326,498423.7000000477,7739,VNB,A,3
1,prac,1,1.0,2-Back,0.0,z,Fri Mar 13 2026 10:07:59 GMT-0500 (Central Daylight Time),502282.7999999523,039_o_m_h_a.png,O,None,2008,6,1,2775.5,499507.2999999523,7739,VNB,A,4
1,prac,1,1.0,2-Back,0.0,z,Fri Mar 13 2026 10:07:59 GMT-0500 (Central Daylight Time),505148.2999999523,109_y_m_n_a.png,O,None,2009,7,1,2839.2000000476837,502309.09999990463,7739,VNB,A,5
2,prac,1,0.0,2-Back,1.0,m,Fri Mar 13 2026 10:07:59 GMT-0500 (Central Daylight Time),506215.09999990463,139_m_f_d_a.png,O,m,232,8,1,1053.0999999046326,505162.0,7739,VNB,A,6
2,prac,1,0.0,2-Back,0.0,m,Fri Mar 13 2026 10:07:59 GMT-0500 (Central Daylight Time),508747.0,124_o_f_d_a.png,O,z,1619,9,1,2510.100000143051,506236.89999985695,7739,VNB,A,7
3,prac,1,0.0,2-Back,1.0,m,Fri Mar 13 2026 10:07:59 GMT-0500 (Central Daylight Time),511146.89999985695,165_m_m_h_a.png,O,m,1615,10,1,2391.0,508755.89999985695,7739,VNB,A,8
4,prac,1,1.0,2-Back,1.0,z,Fri Mar 13 2026 10:07:59 GMT-0500 (Central Daylight Time),513446.2999999523,071_y_f_d_a.png,O,z,1459,11,1,2281.5,511164.7999999523,7739,VNB,A,9
5,prac,1,0.0,2-Back,1.0,m,Fri Mar 13 2026 10:07:59 GMT-0500 (Central Daylight Time),516278.2999999523,039_o_m_n_a.png,O,m,1985,12,1,2809.2999999523163,513469.0,7739,VNB,A,10
0,prac,2,0.0,2-Back,,,Fri Mar 13 2026 10:07:59 GMT-0500 (Central Daylight Time),516278.2999999523,139_m_f_n_a.png,O,a,8292,1,1,2809.2999999523163,513469.0,7739,VNB,A,0
0,prac,2,0.0,2-Back,,,Fri Mar 13 2026 10:07:59 GMT-0500 (Central Daylight Time),516278.2999999523,124_o_f_h_a.png,O,a,8292,2,1,2809.2999999523163,513469.0,7739,VNB,A,0
0,prac,2,0.0,2-Back,0.0,m,Fri Mar 13 2026 10:07:59 GMT-0500 (Central Daylight Time),532673.0999999046,039_o_m_d_a.png,O,None,2003,3,1,2819.2999999523163,529853.7999999523,7739,VNB,A,1
0,prac,2,1.0,2-Back,0.0,z,Fri Mar 13 2026 10:07:59 GMT-0500 (Central Daylight Time),535471.0999999046,165_m_m_h_a.png,O,None,2008,4,1,2775.7999999523163,532695.2999999523,7739,VNB,A,2
0,prac,2,0.0,2-Back,0.0,m,Fri Mar 13 2026 10:07:59 GMT-0500 (Central Daylight Time),536538.2000000477,071_y_f_n_a.png,O,z,244,5,1,1060.7000000476837,535477.5,7739,VNB,A,3
1,prac,2,1.0,2-Back,1.0,z,Fri Mar 13 2026 10:07:59 GMT-0500 (Central Daylight Time),538687.899999857,039_o_m_h_a.png,O,z,1287,6,1,2125.699999809265,536562.2000000477,7739,VNB,A,4
2,prac,2,1.0,2-Back,1.0,z,Fri Mar 13 2026 10:07:59 GMT-0500 (Central Daylight Time),541203.5999999046,109_y_m_n_a.png,O,z,1673,7,1,2497.7999999523163,538705.7999999523,7739,VNB,A,5
2,prac,2,0.0,2-Back,0.0,m,Fri Mar 13 2026 10:07:59 GMT-0500 (Central Daylight Time),543307.0999999046,139_m_f_d_a.png,O,z,1251,8,1,2083.2999999523163,541223.7999999523,7739,VNB,A,6
2,prac,2,0.0,2-Back,0.0,m,Fri Mar 13 2026 10:07:59 GMT-0500 (Central Daylight Time),546201.5999999046,124_o_f_d_a.png,O,None,2014,9,1,2873.899999856949,543327.7000000477,7739,VNB,A,7
3,prac,2,0.0,2-Back,1.0,m,Fri Mar 13 2026 10:07:59 GMT-0500 (Central Daylight Time),548467.7000000477,165_m_m_h_a.png,O,m,1468,10,1,2244.0,546223.7000000477,7739,VNB,A,8
4,prac,2,1.0,2-Back,1.0,z,Fri Mar 13 2026 10:07:59 GMT-0500 (Central Daylight Time),550550.399999857,071_y_f_d_a.png,O,z,1236,11,1,2066.5999999046326,548483.7999999523,7739,VNB,A,9
4,prac,2,0.0,2-Back,0.0,m,Fri Mar 13 2026 10:07:59 GMT-0500 (Central Daylight Time),553382.7999999523,039_o_m_n_a.png,O,None,2010,12,1,2822.4000000953674,550560.399999857,7739,VNB,A,10
0,prac,3,0.0,2-Back,,,Fri Mar 13 2026 10:07:59 GMT-0500 (Central Daylight Time),553382.7999999523,139_m_f_n_a.png,O,a,6386,1,1,2822.4000000953674,550560.399999857,7739,VNB,A,0
0,prac,3,0.0,2-Back,,,Fri Mar 13 2026 10:07:59 GMT-0500 (Central Daylight Time),553382.7999999523,124_o_f_h_a.png,O,a,6386,2,1,2822.4000000953674,550560.399999857,7739,VNB,A,0
0,prac,3,0.0,2-Back,0.0,m,Fri Mar 13 2026 10:07:59 GMT-0500 (Central Daylight Time),567844.7000000477,039_o_m_d_a.png,O,None,2016,3,1,2829.2000000476837,565015.5,7739,VNB,A,1
0,prac,3,1.0,2-Back,0.0,z,Fri Mar 13 2026 10:07:59 GMT-0500 (Central Daylight Time),570643.5999999046,165_m_m_h_a.png,O,None,2011,4,1,2778.0,567865.5999999046,7739,VNB,A,2
0,prac,3,0.0,2-Back,0.0,m,Fri Mar 13 2026 10:07:59 GMT-0500 (Central Daylight Time),573509.5999999046,071_y_f_n_a.png,O,None,2012,5,1,2844.2999999523163,570665.2999999523,7739,VNB,A,3
0,prac,3,1.0,2-Back,0.0,z,Fri Mar 13 2026 10:07:59 GMT-0500 (Central Daylight Time),576358.399999857,039_o_m_h_a.png,O,None,2008,6,1,2825.5999999046326,573532.7999999523,7739,VNB,A,4
0,prac,3,1.0,2-Back,0.0,z,Fri Mar 13 2026 10:07:59 GMT-0500 (Central Daylight Time),579224.2999999523,109_y_m_n_a.png,O,None,2015,7,1,2843.5999999046326,576380.7000000477,7739,VNB,A,5
0,prac,3,0.0,2-Back,0.0,m,Fri Mar 13 2026 10:07:59 GMT-0500 (Central Daylight Time),582089.7999999523,139_m_f_d_a.png,O,None,2008,8,1,2843.0999999046326,579246.7000000477,7739,VNB,A,6
0,prac,3,0.0,2-Back,0.0,m,Fri Mar 13 2026 10:07:59 GMT-0500 (Central Daylight Time),584989.0,124_o_f_d_a.png,O,None,2015,9,1,2876.2000000476837,582112.7999999523,7739,VNB,A,7
0,prac,3,0.0,2-Back,0.0,m,Fri Mar 13 2026 10:07:59 GMT-0500 (Central Daylight Time),587788.0999999046,165_m_m_h_a.png,O,None,2006,10,1,2774.7999999523163,585013.2999999523,7739,VNB,A,8
0,prac,3,1.0,2-Back,0.0,z,Fri Mar 13 2026 10:07:59 GMT-0500 (Central Daylight Time),590653.899999857,071_y_f_d_a.png,O,None,2013,11,1,2842.199999809265,587811.7000000477,7739,VNB,A,9
0,prac,3,0.0,2-Back,0.0,m,Fri Mar 13 2026 10:07:59 GMT-0500 (Central Daylight Time),593486.2000000477,039_o_m_n_a.png,O,None,2006,12,1,2818.5,590667.7000000477,7739,VNB,A,10
0,test,1,0.0,2-Back,,,Fri Mar 13 2026 10:07:59 GMT-0500 (Central Daylight Time),593486.2000000477,109_y_m_h_a.png,O,space,2521,1,1,2818.5,590667.7000000477,7739,VNB,A,0
0,test,1,0.0,2-Back,,,Fri Mar 13 2026 10:07:59 GMT-0500 (Central Daylight Time),593486.2000000477,124_o_f_n_a.png,O,space,2521,2,1,2818.5,590667.7000000477,7739,VNB,A,0
1,test,1,0.0,2-Back,1.0,z,Fri Mar 13 2026 10:07:59 GMT-0500 (Central Daylight Time),623726.2000000477,039_o_m_h_a.png,O,z,1714,3,1,2717.9000000953674,621008.2999999523,7739,VNB,A,1
1,test,1,0.0,2-Back,0.0,m,Fri Mar 13 2026 10:07:59 GMT-0500 (Central Daylight Time),626775.399999857,139_m_f_d_a.png,O,None,2015,4,1,3034.399999856949,623741.0,7739,VNB,A,2
1,test,1,1.0,2-Back,0.0,m,Fri Mar 13 2026 10:07:59 GMT-0500 (Central Daylight Time),629806.899999857,109_y_m_n_a.png,O,None,2015,5,1,3018.7999999523163,626788.0999999046,7739,VNB,A,3
1,test,1,0.0,2-Back,0.0,z,Fri Mar 13 2026 10:07:59 GMT-0500 (Central Daylight Time),632840.0999999046,071_y_f_d_a.png,O,None,2015,6,1,3025.7999999523163,629814.2999999523,7739,VNB,A,4
1,test,1,0.0,2-Back,0.0,m,Fri Mar 13 2026 10:07:59 GMT-0500 (Central Daylight Time),635872.2999999523,165_m_m_h_a.png,O,None,2015,7,1,3019.2999999523163,632853.0,7739,VNB,A,5
1,test,1,1.0,2-Back,0.0,m,Fri Mar 13 2026 10:07:59 GMT-0500 (Central Daylight Time),638820.5999999046,071_y_f_n_a.png,O,z,1929,8,1,2934.7999999523163,635885.7999999523,7739,VNB,A,6
1,test,1,0.0,2-Back,0.0,z,Fri Mar 13 2026 10:07:59 GMT-0500 (Central Daylight Time),640587.5999999046,124_o_f_h_a.png,O,m,733,9,1,1761.0999999046326,638826.5,7739,VNB,A,7
1,test,1,0.0,2-Back,0.0,m,Fri Mar 13 2026 10:07:59 GMT-0500 (Central Daylight Time),642702.7000000477,039_o_m_d_a.png,O,z,1094,10,1,2101.300000190735,640601.399999857,7739,VNB,A,8
2,test,1,1.0,2-Back,1.0,m,Fri Mar 13 2026 10:07:59 GMT-0500 (Central Daylight Time),645568.2999999523,165_m_m_d_a.png,O,m,1844,11,1,2861.7000000476837,642706.5999999046,7739,VNB,A,9
3,test,1,0.0,2-Back,1.0,m,Fri Mar 13 2026 10:07:59 GMT-0500 (Central Daylight Time),647585.2999999523,139_m_f_n_a.png,O,m,995,12,1,2013.0,645572.2999999523,7739,VNB,A,10
3,test,1,0.0,2-Back,0.0,m,Fri Mar 13 2026 10:07:59 GMT-0500 (Central Daylight Time),650184.5,071_y_f_h_a.png,O,z,1570,13,1,2585.4000000953674,647599.0999999046,7739,VNB,A,11
3,test,1,0.0,2-Back,0.0,z,Fri Mar 13 2026 10:07:59 GMT-0500 (Central Daylight Time),652350.2999999523,165_m_m_n_a.png,O,m,1139,14,1,2152.0999999046326,650198.2000000477,7739,VNB,A,12
4,test,1,0.0,2-Back,1.0,m,Fri Mar 13 2026 10:07:59 GMT-0500 (Central Daylight Time),654233.0999999046,109_y_m_d_a.png,O,m,862,15,1,1868.3999998569489,652364.7000000477,7739,VNB,A,13
5,test,1,1.0,2-Back,1.0,m,Fri Mar 13 2026 10:07:59 GMT-0500 (Central Daylight Time),656548.7999999523,139_m_f_h_a.png,O,m,1292,16,1,2302.0999999046326,654246.7000000477,7739,VNB,A,14
6,test,1,0.0,2-Back,1.0,z,Fri Mar 13 2026 10:07:59 GMT-0500 (Central Daylight Time),658480.899999857,124_o_f_d_a.png,O,z,901,17,1,1918.6999998092651,656562.2000000477,7739,VNB,A,15
7,test,1,0.0,2-Back,1.0,m,Fri Mar 13 2026 10:07:59 GMT-0500 (Central Daylight Time),660897.2999999523,039_o_m_n_a.png,O,m,1395,18,1,2411.2000000476837,658486.0999999046,7739,VNB,A,16
0,test,2,0.0,2-Back,,,Fri Mar 13 2026 10:07:59 GMT-0500 (Central Daylight Time),660897.2999999523,165_m_m_h_a.png,O,space,2120,1,1,2411.2000000476837,658486.0999999046,7739,VNB,A,0
0,test,2,0.0,2-Back,,,Fri Mar 13 2026 10:07:59 GMT-0500 (Central Daylight Time),660897.2999999523,071_y_f_n_a.png,O,space,2120,2,1,2411.2000000476837,658486.0999999046,7739,VNB,A,0
1,test,2,1.0,2-Back,1.0,z,Fri Mar 13 2026 10:07:59 GMT-0500 (Central Daylight Time),670077.7000000477,124_o_f_h_a.png,O,z,833,3,1,1849.4000000953674,668228.2999999523,7739,VNB,A,1
2,test,2,0.0,2-Back,1.0,m,Fri Mar 13 2026 10:07:59 GMT-0500 (Central Daylight Time),672843.0,039_o_m_d_a.png,O,m,1716,4,1,2750.4000000953674,670092.5999999046,7739,VNB,A,2
2,test,2,0.0,2-Back,0.0,m,Fri Mar 13 2026 10:07:59 GMT-0500 (Central Daylight Time),675860.7999999523,139_m_f_d_a.png,O,None,2001,5,1,3009.9000000953674,672850.899999857,7739,VNB,A,3
2,test,2,0.0,2-Back,0.0,m,Fri Mar 13 2026 10:07:59 GMT-0500 (Central Daylight Time),678207.5999999046,109_y_m_h_a.png,O,z,1303,6,1,2332.7000000476837,675874.899999857,7739,VNB,A,4
2,test,2,0.0,2-Back,0.0,m,Fri Mar 13 2026 10:07:59 GMT-0500 (Central Daylight Time),681240.7000000477,124_o_f_n_a.png,O,None,2016,7,1,3028.7000000476837,678212.0,7739,VNB,A,5
3,test,2,1.0,2-Back,1.0,z,Fri Mar 13 2026 10:07:59 GMT-0500 (Central Daylight Time),684256.5,039_o_m_h_a.png,O,z,1969,8,1,3000.2999999523163,681256.2000000477,7739,VNB,A,6
4,test,2,0.0,2-Back,1.0,m,Fri Mar 13 2026 10:07:59 GMT-0500 (Central Daylight Time),686557.7999999523,071_y_f_d_a.png,O,m,1275,9,1,2287.5,684270.2999999523,7739,VNB,A,7
5,test,2,0.0,2-Back,1.0,m,Fri Mar 13 2026 10:07:59 GMT-0500 (Central Daylight Time),688855.0999999046,109_y_m_d_a.png,O,m,1256,10,1,2284.0,686571.0999999046,7739,VNB,A,8
6,test,2,0.0,2-Back,1.0,m,Fri Mar 13 2026 10:07:59 GMT-0500 (Central Daylight Time),691220.899999857,165_m_m_n_a.png,O,m,1317,11,1,2351.0999999046326,688869.7999999523,7739,VNB,A,9
6,test,2,0.0,2-Back,0.0,m,Fri Mar 13 2026 10:07:59 GMT-0500 (Central Daylight Time),693386.899999857,139_m_f_h_a.png,O,z,1134,12,1,2151.7999999523163,691235.0999999046,7739,VNB,A,10
6,test,2,1.0,2-Back,0.0,z,Fri Mar 13 2026 10:07:59 GMT-0500 (Central Daylight Time),695486.2000000477,039_o_m_n_a.png,O,m,1073,13,1,2085.800000190735,693400.399999857,7739,VNB,A,11
7,test,2,0.0,2-Back,1.0,m,Fri Mar 13 2026 10:07:59 GMT-0500 (Central Daylight Time),697385.5999999046,124_o_f_d_a.png,O,m,870,14,1,1886.3999998569489,695499.2000000477,7739,VNB,A,12
8,test,2,0.0,2-Back,1.0,m,Fri Mar 13 2026 10:07:59 GMT-0500 (Central Daylight Time),699384.5,071_y_f_h_a.png,O,m,970,15,1,1985.6000001430511,697398.899999857,7739,VNB,A,13
8,test,2,0.0,2-Back,0.0,z,Fri Mar 13 2026 10:07:59 GMT-0500 (Central Daylight Time),701600.7000000477,165_m_m_d_a.png,O,m,1186,16,1,2208.600000143051,699392.0999999046,7739,VNB,A,14
9,test,2,0.0,2-Back,1.0,m,Fri Mar 13 2026 10:07:59 GMT-0500 (Central Daylight Time),703666.2999999523,109_y_m_n_a.png,O,m,1026,17,1,2050.4000000953674,701615.899999857,7739,VNB,A,15
9,test,2,1.0,2-Back,0.0,m,Fri Mar 13 2026 10:07:59 GMT-0500 (Central Daylight Time),705999.0999999046,139_m_f_n_a.png,O,z,1313,18,1,2325.0999999046326,703674.0,7739,VNB,A,16
0,test,3,1.0,2-Back,,,Fri Mar 13 2026 10:07:59 GMT-0500 (Central Daylight Time),705999.0999999046,039_o_m_n_a.png,O,space,2068,1,1,2325.0999999046326,703674.0,7739,VNB,A,0
0,test,3,1.0,2-Back,,,Fri Mar 13 2026 10:07:59 GMT-0500 (Central Daylight Time),705999.0999999046,124_o_f_d_a.png,O,space,2068,2,1,2325.0999999046326,703674.0,7739,VNB,A,0
1,test,3,0.0,2-Back,1.0,m,Fri Mar 13 2026 10:07:59 GMT-0500 (Central Daylight Time),715079.7999999523,071_y_f_h_a.png,O,m,889,3,1,1917.0,713162.7999999523,7739,VNB,A,1
1,test,3,0.0,2-Back,0.0,z,Fri Mar 13 2026 10:07:59 GMT-0500 (Central Daylight Time),717062.2999999523,139_m_f_d_a.png,O,m,958,4,1,1969.9000000953674,715092.399999857,7739,VNB,A,2
2,test,3,1.0,2-Back,1.0,m,Fri Mar 13 2026 10:07:59 GMT-0500 (Central Daylight Time),719844.2000000477,109_y_m_n_a.png,O,m,1741,5,1,2764.800000190735,717079.399999857,7739,VNB,A,3
2,test,3,0.0,2-Back,0.0,m,Fri Mar 13 2026 10:07:59 GMT-0500 (Central Daylight Time),721794.2000000477,039_o_m_h_a.png,O,z,927,6,1,1942.1000001430511,719852.0999999046,7739,VNB,A,4
2,test,3,0.0,2-Back,0.0,z,Fri Mar 13 2026 10:07:59 GMT-0500 (Central Daylight Time),724493.2999999523,071_y_f_n_a.png,O,m,1658,7,1,2684.2000000476837,721809.0999999046,7739,VNB,A,5
3,test,3,1.0,2-Back,1.0,m,Fri Mar 13 2026 10:07:59 GMT-0500 (Central Daylight Time),726342.5,165_m_m_d_a.png,O,m,831,8,1,1835.2999999523163,724507.2000000477,7739,VNB,A,6
4,test,3,0.0,2-Back,1.0,m,Fri Mar 13 2026 10:07:59 GMT-0500 (Central Daylight Time),728308.5999999046,109_y_m_d_a.png,O,m,934,9,1,1952.2999999523163,726356.2999999523,7739,VNB,A,7
5,test,3,0.0,2-Back,1.0,m,Fri Mar 13 2026 10:07:59 GMT-0500 (Central Daylight Time),730874.399999857,124_o_f_h_a.png,O,m,1534,10,1,2552.399999856949,728322.0,7739,VNB,A,8
5,test,3,1.0,2-Back,0.0,m,Fri Mar 13 2026 10:07:59 GMT-0500 (Central Daylight Time),732790.5,139_m_f_n_a.png,O,z,890,11,1,1901.9000000953674,730888.5999999046,7739,VNB,A,9
5,test,3,1.0,2-Back,0.0,z,Fri Mar 13 2026 10:07:59 GMT-0500 (Central Daylight Time),735773.0999999046,165_m_m_h_a.png,O,m,1957,12,1,2968.2000000476837,732804.899999857,7739,VNB,A,10
5,test,3,0.0,2-Back,0.0,m,Fri Mar 13 2026 10:07:59 GMT-0500 (Central Daylight Time),737755.7000000477,071_y_f_d_a.png,O,z,943,13,1,1967.6000001430511,735788.0999999046,7739,VNB,A,11
6,test,3,0.0,2-Back,1.0,m,Fri Mar 13 2026 10:07:59 GMT-0500 (Central Daylight Time),740037.7999999523,124_o_f_n_a.png,O,m,1241,14,1,2267.9000000953674,737769.899999857,7739,VNB,A,12
6,test,3,0.0,2-Back,0.0,z,Fri Mar 13 2026 10:07:59 GMT-0500 (Central Daylight Time),741970.7000000477,039_o_m_d_a.png,O,m,910,15,1,1918.3000001907349,740052.399999857,7739,VNB,A,13
6,test,3,1.0,2-Back,0.0,m,Fri Mar 13 2026 10:07:59 GMT-0500 (Central Daylight Time),744038.0999999046,139_m_f_h_a.png,O,z,1034,16,1,2054.5,741983.5999999046,7739,VNB,A,14
7,test,3,0.0,2-Back,1.0,m,Fri Mar 13 2026 10:07:59 GMT-0500 (Central Daylight Time),746302.7999999523,165_m_m_n_a.png,O,m,1247,17,1,2251.7000000476837,744051.0999999046,7739,VNB,A,15
8,test,3,0.0,2-Back,1.0,z,Fri Mar 13 2026 10:07:59 GMT-0500 (Central Daylight Time),748352.0,109_y_m_h_a.png,O,z,1029,18,1,2035.2999999523163,746316.7000000477,7739,VNB,A,16
0,test,4,0.0,2-Back,,,Fri Mar 13 2026 10:07:59 GMT-0500 (Central Daylight Time),748352.0,139_m_f_n_a.png,O,space,1631,1,1,2035.2999999523163,746316.7000000477,7739,VNB,A,0
0,test,4,0.0,2-Back,,,Fri Mar 13 2026 10:07:59 GMT-0500 (Central Daylight Time),748352.0,039_o_m_n_a.png,O,space,1631,2,1,2035.2999999523163,746316.7000000477,7739,VNB,A,0
1,test,4,1.0,2-Back,1.0,m,Fri Mar 13 2026 10:07:59 GMT-0500 (Central Daylight Time),757331.7000000477,109_y_m_h_a.png,O,m,866,3,1,2219.0,755112.7000000477,7739,VNB,A,1
2,test,4,1.0,2-Back,1.0,m,Fri Mar 13 2026 10:07:59 GMT-0500 (Central Daylight Time),759350.0999999046,124_o_f_d_a.png,O,m,1000,4,1,2013.5999999046326,757336.5,7739,VNB,A,2
3,test,4,0.0,2-Back,1.0,z,Fri Mar 13 2026 10:07:59 GMT-0500 (Central Daylight Time),761514.5,039_o_m_h_a.png,O,z,1143,5,1,2157.100000143051,759357.399999857,7739,VNB,A,3
3,test,4,0.0,2-Back,0.0,m,Fri Mar 13 2026 10:07:59 GMT-0500 (Central Daylight Time),764546.2999999523,165_m_m_n_a.png,O,None,2015,6,1,3017.9000000953674,761528.399999857,7739,VNB,A,4
4,test,4,0.0,2-Back,1.0,m,Fri Mar 13 2026 10:07:59 GMT-0500 (Central Daylight Time),766546.0999999046,139_m_f_d_a.png,O,m,970,7,1,1995.2000000476837,764550.899999857,7739,VNB,A,5
5,test,4,0.0,2-Back,1.0,z,Fri Mar 13 2026 10:07:59 GMT-0500 (Central Daylight Time),769127.899999857,071_y_f_n_a.png,O,z,1535,8,1,2566.399999856949,766561.5,7739,VNB,A,6
5,test,4,1.0,2-Back,0.0,m,Fri Mar 13 2026 10:07:59 GMT-0500 (Central Daylight Time),771527.5999999046,124_o_f_h_a.png,O,z,1378,9,1,2393.399999856949,769134.2000000477,7739,VNB,A,7
6,test,4,0.0,2-Back,1.0,m,Fri Mar 13 2026 10:07:59 GMT-0500 (Central Daylight Time),774027.0999999046,165_m_m_h_a.png,O,m,1463,10,1,2486.0,771541.0999999046,7739,VNB,A,8
7,test,4,0.0,2-Back,1.0,m,Fri Mar 13 2026 10:07:59 GMT-0500 (Central Daylight Time),776192.5,071_y_f_d_a.png,O,m,1143,11,1,2152.4000000953674,774040.0999999046,7739,VNB,A,9
7,test,4,0.0,2-Back,0.0,m,Fri Mar 13 2026 10:07:59 GMT-0500 (Central Daylight Time),778792.0999999046,109_y_m_n_a.png,O,z,1571,12,1,2591.5999999046326,776200.5,7739,VNB,A,10
7,test,4,0.0,2-Back,0.0,z,Fri Mar 13 2026 10:07:59 GMT-0500 (Central Daylight Time),780808.2000000477,039_o_m_d_a.png,O,m,996,13,1,2002.5,778805.7000000477,7739,VNB,A,11
8,test,4,1.0,2-Back,1.0,m,Fri Mar 13 2026 10:07:59 GMT-0500 (Central Daylight Time),783024.0999999046,139_m_f_h_a.png,O,m,1187,14,1,2202.2999999523163,780821.7999999523,7739,VNB,A,12
8,test,4,1.0,2-Back,0.0,m,Fri Mar 13 2026 10:07:59 GMT-0500 (Central Daylight Time),785489.7000000477,071_y_f_h_a.png,O,z,1434,15,1,2451.4000000953674,783038.2999999523,7739,VNB,A,13
9,test,4,0.0,2-Back,1.0,m,Fri Mar 13 2026 10:07:59 GMT-0500 (Central Daylight Time),787739.2000000477,124_o_f_n_a.png,O,m,1218,16,1,2236.0,785503.2000000477,7739,VNB,A,14
10,test,4,0.0,2-Back,1.0,m,Fri Mar 13 2026 10:07:59 GMT-0500 (Central Daylight Time),790122.0999999046,109_y_m_d_a.png,O,m,1352,17,1,2370.0,787752.0999999046,7739,VNB,A,15
11,test,4,1.0,2-Back,1.0,m,Fri Mar 13 2026 10:07:59 GMT-0500 (Central Daylight Time),792504.2999999523,165_m_m_d_a.png,O,m,1354,18,1,2369.0,790135.2999999523,7739,VNB,A,16
0,test,5,1.0,2-Back,,,Fri Mar 13 2026 10:07:59 GMT-0500 (Central Daylight Time),792504.2999999523,071_y_f_d_a.png,O,space,1993,1,1,2369.0,790135.2999999523,7739,VNB,A,0
0,test,5,1.0,2-Back,,,Fri Mar 13 2026 10:07:59 GMT-0500 (Central Daylight Time),792504.2999999523,124_o_f_h_a.png,O,space,1993,2,1,2369.0,790135.2999999523,7739,VNB,A,0
0,test,5,1.0,2-Back,0.0,z,Fri Mar 13 2026 10:07:59 GMT-0500 (Central Daylight Time),802684.0,039_o_m_d_a.png,O,None,2016,3,1,3035.2999999523163,799648.7000000477,7739,VNB,A,1
1,test,5,1.0,2-Back,1.0,m,Fri Mar 13 2026 10:07:59 GMT-0500 (Central Daylight Time),805083.399999857,139_m_f_n_a.png,O,m,1374,4,1,2395.5,802687.899999857,7739,VNB,A,2
2,test,5,0.0,2-Back,1.0,m,Fri Mar 13 2026 10:07:59 GMT-0500 (Central Daylight Time),807399.5,165_m_m_h_a.png,O,m,1281,5,1,2301.2999999523163,805098.2000000477,7739,VNB,A,3
3,test,5,0.0,2-Back,1.0,z,Fri Mar 13 2026 10:07:59 GMT-0500 (Central Daylight Time),809848.7000000477,071_y_f_n_a.png,O,z,1421,6,1,2435.7000000476837,807413.0,7739,VNB,A,4
3,test,5,0.0,2-Back,0.0,m,Fri Mar 13 2026 10:07:59 GMT-0500 (Central Daylight Time),812780.2999999523,124_o_f_d_a.png,O,z,1907,7,1,2918.4000000953674,809861.899999857,7739,VNB,A,5
3,test,5,0.0,2-Back,0.0,m,Fri Mar 13 2026 10:07:59 GMT-0500 (Central Daylight Time),815813.5999999046,039_o_m_h_a.png,O,None,2016,8,1,3022.5,812791.0999999046,7739,VNB,A,6
4,test,5,1.0,2-Back,1.0,z,Fri Mar 13 2026 10:07:59 GMT-0500 (Central Daylight Time),818279.399999857,139_m_f_d_a.png,O,z,1438,9,1,2452.399999856949,815827.0,7739,VNB,A,7
5,test,5,0.0,2-Back,1.0,m,Fri Mar 13 2026 10:07:59 GMT-0500 (Central Daylight Time),820644.899999857,109_y_m_n_a.png,O,m,1341,10,1,2351.899999856949,818293.0,7739,VNB,A,8
6,test,5,0.0,2-Back,1.0,m,Fri Mar 13 2026 10:07:59 GMT-0500 (Central Daylight Time),823027.5999999046,165_m_m_n_a.png,O,m,1359,11,1,2368.7999999523163,820658.7999999523,7739,VNB,A,9
6,test,5,0.0,2-Back,0.0,m,Fri Mar 13 2026 10:07:59 GMT-0500 (Central Daylight Time),824976.899999857,071_y_f_h_a.png,O,z,928,12,1,1934.7999999523163,823042.0999999046,7739,VNB,A,10
7,test,5,0.0,2-Back,1.0,m,Fri Mar 13 2026 10:07:59 GMT-0500 (Central Daylight Time),827676.2000000477,109_y_m_d_a.png,O,m,1667,13,1,2684.9000000953674,824991.2999999523,7739,VNB,A,11
8,test,5,1.0,2-Back,1.0,z,Fri Mar 13 2026 10:07:59 GMT-0500 (Central Daylight Time),830391.899999857,139_m_f_h_a.png,O,z,1695,14,1,2702.399999856949,827689.5,7739,VNB,A,12
9,test,5,0.0,2-Back,1.0,m,Fri Mar 13 2026 10:07:59 GMT-0500 (Central Daylight Time),832340.5999999046,039_o_m_n_a.png,O,m,923,15,1,1939.7999999523163,830400.7999999523,7739,VNB,A,13
10,test,5,0.0,2-Back,1.0,m,Fri Mar 13 2026 10:07:59 GMT-0500 (Central Daylight Time),834623.7999999523,165_m_m_d_a.png,O,m,1263,16,1,2275.2999999523163,832348.5,7739,VNB,A,14
11,test,5,0.0,2-Back,1.0,z,Fri Mar 13 2026 10:07:59 GMT-0500 (Central Daylight Time),837056.2999999523,124_o_f_n_a.png,O,z,1412,17,1,2419.7999999523163,834636.5,7739,VNB,A,15
12,test,5,1.0,2-Back,1.0,m,Fri Mar 13 2026 10:07:59 GMT-0500 (Central Daylight Time),839189.5999999046,109_y_m_h_a.png,O,m,1117,18,1,2120.0,837069.5999999046,7739,VNB,A,16
