acc_sum,block,block_c,change,condition,correct,correct_response,datetime,endtime,face,project,response,response_time,row_sel,session_number,start_end,starttime,subject_id,task,task_vers,trial
0,prac,1,,1-Back,,,Tue Sep 02 2025 10:08:11 GMT-0500 (Central Daylight Time),,005_o_f_d_a.png,O,space,3974,1,1,,,7207,VNB,B,0
1,prac,1,0.0,1-Back,1,m,Tue Sep 02 2025 10:08:11 GMT-0500 (Central Daylight Time),169470.70000004768,020_y_f_n_a.png,O,m,1621,2,1,2460.0,167010.70000004768,7207,VNB,B,1
2,prac,1,0.0,1-Back,1,m,Tue Sep 02 2025 10:08:11 GMT-0500 (Central Daylight Time),171771.20000004768,007_m_m_h_a.png,O,m,1441,3,1,2293.5999999046326,169477.60000014305,7207,VNB,B,2
3,prac,1,0.0,1-Back,1,m,Tue Sep 02 2025 10:08:11 GMT-0500 (Central Daylight Time),173902.70000004768,016_y_m_d_a.png,O,m,1250,4,1,2124.2000000476837,171778.5,7207,VNB,B,3
4,prac,1,0.0,1-Back,1,m,Tue Sep 02 2025 10:08:11 GMT-0500 (Central Daylight Time),176317.60000014305,005_o_f_n_a.png,O,m,1560,5,1,2408.9000000953674,173908.70000004768,7207,VNB,B,4
5,prac,1,1.0,1-Back,1,z,Tue Sep 02 2025 10:08:11 GMT-0500 (Central Daylight Time),178333.29999995232,016_y_m_n_a.png,O,z,1145,6,1,2006.7999999523163,176326.5,7207,VNB,B,5
6,prac,1,0.0,1-Back,1,m,Tue Sep 02 2025 10:08:11 GMT-0500 (Central Daylight Time),180283.60000014305,004_o_m_h_a.png,O,m,1111,7,1,1944.5,178339.10000014305,7207,VNB,B,6
6,prac,1,0.0,1-Back,0,m,Tue Sep 02 2025 10:08:11 GMT-0500 (Central Daylight Time),182281.90000009537,011_m_f_d_a.png,O,z,1139,8,1,1991.2999999523163,180290.60000014305,7207,VNB,B,7
6,prac,1,1.0,1-Back,0,z,Tue Sep 02 2025 10:08:11 GMT-0500 (Central Daylight Time),184331.79999995232,020_y_f_d_a.png,O,m,1194,9,1,2040.1999998092651,182291.60000014305,7207,VNB,B,8
6,prac,1,0.0,1-Back,0,m,Tue Sep 02 2025 10:08:11 GMT-0500 (Central Daylight Time),187181.70000004768,007_m_m_n_a.png,O,None,2005,10,1,2844.2999999523163,184337.40000009537,7207,VNB,B,9
7,prac,1,0.0,1-Back,1,m,Tue Sep 02 2025 10:08:11 GMT-0500 (Central Daylight Time),189529.90000009537,005_o_f_h_a.png,O,m,1474,11,1,2337.2999999523163,187192.60000014305,7207,VNB,B,10
8,prac,1,0.0,1-Back,1,m,Tue Sep 02 2025 10:08:11 GMT-0500 (Central Daylight Time),192012.5,016_y_m_d_a.png,O,m,1613,12,1,2475.5999999046326,189536.90000009537,7207,VNB,B,11
0,test,1,0.0,1-Back,,,Tue Sep 02 2025 10:08:11 GMT-0500 (Central Daylight Time),192012.5,020_y_f_d_a.png,O,space,3309,1,1,2475.5999999046326,189536.90000009537,7207,VNB,B,0
0,test,1,0.0,1-Back,0,m,Tue Sep 02 2025 10:08:11 GMT-0500 (Central Daylight Time),204875.10000014305,011_m_f_n_a.png,O,None,2015,2,1,3027.5,201847.60000014305,7207,VNB,B,1
1,test,1,0.0,1-Back,1,m,Tue Sep 02 2025 10:08:11 GMT-0500 (Central Daylight Time),207073.40000009537,004_o_m_h_a.png,O,m,1177,3,1,2193.0,204880.40000009537,7207,VNB,B,2
2,test,1,1.0,1-Back,1,z,Tue Sep 02 2025 10:08:11 GMT-0500 (Central Daylight Time),209523.20000004768,007_m_m_h_a.png,O,z,1426,4,1,2446.7999999523163,207076.40000009537,7207,VNB,B,3
3,test,1,0.0,1-Back,1,m,Tue Sep 02 2025 10:08:11 GMT-0500 (Central Daylight Time),211690.20000004768,005_o_f_n_a.png,O,m,1136,5,1,2163.5999999046326,209526.60000014305,7207,VNB,B,4
4,test,1,0.0,1-Back,1,m,Tue Sep 02 2025 10:08:11 GMT-0500 (Central Daylight Time),213922.5,016_y_m_d_a.png,O,m,1202,6,1,2229.399999856949,211693.10000014305,7207,VNB,B,5
5,test,1,1.0,1-Back,1,z,Tue Sep 02 2025 10:08:11 GMT-0500 (Central Daylight Time),215939.20000004768,011_m_f_d_a.png,O,z,995,7,1,2013.2000000476837,213926.0,7207,VNB,B,6
6,test,1,0.0,1-Back,1,m,Tue Sep 02 2025 10:08:11 GMT-0500 (Central Daylight Time),217804.79999995232,020_y_f_h_a.png,O,m,842,8,1,1862.6999998092651,215942.10000014305,7207,VNB,B,7
7,test,1,0.0,1-Back,1,m,Tue Sep 02 2025 10:08:11 GMT-0500 (Central Daylight Time),220236.70000004768,004_o_m_n_a.png,O,m,1401,9,1,2427.5999999046326,217809.10000014305,7207,VNB,B,8
8,test,1,0.0,1-Back,1,m,Tue Sep 02 2025 10:08:11 GMT-0500 (Central Daylight Time),222219.90000009537,016_y_m_h_a.png,O,m,959,10,1,1979.4000000953674,220240.5,7207,VNB,B,9
9,test,1,0.0,1-Back,1,m,Tue Sep 02 2025 10:08:11 GMT-0500 (Central Daylight Time),224186.10000014305,004_o_m_d_a.png,O,m,937,11,1,1962.6000001430511,222223.5,7207,VNB,B,10
10,test,1,1.0,1-Back,1,z,Tue Sep 02 2025 10:08:11 GMT-0500 (Central Daylight Time),226501.90000009537,005_o_f_d_a.png,O,z,1290,12,1,2308.2999999523163,224193.60000014305,7207,VNB,B,11
11,test,1,0.0,1-Back,1,m,Tue Sep 02 2025 10:08:11 GMT-0500 (Central Daylight Time),228667.0,007_m_m_n_a.png,O,m,1143,13,1,2160.5999999046326,226506.40000009537,7207,VNB,B,12
12,test,1,1.0,1-Back,1,z,Tue Sep 02 2025 10:08:11 GMT-0500 (Central Daylight Time),231150.20000004768,020_y_f_n_a.png,O,z,1465,14,1,2480.5999999046326,228669.60000014305,7207,VNB,B,13
13,test,1,0.0,1-Back,1,m,Tue Sep 02 2025 10:08:11 GMT-0500 (Central Daylight Time),233449.60000014305,011_m_f_h_a.png,O,m,1279,15,1,2296.2000000476837,231153.40000009537,7207,VNB,B,14
14,test,1,0.0,1-Back,1,m,Tue Sep 02 2025 10:08:11 GMT-0500 (Central Daylight Time),235882.29999995232,007_m_m_d_a.png,O,m,1403,16,1,2427.7999999523163,233454.5,7207,VNB,B,15
15,test,1,0.0,1-Back,1,m,Tue Sep 02 2025 10:08:11 GMT-0500 (Central Daylight Time),237881.10000014305,016_y_m_n_a.png,O,m,970,17,1,1994.7000000476837,235886.40000009537,7207,VNB,B,16
16,test,1,0.0,1-Back,1,m,Tue Sep 02 2025 10:08:11 GMT-0500 (Central Daylight Time),239897.79999995232,005_o_f_h_a.png,O,m,996,18,1,2012.5,237885.29999995232,7207,VNB,B,17
0,test,2,0.0,1-Back,,,Tue Sep 02 2025 10:08:11 GMT-0500 (Central Daylight Time),239897.79999995232,016_y_m_n_a.png,O,space,1363,1,1,2012.5,237885.29999995232,7207,VNB,B,0
1,test,2,0.0,1-Back,1,m,Tue Sep 02 2025 10:08:11 GMT-0500 (Central Daylight Time),245146.0,020_y_f_h_a.png,O,m,845,2,1,1857.0999999046326,243288.90000009537,7207,VNB,B,1
2,test,2,1.0,1-Back,1,m,Tue Sep 02 2025 10:08:11 GMT-0500 (Central Daylight Time),246928.79999995232,004_o_m_n_a.png,O,m,763,3,1,1779.5,245149.29999995232,7207,VNB,B,2
3,test,2,0.0,1-Back,1,m,Tue Sep 02 2025 10:08:11 GMT-0500 (Central Daylight Time),249026.29999995232,011_m_f_d_a.png,O,m,1066,4,1,2094.5,246931.79999995232,7207,VNB,B,3
4,test,2,0.0,1-Back,1,z,Tue Sep 02 2025 10:08:11 GMT-0500 (Central Daylight Time),250943.20000004768,007_m_m_d_a.png,O,z,897,5,1,1913.4000000953674,249029.79999995232,7207,VNB,B,4
5,test,2,0.0,1-Back,1,m,Tue Sep 02 2025 10:08:11 GMT-0500 (Central Daylight Time),252677.0,016_y_m_h_a.png,O,m,700,6,1,1730.2999999523163,250946.70000004768,7207,VNB,B,5
6,test,2,1.0,1-Back,1,z,Tue Sep 02 2025 10:08:11 GMT-0500 (Central Daylight Time),254575.60000014305,005_o_f_h_a.png,O,z,871,7,1,1895.6000001430511,252680.0,7207,VNB,B,6
7,test,2,0.0,1-Back,1,m,Tue Sep 02 2025 10:08:11 GMT-0500 (Central Daylight Time),256408.5,011_m_f_n_a.png,O,m,811,8,1,1829.0,254579.5,7207,VNB,B,7
8,test,2,0.0,1-Back,1,m,Tue Sep 02 2025 10:08:11 GMT-0500 (Central Daylight Time),258807.90000009537,020_y_f_d_a.png,O,m,1371,9,1,2395.9000000953674,256412.0,7207,VNB,B,8
9,test,2,0.0,1-Back,1,m,Tue Sep 02 2025 10:08:11 GMT-0500 (Central Daylight Time),260690.29999995232,007_m_m_n_a.png,O,m,860,10,1,1879.5,258810.79999995232,7207,VNB,B,9
10,test,2,1.0,1-Back,1,m,Tue Sep 02 2025 10:08:11 GMT-0500 (Central Daylight Time),263140.2000000477,011_m_f_h_a.png,O,m,1418,11,1,2446.2000000476837,260694.0,7207,VNB,B,10
11,test,2,0.0,1-Back,1,z,Tue Sep 02 2025 10:08:11 GMT-0500 (Central Daylight Time),265340.10000014305,004_o_m_h_a.png,O,z,1176,12,1,2195.300000190735,263144.7999999523,7207,VNB,B,11
12,test,2,0.0,1-Back,1,m,Tue Sep 02 2025 10:08:11 GMT-0500 (Central Daylight Time),267939.60000014305,016_y_m_d_a.png,O,m,1568,13,1,2593.7000000476837,265345.90000009537,7207,VNB,B,12
13,test,2,0.0,1-Back,1,m,Tue Sep 02 2025 10:08:11 GMT-0500 (Central Daylight Time),269921.0,005_o_f_n_a.png,O,m,953,14,1,1978.0,267943.0,7207,VNB,B,13
14,test,2,0.0,1-Back,1,z,Tue Sep 02 2025 10:08:11 GMT-0500 (Central Daylight Time),272020.7999999523,020_y_f_n_a.png,O,z,1075,15,1,2095.2999999523163,269925.5,7207,VNB,B,14
15,test,2,1.0,1-Back,1,m,Tue Sep 02 2025 10:08:11 GMT-0500 (Central Daylight Time),274068.90000009537,007_m_m_h_a.png,O,m,1024,16,1,2045.0,272023.90000009537,7207,VNB,B,15
16,test,2,0.0,1-Back,1,m,Tue Sep 02 2025 10:08:11 GMT-0500 (Central Daylight Time),276452.10000014305,005_o_f_d_a.png,O,m,1358,17,1,2379.600000143051,274072.5,7207,VNB,B,16
17,test,2,1.0,1-Back,1,z,Tue Sep 02 2025 10:08:11 GMT-0500 (Central Daylight Time),278551.40000009537,004_o_m_d_a.png,O,z,1071,18,1,2093.600000143051,276457.7999999523,7207,VNB,B,17
0,test,3,1.0,1-Back,,,Tue Sep 02 2025 10:08:11 GMT-0500 (Central Daylight Time),278551.40000009537,005_o_f_h_a.png,O,space,1180,1,1,2093.600000143051,276457.7999999523,7207,VNB,B,0
1,test,3,0.0,1-Back,1,m,Tue Sep 02 2025 10:08:11 GMT-0500 (Central Daylight Time),283634.0,011_m_f_d_a.png,O,m,795,2,1,1814.2999999523163,281819.7000000477,7207,VNB,B,1
2,test,3,1.0,1-Back,1,m,Tue Sep 02 2025 10:08:11 GMT-0500 (Central Daylight Time),285632.7000000477,007_m_m_n_a.png,O,m,979,3,1,1994.2000000476837,283638.5,7207,VNB,B,2
3,test,3,0.0,1-Back,1,z,Tue Sep 02 2025 10:08:11 GMT-0500 (Central Daylight Time),287765.90000009537,005_o_f_n_a.png,O,z,1107,4,1,2129.7000000476837,285636.2000000477,7207,VNB,B,3
4,test,3,1.0,1-Back,1,m,Tue Sep 02 2025 10:08:11 GMT-0500 (Central Daylight Time),289881.2999999523,004_o_m_d_a.png,O,m,1095,5,1,2111.0,287770.2999999523,7207,VNB,B,4
5,test,3,0.0,1-Back,1,m,Tue Sep 02 2025 10:08:11 GMT-0500 (Central Daylight Time),291747.2000000477,020_y_f_h_a.png,O,m,836,6,1,1863.0999999046326,289884.10000014305,7207,VNB,B,5
6,test,3,0.0,1-Back,1,z,Tue Sep 02 2025 10:08:11 GMT-0500 (Central Daylight Time),293613.90000009537,016_y_m_h_a.png,O,z,840,7,1,1862.2000000476837,291751.7000000477,7207,VNB,B,6
7,test,3,0.0,1-Back,1,m,Tue Sep 02 2025 10:08:11 GMT-0500 (Central Daylight Time),295612.2999999523,011_m_f_n_a.png,O,m,971,8,1,1994.1999998092651,293618.10000014305,7207,VNB,B,7
8,test,3,0.0,1-Back,1,m,Tue Sep 02 2025 10:08:11 GMT-0500 (Central Daylight Time),298212.0,020_y_f_d_a.png,O,m,1574,9,1,2597.0999999046326,295614.90000009537,7207,VNB,B,8
9,test,3,1.0,1-Back,1,m,Tue Sep 02 2025 10:08:11 GMT-0500 (Central Daylight Time),300678.60000014305,004_o_m_n_a.png,O,m,1440,10,1,2463.2000000476837,298215.40000009537,7207,VNB,B,9
9,test,3,0.0,1-Back,0,m,Tue Sep 02 2025 10:08:11 GMT-0500 (Central Daylight Time),303709.40000009537,007_m_m_h_a.png,O,None,2014,11,1,3026.4000000953674,300683.0,7207,VNB,B,10
10,test,3,0.0,1-Back,1,z,Tue Sep 02 2025 10:08:11 GMT-0500 (Central Daylight Time),305393.40000009537,011_m_f_h_a.png,O,z,653,12,1,1679.7000000476837,303713.7000000477,7207,VNB,B,11
11,test,3,1.0,1-Back,1,m,Tue Sep 02 2025 10:08:11 GMT-0500 (Central Daylight Time),307175.90000009537,005_o_f_d_a.png,O,m,754,13,1,1778.7999999523163,305397.10000014305,7207,VNB,B,12
12,test,3,0.0,1-Back,1,z,Tue Sep 02 2025 10:08:11 GMT-0500 (Central Daylight Time),308958.2000000477,007_m_m_d_a.png,O,z,766,14,1,1777.2999999523163,307180.90000009537,7207,VNB,B,13
13,test,3,0.0,1-Back,1,m,Tue Sep 02 2025 10:08:11 GMT-0500 (Central Daylight Time),311092.0,016_y_m_n_a.png,O,m,1101,15,1,2130.7000000476837,308961.2999999523,7207,VNB,B,14
14,test,3,1.0,1-Back,1,m,Tue Sep 02 2025 10:08:11 GMT-0500 (Central Daylight Time),312891.10000014305,004_o_m_h_a.png,O,m,777,16,1,1795.5,311095.60000014305,7207,VNB,B,15
15,test,3,0.0,1-Back,1,m,Tue Sep 02 2025 10:08:11 GMT-0500 (Central Daylight Time),314790.10000014305,016_y_m_d_a.png,O,m,873,17,1,1895.1000001430511,312895.0,7207,VNB,B,16
16,test,3,1.0,1-Back,1,m,Tue Sep 02 2025 10:08:11 GMT-0500 (Central Daylight Time),316823.10000014305,020_y_f_n_a.png,O,m,1014,18,1,2028.9000000953674,314794.2000000477,7207,VNB,B,17
0,test,4,1.0,1-Back,,,Tue Sep 02 2025 10:08:11 GMT-0500 (Central Daylight Time),316823.10000014305,007_m_m_d_a.png,O,space,981,1,1,2028.9000000953674,314794.2000000477,7207,VNB,B,0
1,test,4,0.0,1-Back,1,z,Tue Sep 02 2025 10:08:11 GMT-0500 (Central Daylight Time),321588.2999999523,004_o_m_d_a.png,O,z,742,2,1,1762.8999998569489,319825.40000009537,7207,VNB,B,1
2,test,4,0.0,1-Back,1,m,Tue Sep 02 2025 10:08:11 GMT-0500 (Central Daylight Time),323320.7999999523,016_y_m_h_a.png,O,m,703,3,1,1728.5,321592.2999999523,7207,VNB,B,2
3,test,4,0.0,1-Back,1,m,Tue Sep 02 2025 10:08:11 GMT-0500 (Central Daylight Time),325053.7000000477,011_m_f_n_a.png,O,m,700,4,1,1729.5,323324.2000000477,7207,VNB,B,3
3,test,4,1.0,1-Back,0,m,Tue Sep 02 2025 10:08:11 GMT-0500 (Central Daylight Time),328086.2000000477,005_o_f_h_a.png,O,None,2016,5,1,3028.7999999523163,325057.40000009537,7207,VNB,B,4
3,test,4,0.0,1-Back,0,m,Tue Sep 02 2025 10:08:11 GMT-0500 (Central Daylight Time),330351.2999999523,007_m_m_n_a.png,O,z,1247,6,1,2260.5999999046326,328090.7000000477,7207,VNB,B,5
4,test,4,0.0,1-Back,1,m,Tue Sep 02 2025 10:08:11 GMT-0500 (Central Daylight Time),331986.10000014305,016_y_m_d_a.png,O,m,604,7,1,1631.7000000476837,330354.40000009537,7207,VNB,B,6
5,test,4,1.0,1-Back,1,z,Tue Sep 02 2025 10:08:11 GMT-0500 (Central Daylight Time),333800.7999999523,020_y_f_d_a.png,O,z,785,8,1,1810.0999999046326,331990.7000000477,7207,VNB,B,7
6,test,4,0.0,1-Back,1,m,Tue Sep 02 2025 10:08:11 GMT-0500 (Central Daylight Time),335533.2999999523,011_m_f_h_a.png,O,m,715,9,1,1728.6999998092651,333804.60000014305,7207,VNB,B,8
6,test,4,0.0,1-Back,0,z,Tue Sep 02 2025 10:08:11 GMT-0500 (Central Daylight Time),337266.10000014305,004_o_m_h_a.png,O,m,702,10,1,1726.5,335539.60000014305,7207,VNB,B,9
7,test,4,1.0,1-Back,1,m,Tue Sep 02 2025 10:08:11 GMT-0500 (Central Daylight Time),339283.5,005_o_f_n_a.png,O,m,986,11,1,2011.5999999046326,337271.90000009537,7207,VNB,B,10
8,test,4,0.0,1-Back,1,m,Tue Sep 02 2025 10:08:11 GMT-0500 (Central Daylight Time),341698.2000000477,011_m_f_d_a.png,O,m,1394,12,1,2410.2000000476837,339288.0,7207,VNB,B,11
8,test,4,0.0,1-Back,0,m,Tue Sep 02 2025 10:08:11 GMT-0500 (Central Daylight Time),343780.10000014305,020_y_f_n_a.png,O,z,1049,13,1,2077.2000000476837,341702.90000009537,7207,VNB,B,12
9,test,4,0.0,1-Back,1,m,Tue Sep 02 2025 10:08:11 GMT-0500 (Central Daylight Time),346280.10000014305,005_o_f_d_a.png,O,m,1479,14,1,2496.4000000953674,343783.7000000477,7207,VNB,B,13
10,test,4,0.0,1-Back,1,m,Tue Sep 02 2025 10:08:11 GMT-0500 (Central Daylight Time),348195.7000000477,020_y_f_h_a.png,O,m,892,15,1,1910.5999999046326,346285.10000014305,7207,VNB,B,14
11,test,4,1.0,1-Back,1,z,Tue Sep 02 2025 10:08:11 GMT-0500 (Central Daylight Time),349829.5,007_m_m_h_a.png,O,z,601,16,1,1630.5,348199.0,7207,VNB,B,15
12,test,4,0.0,1-Back,1,m,Tue Sep 02 2025 10:08:11 GMT-0500 (Central Daylight Time),351628.40000009537,004_o_m_n_a.png,O,m,775,17,1,1795.5,349832.90000009537,7207,VNB,B,16
13,test,4,1.0,1-Back,1,z,Tue Sep 02 2025 10:08:11 GMT-0500 (Central Daylight Time),353477.7000000477,016_y_m_n_a.png,O,z,833,18,1,1845.7000000476837,351632.0,7207,VNB,B,17
0,test,5,1.0,1-Back,,,Tue Sep 02 2025 10:08:11 GMT-0500 (Central Daylight Time),353477.7000000477,004_o_m_n_a.png,O,space,1127,1,1,1845.7000000476837,351632.0,7207,VNB,B,0
1,test,5,1.0,1-Back,1,m,Tue Sep 02 2025 10:08:11 GMT-0500 (Central Daylight Time),358709.2000000477,005_o_f_h_a.png,O,m,1048,2,1,2075.9000000953674,356633.2999999523,7207,VNB,B,1
1,test,5,0.0,1-Back,0,m,Tue Sep 02 2025 10:08:11 GMT-0500 (Central Daylight Time),360676.90000009537,016_y_m_d_a.png,O,z,935,3,1,1964.4000000953674,358712.5,7207,VNB,B,2
2,test,5,0.0,1-Back,1,z,Tue Sep 02 2025 10:08:11 GMT-0500 (Central Daylight Time),362691.7000000477,004_o_m_d_a.png,O,z,993,4,1,2012.0999999046326,360679.60000014305,7207,VNB,B,3
3,test,5,0.0,1-Back,1,m,Tue Sep 02 2025 10:08:11 GMT-0500 (Central Daylight Time),364723.90000009537,011_m_f_h_a.png,O,m,1008,5,1,2029.1000001430511,362694.7999999523,7207,VNB,B,4
4,test,5,0.0,1-Back,1,m,Tue Sep 02 2025 10:08:11 GMT-0500 (Central Daylight Time),366307.60000014305,020_y_f_n_a.png,O,m,560,6,1,1580.6000001430511,364727.0,7207,VNB,B,5
5,test,5,1.0,1-Back,1,z,Tue Sep 02 2025 10:08:11 GMT-0500 (Central Daylight Time),368205.7999999523,005_o_f_n_a.png,O,z,872,7,1,1895.2999999523163,366310.5,7207,VNB,B,6
6,test,5,0.0,1-Back,1,m,Tue Sep 02 2025 10:08:11 GMT-0500 (Central Daylight Time),370622.7000000477,011_m_f_d_a.png,O,m,1400,8,1,2410.2000000476837,368212.5,7207,VNB,B,7
7,test,5,0.0,1-Back,1,m,Tue Sep 02 2025 10:08:11 GMT-0500 (Central Daylight Time),372421.7999999523,016_y_m_h_a.png,O,m,774,9,1,1793.0999999046326,370628.7000000477,7207,VNB,B,8
8,test,5,0.0,1-Back,1,m,Tue Sep 02 2025 10:08:11 GMT-0500 (Central Daylight Time),375103.40000009537,020_y_f_d_a.png,O,m,1662,10,1,2678.9000000953674,372424.5,7207,VNB,B,9
9,test,5,0.0,1-Back,1,m,Tue Sep 02 2025 10:08:11 GMT-0500 (Central Daylight Time),376937.60000014305,007_m_m_n_a.png,O,m,805,11,1,1831.3000001907349,375106.2999999523,7207,VNB,B,10
10,test,5,1.0,1-Back,1,z,Tue Sep 02 2025 10:08:11 GMT-0500 (Central Daylight Time),378953.2999999523,011_m_f_n_a.png,O,z,995,12,1,2011.5,376941.7999999523,7207,VNB,B,11
11,test,5,0.0,1-Back,1,m,Tue Sep 02 2025 10:08:11 GMT-0500 (Central Daylight Time),380586.40000009537,004_o_m_h_a.png,O,m,602,13,1,1630.2000000476837,378956.2000000477,7207,VNB,B,12
12,test,5,0.0,1-Back,1,z,Tue Sep 02 2025 10:08:11 GMT-0500 (Central Daylight Time),382352.7000000477,007_m_m_h_a.png,O,z,739,14,1,1760.7000000476837,380592.0,7207,VNB,B,13
13,test,5,1.0,1-Back,1,m,Tue Sep 02 2025 10:08:11 GMT-0500 (Central Daylight Time),384168.10000014305,005_o_f_d_a.png,O,m,788,15,1,1812.1000001430511,382356.0,7207,VNB,B,14
14,test,5,0.0,1-Back,1,m,Tue Sep 02 2025 10:08:11 GMT-0500 (Central Daylight Time),386350.0,016_y_m_n_a.png,O,m,1156,16,1,2178.0,384172.0,7207,VNB,B,15
15,test,5,0.0,1-Back,1,m,Tue Sep 02 2025 10:08:11 GMT-0500 (Central Daylight Time),388349.7999999523,020_y_f_h_a.png,O,m,967,17,1,1996.7999999523163,386353.0,7207,VNB,B,16
16,test,5,0.0,1-Back,1,m,Tue Sep 02 2025 10:08:11 GMT-0500 (Central Daylight Time),390017.7999999523,007_m_m_d_a.png,O,m,637,18,1,1663.7999999523163,388354.0,7207,VNB,B,17
0,prac,1,0.0,2-Back,,,Tue Sep 02 2025 10:08:11 GMT-0500 (Central Daylight Time),390017.7999999523,011_m_f_n_a.png,O,space,3695,1,1,1663.7999999523163,388354.0,7207,VNB,B,0
0,prac,1,0.0,2-Back,,,Tue Sep 02 2025 10:08:11 GMT-0500 (Central Daylight Time),390017.7999999523,005_o_f_h_a.png,O,space,3695,2,1,1663.7999999523163,388354.0,7207,VNB,B,0
1,prac,1,0.0,2-Back,1,m,Tue Sep 02 2025 10:08:11 GMT-0500 (Central Daylight Time),486668.5,004_o_m_d_a.png,O,m,1567,3,1,2410.2000000476837,484258.2999999523,7207,VNB,B,1
1,prac,1,1.0,2-Back,0,z,Tue Sep 02 2025 10:08:11 GMT-0500 (Central Daylight Time),489534.0,007_m_m_h_a.png,O,None,2001,4,1,2861.2000000476837,486672.7999999523,7207,VNB,B,2
1,prac,1,0.0,2-Back,0,m,Tue Sep 02 2025 10:08:11 GMT-0500 (Central Daylight Time),492383.60000014305,020_y_f_n_a.png,O,None,2008,5,1,2845.0,489538.60000014305,7207,VNB,B,3
1,prac,1,1.0,2-Back,0,z,Tue Sep 02 2025 10:08:11 GMT-0500 (Central Daylight Time),495215.7999999523,004_o_m_h_a.png,O,None,2009,6,1,2828.0999999046326,492387.7000000477,7207,VNB,B,4
1,prac,1,1.0,2-Back,0,z,Tue Sep 02 2025 10:08:11 GMT-0500 (Central Daylight Time),498081.60000014305,016_y_m_n_a.png,O,None,2011,7,1,2862.0,495219.60000014305,7207,VNB,B,5
1,prac,1,0.0,2-Back,0,m,Tue Sep 02 2025 10:08:11 GMT-0500 (Central Daylight Time),500947.7999999523,011_m_f_d_a.png,O,None,2016,8,1,2861.899999856949,498085.90000009537,7207,VNB,B,6
1,prac,1,0.0,2-Back,0,m,Tue Sep 02 2025 10:08:11 GMT-0500 (Central Daylight Time),503798.0,005_o_f_d_a.png,O,None,2012,9,1,2843.7999999523163,500954.2000000477,7207,VNB,B,7
2,prac,1,0.0,2-Back,1,m,Tue Sep 02 2025 10:08:11 GMT-0500 (Central Daylight Time),505729.10000014305,007_m_m_h_a.png,O,m,1142,10,1,1923.3000001907349,503805.7999999523,7207,VNB,B,8
3,prac,1,1.0,2-Back,1,z,Tue Sep 02 2025 10:08:11 GMT-0500 (Central Daylight Time),507779.2000000477,020_y_f_d_a.png,O,z,1189,11,1,2043.9000000953674,505735.2999999523,7207,VNB,B,9
4,prac,1,0.0,2-Back,1,m,Tue Sep 02 2025 10:08:11 GMT-0500 (Central Daylight Time),510094.2999999523,004_o_m_n_a.png,O,m,1474,12,1,2310.5,507783.7999999523,7207,VNB,B,10
0,prac,2,0.0,2-Back,,,Tue Sep 02 2025 10:08:11 GMT-0500 (Central Daylight Time),510094.2999999523,011_m_f_n_a.png,O,a,6636,1,1,2310.5,507783.7999999523,7207,VNB,B,0
0,prac,2,0.0,2-Back,,,Tue Sep 02 2025 10:08:11 GMT-0500 (Central Daylight Time),510094.2999999523,005_o_f_h_a.png,O,a,6636,2,1,2310.5,507783.7999999523,7207,VNB,B,0
1,prac,2,0.0,2-Back,1,m,Tue Sep 02 2025 10:08:11 GMT-0500 (Central Daylight Time),524140.40000009537,004_o_m_d_a.png,O,m,1364,3,1,2212.100000143051,521928.2999999523,7207,VNB,B,1
2,prac,2,1.0,2-Back,1,z,Tue Sep 02 2025 10:08:11 GMT-0500 (Central Daylight Time),526773.0,007_m_m_h_a.png,O,z,1845,4,1,2627.899999856949,524145.10000014305,7207,VNB,B,2
3,prac,2,0.0,2-Back,1,m,Tue Sep 02 2025 10:08:11 GMT-0500 (Central Daylight Time),529488.2000000477,020_y_f_n_a.png,O,m,1869,5,1,2709.5999999046326,526778.600000143,7207,VNB,B,3
3,prac,2,1.0,2-Back,0,z,Tue Sep 02 2025 10:08:11 GMT-0500 (Central Daylight Time),532337.0,004_o_m_h_a.png,O,None,2011,6,1,2844.5999999046326,529492.4000000954,7207,VNB,B,4
3,prac,2,1.0,2-Back,0,z,Tue Sep 02 2025 10:08:11 GMT-0500 (Central Daylight Time),535202.7999999523,016_y_m_n_a.png,O,None,2006,7,1,2860.7999999523163,532342.0,7207,VNB,B,5
3,prac,2,0.0,2-Back,0,m,Tue Sep 02 2025 10:08:11 GMT-0500 (Central Daylight Time),537102.5,011_m_f_d_a.png,O,z,1045,8,1,1894.2000000476837,535208.2999999523,7207,VNB,B,6
4,prac,2,0.0,2-Back,1,m,Tue Sep 02 2025 10:08:11 GMT-0500 (Central Daylight Time),539268.4000000954,005_o_f_d_a.png,O,m,1293,9,1,2155.9000000953674,537112.5,7207,VNB,B,7
4,prac,2,0.0,2-Back,0,m,Tue Sep 02 2025 10:08:11 GMT-0500 (Central Daylight Time),541151.0,007_m_m_h_a.png,O,z,1099,10,1,1878.2999999523163,539272.7000000477,7207,VNB,B,8
5,prac,2,1.0,2-Back,1,z,Tue Sep 02 2025 10:08:11 GMT-0500 (Central Daylight Time),543216.2999999523,020_y_f_d_a.png,O,z,1208,11,1,2059.399999856949,541156.9000000954,7207,VNB,B,9
6,prac,2,0.0,2-Back,1,m,Tue Sep 02 2025 10:08:11 GMT-0500 (Central Daylight Time),545832.7999999523,004_o_m_n_a.png,O,m,1768,12,1,2611.899999856949,543220.9000000954,7207,VNB,B,10
0,test,1,0.0,2-Back,,,Tue Sep 02 2025 10:08:11 GMT-0500 (Central Daylight Time),545832.7999999523,016_y_m_h_a.png,O,space,27260,1,1,2611.899999856949,543220.9000000954,7207,VNB,B,0
0,test,1,0.0,2-Back,,,Tue Sep 02 2025 10:08:11 GMT-0500 (Central Daylight Time),545832.7999999523,005_o_f_n_a.png,O,space,27260,2,1,2611.899999856949,543220.9000000954,7207,VNB,B,0
1,test,1,0.0,2-Back,1,z,Tue Sep 02 2025 10:08:11 GMT-0500 (Central Daylight Time),585170.2999999523,004_o_m_h_a.png,O,z,994,3,1,2011.7999999523163,583158.5,7207,VNB,B,1
1,test,1,0.0,2-Back,0,m,Tue Sep 02 2025 10:08:11 GMT-0500 (Central Daylight Time),588202.7999999523,011_m_f_d_a.png,O,None,2015,4,1,3028.5999999046326,585174.2000000477,7207,VNB,B,2
1,test,1,1.0,2-Back,0,m,Tue Sep 02 2025 10:08:11 GMT-0500 (Central Daylight Time),590385.600000143,016_y_m_n_a.png,O,z,1154,5,1,2179.2000000476837,588206.4000000954,7207,VNB,B,3
1,test,1,0.0,2-Back,0,z,Tue Sep 02 2025 10:08:11 GMT-0500 (Central Daylight Time),592901.2999999523,020_y_f_d_a.png,O,m,1491,6,1,2510.399999856949,590390.9000000954,7207,VNB,B,4
1,test,1,0.0,2-Back,0,m,Tue Sep 02 2025 10:08:11 GMT-0500 (Central Daylight Time),595084.100000143,007_m_m_h_a.png,O,z,1150,7,1,2179.2000000476837,592904.9000000954,7207,VNB,B,5
2,test,1,1.0,2-Back,1,m,Tue Sep 02 2025 10:08:11 GMT-0500 (Central Daylight Time),597016.7999999523,020_y_f_n_a.png,O,m,904,8,1,1929.3999998569489,595087.4000000954,7207,VNB,B,6
2,test,1,0.0,2-Back,0,z,Tue Sep 02 2025 10:08:11 GMT-0500 (Central Daylight Time),599382.4000000954,005_o_f_h_a.png,O,m,1339,9,1,2362.2999999523163,597020.100000143,7207,VNB,B,7
3,test,1,0.0,2-Back,1,m,Tue Sep 02 2025 10:08:11 GMT-0500 (Central Daylight Time),602315.7999999523,004_o_m_d_a.png,O,m,1900,10,1,2930.5999999046326,599385.2000000477,7207,VNB,B,8
3,test,1,1.0,2-Back,0,m,Tue Sep 02 2025 10:08:11 GMT-0500 (Central Daylight Time),604782.0,007_m_m_d_a.png,O,z,1450,11,1,2461.2999999523163,602320.7000000477,7207,VNB,B,9
3,test,1,0.0,2-Back,0,m,Tue Sep 02 2025 10:08:11 GMT-0500 (Central Daylight Time),607263.600000143,011_m_f_n_a.png,O,z,1455,12,1,2477.4000000953674,604786.2000000477,7207,VNB,B,10
4,test,1,0.0,2-Back,1,m,Tue Sep 02 2025 10:08:11 GMT-0500 (Central Daylight Time),609463.0,020_y_f_h_a.png,O,m,1182,13,1,2194.2999999523163,607268.7000000477,7207,VNB,B,11
4,test,1,0.0,2-Back,0,z,Tue Sep 02 2025 10:08:11 GMT-0500 (Central Daylight Time),612494.2000000477,007_m_m_n_a.png,O,None,2014,14,1,3027.4000000953674,609466.7999999523,7207,VNB,B,12
5,test,1,0.0,2-Back,1,m,Tue Sep 02 2025 10:08:11 GMT-0500 (Central Daylight Time),614810.7999999523,016_y_m_d_a.png,O,m,1285,15,1,2312.899999856949,612497.9000000954,7207,VNB,B,13
6,test,1,1.0,2-Back,1,m,Tue Sep 02 2025 10:08:11 GMT-0500 (Central Daylight Time),617094.100000143,011_m_f_h_a.png,O,m,1256,16,1,2279.600000143051,614814.5,7207,VNB,B,14
7,test,1,0.0,2-Back,1,z,Tue Sep 02 2025 10:08:11 GMT-0500 (Central Daylight Time),618826.0,005_o_f_d_a.png,O,z,701,17,1,1727.2000000476837,617098.7999999523,7207,VNB,B,15
8,test,1,0.0,2-Back,1,m,Tue Sep 02 2025 10:08:11 GMT-0500 (Central Daylight Time),621175.5,004_o_m_n_a.png,O,m,1330,18,1,2346.5999999046326,618828.9000000954,7207,VNB,B,16
0,test,2,0.0,2-Back,,,Tue Sep 02 2025 10:08:11 GMT-0500 (Central Daylight Time),621175.5,007_m_m_h_a.png,O,space,1556,1,1,2346.5999999046326,618828.9000000954,7207,VNB,B,0
0,test,2,0.0,2-Back,,,Tue Sep 02 2025 10:08:11 GMT-0500 (Central Daylight Time),621175.5,020_y_f_n_a.png,O,space,1556,2,1,2346.5999999046326,618828.9000000954,7207,VNB,B,0
1,test,2,1.0,2-Back,1,z,Tue Sep 02 2025 10:08:11 GMT-0500 (Central Daylight Time),629723.0,005_o_f_h_a.png,O,z,751,3,1,1779.7000000476837,627943.2999999523,7207,VNB,B,1
2,test,2,0.0,2-Back,1,m,Tue Sep 02 2025 10:08:11 GMT-0500 (Central Daylight Time),632705.100000143,004_o_m_d_a.png,O,m,1954,4,1,2978.800000190735,629726.2999999523,7207,VNB,B,2
2,test,2,0.0,2-Back,0,m,Tue Sep 02 2025 10:08:11 GMT-0500 (Central Daylight Time),635737.100000143,011_m_f_d_a.png,O,None,2015,5,1,3027.7000000476837,632709.4000000954,7207,VNB,B,3
2,test,2,0.0,2-Back,0,m,Tue Sep 02 2025 10:08:11 GMT-0500 (Central Daylight Time),637537.4000000954,016_y_m_h_a.png,O,z,779,6,1,1796.7999999523163,635740.600000143,7207,VNB,B,4
3,test,2,0.0,2-Back,1,m,Tue Sep 02 2025 10:08:11 GMT-0500 (Central Daylight Time),640352.7000000477,005_o_f_n_a.png,O,m,1786,7,1,2811.0999999046326,637541.600000143,7207,VNB,B,5
3,test,2,1.0,2-Back,0,z,Tue Sep 02 2025 10:08:11 GMT-0500 (Central Daylight Time),643385.9000000954,004_o_m_h_a.png,O,None,2016,8,1,3030.0,640355.9000000954,7207,VNB,B,6
3,test,2,0.0,2-Back,0,m,Tue Sep 02 2025 10:08:11 GMT-0500 (Central Daylight Time),646417.4000000954,020_y_f_d_a.png,O,None,2015,9,1,3028.7000000476837,643388.7000000477,7207,VNB,B,7
3,test,2,0.0,2-Back,0,m,Tue Sep 02 2025 10:08:11 GMT-0500 (Central Daylight Time),649133.7999999523,016_y_m_d_a.png,O,z,1691,10,1,2713.399999856949,646420.4000000954,7207,VNB,B,8
4,test,2,0.0,2-Back,1,m,Tue Sep 02 2025 10:08:11 GMT-0500 (Central Daylight Time),651682.7999999523,007_m_m_n_a.png,O,m,1527,11,1,2546.0999999046326,649136.7000000477,7207,VNB,B,9
5,test,2,0.0,2-Back,1,m,Tue Sep 02 2025 10:08:11 GMT-0500 (Central Daylight Time),654164.2000000477,011_m_f_h_a.png,O,m,1456,12,1,2478.0,651686.2000000477,7207,VNB,B,10
6,test,2,1.0,2-Back,1,z,Tue Sep 02 2025 10:08:11 GMT-0500 (Central Daylight Time),655964.2000000477,004_o_m_n_a.png,O,z,772,13,1,1797.5999999046326,654166.600000143,7207,VNB,B,11
7,test,2,0.0,2-Back,1,m,Tue Sep 02 2025 10:08:11 GMT-0500 (Central Daylight Time),658629.9000000954,005_o_f_d_a.png,O,m,1649,14,1,2662.600000143051,655967.2999999523,7207,VNB,B,12
8,test,2,0.0,2-Back,1,m,Tue Sep 02 2025 10:08:11 GMT-0500 (Central Daylight Time),661045.7000000477,020_y_f_h_a.png,O,m,1383,15,1,2410.7999999523163,658634.9000000954,7207,VNB,B,13
9,test,2,0.0,2-Back,1,z,Tue Sep 02 2025 10:08:11 GMT-0500 (Central Daylight Time),663679.0,007_m_m_d_a.png,O,z,1606,16,1,2629.7999999523163,661049.2000000477,7207,VNB,B,14
10,test,2,0.0,2-Back,1,m,Tue Sep 02 2025 10:08:11 GMT-0500 (Central Daylight Time),665794.5,016_y_m_n_a.png,O,m,1093,17,1,2111.399999856949,663683.100000143,7207,VNB,B,15
11,test,2,1.0,2-Back,1,m,Tue Sep 02 2025 10:08:11 GMT-0500 (Central Daylight Time),668343.7000000477,011_m_f_n_a.png,O,m,1530,18,1,2546.4000000953674,665797.2999999523,7207,VNB,B,16
0,test,3,1.0,2-Back,,,Tue Sep 02 2025 10:08:11 GMT-0500 (Central Daylight Time),668343.7000000477,004_o_m_n_a.png,O,space,983,1,1,2546.4000000953674,665797.2999999523,7207,VNB,B,0
0,test,3,1.0,2-Back,,,Tue Sep 02 2025 10:08:11 GMT-0500 (Central Daylight Time),668343.7000000477,005_o_f_d_a.png,O,space,983,2,1,2546.4000000953674,665797.2999999523,7207,VNB,B,0
1,test,3,0.0,2-Back,1,m,Tue Sep 02 2025 10:08:11 GMT-0500 (Central Daylight Time),676957.5,020_y_f_h_a.png,O,m,1564,3,1,2579.0,674378.5,7207,VNB,B,1
2,test,3,0.0,2-Back,1,z,Tue Sep 02 2025 10:08:11 GMT-0500 (Central Daylight Time),679240.7999999523,011_m_f_d_a.png,O,z,1263,4,1,2278.5,676962.2999999523,7207,VNB,B,2
3,test,3,1.0,2-Back,1,m,Tue Sep 02 2025 10:08:11 GMT-0500 (Central Daylight Time),681440.2000000477,016_y_m_n_a.png,O,m,1171,5,1,2196.5,679243.7000000477,7207,VNB,B,3
4,test,3,0.0,2-Back,1,m,Tue Sep 02 2025 10:08:11 GMT-0500 (Central Daylight Time),684189.100000143,004_o_m_h_a.png,O,m,1716,6,1,2745.9000000953674,681443.2000000477,7207,VNB,B,4
5,test,3,0.0,2-Back,1,z,Tue Sep 02 2025 10:08:11 GMT-0500 (Central Daylight Time),686023.2999999523,020_y_f_n_a.png,O,z,817,7,1,1828.3999998569489,684194.9000000954,7207,VNB,B,5
6,test,3,1.0,2-Back,1,m,Tue Sep 02 2025 10:08:11 GMT-0500 (Central Daylight Time),688920.7000000477,007_m_m_d_a.png,O,m,1871,8,1,2891.0999999046326,686029.600000143,7207,VNB,B,6
7,test,3,0.0,2-Back,1,m,Tue Sep 02 2025 10:08:11 GMT-0500 (Central Daylight Time),691636.2000000477,016_y_m_d_a.png,O,m,1681,9,1,2712.5999999046326,688923.600000143,7207,VNB,B,7
8,test,3,0.0,2-Back,1,m,Tue Sep 02 2025 10:08:11 GMT-0500 (Central Daylight Time),693902.2999999523,005_o_f_h_a.png,O,m,1239,10,1,2262.0,691640.2999999523,7207,VNB,B,8
9,test,3,1.0,2-Back,1,m,Tue Sep 02 2025 10:08:11 GMT-0500 (Central Daylight Time),696701.600000143,011_m_f_n_a.png,O,m,1774,11,1,2796.0,693905.600000143,7207,VNB,B,9
10,test,3,1.0,2-Back,1,z,Tue Sep 02 2025 10:08:11 GMT-0500 (Central Daylight Time),698967.7000000477,007_m_m_h_a.png,O,z,1238,12,1,2259.4000000953674,696708.2999999523,7207,VNB,B,10
10,test,3,0.0,2-Back,0,m,Tue Sep 02 2025 10:08:11 GMT-0500 (Central Daylight Time),702000.9000000954,020_y_f_d_a.png,O,None,2016,13,1,3029.7999999523163,698971.100000143,7207,VNB,B,11
11,test,3,0.0,2-Back,1,m,Tue Sep 02 2025 10:08:11 GMT-0500 (Central Daylight Time),704232.9000000954,005_o_f_n_a.png,O,m,1204,14,1,2227.2000000476837,702005.7000000477,7207,VNB,B,12
12,test,3,0.0,2-Back,1,z,Tue Sep 02 2025 10:08:11 GMT-0500 (Central Daylight Time),706481.5,004_o_m_d_a.png,O,z,1220,15,1,2245.7000000476837,704235.7999999523,7207,VNB,B,13
12,test,3,1.0,2-Back,0,m,Tue Sep 02 2025 10:08:11 GMT-0500 (Central Daylight Time),709514.7000000477,011_m_f_h_a.png,O,None,2016,16,1,3028.0999999046326,706486.600000143,7207,VNB,B,14
12,test,3,0.0,2-Back,0,m,Tue Sep 02 2025 10:08:11 GMT-0500 (Central Daylight Time),711846.0,007_m_m_n_a.png,O,z,1315,17,1,2327.899999856949,709518.100000143,7207,VNB,B,15
12,test,3,0.0,2-Back,0,z,Tue Sep 02 2025 10:08:11 GMT-0500 (Central Daylight Time),714563.0,016_y_m_h_a.png,O,m,1685,18,1,2713.0999999046326,711849.9000000954,7207,VNB,B,16
0,test,4,0.0,2-Back,,,Tue Sep 02 2025 10:08:11 GMT-0500 (Central Daylight Time),714563.0,011_m_f_n_a.png,O,space,1225,1,1,2713.0999999046326,711849.9000000954,7207,VNB,B,0
0,test,4,0.0,2-Back,,,Tue Sep 02 2025 10:08:11 GMT-0500 (Central Daylight Time),714563.0,004_o_m_n_a.png,O,space,1225,2,1,2713.0999999046326,711849.9000000954,7207,VNB,B,0
1,test,4,1.0,2-Back,1,m,Tue Sep 02 2025 10:08:11 GMT-0500 (Central Daylight Time),723510.0,016_y_m_h_a.png,O,m,1524,3,1,2543.5,720966.5,7207,VNB,B,1
1,test,4,1.0,2-Back,0,m,Tue Sep 02 2025 10:08:11 GMT-0500 (Central Daylight Time),726542.5,005_o_f_d_a.png,O,None,2015,4,1,3029.899999856949,723512.600000143,7207,VNB,B,2
2,test,4,0.0,2-Back,1,z,Tue Sep 02 2025 10:08:11 GMT-0500 (Central Daylight Time),728890.7999999523,004_o_m_h_a.png,O,z,1326,5,1,2341.399999856949,726549.4000000954,7207,VNB,B,3
2,test,4,0.0,2-Back,0,m,Tue Sep 02 2025 10:08:11 GMT-0500 (Central Daylight Time),731923.600000143,007_m_m_n_a.png,O,None,2016,6,1,3028.7000000476837,728894.9000000954,7207,VNB,B,4
3,test,4,0.0,2-Back,1,m,Tue Sep 02 2025 10:08:11 GMT-0500 (Central Daylight Time),734573.5,011_m_f_d_a.png,O,m,1624,7,1,2644.2999999523163,731929.2000000477,7207,VNB,B,5
4,test,4,0.0,2-Back,1,z,Tue Sep 02 2025 10:08:11 GMT-0500 (Central Daylight Time),736591.4000000954,020_y_f_n_a.png,O,z,992,8,1,2011.0,734580.4000000954,7207,VNB,B,6
4,test,4,1.0,2-Back,0,m,Tue Sep 02 2025 10:08:11 GMT-0500 (Central Daylight Time),739623.0,005_o_f_h_a.png,O,None,2016,9,1,3023.5999999046326,736599.4000000954,7207,VNB,B,7
5,test,4,0.0,2-Back,1,m,Tue Sep 02 2025 10:08:11 GMT-0500 (Central Daylight Time),742321.4000000954,007_m_m_h_a.png,O,m,1671,10,1,2691.2999999523163,739630.100000143,7207,VNB,B,8
5,test,4,0.0,2-Back,0,m,Tue Sep 02 2025 10:08:11 GMT-0500 (Central Daylight Time),744704.7000000477,020_y_f_d_a.png,O,z,1356,11,1,2372.2999999523163,742332.4000000954,7207,VNB,B,9
6,test,4,0.0,2-Back,1,m,Tue Sep 02 2025 10:08:11 GMT-0500 (Central Daylight Time),747037.100000143,016_y_m_n_a.png,O,m,1301,12,1,2323.5,744713.600000143,7207,VNB,B,10
7,test,4,0.0,2-Back,1,z,Tue Sep 02 2025 10:08:11 GMT-0500 (Central Daylight Time),749119.2000000477,004_o_m_d_a.png,O,z,1063,13,1,2073.4000000953674,747045.7999999523,7207,VNB,B,11
7,test,4,1.0,2-Back,0,m,Tue Sep 02 2025 10:08:11 GMT-0500 (Central Daylight Time),752150.600000143,011_m_f_h_a.png,O,None,2015,14,1,3025.9000000953674,749124.7000000477,7207,VNB,B,12
8,test,4,1.0,2-Back,1,m,Tue Sep 02 2025 10:08:11 GMT-0500 (Central Daylight Time),753267.7999999523,020_y_f_h_a.png,O,m,92,15,1,1108.0,752159.7999999523,7207,VNB,B,13
8,test,4,0.0,2-Back,0,m,Tue Sep 02 2025 10:08:11 GMT-0500 (Central Daylight Time),756299.2000000477,005_o_f_n_a.png,O,None,2015,16,1,3022.7000000476837,753276.5,7207,VNB,B,14
8,test,4,0.0,2-Back,0,m,Tue Sep 02 2025 10:08:11 GMT-0500 (Central Daylight Time),759318.2999999523,016_y_m_d_a.png,O,None,2001,17,1,3010.5999999046326,756307.7000000477,7207,VNB,B,15
9,test,4,1.0,2-Back,1,m,Tue Sep 02 2025 10:08:11 GMT-0500 (Central Daylight Time),761648.9000000954,007_m_m_d_a.png,O,m,1303,18,1,2327.4000000953674,759321.5,7207,VNB,B,16
0,test,5,1.0,2-Back,,,Tue Sep 02 2025 10:08:11 GMT-0500 (Central Daylight Time),761648.9000000954,020_y_f_d_a.png,O,space,1019,1,1,2327.4000000953674,759321.5,7207,VNB,B,0
0,test,5,1.0,2-Back,,,Tue Sep 02 2025 10:08:11 GMT-0500 (Central Daylight Time),761648.9000000954,005_o_f_h_a.png,O,space,1019,2,1,2327.4000000953674,759321.5,7207,VNB,B,0
1,test,5,1.0,2-Back,1,z,Tue Sep 02 2025 10:08:11 GMT-0500 (Central Daylight Time),769761.5,004_o_m_d_a.png,O,z,879,3,1,1886.8999998569489,767874.600000143,7207,VNB,B,1
2,test,5,1.0,2-Back,1,m,Tue Sep 02 2025 10:08:11 GMT-0500 (Central Daylight Time),771744.7999999523,011_m_f_n_a.png,O,m,959,4,1,1974.2999999523163,769770.5,7207,VNB,B,2
2,test,5,0.0,2-Back,0,m,Tue Sep 02 2025 10:08:11 GMT-0500 (Central Daylight Time),774561.4000000954,007_m_m_h_a.png,O,z,1787,5,1,2810.9000000953674,771750.5,7207,VNB,B,3
2,test,5,0.0,2-Back,0,z,Tue Sep 02 2025 10:08:11 GMT-0500 (Central Daylight Time),777593.100000143,020_y_f_n_a.png,O,None,2016,6,1,3018.4000000953674,774574.7000000477,7207,VNB,B,4
3,test,5,0.0,2-Back,1,m,Tue Sep 02 2025 10:08:11 GMT-0500 (Central Daylight Time),780525.7999999523,005_o_f_d_a.png,O,m,1908,7,1,2924.7999999523163,777601.0,7207,VNB,B,5
3,test,5,0.0,2-Back,0,m,Tue Sep 02 2025 10:08:11 GMT-0500 (Central Daylight Time),782458.5,004_o_m_h_a.png,O,z,912,8,1,1922.7000000476837,780535.7999999523,7207,VNB,B,6
4,test,5,1.0,2-Back,1,z,Tue Sep 02 2025 10:08:11 GMT-0500 (Central Daylight Time),784424.9000000954,011_m_f_d_a.png,O,z,946,9,1,1958.6000001430511,782466.2999999523,7207,VNB,B,7
5,test,5,0.0,2-Back,1,m,Tue Sep 02 2025 10:08:11 GMT-0500 (Central Daylight Time),786490.5,016_y_m_n_a.png,O,m,1046,10,1,2058.399999856949,784432.100000143,7207,VNB,B,8
5,test,5,0.0,2-Back,0,m,Tue Sep 02 2025 10:08:11 GMT-0500 (Central Daylight Time),788925.0,007_m_m_n_a.png,O,z,1409,11,1,2422.5,786502.5,7207,VNB,B,9
6,test,5,0.0,2-Back,1,m,Tue Sep 02 2025 10:08:11 GMT-0500 (Central Daylight Time),791072.2999999523,020_y_f_h_a.png,O,m,1118,12,1,2136.899999856949,788935.4000000954,7207,VNB,B,10
6,test,5,0.0,2-Back,0,m,Tue Sep 02 2025 10:08:11 GMT-0500 (Central Daylight Time),794105.7999999523,016_y_m_d_a.png,O,None,2016,13,1,3023.899999856949,791081.9000000954,7207,VNB,B,11
7,test,5,1.0,2-Back,1,z,Tue Sep 02 2025 10:08:11 GMT-0500 (Central Daylight Time),796120.2000000477,011_m_f_h_a.png,O,z,998,14,1,2005.2000000476837,794115.0,7207,VNB,B,12
8,test,5,0.0,2-Back,1,m,Tue Sep 02 2025 10:08:11 GMT-0500 (Central Daylight Time),798470.600000143,004_o_m_n_a.png,O,m,1301,15,1,2333.4000000953674,796137.2000000477,7207,VNB,B,13
9,test,5,0.0,2-Back,1,m,Tue Sep 02 2025 10:08:11 GMT-0500 (Central Daylight Time),801367.4000000954,007_m_m_d_a.png,O,m,1869,16,1,2887.0,798480.4000000954,7207,VNB,B,14
9,test,5,0.0,2-Back,0,z,Tue Sep 02 2025 10:08:11 GMT-0500 (Central Daylight Time),804201.4000000954,005_o_f_n_a.png,O,m,1812,17,1,2831.0,801370.4000000954,7207,VNB,B,15
9,test,5,1.0,2-Back,0,m,Tue Sep 02 2025 10:08:11 GMT-0500 (Central Daylight Time),806601.100000143,016_y_m_h_a.png,O,z,1372,18,1,2390.100000143051,804211.0,7207,VNB,B,16
