block_c,block_dur,condition,countdown,datetime,endtime,list,multichar_response,project,response,response_time,session_number,start_end,starttime,subject_id,task,task_vers,trial
,,,,Fri Nov 14 2025 14:24:05 GMT-0600 (Central Standard Time),,,,O,space,508,,,,7240,WL,C,
prac,,0,,Fri Nov 14 2025 14:24:05 GMT-0600 (Central Standard Time),,NA,b,O,b,2184,,,,7240,WL,C,1.0
prac,,0,,Fri Nov 14 2025 14:24:05 GMT-0600 (Central Standard Time),,NA,bo,O,o,508,,,,7240,WL,C,1.0
prac,,0,,Fri Nov 14 2025 14:24:05 GMT-0600 (Central Standard Time),,NA,boo,O,o,143,,,,7240,WL,C,1.0
prac,,0,,Fri Nov 14 2025 14:24:05 GMT-0600 (Central Standard Time),,NA,boos,O,s,114,,,,7240,WL,C,1.0
prac,,0,,Fri Nov 14 2025 14:24:05 GMT-0600 (Central Standard Time),,NA,boost,O,t,148,,,,7240,WL,C,1.0
prac,,0,,Fri Nov 14 2025 14:24:05 GMT-0600 (Central Standard Time),,NA,boostenter,O,enter,990,,,,7240,WL,C,1.0
1,1.7679998874664307,learn,58232.00011253357,Fri Nov 14 2025 14:24:05 GMT-0600 (Central Standard Time),111420.20000004768,A,t,O,t,1754,,1766.8999999761581,109653.30000007153,7240,WL,C,1.0
1,2.4000000953674316,learn,57599.99990463257,Fri Nov 14 2025 14:24:05 GMT-0600 (Central Standard Time),112052.70000004768,A,to,O,o,628,,2399.399999976158,109653.30000007153,7240,WL,C,1.0
1,2.617000102996826,learn,57382.999897003174,Fri Nov 14 2025 14:24:05 GMT-0600 (Central Standard Time),112269.70000004768,A,tow,O,w,211,,2616.399999976158,109653.30000007153,7240,WL,C,1.0
1,2.7679998874664307,learn,57232.00011253357,Fri Nov 14 2025 14:24:05 GMT-0600 (Central Standard Time),112420.5,A,towe,O,e,137,,2767.1999999284744,109653.30000007153,7240,WL,C,1.0
1,2.867000102996826,learn,57132.999897003174,Fri Nov 14 2025 14:24:05 GMT-0600 (Central Standard Time),112519.20000004768,A,tower,O,r,82,,2865.899999976158,109653.30000007153,7240,WL,C,1.0
1,3.3510000705718994,learn,56648.9999294281,Fri Nov 14 2025 14:24:05 GMT-0600 (Central Standard Time),113003.5,A,towerenter,O,enter,472,,3350.1999999284744,109653.30000007153,7240,WL,C,1.0
1,3.7839999198913574,learn,56216.00008010864,Fri Nov 14 2025 14:24:05 GMT-0600 (Central Standard Time),113436.80000007153,A,w,O,w,421,,433.0,113003.80000007153,7240,WL,C,2.0
1,3.950000047683716,learn,56049.999952316284,Fri Nov 14 2025 14:24:05 GMT-0600 (Central Standard Time),113602.70000004768,A,wh,O,h,149,,598.8999999761581,113003.80000007153,7240,WL,C,2.0
1,4.033999919891357,learn,55966.00008010864,Fri Nov 14 2025 14:24:05 GMT-0600 (Central Standard Time),113686.60000002384,A,whe,O,e,68,,682.7999999523163,113003.80000007153,7240,WL,C,2.0
1,4.318000078201294,learn,55681.999921798706,Fri Nov 14 2025 14:24:05 GMT-0600 (Central Standard Time),113970.10000002384,A,whea,O,a,265,,966.2999999523163,113003.80000007153,7240,WL,C,2.0
1,4.484999895095825,learn,55515.000104904175,Fri Nov 14 2025 14:24:05 GMT-0600 (Central Standard Time),114137.30000007153,A,wheat,O,t,149,,1133.5,113003.80000007153,7240,WL,C,2.0
1,4.766999959945679,learn,55233.00004005432,Fri Nov 14 2025 14:24:05 GMT-0600 (Central Standard Time),114419.5,A,wheatenter,O,enter,277,,1415.6999999284744,113003.80000007153,7240,WL,C,2.0
1,5.101000070571899,learn,54898.9999294281,Fri Nov 14 2025 14:24:05 GMT-0600 (Central Standard Time),114753.20000004768,A,q,O,q,316,,333.5,114419.70000004768,7240,WL,C,3.0
1,5.25,learn,54750.0,Fri Nov 14 2025 14:24:05 GMT-0600 (Central Standard Time),114902.80000007153,A,qu,O,u,142,,483.10000002384186,114419.70000004768,7240,WL,C,3.0
1,5.434000015258789,learn,54565.99998474121,Fri Nov 14 2025 14:24:05 GMT-0600 (Central Standard Time),115086.60000002384,A,que,O,e,170,,666.8999999761581,114419.70000004768,7240,WL,C,3.0
1,5.582000017166138,learn,54417.99998283386,Fri Nov 14 2025 14:24:05 GMT-0600 (Central Standard Time),115234.80000007153,A,quee,O,e,136,,815.1000000238419,114419.70000004768,7240,WL,C,3.0
1,5.700000047683716,learn,54299.999952316284,Fri Nov 14 2025 14:24:05 GMT-0600 (Central Standard Time),115352.10000002384,A,queen,O,n,100,,932.3999999761581,114419.70000004768,7240,WL,C,3.0
1,6.183000087738037,learn,53816.99991226196,Fri Nov 14 2025 14:24:05 GMT-0600 (Central Standard Time),115835.30000007153,A,queenenter,O,enter,471,,1415.6000000238419,114419.70000004768,7240,WL,C,3.0
1,6.415999889373779,learn,53584.00011062622,Fri Nov 14 2025 14:24:05 GMT-0600 (Central Standard Time),116068.20000004768,A,s,O,s,220,,232.70000004768372,115835.5,7240,WL,C,4.0
1,6.516999959945679,learn,53483.00004005432,Fri Nov 14 2025 14:24:05 GMT-0600 (Central Standard Time),116168.90000009537,A,su,O,u,91,,333.40000009536743,115835.5,7240,WL,C,4.0
1,6.769000053405762,learn,53230.99994659424,Fri Nov 14 2025 14:24:05 GMT-0600 (Central Standard Time),116421.40000009537,A,sug,O,g,239,,585.9000000953674,115835.5,7240,WL,C,4.0
1,7.0,learn,53000.0,Fri Nov 14 2025 14:24:05 GMT-0600 (Central Standard Time),116652.30000007153,A,suga,O,a,209,,816.8000000715256,115835.5,7240,WL,C,4.0
1,7.08299994468689,learn,52917.00005531311,Fri Nov 14 2025 14:24:05 GMT-0600 (Central Standard Time),116735.60000002384,A,sugar,O,r,67,,900.1000000238419,115835.5,7240,WL,C,4.0
1,7.348999977111816,learn,52651.00002288818,Fri Nov 14 2025 14:24:05 GMT-0600 (Central Standard Time),117001.60000002384,A,sugarenter,O,enter,248,,1166.1000000238419,115835.5,7240,WL,C,4.0
1,7.648999929428101,learn,52351.0000705719,Fri Nov 14 2025 14:24:05 GMT-0600 (Central Standard Time),117301.20000004768,A,b,O,b,296,,299.39999997615814,117001.80000007153,7240,WL,C,5.0
1,7.7829999923706055,learn,52217.000007629395,Fri Nov 14 2025 14:24:05 GMT-0600 (Central Standard Time),117435.5,A,bo,O,o,122,,433.6999999284744,117001.80000007153,7240,WL,C,5.0
1,8.132999897003174,learn,51867.000102996826,Fri Nov 14 2025 14:24:05 GMT-0600 (Central Standard Time),117784.90000009537,A,boy,O,y,331,,783.1000000238419,117001.80000007153,7240,WL,C,5.0
1,8.516000032424927,learn,51483.99996757507,Fri Nov 14 2025 14:24:05 GMT-0600 (Central Standard Time),118168.30000007153,A,boyenter,O,enter,366,,1166.5,117001.80000007153,7240,WL,C,5.0
1,11.065000057220459,learn,48934.99994277954,Fri Nov 14 2025 14:24:05 GMT-0600 (Central Standard Time),120717.80000007153,A,c,O,c,2534,,2549.2000000476837,118168.60000002384,7240,WL,C,6.0
1,11.247999906539917,learn,48752.00009346008,Fri Nov 14 2025 14:24:05 GMT-0600 (Central Standard Time),120900.10000002384,A,cr,O,r,178,,2731.5,118168.60000002384,7240,WL,C,6.0
1,11.365000009536743,learn,48634.99999046326,Fri Nov 14 2025 14:24:05 GMT-0600 (Central Standard Time),121017.70000004768,A,cro,O,o,100,,2849.100000023842,118168.60000002384,7240,WL,C,6.0
1,11.497999906539917,learn,48502.00009346008,Fri Nov 14 2025 14:24:05 GMT-0600 (Central Standard Time),121150.70000004768,A,crow,O,w,117,,2982.100000023842,118168.60000002384,7240,WL,C,6.0
1,11.615999937057495,learn,48384.000062942505,Fri Nov 14 2025 14:24:05 GMT-0600 (Central Standard Time),121267.80000007153,A,crown,O,n,97,,3099.2000000476837,118168.60000002384,7240,WL,C,6.0
1,11.813999891281128,learn,48186.00010871887,Fri Nov 14 2025 14:24:05 GMT-0600 (Central Standard Time),121466.70000004768,A,crownenter,O,enter,189,,3298.100000023842,118168.60000002384,7240,WL,C,6.0
1,12.299000024795532,learn,47700.99997520447,Fri Nov 14 2025 14:24:05 GMT-0600 (Central Standard Time),121950.90000009537,A,t,O,t,467,,483.90000009536743,121467.0,7240,WL,C,7.0
1,13.148000001907349,learn,46851.99999809265,Fri Nov 14 2025 14:24:05 GMT-0600 (Central Standard Time),122800.0,A,,O,backspace,832,,1333.0,121467.0,7240,WL,C,7.0
1,14.46399998664856,learn,45536.00001335144,Fri Nov 14 2025 14:24:05 GMT-0600 (Central Standard Time),124116.30000007153,A,s,O,s,1313,,2649.3000000715256,121467.0,7240,WL,C,7.0
1,14.831000089645386,learn,45168.999910354614,Fri Nov 14 2025 14:24:05 GMT-0600 (Central Standard Time),124483.10000002384,A,su,O,u,355,,3016.100000023842,121467.0,7240,WL,C,7.0
1,15.063999891281128,learn,44936.00010871887,Fri Nov 14 2025 14:24:05 GMT-0600 (Central Standard Time),124716.10000002384,A,sug,O,g,212,,3249.100000023842,121467.0,7240,WL,C,7.0
1,15.21399998664856,learn,44786.00001335144,Fri Nov 14 2025 14:24:05 GMT-0600 (Central Standard Time),124866.30000007153,A,suga,O,a,139,,3399.3000000715256,121467.0,7240,WL,C,7.0
1,15.312999963760376,learn,44687.000036239624,Fri Nov 14 2025 14:24:05 GMT-0600 (Central Standard Time),124965.70000004768,A,sugar,O,r,94,,3498.7000000476837,121467.0,7240,WL,C,7.0
1,15.86299991607666,learn,44137.00008392334,Fri Nov 14 2025 14:24:05 GMT-0600 (Central Standard Time),125515.30000007153,A,sugarenter,O,enter,538,,4048.3000000715256,121467.0,7240,WL,C,7.0
1,19.04699993133545,learn,40953.00006866455,Fri Nov 14 2025 14:24:05 GMT-0600 (Central Standard Time),128699.5,A,c,O,c,3166,,3184.0,125515.5,7240,WL,C,8.0
1,19.121000051498413,learn,40878.99994850159,Fri Nov 14 2025 14:24:05 GMT-0600 (Central Standard Time),128772.90000009537,A,ca,O,a,70,,3257.4000000953674,125515.5,7240,WL,C,8.0
1,19.19600009918213,learn,40803.99990081787,Fri Nov 14 2025 14:24:05 GMT-0600 (Central Standard Time),128848.0,A,cam,O,m,67,,3332.5,125515.5,7240,WL,C,8.0
1,19.312000036239624,learn,40687.999963760376,Fri Nov 14 2025 14:24:05 GMT-0600 (Central Standard Time),128964.5,A,camp,O,p,113,,3449.0,125515.5,7240,WL,C,8.0
1,19.578999996185303,learn,40421.0000038147,Fri Nov 14 2025 14:24:05 GMT-0600 (Central Standard Time),129231.5,A,campenter,O,enter,251,,3716.0,125515.5,7240,WL,C,8.0
1,20.694999933242798,learn,39305.0000667572,Fri Nov 14 2025 14:24:05 GMT-0600 (Central Standard Time),130347.30000007153,A,f,O,f,1097,,1115.6000000238419,129231.70000004768,7240,WL,C,9.0
1,20.796000003814697,learn,39203.9999961853,Fri Nov 14 2025 14:24:05 GMT-0600 (Central Standard Time),130447.80000007153,A,fl,O,l,93,,1216.1000000238419,129231.70000004768,7240,WL,C,9.0
1,20.828999996185303,learn,39171.0000038147,Fri Nov 14 2025 14:24:05 GMT-0600 (Central Standard Time),130480.80000007153,A,fla,O,a,15,,1249.1000000238419,129231.70000004768,7240,WL,C,9.0
1,20.944000005722046,learn,39055.999994277954,Fri Nov 14 2025 14:24:05 GMT-0600 (Central Standard Time),130596.20000004768,A,flag,O,g,111,,1364.5,129231.70000004768,7240,WL,C,9.0
1,21.144999980926514,learn,38855.000019073486,Fri Nov 14 2025 14:24:05 GMT-0600 (Central Standard Time),130797.40000009537,A,flagenter,O,enter,189,,1565.7000000476837,129231.70000004768,7240,WL,C,9.0
1,28.443000078201294,learn,31556.999921798706,Fri Nov 14 2025 14:24:05 GMT-0600 (Central Standard Time),138095.60000002384,A,w,O,w,7282,,7298.0,130797.60000002384,7240,WL,C,10.0
1,28.542999982833862,learn,31457.000017166138,Fri Nov 14 2025 14:24:05 GMT-0600 (Central Standard Time),138195.40000009537,A,wh,O,h,95,,7397.800000071526,130797.60000002384,7240,WL,C,10.0
1,28.842999935150146,learn,31157.000064849854,Fri Nov 14 2025 14:24:05 GMT-0600 (Central Standard Time),138495.10000002384,A,whe,O,e,285,,7697.5,130797.60000002384,7240,WL,C,10.0
1,29.075999975204468,learn,30924.000024795532,Fri Nov 14 2025 14:24:05 GMT-0600 (Central Standard Time),138728.70000004768,A,whea,O,a,226,,7931.100000023842,130797.60000002384,7240,WL,C,10.0
1,29.210000038146973,learn,30789.999961853027,Fri Nov 14 2025 14:24:05 GMT-0600 (Central Standard Time),138862.30000007153,A,wheat,O,t,120,,8064.700000047684,130797.60000002384,7240,WL,C,10.0
1,29.408999919891357,learn,30591.000080108643,Fri Nov 14 2025 14:24:05 GMT-0600 (Central Standard Time),139061.0,A,wheatenter,O,enter,194,,8263.399999976158,130797.60000002384,7240,WL,C,10.0
1,38.223999977111816,learn,21776.000022888184,Fri Nov 14 2025 14:24:05 GMT-0600 (Central Standard Time),147875.80000007153,A,enter,O,enter,8793,,8814.600000023842,139061.20000004768,7240,WL,C,11.0
1,39.223000049591064,learn,20776.999950408936,Fri Nov 14 2025 14:24:05 GMT-0600 (Central Standard Time),148875.0,A,enter,O,enter,987,,998.8999999761581,147876.10000002384,7240,WL,C,12.0
1,42.138999938964844,learn,17861.000061035156,Fri Nov 14 2025 14:24:05 GMT-0600 (Central Standard Time),151791.70000004768,A,enter,O,enter,2910,,2916.399999976158,148875.30000007153,7240,WL,C,13.0
1,42.855000019073486,learn,17144.999980926514,Fri Nov 14 2025 14:24:05 GMT-0600 (Central Standard Time),152507.60000002384,A,enter,O,enter,702,,715.6000000238419,151792.0,7240,WL,C,14.0
1,43.47099995613098,learn,16529.00004386902,Fri Nov 14 2025 14:24:05 GMT-0600 (Central Standard Time),153123.60000002384,A,enter,O,enter,602,,615.6999999284744,152507.90000009537,7240,WL,C,15.0
2,1.0,learn,59000.0,Fri Nov 14 2025 14:24:05 GMT-0600 (Central Standard Time),226166.40000009537,A,t,O,t,995,,999.5,225166.90000009537,7240,WL,C,1.0
2,1.2009999752044678,learn,58799.00002479553,Fri Nov 14 2025 14:24:05 GMT-0600 (Central Standard Time),226367.5,A,to,O,o,194,,1200.5999999046326,225166.90000009537,7240,WL,C,1.0
2,1.2840001583099365,learn,58715.99984169006,Fri Nov 14 2025 14:24:05 GMT-0600 (Central Standard Time),226450.20000004768,A,tow,O,w,65,,1283.2999999523163,225166.90000009537,7240,WL,C,1.0
2,1.4179999828338623,learn,58582.00001716614,Fri Nov 14 2025 14:24:05 GMT-0600 (Central Standard Time),226584.90000009537,A,towe,O,e,117,,1418.0,225166.90000009537,7240,WL,C,1.0
2,1.5169999599456787,learn,58483.00004005432,Fri Nov 14 2025 14:24:05 GMT-0600 (Central Standard Time),226684.10000002384,A,tower,O,r,78,,1517.1999999284744,225166.90000009537,7240,WL,C,1.0
2,1.7840001583099365,learn,58215.99984169006,Fri Nov 14 2025 14:24:05 GMT-0600 (Central Standard Time),226950.5,A,towerenter,O,enter,252,,1783.5999999046326,225166.90000009537,7240,WL,C,1.0
2,2.1000001430511475,learn,57899.99985694885,Fri Nov 14 2025 14:24:05 GMT-0600 (Central Standard Time),227266.10000002384,A,w,O,w,296,,315.1999999284744,226950.90000009537,7240,WL,C,2.0
2,2.384000062942505,learn,57615.999937057495,Fri Nov 14 2025 14:24:05 GMT-0600 (Central Standard Time),227550.30000007153,A,wh,O,h,279,,599.3999999761581,226950.90000009537,7240,WL,C,2.0
2,2.4670000076293945,learn,57532.999992370605,Fri Nov 14 2025 14:24:05 GMT-0600 (Central Standard Time),227633.5,A,whe,O,e,74,,682.5999999046326,226950.90000009537,7240,WL,C,2.0
2,2.5840001106262207,learn,57415.99988937378,Fri Nov 14 2025 14:24:05 GMT-0600 (Central Standard Time),227750.10000002384,A,whea,O,a,102,,799.1999999284744,226950.90000009537,7240,WL,C,2.0
2,2.684000015258789,learn,57315.99998474121,Fri Nov 14 2025 14:24:05 GMT-0600 (Central Standard Time),227850.5,A,wheat,O,t,91,,899.5999999046326,226950.90000009537,7240,WL,C,2.0
2,3.0490000247955322,learn,56950.99997520447,Fri Nov 14 2025 14:24:05 GMT-0600 (Central Standard Time),228215.90000009537,A,wheatenter,O,enter,349,,1265.0,226950.90000009537,7240,WL,C,2.0
2,3.4170000553131104,learn,56582.99994468689,Fri Nov 14 2025 14:24:05 GMT-0600 (Central Standard Time),228583.40000009537,A,q,O,q,359,,367.3000000715256,228216.10000002384,7240,WL,C,3.0
2,3.565999984741211,learn,56434.00001525879,Fri Nov 14 2025 14:24:05 GMT-0600 (Central Standard Time),228733.10000002384,A,qu,O,u,136,,517.0,228216.10000002384,7240,WL,C,3.0
2,3.6660001277923584,learn,56333.99987220764,Fri Nov 14 2025 14:24:05 GMT-0600 (Central Standard Time),228833.30000007153,A,que,O,e,84,,617.2000000476837,228216.10000002384,7240,WL,C,3.0
2,3.815000057220459,learn,56184.99994277954,Fri Nov 14 2025 14:24:05 GMT-0600 (Central Standard Time),228982.0,A,quee,O,e,143,,765.8999999761581,228216.10000002384,7240,WL,C,3.0
2,3.949000120162964,learn,56050.999879837036,Fri Nov 14 2025 14:24:05 GMT-0600 (Central Standard Time),229116.30000007153,A,queen,O,n,131,,900.2000000476837,228216.10000002384,7240,WL,C,3.0
2,4.233000040054321,learn,55766.99995994568,Fri Nov 14 2025 14:24:05 GMT-0600 (Central Standard Time),229399.60000002384,A,queenenter,O,enter,269,,1183.5,228216.10000002384,7240,WL,C,3.0
2,4.449000120162964,learn,55550.999879837036,Fri Nov 14 2025 14:24:05 GMT-0600 (Central Standard Time),229616.0,A,s,O,s,207,,216.09999990463257,229399.90000009537,7240,WL,C,4.0
2,4.583000183105469,learn,55416.99981689453,Fri Nov 14 2025 14:24:05 GMT-0600 (Central Standard Time),229749.60000002384,A,su,O,u,120,,349.6999999284744,229399.90000009537,7240,WL,C,4.0
2,4.733000040054321,learn,55266.99995994568,Fri Nov 14 2025 14:24:05 GMT-0600 (Central Standard Time),229900.20000004768,A,sug,O,g,138,,500.2999999523163,229399.90000009537,7240,WL,C,4.0
2,4.848999977111816,learn,55151.00002288818,Fri Nov 14 2025 14:24:05 GMT-0600 (Central Standard Time),230016.10000002384,A,suga,O,a,108,,616.1999999284744,229399.90000009537,7240,WL,C,4.0
2,4.949000120162964,learn,55050.999879837036,Fri Nov 14 2025 14:24:05 GMT-0600 (Central Standard Time),230115.70000004768,A,sugar,O,r,80,,715.7999999523163,229399.90000009537,7240,WL,C,4.0
2,5.233000040054321,learn,54766.99995994568,Fri Nov 14 2025 14:24:05 GMT-0600 (Central Standard Time),230399.40000009537,A,sugarenter,O,enter,268,,999.5,229399.90000009537,7240,WL,C,4.0
2,6.014000177383423,learn,53985.99982261658,Fri Nov 14 2025 14:24:05 GMT-0600 (Central Standard Time),231181.20000004768,A,h,O,h,775,,781.5,230399.70000004768,7240,WL,C,5.0
2,6.14900016784668,learn,53850.99983215332,Fri Nov 14 2025 14:24:05 GMT-0600 (Central Standard Time),231315.5,A,ho,O,o,115,,915.7999999523163,230399.70000004768,7240,WL,C,5.0
2,6.265000104904175,learn,53734.999895095825,Fri Nov 14 2025 14:24:05 GMT-0600 (Central Standard Time),231431.90000009537,A,hom,O,m,101,,1032.2000000476837,230399.70000004768,7240,WL,C,5.0
2,6.366000175476074,learn,53633.999824523926,Fri Nov 14 2025 14:24:05 GMT-0600 (Central Standard Time),231532.30000007153,A,home,O,e,89,,1132.6000000238419,230399.70000004768,7240,WL,C,5.0
2,6.582000017166138,learn,53417.99998283386,Fri Nov 14 2025 14:24:05 GMT-0600 (Central Standard Time),231748.40000009537,A,homeenter,O,enter,213,,1348.7000000476837,230399.70000004768,7240,WL,C,5.0
2,6.848999977111816,learn,53151.00002288818,Fri Nov 14 2025 14:24:05 GMT-0600 (Central Standard Time),232016.10000002384,A,b,O,b,260,,267.5,231748.60000002384,7240,WL,C,6.0
2,6.965000152587891,learn,53034.99984741211,Fri Nov 14 2025 14:24:05 GMT-0600 (Central Standard Time),232131.40000009537,A,bo,O,o,105,,382.8000000715256,231748.60000002384,7240,WL,C,6.0
2,7.164999961853027,learn,52835.00003814697,Fri Nov 14 2025 14:24:05 GMT-0600 (Central Standard Time),232331.60000002384,A,boy,O,y,197,,583.0,231748.60000002384,7240,WL,C,6.0
2,8.432000160217285,learn,51567.999839782715,Fri Nov 14 2025 14:24:05 GMT-0600 (Central Standard Time),233598.60000002384,A,boyenter,O,enter,1261,,1850.0,231748.60000002384,7240,WL,C,6.0
2,9.331000089645386,learn,50668.999910354614,Fri Nov 14 2025 14:24:05 GMT-0600 (Central Standard Time),234497.60000002384,A,d,O,d,880,,898.6999999284744,233598.90000009537,7240,WL,C,7.0
2,9.414000034332275,learn,50585.999965667725,Fri Nov 14 2025 14:24:05 GMT-0600 (Central Standard Time),234581.0,A,do,O,o,71,,982.0999999046326,233598.90000009537,7240,WL,C,7.0
2,9.531000137329102,learn,50468.9998626709,Fri Nov 14 2025 14:24:05 GMT-0600 (Central Standard Time),234698.20000004768,A,doc,O,c,98,,1099.2999999523163,233598.90000009537,7240,WL,C,7.0
2,9.746999979019165,learn,50253.000020980835,Fri Nov 14 2025 14:24:05 GMT-0600 (Central Standard Time),234914.0,A,doct,O,t,198,,1315.0999999046326,233598.90000009537,7240,WL,C,7.0
2,9.831000089645386,learn,50168.999910354614,Fri Nov 14 2025 14:24:05 GMT-0600 (Central Standard Time),234997.40000009537,A,docto,O,o,80,,1398.5,233598.90000009537,7240,WL,C,7.0
2,9.914000034332275,learn,50085.999965667725,Fri Nov 14 2025 14:24:05 GMT-0600 (Central Standard Time),235080.60000002384,A,doctor,O,r,72,,1481.6999999284744,233598.90000009537,7240,WL,C,7.0
2,10.147000074386597,learn,49852.9999256134,Fri Nov 14 2025 14:24:05 GMT-0600 (Central Standard Time),235313.80000007153,A,doctorenter,O,enter,215,,1714.8999999761581,233598.90000009537,7240,WL,C,7.0
2,10.38100004196167,learn,49618.99995803833,Fri Nov 14 2025 14:24:05 GMT-0600 (Central Standard Time),235547.90000009537,A,c,O,c,213,,233.80000007152557,235314.10000002384,7240,WL,C,8.0
2,10.481000185012817,learn,49518.99981498718,Fri Nov 14 2025 14:24:05 GMT-0600 (Central Standard Time),235647.70000004768,A,ca,O,a,84,,333.60000002384186,235314.10000002384,7240,WL,C,8.0
2,10.597000122070312,learn,49402.99987792969,Fri Nov 14 2025 14:24:05 GMT-0600 (Central Standard Time),235764.0,A,cam,O,m,105,,449.89999997615814,235314.10000002384,7240,WL,C,8.0
2,10.731000185012817,learn,49268.99981498718,Fri Nov 14 2025 14:24:05 GMT-0600 (Central Standard Time),235898.0,A,camp,O,p,116,,583.8999999761581,235314.10000002384,7240,WL,C,8.0
2,11.02999997138977,learn,48970.00002861023,Fri Nov 14 2025 14:24:05 GMT-0600 (Central Standard Time),236196.60000002384,A,campenter,O,enter,295,,882.5,235314.10000002384,7240,WL,C,8.0
2,11.246000051498413,learn,48753.99994850159,Fri Nov 14 2025 14:24:05 GMT-0600 (Central Standard Time),236412.90000009537,A,f,O,f,203,,216.20000004768372,236196.70000004768,7240,WL,C,9.0
2,11.331000089645386,learn,48668.999910354614,Fri Nov 14 2025 14:24:05 GMT-0600 (Central Standard Time),236497.40000009537,A,fl,O,l,76,,300.7000000476837,236196.70000004768,7240,WL,C,9.0
2,11.397000074386597,learn,48602.9999256134,Fri Nov 14 2025 14:24:05 GMT-0600 (Central Standard Time),236563.60000002384,A,fla,O,a,62,,366.89999997615814,236196.70000004768,7240,WL,C,9.0
2,11.562999963760376,learn,48437.000036239624,Fri Nov 14 2025 14:24:05 GMT-0600 (Central Standard Time),236730.20000004768,A,flag,O,g,156,,533.5,236196.70000004768,7240,WL,C,9.0
2,12.746000051498413,learn,47253.99994850159,Fri Nov 14 2025 14:24:05 GMT-0600 (Central Standard Time),237913.30000007153,A,flagenter,O,enter,1165,,1716.6000000238419,236196.70000004768,7240,WL,C,9.0
2,13.36300015449524,learn,46636.99984550476,Fri Nov 14 2025 14:24:05 GMT-0600 (Central Standard Time),238529.40000009537,A,c,O,c,607,,616.0,237913.40000009537,7240,WL,C,10.0
2,13.446000099182129,learn,46553.99990081787,Fri Nov 14 2025 14:24:05 GMT-0600 (Central Standard Time),238613.30000007153,A,co,O,o,70,,699.8999999761581,237913.40000009537,7240,WL,C,10.0
2,13.580000162124634,learn,46419.999837875366,Fri Nov 14 2025 14:24:05 GMT-0600 (Central Standard Time),238746.40000009537,A,cor,O,r,114,,833.0,237913.40000009537,7240,WL,C,10.0
2,13.680000066757202,learn,46319.9999332428,Fri Nov 14 2025 14:24:05 GMT-0600 (Central Standard Time),238846.60000002384,A,corn,O,n,95,,933.1999999284744,237913.40000009537,7240,WL,C,10.0
2,13.912000179290771,learn,46087.99982070923,Fri Nov 14 2025 14:24:05 GMT-0600 (Central Standard Time),239079.30000007153,A,cornenter,O,enter,224,,1165.8999999761581,237913.40000009537,7240,WL,C,10.0
2,15.394999980926514,learn,44605.000019073486,Fri Nov 14 2025 14:24:05 GMT-0600 (Central Standard Time),240562.10000002384,A,l,O,l,1463,,1482.6000000238419,239079.5,7240,WL,C,11.0
2,15.496000051498413,learn,44503.99994850159,Fri Nov 14 2025 14:24:05 GMT-0600 (Central Standard Time),240662.60000002384,A,le,O,e,95,,1583.1000000238419,239079.5,7240,WL,C,11.0
2,15.67900013923645,learn,44320.99986076355,Fri Nov 14 2025 14:24:05 GMT-0600 (Central Standard Time),240845.60000002384,A,let,O,t,164,,1766.1000000238419,239079.5,7240,WL,C,11.0
2,15.814000129699707,learn,44185.99987030029,Fri Nov 14 2025 14:24:05 GMT-0600 (Central Standard Time),240980.5,A,lett,O,t,123,,1901.0,239079.5,7240,WL,C,11.0
2,15.914000034332275,learn,44085.999965667725,Fri Nov 14 2025 14:24:05 GMT-0600 (Central Standard Time),241081.20000004768,A,lette,O,e,97,,2001.7000000476837,239079.5,7240,WL,C,11.0
2,15.996000051498413,learn,44003.99994850159,Fri Nov 14 2025 14:24:05 GMT-0600 (Central Standard Time),241162.40000009537,A,letter,O,r,62,,2082.9000000953674,239079.5,7240,WL,C,11.0
2,16.111999988555908,learn,43888.00001144409,Fri Nov 14 2025 14:24:05 GMT-0600 (Central Standard Time),241278.90000009537,A,letterenter,O,enter,107,,2199.4000000953674,239079.5,7240,WL,C,11.0
2,18.028000116348267,learn,41971.99988365173,Fri Nov 14 2025 14:24:05 GMT-0600 (Central Standard Time),243195.10000002384,A,n,O,n,1897,,1915.8999999761581,241279.20000004768,7240,WL,C,12.0
2,18.19600009918213,learn,41803.99990081787,Fri Nov 14 2025 14:24:05 GMT-0600 (Central Standard Time),243362.40000009537,A,na,O,a,149,,2083.2000000476837,241279.20000004768,7240,WL,C,12.0
2,18.344000101089478,learn,41655.99989891052,Fri Nov 14 2025 14:24:05 GMT-0600 (Central Standard Time),243511.10000002384,A,nai,O,i,141,,2231.899999976158,241279.20000004768,7240,WL,C,12.0
2,18.478000164031982,learn,41521.99983596802,Fri Nov 14 2025 14:24:05 GMT-0600 (Central Standard Time),243645.0,A,nail,O,l,131,,2365.7999999523163,241279.20000004768,7240,WL,C,12.0
2,18.894999980926514,learn,41105.000019073486,Fri Nov 14 2025 14:24:05 GMT-0600 (Central Standard Time),244061.5,A,nailenter,O,enter,404,,2782.2999999523163,241279.20000004768,7240,WL,C,12.0
2,27.12600016593933,learn,32873.99983406067,Fri Nov 14 2025 14:24:05 GMT-0600 (Central Standard Time),252292.40000009537,A,p,O,p,8210,,8230.700000047684,244061.70000004768,7240,WL,C,13.0
2,27.52500009536743,learn,32474.99990463257,Fri Nov 14 2025 14:24:05 GMT-0600 (Central Standard Time),252692.20000004768,A,po,O,o,387,,8630.5,244061.70000004768,7240,WL,C,13.0
2,27.89199995994568,learn,32108.00004005432,Fri Nov 14 2025 14:24:05 GMT-0600 (Central Standard Time),253059.10000002384,A,pop,O,p,356,,8997.399999976158,244061.70000004768,7240,WL,C,13.0
2,28.407999992370605,learn,31592.000007629395,Fri Nov 14 2025 14:24:05 GMT-0600 (Central Standard Time),253575.0,A,po,O,backspace,509,,9513.299999952316,244061.70000004768,7240,WL,C,13.0
2,28.657999992370605,learn,31342.000007629395,Fri Nov 14 2025 14:24:05 GMT-0600 (Central Standard Time),253824.5,A,poo,O,o,233,,9762.799999952316,244061.70000004768,7240,WL,C,13.0
2,28.874000072479248,learn,31125.999927520752,Fri Nov 14 2025 14:24:05 GMT-0600 (Central Standard Time),254040.5,A,poop,O,p,207,,9978.799999952316,244061.70000004768,7240,WL,C,13.0
2,29.19000005722046,learn,30809.99994277954,Fri Nov 14 2025 14:24:05 GMT-0600 (Central Standard Time),254357.10000002384,A,poopenter,O,enter,303,,10295.399999976158,244061.70000004768,7240,WL,C,13.0
2,29.52400016784668,learn,30475.99983215332,Fri Nov 14 2025 14:24:05 GMT-0600 (Central Standard Time),254690.40000009537,A,p,O,p,323,,333.10000002384186,254357.30000007153,7240,WL,C,14.0
2,29.758000135421753,learn,30241.999864578247,Fri Nov 14 2025 14:24:05 GMT-0600 (Central Standard Time),254924.30000007153,A,po,O,o,230,,567.0,254357.30000007153,7240,WL,C,14.0
2,29.907999992370605,learn,30092.000007629395,Fri Nov 14 2025 14:24:05 GMT-0600 (Central Standard Time),255074.70000004768,A,poo,O,o,140,,717.3999999761581,254357.30000007153,7240,WL,C,14.0
2,30.008000135421753,learn,29991.999864578247,Fri Nov 14 2025 14:24:05 GMT-0600 (Central Standard Time),255174.90000009537,A,poop,O,p,86,,817.6000000238419,254357.30000007153,7240,WL,C,14.0
2,30.29100012779236,learn,29708.99987220764,Fri Nov 14 2025 14:24:05 GMT-0600 (Central Standard Time),255457.70000004768,A,poopenter,O,enter,265,,1100.3999999761581,254357.30000007153,7240,WL,C,14.0
2,31.057000160217285,learn,28942.999839782715,Fri Nov 14 2025 14:24:05 GMT-0600 (Central Standard Time),256223.80000007153,A,enter,O,enter,751,,765.8999999761581,255457.90000009537,7240,WL,C,15.0
3,0.7650001049041748,learn,59234.999895095825,Fri Nov 14 2025 14:24:05 GMT-0600 (Central Standard Time),323419.40000009537,A,t,O,t,753,,765.4000000953674,322654.0,7240,WL,C,1.0
3,0.9660000801086426,learn,59033.99991989136,Fri Nov 14 2025 14:24:05 GMT-0600 (Central Standard Time),323620.2000000477,A,to,O,o,188,,966.2000000476837,322654.0,7240,WL,C,1.0
3,1.0490000247955322,learn,58950.99997520447,Fri Nov 14 2025 14:24:05 GMT-0600 (Central Standard Time),323702.8000000715,A,tow,O,w,75,,1048.8000000715256,322654.0,7240,WL,C,1.0
3,1.1649999618530273,learn,58835.00003814697,Fri Nov 14 2025 14:24:05 GMT-0600 (Central Standard Time),323819.40000009537,A,towe,O,e,96,,1165.4000000953674,322654.0,7240,WL,C,1.0
3,1.2320001125335693,learn,58767.99988746643,Fri Nov 14 2025 14:24:05 GMT-0600 (Central Standard Time),323886.40000009537,A,tower,O,r,60,,1232.4000000953674,322654.0,7240,WL,C,1.0
3,1.6150000095367432,learn,58384.99999046326,Fri Nov 14 2025 14:24:05 GMT-0600 (Central Standard Time),324269.0,A,towerenter,O,enter,369,,1615.0,322654.0,7240,WL,C,1.0
3,1.8819999694824219,learn,58118.00003051758,Fri Nov 14 2025 14:24:05 GMT-0600 (Central Standard Time),324536.0,A,w,O,w,252,,266.89999997615814,324269.10000002384,7240,WL,C,2.0
3,2.0480000972747803,learn,57951.99990272522,Fri Nov 14 2025 14:24:05 GMT-0600 (Central Standard Time),324702.40000009537,A,wh,O,h,159,,433.3000000715256,324269.10000002384,7240,WL,C,2.0
3,2.13100004196167,learn,57868.99995803833,Fri Nov 14 2025 14:24:05 GMT-0600 (Central Standard Time),324785.40000009537,A,whe,O,e,74,,516.3000000715256,324269.10000002384,7240,WL,C,2.0
3,2.2310001850128174,learn,57768.99981498718,Fri Nov 14 2025 14:24:05 GMT-0600 (Central Standard Time),324885.60000002384,A,whea,O,a,85,,616.5,324269.10000002384,7240,WL,C,2.0
3,2.3480000495910645,learn,57651.999950408936,Fri Nov 14 2025 14:24:05 GMT-0600 (Central Standard Time),325002.10000002384,A,wheat,O,t,105,,733.0,324269.10000002384,7240,WL,C,2.0
3,2.63100004196167,learn,57368.99995803833,Fri Nov 14 2025 14:24:05 GMT-0600 (Central Standard Time),325285.2000000477,A,wheatenter,O,enter,271,,1016.1000000238419,324269.10000002384,7240,WL,C,2.0
3,2.9650001525878906,learn,57034.99984741211,Fri Nov 14 2025 14:24:05 GMT-0600 (Central Standard Time),325618.7000000477,A,q,O,q,313,,333.2000000476837,325285.5,7240,WL,C,3.0
3,3.115000009536743,learn,56884.99999046326,Fri Nov 14 2025 14:24:05 GMT-0600 (Central Standard Time),325768.8000000715,A,qu,O,u,141,,483.3000000715256,325285.5,7240,WL,C,3.0
3,3.264000177383423,learn,56735.99982261658,Fri Nov 14 2025 14:24:05 GMT-0600 (Central Standard Time),325918.0,A,que,O,e,144,,632.5,325285.5,7240,WL,C,3.0
3,3.430999994277954,learn,56569.000005722046,Fri Nov 14 2025 14:24:05 GMT-0600 (Central Standard Time),326085.3000000715,A,quee,O,e,153,,799.8000000715256,325285.5,7240,WL,C,3.0
3,3.5320000648498535,learn,56467.99993515015,Fri Nov 14 2025 14:24:05 GMT-0600 (Central Standard Time),326186.2000000477,A,queen,O,n,82,,900.7000000476837,325285.5,7240,WL,C,3.0
3,4.016000032424927,learn,55983.99996757507,Fri Nov 14 2025 14:24:05 GMT-0600 (Central Standard Time),326670.3000000715,A,queenenter,O,enter,470,,1384.8000000715256,325285.5,7240,WL,C,3.0
3,4.21399998664856,learn,55786.00001335144,Fri Nov 14 2025 14:24:05 GMT-0600 (Central Standard Time),326867.7000000477,A,s,O,s,192,,196.20000004768372,326671.5,7240,WL,C,4.0
3,4.3480000495910645,learn,55651.999950408936,Fri Nov 14 2025 14:24:05 GMT-0600 (Central Standard Time),327001.8000000715,A,su,O,u,116,,330.3000000715256,326671.5,7240,WL,C,4.0
3,4.547000169754028,learn,55452.99983024597,Fri Nov 14 2025 14:24:05 GMT-0600 (Central Standard Time),327200.7000000477,A,sug,O,g,182,,529.2000000476837,326671.5,7240,WL,C,4.0
3,4.731000185012817,learn,55268.99981498718,Fri Nov 14 2025 14:24:05 GMT-0600 (Central Standard Time),327385.3000000715,A,suga,O,a,167,,713.8000000715256,326671.5,7240,WL,C,4.0
3,4.8470001220703125,learn,55152.99987792969,Fri Nov 14 2025 14:24:05 GMT-0600 (Central Standard Time),327501.7000000477,A,sugar,O,r,103,,830.2000000476837,326671.5,7240,WL,C,4.0
3,5.164000034332275,learn,54835.999965667725,Fri Nov 14 2025 14:24:05 GMT-0600 (Central Standard Time),327817.90000009537,A,sugarenter,O,enter,298,,1146.4000000953674,326671.5,7240,WL,C,4.0
3,5.914000034332275,learn,54085.999965667725,Fri Nov 14 2025 14:24:05 GMT-0600 (Central Standard Time),328568.2000000477,A,h,O,h,743,,750.1000000238419,327818.10000002384,7240,WL,C,5.0
3,6.0299999713897705,learn,53970.00002861023,Fri Nov 14 2025 14:24:05 GMT-0600 (Central Standard Time),328684.40000009537,A,ho,O,o,112,,866.3000000715256,327818.10000002384,7240,WL,C,5.0
3,6.147000074386597,learn,53852.9999256134,Fri Nov 14 2025 14:24:05 GMT-0600 (Central Standard Time),328801.3000000715,A,hom,O,m,108,,983.2000000476837,327818.10000002384,7240,WL,C,5.0
3,6.246999979019165,learn,53753.000020980835,Fri Nov 14 2025 14:24:05 GMT-0600 (Central Standard Time),328900.8000000715,A,home,O,e,94,,1082.7000000476837,327818.10000002384,7240,WL,C,5.0
3,6.398000001907349,learn,53601.99999809265,Fri Nov 14 2025 14:24:05 GMT-0600 (Central Standard Time),329051.90000009537,A,homeenter,O,enter,139,,1233.8000000715256,327818.10000002384,7240,WL,C,5.0
3,6.578999996185303,learn,53421.0000038147,Fri Nov 14 2025 14:24:05 GMT-0600 (Central Standard Time),329233.40000009537,A,b,O,b,164,,181.40000009536743,329052.0,7240,WL,C,6.0
3,6.663000106811523,learn,53336.99989318848,Fri Nov 14 2025 14:24:05 GMT-0600 (Central Standard Time),329317.3000000715,A,bo,O,o,80,,265.3000000715256,329052.0,7240,WL,C,6.0
3,6.863000154495239,learn,53136.99984550476,Fri Nov 14 2025 14:24:05 GMT-0600 (Central Standard Time),329517.5,A,boy,O,y,186,,465.5,329052.0,7240,WL,C,6.0
3,7.180000066757202,learn,52819.9999332428,Fri Nov 14 2025 14:24:05 GMT-0600 (Central Standard Time),329833.7000000477,A,boyenter,O,enter,298,,781.7000000476837,329052.0,7240,WL,C,6.0
3,7.413000106811523,learn,52586.99989318848,Fri Nov 14 2025 14:24:05 GMT-0600 (Central Standard Time),330067.0,A,d,O,d,221,,232.89999997615814,329834.10000002384,7240,WL,C,7.0
3,7.496999979019165,learn,52503.000020980835,Fri Nov 14 2025 14:24:05 GMT-0600 (Central Standard Time),330150.90000009537,A,do,O,o,77,,316.8000000715256,329834.10000002384,7240,WL,C,7.0
3,7.614000082015991,learn,52385.99991798401,Fri Nov 14 2025 14:24:05 GMT-0600 (Central Standard Time),330267.90000009537,A,doc,O,c,114,,433.8000000715256,329834.10000002384,7240,WL,C,7.0
3,7.830000162124634,learn,52169.999837875366,Fri Nov 14 2025 14:24:05 GMT-0600 (Central Standard Time),330484.3000000715,A,doct,O,t,204,,650.2000000476837,329834.10000002384,7240,WL,C,7.0
3,7.963000059127808,learn,52036.99994087219,Fri Nov 14 2025 14:24:05 GMT-0600 (Central Standard Time),330616.8000000715,A,docto,O,o,116,,782.7000000476837,329834.10000002384,7240,WL,C,7.0
3,8.029000043869019,learn,51970.99995613098,Fri Nov 14 2025 14:24:05 GMT-0600 (Central Standard Time),330683.5,A,doctor,O,r,55,,849.3999999761581,329834.10000002384,7240,WL,C,7.0
3,9.546000003814697,learn,50453.9999961853,Fri Nov 14 2025 14:24:05 GMT-0600 (Central Standard Time),332200.0,A,doctorenter,O,enter,1500,,2365.899999976158,329834.10000002384,7240,WL,C,7.0
3,10.029000043869019,learn,49970.99995613098,Fri Nov 14 2025 14:24:05 GMT-0600 (Central Standard Time),332682.8000000715,A,l,O,l,471,,482.5,332200.3000000715,7240,WL,C,8.0
3,10.111999988555908,learn,49888.00001144409,Fri Nov 14 2025 14:24:05 GMT-0600 (Central Standard Time),332766.3000000715,A,le,O,e,77,,566.0,332200.3000000715,7240,WL,C,8.0
3,10.279000043869019,learn,49720.99995613098,Fri Nov 14 2025 14:24:05 GMT-0600 (Central Standard Time),332933.10000002384,A,let,O,t,153,,732.7999999523163,332200.3000000715,7240,WL,C,8.0
3,10.42900013923645,learn,49570.99986076355,Fri Nov 14 2025 14:24:05 GMT-0600 (Central Standard Time),333083.40000009537,A,lett,O,t,139,,883.1000000238419,332200.3000000715,7240,WL,C,8.0
3,10.546000003814697,learn,49453.9999961853,Fri Nov 14 2025 14:24:05 GMT-0600 (Central Standard Time),333199.60000002384,A,lette,O,e,100,,999.2999999523163,332200.3000000715,7240,WL,C,8.0
3,10.611999988555908,learn,49388.00001144409,Fri Nov 14 2025 14:24:05 GMT-0600 (Central Standard Time),333266.10000002384,A,letter,O,r,48,,1065.7999999523163,332200.3000000715,7240,WL,C,8.0
3,10.896000146865845,learn,49103.999853134155,Fri Nov 14 2025 14:24:05 GMT-0600 (Central Standard Time),333550.5,A,letterenter,O,enter,269,,1350.1999999284744,332200.3000000715,7240,WL,C,8.0
3,13.111000061035156,learn,46888.999938964844,Fri Nov 14 2025 14:24:05 GMT-0600 (Central Standard Time),335765.3000000715,A,c,O,c,2209,,2214.600000023842,333550.7000000477,7240,WL,C,9.0
3,13.210999965667725,learn,46789.000034332275,Fri Nov 14 2025 14:24:05 GMT-0600 (Central Standard Time),335865.3000000715,A,ca,O,a,90,,2314.600000023842,333550.7000000477,7240,WL,C,9.0
3,13.278000116348267,learn,46721.99988365173,Fri Nov 14 2025 14:24:05 GMT-0600 (Central Standard Time),335932.0,A,cam,O,m,54,,2381.2999999523163,333550.7000000477,7240,WL,C,9.0
3,13.478000164031982,learn,46521.99983596802,Fri Nov 14 2025 14:24:05 GMT-0600 (Central Standard Time),336132.2000000477,A,camp,O,p,180,,2581.5,333550.7000000477,7240,WL,C,9.0
3,13.779000043869019,learn,46220.99995613098,Fri Nov 14 2025 14:24:05 GMT-0600 (Central Standard Time),336432.8000000715,A,campenter,O,enter,285,,2882.100000023842,333550.7000000477,7240,WL,C,9.0
3,14.028000116348267,learn,45971.99988365173,Fri Nov 14 2025 14:24:05 GMT-0600 (Central Standard Time),336682.2000000477,A,f,O,f,230,,249.20000004768372,336433.0,7240,WL,C,10.0
3,14.127000093460083,learn,45872.99990653992,Fri Nov 14 2025 14:24:05 GMT-0600 (Central Standard Time),336781.40000009537,A,fl,O,l,85,,348.40000009536743,336433.0,7240,WL,C,10.0
3,14.212000131607056,learn,45787.999868392944,Fri Nov 14 2025 14:24:05 GMT-0600 (Central Standard Time),336865.7000000477,A,fla,O,a,67,,432.7000000476837,336433.0,7240,WL,C,10.0
3,14.41100001335144,learn,45588.99998664856,Fri Nov 14 2025 14:24:05 GMT-0600 (Central Standard Time),337065.10000002384,A,flag,O,g,180,,632.1000000238419,336433.0,7240,WL,C,10.0
3,14.74400019645691,learn,45255.99980354309,Fri Nov 14 2025 14:24:05 GMT-0600 (Central Standard Time),337397.90000009537,A,flagenter,O,enter,319,,964.9000000953674,336433.0,7240,WL,C,10.0
3,15.144000053405762,learn,44855.99994659424,Fri Nov 14 2025 14:24:05 GMT-0600 (Central Standard Time),337797.90000009537,A,c,O,c,386,,399.7000000476837,337398.2000000477,7240,WL,C,11.0
3,15.24400019645691,learn,44755.99980354309,Fri Nov 14 2025 14:24:05 GMT-0600 (Central Standard Time),337898.5,A,co,O,o,82,,500.2999999523163,337398.2000000477,7240,WL,C,11.0
3,15.378000020980835,learn,44621.999979019165,Fri Nov 14 2025 14:24:05 GMT-0600 (Central Standard Time),338031.60000002384,A,cor,O,r,125,,633.3999999761581,337398.2000000477,7240,WL,C,11.0
3,15.527000188827515,learn,44472.999811172485,Fri Nov 14 2025 14:24:05 GMT-0600 (Central Standard Time),338181.5,A,corn,O,n,144,,783.2999999523163,337398.2000000477,7240,WL,C,11.0
3,15.777000188827515,learn,44222.999811172485,Fri Nov 14 2025 14:24:05 GMT-0600 (Central Standard Time),338431.10000002384,A,cornenter,O,enter,235,,1032.8999999761581,337398.2000000477,7240,WL,C,11.0
3,16.009999990463257,learn,43990.00000953674,Fri Nov 14 2025 14:24:05 GMT-0600 (Central Standard Time),338663.60000002384,A,n,O,n,224,,232.29999995231628,338431.3000000715,7240,WL,C,12.0
3,16.111000061035156,learn,43888.999938964844,Fri Nov 14 2025 14:24:05 GMT-0600 (Central Standard Time),338765.3000000715,A,na,O,a,97,,334.0,338431.3000000715,7240,WL,C,12.0
3,16.2260000705719,learn,43773.9999294281,Fri Nov 14 2025 14:24:05 GMT-0600 (Central Standard Time),338880.3000000715,A,nai,O,i,108,,449.0,338431.3000000715,7240,WL,C,12.0
3,16.343000173568726,learn,43656.999826431274,Fri Nov 14 2025 14:24:05 GMT-0600 (Central Standard Time),338997.40000009537,A,nail,O,l,102,,566.1000000238419,338431.3000000715,7240,WL,C,12.0
3,16.57800006866455,learn,43421.99993133545,Fri Nov 14 2025 14:24:05 GMT-0600 (Central Standard Time),339231.90000009537,A,nailenter,O,enter,226,,800.6000000238419,338431.3000000715,7240,WL,C,12.0
3,16.776000022888184,learn,43223.99997711182,Fri Nov 14 2025 14:24:05 GMT-0600 (Central Standard Time),339430.40000009537,A,c,O,c,191,,198.40000009536743,339232.0,7240,WL,C,13.0
3,16.860000133514404,learn,43139.999866485596,Fri Nov 14 2025 14:24:05 GMT-0600 (Central Standard Time),339514.3000000715,A,ca,O,a,74,,282.3000000715256,339232.0,7240,WL,C,13.0
3,17.061000108718872,learn,42938.99989128113,Fri Nov 14 2025 14:24:05 GMT-0600 (Central Standard Time),339715.2000000477,A,cat,O,t,181,,483.2000000476837,339232.0,7240,WL,C,13.0
3,17.210999965667725,learn,42789.000034332275,Fri Nov 14 2025 14:24:05 GMT-0600 (Central Standard Time),339864.60000002384,A,catt,O,t,133,,632.6000000238419,339232.0,7240,WL,C,13.0
3,17.31000018119812,learn,42689.99981880188,Fri Nov 14 2025 14:24:05 GMT-0600 (Central Standard Time),339963.8000000715,A,cattl,O,l,79,,731.8000000715256,339232.0,7240,WL,C,13.0
3,17.39300012588501,learn,42606.99987411499,Fri Nov 14 2025 14:24:05 GMT-0600 (Central Standard Time),340047.3000000715,A,cattle,O,e,67,,815.3000000715256,339232.0,7240,WL,C,13.0
3,18.24400019645691,learn,41755.99980354309,Fri Nov 14 2025 14:24:05 GMT-0600 (Central Standard Time),340897.7000000477,A,cattleenter,O,enter,832,,1665.7000000476837,339232.0,7240,WL,C,13.0
3,18.693000078201294,learn,41306.999921798706,Fri Nov 14 2025 14:24:05 GMT-0600 (Central Standard Time),341347.0,A,s,O,s,438,,449.0,340898.0,7240,WL,C,14.0
3,18.776000022888184,learn,41223.99997711182,Fri Nov 14 2025 14:24:05 GMT-0600 (Central Standard Time),341430.3000000715,A,sh,O,h,78,,532.3000000715256,340898.0,7240,WL,C,14.0
3,18.860000133514404,learn,41139.999866485596,Fri Nov 14 2025 14:24:05 GMT-0600 (Central Standard Time),341513.90000009537,A,sho,O,o,73,,615.9000000953674,340898.0,7240,WL,C,14.0
3,18.926000118255615,learn,41073.999881744385,Fri Nov 14 2025 14:24:05 GMT-0600 (Central Standard Time),341580.5,A,shor,O,r,63,,682.5,340898.0,7240,WL,C,14.0
3,19.093000173568726,learn,40906.999826431274,Fri Nov 14 2025 14:24:05 GMT-0600 (Central Standard Time),341746.8000000715,A,short,O,t,156,,848.8000000715256,340898.0,7240,WL,C,14.0
3,19.259000062942505,learn,40740.999937057495,Fri Nov 14 2025 14:24:05 GMT-0600 (Central Standard Time),341913.0,A,shortenter,O,enter,149,,1015.0,340898.0,7240,WL,C,14.0
3,19.443000078201294,learn,40556.999921798706,Fri Nov 14 2025 14:24:05 GMT-0600 (Central Standard Time),342096.8000000715,A,b,O,b,175,,183.60000002384186,341913.2000000477,7240,WL,C,15.0
3,19.54200005531311,learn,40457.99994468689,Fri Nov 14 2025 14:24:05 GMT-0600 (Central Standard Time),342196.10000002384,A,bo,O,o,96,,282.89999997615814,341913.2000000477,7240,WL,C,15.0
3,19.70900011062622,learn,40290.99988937378,Fri Nov 14 2025 14:24:05 GMT-0600 (Central Standard Time),342363.40000009537,A,bod,O,d,148,,450.2000000476837,341913.2000000477,7240,WL,C,15.0
3,19.87600016593933,learn,40123.99983406067,Fri Nov 14 2025 14:24:05 GMT-0600 (Central Standard Time),342530.0,A,body,O,y,148,,616.7999999523163,341913.2000000477,7240,WL,C,15.0
3,20.176000118255615,learn,39823.999881744385,Fri Nov 14 2025 14:24:05 GMT-0600 (Central Standard Time),342829.8000000715,A,bodyenter,O,enter,294,,916.6000000238419,341913.2000000477,7240,WL,C,15.0
4,1.9670000076293945,learn,58032.999992370605,Fri Nov 14 2025 14:24:05 GMT-0600 (Central Standard Time),410408.40000009537,A,t,O,t,1950,,1966.1000000238419,408442.3000000715,7240,WL,C,1.0
4,2.0839998722076416,learn,57916.00012779236,Fri Nov 14 2025 14:24:05 GMT-0600 (Central Standard Time),410526.10000002384,A,to,O,o,114,,2083.7999999523163,408442.3000000715,7240,WL,C,1.0
4,2.2170000076293945,learn,57782.999992370605,Fri Nov 14 2025 14:24:05 GMT-0600 (Central Standard Time),410658.8000000715,A,tow,O,w,112,,2216.5,408442.3000000715,7240,WL,C,1.0
4,2.316999912261963,learn,57683.00008773804,Fri Nov 14 2025 14:24:05 GMT-0600 (Central Standard Time),410758.3000000715,A,towe,O,e,94,,2316.0,408442.3000000715,7240,WL,C,1.0
4,2.4159998893737793,learn,57584.00011062622,Fri Nov 14 2025 14:24:05 GMT-0600 (Central Standard Time),410858.0,A,tower,O,r,81,,2415.6999999284744,408442.3000000715,7240,WL,C,1.0
4,2.919999837875366,learn,57080.000162124634,Fri Nov 14 2025 14:24:05 GMT-0600 (Central Standard Time),411361.10000002384,A,towerenter,O,enter,493,,2918.7999999523163,408442.3000000715,7240,WL,C,1.0
4,3.232999801635742,learn,56767.00019836426,Fri Nov 14 2025 14:24:05 GMT-0600 (Central Standard Time),411675.0,A,w,O,w,287,,313.6999999284744,411361.3000000715,7240,WL,C,2.0
4,3.3329999446868896,learn,56667.00005531311,Fri Nov 14 2025 14:24:05 GMT-0600 (Central Standard Time),411775.0,A,wh,O,h,93,,413.6999999284744,411361.3000000715,7240,WL,C,2.0
4,3.432999849319458,learn,56567.00015068054,Fri Nov 14 2025 14:24:05 GMT-0600 (Central Standard Time),411874.40000009537,A,whe,O,e,81,,513.1000000238419,411361.3000000715,7240,WL,C,2.0
4,3.4659998416900635,learn,56534.00015830994,Fri Nov 14 2025 14:24:05 GMT-0600 (Central Standard Time),411907.7000000477,A,whea,O,a,29,,546.3999999761581,411361.3000000715,7240,WL,C,2.0
4,3.5839998722076416,learn,56416.00012779236,Fri Nov 14 2025 14:24:05 GMT-0600 (Central Standard Time),412025.10000002384,A,wheat,O,t,110,,663.7999999523163,411361.3000000715,7240,WL,C,2.0
4,3.9169998168945312,learn,56083.00018310547,Fri Nov 14 2025 14:24:05 GMT-0600 (Central Standard Time),412358.10000002384,A,wheatenter,O,enter,327,,996.7999999523163,411361.3000000715,7240,WL,C,2.0
4,4.182999849319458,learn,55817.00015068054,Fri Nov 14 2025 14:24:05 GMT-0600 (Central Standard Time),412624.60000002384,A,q,O,q,251,,266.2999999523163,412358.3000000715,7240,WL,C,3.0
4,4.298999786376953,learn,55701.00021362305,Fri Nov 14 2025 14:24:05 GMT-0600 (Central Standard Time),412741.0,A,qu,O,u,103,,382.6999999284744,412358.3000000715,7240,WL,C,3.0
4,4.398999929428101,learn,55601.0000705719,Fri Nov 14 2025 14:24:05 GMT-0600 (Central Standard Time),412840.8000000715,A,que,O,e,91,,482.5,412358.3000000715,7240,WL,C,3.0
4,4.599999904632568,learn,55400.00009536743,Fri Nov 14 2025 14:24:05 GMT-0600 (Central Standard Time),413041.40000009537,A,quee,O,e,190,,683.1000000238419,412358.3000000715,7240,WL,C,3.0
4,4.781999826431274,learn,55218.000173568726,Fri Nov 14 2025 14:24:05 GMT-0600 (Central Standard Time),413224.10000002384,A,queen,O,n,166,,865.7999999523163,412358.3000000715,7240,WL,C,3.0
4,5.298999786376953,learn,54701.00021362305,Fri Nov 14 2025 14:24:05 GMT-0600 (Central Standard Time),413740.3000000715,A,queenenter,O,enter,504,,1382.0,412358.3000000715,7240,WL,C,3.0
4,5.848999977111816,learn,54151.00002288818,Fri Nov 14 2025 14:24:05 GMT-0600 (Central Standard Time),414291.0,A,s,O,s,532,,550.5,413740.5,7240,WL,C,4.0
4,6.047999858856201,learn,53952.0001411438,Fri Nov 14 2025 14:24:05 GMT-0600 (Central Standard Time),414489.5,A,su,O,u,181,,749.0,413740.5,7240,WL,C,4.0
4,6.25,learn,53750.0,Fri Nov 14 2025 14:24:05 GMT-0600 (Central Standard Time),414691.40000009537,A,sug,O,g,182,,950.9000000953674,413740.5,7240,WL,C,4.0
4,6.447999954223633,learn,53552.00004577637,Fri Nov 14 2025 14:24:05 GMT-0600 (Central Standard Time),414890.0,A,suga,O,a,188,,1149.5,413740.5,7240,WL,C,4.0
4,6.548999786376953,learn,53451.00021362305,Fri Nov 14 2025 14:24:05 GMT-0600 (Central Standard Time),414990.3000000715,A,sugar,O,r,95,,1249.8000000715256,413740.5,7240,WL,C,4.0
4,6.816999912261963,learn,53183.00008773804,Fri Nov 14 2025 14:24:05 GMT-0600 (Central Standard Time),415258.2000000477,A,sugarenter,O,enter,258,,1517.7000000476837,413740.5,7240,WL,C,4.0
4,7.148000001907349,learn,52851.99999809265,Fri Nov 14 2025 14:24:05 GMT-0600 (Central Standard Time),415589.8000000715,A,h,O,h,327,,331.39999997615814,415258.40000009537,7240,WL,C,5.0
4,7.281999826431274,learn,52718.000173568726,Fri Nov 14 2025 14:24:05 GMT-0600 (Central Standard Time),415723.40000009537,A,ho,O,o,123,,465.0,415258.40000009537,7240,WL,C,5.0
4,7.430999994277954,learn,52569.000005722046,Fri Nov 14 2025 14:24:05 GMT-0600 (Central Standard Time),415872.90000009537,A,hom,O,m,140,,614.5,415258.40000009537,7240,WL,C,5.0
4,7.514999866485596,learn,52485.000133514404,Fri Nov 14 2025 14:24:05 GMT-0600 (Central Standard Time),415956.2000000477,A,home,O,e,80,,697.7999999523163,415258.40000009537,7240,WL,C,5.0
4,7.7809998989105225,learn,52219.00010108948,Fri Nov 14 2025 14:24:05 GMT-0600 (Central Standard Time),416223.0,A,homeenter,O,enter,260,,964.5999999046326,415258.40000009537,7240,WL,C,5.0
4,8.047999858856201,learn,51952.0001411438,Fri Nov 14 2025 14:24:05 GMT-0600 (Central Standard Time),416489.7000000477,A,b,O,b,249,,266.39999997615814,416223.3000000715,7240,WL,C,6.0
4,8.13099980354309,learn,51869.00019645691,Fri Nov 14 2025 14:24:05 GMT-0600 (Central Standard Time),416573.0,A,bo,O,o,70,,349.6999999284744,416223.3000000715,7240,WL,C,6.0
4,8.330999851226807,learn,51669.00014877319,Fri Nov 14 2025 14:24:05 GMT-0600 (Central Standard Time),416772.8000000715,A,boy,O,y,188,,549.5,416223.3000000715,7240,WL,C,6.0
4,8.631999969482422,learn,51368.00003051758,Fri Nov 14 2025 14:24:05 GMT-0600 (Central Standard Time),417073.7000000477,A,boyenter,O,enter,291,,850.3999999761581,416223.3000000715,7240,WL,C,6.0
4,8.81499981880188,learn,51185.00018119812,Fri Nov 14 2025 14:24:05 GMT-0600 (Central Standard Time),417257.0,A,d,O,d,165,,183.09999990463257,417073.90000009537,7240,WL,C,7.0
4,8.931999921798706,learn,51068.000078201294,Fri Nov 14 2025 14:24:05 GMT-0600 (Central Standard Time),417373.10000002384,A,do,O,o,103,,299.1999999284744,417073.90000009537,7240,WL,C,7.0
4,9.115000009536743,learn,50884.99999046326,Fri Nov 14 2025 14:24:05 GMT-0600 (Central Standard Time),417556.2000000477,A,doc,O,c,170,,482.2999999523163,417073.90000009537,7240,WL,C,7.0
4,9.330999851226807,learn,50669.00014877319,Fri Nov 14 2025 14:24:05 GMT-0600 (Central Standard Time),417772.3000000715,A,doct,O,t,204,,698.3999999761581,417073.90000009537,7240,WL,C,7.0
4,9.381999969482422,learn,50618.00003051758,Fri Nov 14 2025 14:24:05 GMT-0600 (Central Standard Time),417823.60000002384,A,docto,O,o,43,,749.6999999284744,417073.90000009537,7240,WL,C,7.0
4,9.513999938964844,learn,50486.000061035156,Fri Nov 14 2025 14:24:05 GMT-0600 (Central Standard Time),417955.90000009537,A,doctor,O,r,113,,882.0,417073.90000009537,7240,WL,C,7.0
4,9.863999843597412,learn,50136.00015640259,Fri Nov 14 2025 14:24:05 GMT-0600 (Central Standard Time),418305.7000000477,A,doctorenter,O,enter,341,,1231.7999999523163,417073.90000009537,7240,WL,C,7.0
4,12.04699993133545,learn,47953.00006866455,Fri Nov 14 2025 14:24:05 GMT-0600 (Central Standard Time),420488.5,A,c,O,c,2167,,2182.5,418306.0,7240,WL,C,8.0
4,12.13099980354309,learn,47869.00019645691,Fri Nov 14 2025 14:24:05 GMT-0600 (Central Standard Time),420572.5,A,ca,O,a,72,,2266.5,418306.0,7240,WL,C,8.0
4,12.229999780654907,learn,47770.00021934509,Fri Nov 14 2025 14:24:05 GMT-0600 (Central Standard Time),420671.5,A,cam,O,m,92,,2365.5,418306.0,7240,WL,C,8.0
4,12.363999843597412,learn,47636.00015640259,Fri Nov 14 2025 14:24:05 GMT-0600 (Central Standard Time),420805.8000000715,A,camp,O,p,132,,2499.8000000715256,418306.0,7240,WL,C,8.0
4,12.679999828338623,learn,47320.00017166138,Fri Nov 14 2025 14:24:05 GMT-0600 (Central Standard Time),421121.7000000477,A,campenter,O,enter,299,,2815.7000000476837,418306.0,7240,WL,C,8.0
4,12.929999828338623,learn,47070.00017166138,Fri Nov 14 2025 14:24:05 GMT-0600 (Central Standard Time),421371.8000000715,A,f,O,f,239,,249.89999997615814,421121.90000009537,7240,WL,C,9.0
4,13.02999997138977,learn,46970.00002861023,Fri Nov 14 2025 14:24:05 GMT-0600 (Central Standard Time),421471.7000000477,A,fl,O,l,82,,349.7999999523163,421121.90000009537,7240,WL,C,9.0
4,13.129999876022339,learn,46870.00012397766,Fri Nov 14 2025 14:24:05 GMT-0600 (Central Standard Time),421571.8000000715,A,fla,O,a,79,,449.89999997615814,421121.90000009537,7240,WL,C,9.0
4,13.263999938964844,learn,46736.000061035156,Fri Nov 14 2025 14:24:05 GMT-0600 (Central Standard Time),421705.40000009537,A,flag,O,g,116,,583.5,421121.90000009537,7240,WL,C,9.0
4,13.52999997138977,learn,46470.00002861023,Fri Nov 14 2025 14:24:05 GMT-0600 (Central Standard Time),421971.10000002384,A,flagenter,O,enter,255,,849.1999999284744,421121.90000009537,7240,WL,C,9.0
4,13.796000003814697,learn,46203.9999961853,Fri Nov 14 2025 14:24:05 GMT-0600 (Central Standard Time),422237.2000000477,A,l,O,l,252,,265.89999997615814,421971.3000000715,7240,WL,C,10.0
4,13.879999876022339,learn,46120.00012397766,Fri Nov 14 2025 14:24:05 GMT-0600 (Central Standard Time),422322.0,A,le,O,e,67,,350.6999999284744,421971.3000000715,7240,WL,C,10.0
4,14.046000003814697,learn,45953.9999961853,Fri Nov 14 2025 14:24:05 GMT-0600 (Central Standard Time),422488.0,A,let,O,t,150,,516.6999999284744,421971.3000000715,7240,WL,C,10.0
4,14.19599986076355,learn,45804.00013923645,Fri Nov 14 2025 14:24:05 GMT-0600 (Central Standard Time),422637.8000000715,A,lett,O,t,143,,666.5,421971.3000000715,7240,WL,C,10.0
4,14.312999963760376,learn,45687.000036239624,Fri Nov 14 2025 14:24:05 GMT-0600 (Central Standard Time),422754.2000000477,A,lette,O,e,98,,782.8999999761581,421971.3000000715,7240,WL,C,10.0
4,14.378999948501587,learn,45621.00005149841,Fri Nov 14 2025 14:24:05 GMT-0600 (Central Standard Time),422820.90000009537,A,letter,O,r,61,,849.6000000238419,421971.3000000715,7240,WL,C,10.0
4,14.563999891281128,learn,45436.00010871887,Fri Nov 14 2025 14:24:05 GMT-0600 (Central Standard Time),423005.40000009537,A,letterenter,O,enter,172,,1034.1000000238419,421971.3000000715,7240,WL,C,10.0
4,15.729999780654907,learn,44270.00021934509,Fri Nov 14 2025 14:24:05 GMT-0600 (Central Standard Time),424171.2000000477,A,c,O,c,1145,,1165.5,423005.7000000477,7240,WL,C,11.0
4,15.794999837875366,learn,44205.000162124634,Fri Nov 14 2025 14:24:05 GMT-0600 (Central Standard Time),424236.7000000477,A,co,O,o,60,,1231.0,423005.7000000477,7240,WL,C,11.0
4,15.962999820709229,learn,44037.00017929077,Fri Nov 14 2025 14:24:05 GMT-0600 (Central Standard Time),424404.40000009537,A,cor,O,r,148,,1398.7000000476837,423005.7000000477,7240,WL,C,11.0
4,16.079999923706055,learn,43920.000076293945,Fri Nov 14 2025 14:24:05 GMT-0600 (Central Standard Time),424521.2000000477,A,corn,O,n,99,,1515.5,423005.7000000477,7240,WL,C,11.0
4,17.061999797821045,learn,42938.000202178955,Fri Nov 14 2025 14:24:05 GMT-0600 (Central Standard Time),425504.10000002384,A,cornenter,O,enter,967,,2498.399999976158,423005.7000000477,7240,WL,C,11.0
4,17.361999988555908,learn,42638.00001144409,Fri Nov 14 2025 14:24:05 GMT-0600 (Central Standard Time),425803.40000009537,A,n,O,n,295,,299.10000002384186,425504.3000000715,7240,WL,C,12.0
4,17.494999885559082,learn,42505.00011444092,Fri Nov 14 2025 14:24:05 GMT-0600 (Central Standard Time),425937.0,A,na,O,a,116,,432.6999999284744,425504.3000000715,7240,WL,C,12.0
4,17.57799983024597,learn,42422.00016975403,Fri Nov 14 2025 14:24:05 GMT-0600 (Central Standard Time),426019.90000009537,A,nai,O,i,79,,515.6000000238419,425504.3000000715,7240,WL,C,12.0
4,17.69599986076355,learn,42304.00013923645,Fri Nov 14 2025 14:24:05 GMT-0600 (Central Standard Time),426137.40000009537,A,nail,O,l,108,,633.1000000238419,425504.3000000715,7240,WL,C,12.0
4,17.977999925613403,learn,42022.0000743866,Fri Nov 14 2025 14:24:05 GMT-0600 (Central Standard Time),426419.7000000477,A,nailenter,O,enter,263,,915.3999999761581,425504.3000000715,7240,WL,C,12.0
4,22.377999782562256,learn,37622.000217437744,Fri Nov 14 2025 14:24:05 GMT-0600 (Central Standard Time),430819.2000000477,A,b,O,b,4379,,4399.200000047684,426420.0,7240,WL,C,13.0
4,22.494999885559082,learn,37505.00011444092,Fri Nov 14 2025 14:24:05 GMT-0600 (Central Standard Time),430936.10000002384,A,bo,O,o,100,,4516.100000023842,426420.0,7240,WL,C,13.0
4,22.709999799728394,learn,37290.00020027161,Fri Nov 14 2025 14:24:05 GMT-0600 (Central Standard Time),431151.60000002384,A,bod,O,d,208,,4731.600000023842,426420.0,7240,WL,C,13.0
4,22.875999927520752,learn,37124.00007247925,Fri Nov 14 2025 14:24:05 GMT-0600 (Central Standard Time),431317.8000000715,A,body,O,y,160,,4897.800000071526,426420.0,7240,WL,C,13.0
4,23.509999990463257,learn,36490.00000953674,Fri Nov 14 2025 14:24:05 GMT-0600 (Central Standard Time),431951.40000009537,A,bodyenter,O,enter,618,,5531.400000095367,426420.0,7240,WL,C,13.0
4,23.942999839782715,learn,36057.000160217285,Fri Nov 14 2025 14:24:05 GMT-0600 (Central Standard Time),432385.0,A,s,O,s,415,,433.39999997615814,431951.60000002384,7240,WL,C,14.0
4,24.109999895095825,learn,35890.000104904175,Fri Nov 14 2025 14:24:05 GMT-0600 (Central Standard Time),432551.90000009537,A,sh,O,h,159,,600.3000000715256,431951.60000002384,7240,WL,C,14.0
4,24.259999990463257,learn,35740.00000953674,Fri Nov 14 2025 14:24:05 GMT-0600 (Central Standard Time),432701.3000000715,A,sho,O,o,136,,749.7000000476837,431951.60000002384,7240,WL,C,14.0
4,24.460999965667725,learn,35539.000034332275,Fri Nov 14 2025 14:24:05 GMT-0600 (Central Standard Time),432902.10000002384,A,shor,O,r,186,,950.5,431951.60000002384,7240,WL,C,14.0
4,24.742999792099,learn,35257.000207901,Fri Nov 14 2025 14:24:05 GMT-0600 (Central Standard Time),433184.8000000715,A,shore,O,e,266,,1233.2000000476837,431951.60000002384,7240,WL,C,14.0
4,25.075999975204468,learn,34924.00002479553,Fri Nov 14 2025 14:24:05 GMT-0600 (Central Standard Time),433517.5,A,shoreenter,O,enter,328,,1565.8999999761581,431951.60000002384,7240,WL,C,14.0
4,27.175999879837036,learn,32824.000120162964,Fri Nov 14 2025 14:24:05 GMT-0600 (Central Standard Time),435617.8000000715,A,c,O,c,2081,,2100.100000023842,433517.7000000477,7240,WL,C,15.0
4,27.342000007629395,learn,32657.999992370605,Fri Nov 14 2025 14:24:05 GMT-0600 (Central Standard Time),435783.90000009537,A,ca,O,a,159,,2266.2000000476837,433517.7000000477,7240,WL,C,15.0
4,27.491999864578247,learn,32508.000135421753,Fri Nov 14 2025 14:24:05 GMT-0600 (Central Standard Time),435933.90000009537,A,cat,O,t,143,,2416.2000000476837,433517.7000000477,7240,WL,C,15.0
4,27.625999927520752,learn,32374.000072479248,Fri Nov 14 2025 14:24:05 GMT-0600 (Central Standard Time),436067.2000000477,A,catt,O,t,123,,2549.5,433517.7000000477,7240,WL,C,15.0
4,27.757999897003174,learn,32242.000102996826,Fri Nov 14 2025 14:24:05 GMT-0600 (Central Standard Time),436200.0,A,cattl,O,l,125,,2682.2999999523163,433517.7000000477,7240,WL,C,15.0
4,27.840999841690063,learn,32159.000158309937,Fri Nov 14 2025 14:24:05 GMT-0600 (Central Standard Time),436282.60000002384,A,cattle,O,e,63,,2764.899999976158,433517.7000000477,7240,WL,C,15.0
4,27.991999864578247,learn,32008.000135421753,Fri Nov 14 2025 14:24:05 GMT-0600 (Central Standard Time),436433.40000009537,A,cattleenter,O,enter,142,,2915.7000000476837,433517.7000000477,7240,WL,C,15.0
5,0.6159999370574951,learn,60000.0,Fri Nov 14 2025 14:24:05 GMT-0600 (Central Standard Time),504311.7000000477,A,t,O,t,609,,615.7000000476837,503696.0,7240,WL,C,1.0
5,0.8819999694824219,learn,60000.0,Fri Nov 14 2025 14:24:05 GMT-0600 (Central Standard Time),504578.3000000715,A,to,O,o,256,,882.3000000715256,503696.0,7240,WL,C,1.0
5,1.0160000324249268,learn,60000.0,Fri Nov 14 2025 14:24:05 GMT-0600 (Central Standard Time),504712.2000000477,A,tow,O,w,126,,1016.2000000476837,503696.0,7240,WL,C,1.0
5,1.1659998893737793,learn,60000.0,Fri Nov 14 2025 14:24:05 GMT-0600 (Central Standard Time),504861.90000009537,A,towe,O,e,135,,1165.9000000953674,503696.0,7240,WL,C,1.0
5,1.2660000324249268,learn,60000.0,Fri Nov 14 2025 14:24:05 GMT-0600 (Central Standard Time),504961.90000009537,A,tower,O,r,91,,1265.9000000953674,503696.0,7240,WL,C,1.0
5,1.497999906539917,learn,60000.0,Fri Nov 14 2025 14:24:05 GMT-0600 (Central Standard Time),505194.0,A,towerenter,O,enter,222,,1498.0,503696.0,7240,WL,C,1.0
5,1.7319998741149902,learn,60000.0,Fri Nov 14 2025 14:24:05 GMT-0600 (Central Standard Time),505427.5,A,w,O,w,226,,233.39999997615814,505194.10000002384,7240,WL,C,2.0
5,1.8869998455047607,learn,60000.0,Fri Nov 14 2025 14:24:05 GMT-0600 (Central Standard Time),505582.90000009537,A,wh,O,h,140,,388.8000000715256,505194.10000002384,7240,WL,C,2.0
5,1.9479999542236328,learn,60000.0,Fri Nov 14 2025 14:24:05 GMT-0600 (Central Standard Time),505644.3000000715,A,whe,O,e,48,,450.2000000476837,505194.10000002384,7240,WL,C,2.0
5,2.065999984741211,learn,60000.0,Fri Nov 14 2025 14:24:05 GMT-0600 (Central Standard Time),505761.7000000477,A,whea,O,a,109,,567.6000000238419,505194.10000002384,7240,WL,C,2.0
5,2.182999849319458,learn,60000.0,Fri Nov 14 2025 14:24:05 GMT-0600 (Central Standard Time),505878.5,A,wheat,O,t,102,,684.3999999761581,505194.10000002384,7240,WL,C,2.0
5,2.38100004196167,learn,60000.0,Fri Nov 14 2025 14:24:05 GMT-0600 (Central Standard Time),506077.2000000477,A,wheatenter,O,enter,194,,883.1000000238419,505194.10000002384,7240,WL,C,2.0
5,2.7159998416900635,learn,60000.0,Fri Nov 14 2025 14:24:05 GMT-0600 (Central Standard Time),506411.40000009537,A,q,O,q,324,,334.0,506077.40000009537,7240,WL,C,3.0
5,2.8339998722076416,learn,60000.0,Fri Nov 14 2025 14:24:05 GMT-0600 (Central Standard Time),506529.60000002384,A,qu,O,u,109,,452.1999999284744,506077.40000009537,7240,WL,C,3.0
5,2.9489998817443848,learn,60000.0,Fri Nov 14 2025 14:24:05 GMT-0600 (Central Standard Time),506644.7000000477,A,que,O,e,101,,567.2999999523163,506077.40000009537,7240,WL,C,3.0
5,3.0989999771118164,learn,60000.0,Fri Nov 14 2025 14:24:05 GMT-0600 (Central Standard Time),506794.7000000477,A,quee,O,e,140,,717.2999999523163,506077.40000009537,7240,WL,C,3.0
5,3.197999954223633,learn,60000.0,Fri Nov 14 2025 14:24:05 GMT-0600 (Central Standard Time),506893.60000002384,A,queen,O,n,94,,816.1999999284744,506077.40000009537,7240,WL,C,3.0
5,3.447999954223633,learn,60000.0,Fri Nov 14 2025 14:24:05 GMT-0600 (Central Standard Time),507144.0,A,queenenter,O,enter,243,,1066.5999999046326,506077.40000009537,7240,WL,C,3.0
5,3.697999954223633,learn,60000.0,Fri Nov 14 2025 14:24:05 GMT-0600 (Central Standard Time),507394.3000000715,A,s,O,s,238,,250.10000002384186,507144.2000000477,7240,WL,C,4.0
5,3.8489999771118164,learn,60000.0,Fri Nov 14 2025 14:24:05 GMT-0600 (Central Standard Time),507544.90000009537,A,su,O,u,134,,400.7000000476837,507144.2000000477,7240,WL,C,4.0
5,4.065000057220459,learn,60000.0,Fri Nov 14 2025 14:24:05 GMT-0600 (Central Standard Time),507760.90000009537,A,sug,O,g,207,,616.7000000476837,507144.2000000477,7240,WL,C,4.0
5,4.2149999141693115,learn,60000.0,Fri Nov 14 2025 14:24:05 GMT-0600 (Central Standard Time),507911.0,A,suga,O,a,135,,766.7999999523163,507144.2000000477,7240,WL,C,4.0
5,4.330999851226807,learn,60000.0,Fri Nov 14 2025 14:24:05 GMT-0600 (Central Standard Time),508027.2000000477,A,sugar,O,r,113,,883.0,507144.2000000477,7240,WL,C,4.0
5,4.797999858856201,learn,60000.0,Fri Nov 14 2025 14:24:05 GMT-0600 (Central Standard Time),508494.0,A,sugarenter,O,enter,462,,1349.7999999523163,507144.2000000477,7240,WL,C,4.0
5,5.082000017166138,learn,60000.0,Fri Nov 14 2025 14:24:05 GMT-0600 (Central Standard Time),508777.8000000715,A,h,O,h,274,,283.60000002384186,508494.2000000477,7240,WL,C,5.0
5,5.182999849319458,learn,60000.0,Fri Nov 14 2025 14:24:05 GMT-0600 (Central Standard Time),508878.5,A,ho,O,o,97,,384.2999999523163,508494.2000000477,7240,WL,C,5.0
5,5.296999931335449,learn,60000.0,Fri Nov 14 2025 14:24:05 GMT-0600 (Central Standard Time),508993.0,A,hom,O,m,102,,498.7999999523163,508494.2000000477,7240,WL,C,5.0
5,5.365000009536743,learn,60000.0,Fri Nov 14 2025 14:24:05 GMT-0600 (Central Standard Time),509060.8000000715,A,home,O,e,64,,566.6000000238419,508494.2000000477,7240,WL,C,5.0
5,5.596999883651733,learn,60000.0,Fri Nov 14 2025 14:24:05 GMT-0600 (Central Standard Time),509293.0,A,homeenter,O,enter,219,,798.7999999523163,508494.2000000477,7240,WL,C,5.0
5,5.947999954223633,learn,60000.0,Fri Nov 14 2025 14:24:05 GMT-0600 (Central Standard Time),509644.0,A,b,O,b,330,,350.7999999523163,509293.2000000477,7240,WL,C,6.0
5,6.014999866485596,learn,60000.0,Fri Nov 14 2025 14:24:05 GMT-0600 (Central Standard Time),509710.60000002384,A,bo,O,o,61,,417.39999997615814,509293.2000000477,7240,WL,C,6.0
5,6.197999954223633,learn,60000.0,Fri Nov 14 2025 14:24:05 GMT-0600 (Central Standard Time),509893.90000009537,A,boy,O,y,169,,600.7000000476837,509293.2000000477,7240,WL,C,6.0
5,6.46399998664856,learn,60000.0,Fri Nov 14 2025 14:24:05 GMT-0600 (Central Standard Time),510160.2000000477,A,boyenter,O,enter,250,,867.0,509293.2000000477,7240,WL,C,6.0
5,6.60099983215332,learn,60000.0,Fri Nov 14 2025 14:24:05 GMT-0600 (Central Standard Time),510296.5,A,d,O,d,128,,136.0,510160.5,7240,WL,C,7.0
5,6.71399998664856,learn,60000.0,Fri Nov 14 2025 14:24:05 GMT-0600 (Central Standard Time),510410.2000000477,A,do,O,o,102,,249.70000004768372,510160.5,7240,WL,C,7.0
5,6.830999851226807,learn,60000.0,Fri Nov 14 2025 14:24:05 GMT-0600 (Central Standard Time),510527.2000000477,A,doc,O,c,102,,366.7000000476837,510160.5,7240,WL,C,7.0
5,7.046999931335449,learn,60000.0,Fri Nov 14 2025 14:24:05 GMT-0600 (Central Standard Time),510742.90000009537,A,doct,O,t,208,,582.4000000953674,510160.5,7240,WL,C,7.0
5,7.148000001907349,learn,60000.0,Fri Nov 14 2025 14:24:05 GMT-0600 (Central Standard Time),510844.2000000477,A,docto,O,o,90,,683.7000000476837,510160.5,7240,WL,C,7.0
5,7.246999979019165,learn,60000.0,Fri Nov 14 2025 14:24:05 GMT-0600 (Central Standard Time),510942.40000009537,A,doctor,O,r,89,,781.9000000953674,510160.5,7240,WL,C,7.0
5,7.680000066757202,learn,60000.0,Fri Nov 14 2025 14:24:05 GMT-0600 (Central Standard Time),511376.2000000477,A,doctorenter,O,enter,426,,1215.7000000476837,510160.5,7240,WL,C,7.0
5,7.947000026702881,learn,60000.0,Fri Nov 14 2025 14:24:05 GMT-0600 (Central Standard Time),511643.2000000477,A,c,O,c,256,,266.7000000476837,511376.5,7240,WL,C,8.0
5,8.02999997138977,learn,60000.0,Fri Nov 14 2025 14:24:05 GMT-0600 (Central Standard Time),511726.2000000477,A,ca,O,a,69,,349.7000000476837,511376.5,7240,WL,C,8.0
5,8.164000034332275,learn,60000.0,Fri Nov 14 2025 14:24:05 GMT-0600 (Central Standard Time),511860.2000000477,A,cam,O,m,121,,483.7000000476837,511376.5,7240,WL,C,8.0
5,8.46399998664856,learn,60000.0,Fri Nov 14 2025 14:24:05 GMT-0600 (Central Standard Time),512160.2000000477,A,camp,O,p,284,,783.7000000476837,511376.5,7240,WL,C,8.0
5,8.896999835968018,learn,60000.0,Fri Nov 14 2025 14:24:05 GMT-0600 (Central Standard Time),512592.90000009537,A,campenter,O,enter,416,,1216.4000000953674,511376.5,7240,WL,C,8.0
5,9.129999876022339,learn,60000.0,Fri Nov 14 2025 14:24:05 GMT-0600 (Central Standard Time),512825.5,A,f,O,f,215,,232.29999995231628,512593.2000000477,7240,WL,C,9.0
5,9.263000011444092,learn,60000.0,Fri Nov 14 2025 14:24:05 GMT-0600 (Central Standard Time),512958.7000000477,A,fl,O,l,126,,365.5,512593.2000000477,7240,WL,C,9.0
5,9.346999883651733,learn,60000.0,Fri Nov 14 2025 14:24:05 GMT-0600 (Central Standard Time),513042.5,A,fla,O,a,65,,449.2999999523163,512593.2000000477,7240,WL,C,9.0
5,9.51199984550476,learn,60000.0,Fri Nov 14 2025 14:24:05 GMT-0600 (Central Standard Time),513208.3000000715,A,flag,O,g,149,,615.1000000238419,512593.2000000477,7240,WL,C,9.0
5,9.816999912261963,learn,60000.0,Fri Nov 14 2025 14:24:05 GMT-0600 (Central Standard Time),513513.3000000715,A,flagenter,O,enter,302,,920.1000000238419,512593.2000000477,7240,WL,C,9.0
5,10.046000003814697,learn,60000.0,Fri Nov 14 2025 14:24:05 GMT-0600 (Central Standard Time),513741.7000000477,A,l,O,l,224,,228.20000004768372,513513.5,7240,WL,C,10.0
5,10.180000066757202,learn,60000.0,Fri Nov 14 2025 14:24:05 GMT-0600 (Central Standard Time),513876.10000002384,A,la,O,a,114,,362.60000002384186,513513.5,7240,WL,C,10.0
5,10.746999979019165,learn,60000.0,Fri Nov 14 2025 14:24:05 GMT-0600 (Central Standard Time),514442.60000002384,A,l,O,backspace,548,,929.1000000238419,513513.5,7240,WL,C,10.0
5,10.828999996185303,learn,60000.0,Fri Nov 14 2025 14:24:05 GMT-0600 (Central Standard Time),514525.3000000715,A,le,O,e,76,,1011.8000000715256,513513.5,7240,WL,C,10.0
5,10.996000051498413,learn,60000.0,Fri Nov 14 2025 14:24:05 GMT-0600 (Central Standard Time),514691.7000000477,A,let,O,t,163,,1178.2000000476837,513513.5,7240,WL,C,10.0
5,11.162999868392944,learn,60000.0,Fri Nov 14 2025 14:24:05 GMT-0600 (Central Standard Time),514858.7000000477,A,lett,O,t,156,,1345.2000000476837,513513.5,7240,WL,C,10.0
5,11.296000003814697,learn,60000.0,Fri Nov 14 2025 14:24:05 GMT-0600 (Central Standard Time),514991.7000000477,A,lette,O,e,117,,1478.2000000476837,513513.5,7240,WL,C,10.0
5,11.36299991607666,learn,60000.0,Fri Nov 14 2025 14:24:05 GMT-0600 (Central Standard Time),515058.60000002384,A,letter,O,r,57,,1545.1000000238419,513513.5,7240,WL,C,10.0
5,11.86299991607666,learn,60000.0,Fri Nov 14 2025 14:24:05 GMT-0600 (Central Standard Time),515558.60000002384,A,letterenter,O,enter,485,,2045.1000000238419,513513.5,7240,WL,C,10.0
5,12.095999956130981,learn,60000.0,Fri Nov 14 2025 14:24:05 GMT-0600 (Central Standard Time),515792.0,A,c,O,c,224,,233.19999992847443,515558.8000000715,7240,WL,C,11.0
5,12.178999900817871,learn,60000.0,Fri Nov 14 2025 14:24:05 GMT-0600 (Central Standard Time),515874.5,A,co,O,o,72,,315.6999999284744,515558.8000000715,7240,WL,C,11.0
5,12.32800006866455,learn,60000.0,Fri Nov 14 2025 14:24:05 GMT-0600 (Central Standard Time),516023.90000009537,A,cor,O,r,141,,465.10000002384186,515558.8000000715,7240,WL,C,11.0
5,12.44599986076355,learn,60000.0,Fri Nov 14 2025 14:24:05 GMT-0600 (Central Standard Time),516141.40000009537,A,corn,O,n,104,,582.6000000238419,515558.8000000715,7240,WL,C,11.0
5,12.79699993133545,learn,60000.0,Fri Nov 14 2025 14:24:05 GMT-0600 (Central Standard Time),516492.60000002384,A,cornenter,O,enter,347,,933.7999999523163,515558.8000000715,7240,WL,C,11.0
5,13.095999956130981,learn,60000.0,Fri Nov 14 2025 14:24:05 GMT-0600 (Central Standard Time),516792.0,A,n,O,n,283,,299.2999999523163,516492.7000000477,7240,WL,C,12.0
5,13.19599986076355,learn,60000.0,Fri Nov 14 2025 14:24:05 GMT-0600 (Central Standard Time),516891.60000002384,A,na,O,a,80,,398.89999997615814,516492.7000000477,7240,WL,C,12.0
5,13.328999996185303,learn,60000.0,Fri Nov 14 2025 14:24:05 GMT-0600 (Central Standard Time),517024.5,A,nai,O,i,125,,531.7999999523163,516492.7000000477,7240,WL,C,12.0
5,13.42799997329712,learn,60000.0,Fri Nov 14 2025 14:24:05 GMT-0600 (Central Standard Time),517124.10000002384,A,nail,O,l,96,,631.3999999761581,516492.7000000477,7240,WL,C,12.0
5,15.312000036239624,learn,60000.0,Fri Nov 14 2025 14:24:05 GMT-0600 (Central Standard Time),519007.60000002384,A,nailenter,O,enter,1877,,2514.899999976158,516492.7000000477,7240,WL,C,12.0
5,15.57800006866455,learn,60000.0,Fri Nov 14 2025 14:24:05 GMT-0600 (Central Standard Time),519274.3000000715,A,c,O,c,256,,266.5,519007.8000000715,7240,WL,C,13.0
5,15.644000053405762,learn,60000.0,Fri Nov 14 2025 14:24:05 GMT-0600 (Central Standard Time),519339.7000000477,A,ca,O,a,61,,331.89999997615814,519007.8000000715,7240,WL,C,13.0
5,15.92799997329712,learn,60000.0,Fri Nov 14 2025 14:24:05 GMT-0600 (Central Standard Time),519623.60000002384,A,cat,O,t,268,,615.7999999523163,519007.8000000715,7240,WL,C,13.0
5,16.060999870300293,learn,60000.0,Fri Nov 14 2025 14:24:05 GMT-0600 (Central Standard Time),519757.10000002384,A,catt,O,t,120,,749.2999999523163,519007.8000000715,7240,WL,C,13.0
5,16.16100001335144,learn,60000.0,Fri Nov 14 2025 14:24:05 GMT-0600 (Central Standard Time),519857.3000000715,A,cattl,O,l,83,,849.5,519007.8000000715,7240,WL,C,13.0
5,16.24399995803833,learn,60000.0,Fri Nov 14 2025 14:24:05 GMT-0600 (Central Standard Time),519940.0,A,cattle,O,e,67,,932.1999999284744,519007.8000000715,7240,WL,C,13.0
5,16.82800006866455,learn,60000.0,Fri Nov 14 2025 14:24:05 GMT-0600 (Central Standard Time),520524.40000009537,A,cattleenter,O,enter,572,,1516.6000000238419,519007.8000000715,7240,WL,C,13.0
5,17.39400005340576,learn,60000.0,Fri Nov 14 2025 14:24:05 GMT-0600 (Central Standard Time),521090.0,A,s,O,s,547,,565.5,520524.5,7240,WL,C,14.0
5,17.55999994277954,learn,60000.0,Fri Nov 14 2025 14:24:05 GMT-0600 (Central Standard Time),521256.3000000715,A,sh,O,h,150,,731.8000000715256,520524.5,7240,WL,C,14.0
5,17.74399995803833,learn,60000.0,Fri Nov 14 2025 14:24:05 GMT-0600 (Central Standard Time),521439.5,A,sho,O,o,177,,915.0,520524.5,7240,WL,C,14.0
5,18.359999895095825,learn,60000.0,Fri Nov 14 2025 14:24:05 GMT-0600 (Central Standard Time),522056.2000000477,A,shor,O,r,609,,1531.7000000476837,520524.5,7240,WL,C,14.0
5,18.74399995803833,learn,60000.0,Fri Nov 14 2025 14:24:05 GMT-0600 (Central Standard Time),522439.8000000715,A,shore,O,e,377,,1915.3000000715256,520524.5,7240,WL,C,14.0
5,19.526000022888184,learn,60000.0,Fri Nov 14 2025 14:24:05 GMT-0600 (Central Standard Time),523222.3000000715,A,shoreenter,O,enter,768,,2697.8000000715256,520524.5,7240,WL,C,14.0
5,19.80999994277954,learn,60000.0,Fri Nov 14 2025 14:24:05 GMT-0600 (Central Standard Time),523505.7000000477,A,b,O,b,273,,283.2000000476837,523222.5,7240,WL,C,15.0
5,19.90999984741211,learn,60000.0,Fri Nov 14 2025 14:24:05 GMT-0600 (Central Standard Time),523606.0,A,bo,O,o,87,,383.5,523222.5,7240,WL,C,15.0
5,20.07699990272522,learn,60000.0,Fri Nov 14 2025 14:24:05 GMT-0600 (Central Standard Time),523772.60000002384,A,bod,O,d,162,,550.1000000238419,523222.5,7240,WL,C,15.0
5,20.210000038146973,learn,60000.0,Fri Nov 14 2025 14:24:05 GMT-0600 (Central Standard Time),523906.0,A,body,O,y,125,,683.5,523222.5,7240,WL,C,15.0
5,20.64400005340576,learn,60000.0,Fri Nov 14 2025 14:24:05 GMT-0600 (Central Standard Time),524339.5,A,bodyenter,O,enter,414,,1117.0,523222.5,7240,WL,C,15.0
6,0.7840001583099365,distr,59215.99984169006,Fri Nov 14 2025 14:24:05 GMT-0600 (Central Standard Time),598149.7000000477,B,s,O,s,771,,783.7000000476837,597366.0,7240,WL,C,1.0
6,0.9170000553131104,distr,59082.99994468689,Fri Nov 14 2025 14:24:05 GMT-0600 (Central Standard Time),598282.2000000477,B,sk,O,k,123,,916.2000000476837,597366.0,7240,WL,C,1.0
6,1.2000000476837158,distr,58799.999952316284,Fri Nov 14 2025 14:24:05 GMT-0600 (Central Standard Time),598565.2000000477,B,sky,O,y,270,,1199.2000000476837,597366.0,7240,WL,C,1.0
6,1.5160000324249268,distr,58483.99996757507,Fri Nov 14 2025 14:24:05 GMT-0600 (Central Standard Time),598881.5,B,skyenter,O,enter,299,,1515.5,597366.0,7240,WL,C,1.0
6,1.7170000076293945,distr,58282.999992370605,Fri Nov 14 2025 14:24:05 GMT-0600 (Central Standard Time),599082.2000000477,B,d,O,d,189,,200.39999997615814,598881.8000000715,7240,WL,C,2.0
6,1.8489999771118164,distr,58151.00002288818,Fri Nov 14 2025 14:24:05 GMT-0600 (Central Standard Time),599214.7000000477,B,do,O,o,126,,332.89999997615814,598881.8000000715,7240,WL,C,2.0
6,2.1000001430511475,distr,57899.99985694885,Fri Nov 14 2025 14:24:05 GMT-0600 (Central Standard Time),599465.6000000238,B,dol,O,l,242,,583.7999999523163,598881.8000000715,7240,WL,C,2.0
6,2.239000082015991,distr,57760.99991798401,Fri Nov 14 2025 14:24:05 GMT-0600 (Central Standard Time),599604.9000000954,B,doll,O,l,136,,723.1000000238419,598881.8000000715,7240,WL,C,2.0
6,2.361999988555908,distr,57638.00001144409,Fri Nov 14 2025 14:24:05 GMT-0600 (Central Standard Time),599727.3000000715,B,dolla,O,a,119,,845.5,598881.8000000715,7240,WL,C,2.0
6,2.4700000286102295,distr,57529.99997138977,Fri Nov 14 2025 14:24:05 GMT-0600 (Central Standard Time),599835.7000000477,B,dollar,O,r,91,,953.8999999761581,598881.8000000715,7240,WL,C,2.0
6,2.633000135421753,distr,57366.99986457825,Fri Nov 14 2025 14:24:05 GMT-0600 (Central Standard Time),599998.0,B,dollarenter,O,enter,148,,1116.1999999284744,598881.8000000715,7240,WL,C,2.0
6,2.9660000801086426,distr,57033.99991989136,Fri Nov 14 2025 14:24:05 GMT-0600 (Central Standard Time),600331.5,B,m,O,m,314,,333.1999999284744,599998.3000000715,7240,WL,C,3.0
6,3.365999937057495,distr,56634.000062942505,Fri Nov 14 2025 14:24:05 GMT-0600 (Central Standard Time),600731.6000000238,B,mo,O,o,389,,733.2999999523163,599998.3000000715,7240,WL,C,3.0
6,3.5989999771118164,distr,56401.00002288818,Fri Nov 14 2025 14:24:05 GMT-0600 (Central Standard Time),600964.4000000954,B,mon,O,n,229,,966.1000000238419,599998.3000000715,7240,WL,C,3.0
6,3.7330000400543213,distr,56266.99995994568,Fri Nov 14 2025 14:24:05 GMT-0600 (Central Standard Time),601098.0,B,mone,O,e,125,,1099.6999999284744,599998.3000000715,7240,WL,C,3.0
6,3.881999969482422,distr,56118.00003051758,Fri Nov 14 2025 14:24:05 GMT-0600 (Central Standard Time),601247.4000000954,B,money,O,y,140,,1249.1000000238419,599998.3000000715,7240,WL,C,3.0
6,4.131999969482422,distr,55868.00003051758,Fri Nov 14 2025 14:24:05 GMT-0600 (Central Standard Time),601497.5,B,moneyenter,O,enter,233,,1499.1999999284744,599998.3000000715,7240,WL,C,3.0
6,4.383000135421753,distr,55616.99986457825,Fri Nov 14 2025 14:24:05 GMT-0600 (Central Standard Time),601748.4000000954,B,d,O,d,247,,250.60000002384186,601497.8000000715,7240,WL,C,4.0
6,4.516000032424927,distr,55483.99996757507,Fri Nov 14 2025 14:24:05 GMT-0600 (Central Standard Time),601881.5,B,di,O,i,124,,383.6999999284744,601497.8000000715,7240,WL,C,4.0
6,4.615999937057495,distr,55384.000062942505,Fri Nov 14 2025 14:24:05 GMT-0600 (Central Standard Time),601981.3000000715,B,dia,O,a,95,,483.5,601497.8000000715,7240,WL,C,4.0
6,4.832000017166138,distr,55167.99998283386,Fri Nov 14 2025 14:24:05 GMT-0600 (Central Standard Time),602197.8000000715,B,diam,O,m,203,,700.0,601497.8000000715,7240,WL,C,4.0
6,4.966000080108643,distr,55033.99991989136,Fri Nov 14 2025 14:24:05 GMT-0600 (Central Standard Time),602331.3000000715,B,diamo,O,o,115,,833.5,601497.8000000715,7240,WL,C,4.0
6,5.098999977111816,distr,54901.00002288818,Fri Nov 14 2025 14:24:05 GMT-0600 (Central Standard Time),602464.4000000954,B,diamon,O,n,126,,966.6000000238419,601497.8000000715,7240,WL,C,4.0
6,5.249000072479248,distr,54750.99992752075,Fri Nov 14 2025 14:24:05 GMT-0600 (Central Standard Time),602613.9000000954,B,diamond,O,d,131,,1116.1000000238419,601497.8000000715,7240,WL,C,4.0
6,5.680999994277954,distr,54319.000005722046,Fri Nov 14 2025 14:24:05 GMT-0600 (Central Standard Time),603046.7000000477,B,diamondenter,O,enter,427,,1548.8999999761581,601497.8000000715,7240,WL,C,4.0
6,5.947999954223633,distr,54052.00004577637,Fri Nov 14 2025 14:24:05 GMT-0600 (Central Standard Time),603313.5,B,m,O,m,256,,266.5,603047.0,7240,WL,C,5.0
6,6.049000024795532,distr,53950.99997520447,Fri Nov 14 2025 14:24:05 GMT-0600 (Central Standard Time),603414.0,B,mo,O,o,97,,367.0,603047.0,7240,WL,C,5.0
6,6.181999921798706,distr,53818.000078201294,Fri Nov 14 2025 14:24:05 GMT-0600 (Central Standard Time),603547.4000000954,B,mot,O,t,114,,500.40000009536743,603047.0,7240,WL,C,5.0
6,6.265000104904175,distr,53734.999895095825,Fri Nov 14 2025 14:24:05 GMT-0600 (Central Standard Time),603630.6000000238,B,moth,O,h,68,,583.6000000238419,603047.0,7240,WL,C,5.0
6,6.348999977111816,distr,53651.00002288818,Fri Nov 14 2025 14:24:05 GMT-0600 (Central Standard Time),603714.0,B,mothe,O,e,64,,667.0,603047.0,7240,WL,C,5.0
6,6.398000001907349,distr,53601.99999809265,Fri Nov 14 2025 14:24:05 GMT-0600 (Central Standard Time),603763.2000000477,B,mother,O,r,45,,716.2000000476837,603047.0,7240,WL,C,5.0
6,6.680999994277954,distr,53319.000005722046,Fri Nov 14 2025 14:24:05 GMT-0600 (Central Standard Time),604045.9000000954,B,motherenter,O,enter,269,,998.9000000953674,603047.0,7240,WL,C,5.0
6,7.914999961853027,distr,52085.00003814697,Fri Nov 14 2025 14:24:05 GMT-0600 (Central Standard Time),605280.2000000477,B,h,O,h,1217,,1234.1000000238419,604046.1000000238,7240,WL,C,6.0
6,7.998000144958496,distr,52001.999855041504,Fri Nov 14 2025 14:24:05 GMT-0600 (Central Standard Time),605363.5,B,ha,O,a,63,,1317.3999999761581,604046.1000000238,7240,WL,C,6.0
6,8.164000034332275,distr,51835.999965667725,Fri Nov 14 2025 14:24:05 GMT-0600 (Central Standard Time),605529.6000000238,B,hal,O,l,157,,1483.5,604046.1000000238,7240,WL,C,6.0
6,8.29800009727478,distr,51701.99990272522,Fri Nov 14 2025 14:24:05 GMT-0600 (Central Standard Time),605663.4000000954,B,hall,O,l,127,,1617.3000000715256,604046.1000000238,7240,WL,C,6.0
6,8.498000144958496,distr,51501.999855041504,Fri Nov 14 2025 14:24:05 GMT-0600 (Central Standard Time),605863.7000000477,B,hallenter,O,enter,194,,1817.6000000238419,604046.1000000238,7240,WL,C,6.0
6,11.880000114440918,distr,48119.99988555908,Fri Nov 14 2025 14:24:05 GMT-0600 (Central Standard Time),609245.3000000715,B,enter,O,enter,3368,,3381.399999976158,605863.9000000954,7240,WL,C,7.0
6,12.078999996185303,distr,47921.0000038147,Fri Nov 14 2025 14:24:05 GMT-0600 (Central Standard Time),609444.4000000954,B,enter,O,enter,196,,198.90000009536743,609245.5,7240,WL,C,8.0
6,12.246999979019165,distr,47753.000020980835,Fri Nov 14 2025 14:24:05 GMT-0600 (Central Standard Time),609612.3000000715,B,enter,O,enter,164,,167.60000002384186,609444.7000000477,7240,WL,C,9.0
6,12.463000059127808,distr,47536.99994087219,Fri Nov 14 2025 14:24:05 GMT-0600 (Central Standard Time),609828.3000000715,B,enter,O,enter,212,,215.80000007152557,609612.5,7240,WL,C,10.0
6,12.812999963760376,distr,47187.000036239624,Fri Nov 14 2025 14:24:05 GMT-0600 (Central Standard Time),610178.5,B,enter,O,enter,331,,350.09999990463257,609828.4000000954,7240,WL,C,11.0
6,13.095999956130981,distr,46904.00004386902,Fri Nov 14 2025 14:24:05 GMT-0600 (Central Standard Time),610461.4000000954,B,enter,O,enter,269,,282.7000000476837,610178.7000000477,7240,WL,C,12.0
6,13.36300015449524,distr,46636.99984550476,Fri Nov 14 2025 14:24:05 GMT-0600 (Central Standard Time),610728.5,B,enter,O,enter,258,,266.89999997615814,610461.6000000238,7240,WL,C,13.0
6,13.713000059127808,distr,46286.99994087219,Fri Nov 14 2025 14:24:05 GMT-0600 (Central Standard Time),611078.8000000715,B,enter,O,enter,335,,350.10000002384186,610728.7000000477,7240,WL,C,14.0
6,14.213000059127808,distr,45786.99994087219,Fri Nov 14 2025 14:24:05 GMT-0600 (Central Standard Time),611578.5,B,enter,O,enter,479,,499.39999997615814,611079.1000000238,7240,WL,C,15.0
7,2.1659998893737793,immed,57834.00011062622,Fri Nov 14 2025 14:24:05 GMT-0600 (Central Standard Time),626356.6000000238,A,t,O,t,2154,,2166.399999976158,624190.2000000477,7240,WL,C,1.0
7,2.3320000171661377,immed,57667.99998283386,Fri Nov 14 2025 14:24:05 GMT-0600 (Central Standard Time),626522.5,A,to,O,o,156,,2332.2999999523163,624190.2000000477,7240,WL,C,1.0
7,2.4159998893737793,immed,57584.00011062622,Fri Nov 14 2025 14:24:05 GMT-0600 (Central Standard Time),626606.4000000954,A,tow,O,w,75,,2416.2000000476837,624190.2000000477,7240,WL,C,1.0
7,2.5329999923706055,immed,57467.000007629395,Fri Nov 14 2025 14:24:05 GMT-0600 (Central Standard Time),626723.4000000954,A,towe,O,e,107,,2533.2000000476837,624190.2000000477,7240,WL,C,1.0
7,2.5999999046325684,immed,57400.00009536743,Fri Nov 14 2025 14:24:05 GMT-0600 (Central Standard Time),626790.0,A,tower,O,r,53,,2599.7999999523163,624190.2000000477,7240,WL,C,1.0
7,2.9159998893737793,immed,57084.00011062622,Fri Nov 14 2025 14:24:05 GMT-0600 (Central Standard Time),627106.1000000238,A,towerenter,O,enter,298,,2915.899999976158,624190.2000000477,7240,WL,C,1.0
7,3.131999969482422,immed,56868.00003051758,Fri Nov 14 2025 14:24:05 GMT-0600 (Central Standard Time),627322.0,A,w,O,w,204,,215.69999992847443,627106.3000000715,7240,WL,C,2.0
7,3.2820000648498535,immed,56717.99993515015,Fri Nov 14 2025 14:24:05 GMT-0600 (Central Standard Time),627472.8000000715,A,wh,O,h,143,,366.5,627106.3000000715,7240,WL,C,2.0
7,3.3489999771118164,immed,56651.00002288818,Fri Nov 14 2025 14:24:05 GMT-0600 (Central Standard Time),627539.7000000477,A,whe,O,e,55,,433.39999997615814,627106.3000000715,7240,WL,C,2.0
7,3.4489998817443848,immed,56551.000118255615,Fri Nov 14 2025 14:24:05 GMT-0600 (Central Standard Time),627639.5,A,whea,O,a,84,,533.1999999284744,627106.3000000715,7240,WL,C,2.0
7,3.549999952316284,immed,56450.000047683716,Fri Nov 14 2025 14:24:05 GMT-0600 (Central Standard Time),627739.9000000954,A,wheat,O,t,81,,633.6000000238419,627106.3000000715,7240,WL,C,2.0
7,3.7319998741149902,immed,56268.00012588501,Fri Nov 14 2025 14:24:05 GMT-0600 (Central Standard Time),627922.6000000238,A,wheatenter,O,enter,165,,816.2999999523163,627106.3000000715,7240,WL,C,2.0
7,4.049000024795532,immed,55950.99997520447,Fri Nov 14 2025 14:24:05 GMT-0600 (Central Standard Time),628239.3000000715,A,q,O,q,302,,316.5,627922.8000000715,7240,WL,C,3.0
7,4.181999921798706,immed,55818.000078201294,Fri Nov 14 2025 14:24:05 GMT-0600 (Central Standard Time),628372.5,A,qu,O,u,130,,449.6999999284744,627922.8000000715,7240,WL,C,3.0
7,4.315000057220459,immed,55684.99994277954,Fri Nov 14 2025 14:24:05 GMT-0600 (Central Standard Time),628505.9000000954,A,que,O,e,116,,583.1000000238419,627922.8000000715,7240,WL,C,3.0
7,4.448999881744385,immed,55551.000118255615,Fri Nov 14 2025 14:24:05 GMT-0600 (Central Standard Time),628639.4000000954,A,quee,O,e,127,,716.6000000238419,627922.8000000715,7240,WL,C,3.0
7,4.565000057220459,immed,55434.99994277954,Fri Nov 14 2025 14:24:05 GMT-0600 (Central Standard Time),628755.9000000954,A,queen,O,n,105,,833.1000000238419,627922.8000000715,7240,WL,C,3.0
7,5.98199987411499,immed,54018.00012588501,Fri Nov 14 2025 14:24:05 GMT-0600 (Central Standard Time),630172.1000000238,A,queenenter,O,enter,1413,,2249.2999999523163,627922.8000000715,7240,WL,C,3.0
7,6.8480000495910645,immed,53151.999950408936,Fri Nov 14 2025 14:24:05 GMT-0600 (Central Standard Time),631038.7000000477,A,s,O,s,860,,866.5,630172.2000000477,7240,WL,C,4.0
7,7.0980000495910645,immed,52901.999950408936,Fri Nov 14 2025 14:24:05 GMT-0600 (Central Standard Time),631288.5,A,su,O,u,241,,1116.2999999523163,630172.2000000477,7240,WL,C,4.0
7,7.2149999141693115,immed,52785.00008583069,Fri Nov 14 2025 14:24:05 GMT-0600 (Central Standard Time),631405.1000000238,A,sug,O,g,104,,1232.8999999761581,630172.2000000477,7240,WL,C,4.0
7,7.3480000495910645,immed,52651.999950408936,Fri Nov 14 2025 14:24:05 GMT-0600 (Central Standard Time),631538.3000000715,A,suga,O,a,115,,1366.1000000238419,630172.2000000477,7240,WL,C,4.0
7,7.430999994277954,immed,52569.000005722046,Fri Nov 14 2025 14:24:05 GMT-0600 (Central Standard Time),631621.5,A,sugar,O,r,71,,1449.2999999523163,630172.2000000477,7240,WL,C,4.0
7,7.648000001907349,immed,52351.99999809265,Fri Nov 14 2025 14:24:05 GMT-0600 (Central Standard Time),631837.9000000954,A,sugarenter,O,enter,211,,1665.7000000476837,630172.2000000477,7240,WL,C,4.0
7,8.831000089645386,immed,51168.999910354614,Fri Nov 14 2025 14:24:05 GMT-0600 (Central Standard Time),633021.1000000238,A,h,O,h,1169,,1183.0,631838.1000000238,7240,WL,C,5.0
7,8.980999946594238,immed,51019.00005340576,Fri Nov 14 2025 14:24:05 GMT-0600 (Central Standard Time),633171.2000000477,A,ho,O,o,131,,1333.1000000238419,631838.1000000238,7240,WL,C,5.0
7,9.096999883651733,immed,50903.00011634827,Fri Nov 14 2025 14:24:05 GMT-0600 (Central Standard Time),633287.8000000715,A,hom,O,m,111,,1449.7000000476837,631838.1000000238,7240,WL,C,5.0
7,9.230000019073486,immed,50769.999980926514,Fri Nov 14 2025 14:24:05 GMT-0600 (Central Standard Time),633420.7000000477,A,home,O,e,120,,1582.6000000238419,631838.1000000238,7240,WL,C,5.0
7,10.930000066757202,immed,49069.9999332428,Fri Nov 14 2025 14:24:05 GMT-0600 (Central Standard Time),635120.2000000477,A,homeenter,O,enter,1692,,3282.100000023842,631838.1000000238,7240,WL,C,5.0
7,11.21399998664856,immed,48786.00001335144,Fri Nov 14 2025 14:24:05 GMT-0600 (Central Standard Time),635404.2000000477,A,b,O,b,264,,283.89999997615814,635120.3000000715,7240,WL,C,6.0
7,11.246000051498413,immed,48753.99994850159,Fri Nov 14 2025 14:24:05 GMT-0600 (Central Standard Time),635436.8000000715,A,bo,O,o,20,,316.5,635120.3000000715,7240,WL,C,6.0
7,11.430000066757202,immed,48569.9999332428,Fri Nov 14 2025 14:24:05 GMT-0600 (Central Standard Time),635620.7000000477,A,boy,O,y,180,,500.39999997615814,635120.3000000715,7240,WL,C,6.0
7,11.730999946594238,immed,48269.00005340576,Fri Nov 14 2025 14:24:05 GMT-0600 (Central Standard Time),635921.6000000238,A,boyenter,O,enter,284,,801.2999999523163,635120.3000000715,7240,WL,C,6.0
7,11.946000099182129,immed,48053.99990081787,Fri Nov 14 2025 14:24:05 GMT-0600 (Central Standard Time),636136.8000000715,A,d,O,d,207,,215.0,635921.8000000715,7240,WL,C,7.0
7,12.029000043869019,immed,47970.99995613098,Fri Nov 14 2025 14:24:05 GMT-0600 (Central Standard Time),636219.7000000477,A,do,O,o,71,,297.89999997615814,635921.8000000715,7240,WL,C,7.0
7,12.180000066757202,immed,47819.9999332428,Fri Nov 14 2025 14:24:05 GMT-0600 (Central Standard Time),636370.7000000477,A,doc,O,c,132,,448.89999997615814,635921.8000000715,7240,WL,C,7.0
7,12.378999948501587,immed,47621.00005149841,Fri Nov 14 2025 14:24:05 GMT-0600 (Central Standard Time),636569.3000000715,A,doct,O,t,189,,647.5,635921.8000000715,7240,WL,C,7.0
7,12.480000019073486,immed,47519.999980926514,Fri Nov 14 2025 14:24:05 GMT-0600 (Central Standard Time),636670.5,A,docto,O,o,87,,748.6999999284744,635921.8000000715,7240,WL,C,7.0
7,12.579999923706055,immed,47420.000076293945,Fri Nov 14 2025 14:24:05 GMT-0600 (Central Standard Time),636770.3000000715,A,doctor,O,r,90,,848.5,635921.8000000715,7240,WL,C,7.0
7,13.461999893188477,immed,46538.00010681152,Fri Nov 14 2025 14:24:05 GMT-0600 (Central Standard Time),637652.8000000715,A,doctorenter,O,enter,870,,1731.0,635921.8000000715,7240,WL,C,7.0
7,14.828999996185303,immed,45171.0000038147,Fri Nov 14 2025 14:24:05 GMT-0600 (Central Standard Time),639019.3000000715,A,c,O,c,1346,,1366.3999999761581,637652.9000000954,7240,WL,C,8.0
7,14.928999900817871,immed,45071.00009918213,Fri Nov 14 2025 14:24:05 GMT-0600 (Central Standard Time),639118.9000000954,A,ca,O,a,85,,1466.0,637652.9000000954,7240,WL,C,8.0
7,15.078999996185303,immed,44921.0000038147,Fri Nov 14 2025 14:24:05 GMT-0600 (Central Standard Time),639269.3000000715,A,cam,O,m,127,,1616.3999999761581,637652.9000000954,7240,WL,C,8.0
7,15.196000099182129,immed,44803.99990081787,Fri Nov 14 2025 14:24:05 GMT-0600 (Central Standard Time),639386.3000000715,A,camp,O,p,100,,1733.3999999761581,637652.9000000954,7240,WL,C,8.0
7,15.461999893188477,immed,44538.00010681152,Fri Nov 14 2025 14:24:05 GMT-0600 (Central Standard Time),639652.5,A,campenter,O,enter,255,,1999.5999999046326,637652.9000000954,7240,WL,C,8.0
7,15.694000005722046,immed,44305.999994277954,Fri Nov 14 2025 14:24:05 GMT-0600 (Central Standard Time),639884.9000000954,A,f,O,f,228,,232.30000007152557,639652.6000000238,7240,WL,C,9.0
7,15.812000036239624,immed,44187.999963760376,Fri Nov 14 2025 14:24:05 GMT-0600 (Central Standard Time),640002.0,A,fl,O,l,99,,349.39999997615814,639652.6000000238,7240,WL,C,9.0
7,15.861999988555908,immed,44138.00001144409,Fri Nov 14 2025 14:24:05 GMT-0600 (Central Standard Time),640052.0,A,fla,O,a,37,,399.39999997615814,639652.6000000238,7240,WL,C,9.0
7,16.17899990081787,immed,43821.00009918213,Fri Nov 14 2025 14:24:05 GMT-0600 (Central Standard Time),640369.7000000477,A,flag,O,g,309,,717.1000000238419,639652.6000000238,7240,WL,C,9.0
7,16.744999885559082,immed,43255.00011444092,Fri Nov 14 2025 14:24:05 GMT-0600 (Central Standard Time),640935.0,A,flagenter,O,enter,550,,1282.3999999761581,639652.6000000238,7240,WL,C,9.0
7,17.045000076293945,immed,42954.999923706055,Fri Nov 14 2025 14:24:05 GMT-0600 (Central Standard Time),641235.1000000238,A,l,O,l,289,,299.89999997615814,640935.2000000477,7240,WL,C,10.0
7,17.16100001335144,immed,42838.99998664856,Fri Nov 14 2025 14:24:05 GMT-0600 (Central Standard Time),641351.9000000954,A,le,O,e,102,,416.7000000476837,640935.2000000477,7240,WL,C,10.0
7,17.311000108718872,immed,42688.99989128113,Fri Nov 14 2025 14:24:05 GMT-0600 (Central Standard Time),641501.3000000715,A,let,O,t,136,,566.1000000238419,640935.2000000477,7240,WL,C,10.0
7,17.477999925613403,immed,42522.0000743866,Fri Nov 14 2025 14:24:05 GMT-0600 (Central Standard Time),641668.3000000715,A,lett,O,t,154,,733.1000000238419,640935.2000000477,7240,WL,C,10.0
7,17.57800006866455,immed,42421.99993133545,Fri Nov 14 2025 14:24:05 GMT-0600 (Central Standard Time),641768.4000000954,A,lette,O,e,92,,833.2000000476837,640935.2000000477,7240,WL,C,10.0
7,17.66100001335144,immed,42338.99998664856,Fri Nov 14 2025 14:24:05 GMT-0600 (Central Standard Time),641851.2000000477,A,letter,O,r,64,,916.0,640935.2000000477,7240,WL,C,10.0
7,17.793999910354614,immed,42206.000089645386,Fri Nov 14 2025 14:24:05 GMT-0600 (Central Standard Time),641984.7000000477,A,letterenter,O,enter,126,,1049.5,640935.2000000477,7240,WL,C,10.0
7,18.14400005340576,immed,41855.99994659424,Fri Nov 14 2025 14:24:05 GMT-0600 (Central Standard Time),642334.9000000954,A,c,O,c,336,,350.0,641984.9000000954,7240,WL,C,11.0
7,18.194000005722046,immed,41805.999994277954,Fri Nov 14 2025 14:24:05 GMT-0600 (Central Standard Time),642384.3000000715,A,co,O,o,33,,399.39999997615814,641984.9000000954,7240,WL,C,11.0
7,18.32800006866455,immed,41671.99993133545,Fri Nov 14 2025 14:24:05 GMT-0600 (Central Standard Time),642518.5,A,cor,O,r,128,,533.5999999046326,641984.9000000954,7240,WL,C,11.0
7,18.444000005722046,immed,41555.999994277954,Fri Nov 14 2025 14:24:05 GMT-0600 (Central Standard Time),642634.8000000715,A,corn,O,n,106,,649.8999999761581,641984.9000000954,7240,WL,C,11.0
7,18.878000020980835,immed,41121.999979019165,Fri Nov 14 2025 14:24:05 GMT-0600 (Central Standard Time),643068.5,A,cornenter,O,enter,413,,1083.5999999046326,641984.9000000954,7240,WL,C,11.0
7,19.128000020980835,immed,40871.999979019165,Fri Nov 14 2025 14:24:05 GMT-0600 (Central Standard Time),643318.3000000715,A,n,O,n,245,,249.60000002384186,643068.7000000477,7240,WL,C,12.0
7,19.22699999809265,immed,40773.00000190735,Fri Nov 14 2025 14:24:05 GMT-0600 (Central Standard Time),643417.5,A,na,O,a,83,,348.7999999523163,643068.7000000477,7240,WL,C,12.0
7,19.361000061035156,immed,40638.999938964844,Fri Nov 14 2025 14:24:05 GMT-0600 (Central Standard Time),643551.1000000238,A,nai,O,i,126,,482.39999997615814,643068.7000000477,7240,WL,C,12.0
7,19.49399995803833,immed,40506.00004196167,Fri Nov 14 2025 14:24:05 GMT-0600 (Central Standard Time),643684.4000000954,A,nail,O,l,114,,615.7000000476837,643068.7000000477,7240,WL,C,12.0
7,19.842999935150146,immed,40157.00006484985,Fri Nov 14 2025 14:24:05 GMT-0600 (Central Standard Time),644033.5,A,nailenter,O,enter,332,,964.7999999523163,643068.7000000477,7240,WL,C,12.0
7,20.043999910354614,immed,39956.000089645386,Fri Nov 14 2025 14:24:05 GMT-0600 (Central Standard Time),644234.1000000238,A,c,O,c,190,,200.29999995231628,644033.8000000715,7240,WL,C,13.0
7,20.092999935150146,immed,39907.00006484985,Fri Nov 14 2025 14:24:05 GMT-0600 (Central Standard Time),644283.7000000477,A,ca,O,a,46,,249.89999997615814,644033.8000000715,7240,WL,C,13.0
7,20.311000108718872,immed,39688.99989128113,Fri Nov 14 2025 14:24:05 GMT-0600 (Central Standard Time),644500.9000000954,A,cat,O,t,198,,467.10000002384186,644033.8000000715,7240,WL,C,13.0
7,20.443000078201294,immed,39556.999921798706,Fri Nov 14 2025 14:24:05 GMT-0600 (Central Standard Time),644633.6000000238,A,catt,O,t,123,,599.7999999523163,644033.8000000715,7240,WL,C,13.0
7,20.526999950408936,immed,39473.000049591064,Fri Nov 14 2025 14:24:05 GMT-0600 (Central Standard Time),644717.6000000238,A,cattl,O,l,80,,683.7999999523163,644033.8000000715,7240,WL,C,13.0
7,20.64400005340576,immed,39355.99994659424,Fri Nov 14 2025 14:24:05 GMT-0600 (Central Standard Time),644834.7000000477,A,cattle,O,e,107,,800.8999999761581,644033.8000000715,7240,WL,C,13.0
7,20.861000061035156,immed,39138.999938964844,Fri Nov 14 2025 14:24:05 GMT-0600 (Central Standard Time),645051.1000000238,A,cattleenter,O,enter,213,,1017.2999999523163,644033.8000000715,7240,WL,C,13.0
7,21.193000078201294,immed,38806.999921798706,Fri Nov 14 2025 14:24:05 GMT-0600 (Central Standard Time),645383.9000000954,A,b,O,b,318,,332.7000000476837,645051.2000000477,7240,WL,C,14.0
7,21.276999950408936,immed,38723.000049591064,Fri Nov 14 2025 14:24:05 GMT-0600 (Central Standard Time),645467.0,A,bo,O,o,73,,415.7999999523163,645051.2000000477,7240,WL,C,14.0
7,21.45900011062622,immed,38540.99988937378,Fri Nov 14 2025 14:24:05 GMT-0600 (Central Standard Time),645649.8000000715,A,bod,O,d,165,,598.6000000238419,645051.2000000477,7240,WL,C,14.0
7,21.57699990272522,immed,38423.00009727478,Fri Nov 14 2025 14:24:05 GMT-0600 (Central Standard Time),645767.1000000238,A,body,O,y,102,,715.8999999761581,645051.2000000477,7240,WL,C,14.0
7,22.32800006866455,immed,37671.99993133545,Fri Nov 14 2025 14:24:05 GMT-0600 (Central Standard Time),646518.0,A,bod,O,backspace,738,,1466.7999999523163,645051.2000000477,7240,WL,C,14.0
7,22.493000030517578,immed,37506.99996948242,Fri Nov 14 2025 14:24:05 GMT-0600 (Central Standard Time),646682.9000000954,A,bo,O,backspace,153,,1631.7000000476837,645051.2000000477,7240,WL,C,14.0
7,22.64800000190735,immed,37351.99999809265,Fri Nov 14 2025 14:24:05 GMT-0600 (Central Standard Time),646839.0,A,b,O,backspace,152,,1787.7999999523163,645051.2000000477,7240,WL,C,14.0
7,22.943000078201294,immed,37056.999921798706,Fri Nov 14 2025 14:24:05 GMT-0600 (Central Standard Time),647133.8000000715,A,,O,backspace,288,,2082.600000023842,645051.2000000477,7240,WL,C,14.0
7,23.14400005340576,immed,36855.99994659424,Fri Nov 14 2025 14:24:05 GMT-0600 (Central Standard Time),647334.1000000238,A,s,O,s,186,,2282.899999976158,645051.2000000477,7240,WL,C,14.0
7,23.32699990272522,immed,36673.00009727478,Fri Nov 14 2025 14:24:05 GMT-0600 (Central Standard Time),647517.3000000715,A,sh,O,h,171,,2466.100000023842,645051.2000000477,7240,WL,C,14.0
7,23.425999879837036,immed,36574.000120162964,Fri Nov 14 2025 14:24:05 GMT-0600 (Central Standard Time),647616.3000000715,A,sho,O,o,92,,2565.100000023842,645051.2000000477,7240,WL,C,14.0
7,23.542999982833862,immed,36457.00001716614,Fri Nov 14 2025 14:24:05 GMT-0600 (Central Standard Time),647733.8000000715,A,shor,O,r,113,,2682.600000023842,645051.2000000477,7240,WL,C,14.0
7,23.64199995994568,immed,36358.00004005432,Fri Nov 14 2025 14:24:05 GMT-0600 (Central Standard Time),647832.8000000715,A,shore,O,e,90,,2781.600000023842,645051.2000000477,7240,WL,C,14.0
7,23.858999967575073,immed,36141.00003242493,Fri Nov 14 2025 14:24:05 GMT-0600 (Central Standard Time),648049.2000000477,A,shoreenter,O,enter,208,,2998.0,645051.2000000477,7240,WL,C,14.0
7,24.026000022888184,immed,35973.99997711182,Fri Nov 14 2025 14:24:05 GMT-0600 (Central Standard Time),648216.3000000715,A,b,O,b,150,,166.89999997615814,648049.4000000954,7240,WL,C,15.0
7,24.125999927520752,immed,35874.00007247925,Fri Nov 14 2025 14:24:05 GMT-0600 (Central Standard Time),648316.5,A,bo,O,o,87,,267.09999990463257,648049.4000000954,7240,WL,C,15.0
7,24.29200005531311,immed,35707.99994468689,Fri Nov 14 2025 14:24:05 GMT-0600 (Central Standard Time),648482.9000000954,A,bod,O,d,149,,433.5,648049.4000000954,7240,WL,C,15.0
7,24.408999919891357,immed,35591.00008010864,Fri Nov 14 2025 14:24:05 GMT-0600 (Central Standard Time),648599.2000000477,A,body,O,y,102,,549.7999999523163,648049.4000000954,7240,WL,C,15.0
7,24.7260000705719,immed,35273.9999294281,Fri Nov 14 2025 14:24:05 GMT-0600 (Central Standard Time),648916.7000000477,A,bodyenter,O,enter,298,,867.2999999523163,648049.4000000954,7240,WL,C,15.0
