Q,Q1,Q2,Q3,Q4,acc_sum,block,block_c,correct,correct_response,datetime,endtime,project,response,response_time,row_sel,session_number,squiggle1,squiggle1x,squiggle1y,squiggle2,squiggle2x,squiggle2y,squiggle3,squiggle3x,squiggle3y,squiggle4,squiggle4x,squiggle4y,start_end,starttime,subject_id,target_congruent,task,task_vers,testsquiggle,testsquigglex,testsquiggley,time_practice_delay,time_practice_fixation,time_practice_stimuli,time_practice_study,time_test_delay,time_test_fixation,time_test_stimuli,time_test_study,trial
1,1,0,0,0,1,prac,1,1,z,Thu Jan 15 2026 10:07:55 GMT-0600 (Central Standard Time),137277.0,O,z,1862,1,1,116.bmp,-120,-120,117.bmp,120,-120,118.bmp,-120,120,119.bmp,120,120,10674.5,126602.5,7743,yes,SM,A,116.bmp,-120,-120,129674,123648,131689,125659,,,,,1
3,0,0,1,0,1,prac,1,0,m,Thu Jan 15 2026 10:07:55 GMT-0600 (Central Standard Time),147972.90000009537,O,z,1879,2,1,120.bmp,-120,-120,121.bmp,120,-120,122.bmp,-120,120,123.bmp,120,120,10687.5,137285.40000009537,7743,no,SM,A,123.bmp,-120,120,140353,134331,142369,136338,,,,,2
4,0,0,0,1,2,prac,1,1,m,Thu Jan 15 2026 10:07:55 GMT-0600 (Central Standard Time),158586.70000004768,O,m,1799,3,1,124.bmp,-120,-120,125.bmp,120,-120,126.bmp,-120,120,127.bmp,120,120,10609.200000047684,147977.5,7743,no,SM,A,124.bmp,120,120,151050,145023,153065,147035,,,,,3
2,0,1,0,0,3,prac,1,1,z,Thu Jan 15 2026 10:07:55 GMT-0600 (Central Standard Time),169399.20000004768,O,z,1993,4,1,128.bmp,-120,-120,129.bmp,120,-120,130.bmp,-120,120,131.bmp,120,120,10803.700000047684,158595.5,7743,yes,SM,A,129.bmp,120,-120,161663,155641,163679,157648,,,,,4
3,0,0,1,0,4,prac,1,1,z,Thu Jan 15 2026 10:07:55 GMT-0600 (Central Standard Time),179566.59999990463,O,z,1350,5,1,132.bmp,-120,-120,133.bmp,120,-120,134.bmp,-120,120,135.bmp,120,120,10164.5,169402.09999990463,7743,yes,SM,A,134.bmp,-120,120,172477,166447,174493,168461,,,,,5
1,1,0,0,0,5,prac,1,1,m,Thu Jan 15 2026 10:07:55 GMT-0600 (Central Standard Time),189943.0,O,m,1552,6,1,136.bmp,-120,-120,137.bmp,120,-120,138.bmp,-120,120,139.bmp,120,120,10372.400000095367,179570.59999990463,7743,no,SM,A,139.bmp,-120,-120,182641,176616,184655,178625,,,,,6
2,0,1,0,0,6,prac,1,1,m,Thu Jan 15 2026 10:07:55 GMT-0600 (Central Standard Time),200321.70000004768,O,m,1549,7,1,140.bmp,-120,-120,141.bmp,120,-120,142.bmp,-120,120,143.bmp,120,120,10375.0,189946.70000004768,7743,no,SM,A,140.bmp,120,-120,193021,186992,195036,189004,,,,,7
4,0,0,0,1,7,prac,1,1,z,Thu Jan 15 2026 10:07:55 GMT-0600 (Central Standard Time),210452.79999995232,O,z,1327,8,1,144.bmp,-120,-120,145.bmp,120,-120,146.bmp,-120,120,147.bmp,120,120,10128.399999856949,200324.40000009537,7743,yes,SM,A,147.bmp,120,120,203399,197370,205400,199383,,,,,8
4,0,0,0,1,0,test,1,0,m,Thu Jan 15 2026 10:07:55 GMT-0600 (Central Standard Time),238479.20000004768,O,None,2016,1,1,148.bmp,-120,-120,149.bmp,120,-120,150.bmp,-120,120,143.bmp,120,120,10063.600000143051,228415.59999990463,7743,no,SM,A,150.bmp,120,120,203399,197370,205400,199383,231492.0,225461.0,233508.0,227475.0,1
2,0,1,0,0,1,test,1,1,m,Thu Jan 15 2026 10:07:55 GMT-0600 (Central Standard Time),248030.09999990463,O,m,1499,2,1,101.bmp,-120,-120,102.bmp,120,-120,103.bmp,-120,120,104.bmp,120,120,9545.0,238485.09999990463,7743,no,SM,A,103.bmp,120,-120,203399,197370,205400,199383,241554.0,235530.0,243571.0,237540.0,2
1,1,0,0,0,1,test,1,0,z,Thu Jan 15 2026 10:07:55 GMT-0600 (Central Standard Time),258073.20000004768,O,None,2001,3,1,105.bmp,-120,-120,106.bmp,120,-120,107.bmp,-120,120,108.bmp,120,120,10040.900000095367,248032.29999995232,7743,yes,SM,A,105.bmp,-120,-120,203399,197370,205400,199383,251101.0,245077.0,253117.0,247086.0,3
3,0,0,1,0,2,test,1,1,m,Thu Jan 15 2026 10:07:55 GMT-0600 (Central Standard Time),267186.7999999523,O,m,1051,4,1,109.bmp,-120,-120,110.bmp,120,-120,111.bmp,-120,120,112.bmp,120,120,9109.099999904633,258077.70000004768,7743,no,SM,A,109.bmp,-120,120,203399,197370,205400,199383,261148.0,255123.0,263164.0,257132.0,4
2,0,1,0,0,3,test,1,1,z,Thu Jan 15 2026 10:07:55 GMT-0600 (Central Standard Time),276481.90000009537,O,z,1256,5,1,113.bmp,-120,-120,114.bmp,120,-120,115.bmp,-120,120,116.bmp,120,120,9291.200000047684,267190.7000000477,7743,yes,SM,A,114.bmp,120,-120,203399,197370,205400,199383,270260.0,264236.0,272263.0,266246.0,5
3,0,0,1,0,3,test,1,0,z,Thu Jan 15 2026 10:07:55 GMT-0600 (Central Standard Time),286428.09999990463,O,m,1887,6,1,117.bmp,-120,-120,118.bmp,120,-120,119.bmp,-120,120,120.bmp,120,120,9943.199999809265,276484.90000009537,7743,yes,SM,A,119.bmp,-120,120,203399,197370,205400,199383,279558.0,273530.0,281575.0,275543.0,6
4,0,0,0,1,3,test,1,0,z,Thu Jan 15 2026 10:07:55 GMT-0600 (Central Standard Time),295843.40000009537,O,m,1350,7,1,121.bmp,-120,-120,122.bmp,120,-120,123.bmp,-120,120,124.bmp,120,120,9411.900000095367,286431.5,7743,yes,SM,A,124.bmp,120,120,203399,197370,205400,199383,289506.0,283477.0,291523.0,285490.0,7
2,0,1,0,0,3,test,1,0,m,Thu Jan 15 2026 10:07:55 GMT-0600 (Central Standard Time),305906.5,O,None,2016,8,1,125.bmp,-120,-120,126.bmp,120,-120,127.bmp,-120,120,128.bmp,120,120,10058.700000047684,295847.7999999523,7743,no,SM,A,125.bmp,120,-120,203399,197370,205400,199383,298921.0,292893.0,300935.0,294905.0,8
3,0,0,1,0,4,test,1,1,m,Thu Jan 15 2026 10:07:55 GMT-0600 (Central Standard Time),315402.7000000477,O,m,1433,9,1,129.bmp,-120,-120,130.bmp,120,-120,131.bmp,-120,120,132.bmp,120,120,9492.400000095367,305910.2999999523,7743,no,SM,A,130.bmp,-120,120,203399,197370,205400,199383,308983.0,302956.0,311000.0,304967.0,9
4,0,0,0,1,5,test,1,1,z,Thu Jan 15 2026 10:07:55 GMT-0600 (Central Standard Time),324750.09999990463,O,z,1294,10,1,137.bmp,-120,-120,138.bmp,120,-120,139.bmp,-120,120,140.bmp,120,120,9343.399999856949,315406.7000000477,7743,yes,SM,A,140.bmp,120,120,203399,197370,205400,199383,318481.0,312452.0,320497.0,314464.0,10
3,0,0,1,0,6,test,1,1,z,Thu Jan 15 2026 10:07:55 GMT-0600 (Central Standard Time),333712.09999990463,O,z,921,11,1,133.bmp,-120,-120,134.bmp,120,-120,135.bmp,-120,120,136.bmp,120,120,8957.0,324755.09999990463,7743,yes,SM,A,135.bmp,-120,120,203399,197370,205400,199383,327826.0,321800.0,329829.0,323812.0,11
2,0,1,0,0,7,test,1,1,m,Thu Jan 15 2026 10:07:55 GMT-0600 (Central Standard Time),342877.09999990463,O,m,1127,12,1,141.bmp,-120,-120,142.bmp,120,-120,143.bmp,-120,120,144.bmp,120,120,9162.599999904633,333714.5,7743,no,SM,A,141.bmp,120,-120,203399,197370,205400,199383,336791.0,330760.0,338792.0,332776.0,12
3,0,0,1,0,8,test,1,1,m,Thu Jan 15 2026 10:07:55 GMT-0600 (Central Standard Time),352377.7999999523,O,m,1443,13,1,145.bmp,-120,-120,146.bmp,120,-120,147.bmp,-120,120,148.bmp,120,120,9497.099999904633,342880.7000000477,7743,no,SM,A,146.bmp,-120,120,203399,197370,205400,199383,345956.0,339926.0,347972.0,341940.0,13
1,1,0,0,0,8,test,1,0,z,Thu Jan 15 2026 10:07:55 GMT-0600 (Central Standard Time),362071.7000000477,O,m,1644,14,1,149.bmp,-120,-120,150.bmp,120,-120,104.bmp,-120,120,101.bmp,120,120,9690.0,352381.7000000477,7743,yes,SM,A,149.bmp,-120,-120,203399,197370,205400,199383,355451.0,349427.0,357467.0,351436.0,14
4,0,0,0,1,9,test,1,1,m,Thu Jan 15 2026 10:07:55 GMT-0600 (Central Standard Time),371251.40000009537,O,m,1121,15,1,110.bmp,-120,-120,111.bmp,120,-120,112.bmp,-120,120,113.bmp,120,120,9171.300000190735,362080.09999990463,7743,no,SM,A,111.bmp,120,120,203399,197370,205400,199383,365151.0,359125.0,367166.0,361133.0,15
1,1,0,0,0,10,test,1,1,m,Thu Jan 15 2026 10:07:55 GMT-0600 (Central Standard Time),380732.09999990463,O,m,1430,16,1,102.bmp,-120,-120,103.bmp,120,-120,104.bmp,-120,120,105.bmp,120,120,9476.899999856949,371255.2000000477,7743,no,SM,A,105.bmp,-120,-120,203399,197370,205400,199383,374331.0,368300.0,376345.0,370313.0,16
3,0,0,1,0,11,test,1,1,m,Thu Jan 15 2026 10:07:55 GMT-0600 (Central Standard Time),390628.7999999523,O,m,1846,17,1,122.bmp,-120,-120,123.bmp,120,-120,124.bmp,-120,120,125.bmp,120,120,9893.0,380735.7999999523,7743,no,SM,A,122.bmp,-120,120,203399,197370,205400,199383,383809.0,377781.0,385825.0,379795.0,17
1,1,0,0,0,12,test,1,1,z,Thu Jan 15 2026 10:07:55 GMT-0600 (Central Standard Time),400460.09999990463,O,z,1782,18,1,106.bmp,-120,-120,107.bmp,120,-120,108.bmp,-120,120,109.bmp,120,120,9827.399999856949,390632.7000000477,7743,yes,SM,A,106.bmp,-120,-120,203399,197370,205400,199383,393709.0,387678.0,395721.0,389691.0,18
2,0,1,0,0,12,test,1,0,z,Thu Jan 15 2026 10:07:55 GMT-0600 (Central Standard Time),410522.5,O,None,2013,19,1,126.bmp,-120,-120,127.bmp,120,-120,128.bmp,-120,120,129.bmp,120,120,10055.099999904633,400467.40000009537,7743,yes,SM,A,127.bmp,120,-120,203399,197370,205400,199383,403536.0,397513.0,405554.0,399521.0,19
3,0,0,1,0,13,test,1,1,z,Thu Jan 15 2026 10:07:55 GMT-0600 (Central Standard Time),419751.90000009537,O,z,1166,20,1,130.bmp,-120,-120,131.bmp,120,-120,132.bmp,-120,120,133.bmp,120,120,9226.0,410525.90000009537,7743,yes,SM,A,132.bmp,-120,120,203399,197370,205400,199383,413600.0,407571.0,415616.0,409583.0,20
1,1,0,0,0,14,test,1,1,m,Thu Jan 15 2026 10:07:55 GMT-0600 (Central Standard Time),429417.0,O,m,1602,21,1,114.bmp,-120,-120,115.bmp,120,-120,116.bmp,-120,120,117.bmp,120,120,9663.099999904633,419753.90000009537,7743,no,SM,A,116.bmp,-120,-120,203399,197370,205400,199383,422830.0,416799.0,424845.0,418815.0,21
4,0,0,0,1,14,test,1,0,z,Thu Jan 15 2026 10:07:55 GMT-0600 (Central Standard Time),438279.90000009537,O,m,811,22,1,118.bmp,-120,-120,119.bmp,120,-120,120.bmp,-120,120,121.bmp,120,120,8857.400000095367,429422.5,7743,yes,SM,A,121.bmp,120,120,203399,197370,205400,199383,432493.0,426468.0,434508.0,428479.0,22
1,1,0,0,0,14,test,1,0,m,Thu Jan 15 2026 10:07:55 GMT-0600 (Central Standard Time),447543.5,O,z,1202,23,1,134.bmp,-120,-120,135.bmp,120,-120,136.bmp,-120,120,137.bmp,120,120,9261.599999904633,438281.90000009537,7743,no,SM,A,137.bmp,-120,-120,203399,197370,205400,199383,441359.0,435327.0,443373.0,437343.0,23
2,0,1,0,0,15,test,1,1,z,Thu Jan 15 2026 10:07:55 GMT-0600 (Central Standard Time),457509.2000000477,O,z,1908,24,1,142.bmp,-120,-120,143.bmp,120,-120,144.bmp,-120,120,145.bmp,120,120,9962.200000047684,447547.0,7743,yes,SM,A,143.bmp,120,-120,203399,197370,205400,199383,450621.0,444592.0,452636.0,446605.0,24
4,0,0,0,1,15,test,1,0,m,Thu Jan 15 2026 10:07:55 GMT-0600 (Central Standard Time),467572.7000000477,O,None,2017,25,1,146.bmp,-120,-120,147.bmp,120,-120,148.bmp,-120,120,149.bmp,120,120,10060.400000095367,457512.2999999523,7743,no,SM,A,148.bmp,120,120,203399,197370,205400,199383,460585.0,454558.0,462601.0,456570.0,25
1,1,0,0,0,16,test,1,1,z,Thu Jan 15 2026 10:07:55 GMT-0600 (Central Standard Time),477351.09999990463,O,z,1742,26,1,138.bmp,-120,-120,139.bmp,120,-120,140.bmp,-120,120,141.bmp,120,120,9775.099999904633,467576.0,7743,yes,SM,A,138.bmp,-120,-120,203399,197370,205400,199383,470647.0,464621.0,472649.0,466633.0,26
4,0,0,0,1,16,test,1,0,z,Thu Jan 15 2026 10:07:55 GMT-0600 (Central Standard Time),486650.2999999523,O,m,1235,27,1,150.bmp,-120,-120,111.bmp,120,-120,101.bmp,-120,120,102.bmp,120,120,9292.399999856949,477357.90000009537,7743,yes,SM,A,102.bmp,120,120,203399,197370,205400,199383,480428.0,474403.0,482445.0,476413.0,27
3,0,0,1,0,17,test,1,1,m,Thu Jan 15 2026 10:07:55 GMT-0600 (Central Standard Time),496363.2000000477,O,m,1663,28,1,103.bmp,-120,-120,104.bmp,120,-120,105.bmp,-120,120,106.bmp,120,120,9708.799999952316,486654.40000009537,7743,no,SM,A,103.bmp,-120,120,203399,197370,205400,199383,489725.0,483700.0,491727.0,485710.0,28
2,0,1,0,0,17,test,1,0,z,Thu Jan 15 2026 10:07:55 GMT-0600 (Central Standard Time),506408.5,O,None,2014,29,1,107.bmp,-120,-120,108.bmp,120,-120,109.bmp,-120,120,110.bmp,120,120,10040.900000095367,496367.59999990463,7743,yes,SM,A,108.bmp,120,-120,203399,197370,205400,199383,499438.0,493413.0,501439.0,495423.0,29
3,0,0,1,0,18,test,1,1,z,Thu Jan 15 2026 10:07:55 GMT-0600 (Central Standard Time),515888.7000000477,O,z,1418,30,1,111.bmp,-120,-120,112.bmp,120,-120,113.bmp,-120,120,114.bmp,120,120,9476.799999952316,506411.90000009537,7743,yes,SM,A,113.bmp,-120,120,203399,197370,205400,199383,509485.0,503457.0,511501.0,505472.0,30
1,1,0,0,0,18,test,1,0,z,Thu Jan 15 2026 10:07:55 GMT-0600 (Central Standard Time),525952.7999999523,O,None,2015,31,1,115.bmp,-120,-120,116.bmp,120,-120,117.bmp,-120,120,118.bmp,120,120,10058.700000047684,515894.09999990463,7743,yes,SM,A,115.bmp,-120,-120,203399,197370,205400,199383,518967.0,512939.0,520983.0,514952.0,31
2,0,1,0,0,19,test,1,1,m,Thu Jan 15 2026 10:07:55 GMT-0600 (Central Standard Time),535432.0,O,m,1417,32,1,119.bmp,-120,-120,120.bmp,120,-120,121.bmp,-120,120,122.bmp,120,120,9477.0,525955.0,7743,no,SM,A,119.bmp,120,-120,203399,197370,205400,199383,529030.0,523000.0,531046.0,525015.0,32
4,0,0,0,1,20,test,1,1,z,Thu Jan 15 2026 10:07:55 GMT-0600 (Central Standard Time),544596.2000000477,O,z,1121,33,1,131.bmp,-120,-120,132.bmp,120,-120,133.bmp,-120,120,134.bmp,120,120,9162.200000047684,535434.0,7743,yes,SM,A,134.bmp,120,120,203399,197370,205400,199383,538492.0,532479.0,540510.0,534480.0,33
2,0,1,0,0,21,test,1,1,z,Thu Jan 15 2026 10:07:55 GMT-0600 (Central Standard Time),553644.0999999046,O,z,1003,34,1,123.bmp,-120,-120,124.bmp,120,-120,125.bmp,-120,120,126.bmp,120,120,9044.5,544599.5999999046,7743,yes,SM,A,124.bmp,120,-120,203399,197370,205400,199383,547673.0,541645.0,549677.0,543658.0,34
4,0,0,0,1,21,test,1,0,m,Thu Jan 15 2026 10:07:55 GMT-0600 (Central Standard Time),563441.5999999046,O,z,1733,35,1,127.bmp,-120,-120,128.bmp,120,-120,129.bmp,-120,120,130.bmp,120,120,9790.899999856949,553650.7000000477,7743,no,SM,A,129.bmp,120,120,203399,197370,205400,199383,556721.0,550696.0,558738.0,552707.0,35
3,0,0,1,0,21,test,1,0,m,Thu Jan 15 2026 10:07:55 GMT-0600 (Central Standard Time),572754.7000000477,O,z,1259,36,1,135.bmp,-120,-120,136.bmp,120,-120,137.bmp,-120,120,138.bmp,120,120,9310.0,563444.7000000477,7743,no,SM,A,135.bmp,-120,120,203399,197370,205400,199383,566518.0,560490.0,568533.0,562502.0,36
1,1,0,0,0,22,test,1,1,m,Thu Jan 15 2026 10:07:55 GMT-0600 (Central Standard Time),582619.7999999523,O,m,1797,37,1,139.bmp,-120,-120,140.bmp,120,-120,141.bmp,-120,120,142.bmp,120,120,9862.399999856949,572757.4000000954,7743,no,SM,A,140.bmp,-120,-120,203399,197370,205400,199383,575831.0,569803.0,577849.0,571817.0,37
2,0,1,0,0,23,test,1,1,m,Thu Jan 15 2026 10:07:55 GMT-0600 (Central Standard Time),592598.5999999046,O,m,1935,38,1,143.bmp,-120,-120,144.bmp,120,-120,145.bmp,-120,120,146.bmp,120,120,9975.099999904633,582623.5,7743,no,SM,A,145.bmp,120,-120,203399,197370,205400,199383,585694.0,579669.0,587696.0,581680.0,38
4,0,0,0,1,23,test,1,0,z,Thu Jan 15 2026 10:07:55 GMT-0600 (Central Standard Time),602211.4000000954,O,m,1573,39,1,147.bmp,-120,-120,148.bmp,120,-120,149.bmp,-120,120,150.bmp,120,120,9608.0,592603.4000000954,7743,yes,SM,A,150.bmp,120,120,203399,197370,205400,199383,595661.0,589649.0,597674.0,591660.0,39
3,0,0,1,0,23,test,1,0,m,Thu Jan 15 2026 10:07:55 GMT-0600 (Central Standard Time),611976.4000000954,O,z,1702,40,1,104.bmp,-120,-120,105.bmp,120,-120,106.bmp,-120,120,107.bmp,120,120,9759.900000095367,602216.5,7743,no,SM,A,105.bmp,-120,120,203399,197370,205400,199383,605294.0,599262.0,607305.0,601274.0,40
1,1,0,0,0,24,test,1,1,z,Thu Jan 15 2026 10:07:55 GMT-0600 (Central Standard Time),621688.2000000477,O,z,1659,41,1,108.bmp,-120,-120,109.bmp,120,-120,110.bmp,-120,120,111.bmp,120,120,9709.100000143051,611979.0999999046,7743,yes,SM,A,108.bmp,-120,-120,203399,197370,205400,199383,615052.0,609024.0,617068.0,611037.0,41
4,0,0,0,1,25,test,1,1,z,Thu Jan 15 2026 10:07:55 GMT-0600 (Central Standard Time),630886.2000000477,O,z,1145,42,1,112.bmp,-120,-120,113.bmp,120,-120,114.bmp,-120,120,115.bmp,120,120,9195.600000143051,621690.5999999046,7743,yes,SM,A,115.bmp,120,120,203399,197370,205400,199383,624765.0,618736.0,626782.0,620750.0,42
1,1,0,0,0,26,test,1,1,z,Thu Jan 15 2026 10:07:55 GMT-0600 (Central Standard Time),640417.2000000477,O,z,1467,43,1,116.bmp,-120,-120,117.bmp,120,-120,118.bmp,-120,120,119.bmp,120,120,9528.200000047684,630889.0,7743,yes,SM,A,116.bmp,-120,-120,203399,197370,205400,199383,633963.0,627934.0,635980.0,629947.0,43
4,0,0,0,1,26,test,1,0,m,Thu Jan 15 2026 10:07:55 GMT-0600 (Central Standard Time),650447.5,O,z,1977,44,1,104.bmp,-120,-120,101.bmp,120,-120,102.bmp,-120,120,103.bmp,120,120,10024.799999952316,640422.7000000477,7743,no,SM,A,104.bmp,120,120,203399,197370,205400,199383,643494.0,637468.0,645510.0,639478.0,44
1,1,0,0,0,27,test,1,1,m,Thu Jan 15 2026 10:07:55 GMT-0600 (Central Standard Time),659676.5999999046,O,m,1181,45,1,128.bmp,-120,-120,129.bmp,120,-120,130.bmp,-120,120,131.bmp,120,120,9226.899999856949,650449.7000000477,7743,no,SM,A,131.bmp,-120,-120,203399,197370,205400,199383,653523.0,647495.0,655539.0,649508.0,45
1,1,0,0,0,28,test,1,1,m,Thu Jan 15 2026 10:07:55 GMT-0600 (Central Standard Time),669556.0,O,m,1831,46,1,120.bmp,-120,-120,121.bmp,120,-120,122.bmp,-120,120,123.bmp,120,120,9876.0,659680.0,7743,no,SM,A,121.bmp,-120,-120,203399,197370,205400,199383,662755.0,656725.0,664769.0,658739.0,46
3,0,0,1,0,29,test,1,1,z,Thu Jan 15 2026 10:07:55 GMT-0600 (Central Standard Time),679154.2000000477,O,z,1532,47,1,124.bmp,-120,-120,125.bmp,120,-120,126.bmp,-120,120,127.bmp,120,120,9592.700000047684,669561.5,7743,yes,SM,A,126.bmp,-120,120,203399,197370,205400,199383,672634.0,666607.0,674650.0,668619.0,47
3,0,0,1,0,30,test,1,1,z,Thu Jan 15 2026 10:07:55 GMT-0600 (Central Standard Time),688268.9000000954,O,z,1064,48,1,140.bmp,-120,-120,141.bmp,120,-120,142.bmp,-120,120,143.bmp,120,120,9112.700000047684,679156.2000000477,7743,yes,SM,A,142.bmp,-120,120,203399,197370,205400,199383,682231.0,676201.0,684248.0,678217.0,48
2,0,1,0,0,31,test,1,1,z,Thu Jan 15 2026 10:07:55 GMT-0600 (Central Standard Time),698213.5,O,z,1885,49,1,136.bmp,-120,-120,137.bmp,120,-120,138.bmp,-120,120,139.bmp,120,120,9940.400000095367,688273.0999999046,7743,yes,SM,A,137.bmp,120,-120,203399,197370,205400,199383,691345.0,685318.0,693361.0,687329.0,49
3,0,0,1,0,31,test,1,0,m,Thu Jan 15 2026 10:07:55 GMT-0600 (Central Standard Time),707395.7000000477,O,z,1123,50,1,132.bmp,-120,-120,133.bmp,120,-120,134.bmp,-120,120,135.bmp,120,120,9179.600000143051,698216.0999999046,7743,no,SM,A,132.bmp,-120,120,203399,197370,205400,199383,701292.0,695261.0,703309.0,697277.0,50
2,0,1,0,0,32,test,1,1,z,Thu Jan 15 2026 10:07:55 GMT-0600 (Central Standard Time),717275.7999999523,O,z,1816,51,1,144.bmp,-120,-120,145.bmp,120,-120,146.bmp,-120,120,147.bmp,120,120,9876.5,707399.2999999523,7743,yes,SM,A,145.bmp,120,-120,203399,197370,205400,199383,710471.0,704445.0,712488.0,706457.0,51
4,0,0,0,1,33,test,1,1,m,Thu Jan 15 2026 10:07:55 GMT-0600 (Central Standard Time),726755.7000000477,O,m,1449,52,1,148.bmp,-120,-120,149.bmp,120,-120,150.bmp,-120,120,131.bmp,120,120,9475.600000143051,717280.0999999046,7743,no,SM,A,148.bmp,120,120,203399,197370,205400,199383,720336.0,714325.0,722351.0,716335.0,52
3,0,0,1,0,34,test,1,1,z,Thu Jan 15 2026 10:07:55 GMT-0600 (Central Standard Time),735872.5999999046,O,z,1063,53,1,101.bmp,-120,-120,102.bmp,120,-120,103.bmp,-120,120,104.bmp,120,120,9113.099999904633,726759.5,7743,yes,SM,A,103.bmp,-120,120,203399,197370,205400,199383,729832.0,723805.0,731848.0,725817.0,53
1,1,0,0,0,35,test,1,1,m,Thu Jan 15 2026 10:07:55 GMT-0600 (Central Standard Time),745183.2999999523,O,m,1264,54,1,105.bmp,-120,-120,106.bmp,120,-120,107.bmp,-120,120,108.bmp,120,120,9306.700000047684,735876.5999999046,7743,no,SM,A,107.bmp,-120,-120,203399,197370,205400,199383,738946.0,732922.0,740961.0,734933.0,54
4,0,0,0,1,36,test,1,1,z,Thu Jan 15 2026 10:07:55 GMT-0600 (Central Standard Time),754931.4000000954,O,z,1682,55,1,109.bmp,-120,-120,110.bmp,120,-120,111.bmp,-120,120,112.bmp,120,120,9743.900000095367,745187.5,7743,yes,SM,A,112.bmp,120,120,203399,197370,205400,199383,748261.0,742233.0,750277.0,744244.0,55
2,0,1,0,0,36,test,1,0,m,Thu Jan 15 2026 10:07:55 GMT-0600 (Central Standard Time),764709.0999999046,O,z,1745,56,1,113.bmp,-120,-120,114.bmp,120,-120,115.bmp,-120,120,116.bmp,120,120,9775.0,754934.0999999046,7743,no,SM,A,113.bmp,120,-120,203399,197370,205400,199383,757995.0,751979.0,760006.0,753992.0,56
4,0,0,0,1,37,test,1,1,m,Thu Jan 15 2026 10:07:55 GMT-0600 (Central Standard Time),773872.7000000477,O,m,1098,57,1,117.bmp,-120,-120,118.bmp,120,-120,119.bmp,-120,120,120.bmp,120,120,9160.5,764712.2000000477,7743,no,SM,A,118.bmp,120,120,203399,197370,205400,199383,767791.0,761757.0,769804.0,763770.0,57
3,0,0,1,0,38,test,1,1,z,Thu Jan 15 2026 10:07:55 GMT-0600 (Central Standard Time),783771.7000000477,O,z,1865,58,1,121.bmp,-120,-120,122.bmp,120,-120,123.bmp,-120,120,124.bmp,120,120,9895.799999952316,773875.9000000954,7743,yes,SM,A,123.bmp,-120,120,203399,197370,205400,199383,776949.0,770921.0,778950.0,772936.0,58
2,0,1,0,0,39,test,1,1,m,Thu Jan 15 2026 10:07:55 GMT-0600 (Central Standard Time),792950.0,O,m,1118,59,1,125.bmp,-120,-120,126.bmp,120,-120,127.bmp,-120,120,128.bmp,120,120,9175.799999952316,783774.2000000477,7743,no,SM,A,128.bmp,120,-120,203399,197370,205400,199383,786848.0,780819.0,788864.0,782832.0,59
1,1,0,0,0,39,test,1,0,z,Thu Jan 15 2026 10:07:55 GMT-0600 (Central Standard Time),803014.7000000477,O,None,2016,60,1,129.bmp,-120,-120,130.bmp,120,-120,131.bmp,-120,120,132.bmp,120,120,10062.600000143051,792952.0999999046,7743,yes,SM,A,129.bmp,-120,-120,203399,197370,205400,199383,796028.0,789997.0,798044.0,792013.0,60
2,0,1,0,0,39,test,1,0,z,Thu Jan 15 2026 10:07:55 GMT-0600 (Central Standard Time),812645.5999999046,O,m,1579,61,1,133.bmp,-120,-120,134.bmp,120,-120,135.bmp,-120,120,136.bmp,120,120,9628.5,803017.0999999046,7743,yes,SM,A,134.bmp,120,-120,203399,197370,205400,199383,806091.0,800062.0,808109.0,802077.0,61
4,0,0,0,1,39,test,1,0,z,Thu Jan 15 2026 10:07:55 GMT-0600 (Central Standard Time),822693.9000000954,O,None,2001,62,1,141.bmp,-120,-120,142.bmp,120,-120,143.bmp,-120,120,144.bmp,120,120,10045.200000047684,812648.7000000477,7743,yes,SM,A,144.bmp,120,120,203399,197370,205400,199383,815721.0,809694.0,817738.0,811707.0,62
1,1,0,0,0,39,test,1,0,m,Thu Jan 15 2026 10:07:55 GMT-0600 (Central Standard Time),832271.5999999046,O,z,1519,63,1,145.bmp,-120,-120,146.bmp,120,-120,147.bmp,-120,120,148.bmp,120,120,9572.899999856949,822698.7000000477,7743,no,SM,A,145.bmp,-120,120,203399,197370,205400,199383,825770.0,819744.0,827784.0,821753.0,63
2,0,1,0,0,39,test,1,0,z,Thu Jan 15 2026 10:07:55 GMT-0600 (Central Standard Time),842336.2999999523,O,None,2016,64,1,149.bmp,-120,-120,150.bmp,120,-120,112.bmp,-120,120,101.bmp,120,120,10057.399999856949,832278.9000000954,7743,yes,SM,A,150.bmp,120,-120,203399,197370,205400,199383,835350.0,829324.0,837365.0,831333.0,64
4,0,0,0,1,39,test,1,0,m,Thu Jan 15 2026 10:07:55 GMT-0600 (Central Standard Time),852398.0,O,None,2015,65,1,102.bmp,-120,-120,103.bmp,120,-120,104.bmp,-120,120,105.bmp,120,120,10053.599999904633,842344.4000000954,7743,no,SM,A,104.bmp,120,120,203399,197370,205400,199383,845412.0,839390.0,847428.0,841396.0,65
3,0,0,1,0,40,test,1,1,m,Thu Jan 15 2026 10:07:55 GMT-0600 (Central Standard Time),861629.0999999046,O,m,1177,66,1,106.bmp,-120,-120,107.bmp,120,-120,108.bmp,-120,120,109.bmp,120,120,9227.899999856949,852401.2000000477,7743,no,SM,A,109.bmp,-120,120,203399,197370,205400,199383,855474.0,849446.0,857494.0,851461.0,66
2,0,1,0,0,41,test,1,1,m,Thu Jan 15 2026 10:07:55 GMT-0600 (Central Standard Time),870977.0999999046,O,m,1293,67,1,137.bmp,-120,-120,138.bmp,120,-120,139.bmp,-120,120,140.bmp,120,120,9340.799999952316,861636.2999999523,7743,no,SM,A,139.bmp,120,-120,203399,197370,205400,199383,864706.0,858682.0,866722.0,860691.0,67
3,0,0,1,0,41,test,1,0,z,Thu Jan 15 2026 10:07:55 GMT-0600 (Central Standard Time),880341.2000000477,O,m,1305,68,1,110.bmp,-120,-120,111.bmp,120,-120,112.bmp,-120,120,113.bmp,120,120,9361.400000095367,870979.7999999523,7743,yes,SM,A,112.bmp,-120,120,203399,197370,205400,199383,874053.0,868025.0,876070.0,870037.0,68
1,1,0,0,0,42,test,1,1,m,Thu Jan 15 2026 10:07:55 GMT-0600 (Central Standard Time),889719.0999999046,O,m,1342,69,1,114.bmp,-120,-120,115.bmp,120,-120,116.bmp,-120,120,117.bmp,120,120,9374.699999809265,880344.4000000954,7743,no,SM,A,115.bmp,-120,-120,203399,197370,205400,199383,883416.0,877390.0,885417.0,879402.0,69
2,0,1,0,0,42,test,1,0,m,Thu Jan 15 2026 10:07:55 GMT-0600 (Central Standard Time),899784.2999999523,O,None,2016,70,1,118.bmp,-120,-120,119.bmp,120,-120,120.bmp,-120,120,121.bmp,120,120,10062.399999856949,889721.9000000954,7743,no,SM,A,120.bmp,120,-120,203399,197370,205400,199383,892800.0,886767.0,894813.0,888782.0,70
4,0,0,0,1,42,test,1,0,z,Thu Jan 15 2026 10:07:55 GMT-0600 (Central Standard Time),909447.9000000954,O,m,1610,71,1,122.bmp,-120,-120,123.bmp,120,-120,124.bmp,-120,120,125.bmp,120,120,9657.400000095367,899790.5,7743,yes,SM,A,125.bmp,120,120,203399,197370,205400,199383,902860.0,896836.0,904875.0,898845.0,71
1,1,0,0,0,42,test,1,0,z,Thu Jan 15 2026 10:07:55 GMT-0600 (Central Standard Time),919428.7999999523,O,m,1917,72,1,126.bmp,-120,-120,127.bmp,120,-120,128.bmp,-120,120,129.bmp,120,120,9977.899999856949,909450.9000000954,7743,yes,SM,A,126.bmp,-120,-120,203399,197370,205400,199383,912524.0,906496.0,914541.0,908508.0,72
2,0,1,0,0,43,test,1,1,z,Thu Jan 15 2026 10:07:55 GMT-0600 (Central Standard Time),929158.0,O,z,1669,73,1,130.bmp,-120,-120,131.bmp,120,-120,132.bmp,-120,120,133.bmp,120,120,9725.799999952316,919432.2000000477,7743,yes,SM,A,131.bmp,120,-120,203399,197370,205400,199383,922503.0,916478.0,924522.0,918490.0,73
4,0,0,0,1,44,test,1,1,m,Thu Jan 15 2026 10:07:55 GMT-0600 (Central Standard Time),938155.0,O,m,941,74,1,134.bmp,-120,-120,135.bmp,120,-120,136.bmp,-120,120,137.bmp,120,120,8993.799999952316,929161.2000000477,7743,no,SM,A,136.bmp,120,120,203399,197370,205400,199383,932235.0,926206.0,934250.0,928220.0,74
2,0,1,0,0,45,test,1,1,m,Thu Jan 15 2026 10:07:55 GMT-0600 (Central Standard Time),947219.5999999046,O,m,1007,75,1,138.bmp,-120,-120,139.bmp,120,-120,140.bmp,-120,120,141.bmp,120,120,9062.399999856949,938157.2000000477,7743,no,SM,A,141.bmp,120,-120,203399,197370,205400,199383,941232.0,935202.0,943248.0,937217.0,75
1,1,0,0,0,46,test,1,1,z,Thu Jan 15 2026 10:07:55 GMT-0600 (Central Standard Time),956431.9000000954,O,z,1142,76,1,142.bmp,-120,-120,143.bmp,120,-120,144.bmp,-120,120,145.bmp,120,120,9210.200000047684,947221.7000000477,7743,yes,SM,A,142.bmp,-120,-120,203399,197370,205400,199383,950295.0,944267.0,952322.0,946279.0,76
3,0,0,1,0,47,test,1,1,z,Thu Jan 15 2026 10:07:55 GMT-0600 (Central Standard Time),965746.9000000954,O,z,1266,77,1,150.bmp,-120,-120,111.bmp,120,-120,101.bmp,-120,120,102.bmp,120,120,9309.700000047684,956437.2000000477,7743,yes,SM,A,101.bmp,-120,120,203399,197370,205400,199383,959509.0,953482.0,961525.0,955494.0,77
1,1,0,0,0,48,test,1,1,m,Thu Jan 15 2026 10:07:55 GMT-0600 (Central Standard Time),975325.7999999523,O,m,1528,78,1,146.bmp,-120,-120,147.bmp,120,-120,148.bmp,-120,120,149.bmp,120,120,9575.099999904633,965750.7000000477,7743,no,SM,A,147.bmp,-120,-120,203399,197370,205400,199383,968822.0,962796.0,970839.0,964808.0,78
4,0,0,0,1,49,test,1,1,m,Thu Jan 15 2026 10:07:55 GMT-0600 (Central Standard Time),985107.2999999523,O,m,1713,79,1,107.bmp,-120,-120,108.bmp,120,-120,109.bmp,-120,120,110.bmp,120,120,9772.599999904633,975334.7000000477,7743,no,SM,A,107.bmp,120,120,203399,197370,205400,199383,978403.0,972380.0,980422.0,974387.0,79
3,0,0,1,0,49,test,1,0,m,Thu Jan 15 2026 10:07:55 GMT-0600 (Central Standard Time),995170.7999999523,O,None,2016,80,1,103.bmp,-120,-120,104.bmp,120,-120,105.bmp,-120,120,106.bmp,120,120,10060.0,985110.7999999523,7743,no,SM,A,106.bmp,-120,120,203399,197370,205400,199383,988184.0,982156.0,990200.0,984169.0,80
