acc_sum,block,block_c,condition,correct,correct_response,datetime,endtime,flanker,jitter,project,response,response_test_buffer_response,response_test_target_response,response_time,response_time_test_buffer_response,response_time_test_target_response,row_sel,session_number,start_end,starttime,subject_id,target,task,task_vers,time_test_buffer,time_test_buffer_response,time_test_constants,time_test_flanker,time_test_jitter,time_test_logger,time_test_target,time_test_target_response,time_test_variables,trial
0,prac,1,inc,0,m,Thu Aug 21 2025 11:25:08 GMT-0500 (Central Daylight Time),99216.5,elated,900,I,None,,,1800,,,6,3,4960.800000071526,94255.69999992847,8022,napkin,AF,C,,,,,,,,,,1
1,prac,1,inc,1,z,Thu Aug 21 2025 11:25:08 GMT-0500 (Central Daylight Time),101982.09999990463,rock,900,I,z,,,551,,,10,3,2760.0,99222.09999990463,8022,kind,AF,C,,,,,,,,,,2
2,prac,1,con,1,m,Thu Aug 21 2025 11:25:08 GMT-0500 (Central Daylight Time),104731.09999990463,step,800,I,m,,,637,,,1,3,2744.6999999284744,101986.39999997616,8022,step,AF,C,,,,,,,,,,3
3,prac,1,inc,1,z,Thu Aug 21 2025 11:25:08 GMT-0500 (Central Daylight Time),107713.69999992847,film,900,I,z,,,780,,,14,3,2978.399999976158,104735.29999995232,8022,hate,AF,C,,,,,,,,,,4
4,prac,1,con,1,z,Thu Aug 21 2025 11:25:08 GMT-0500 (Central Daylight Time),110929.59999990463,rage,1000,I,z,,,913,,,15,3,3211.1999999284744,107718.39999997616,8022,rage,AF,C,,,,,,,,,,5
5,prac,1,inc,1,m,Thu Aug 21 2025 11:25:08 GMT-0500 (Central Daylight Time),113778.29999995232,kind,900,I,m,,,647,,,2,3,2844.0,110934.29999995232,8022,rock,AF,C,,,,,,,,,,6
6,prac,1,con,1,m,Thu Aug 21 2025 11:25:08 GMT-0500 (Central Daylight Time),116960.59999990463,remote,1000,I,m,,,872,,,7,3,3176.7999999523163,113783.79999995232,8022,remote,AF,C,,,,,,,,,,7
7,prac,1,con,1,z,Thu Aug 21 2025 11:25:08 GMT-0500 (Central Daylight Time),119726.5,love,1000,I,z,,,457,,,11,3,2761.9000000953674,116964.59999990463,8022,love,AF,C,,,,,,,,,,8
8,prac,1,con,1,z,Thu Aug 21 2025 11:25:08 GMT-0500 (Central Daylight Time),122475.79999995232,elated,800,I,z,,,643,,,9,3,2745.0,119730.79999995232,8022,elated,AF,C,,,,,,,,,,9
9,prac,1,inc,1,m,Thu Aug 21 2025 11:25:08 GMT-0500 (Central Daylight Time),125558.09999990463,brutal,1100,I,m,,,675,,,8,3,3077.5999999046326,122480.5,8022,window,AF,C,,,,,,,,,,10
10,prac,1,inc,1,m,Thu Aug 21 2025 11:25:08 GMT-0500 (Central Daylight Time),128624.19999992847,hate,1100,I,m,,,657,,,4,3,3061.1999999284744,125563.0,8022,film,AF,C,,,,,,,,,,11
11,prac,1,con,1,m,Thu Aug 21 2025 11:25:08 GMT-0500 (Central Daylight Time),131506.0,jacket,800,I,m,,,786,,,5,3,2877.5,128628.5,8022,jacket,AF,C,,,,,,,,,,12
12,prac,1,inc,1,z,Thu Aug 21 2025 11:25:08 GMT-0500 (Central Daylight Time),134621.89999997616,napkin,1100,I,z,,,709,,,12,3,3111.8000000715256,131510.09999990463,8022,friend,AF,C,,,,,,,,,,13
13,prac,1,con,1,z,Thu Aug 21 2025 11:25:08 GMT-0500 (Central Daylight Time),137504.19999992847,brutal,800,I,z,,,782,,,13,3,2878.1999999284744,134626.0,8022,brutal,AF,C,,,,,,,,,,14
14,prac,1,con,1,m,Thu Aug 21 2025 11:25:08 GMT-0500 (Central Daylight Time),140469.89999997616,bell,1000,I,m,,,651,,,3,3,2961.5,137508.39999997616,8022,bell,AF,C,,,,,,,,,,15
15,prac,1,inc,1,z,Thu Aug 21 2025 11:25:08 GMT-0500 (Central Daylight Time),143535.59999990463,window,1100,I,z,,,658,,,16,3,3061.5999999046326,140474.0,8022,temper,AF,C,,,,,,,,,,16
1,test,1,inc,1,m,Thu Aug 21 2025 11:25:08 GMT-0500 (Central Daylight Time),153465.69999992847,love,1000,I,m,m,None,548,348.0,200.0,95,3,2128.6999999284744,151337.0,8022,film,AF,C,149225,149225,147446,148511,147446,149575,149025,149025,149575,1
2,test,1,con,1,m,Thu Aug 21 2025 11:25:08 GMT-0500 (Central Daylight Time),155598.59999990463,step,900,I,m,m,None,694,494.0,200.0,66,3,2127.899999976158,153470.69999992847,8022,step,AF,C,151208,151208,149580,150492,149580,151708,151008,151008,151708,2
3,test,1,con,1,z,Thu Aug 21 2025 11:25:08 GMT-0500 (Central Daylight Time),157764.5,rage,800,I,z,z,None,819,620.0,199.0,49,3,2161.4000000953674,155603.09999990463,8022,rage,AF,C,153240,153241,151712,152524,151713,153874,153041,153041,153873,3
4,test,1,con,1,z,Thu Aug 21 2025 11:25:08 GMT-0500 (Central Daylight Time),160130.59999990463,hate,1100,I,z,z,None,721,522.0,199.0,44,3,2362.0,157768.59999990463,8022,hate,AF,C,155707,155707,153878,154990,153878,156240,155507,155507,156239,4
4,test,1,con,0,z,Thu Aug 21 2025 11:25:08 GMT-0500 (Central Daylight Time),162863.09999990463,brutal,1100,I,m,m,None,1083,884.0,199.0,36,3,2728.0999999046326,160135.0,8022,brutal,AF,C,158073,158073,156244,157357,156244,158972,157873,157873,158972,5
5,test,1,con,1,z,Thu Aug 21 2025 11:25:08 GMT-0500 (Central Daylight Time),164712.59999990463,kind,800,I,z,z,None,509,309.0,200.0,9,3,1845.3999999761581,162867.19999992847,8022,kind,AF,C,160505,160505,158976,159789,158976,160822,160305,160305,160822,6
6,test,1,inc,1,m,Thu Aug 21 2025 11:25:08 GMT-0500 (Central Daylight Time),166578.5,rage,800,I,m,m,None,530,330.0,200.0,69,3,1861.9000000953674,164716.59999990463,8022,step,AF,C,162355,162355,160826,161638,160826,162688,162154,162154,162688,7
7,test,1,inc,1,m,Thu Aug 21 2025 11:25:08 GMT-0500 (Central Daylight Time),168644.29999995232,kind,900,I,m,m,None,621,421.0,200.0,86,3,2061.7999999523163,166582.5,8022,bell,AF,C,164320,164320,162692,163604,162692,164753,164120,164120,164753,8
8,test,1,con,1,z,Thu Aug 21 2025 11:25:08 GMT-0500 (Central Daylight Time),170693.79999995232,kind,900,I,z,z,None,603,404.0,199.0,10,3,2045.5,168648.29999995232,8022,kind,AF,C,166386,166386,164757,165670,164758,166803,166187,166187,166803,9
9,test,1,inc,1,z,Thu Aug 21 2025 11:25:08 GMT-0500 (Central Daylight Time),173009.69999992847,window,1100,I,z,z,None,674,474.0,200.0,40,3,2311.899999976158,170697.79999995232,8022,brutal,AF,C,168636,168636,166807,167920,166807,169119,168436,168436,169119,10
10,test,1,inc,1,z,Thu Aug 21 2025 11:25:08 GMT-0500 (Central Daylight Time),175208.69999992847,remote,1000,I,z,z,None,657,457.0,200.0,7,3,2194.399999976158,173014.29999995232,8022,elated,AF,C,170852,170852,169123,170135,169124,171318,170652,170652,171318,11
11,test,1,con,1,z,Thu Aug 21 2025 11:25:08 GMT-0500 (Central Daylight Time),177391.69999992847,elated,1100,I,z,z,None,543,343.0,200.0,4,3,2178.5,175213.19999992847,8022,elated,AF,C,173151,173151,171322,172435,171322,173501,172951,172951,173501,12
12,test,1,inc,1,m,Thu Aug 21 2025 11:25:08 GMT-0500 (Central Daylight Time),179407.89999997616,elated,800,I,m,m,None,666,467.0,199.0,101,3,2012.1000000238419,177395.79999995232,8022,jacket,AF,C,175034,175034,173505,174317,173505,175517,174834,174834,175517,13
13,test,1,inc,1,m,Thu Aug 21 2025 11:25:08 GMT-0500 (Central Daylight Time),181406.89999997616,brutal,900,I,m,m,None,560,360.0,200.0,110,3,1994.3999999761581,179412.5,8022,napkin,AF,C,177150,177150,175522,176434,175522,177516,176950,176950,177516,14
14,test,1,con,1,z,Thu Aug 21 2025 11:25:08 GMT-0500 (Central Daylight Time),183523.09999990463,friend,800,I,z,z,None,781,581.0,200.0,25,3,2112.2999999523163,181410.79999995232,8022,friend,AF,C,179049,179049,177520,178333,177520,179632,178849,178849,179632,15
15,test,1,inc,1,z,Thu Aug 21 2025 11:25:08 GMT-0500 (Central Daylight Time),185789.09999990463,window,1100,I,z,z,None,620,420.0,200.0,8,3,2262.0999999046326,183527.0,8022,elated,AF,C,181465,181465,179636,180749,179636,181898,181265,181265,181898,16
16,test,1,inc,1,m,Thu Aug 21 2025 11:25:08 GMT-0500 (Central Daylight Time),187688.39999997616,elated,800,I,m,m,None,549,350.0,199.0,125,3,1895.1000000238419,185793.29999995232,8022,window,AF,C,183431,183431,181902,182715,181903,183797,183232,183232,183797,17
17,test,1,con,1,m,Thu Aug 21 2025 11:25:08 GMT-0500 (Central Daylight Time),189921.19999992847,rock,1100,I,m,m,None,591,392.0,199.0,76,3,2228.899999976158,187692.29999995232,8022,rock,AF,C,185630,185630,183801,184914,183802,186030,185431,185431,186030,18
18,test,1,con,1,m,Thu Aug 21 2025 11:25:08 GMT-0500 (Central Daylight Time),191820.5,rock,800,I,m,m,None,563,363.0,200.0,73,3,1895.4000000953674,189925.09999990463,8022,rock,AF,C,187563,187563,186034,186847,186034,187930,187363,187363,187929,19
19,test,1,con,1,m,Thu Aug 21 2025 11:25:08 GMT-0500 (Central Daylight Time),194003.19999992847,window,1100,I,m,m,None,538,339.0,199.0,124,3,2178.899999976158,191824.29999995232,8022,window,AF,C,189762,189762,187933,189046,187934,190112,189563,189563,190112,20
19,test,1,inc,0,m,Thu Aug 21 2025 11:25:08 GMT-0500 (Central Daylight Time),196635.79999995232,friend,1100,I,z,z,None,996,796.0,200.0,120,3,2628.399999976158,194007.39999997616,8022,remote,AF,C,191945,191945,190116,191229,190117,192745,191745,191745,192745,21
20,test,1,inc,1,z,Thu Aug 21 2025 11:25:08 GMT-0500 (Central Daylight Time),199068.29999995232,window,1100,I,z,z,None,794,595.0,199.0,64,3,2427.100000023842,196641.19999992847,8022,temper,AF,C,194578,194578,192750,193862,192751,195177,194378,194378,195177,22
21,test,1,inc,1,z,Thu Aug 21 2025 11:25:08 GMT-0500 (Central Daylight Time),201017.59999990463,jacket,800,I,z,z,None,606,406.0,200.0,29,3,1945.3999999761581,199072.19999992847,8022,friend,AF,C,196711,196711,195181,195994,195181,197127,196510,196510,197127,23
22,test,1,con,1,m,Thu Aug 21 2025 11:25:08 GMT-0500 (Central Daylight Time),203383.5,bell,800,I,m,m,None,1024,825.0,199.0,81,3,2361.9000000953674,201021.59999990463,8022,bell,AF,C,198660,198660,197131,197943,197131,199493,198460,198460,199492,24
23,test,1,inc,1,z,Thu Aug 21 2025 11:25:08 GMT-0500 (Central Daylight Time),205499.5,rock,900,I,z,z,None,678,479.0,199.0,22,3,2112.100000023842,203387.39999997616,8022,love,AF,C,201126,201126,199496,200409,199497,201609,200926,200926,201609,25
24,test,1,con,1,z,Thu Aug 21 2025 11:25:08 GMT-0500 (Central Daylight Time),207982.29999995232,brutal,900,I,z,z,None,1034,835.0,199.0,34,3,2478.600000023842,205503.69999992847,8022,brutal,AF,C,203242,203242,201613,202525,201613,204091,203042,203042,204091,26
25,test,1,inc,1,z,Thu Aug 21 2025 11:25:08 GMT-0500 (Central Daylight Time),210014.79999995232,step,800,I,z,z,None,693,493.0,200.0,53,3,2028.6000000238419,207986.19999992847,8022,rage,AF,C,205624,205624,204095,204908,204096,206124,205424,205424,206124,27
26,test,1,con,1,m,Thu Aug 21 2025 11:25:08 GMT-0500 (Central Daylight Time),212264.29999995232,remote,1000,I,m,m,None,699,500.0,199.0,115,3,2245.5,210018.79999995232,8022,remote,AF,C,207857,207857,206128,207140,206128,208373,207657,207657,208373,28
27,test,1,con,1,z,Thu Aug 21 2025 11:25:08 GMT-0500 (Central Daylight Time),214463.59999990463,rage,1100,I,z,z,None,560,360.0,200.0,52,3,2195.5999999046326,212268.0,8022,rage,AF,C,210206,210206,208377,209490,208377,210573,210006,210006,210573,29
28,test,1,con,1,z,Thu Aug 21 2025 11:25:08 GMT-0500 (Central Daylight Time),216762.69999992847,hate,1000,I,z,z,None,765,565.0,200.0,43,3,2295.399999976158,214467.29999995232,8022,hate,AF,C,212305,212305,210576,211589,210577,212872,212105,212105,212872,30
29,test,1,con,1,z,Thu Aug 21 2025 11:25:08 GMT-0500 (Central Daylight Time),218995.29999995232,temper,1100,I,z,z,None,587,388.0,199.0,60,3,2228.7999999523163,216766.5,8022,temper,AF,C,214705,214705,212876,213988,212876,215104,214505,214505,215104,31
30,test,1,con,1,m,Thu Aug 21 2025 11:25:08 GMT-0500 (Central Daylight Time),221277.79999995232,bell,1100,I,m,m,None,644,445.0,199.0,84,3,2278.600000023842,218999.19999992847,8022,bell,AF,C,216937,216937,215108,216221,215109,217387,216737,216738,217387,32
31,test,1,inc,1,m,Thu Aug 21 2025 11:25:08 GMT-0500 (Central Daylight Time),223477.29999995232,brutal,900,I,m,m,None,762,562.0,200.0,118,3,2195.2999999523163,221282.0,8022,remote,AF,C,219020,219020,217391,218303,217391,219586,218820,218820,219586,33
32,test,1,con,1,m,Thu Aug 21 2025 11:25:08 GMT-0500 (Central Daylight Time),225610.0,remote,900,I,m,m,None,691,491.0,200.0,114,3,2129.0,223481.0,8022,remote,AF,C,221219,221219,219590,220504,219590,221719,221019,221019,221719,34
33,test,1,inc,1,m,Thu Aug 21 2025 11:25:08 GMT-0500 (Central Daylight Time),227809.0,love,1000,I,m,m,None,665,465.0,200.0,87,3,2195.100000023842,225613.89999997616,8022,bell,AF,C,223452,223452,221723,222736,221723,223918,223252,223252,223918,35
34,test,1,inc,1,z,Thu Aug 21 2025 11:25:08 GMT-0500 (Central Daylight Time),229758.59999990463,step,800,I,z,z,None,611,410.0,201.0,13,3,1946.0,227812.59999990463,8022,kind,AF,C,225452,225452,223922,224735,223922,225868,225251,225251,225868,36
35,test,1,con,1,z,Thu Aug 21 2025 11:25:08 GMT-0500 (Central Daylight Time),231958.0,kind,1000,I,z,z,None,652,437.0,215.0,11,3,2195.2000000476837,229762.79999995232,8022,kind,AF,C,227617,227617,225872,226884,225872,228067,227402,227402,228067,37
36,test,1,inc,1,z,Thu Aug 21 2025 11:25:08 GMT-0500 (Central Daylight Time),234273.79999995232,napkin,900,I,z,z,None,881,681.0,200.0,38,3,2312.2000000476837,231961.59999990463,8022,brutal,AF,C,229700,229700,228071,228984,228071,230383,229500,229500,230383,38
37,test,1,con,1,m,Thu Aug 21 2025 11:25:08 GMT-0500 (Central Daylight Time),236473.19999992847,film,1100,I,m,m,None,557,357.0,200.0,92,3,2195.399999976158,234277.79999995232,8022,film,AF,C,232216,232216,230387,231499,230387,232582,232016,232016,232582,39
38,test,1,con,1,z,Thu Aug 21 2025 11:25:08 GMT-0500 (Central Daylight Time),238672.39999997616,rage,900,I,z,z,None,751,551.0,200.0,50,3,2195.3000000715256,236477.09999990463,8022,rage,AF,C,234215,234215,232586,233499,232586,234782,234015,234015,234781,40
39,test,1,inc,1,z,Thu Aug 21 2025 11:25:08 GMT-0500 (Central Daylight Time),240771.79999995232,rock,900,I,z,z,None,655,456.0,199.0,54,3,2095.7999999523163,238676.0,8022,rage,AF,C,236414,236414,234785,235698,234785,236881,236215,236215,236881,41
40,test,1,inc,1,z,Thu Aug 21 2025 11:25:08 GMT-0500 (Central Daylight Time),243021.09999990463,remote,1000,I,z,z,None,703,502.0,201.0,39,3,2245.899999976158,240775.19999992847,8022,brutal,AF,C,238615,238615,236884,237898,236884,239130,238414,238414,239130,42
41,test,1,inc,1,z,Thu Aug 21 2025 11:25:08 GMT-0500 (Central Daylight Time),245270.5,window,1100,I,z,z,None,611,411.0,200.0,32,3,2245.7000000476837,243024.79999995232,8022,friend,AF,C,240963,240963,239134,240247,239134,241380,240763,240763,241380,43
42,test,1,con,1,m,Thu Aug 21 2025 11:25:08 GMT-0500 (Central Daylight Time),247319.79999995232,film,900,I,m,m,None,570,359.0,211.0,90,3,2045.6000000238419,245274.19999992847,8022,film,AF,C,243063,243063,241383,242296,241383,243429,242851,242851,243429,44
43,test,1,inc,1,z,Thu Aug 21 2025 11:25:08 GMT-0500 (Central Daylight Time),249269.29999995232,step,800,I,z,z,None,610,411.0,199.0,45,3,1945.6000000238419,247323.69999992847,8022,hate,AF,C,244962,244962,243433,244245,243433,245378,244762,244762,245378,45
44,test,1,inc,1,z,Thu Aug 21 2025 11:25:08 GMT-0500 (Central Daylight Time),251884.89999997616,film,1100,I,z,z,None,979,779.0,200.0,16,3,2611.8000000715256,249273.09999990463,8022,kind,AF,C,247211,247211,245382,246495,245382,247994,247011,247011,247994,46
45,test,1,inc,1,z,Thu Aug 21 2025 11:25:08 GMT-0500 (Central Daylight Time),254150.79999995232,film,1100,I,z,z,None,627,427.0,200.0,56,3,2261.600000023842,251889.19999992847,8022,rage,AF,C,249827,249827,247998,249111,247998,250260,249627,249627,250260,47
46,test,1,con,1,m,Thu Aug 21 2025 11:25:08 GMT-0500 (Central Daylight Time),256267.0,window,900,I,m,m,None,673,473.0,200.0,122,3,2112.5,254154.5,8022,window,AF,C,251893,251893,250263,251176,250264,252376,251693,251693,252376,48
47,test,1,con,1,z,Thu Aug 21 2025 11:25:08 GMT-0500 (Central Daylight Time),258466.39999997616,temper,900,I,z,z,None,757,557.0,200.0,58,3,2195.8000000715256,256270.59999990463,8022,temper,AF,C,254009,254009,252380,253292,252380,254576,253809,253809,254575,49
48,test,1,con,1,m,Thu Aug 21 2025 11:25:08 GMT-0500 (Central Daylight Time),260482.19999992847,film,800,I,m,m,None,673,473.0,200.0,89,3,2012.1999999284744,258470.0,8022,film,AF,C,256108,256108,254579,255392,254579,256591,255908,255908,256591,50
49,test,1,inc,1,m,Thu Aug 21 2025 11:25:08 GMT-0500 (Central Daylight Time),262581.39999997616,kind,900,I,m,m,None,659,460.0,199.0,78,3,2095.600000023842,260485.79999995232,8022,rock,AF,C,258224,258225,256595,257508,256595,258691,258025,258025,258690,51
50,test,1,con,1,m,Thu Aug 21 2025 11:25:08 GMT-0500 (Central Daylight Time),264847.6999999285,step,1100,I,m,m,None,616,417.0,199.0,68,3,2262.100000023842,262585.59999990463,8022,step,AF,C,260524,260524,258695,259807,258695,260957,260324,260324,260957,52
51,test,1,inc,1,z,Thu Aug 21 2025 11:25:08 GMT-0500 (Central Daylight Time),266997.0,napkin,900,I,z,z,None,712,513.0,199.0,30,3,2145.8000000715256,264851.1999999285,8022,friend,AF,C,262589,262589,260960,261873,260961,263106,262390,262390,263106,53
52,test,1,con,1,m,Thu Aug 21 2025 11:25:08 GMT-0500 (Central Daylight Time),268946.1999999285,remote,800,I,m,m,None,614,414.0,200.0,113,3,1945.5,267000.6999999285,8022,remote,AF,C,264639,264639,263110,263923,263110,265055,264439,264439,265055,54
53,test,1,inc,1,z,Thu Aug 21 2025 11:25:08 GMT-0500 (Central Daylight Time),271212.09999990463,remote,1000,I,z,z,None,729,529.0,200.0,63,3,2261.899999976158,268950.1999999285,8022,temper,AF,C,266789,266789,265059,266072,265059,267321,266588,266588,267321,55
54,test,1,con,1,z,Thu Aug 21 2025 11:25:08 GMT-0500 (Central Daylight Time),273428.09999990463,love,1100,I,z,z,None,572,372.0,200.0,20,3,2212.0,271216.09999990463,8022,love,AF,C,269154,269154,267325,268438,267325,269537,268954,268954,269537,56
55,test,1,con,1,m,Thu Aug 21 2025 11:25:08 GMT-0500 (Central Daylight Time),275427.6999999285,rock,900,I,m,m,None,556,356.0,200.0,74,3,1995.6999999284744,273432.0,8022,rock,AF,C,271170,271170,269541,270454,269541,271537,270970,270970,271537,57
56,test,1,inc,1,m,Thu Aug 21 2025 11:25:08 GMT-0500 (Central Daylight Time),277827.09999990463,friend,1100,I,m,m,None,755,556.0,199.0,112,3,2395.6999999284744,275431.39999997616,8022,napkin,AF,C,273370,273370,271540,272653,271541,273936,273169,273170,273936,58
57,test,1,con,1,m,Thu Aug 21 2025 11:25:08 GMT-0500 (Central Daylight Time),279943.09999990463,bell,900,I,m,m,None,669,469.0,200.0,82,3,2112.2999999523163,277830.7999999523,8022,bell,AF,C,275569,275569,273940,274852,273940,276052,275369,275369,276052,59
58,test,1,inc,1,z,Thu Aug 21 2025 11:25:08 GMT-0500 (Central Daylight Time),282042.2999999523,rock,900,I,z,z,None,657,457.0,200.0,46,3,2095.5,279946.7999999523,8022,hate,AF,C,277685,277685,276056,276969,276056,278151,277485,277485,278151,60
59,test,1,con,1,m,Thu Aug 21 2025 11:25:08 GMT-0500 (Central Daylight Time),284224.7999999523,napkin,1000,I,m,m,None,632,433.0,199.0,107,3,2178.399999976158,282046.39999997616,8022,napkin,AF,C,279884,279884,278155,279168,278156,280334,279685,279685,280334,61
60,test,1,con,1,m,Thu Aug 21 2025 11:25:08 GMT-0500 (Central Daylight Time),286457.2999999523,jacket,1100,I,m,m,None,597,398.0,199.0,100,3,2228.600000023842,284228.6999999285,8022,jacket,AF,C,282167,282167,280338,281450,280338,282566,281967,281967,282566,62
61,test,1,inc,1,m,Thu Aug 21 2025 11:25:08 GMT-0500 (Central Daylight Time),288406.6999999285,rage,800,I,m,m,None,602,402.0,200.0,85,3,1945.7999999523163,286460.89999997616,8022,bell,AF,C,284099,284099,282570,283383,282570,284516,283899,283899,284516,63
62,test,1,con,1,z,Thu Aug 21 2025 11:25:08 GMT-0500 (Central Daylight Time),290356.1999999285,elated,800,I,z,z,None,605,405.0,200.0,1,3,1945.6999999284744,288410.5,8022,elated,AF,C,286049,286049,284520,285332,284520,286465,285849,285849,286465,64
63,test,1,inc,1,z,Thu Aug 21 2025 11:25:08 GMT-0500 (Central Daylight Time),292505.2999999523,rock,900,I,z,z,None,706,506.0,200.0,14,3,2145.2999999523163,290360.0,8022,kind,AF,C,288099,288099,286469,287382,286469,288614,287898,287898,288614,65
64,test,1,con,1,z,Thu Aug 21 2025 11:25:08 GMT-0500 (Central Daylight Time),294838.09999990463,brutal,1000,I,z,z,None,784,570.0,214.0,35,3,2328.7999999523163,292509.2999999523,8022,brutal,AF,C,290364,290364,288618,289631,288619,290947,290150,290150,290947,66
65,test,1,inc,1,m,Thu Aug 21 2025 11:25:08 GMT-0500 (Central Daylight Time),297037.39999997616,love,1000,I,m,m,None,654,454.0,200.0,79,3,2195.3000000715256,294842.09999990463,8022,rock,AF,C,292680,292680,290951,291964,290951,293147,292480,292480,293146,67
66,test,1,inc,1,z,Thu Aug 21 2025 11:25:08 GMT-0500 (Central Daylight Time),299303.5,bell,1000,I,z,z,None,725,526.0,199.0,47,3,2262.5,297041.0,8022,hate,AF,C,294879,294879,293150,294163,293150,295413,294680,294680,295413,68
67,test,1,con,1,z,Thu Aug 21 2025 11:25:08 GMT-0500 (Central Daylight Time),301402.7999999523,friend,900,I,z,z,None,663,464.0,199.0,26,3,2095.5,299307.2999999523,8022,friend,AF,C,297046,297046,295416,296329,295417,297512,296846,296846,297512,69
68,test,1,con,1,m,Thu Aug 21 2025 11:25:08 GMT-0500 (Central Daylight Time),303368.7999999523,jacket,800,I,m,m,None,633,433.0,200.0,97,3,1962.2999999523163,301406.5,8022,jacket,AF,C,299045,299045,297516,298328,297516,299478,298845,298845,299478,70
69,test,1,inc,1,m,Thu Aug 21 2025 11:25:08 GMT-0500 (Central Daylight Time),305601.1999999285,hate,1100,I,m,m,None,598,399.0,199.0,88,3,2229.0,303372.1999999285,8022,bell,AF,C,301311,301311,299481,300594,299481,301710,301111,301111,301710,71
70,test,1,inc,1,m,Thu Aug 21 2025 11:25:08 GMT-0500 (Central Daylight Time),307634.09999990463,rage,800,I,m,m,None,688,489.0,199.0,77,3,2029.1999999284744,305604.89999997616,8022,rock,AF,C,303244,303244,301714,302527,301714,303743,303044,303044,303743,72
71,test,1,con,1,m,Thu Aug 21 2025 11:25:08 GMT-0500 (Central Daylight Time),309567.0,napkin,800,I,m,m,None,594,394.0,200.0,105,3,1929.4000000953674,307637.59999990463,8022,napkin,AF,C,305276,305276,303747,304560,303747,305676,305076,305076,305676,73
72,test,1,con,1,z,Thu Aug 21 2025 11:25:08 GMT-0500 (Central Daylight Time),311899.39999997616,temper,1000,I,z,z,None,797,597.0,200.0,59,3,2328.899999976158,309570.5,8022,temper,AF,C,307409,307409,305680,306694,305680,308009,307209,307209,308008,74
73,test,1,con,1,z,Thu Aug 21 2025 11:25:08 GMT-0500 (Central Daylight Time),314082.1999999285,friend,1000,I,z,z,None,646,447.0,199.0,27,3,2179.100000023842,311903.09999990463,8022,friend,AF,C,309742,309742,308012,309025,308012,310191,309541,309542,310191,75
74,test,1,inc,1,m,Thu Aug 21 2025 11:25:08 GMT-0500 (Central Daylight Time),316381.39999997616,friend,1100,I,m,m,None,654,454.0,200.0,104,3,2295.399999976158,314086.0,8022,jacket,AF,C,312024,312024,310195,311308,310195,312491,311824,311824,312490,76
75,test,1,inc,1,z,Thu Aug 21 2025 11:25:08 GMT-0500 (Central Daylight Time),318830.59999990463,film,1100,I,z,z,None,711,511.0,200.0,48,3,2445.1999999284744,316385.39999997616,8022,hate,AF,C,314423,314423,312494,313707,312495,314940,314223,314223,314940,77
76,test,1,inc,1,z,Thu Aug 21 2025 11:25:08 GMT-0500 (Central Daylight Time),320979.89999997616,napkin,900,I,z,z,None,712,513.0,199.0,62,3,2145.600000023842,318834.2999999523,8022,temper,AF,C,316573,316573,314943,315856,314944,317089,316373,316373,317089,78
77,test,1,con,1,z,Thu Aug 21 2025 11:25:08 GMT-0500 (Central Daylight Time),323046.09999990463,hate,900,I,z,z,None,628,428.0,200.0,42,3,2062.399999976158,320983.6999999285,8022,hate,AF,C,318722,318722,317093,318006,317093,319155,318522,318522,319155,79
78,test,1,con,1,m,Thu Aug 21 2025 11:25:08 GMT-0500 (Central Daylight Time),325162.0,film,1000,I,m,m,None,581,381.0,200.0,91,3,2112.3000000715256,323049.6999999285,8022,film,AF,C,320888,320888,319159,320172,319159,321271,320688,320688,321271,80
79,test,1,con,1,z,Thu Aug 21 2025 11:25:08 GMT-0500 (Central Daylight Time),327344.89999997616,elated,1000,I,z,z,None,642,442.0,200.0,3,3,2179.3000000715256,325165.59999990463,8022,elated,AF,C,323004,323004,321275,322288,321275,323454,322804,322804,323454,81
80,test,1,con,1,m,Thu Aug 21 2025 11:25:08 GMT-0500 (Central Daylight Time),329593.89999997616,napkin,1100,I,m,m,None,613,414.0,199.0,108,3,2244.7000000476837,327349.1999999285,8022,napkin,AF,C,325287,325287,323458,324570,323458,325703,325087,325087,325703,82
81,test,1,inc,1,z,Thu Aug 21 2025 11:25:08 GMT-0500 (Central Daylight Time),331776.6999999285,remote,1000,I,z,z,None,634,434.0,200.0,31,3,2179.100000023842,329597.59999990463,8022,friend,AF,C,327436,327436,325707,326720,325707,327886,327236,327236,327886,83
82,test,1,con,1,m,Thu Aug 21 2025 11:25:08 GMT-0500 (Central Daylight Time),333859.09999990463,step,1000,I,m,m,None,538,339.0,199.0,67,3,2078.6999999284744,331780.39999997616,8022,step,AF,C,329619,329619,327889,328902,327890,329968,329419,329419,329968,84
83,test,1,inc,1,m,Thu Aug 21 2025 11:25:08 GMT-0500 (Central Daylight Time),336158.59999990463,love,1000,I,m,m,None,760,560.0,200.0,71,3,2295.6999999284744,333862.89999997616,8022,step,AF,C,331701,331701,329972,330985,329972,332268,331501,331501,332268,85
84,test,1,inc,1,m,Thu Aug 21 2025 11:25:08 GMT-0500 (Central Daylight Time),338241.1999999285,brutal,900,I,m,m,None,640,441.0,199.0,126,3,2078.899999976158,336162.2999999523,8022,window,AF,C,333901,333901,332271,333184,332272,334350,333701,333701,334350,86
85,test,1,con,1,z,Thu Aug 21 2025 11:25:08 GMT-0500 (Central Daylight Time),340440.6999999285,kind,1100,I,z,z,None,551,351.0,200.0,12,3,2195.5,338245.1999999285,8022,kind,AF,C,336183,336183,334354,335467,334354,336550,335983,335983,336550,87
86,test,1,inc,1,z,Thu Aug 21 2025 11:25:08 GMT-0500 (Central Daylight Time),342523.09999990463,step,800,I,z,z,None,738,538.0,200.0,21,3,2078.6999999284744,340444.39999997616,8022,love,AF,C,338083,338083,336553,337366,336554,338632,337883,337883,338632,88
86,test,1,con,0,z,Thu Aug 21 2025 11:25:08 GMT-0500 (Central Daylight Time),344406.0,brutal,800,I,m,m,None,536,337.0,199.0,33,3,1878.8000000715256,342527.1999999285,8022,brutal,AF,C,340165,340165,338636,339449,338637,340515,339966,339966,340515,89
87,test,1,con,1,z,Thu Aug 21 2025 11:25:08 GMT-0500 (Central Daylight Time),346505.1999999285,elated,900,I,z,z,None,657,457.0,200.0,2,3,2095.5,344409.6999999285,8022,elated,AF,C,342148,342148,340519,341432,340519,342614,341948,341948,342614,90
88,test,1,con,1,z,Thu Aug 21 2025 11:25:08 GMT-0500 (Central Daylight Time),348621.1999999285,friend,1100,I,z,z,None,479,279.0,200.0,28,3,2112.2999999523163,346508.89999997616,8022,friend,AF,C,344447,344447,342618,343731,342618,344730,344247,344247,344730,91
89,test,1,inc,1,z,Thu Aug 21 2025 11:25:08 GMT-0500 (Central Daylight Time),350787.5,bell,1000,I,z,z,None,622,422.0,200.0,55,3,2162.5,348625.0,8022,rage,AF,C,346463,346463,344734,345747,344734,346897,346263,346263,346897,92
90,test,1,inc,1,m,Thu Aug 21 2025 11:25:08 GMT-0500 (Central Daylight Time),352870.1999999285,kind,900,I,m,m,None,636,436.0,200.0,70,3,2079.0,350791.1999999285,8022,step,AF,C,348530,348530,346900,347813,346900,348979,348329,348329,348979,93
91,test,1,inc,1,z,Thu Aug 21 2025 11:25:08 GMT-0500 (Central Daylight Time),354986.0,napkin,900,I,z,z,None,674,473.0,201.0,6,3,2112.4000000953674,352873.59999990463,8022,elated,AF,C,350613,350613,348983,349896,348983,351095,350412,350412,351095,94
92,test,1,con,1,m,Thu Aug 21 2025 11:25:08 GMT-0500 (Central Daylight Time),357118.7999999523,jacket,1000,I,m,m,None,594,394.0,200.0,99,3,2129.2999999523163,354989.5,8022,jacket,AF,C,352828,352828,351099,352112,351099,353228,352628,352628,353228,95
93,test,1,con,1,z,Thu Aug 21 2025 11:25:08 GMT-0500 (Central Daylight Time),359284.6999999285,rage,1000,I,z,z,None,620,421.0,199.0,51,3,2162.2999999523163,357122.39999997616,8022,rage,AF,C,354961,354961,353231,354244,353232,355394,354761,354761,355394,96
94,test,1,inc,1,m,Thu Aug 21 2025 11:25:08 GMT-0500 (Central Daylight Time),361450.5,temper,1000,I,m,m,None,630,431.0,199.0,103,3,2162.0,359288.5,8022,jacket,AF,C,357127,357127,355398,356410,355398,357560,356927,356927,357560,97
95,test,1,inc,1,m,Thu Aug 21 2025 11:25:08 GMT-0500 (Central Daylight Time),363666.1999999285,temper,1000,I,m,m,None,680,481.0,199.0,127,3,2212.0,361454.1999999285,8022,window,AF,C,359293,359293,357563,358576,357563,359775,359093,359093,359775,98
96,test,1,con,1,m,Thu Aug 21 2025 11:25:08 GMT-0500 (Central Daylight Time),365882.39999997616,step,800,I,m,m,None,806,606.0,200.0,65,3,2212.600000023842,363669.7999999523,8022,step,AF,C,361375,361375,359779,360666,359779,361992,361175,361175,361991,99
97,test,1,con,1,z,Thu Aug 21 2025 11:25:08 GMT-0500 (Central Daylight Time),367882.0,love,800,I,z,z,None,656,457.0,199.0,17,3,1995.9000000953674,365886.09999990463,8022,love,AF,C,363525,363525,361995,362808,361995,363991,363325,363325,363991,100
98,test,1,inc,1,z,Thu Aug 21 2025 11:25:08 GMT-0500 (Central Daylight Time),370231.09999990463,film,1100,I,z,z,None,709,509.0,200.0,24,3,2345.2999999523163,367885.7999999523,8022,love,AF,C,365825,365825,363995,365107,363995,366340,365625,365625,366340,101
99,test,1,inc,1,m,Thu Aug 21 2025 11:25:08 GMT-0500 (Central Daylight Time),372146.89999997616,elated,800,I,m,m,None,581,381.0,200.0,109,3,1911.3000000715256,370235.59999990463,8022,napkin,AF,C,367873,367873,366345,367157,366345,368256,367673,367673,368256,102
100,test,1,con,1,z,Thu Aug 21 2025 11:25:08 GMT-0500 (Central Daylight Time),374113.1999999285,love,900,I,z,z,None,525,325.0,200.0,18,3,1962.6999999284744,372150.5,8022,love,AF,C,369889,369889,368260,369173,368260,370222,369689,369689,370222,103
101,test,1,con,1,m,Thu Aug 21 2025 11:25:08 GMT-0500 (Central Daylight Time),376262.5,window,1000,I,m,m,None,602,402.0,200.0,123,3,2145.8000000715256,374116.6999999285,8022,window,AF,C,371955,371955,370226,371239,370226,372372,371755,371755,372372,104
102,test,1,con,1,z,Thu Aug 21 2025 11:25:08 GMT-0500 (Central Daylight Time),378228.6999999285,temper,800,I,z,z,None,620,421.0,199.0,57,3,1962.5,376266.1999999285,8022,temper,AF,C,373905,373905,372375,373188,372375,374338,373705,373705,374338,105
103,test,1,con,1,m,Thu Aug 21 2025 11:25:08 GMT-0500 (Central Daylight Time),380244.7999999523,napkin,900,I,m,m,None,578,379.0,199.0,106,3,2012.2999999523163,378232.5,8022,napkin,AF,C,375971,375971,374341,375254,374342,376354,375771,375771,376354,106
104,test,1,inc,1,m,Thu Aug 21 2025 11:25:08 GMT-0500 (Central Daylight Time),382493.89999997616,temper,1000,I,m,m,None,710,510.0,200.0,119,3,2245.399999976158,380248.5,8022,remote,AF,C,378087,378087,376358,377370,376358,378603,377887,377887,378603,107
105,test,1,inc,1,z,Thu Aug 21 2025 11:25:08 GMT-0500 (Central Daylight Time),384610.09999990463,jacket,800,I,z,z,None,781,581.0,200.0,37,3,2112.5999999046326,382497.5,8022,brutal,AF,C,380136,380136,378607,379419,378607,380719,379936,379936,380719,108
106,test,1,con,1,z,Thu Aug 21 2025 11:25:08 GMT-0500 (Central Daylight Time),386626.0,love,1000,I,z,z,None,474,274.0,200.0,19,3,2012.3000000715256,384613.6999999285,8022,love,AF,C,382452,382452,380723,381737,380723,382735,382252,382252,382735,109
107,test,1,con,1,m,Thu Aug 21 2025 11:25:08 GMT-0500 (Central Daylight Time),388558.5,window,800,I,m,m,None,584,380.0,204.0,121,3,1928.7000000476837,386629.7999999523,8022,window,AF,C,384273,384273,382739,383552,382739,384668,384068,384068,384668,110
108,test,1,inc,1,m,Thu Aug 21 2025 11:25:08 GMT-0500 (Central Daylight Time),390541.5,elated,800,I,m,m,None,636,437.0,199.0,117,3,1979.0,388562.5,8022,remote,AF,C,386201,386201,384672,385484,384672,386651,386001,386001,386650,111
109,test,1,inc,1,m,Thu Aug 21 2025 11:25:08 GMT-0500 (Central Daylight Time),392840.7999999523,hate,1100,I,m,m,None,651,451.0,200.0,96,3,2295.600000023842,390545.1999999285,8022,film,AF,C,388483,388483,386654,387767,386654,388950,388283,388283,388950,112
110,test,1,inc,1,m,Thu Aug 21 2025 11:25:08 GMT-0500 (Central Daylight Time),395123.2999999523,hate,1100,I,m,m,None,647,447.0,200.0,80,3,2278.899999976158,392844.39999997616,8022,rock,AF,C,390783,390783,388953,390066,388954,391232,390583,390583,391232,113
111,test,1,inc,1,z,Thu Aug 21 2025 11:25:08 GMT-0500 (Central Daylight Time),397305.6999999285,bell,1000,I,z,z,None,649,449.0,200.0,23,3,2178.600000023842,395127.09999990463,8022,love,AF,C,392965,392965,391236,392250,391236,393415,392765,392765,393415,114
112,test,1,inc,1,m,Thu Aug 21 2025 11:25:08 GMT-0500 (Central Daylight Time),399422.09999990463,temper,1000,I,m,m,None,570,370.0,200.0,111,3,2112.899999976158,397309.1999999285,8022,napkin,AF,C,395148,395148,393418,394432,393418,395531,394948,394948,395531,115
113,test,1,con,1,m,Thu Aug 21 2025 11:25:08 GMT-0500 (Central Daylight Time),401721.2999999523,remote,1100,I,m,m,None,658,458.0,200.0,116,3,2295.7000000476837,399425.59999990463,8022,remote,AF,C,397364,397364,395535,396648,395535,397830,397164,397164,397830,116
114,test,1,inc,1,m,Thu Aug 21 2025 11:25:08 GMT-0500 (Central Daylight Time),403670.59999990463,rage,800,I,m,m,None,610,410.0,200.0,93,3,1945.2999999523163,401725.2999999523,8022,film,AF,C,399363,399364,397834,398647,397835,399780,399163,399163,399780,117
115,test,1,con,1,m,Thu Aug 21 2025 11:25:08 GMT-0500 (Central Daylight Time),405820.1999999285,jacket,900,I,m,m,None,705,505.0,200.0,98,3,2145.600000023842,403674.59999990463,8022,jacket,AF,C,401413,401413,399784,400696,399784,401929,401213,401213,401929,118
116,test,1,inc,1,m,Thu Aug 21 2025 11:25:08 GMT-0500 (Central Daylight Time),407769.0,brutal,900,I,m,m,None,515,315.0,200.0,102,3,1945.4000000953674,405823.59999990463,8022,jacket,AF,C,403562,403562,401933,402846,401933,403878,403362,403362,403878,119
117,test,1,inc,1,m,Thu Aug 21 2025 11:25:08 GMT-0500 (Central Daylight Time),409752.09999990463,kind,900,I,m,m,None,533,334.0,199.0,94,3,1979.5999999046326,407772.5,8022,film,AF,C,405511,405511,403882,404795,403882,405861,405312,405312,405861,120
118,test,1,inc,1,z,Thu Aug 21 2025 11:25:08 GMT-0500 (Central Daylight Time),411867.89999997616,jacket,800,I,z,z,None,794,579.0,215.0,61,3,2112.3000000715256,409755.59999990463,8022,temper,AF,C,407394,407394,405865,406677,405865,407977,407179,407179,407977,121
119,test,1,con,1,m,Thu Aug 21 2025 11:25:08 GMT-0500 (Central Daylight Time),413950.5,bell,1000,I,m,m,None,535,335.0,200.0,83,3,2076.600000023842,411873.89999997616,8022,bell,AF,C,409710,409710,407983,408994,407983,410060,409510,409510,410060,122
120,test,1,inc,1,m,Thu Aug 21 2025 11:25:08 GMT-0500 (Central Daylight Time),416183.59999990463,hate,1100,I,m,m,None,584,384.0,200.0,72,3,2229.5999999046326,413954.0,8022,step,AF,C,411893,411893,410063,411176,410063,412293,411693,411693,412293,123
121,test,1,con,1,z,Thu Aug 21 2025 11:25:08 GMT-0500 (Central Daylight Time),418166.1999999285,hate,800,I,z,z,None,634,435.0,199.0,41,3,1979.0,416187.1999999285,8022,hate,AF,C,413826,413826,412296,413109,412296,414275,413626,413626,414275,124
122,test,1,con,1,m,Thu Aug 21 2025 11:25:08 GMT-0500 (Central Daylight Time),420165.6999999285,rock,1000,I,m,m,None,462,262.0,200.0,75,3,1995.6000000238419,418170.09999990463,8022,rock,AF,C,416008,416008,414279,415291,414279,416275,415808,415808,416275,125
123,test,1,inc,1,m,Thu Aug 21 2025 11:25:08 GMT-0500 (Central Daylight Time),422398.09999990463,friend,1100,I,m,m,None,594,394.0,200.0,128,3,2228.899999976158,420169.1999999285,8022,window,AF,C,418107,418107,416278,417391,416278,418507,417907,417907,418507,126
124,test,1,inc,1,z,Thu Aug 21 2025 11:25:08 GMT-0500 (Central Daylight Time),424564.1999999285,bell,1000,I,z,z,None,620,421.0,199.0,15,3,2162.2999999523163,422401.89999997616,8022,kind,AF,C,420240,420240,418511,419523,418511,420673,420041,420041,420673,127
125,test,1,inc,1,z,Thu Aug 21 2025 11:25:08 GMT-0500 (Central Daylight Time),426663.39999997616,jacket,800,I,z,z,None,760,560.0,200.0,5,3,2095.8000000715256,424567.59999990463,8022,elated,AF,C,422206,422206,420677,421490,420677,422772,422006,422006,422772,128
