block_c,block_dur,condition,countdown,datetime,endtime,list,multichar_response,project,response,response_time,session_number,start_end,starttime,subject_id,task,task_vers,trial
,,,,Tue Jul 01 2025 14:31:13 GMT-0500 (Central Daylight Time),,,,O,space,754,1,,,7175,WL,A,
prac,,0,,Tue Jul 01 2025 14:31:13 GMT-0500 (Central Daylight Time),,NA,b,O,b,3627,1,,,7175,WL,A,1.0
prac,,0,,Tue Jul 01 2025 14:31:13 GMT-0500 (Central Daylight Time),,NA,bo,O,o,228,1,,,7175,WL,A,1.0
prac,,0,,Tue Jul 01 2025 14:31:13 GMT-0500 (Central Daylight Time),,NA,boo,O,o,148,1,,,7175,WL,A,1.0
prac,,0,,Tue Jul 01 2025 14:31:13 GMT-0500 (Central Daylight Time),,NA,boos,O,s,190,1,,,7175,WL,A,1.0
prac,,0,,Tue Jul 01 2025 14:31:13 GMT-0500 (Central Daylight Time),,NA,boost,O,t,183,1,,,7175,WL,A,1.0
prac,,0,,Tue Jul 01 2025 14:31:13 GMT-0500 (Central Daylight Time),,NA,boostenter,O,enter,1102,1,,,7175,WL,A,1.0
1,1.9170000553131104,learn,58082.99994468689,Tue Jul 01 2025 14:31:13 GMT-0500 (Central Daylight Time),325979.89999999944,A,f,O,f,1909,1,1915.7999999998137,324064.0999999996,7175,WL,A,1.0
1,2.1500000953674316,learn,57849.99990463257,Tue Jul 01 2025 14:31:13 GMT-0500 (Central Daylight Time),326213.2999999998,A,fl,O,l,215,1,2149.2000000001863,324064.0999999996,7175,WL,A,1.0
1,2.4000000953674316,learn,57599.99990463257,Tue Jul 01 2025 14:31:13 GMT-0500 (Central Daylight Time),326463.19999999925,A,flo,O,o,239,1,2399.0999999996275,324064.0999999996,7175,WL,A,1.0
1,2.5329999923706055,learn,57467.000007629395,Tue Jul 01 2025 14:31:13 GMT-0500 (Central Daylight Time),326596.2999999998,A,flow,O,w,118,1,2532.2000000001863,324064.0999999996,7175,WL,A,1.0
1,2.5839998722076416,learn,57416.00012779236,Tue Jul 01 2025 14:31:13 GMT-0500 (Central Daylight Time),326647.69999999925,A,flowe,O,e,40,1,2583.5999999996275,324064.0999999996,7175,WL,A,1.0
1,2.7160000801086426,learn,57283.99991989136,Tue Jul 01 2025 14:31:13 GMT-0500 (Central Daylight Time),326779.5999999996,A,flower,O,r,117,1,2715.5,324064.0999999996,7175,WL,A,1.0
1,3.4670000076293945,learn,56532.999992370605,Tue Jul 01 2025 14:31:13 GMT-0500 (Central Daylight Time),327530.39999999944,A,flowerenter,O,enter,737,1,3466.2999999998137,324064.0999999996,7175,WL,A,1.0
1,4.598999977111816,learn,55401.00002288818,Tue Jul 01 2025 14:31:13 GMT-0500 (Central Daylight Time),328662.5,A,b,O,b,1121,1,1131.2000000001863,327531.2999999998,7175,WL,A,2.0
1,4.832000017166138,learn,55167.99998283386,Tue Jul 01 2025 14:31:13 GMT-0500 (Central Daylight Time),328895.5999999996,A,bo,O,o,214,1,1364.2999999998137,327531.2999999998,7175,WL,A,2.0
1,5.016000032424927,learn,54983.99996757507,Tue Jul 01 2025 14:31:13 GMT-0500 (Central Daylight Time),329078.89999999944,A,boo,O,o,165,1,1547.5999999996275,327531.2999999998,7175,WL,A,2.0
1,5.315999984741211,learn,54684.00001525879,Tue Jul 01 2025 14:31:13 GMT-0500 (Central Daylight Time),329378.7999999998,A,book,O,k,285,1,1847.5,327531.2999999998,7175,WL,A,2.0
1,6.0320000648498535,learn,53967.99993515015,Tue Jul 01 2025 14:31:13 GMT-0500 (Central Daylight Time),330095.0999999996,A,bookenter,O,enter,705,1,2563.7999999998137,327531.2999999998,7175,WL,A,2.0
1,6.98199987411499,learn,53018.00012588501,Tue Jul 01 2025 14:31:13 GMT-0500 (Central Daylight Time),331045.0,A,g,O,g,933,1,949.4000000003725,330095.5999999996,7175,WL,A,3.0
1,7.180999994277954,learn,52819.000005722046,Tue Jul 01 2025 14:31:13 GMT-0500 (Central Daylight Time),331244.69999999925,A,go,O,o,184,1,1149.0999999996275,330095.5999999996,7175,WL,A,3.0
1,7.414999961853027,learn,52585.00003814697,Tue Jul 01 2025 14:31:13 GMT-0500 (Central Daylight Time),331478.19999999925,A,gol,O,l,224,1,1382.5999999996275,330095.5999999996,7175,WL,A,3.0
1,7.815000057220459,learn,52184.99994277954,Tue Jul 01 2025 14:31:13 GMT-0500 (Central Daylight Time),331878.0999999996,A,gold,O,d,390,1,1782.5,330095.5999999996,7175,WL,A,3.0
1,8.098000049591064,learn,51901.999950408936,Tue Jul 01 2025 14:31:13 GMT-0500 (Central Daylight Time),332161.5,A,goldenter,O,enter,271,1,2065.9000000003725,330095.5999999996,7175,WL,A,3.0
1,8.565000057220459,learn,51434.99994277954,Tue Jul 01 2025 14:31:13 GMT-0500 (Central Daylight Time),332627.69999999925,A,t,O,t,452,1,465.79999999981374,332161.89999999944,7175,WL,A,4.0
1,8.780999898910522,learn,51219.00010108948,Tue Jul 01 2025 14:31:13 GMT-0500 (Central Daylight Time),332844.2999999998,A,tr,O,r,209,1,682.4000000003725,332161.89999999944,7175,WL,A,4.0
1,8.914000034332275,learn,51085.999965667725,Tue Jul 01 2025 14:31:13 GMT-0500 (Central Daylight Time),332977.7999999998,A,tra,O,a,113,1,815.9000000003725,332161.89999999944,7175,WL,A,4.0
1,9.063999891281128,learn,50936.00010871887,Tue Jul 01 2025 14:31:13 GMT-0500 (Central Daylight Time),333127.5999999996,A,trai,O,i,131,1,965.7000000001863,332161.89999999944,7175,WL,A,4.0
1,9.29699993133545,learn,50703.00006866455,Tue Jul 01 2025 14:31:13 GMT-0500 (Central Daylight Time),333360.69999999925,A,train,O,n,213,1,1198.7999999998137,332161.89999999944,7175,WL,A,4.0
1,10.081000089645386,learn,49918.999910354614,Tue Jul 01 2025 14:31:13 GMT-0500 (Central Daylight Time),334144.0,A,trainenter,O,enter,772,1,1982.1000000005588,332161.89999999944,7175,WL,A,4.0
1,12.463000059127808,learn,47536.99994087219,Tue Jul 01 2025 14:31:13 GMT-0500 (Central Daylight Time),336526.5,A,f,O,f,2365,1,2382.100000000559,334144.39999999944,7175,WL,A,5.0
1,12.579999923706055,learn,47420.000076293945,Tue Jul 01 2025 14:31:13 GMT-0500 (Central Daylight Time),336643.0999999996,A,fi,O,i,102,1,2498.7000000001863,334144.39999999944,7175,WL,A,5.0
1,12.79699993133545,learn,47203.00006866455,Tue Jul 01 2025 14:31:13 GMT-0500 (Central Daylight Time),336859.89999999944,A,fin,O,n,201,1,2715.5,334144.39999999944,7175,WL,A,5.0
1,12.86299991607666,learn,47137.00008392334,Tue Jul 01 2025 14:31:13 GMT-0500 (Central Daylight Time),336926.5,A,fing,O,g,56,1,2782.100000000559,334144.39999999944,7175,WL,A,5.0
1,13.02999997138977,learn,46970.00002861023,Tue Jul 01 2025 14:31:13 GMT-0500 (Central Daylight Time),337093.0999999996,A,finge,O,e,151,1,2948.7000000001863,334144.39999999944,7175,WL,A,5.0
1,13.11299991607666,learn,46887.00008392334,Tue Jul 01 2025 14:31:13 GMT-0500 (Central Daylight Time),337176.2999999998,A,finger,O,r,72,1,3031.9000000003725,334144.39999999944,7175,WL,A,5.0
1,13.36299991607666,learn,46637.00008392334,Tue Jul 01 2025 14:31:13 GMT-0500 (Central Daylight Time),337426.19999999925,A,fingerenter,O,enter,245,1,3281.7999999998137,334144.39999999944,7175,WL,A,5.0
1,18.977999925613403,learn,41022.0000743866,Tue Jul 01 2025 14:31:13 GMT-0500 (Central Daylight Time),343041.0,A,c,O,c,5595,1,5614.5,337426.5,7175,WL,A,6.0
1,19.17799997329712,learn,40822.00002670288,Tue Jul 01 2025 14:31:13 GMT-0500 (Central Daylight Time),343241.0999999996,A,ch,O,h,180,1,5814.5999999996275,337426.5,7175,WL,A,6.0
1,19.26099991798401,learn,40739.00008201599,Tue Jul 01 2025 14:31:13 GMT-0500 (Central Daylight Time),343324.39999999944,A,chi,O,i,68,1,5897.899999999441,337426.5,7175,WL,A,6.0
1,19.543999910354614,learn,40456.000089645386,Tue Jul 01 2025 14:31:13 GMT-0500 (Central Daylight Time),343607.69999999925,A,chim,O,m,264,1,6181.199999999255,337426.5,7175,WL,A,6.0
1,19.810999870300293,learn,40189.00012969971,Tue Jul 01 2025 14:31:13 GMT-0500 (Central Daylight Time),343874.0999999996,A,chimn,O,n,244,1,6447.5999999996275,337426.5,7175,WL,A,6.0
1,19.99399995803833,learn,40006.00004196167,Tue Jul 01 2025 14:31:13 GMT-0500 (Central Daylight Time),344057.39999999944,A,chimne,O,e,171,1,6630.899999999441,337426.5,7175,WL,A,6.0
1,20.16100001335144,learn,39838.99998664856,Tue Jul 01 2025 14:31:13 GMT-0500 (Central Daylight Time),344224.0999999996,A,chimney,O,y,147,1,6797.5999999996275,337426.5,7175,WL,A,6.0
1,21.043999910354614,learn,38956.000089645386,Tue Jul 01 2025 14:31:13 GMT-0500 (Central Daylight Time),345107.39999999944,A,chimneyenter,O,enter,869,1,7680.899999999441,337426.5,7175,WL,A,6.0
1,24.30900001525879,learn,35690.99998474121,Tue Jul 01 2025 14:31:13 GMT-0500 (Central Daylight Time),348372.69999999925,A,r,O,r,3257,1,3264.899999999441,345107.7999999998,7175,WL,A,7.0
1,24.509999990463257,learn,35490.00000953674,Tue Jul 01 2025 14:31:13 GMT-0500 (Central Daylight Time),348573.0,A,ru,O,u,184,1,3465.2000000001863,345107.7999999998,7175,WL,A,7.0
1,24.7260000705719,learn,35273.9999294281,Tue Jul 01 2025 14:31:13 GMT-0500 (Central Daylight Time),348789.39999999944,A,rug,O,g,208,1,3681.5999999996275,345107.7999999998,7175,WL,A,7.0
1,25.158999919891357,learn,34841.00008010864,Tue Jul 01 2025 14:31:13 GMT-0500 (Central Daylight Time),349222.5999999996,A,rugenter,O,enter,415,1,4114.799999999814,345107.7999999998,7175,WL,A,7.0
1,30.157999992370605,learn,29842.000007629395,Tue Jul 01 2025 14:31:13 GMT-0500 (Central Daylight Time),354221.0999999996,A,r,O,r,4990,1,4998.200000000186,349222.89999999944,7175,WL,A,8.0
1,30.424000024795532,learn,29575.999975204468,Tue Jul 01 2025 14:31:13 GMT-0500 (Central Daylight Time),354487.5999999996,A,ra,O,a,256,1,5264.700000000186,349222.89999999944,7175,WL,A,8.0
1,30.657999992370605,learn,29342.000007629395,Tue Jul 01 2025 14:31:13 GMT-0500 (Central Daylight Time),354720.7999999998,A,rat,O,t,214,1,5497.9000000003725,349222.89999999944,7175,WL,A,8.0
1,30.85800004005432,learn,29141.99995994568,Tue Jul 01 2025 14:31:13 GMT-0500 (Central Daylight Time),354920.7999999998,A,ratt,O,t,180,1,5697.9000000003725,349222.89999999944,7175,WL,A,8.0
1,31.007999897003174,learn,28992.000102996826,Tue Jul 01 2025 14:31:13 GMT-0500 (Central Daylight Time),355070.7999999998,A,rattl,O,l,140,1,5847.9000000003725,349222.89999999944,7175,WL,A,8.0
1,31.207000017166138,learn,28792.999982833862,Tue Jul 01 2025 14:31:13 GMT-0500 (Central Daylight Time),355270.69999999925,A,rattle,O,e,183,1,6047.799999999814,349222.89999999944,7175,WL,A,8.0
1,31.490999937057495,learn,28509.000062942505,Tue Jul 01 2025 14:31:13 GMT-0500 (Central Daylight Time),355554.0,A,rattleenter,O,enter,261,1,6331.100000000559,349222.89999999944,7175,WL,A,8.0
1,60.014999866485596,learn,-14.999866485595703,Tue Jul 01 2025 14:31:13 GMT-0500 (Central Daylight Time),384078.2999999998,A,None,O,None,28519,1,28523.900000000373,355554.39999999944,7175,WL,A,9.0
2,0.9490001201629639,learn,59050.999879837036,Tue Jul 01 2025 14:31:13 GMT-0500 (Central Daylight Time),458155.0999999996,A,g,O,g,936,1,949.4000000003725,457205.69999999925,7175,WL,A,1.0
2,1.1159999370574951,learn,58884.000062942505,Tue Jul 01 2025 14:31:13 GMT-0500 (Central Daylight Time),458321.69999999925,A,go,O,o,145,1,1116.0,457205.69999999925,7175,WL,A,1.0
2,1.3989999294281006,learn,58601.0000705719,Tue Jul 01 2025 14:31:13 GMT-0500 (Central Daylight Time),458605.0,A,gol,O,l,275,1,1399.300000000745,457205.69999999925,7175,WL,A,1.0
2,1.6990001201629639,learn,58300.999879837036,Tue Jul 01 2025 14:31:13 GMT-0500 (Central Daylight Time),458904.7999999998,A,gold,O,d,280,1,1699.1000000005588,457205.69999999925,7175,WL,A,1.0
2,2.499000072479248,learn,57500.99992752075,Tue Jul 01 2025 14:31:13 GMT-0500 (Central Daylight Time),459704.39999999944,A,goldenter,O,enter,781,1,2498.7000000001863,457205.69999999925,7175,WL,A,1.0
2,3.365000009536743,learn,56634.99999046326,Tue Jul 01 2025 14:31:13 GMT-0500 (Central Daylight Time),460570.89999999944,A,m,O,m,861,1,866.0999999996275,459704.7999999998,7175,WL,A,2.0
2,3.499000072479248,learn,56500.99992752075,Tue Jul 01 2025 14:31:13 GMT-0500 (Central Daylight Time),460704.5,A,me,O,e,114,1,999.7000000001863,459704.7999999998,7175,WL,A,2.0
2,3.6649999618530273,learn,56335.00003814697,Tue Jul 01 2025 14:31:13 GMT-0500 (Central Daylight Time),460870.89999999944,A,mea,O,a,157,1,1166.0999999996275,459704.7999999998,7175,WL,A,2.0
2,3.8320000171661377,learn,56167.99998283386,Tue Jul 01 2025 14:31:13 GMT-0500 (Central Daylight Time),461037.69999999925,A,mead,O,d,150,1,1332.8999999994412,459704.7999999998,7175,WL,A,2.0
2,4.0320000648498535,learn,55967.99993515015,Tue Jul 01 2025 14:31:13 GMT-0500 (Central Daylight Time),461237.5999999996,A,meado,O,o,184,1,1532.7999999998137,459704.7999999998,7175,WL,A,2.0
2,4.180999994277954,learn,55819.000005722046,Tue Jul 01 2025 14:31:13 GMT-0500 (Central Daylight Time),461387.0999999996,A,meadow,O,w,144,1,1682.2999999998137,459704.7999999998,7175,WL,A,2.0
2,4.430999994277954,learn,55569.000005722046,Tue Jul 01 2025 14:31:13 GMT-0500 (Central Daylight Time),461637.0999999996,A,meadowenter,O,enter,234,1,1932.2999999998137,459704.7999999998,7175,WL,A,2.0
2,5.3480000495910645,learn,54651.999950408936,Tue Jul 01 2025 14:31:13 GMT-0500 (Central Daylight Time),462553.7999999998,A,h,O,h,896,1,916.2999999998137,461637.5,7175,WL,A,3.0
2,5.4649999141693115,learn,54535.00008583069,Tue Jul 01 2025 14:31:13 GMT-0500 (Central Daylight Time),462670.5999999996,A,ha,O,a,99,1,1033.0999999996275,461637.5,7175,WL,A,3.0
2,5.581000089645386,learn,54418.999910354614,Tue Jul 01 2025 14:31:13 GMT-0500 (Central Daylight Time),462786.69999999925,A,har,O,r,111,1,1149.199999999255,461637.5,7175,WL,A,3.0
2,5.898000001907349,learn,54101.99999809265,Tue Jul 01 2025 14:31:13 GMT-0500 (Central Daylight Time),463103.5,A,harp,O,p,299,1,1466.0,461637.5,7175,WL,A,3.0
2,6.197999954223633,learn,53802.00004577637,Tue Jul 01 2025 14:31:13 GMT-0500 (Central Daylight Time),463403.69999999925,A,harpenter,O,enter,286,1,1766.199999999255,461637.5,7175,WL,A,3.0
2,6.697999954223633,learn,53302.00004577637,Tue Jul 01 2025 14:31:13 GMT-0500 (Central Daylight Time),463903.39999999944,A,k,O,k,482,1,499.29999999981374,463404.0999999996,7175,WL,A,4.0
2,6.8470001220703125,learn,53152.99987792969,Tue Jul 01 2025 14:31:13 GMT-0500 (Central Daylight Time),464053.19999999925,A,ke,O,e,134,1,649.0999999996275,463404.0999999996,7175,WL,A,4.0
2,7.031000137329102,learn,52968.9998626709,Tue Jul 01 2025 14:31:13 GMT-0500 (Central Daylight Time),464236.39999999944,A,key,O,y,176,1,832.2999999998137,463404.0999999996,7175,WL,A,4.0
2,7.546999931335449,learn,52453.00006866455,Tue Jul 01 2025 14:31:13 GMT-0500 (Central Daylight Time),464753.0999999996,A,keyenter,O,enter,497,1,1349.0,463404.0999999996,7175,WL,A,4.0
2,8.513999938964844,learn,51486.000061035156,Tue Jul 01 2025 14:31:13 GMT-0500 (Central Daylight Time),465719.5,A,l,O,l,956,1,965.9000000003725,464753.5999999996,7175,WL,A,5.0
2,8.763999938964844,learn,51236.000061035156,Tue Jul 01 2025 14:31:13 GMT-0500 (Central Daylight Time),465969.39999999944,A,lo,O,o,229,1,1215.7999999998137,464753.5999999996,7175,WL,A,5.0
2,8.914000034332275,learn,51085.999965667725,Tue Jul 01 2025 14:31:13 GMT-0500 (Central Daylight Time),466119.5,A,log,O,g,140,1,1365.9000000003725,464753.5999999996,7175,WL,A,5.0
2,9.163000106811523,learn,50836.99989318848,Tue Jul 01 2025 14:31:13 GMT-0500 (Central Daylight Time),466369.19999999925,A,logenter,O,enter,230,1,1615.5999999996275,464753.5999999996,7175,WL,A,5.0
2,9.913000106811523,learn,50086.99989318848,Tue Jul 01 2025 14:31:13 GMT-0500 (Central Daylight Time),467119.0999999996,A,b,O,b,732,1,749.5999999996275,466369.5,7175,WL,A,6.0
2,9.996999979019165,learn,50003.000020980835,Tue Jul 01 2025 14:31:13 GMT-0500 (Central Daylight Time),467203.2999999998,A,bo,O,o,63,1,833.7999999998137,466369.5,7175,WL,A,6.0
2,10.180000066757202,learn,49819.9999332428,Tue Jul 01 2025 14:31:13 GMT-0500 (Central Daylight Time),467385.5999999996,A,boo,O,o,162,1,1016.0999999996275,466369.5,7175,WL,A,6.0
2,10.312999963760376,learn,49687.000036239624,Tue Jul 01 2025 14:31:13 GMT-0500 (Central Daylight Time),467518.89999999944,A,book,O,k,124,1,1149.3999999994412,466369.5,7175,WL,A,6.0
2,10.678999900817871,learn,49321.00009918213,Tue Jul 01 2025 14:31:13 GMT-0500 (Central Daylight Time),467885.19999999925,A,bookenter,O,enter,358,1,1515.699999999255,466369.5,7175,WL,A,6.0
2,11.145999908447266,learn,48854.000091552734,Tue Jul 01 2025 14:31:13 GMT-0500 (Central Daylight Time),468351.7999999998,A,f,O,f,456,1,466.20000000018626,467885.5999999996,7175,WL,A,7.0
2,11.246000051498413,learn,48753.99994850159,Tue Jul 01 2025 14:31:13 GMT-0500 (Central Daylight Time),468451.89999999944,A,fl,O,l,93,1,566.2999999998137,467885.5999999996,7175,WL,A,7.0
2,11.428999900817871,learn,48571.00009918213,Tue Jul 01 2025 14:31:13 GMT-0500 (Central Daylight Time),468634.89999999944,A,flo,O,o,177,1,749.2999999998137,467885.5999999996,7175,WL,A,7.0
2,11.529000043869019,learn,48470.99995613098,Tue Jul 01 2025 14:31:13 GMT-0500 (Central Daylight Time),468734.89999999944,A,flow,O,w,83,1,849.2999999998137,467885.5999999996,7175,WL,A,7.0
2,11.61299991607666,learn,48387.00008392334,Tue Jul 01 2025 14:31:13 GMT-0500 (Central Daylight Time),468818.5999999996,A,flowe,O,e,63,1,933.0,467885.5999999996,7175,WL,A,7.0
2,11.678999900817871,learn,48321.00009918213,Tue Jul 01 2025 14:31:13 GMT-0500 (Central Daylight Time),468885.19999999925,A,flower,O,r,51,1,999.5999999996275,467885.5999999996,7175,WL,A,7.0
2,11.962000131607056,learn,48037.999868392944,Tue Jul 01 2025 14:31:13 GMT-0500 (Central Daylight Time),469168.19999999925,A,flowerenter,O,enter,264,1,1282.5999999996275,467885.5999999996,7175,WL,A,7.0
2,15.694999933242798,learn,44305.0000667572,Tue Jul 01 2025 14:31:13 GMT-0500 (Central Daylight Time),472900.39999999944,A,r,O,r,3725,1,3731.7000000001863,469168.69999999925,7175,WL,A,8.0
2,15.861000061035156,learn,44138.999938964844,Tue Jul 01 2025 14:31:13 GMT-0500 (Central Daylight Time),473066.7999999998,A,ru,O,u,161,1,3898.100000000559,469168.69999999925,7175,WL,A,8.0
2,16.094000101089478,learn,43905.99989891052,Tue Jul 01 2025 14:31:13 GMT-0500 (Central Daylight Time),473300.19999999925,A,rug,O,g,227,1,4131.5,469168.69999999925,7175,WL,A,8.0
2,16.278000116348267,learn,43721.99988365173,Tue Jul 01 2025 14:31:13 GMT-0500 (Central Daylight Time),473483.5999999996,A,rugenter,O,enter,177,1,4314.9000000003725,469168.69999999925,7175,WL,A,8.0
2,16.844000101089478,learn,43155.99989891052,Tue Jul 01 2025 14:31:13 GMT-0500 (Central Daylight Time),474050.0999999996,A,t,O,t,546,1,566.2000000001863,473483.89999999944,7175,WL,A,9.0
2,17.094000101089478,learn,42905.99989891052,Tue Jul 01 2025 14:31:13 GMT-0500 (Central Daylight Time),474300.0,A,tr,O,r,235,1,816.1000000005588,473483.89999999944,7175,WL,A,9.0
2,17.227999925613403,learn,42772.0000743866,Tue Jul 01 2025 14:31:13 GMT-0500 (Central Daylight Time),474433.39999999944,A,tra,O,a,113,1,949.5,473483.89999999944,7175,WL,A,9.0
2,17.361000061035156,learn,42638.999938964844,Tue Jul 01 2025 14:31:13 GMT-0500 (Central Daylight Time),474566.5999999996,A,trai,O,i,116,1,1082.7000000001863,473483.89999999944,7175,WL,A,9.0
2,17.526999950408936,learn,42473.000049591064,Tue Jul 01 2025 14:31:13 GMT-0500 (Central Daylight Time),474733.19999999925,A,train,O,n,159,1,1249.2999999998137,473483.89999999944,7175,WL,A,9.0
2,17.80999994277954,learn,42190.00005722046,Tue Jul 01 2025 14:31:13 GMT-0500 (Central Daylight Time),475016.2999999998,A,trainenter,O,enter,272,1,1532.4000000003725,473483.89999999944,7175,WL,A,9.0
2,18.694000005722046,learn,41305.999994277954,Tue Jul 01 2025 14:31:13 GMT-0500 (Central Daylight Time),475899.39999999944,A,c,O,c,869,1,882.7999999998137,475016.5999999996,7175,WL,A,10.0
2,18.80999994277954,learn,41190.00005722046,Tue Jul 01 2025 14:31:13 GMT-0500 (Central Daylight Time),476016.0999999996,A,ch,O,h,98,1,999.5,475016.5999999996,7175,WL,A,10.0
2,18.89300012588501,learn,41106.99987411499,Tue Jul 01 2025 14:31:13 GMT-0500 (Central Daylight Time),476099.19999999925,A,chi,O,i,77,1,1082.5999999996275,475016.5999999996,7175,WL,A,10.0
2,19.127000093460083,learn,40872.99990653992,Tue Jul 01 2025 14:31:13 GMT-0500 (Central Daylight Time),476332.5999999996,A,chim,O,m,218,1,1316.0,475016.5999999996,7175,WL,A,10.0
2,19.360000133514404,learn,40639.999866485596,Tue Jul 01 2025 14:31:13 GMT-0500 (Central Daylight Time),476565.89999999944,A,chimn,O,n,217,1,1549.2999999998137,475016.5999999996,7175,WL,A,10.0
2,19.509999990463257,learn,40490.00000953674,Tue Jul 01 2025 14:31:13 GMT-0500 (Central Daylight Time),476715.89999999944,A,chimne,O,e,135,1,1699.2999999998137,475016.5999999996,7175,WL,A,10.0
2,19.694000005722046,learn,40305.999994277954,Tue Jul 01 2025 14:31:13 GMT-0500 (Central Daylight Time),476899.2999999998,A,chimney,O,y,169,1,1882.7000000001863,475016.5999999996,7175,WL,A,10.0
2,19.97699999809265,learn,40023.00000190735,Tue Jul 01 2025 14:31:13 GMT-0500 (Central Daylight Time),477182.39999999944,A,chimneyenter,O,enter,265,1,2165.7999999998137,475016.5999999996,7175,WL,A,10.0
2,20.526000022888184,learn,39473.99997711182,Tue Jul 01 2025 14:31:13 GMT-0500 (Central Daylight Time),477732.19999999925,A,r,O,r,535,1,549.5,477182.69999999925,7175,WL,A,11.0
2,20.693000078201294,learn,39306.999921798706,Tue Jul 01 2025 14:31:13 GMT-0500 (Central Daylight Time),477898.7999999998,A,ra,O,a,153,1,716.1000000005588,477182.69999999925,7175,WL,A,11.0
2,20.993000030517578,learn,39006.99996948242,Tue Jul 01 2025 14:31:13 GMT-0500 (Central Daylight Time),478198.7999999998,A,rat,O,t,290,1,1016.1000000005588,477182.69999999925,7175,WL,A,11.0
2,21.193000078201294,learn,38806.999921798706,Tue Jul 01 2025 14:31:13 GMT-0500 (Central Daylight Time),478398.5,A,ratt,O,t,182,1,1215.800000000745,477182.69999999925,7175,WL,A,11.0
2,21.39300012588501,learn,38606.99987411499,Tue Jul 01 2025 14:31:13 GMT-0500 (Central Daylight Time),478598.69999999925,A,rattl,O,l,183,1,1416.0,477182.69999999925,7175,WL,A,11.0
2,21.526000022888184,learn,38473.99997711182,Tue Jul 01 2025 14:31:13 GMT-0500 (Central Daylight Time),478732.0,A,rattle,O,e,118,1,1549.300000000745,477182.69999999925,7175,WL,A,11.0
2,21.941999912261963,learn,38058.00008773804,Tue Jul 01 2025 14:31:13 GMT-0500 (Central Daylight Time),479148.39999999944,A,rattleenter,O,enter,409,1,1965.7000000001863,477182.69999999925,7175,WL,A,11.0
2,37.020999908447266,learn,22979.000091552734,Tue Jul 01 2025 14:31:13 GMT-0500 (Central Daylight Time),494227.0,A,g,O,g,15065,1,15078.100000000559,479148.89999999944,7175,WL,A,12.0
2,37.187999963760376,learn,22812.000036239624,Tue Jul 01 2025 14:31:13 GMT-0500 (Central Daylight Time),494394.2999999998,A,go,O,o,146,1,15245.400000000373,479148.89999999944,7175,WL,A,12.0
2,37.38800001144409,learn,22611.99998855591,Tue Jul 01 2025 14:31:13 GMT-0500 (Central Daylight Time),494593.5999999996,A,gol,O,l,187,1,15444.700000000186,479148.89999999944,7175,WL,A,12.0
2,37.50399994850159,learn,22496.000051498413,Tue Jul 01 2025 14:31:13 GMT-0500 (Central Daylight Time),494710.2999999998,A,gold,O,d,100,1,15561.400000000373,479148.89999999944,7175,WL,A,12.0
2,37.6710000038147,learn,22328.999996185303,Tue Jul 01 2025 14:31:13 GMT-0500 (Central Daylight Time),494876.5999999996,A,goldenter,O,enter,151,1,15727.700000000186,479148.89999999944,7175,WL,A,12.0
2,56.11500000953674,learn,3884.999990463257,Tue Jul 01 2025 14:31:13 GMT-0500 (Central Daylight Time),513321.0999999996,A,b,O,b,18423,1,18444.099999999627,494877.0,7175,WL,A,13.0
2,56.24799990653992,learn,3752.000093460083,Tue Jul 01 2025 14:31:13 GMT-0500 (Central Daylight Time),513454.2999999998,A,bu,O,u,116,1,18577.299999999814,494877.0,7175,WL,A,13.0
2,56.48099994659424,learn,3519.0000534057617,Tue Jul 01 2025 14:31:13 GMT-0500 (Central Daylight Time),513687.5,A,but,O,t,215,1,18810.5,494877.0,7175,WL,A,13.0
2,56.681999921798706,learn,3318.000078201294,Tue Jul 01 2025 14:31:13 GMT-0500 (Central Daylight Time),513887.5999999996,A,butt,O,t,182,1,19010.599999999627,494877.0,7175,WL,A,13.0
2,56.7810001373291,learn,3218.9998626708984,Tue Jul 01 2025 14:31:13 GMT-0500 (Central Daylight Time),513987.39999999944,A,butto,O,o,86,1,19110.39999999944,494877.0,7175,WL,A,13.0
2,57.71499991416931,learn,2285.0000858306885,Tue Jul 01 2025 14:31:13 GMT-0500 (Central Daylight Time),514920.69999999925,A,button,O,n,922,1,20043.699999999255,494877.0,7175,WL,A,13.0
2,58.04800009727478,learn,1951.9999027252197,Tue Jul 01 2025 14:31:13 GMT-0500 (Central Daylight Time),515253.7999999998,A,buttonenter,O,enter,325,1,20376.799999999814,494877.0,7175,WL,A,13.0
2,60.013999938964844,learn,-13.99993896484375,Tue Jul 01 2025 14:31:13 GMT-0500 (Central Daylight Time),517219.89999999944,A,None,O,None,1962,1,1965.7000000001863,515254.19999999925,7175,WL,A,14.0
3,1.0499999523162842,learn,58950.000047683716,Tue Jul 01 2025 14:31:13 GMT-0500 (Central Daylight Time),587581.0999999996,A,g,O,g,1035,1,1049.7000000001863,586531.3999999994,7175,WL,A,1.0
3,1.2660000324249268,learn,58733.99996757507,Tue Jul 01 2025 14:31:13 GMT-0500 (Central Daylight Time),587797.6999999993,A,go,O,o,207,1,1266.2999999998137,586531.3999999994,7175,WL,A,1.0
3,1.5160000324249268,learn,58483.99996757507,Tue Jul 01 2025 14:31:13 GMT-0500 (Central Daylight Time),588047.5,A,gol,O,l,232,1,1516.1000000005588,586531.3999999994,7175,WL,A,1.0
3,1.7160000801086426,learn,58283.99991989136,Tue Jul 01 2025 14:31:13 GMT-0500 (Central Daylight Time),588247.5,A,gold,O,d,190,1,1716.1000000005588,586531.3999999994,7175,WL,A,1.0
3,1.9500000476837158,learn,58049.999952316284,Tue Jul 01 2025 14:31:13 GMT-0500 (Central Daylight Time),588480.7999999998,A,goldenter,O,enter,222,1,1949.4000000003725,586531.3999999994,7175,WL,A,1.0
3,2.7660000324249268,learn,57233.99996757507,Tue Jul 01 2025 14:31:13 GMT-0500 (Central Daylight Time),589297.2999999998,A,s,O,s,797,1,816.1000000005588,588481.1999999993,7175,WL,A,2.0
3,2.9489998817443848,learn,57051.000118255615,Tue Jul 01 2025 14:31:13 GMT-0500 (Central Daylight Time),589480.5,A,sa,O,a,164,1,999.3000000007451,588481.1999999993,7175,WL,A,2.0
3,3.0989999771118164,learn,56901.00002288818,Tue Jul 01 2025 14:31:13 GMT-0500 (Central Daylight Time),589630.5,A,sal,O,l,133,1,1149.300000000745,588481.1999999993,7175,WL,A,2.0
3,3.315999984741211,learn,56684.00001525879,Tue Jul 01 2025 14:31:13 GMT-0500 (Central Daylight Time),589847.1999999993,A,salt,O,t,207,1,1366.0,588481.1999999993,7175,WL,A,2.0
3,3.5490000247955322,learn,56450.99997520447,Tue Jul 01 2025 14:31:13 GMT-0500 (Central Daylight Time),590080.1999999993,A,saltenter,O,enter,222,1,1599.0,588481.1999999993,7175,WL,A,2.0
3,4.348999977111816,learn,55651.00002288818,Tue Jul 01 2025 14:31:13 GMT-0500 (Central Daylight Time),590880.1999999993,A,m,O,m,781,1,799.6999999992549,590080.5,7175,WL,A,3.0
3,4.431999921798706,learn,55568.000078201294,Tue Jul 01 2025 14:31:13 GMT-0500 (Central Daylight Time),590963.0999999996,A,me,O,e,77,1,882.5999999996275,590080.5,7175,WL,A,3.0
3,4.598999977111816,learn,55401.00002288818,Tue Jul 01 2025 14:31:13 GMT-0500 (Central Daylight Time),591130.0,A,mea,O,a,154,1,1049.5,590080.5,7175,WL,A,3.0
3,4.73199987411499,learn,55268.00012588501,Tue Jul 01 2025 14:31:13 GMT-0500 (Central Daylight Time),591263.2999999998,A,mead,O,d,115,1,1182.7999999998137,590080.5,7175,WL,A,3.0
3,4.931999921798706,learn,55068.000078201294,Tue Jul 01 2025 14:31:13 GMT-0500 (Central Daylight Time),591463.2999999998,A,meado,O,o,190,1,1382.7999999998137,590080.5,7175,WL,A,3.0
3,5.082000017166138,learn,54917.99998283386,Tue Jul 01 2025 14:31:13 GMT-0500 (Central Daylight Time),591613.0999999996,A,meadow,O,w,142,1,1532.5999999996275,590080.5,7175,WL,A,3.0
3,5.332000017166138,learn,54667.99998283386,Tue Jul 01 2025 14:31:13 GMT-0500 (Central Daylight Time),591863.2999999998,A,meadowenter,O,enter,232,1,1782.7999999998137,590080.5,7175,WL,A,3.0
3,8.013999938964844,learn,51986.000061035156,Tue Jul 01 2025 14:31:13 GMT-0500 (Central Daylight Time),594545.5999999996,A,b,O,b,2671,1,2682.0,591863.5999999996,7175,WL,A,4.0
3,8.164000034332275,learn,51835.999965667725,Tue Jul 01 2025 14:31:13 GMT-0500 (Central Daylight Time),594695.6999999993,A,bo,O,o,132,1,2832.0999999996275,591863.5999999996,7175,WL,A,4.0
3,8.348000049591064,learn,51651.999950408936,Tue Jul 01 2025 14:31:13 GMT-0500 (Central Daylight Time),594878.7999999998,A,boo,O,o,174,1,3015.2000000001863,591863.5999999996,7175,WL,A,4.0
3,8.532000064849854,learn,51467.99993515015,Tue Jul 01 2025 14:31:13 GMT-0500 (Central Daylight Time),595063.1999999993,A,book,O,k,179,1,3199.5999999996275,591863.5999999996,7175,WL,A,4.0
3,8.813999891281128,learn,51186.00010871887,Tue Jul 01 2025 14:31:13 GMT-0500 (Central Daylight Time),595345.2999999998,A,bookenter,O,enter,262,1,3481.7000000001863,591863.5999999996,7175,WL,A,4.0
3,9.364000082015991,learn,50635.99991798401,Tue Jul 01 2025 14:31:13 GMT-0500 (Central Daylight Time),595895.0,A,t,O,t,532,1,549.3000000007451,595345.6999999993,7175,WL,A,5.0
3,9.579999923706055,learn,50420.000076293945,Tue Jul 01 2025 14:31:13 GMT-0500 (Central Daylight Time),596111.5999999996,A,tr,O,r,206,1,765.9000000003725,595345.6999999993,7175,WL,A,5.0
3,9.69700002670288,learn,50302.99997329712,Tue Jul 01 2025 14:31:13 GMT-0500 (Central Daylight Time),596228.5,A,tra,O,a,102,1,882.8000000007451,595345.6999999993,7175,WL,A,5.0
3,9.846999883651733,learn,50153.00011634827,Tue Jul 01 2025 14:31:13 GMT-0500 (Central Daylight Time),596378.3999999994,A,trai,O,i,137,1,1032.7000000001863,595345.6999999993,7175,WL,A,5.0
3,10.030999898910522,learn,49969.00010108948,Tue Jul 01 2025 14:31:13 GMT-0500 (Central Daylight Time),596561.7999999998,A,train,O,n,163,1,1216.1000000005588,595345.6999999993,7175,WL,A,5.0
3,10.329999923706055,learn,49670.000076293945,Tue Jul 01 2025 14:31:13 GMT-0500 (Central Daylight Time),596861.5,A,trainenter,O,enter,283,1,1515.800000000745,595345.6999999993,7175,WL,A,5.0
3,13.878999948501587,learn,46121.00005149841,Tue Jul 01 2025 14:31:13 GMT-0500 (Central Daylight Time),600410.5999999996,A,r,O,r,3528,1,3548.7999999998137,596861.7999999998,7175,WL,A,6.0
3,14.029000043869019,learn,45970.99995613098,Tue Jul 01 2025 14:31:13 GMT-0500 (Central Daylight Time),600560.2999999998,A,ru,O,u,139,1,3698.5,596861.7999999998,7175,WL,A,6.0
3,14.611999988555908,learn,45388.00001144409,Tue Jul 01 2025 14:31:13 GMT-0500 (Central Daylight Time),601143.6999999993,A,rug,O,g,565,1,4281.899999999441,596861.7999999998,7175,WL,A,6.0
3,14.828999996185303,learn,45171.0000038147,Tue Jul 01 2025 14:31:13 GMT-0500 (Central Daylight Time),601360.1999999993,A,rugenter,O,enter,198,1,4498.399999999441,596861.7999999998,7175,WL,A,6.0
3,17.210999965667725,learn,42789.000034332275,Tue Jul 01 2025 14:31:13 GMT-0500 (Central Daylight Time),603742.6999999993,A,m,O,m,2373,1,2382.0999999996275,601360.5999999996,7175,WL,A,7.0
3,17.32800006866455,learn,42671.99993133545,Tue Jul 01 2025 14:31:13 GMT-0500 (Central Daylight Time),603859.0,A,me,O,e,111,1,2498.4000000003725,601360.5999999996,7175,WL,A,7.0
3,17.477999925613403,learn,42522.0000743866,Tue Jul 01 2025 14:31:13 GMT-0500 (Central Daylight Time),604009.1999999993,A,mea,O,a,130,1,2648.5999999996275,601360.5999999996,7175,WL,A,7.0
3,17.5939998626709,learn,42406.0001373291,Tue Jul 01 2025 14:31:13 GMT-0500 (Central Daylight Time),604125.8999999994,A,mead,O,d,100,1,2765.2999999998137,601360.5999999996,7175,WL,A,7.0
3,17.74399995803833,learn,42256.00004196167,Tue Jul 01 2025 14:31:13 GMT-0500 (Central Daylight Time),604275.8999999994,A,meado,O,o,144,1,2915.2999999998137,601360.5999999996,7175,WL,A,7.0
3,17.91100001335144,learn,42088.99998664856,Tue Jul 01 2025 14:31:13 GMT-0500 (Central Daylight Time),604442.3999999994,A,meadow,O,w,161,1,3081.7999999998137,601360.5999999996,7175,WL,A,7.0
3,18.14400005340576,learn,41855.99994659424,Tue Jul 01 2025 14:31:13 GMT-0500 (Central Daylight Time),604675.5999999996,A,meadowenter,O,enter,227,1,3315.0,601360.5999999996,7175,WL,A,7.0
3,18.710000038146973,learn,41289.99996185303,Tue Jul 01 2025 14:31:13 GMT-0500 (Central Daylight Time),605242.0,A,h,O,h,561,1,566.0,604676.0,7175,WL,A,8.0
3,18.8439998626709,learn,41156.0001373291,Tue Jul 01 2025 14:31:13 GMT-0500 (Central Daylight Time),605375.3999999994,A,ha,O,a,123,1,699.3999999994412,604676.0,7175,WL,A,8.0
3,18.97699999809265,learn,41023.00000190735,Tue Jul 01 2025 14:31:13 GMT-0500 (Central Daylight Time),605508.8999999994,A,har,O,r,126,1,832.8999999994412,604676.0,7175,WL,A,8.0
3,19.293999910354614,learn,40706.000089645386,Tue Jul 01 2025 14:31:13 GMT-0500 (Central Daylight Time),605825.2999999998,A,harp,O,p,296,1,1149.2999999998137,604676.0,7175,WL,A,8.0
3,19.710000038146973,learn,40289.99996185303,Tue Jul 01 2025 14:31:13 GMT-0500 (Central Daylight Time),606242.0,A,harpenter,O,enter,396,1,1566.0,604676.0,7175,WL,A,8.0
3,24.39199995994568,learn,35608.00004005432,Tue Jul 01 2025 14:31:13 GMT-0500 (Central Daylight Time),610923.6999999993,A,f,O,f,4667,1,4681.399999999441,606242.2999999998,7175,WL,A,9.0
3,24.526000022888184,learn,35473.99997711182,Tue Jul 01 2025 14:31:13 GMT-0500 (Central Daylight Time),611057.0999999996,A,fi,O,i,122,1,4814.799999999814,606242.2999999998,7175,WL,A,9.0
3,24.741999864578247,learn,35258.00013542175,Tue Jul 01 2025 14:31:13 GMT-0500 (Central Daylight Time),611273.6999999993,A,fin,O,n,196,1,5031.399999999441,606242.2999999998,7175,WL,A,9.0
3,24.80900001525879,learn,35190.99998474121,Tue Jul 01 2025 14:31:13 GMT-0500 (Central Daylight Time),611340.3999999994,A,fing,O,g,52,1,5098.0999999996275,606242.2999999998,7175,WL,A,9.0
3,24.95899987220764,learn,35041.00012779236,Tue Jul 01 2025 14:31:13 GMT-0500 (Central Daylight Time),611490.1999999993,A,finge,O,e,129,1,5247.899999999441,606242.2999999998,7175,WL,A,9.0
3,25.04200005531311,learn,34957.99994468689,Tue Jul 01 2025 14:31:13 GMT-0500 (Central Daylight Time),611573.5999999996,A,finger,O,r,74,1,5331.299999999814,606242.2999999998,7175,WL,A,9.0
3,25.20899987220764,learn,34791.00012779236,Tue Jul 01 2025 14:31:13 GMT-0500 (Central Daylight Time),611740.2999999998,A,fingerenter,O,enter,152,1,5498.0,606242.2999999998,7175,WL,A,9.0
3,25.858999967575073,learn,34141.00003242493,Tue Jul 01 2025 14:31:13 GMT-0500 (Central Daylight Time),612390.0,A,r,O,r,641,1,649.3000000007451,611740.6999999993,7175,WL,A,10.0
3,26.058000087738037,learn,33941.99991226196,Tue Jul 01 2025 14:31:13 GMT-0500 (Central Daylight Time),612590.0,A,ra,O,a,191,1,849.3000000007451,611740.6999999993,7175,WL,A,10.0
3,26.20899987220764,learn,33791.00012779236,Tue Jul 01 2025 14:31:13 GMT-0500 (Central Daylight Time),612740.0,A,rat,O,t,136,1,999.3000000007451,611740.6999999993,7175,WL,A,10.0
3,26.407999992370605,learn,33592.000007629395,Tue Jul 01 2025 14:31:13 GMT-0500 (Central Daylight Time),612939.6999999993,A,ratt,O,t,186,1,1199.0,611740.6999999993,7175,WL,A,10.0
3,26.575000047683716,learn,33424.999952316284,Tue Jul 01 2025 14:31:13 GMT-0500 (Central Daylight Time),613106.5,A,rattl,O,l,162,1,1365.800000000745,611740.6999999993,7175,WL,A,10.0
3,26.757999897003174,learn,33242.000102996826,Tue Jul 01 2025 14:31:13 GMT-0500 (Central Daylight Time),613289.5999999996,A,rattle,O,e,170,1,1548.9000000003725,611740.6999999993,7175,WL,A,10.0
3,26.95799994468689,learn,33042.00005531311,Tue Jul 01 2025 14:31:13 GMT-0500 (Central Daylight Time),613489.5,A,rattleenter,O,enter,188,1,1748.800000000745,611740.6999999993,7175,WL,A,10.0
3,27.591000080108643,learn,32408.999919891357,Tue Jul 01 2025 14:31:13 GMT-0500 (Central Daylight Time),614122.5999999996,A,c,O,c,628,1,632.7999999998137,613489.7999999998,7175,WL,A,11.0
3,27.674999952316284,learn,32325.000047683716,Tue Jul 01 2025 14:31:13 GMT-0500 (Central Daylight Time),614206.0999999996,A,ch,O,h,75,1,716.2999999998137,613489.7999999998,7175,WL,A,11.0
3,27.757999897003174,learn,32242.000102996826,Tue Jul 01 2025 14:31:13 GMT-0500 (Central Daylight Time),614289.2999999998,A,chi,O,i,71,1,799.5,613489.7999999998,7175,WL,A,11.0
3,27.97499990463257,learn,32025.00009536743,Tue Jul 01 2025 14:31:13 GMT-0500 (Central Daylight Time),614506.2999999998,A,chim,O,m,212,1,1016.5,613489.7999999998,7175,WL,A,11.0
3,28.223999977111816,learn,31776.000022888184,Tue Jul 01 2025 14:31:13 GMT-0500 (Central Daylight Time),614756.0,A,chimn,O,n,243,1,1266.2000000001863,613489.7999999998,7175,WL,A,11.0
3,28.391000032424927,learn,31608.999967575073,Tue Jul 01 2025 14:31:13 GMT-0500 (Central Daylight Time),614922.5,A,chimne,O,e,153,1,1432.7000000001863,613489.7999999998,7175,WL,A,11.0
3,28.573999881744385,learn,31426.000118255615,Tue Jul 01 2025 14:31:13 GMT-0500 (Central Daylight Time),615106.0,A,chimney,O,y,163,1,1616.2000000001863,613489.7999999998,7175,WL,A,11.0
3,28.924000024795532,learn,31075.999975204468,Tue Jul 01 2025 14:31:13 GMT-0500 (Central Daylight Time),615455.2999999998,A,chimneyenter,O,enter,332,1,1965.5,613489.7999999998,7175,WL,A,11.0
3,31.889999866485596,learn,28110.000133514404,Tue Jul 01 2025 14:31:13 GMT-0500 (Central Daylight Time),618421.2999999998,A,l,O,l,2958,1,2965.7000000001863,615455.5999999996,7175,WL,A,12.0
3,32.26699995994568,learn,27733.00004005432,Tue Jul 01 2025 14:31:13 GMT-0500 (Central Daylight Time),618798.2999999998,A,lo,O,o,372,1,3342.7000000001863,615455.5999999996,7175,WL,A,12.0
3,32.30800008773804,learn,27691.999912261963,Tue Jul 01 2025 14:31:13 GMT-0500 (Central Daylight Time),618839.8999999994,A,log,O,g,23,1,3384.2999999998137,615455.5999999996,7175,WL,A,12.0
3,32.62299990653992,learn,27377.000093460083,Tue Jul 01 2025 14:31:13 GMT-0500 (Central Daylight Time),619154.5,A,logenter,O,enter,301,1,3698.9000000003725,615455.5999999996,7175,WL,A,12.0
3,44.1029999256134,learn,15897.000074386597,Tue Jul 01 2025 14:31:13 GMT-0500 (Central Daylight Time),630634.3999999994,A,k,O,k,11475,1,11479.599999999627,619154.7999999998,7175,WL,A,13.0
3,44.418999910354614,learn,15581.000089645386,Tue Jul 01 2025 14:31:13 GMT-0500 (Central Daylight Time),630951.0,A,ke,O,e,307,1,11796.200000000186,619154.7999999998,7175,WL,A,13.0
3,44.78600001335144,learn,15213.99998664856,Tue Jul 01 2025 14:31:13 GMT-0500 (Central Daylight Time),631317.2999999998,A,key,O,y,350,1,12162.5,619154.7999999998,7175,WL,A,13.0
3,45.418999910354614,learn,14581.000089645386,Tue Jul 01 2025 14:31:13 GMT-0500 (Central Daylight Time),631950.2999999998,A,keyenter,O,enter,624,1,12795.5,619154.7999999998,7175,WL,A,13.0
3,60.013999938964844,learn,-13.99993896484375,Tue Jul 01 2025 14:31:13 GMT-0500 (Central Daylight Time),646545.7999999998,A,None,O,None,14591,1,14595.100000000559,631950.6999999993,7175,WL,A,14.0
4,1.315999984741211,learn,58684.00001525879,Tue Jul 01 2025 14:31:13 GMT-0500 (Central Daylight Time),720689.2999999998,A,b,O,b,1297,1,1316.0,719373.2999999998,7175,WL,A,1.0
4,1.5,learn,58500.0,Tue Jul 01 2025 14:31:13 GMT-0500 (Central Daylight Time),720872.5999999996,A,bo,O,o,171,1,1499.2999999998137,719373.2999999998,7175,WL,A,1.0
4,1.6999998092651367,learn,58300.00019073486,Tue Jul 01 2025 14:31:13 GMT-0500 (Central Daylight Time),721072.3999999994,A,boo,O,o,181,1,1699.0999999996275,719373.2999999998,7175,WL,A,1.0
4,1.932999849319458,learn,58067.00015068054,Tue Jul 01 2025 14:31:13 GMT-0500 (Central Daylight Time),721305.7999999998,A,book,O,k,213,1,1932.5,719373.2999999998,7175,WL,A,1.0
4,2.2829999923706055,learn,57717.000007629395,Tue Jul 01 2025 14:31:13 GMT-0500 (Central Daylight Time),721655.8999999994,A,bookenter,O,enter,340,1,2282.5999999996275,719373.2999999998,7175,WL,A,1.0
4,3.1489999294281006,learn,56851.0000705719,Tue Jul 01 2025 14:31:13 GMT-0500 (Central Daylight Time),722522.0999999996,A,f,O,f,846,1,865.9000000003725,721656.1999999993,7175,WL,A,2.0
4,3.2659997940063477,learn,56734.00020599365,Tue Jul 01 2025 14:31:13 GMT-0500 (Central Daylight Time),722638.5999999996,A,fl,O,l,107,1,982.4000000003725,721656.1999999993,7175,WL,A,2.0
4,3.4659998416900635,learn,56534.00015830994,Tue Jul 01 2025 14:31:13 GMT-0500 (Central Daylight Time),722838.5999999996,A,flo,O,o,183,1,1182.4000000003725,721656.1999999993,7175,WL,A,2.0
4,3.548999786376953,learn,56451.00021362305,Tue Jul 01 2025 14:31:13 GMT-0500 (Central Daylight Time),722921.7999999998,A,flow,O,w,63,1,1265.6000000005588,721656.1999999993,7175,WL,A,2.0
4,3.5829999446868896,learn,56417.00005531311,Tue Jul 01 2025 14:31:13 GMT-0500 (Central Daylight Time),722955.3999999994,A,flowe,O,e,28,1,1299.2000000001863,721656.1999999993,7175,WL,A,2.0
4,3.7159998416900635,learn,56284.00015830994,Tue Jul 01 2025 14:31:13 GMT-0500 (Central Daylight Time),723088.5,A,flower,O,r,114,1,1432.300000000745,721656.1999999993,7175,WL,A,2.0
4,3.9659998416900635,learn,56034.00015830994,Tue Jul 01 2025 14:31:13 GMT-0500 (Central Daylight Time),723338.3999999994,A,flowerenter,O,enter,229,1,1682.2000000001863,721656.1999999993,7175,WL,A,2.0
4,4.664999961853027,learn,55335.00003814697,Tue Jul 01 2025 14:31:13 GMT-0500 (Central Daylight Time),724038.2999999998,A,t,O,t,691,1,699.5,723338.7999999998,7175,WL,A,3.0
4,4.898999929428101,learn,55101.0000705719,Tue Jul 01 2025 14:31:13 GMT-0500 (Central Daylight Time),724271.5,A,tr,O,r,215,1,932.7000000001863,723338.7999999998,7175,WL,A,3.0
4,4.98199987411499,learn,55018.00012588501,Tue Jul 01 2025 14:31:13 GMT-0500 (Central Daylight Time),724354.8999999994,A,tra,O,a,78,1,1016.0999999996275,723338.7999999998,7175,WL,A,3.0
4,5.098999977111816,learn,54901.00002288818,Tue Jul 01 2025 14:31:13 GMT-0500 (Central Daylight Time),724471.3999999994,A,trai,O,i,107,1,1132.5999999996275,723338.7999999998,7175,WL,A,3.0
4,5.298999786376953,learn,54701.00021362305,Tue Jul 01 2025 14:31:13 GMT-0500 (Central Daylight Time),724671.3999999994,A,train,O,n,190,1,1332.5999999996275,723338.7999999998,7175,WL,A,3.0
4,5.56499981880188,learn,54435.00018119812,Tue Jul 01 2025 14:31:13 GMT-0500 (Central Daylight Time),724938.1999999993,A,trainenter,O,enter,246,1,1599.3999999994412,723338.7999999998,7175,WL,A,3.0
4,6.531999826431274,learn,53468.000173568726,Tue Jul 01 2025 14:31:13 GMT-0500 (Central Daylight Time),725904.5,A,r,O,r,955,1,966.0,724938.5,7175,WL,A,4.0
4,6.664999961853027,learn,53335.00003814697,Tue Jul 01 2025 14:31:13 GMT-0500 (Central Daylight Time),726037.5999999996,A,ru,O,u,117,1,1099.0999999996275,724938.5,7175,WL,A,4.0
4,6.914999961853027,learn,53085.00003814697,Tue Jul 01 2025 14:31:13 GMT-0500 (Central Daylight Time),726287.5,A,rug,O,g,231,1,1349.0,724938.5,7175,WL,A,4.0
4,7.148000001907349,learn,52851.99999809265,Tue Jul 01 2025 14:31:13 GMT-0500 (Central Daylight Time),726520.7999999998,A,rugenter,O,enter,214,1,1582.2999999998137,724938.5,7175,WL,A,4.0
4,7.997999906539917,learn,52002.00009346008,Tue Jul 01 2025 14:31:13 GMT-0500 (Central Daylight Time),727370.3999999994,A,m,O,m,845,1,849.2000000001863,726521.1999999993,7175,WL,A,5.0
4,8.113999843597412,learn,51886.00015640259,Tue Jul 01 2025 14:31:13 GMT-0500 (Central Daylight Time),727487.0,A,me,O,e,99,1,965.8000000007451,726521.1999999993,7175,WL,A,5.0
4,8.280999898910522,learn,51719.00010108948,Tue Jul 01 2025 14:31:13 GMT-0500 (Central Daylight Time),727653.8999999994,A,mea,O,a,150,1,1132.7000000001863,726521.1999999993,7175,WL,A,5.0
4,9.746999979019165,learn,50253.000020980835,Tue Jul 01 2025 14:31:13 GMT-0500 (Central Daylight Time),729120.0999999996,A,mead,O,d,1455,1,2598.9000000003725,726521.1999999993,7175,WL,A,5.0
4,9.863999843597412,learn,50136.00015640259,Tue Jul 01 2025 14:31:13 GMT-0500 (Central Daylight Time),729236.7999999998,A,meado,O,o,109,1,2715.600000000559,726521.1999999993,7175,WL,A,5.0
4,10.02999997138977,learn,49970.00002861023,Tue Jul 01 2025 14:31:13 GMT-0500 (Central Daylight Time),729403.0,A,meadow,O,w,161,1,2881.800000000745,726521.1999999993,7175,WL,A,5.0
4,10.847999811172485,learn,49152.000188827515,Tue Jul 01 2025 14:31:13 GMT-0500 (Central Daylight Time),730220.5999999996,A,meadowenter,O,enter,810,1,3699.4000000003725,726521.1999999993,7175,WL,A,5.0
4,12.562999963760376,learn,47437.000036239624,Tue Jul 01 2025 14:31:13 GMT-0500 (Central Daylight Time),731935.8999999994,A,h,O,h,1697,1,1715.0,730220.8999999994,7175,WL,A,6.0
4,12.71399998664856,learn,47286.00001335144,Tue Jul 01 2025 14:31:13 GMT-0500 (Central Daylight Time),732086.8999999994,A,ha,O,a,133,1,1866.0,730220.8999999994,7175,WL,A,6.0
4,12.879999876022339,learn,47120.00012397766,Tue Jul 01 2025 14:31:13 GMT-0500 (Central Daylight Time),732252.3999999994,A,har,O,r,150,1,2031.5,730220.8999999994,7175,WL,A,6.0
4,13.162999868392944,learn,46837.000131607056,Tue Jul 01 2025 14:31:13 GMT-0500 (Central Daylight Time),732535.5,A,harp,O,p,265,1,2314.600000000559,730220.8999999994,7175,WL,A,6.0
4,13.595999956130981,learn,46404.00004386902,Tue Jul 01 2025 14:31:13 GMT-0500 (Central Daylight Time),732969.0,A,harpenter,O,enter,422,1,2748.100000000559,730220.8999999994,7175,WL,A,6.0
4,15.244999885559082,learn,44755.00011444092,Tue Jul 01 2025 14:31:13 GMT-0500 (Central Daylight Time),734618.1999999993,A,s,O,s,1628,1,1648.7999999998137,732969.3999999994,7175,WL,A,7.0
4,15.411999940872192,learn,44588.00005912781,Tue Jul 01 2025 14:31:13 GMT-0500 (Central Daylight Time),734785.0,A,sa,O,a,147,1,1815.6000000005588,732969.3999999994,7175,WL,A,7.0
4,15.561999797821045,learn,44438.000202178955,Tue Jul 01 2025 14:31:13 GMT-0500 (Central Daylight Time),734934.8999999994,A,sal,O,l,140,1,1965.5,732969.3999999994,7175,WL,A,7.0
4,15.794999837875366,learn,44205.000162124634,Tue Jul 01 2025 14:31:13 GMT-0500 (Central Daylight Time),735168.1999999993,A,salt,O,t,215,1,2198.7999999998137,732969.3999999994,7175,WL,A,7.0
4,16.044999837875366,learn,43955.000162124634,Tue Jul 01 2025 14:31:13 GMT-0500 (Central Daylight Time),735418.0,A,saltenter,O,enter,237,1,2448.600000000559,732969.3999999994,7175,WL,A,7.0
4,17.042999982833862,learn,42957.00001716614,Tue Jul 01 2025 14:31:13 GMT-0500 (Central Daylight Time),736415.5,A,k,O,k,993,1,997.3000000007451,735418.1999999993,7175,WL,A,8.0
4,17.18999981880188,learn,42810.00018119812,Tue Jul 01 2025 14:31:13 GMT-0500 (Central Daylight Time),736562.8999999994,A,ke,O,e,142,1,1144.7000000001863,735418.1999999993,7175,WL,A,8.0
4,17.32799983024597,learn,42672.00016975403,Tue Jul 01 2025 14:31:13 GMT-0500 (Central Daylight Time),736700.5999999996,A,key,O,y,130,1,1282.4000000003725,735418.1999999993,7175,WL,A,8.0
4,17.92799997329712,learn,42072.00002670288,Tue Jul 01 2025 14:31:13 GMT-0500 (Central Daylight Time),737300.7999999998,A,keyenter,O,enter,585,1,1882.6000000005588,735418.1999999993,7175,WL,A,8.0
4,20.444000005722046,learn,39555.999994277954,Tue Jul 01 2025 14:31:13 GMT-0500 (Central Daylight Time),739816.5999999996,A,f,O,f,2505,1,2515.5,737301.0999999996,7175,WL,A,9.0
4,20.55999994277954,learn,39440.00005722046,Tue Jul 01 2025 14:31:13 GMT-0500 (Central Daylight Time),739933.2999999998,A,fi,O,i,101,1,2632.2000000001863,737301.0999999996,7175,WL,A,9.0
4,20.76099991798401,learn,39239.00008201599,Tue Jul 01 2025 14:31:13 GMT-0500 (Central Daylight Time),740133.3999999994,A,fin,O,n,184,1,2832.2999999998137,737301.0999999996,7175,WL,A,9.0
4,20.8439998626709,learn,39156.0001373291,Tue Jul 01 2025 14:31:13 GMT-0500 (Central Daylight Time),740216.2999999998,A,fing,O,g,72,1,2915.2000000001863,737301.0999999996,7175,WL,A,9.0
4,20.99399995803833,learn,39006.00004196167,Tue Jul 01 2025 14:31:13 GMT-0500 (Central Daylight Time),740366.5,A,finge,O,e,141,1,3065.4000000003725,737301.0999999996,7175,WL,A,9.0
4,21.0939998626709,learn,38906.0001373291,Tue Jul 01 2025 14:31:13 GMT-0500 (Central Daylight Time),740466.6999999993,A,finger,O,r,80,1,3165.5999999996275,737301.0999999996,7175,WL,A,9.0
4,21.30999994277954,learn,38690.00005722046,Tue Jul 01 2025 14:31:13 GMT-0500 (Central Daylight Time),740683.0999999996,A,fingerenter,O,enter,195,1,3382.0,737301.0999999996,7175,WL,A,9.0
4,22.14299988746643,learn,37857.00011253357,Tue Jul 01 2025 14:31:13 GMT-0500 (Central Daylight Time),741516.0999999996,A,b,O,b,818,1,832.7000000001863,740683.3999999994,7175,WL,A,10.0
4,22.259999990463257,learn,37740.00000953674,Tue Jul 01 2025 14:31:13 GMT-0500 (Central Daylight Time),741632.5999999996,A,bu,O,u,105,1,949.2000000001863,740683.3999999994,7175,WL,A,10.0
4,22.492999792099,learn,37507.000207901,Tue Jul 01 2025 14:31:13 GMT-0500 (Central Daylight Time),741866.0999999996,A,but,O,t,220,1,1182.7000000001863,740683.3999999994,7175,WL,A,10.0
4,22.692999839782715,learn,37307.000160217285,Tue Jul 01 2025 14:31:13 GMT-0500 (Central Daylight Time),742065.8999999994,A,butt,O,t,187,1,1382.5,740683.3999999994,7175,WL,A,10.0
4,22.825999975204468,learn,37174.00002479553,Tue Jul 01 2025 14:31:13 GMT-0500 (Central Daylight Time),742199.0999999996,A,butto,O,o,123,1,1515.7000000001863,740683.3999999994,7175,WL,A,10.0
4,23.025999784469604,learn,36974.000215530396,Tue Jul 01 2025 14:31:13 GMT-0500 (Central Daylight Time),742399.0,A,button,O,n,191,1,1715.6000000005588,740683.3999999994,7175,WL,A,10.0
4,23.942999839782715,learn,36057.000160217285,Tue Jul 01 2025 14:31:13 GMT-0500 (Central Daylight Time),743315.3999999994,A,buttonenter,O,enter,910,1,2632.0,740683.3999999994,7175,WL,A,10.0
4,24.97599983215332,learn,35024.00016784668,Tue Jul 01 2025 14:31:13 GMT-0500 (Central Daylight Time),744348.3999999994,A,g,O,g,1018,1,1032.7000000001863,743315.6999999993,7175,WL,A,11.0
4,25.14299988746643,learn,34857.00011253357,Tue Jul 01 2025 14:31:13 GMT-0500 (Central Daylight Time),744515.2999999998,A,go,O,o,153,1,1199.6000000005588,743315.6999999993,7175,WL,A,11.0
4,25.358999967575073,learn,34641.00003242493,Tue Jul 01 2025 14:31:13 GMT-0500 (Central Daylight Time),744731.7999999998,A,gol,O,l,210,1,1416.1000000005588,743315.6999999993,7175,WL,A,11.0
4,25.508999824523926,learn,34491.000175476074,Tue Jul 01 2025 14:31:13 GMT-0500 (Central Daylight Time),744881.7999999998,A,gold,O,d,138,1,1566.1000000005588,743315.6999999993,7175,WL,A,11.0
4,26.024999856948853,learn,33975.00014305115,Tue Jul 01 2025 14:31:13 GMT-0500 (Central Daylight Time),745398.1999999993,A,goldenter,O,enter,508,1,2082.5,743315.6999999993,7175,WL,A,11.0
4,26.47599983215332,learn,33524.00016784668,Tue Jul 01 2025 14:31:13 GMT-0500 (Central Daylight Time),745848.3999999994,A,a,O,a,439,1,449.8999999994412,745398.5,7175,WL,A,12.0
4,26.758999824523926,learn,33241.000175476074,Tue Jul 01 2025 14:31:13 GMT-0500 (Central Daylight Time),746131.5,A,ap,O,p,269,1,733.0,745398.5,7175,WL,A,12.0
4,26.941999912261963,learn,33058.00008773804,Tue Jul 01 2025 14:31:13 GMT-0500 (Central Daylight Time),746314.7999999998,A,app,O,p,170,1,916.2999999998137,745398.5,7175,WL,A,12.0
4,27.14199995994568,learn,32858.00004005432,Tue Jul 01 2025 14:31:13 GMT-0500 (Central Daylight Time),746514.5999999996,A,appl,O,l,195,1,1116.0999999996275,745398.5,7175,WL,A,12.0
4,27.342000007629395,learn,32657.999992370605,Tue Jul 01 2025 14:31:13 GMT-0500 (Central Daylight Time),746714.5,A,apple,O,e,187,1,1316.0,745398.5,7175,WL,A,12.0
4,27.607999801635742,learn,32392.000198364258,Tue Jul 01 2025 14:31:13 GMT-0500 (Central Daylight Time),746981.0,A,appleenter,O,enter,251,1,1582.5,745398.5,7175,WL,A,12.0
4,28.590999841690063,learn,31409.000158309937,Tue Jul 01 2025 14:31:13 GMT-0500 (Central Daylight Time),747964.1999999993,A,r,O,r,968,1,982.7999999998137,746981.3999999994,7175,WL,A,13.0
4,28.757999897003174,learn,31242.000102996826,Tue Jul 01 2025 14:31:13 GMT-0500 (Central Daylight Time),748130.6999999993,A,ra,O,a,161,1,1149.2999999998137,746981.3999999994,7175,WL,A,13.0
4,29.090999841690063,learn,30909.000158309937,Tue Jul 01 2025 14:31:13 GMT-0500 (Central Daylight Time),748464.1999999993,A,rat,O,t,314,1,1482.7999999998137,746981.3999999994,7175,WL,A,13.0
4,29.257999897003174,learn,30742.000102996826,Tue Jul 01 2025 14:31:13 GMT-0500 (Central Daylight Time),748630.3999999994,A,ratt,O,t,150,1,1649.0,746981.3999999994,7175,WL,A,13.0
4,29.357999801635742,learn,30642.000198364258,Tue Jul 01 2025 14:31:13 GMT-0500 (Central Daylight Time),748730.5,A,rattl,O,l,80,1,1749.1000000005588,746981.3999999994,7175,WL,A,13.0
4,29.490999937057495,learn,30509.000062942505,Tue Jul 01 2025 14:31:13 GMT-0500 (Central Daylight Time),748863.8999999994,A,rattle,O,e,123,1,1882.5,746981.3999999994,7175,WL,A,13.0
4,29.70799994468689,learn,30292.00005531311,Tue Jul 01 2025 14:31:13 GMT-0500 (Central Daylight Time),749080.2999999998,A,rattleenter,O,enter,198,1,2098.9000000003725,746981.3999999994,7175,WL,A,13.0
4,30.656999826431274,learn,29343.000173568726,Tue Jul 01 2025 14:31:13 GMT-0500 (Central Daylight Time),750030.1999999993,A,c,O,c,941,1,949.5999999996275,749080.5999999996,7175,WL,A,14.0
4,30.756999969482422,learn,29243.000030517578,Tue Jul 01 2025 14:31:13 GMT-0500 (Central Daylight Time),750130.2999999998,A,ch,O,h,79,1,1049.7000000001863,749080.5999999996,7175,WL,A,14.0
4,30.823999881744385,learn,29176.000118255615,Tue Jul 01 2025 14:31:13 GMT-0500 (Central Daylight Time),750196.3999999994,A,chi,O,i,59,1,1115.7999999998137,749080.5999999996,7175,WL,A,14.0
4,31.0239999294281,learn,28976.0000705719,Tue Jul 01 2025 14:31:13 GMT-0500 (Central Daylight Time),750396.5999999996,A,chim,O,m,193,1,1316.0,749080.5999999996,7175,WL,A,14.0
4,31.289999961853027,learn,28710.000038146973,Tue Jul 01 2025 14:31:13 GMT-0500 (Central Daylight Time),750663.2999999998,A,chimn,O,n,249,1,1582.7000000001863,749080.5999999996,7175,WL,A,14.0
4,31.423999786376953,learn,28576.000213623047,Tue Jul 01 2025 14:31:13 GMT-0500 (Central Daylight Time),750796.2999999998,A,chimne,O,e,118,1,1715.7000000001863,749080.5999999996,7175,WL,A,14.0
4,31.58999991416931,learn,28410.00008583069,Tue Jul 01 2025 14:31:13 GMT-0500 (Central Daylight Time),750962.7999999998,A,chimney,O,y,161,1,1882.2000000001863,749080.5999999996,7175,WL,A,14.0
4,31.906999826431274,learn,28093.000173568726,Tue Jul 01 2025 14:31:13 GMT-0500 (Central Daylight Time),751280.0,A,chimneyenter,O,enter,306,1,2199.4000000003725,749080.5999999996,7175,WL,A,14.0
4,60.014999866485596,learn,-14.999866485595703,Tue Jul 01 2025 14:31:13 GMT-0500 (Central Daylight Time),779387.8999999994,A,None,O,None,28104,1,28107.599999999627,751280.2999999998,7175,WL,A,15.0
5,0.9170000553131104,learn,60000.0,Tue Jul 01 2025 14:31:13 GMT-0500 (Central Daylight Time),852098.1999999993,A,b,O,b,904,1,916.2999999998137,851181.8999999994,7175,WL,A,1.0
5,1.2999999523162842,learn,60000.0,Tue Jul 01 2025 14:31:13 GMT-0500 (Central Daylight Time),852481.5,A,bo,O,o,371,1,1299.6000000005588,851181.8999999994,7175,WL,A,1.0
5,1.5,learn,60000.0,Tue Jul 01 2025 14:31:13 GMT-0500 (Central Daylight Time),852681.5,A,boo,O,o,180,1,1499.6000000005588,851181.8999999994,7175,WL,A,1.0
5,1.815999984741211,learn,60000.0,Tue Jul 01 2025 14:31:13 GMT-0500 (Central Daylight Time),852997.8999999994,A,book,O,k,300,1,1816.0,851181.8999999994,7175,WL,A,1.0
5,2.183000087738037,learn,60000.0,Tue Jul 01 2025 14:31:13 GMT-0500 (Central Daylight Time),853364.5,A,bookenter,O,enter,351,1,2182.600000000559,851181.8999999994,7175,WL,A,1.0
5,3.126999855041504,learn,60000.0,Tue Jul 01 2025 14:31:13 GMT-0500 (Central Daylight Time),854308.5,A,f,O,f,930,1,943.7000000001863,853364.7999999998,7175,WL,A,2.0
5,3.2160000801086426,learn,60000.0,Tue Jul 01 2025 14:31:13 GMT-0500 (Central Daylight Time),854397.2999999998,A,fl,O,l,74,1,1032.5,853364.7999999998,7175,WL,A,2.0
5,3.4489998817443848,learn,60000.0,Tue Jul 01 2025 14:31:13 GMT-0500 (Central Daylight Time),854630.5999999996,A,flo,O,o,215,1,1265.7999999998137,853364.7999999998,7175,WL,A,2.0
5,3.5329999923706055,learn,60000.0,Tue Jul 01 2025 14:31:13 GMT-0500 (Central Daylight Time),854714.1999999993,A,flow,O,w,63,1,1349.3999999994412,853364.7999999998,7175,WL,A,2.0
5,3.5989999771118164,learn,60000.0,Tue Jul 01 2025 14:31:13 GMT-0500 (Central Daylight Time),854780.5,A,flowe,O,e,51,1,1415.7000000001863,853364.7999999998,7175,WL,A,2.0
5,3.7160000801086426,learn,60000.0,Tue Jul 01 2025 14:31:13 GMT-0500 (Central Daylight Time),854897.3999999994,A,flower,O,r,105,1,1532.5999999996275,853364.7999999998,7175,WL,A,2.0
5,3.9489998817443848,learn,60000.0,Tue Jul 01 2025 14:31:13 GMT-0500 (Central Daylight Time),855130.6999999993,A,flowerenter,O,enter,212,1,1765.8999999994412,853364.7999999998,7175,WL,A,2.0
5,5.332000017166138,learn,60000.0,Tue Jul 01 2025 14:31:13 GMT-0500 (Central Daylight Time),856513.2999999998,A,t,O,t,1363,1,1382.2999999998137,855131.0,7175,WL,A,3.0
5,5.549000024795532,learn,60000.0,Tue Jul 01 2025 14:31:13 GMT-0500 (Central Daylight Time),856730.0999999996,A,tr,O,r,196,1,1599.0999999996275,855131.0,7175,WL,A,3.0
5,5.697999954223633,learn,60000.0,Tue Jul 01 2025 14:31:13 GMT-0500 (Central Daylight Time),856880.0,A,tra,O,a,131,1,1749.0,855131.0,7175,WL,A,3.0
5,5.797999858856201,learn,60000.0,Tue Jul 01 2025 14:31:13 GMT-0500 (Central Daylight Time),856979.8999999994,A,trai,O,i,85,1,1848.8999999994412,855131.0,7175,WL,A,3.0
5,5.997999906539917,learn,60000.0,Tue Jul 01 2025 14:31:13 GMT-0500 (Central Daylight Time),857179.7999999998,A,train,O,n,185,1,2048.7999999998137,855131.0,7175,WL,A,3.0
5,7.0309998989105225,learn,60000.0,Tue Jul 01 2025 14:31:13 GMT-0500 (Central Daylight Time),858213.0,A,trainenter,O,enter,1018,1,3082.0,855131.0,7175,WL,A,3.0
5,7.680999994277954,learn,60000.0,Tue Jul 01 2025 14:31:13 GMT-0500 (Central Daylight Time),858862.5999999996,A,r,O,r,641,1,649.2000000001863,858213.3999999994,7175,WL,A,4.0
5,7.898000001907349,learn,60000.0,Tue Jul 01 2025 14:31:13 GMT-0500 (Central Daylight Time),859079.1999999993,A,ru,O,u,207,1,865.7999999998137,858213.3999999994,7175,WL,A,4.0
5,8.114000082015991,learn,60000.0,Tue Jul 01 2025 14:31:13 GMT-0500 (Central Daylight Time),859296.0,A,rug,O,g,198,1,1082.6000000005588,858213.3999999994,7175,WL,A,4.0
5,8.364000082015991,learn,60000.0,Tue Jul 01 2025 14:31:13 GMT-0500 (Central Daylight Time),859545.8999999994,A,rugenter,O,enter,238,1,1332.5,858213.3999999994,7175,WL,A,4.0
5,9.21399998664856,learn,60000.0,Tue Jul 01 2025 14:31:13 GMT-0500 (Central Daylight Time),860395.5999999996,A,m,O,m,836,1,849.2999999998137,859546.2999999998,7175,WL,A,5.0
5,9.330999851226807,learn,60000.0,Tue Jul 01 2025 14:31:13 GMT-0500 (Central Daylight Time),860512.0999999996,A,me,O,e,106,1,965.7999999998137,859546.2999999998,7175,WL,A,5.0
5,9.496999979019165,learn,60000.0,Tue Jul 01 2025 14:31:13 GMT-0500 (Central Daylight Time),860678.6999999993,A,mea,O,a,157,1,1132.3999999994412,859546.2999999998,7175,WL,A,5.0
5,9.69700002670288,learn,60000.0,Tue Jul 01 2025 14:31:13 GMT-0500 (Central Daylight Time),860878.6999999993,A,mead,O,d,191,1,1332.3999999994412,859546.2999999998,7175,WL,A,5.0
5,9.980999946594238,learn,60000.0,Tue Jul 01 2025 14:31:13 GMT-0500 (Central Daylight Time),861162.1999999993,A,meado,O,o,263,1,1615.8999999994412,859546.2999999998,7175,WL,A,5.0
5,10.129999876022339,learn,60000.0,Tue Jul 01 2025 14:31:13 GMT-0500 (Central Daylight Time),861311.6999999993,A,meadow,O,w,131,1,1765.3999999994412,859546.2999999998,7175,WL,A,5.0
5,11.079999923706055,learn,60000.0,Tue Jul 01 2025 14:31:13 GMT-0500 (Central Daylight Time),862261.6999999993,A,meadowenter,O,enter,933,1,2715.399999999441,859546.2999999998,7175,WL,A,5.0
5,12.730000019073486,learn,60000.0,Tue Jul 01 2025 14:31:13 GMT-0500 (Central Daylight Time),863911.0,A,h,O,h,1630,1,1648.7000000001863,862262.2999999998,7175,WL,A,6.0
5,13.013000011444092,learn,60000.0,Tue Jul 01 2025 14:31:13 GMT-0500 (Central Daylight Time),864194.2999999998,A,ha,O,a,262,1,1932.0,862262.2999999998,7175,WL,A,6.0
5,13.328999996185303,learn,60000.0,Tue Jul 01 2025 14:31:13 GMT-0500 (Central Daylight Time),864510.8999999994,A,har,O,r,307,1,2248.5999999996275,862262.2999999998,7175,WL,A,6.0
5,13.662999868392944,learn,60000.0,Tue Jul 01 2025 14:31:13 GMT-0500 (Central Daylight Time),864844.1999999993,A,harp,O,p,318,1,2581.899999999441,862262.2999999998,7175,WL,A,6.0
5,14.647000074386597,learn,60000.0,Tue Jul 01 2025 14:31:13 GMT-0500 (Central Daylight Time),865828.1999999993,A,harpenter,O,enter,977,1,3565.899999999441,862262.2999999998,7175,WL,A,6.0
5,16.01200008392334,learn,60000.0,Tue Jul 01 2025 14:31:13 GMT-0500 (Central Daylight Time),867193.0,A,s,O,s,1353,1,1364.4000000003725,865828.5999999996,7175,WL,A,7.0
5,16.26200008392334,learn,60000.0,Tue Jul 01 2025 14:31:13 GMT-0500 (Central Daylight Time),867443.0999999996,A,sa,O,a,236,1,1614.5,865828.5999999996,7175,WL,A,7.0
5,16.460999965667725,learn,60000.0,Tue Jul 01 2025 14:31:13 GMT-0500 (Central Daylight Time),867642.7999999998,A,sal,O,l,186,1,1814.2000000001863,865828.5999999996,7175,WL,A,7.0
5,16.66100001335144,learn,60000.0,Tue Jul 01 2025 14:31:13 GMT-0500 (Central Daylight Time),867842.8999999994,A,salt,O,t,187,1,2014.2999999998137,865828.5999999996,7175,WL,A,7.0
5,17.128000020980835,learn,60000.0,Tue Jul 01 2025 14:31:13 GMT-0500 (Central Daylight Time),868309.3999999994,A,saltenter,O,enter,450,1,2480.7999999998137,865828.5999999996,7175,WL,A,7.0
5,19.861999988555908,learn,60000.0,Tue Jul 01 2025 14:31:13 GMT-0500 (Central Daylight Time),871043.2999999998,A,a,O,a,2728,1,2733.600000000559,868309.6999999993,7175,WL,A,8.0
5,20.0939998626709,learn,60000.0,Tue Jul 01 2025 14:31:13 GMT-0500 (Central Daylight Time),871275.0,A,ap,O,p,226,1,2965.300000000745,868309.6999999993,7175,WL,A,8.0
5,20.276999950408936,learn,60000.0,Tue Jul 01 2025 14:31:13 GMT-0500 (Central Daylight Time),871458.3999999994,A,app,O,p,162,1,3148.7000000001863,868309.6999999993,7175,WL,A,8.0
5,20.509999990463257,learn,60000.0,Tue Jul 01 2025 14:31:13 GMT-0500 (Central Daylight Time),871691.6999999993,A,appl,O,l,218,1,3382.0,868309.6999999993,7175,WL,A,8.0
5,20.72699999809265,learn,60000.0,Tue Jul 01 2025 14:31:13 GMT-0500 (Central Daylight Time),871908.2999999998,A,apple,O,e,201,1,3598.600000000559,868309.6999999993,7175,WL,A,8.0
5,21.009999990463257,learn,60000.0,Tue Jul 01 2025 14:31:13 GMT-0500 (Central Daylight Time),872191.5,A,appleenter,O,enter,273,1,3881.800000000745,868309.6999999993,7175,WL,A,8.0
5,25.408999919891357,learn,60000.0,Tue Jul 01 2025 14:31:13 GMT-0500 (Central Daylight Time),876590.2999999998,A,b,O,b,4381,1,4398.5,872191.7999999998,7175,WL,A,9.0
5,25.524999856948853,learn,60000.0,Tue Jul 01 2025 14:31:13 GMT-0500 (Central Daylight Time),876706.5999999996,A,bu,O,u,103,1,4514.799999999814,872191.7999999998,7175,WL,A,9.0
5,25.774999856948853,learn,60000.0,Tue Jul 01 2025 14:31:13 GMT-0500 (Central Daylight Time),876956.6999999993,A,but,O,t,235,1,4764.899999999441,872191.7999999998,7175,WL,A,9.0
5,25.97499990463257,learn,60000.0,Tue Jul 01 2025 14:31:13 GMT-0500 (Central Daylight Time),877156.3999999994,A,butt,O,t,192,1,4964.5999999996275,872191.7999999998,7175,WL,A,9.0
5,26.10800004005432,learn,60000.0,Tue Jul 01 2025 14:31:13 GMT-0500 (Central Daylight Time),877289.8999999994,A,butto,O,o,113,1,5098.0999999996275,872191.7999999998,7175,WL,A,9.0
5,26.325000047683716,learn,60000.0,Tue Jul 01 2025 14:31:13 GMT-0500 (Central Daylight Time),877506.5999999996,A,button,O,n,203,1,5314.799999999814,872191.7999999998,7175,WL,A,9.0
5,27.257999897003174,learn,60000.0,Tue Jul 01 2025 14:31:13 GMT-0500 (Central Daylight Time),878439.5,A,buttonenter,O,enter,922,1,6247.700000000186,872191.7999999998,7175,WL,A,9.0
5,28.756999969482422,learn,60000.0,Tue Jul 01 2025 14:31:13 GMT-0500 (Central Daylight Time),879939.0,A,l,O,l,1486,1,1499.2000000001863,878439.7999999998,7175,WL,A,10.0
5,29.006999969482422,learn,60000.0,Tue Jul 01 2025 14:31:13 GMT-0500 (Central Daylight Time),880188.8999999994,A,lo,O,o,243,1,1749.0999999996275,878439.7999999998,7175,WL,A,10.0
5,29.20799994468689,learn,60000.0,Tue Jul 01 2025 14:31:13 GMT-0500 (Central Daylight Time),880389.0999999996,A,log,O,g,184,1,1949.2999999998137,878439.7999999998,7175,WL,A,10.0
5,29.556999921798706,learn,60000.0,Tue Jul 01 2025 14:31:13 GMT-0500 (Central Daylight Time),880738.7999999998,A,logenter,O,enter,336,1,2299.0,878439.7999999998,7175,WL,A,10.0
5,51.71600008010864,learn,60000.0,Tue Jul 01 2025 14:31:13 GMT-0500 (Central Daylight Time),902898.7999999998,A,k,O,k,22147,1,22159.799999999814,880739.0,7175,WL,A,11.0
5,51.948999881744385,learn,60000.0,Tue Jul 01 2025 14:31:13 GMT-0500 (Central Daylight Time),903132.0999999996,A,ke,O,e,217,1,22393.099999999627,880739.0,7175,WL,A,11.0
5,52.132999897003174,learn,60000.0,Tue Jul 01 2025 14:31:13 GMT-0500 (Central Daylight Time),903315.2999999998,A,key,O,y,169,1,22576.299999999814,880739.0,7175,WL,A,11.0
5,52.48300004005432,learn,60000.0,Tue Jul 01 2025 14:31:13 GMT-0500 (Central Daylight Time),903665.2999999998,A,keyenter,O,enter,338,1,22926.299999999814,880739.0,7175,WL,A,11.0
5,53.49900007247925,learn,60000.0,Tue Jul 01 2025 14:31:13 GMT-0500 (Central Daylight Time),904681.6999999993,A,g,O,g,1005,1,1016.0999999996275,903665.5999999996,7175,WL,A,12.0
5,53.598999977111816,learn,60000.0,Tue Jul 01 2025 14:31:13 GMT-0500 (Central Daylight Time),904781.5,A,go,O,o,92,1,1115.9000000003725,903665.5999999996,7175,WL,A,12.0
5,53.81500005722046,learn,60000.0,Tue Jul 01 2025 14:31:13 GMT-0500 (Central Daylight Time),904998.0999999996,A,gol,O,l,208,1,1332.5,903665.5999999996,7175,WL,A,12.0
5,53.94799995422363,learn,60000.0,Tue Jul 01 2025 14:31:13 GMT-0500 (Central Daylight Time),905131.0999999996,A,gold,O,d,127,1,1465.5,903665.5999999996,7175,WL,A,12.0
5,54.198999881744385,learn,60000.0,Tue Jul 01 2025 14:31:13 GMT-0500 (Central Daylight Time),905381.2999999998,A,goldenter,O,enter,234,1,1715.7000000001863,903665.5999999996,7175,WL,A,12.0
5,54.78200006484985,learn,60000.0,Tue Jul 01 2025 14:31:13 GMT-0500 (Central Daylight Time),905964.5999999996,A,r,O,r,568,1,583.0,905381.5999999996,7175,WL,A,13.0
5,54.96499991416931,learn,60000.0,Tue Jul 01 2025 14:31:13 GMT-0500 (Central Daylight Time),906147.5999999996,A,ra,O,a,176,1,766.0,905381.5999999996,7175,WL,A,13.0
5,55.098999977111816,learn,60000.0,Tue Jul 01 2025 14:31:13 GMT-0500 (Central Daylight Time),906281.8999999994,A,rat,O,t,114,1,900.2999999998137,905381.5999999996,7175,WL,A,13.0
5,55.28200006484985,learn,60000.0,Tue Jul 01 2025 14:31:13 GMT-0500 (Central Daylight Time),906464.3999999994,A,ratt,O,t,172,1,1082.7999999998137,905381.5999999996,7175,WL,A,13.0
5,55.41499996185303,learn,60000.0,Tue Jul 01 2025 14:31:13 GMT-0500 (Central Daylight Time),906597.2999999998,A,rattl,O,l,117,1,1215.7000000001863,905381.5999999996,7175,WL,A,13.0
5,55.56399989128113,learn,60000.0,Tue Jul 01 2025 14:31:13 GMT-0500 (Central Daylight Time),906747.1999999993,A,rattle,O,e,136,1,1365.5999999996275,905381.5999999996,7175,WL,A,13.0
5,55.73099994659424,learn,60000.0,Tue Jul 01 2025 14:31:13 GMT-0500 (Central Daylight Time),906914.2999999998,A,rattleenter,O,enter,146,1,1532.7000000001863,905381.5999999996,7175,WL,A,13.0
5,55.98199987411499,learn,60000.0,Tue Jul 01 2025 14:31:13 GMT-0500 (Central Daylight Time),907164.2999999998,A,c,O,c,243,1,249.70000000018626,906914.5999999996,7175,WL,A,14.0
5,56.13100004196167,learn,60000.0,Tue Jul 01 2025 14:31:13 GMT-0500 (Central Daylight Time),907314.1999999993,A,ch,O,h,145,1,399.59999999962747,906914.5999999996,7175,WL,A,14.0
5,56.21499991416931,learn,60000.0,Tue Jul 01 2025 14:31:13 GMT-0500 (Central Daylight Time),907397.5,A,chi,O,i,75,1,482.90000000037253,906914.5999999996,7175,WL,A,14.0
5,56.44799995422363,learn,60000.0,Tue Jul 01 2025 14:31:13 GMT-0500 (Central Daylight Time),907630.6999999993,A,chim,O,m,216,1,716.0999999996275,906914.5999999996,7175,WL,A,14.0
5,56.64800000190735,learn,60000.0,Tue Jul 01 2025 14:31:13 GMT-0500 (Central Daylight Time),907830.7999999998,A,chimn,O,n,191,1,916.2000000001863,906914.5999999996,7175,WL,A,14.0
5,56.7979998588562,learn,60000.0,Tue Jul 01 2025 14:31:13 GMT-0500 (Central Daylight Time),907980.5999999996,A,chimne,O,e,135,1,1066.0,906914.5999999996,7175,WL,A,14.0
5,56.96399998664856,learn,60000.0,Tue Jul 01 2025 14:31:13 GMT-0500 (Central Daylight Time),908147.1999999993,A,chimney,O,y,153,1,1232.5999999996275,906914.5999999996,7175,WL,A,14.0
5,57.31399989128113,learn,60000.0,Tue Jul 01 2025 14:31:13 GMT-0500 (Central Daylight Time),908497.0999999996,A,chimneyenter,O,enter,330,1,1582.5,906914.5999999996,7175,WL,A,14.0
5,69.04399991035461,learn,60000.0,Tue Jul 01 2025 14:31:13 GMT-0500 (Central Daylight Time),920226.5999999996,A,enter,O,enter,11725,1,11729.200000000186,908497.3999999994,7175,WL,A,15.0
6,1.1670000553131104,distr,58832.99994468689,Tue Jul 01 2025 14:31:13 GMT-0500 (Central Daylight Time),1010881.5,B,c,O,c,1154,1,1166.0,1009715.5,7175,WL,A,1.0
6,1.3500001430511475,distr,58649.99985694885,Tue Jul 01 2025 14:31:13 GMT-0500 (Central Daylight Time),1011064.8999999994,B,ch,O,h,163,1,1349.3999999994412,1009715.5,7175,WL,A,1.0
6,1.5329999923706055,distr,58467.000007629395,Tue Jul 01 2025 14:31:13 GMT-0500 (Central Daylight Time),1011248.1999999993,B,cha,O,a,173,1,1532.699999999255,1009715.5,7175,WL,A,1.0
6,1.75,distr,58250.0,Tue Jul 01 2025 14:31:13 GMT-0500 (Central Daylight Time),1011464.5999999996,B,chai,O,i,206,1,1749.0999999996275,1009715.5,7175,WL,A,1.0
6,1.9660000801086426,distr,58033.99991989136,Tue Jul 01 2025 14:31:13 GMT-0500 (Central Daylight Time),1011681.3999999994,B,chair,O,r,205,1,1965.8999999994412,1009715.5,7175,WL,A,1.0
6,2.2160000801086426,distr,57783.99991989136,Tue Jul 01 2025 14:31:13 GMT-0500 (Central Daylight Time),1011931.0999999996,B,chairenter,O,enter,244,1,2215.5999999996275,1009715.5,7175,WL,A,1.0
6,3.065999984741211,distr,56934.00001525879,Tue Jul 01 2025 14:31:13 GMT-0500 (Central Daylight Time),1012780.5999999996,B,s,O,s,834,1,849.2000000001863,1011931.3999999994,7175,WL,A,2.0
6,3.317000150680542,distr,56682.99984931946,Tue Jul 01 2025 14:31:13 GMT-0500 (Central Daylight Time),1013032.1999999993,B,se,O,e,233,1,1100.7999999998137,1011931.3999999994,7175,WL,A,2.0
6,3.5320000648498535,distr,56467.99993515015,Tue Jul 01 2025 14:31:13 GMT-0500 (Central Daylight Time),1013247.5,B,see,O,e,205,1,1316.1000000005588,1011931.3999999994,7175,WL,A,2.0
6,3.8320000171661377,distr,56167.99998283386,Tue Jul 01 2025 14:31:13 GMT-0500 (Central Daylight Time),1013547.3999999994,B,seed,O,d,286,1,1616.0,1011931.3999999994,7175,WL,A,2.0
6,4.183000087738037,distr,55816.99991226196,Tue Jul 01 2025 14:31:13 GMT-0500 (Central Daylight Time),1013897.5999999996,B,seedenter,O,enter,330,1,1966.2000000001863,1011931.3999999994,7175,WL,A,2.0
6,4.582000017166138,distr,55417.99998283386,Tue Jul 01 2025 14:31:13 GMT-0500 (Central Daylight Time),1014297.1999999993,B,b,O,b,388,1,399.3999999994412,1013897.7999999998,7175,WL,A,3.0
6,4.799000024795532,distr,55200.99997520447,Tue Jul 01 2025 14:31:13 GMT-0500 (Central Daylight Time),1014513.6999999993,B,bo,O,o,204,1,615.8999999994412,1013897.7999999998,7175,WL,A,3.0
6,5.015000104904175,distr,54984.999895095825,Tue Jul 01 2025 14:31:13 GMT-0500 (Central Daylight Time),1014730.3999999994,B,bot,O,t,196,1,832.5999999996275,1013897.7999999998,7175,WL,A,3.0
6,5.232000112533569,distr,54767.99988746643,Tue Jul 01 2025 14:31:13 GMT-0500 (Central Daylight Time),1014946.6999999993,B,bott,O,t,211,1,1048.8999999994412,1013897.7999999998,7175,WL,A,3.0
6,5.432000160217285,distr,54567.999839782715,Tue Jul 01 2025 14:31:13 GMT-0500 (Central Daylight Time),1015147.0,B,bottl,O,l,187,1,1249.2000000001863,1013897.7999999998,7175,WL,A,3.0
6,5.615000009536743,distr,54384.99999046326,Tue Jul 01 2025 14:31:13 GMT-0500 (Central Daylight Time),1015330.1999999993,B,bottle,O,e,170,1,1432.3999999994412,1013897.7999999998,7175,WL,A,3.0
6,5.881999969482422,distr,54118.00003051758,Tue Jul 01 2025 14:31:13 GMT-0500 (Central Daylight Time),1015596.7999999998,B,bottleenter,O,enter,251,1,1699.0,1013897.7999999998,7175,WL,A,3.0
6,6.432000160217285,distr,53567.999839782715,Tue Jul 01 2025 14:31:13 GMT-0500 (Central Daylight Time),1016146.5999999996,B,j,O,j,529,1,549.4000000003725,1015597.1999999993,7175,WL,A,4.0
6,6.648000001907349,distr,53351.99999809265,Tue Jul 01 2025 14:31:13 GMT-0500 (Central Daylight Time),1016363.0,B,ju,O,u,211,1,765.8000000007451,1015597.1999999993,7175,WL,A,4.0
6,6.7820000648498535,distr,53217.99993515015,Tue Jul 01 2025 14:31:13 GMT-0500 (Central Daylight Time),1016496.5,B,jud,O,d,114,1,899.3000000007451,1015597.1999999993,7175,WL,A,4.0
6,6.965000152587891,distr,53034.99984741211,Tue Jul 01 2025 14:31:13 GMT-0500 (Central Daylight Time),1016679.7999999998,B,judg,O,g,173,1,1082.6000000005588,1015597.1999999993,7175,WL,A,4.0
6,7.180999994277954,distr,52819.000005722046,Tue Jul 01 2025 14:31:13 GMT-0500 (Central Daylight Time),1016896.1999999993,B,judge,O,e,206,1,1299.0,1015597.1999999993,7175,WL,A,4.0
6,7.398000001907349,distr,52601.99999809265,Tue Jul 01 2025 14:31:13 GMT-0500 (Central Daylight Time),1017113.0,B,judgeenter,O,enter,205,1,1515.800000000745,1015597.1999999993,7175,WL,A,4.0
6,9.226999998092651,distr,50773.00000190735,Tue Jul 01 2025 14:31:13 GMT-0500 (Central Daylight Time),1018942.1999999993,B,s,O,s,1825,1,1828.8999999994412,1017113.2999999998,7175,WL,A,5.0
6,9.373000144958496,distr,50626.999855041504,Tue Jul 01 2025 14:31:13 GMT-0500 (Central Daylight Time),1019089.5999999996,B,sh,O,h,142,1,1976.2999999998137,1017113.2999999998,7175,WL,A,5.0
6,9.595999956130981,distr,50404.00004386902,Tue Jul 01 2025 14:31:13 GMT-0500 (Central Daylight Time),1019312.0999999996,B,she,O,e,210,1,2198.7999999998137,1017113.2999999998,7175,WL,A,5.0
6,9.812999963760376,distr,50187.000036239624,Tue Jul 01 2025 14:31:13 GMT-0500 (Central Daylight Time),1019528.7999999998,B,shee,O,e,205,1,2415.5,1017113.2999999998,7175,WL,A,5.0
6,9.996000051498413,distr,50003.99994850159,Tue Jul 01 2025 14:31:13 GMT-0500 (Central Daylight Time),1019712.3999999994,B,sheep,O,p,165,1,2599.0999999996275,1017113.2999999998,7175,WL,A,5.0
6,10.312000036239624,distr,49687.999963760376,Tue Jul 01 2025 14:31:13 GMT-0500 (Central Daylight Time),1020028.6999999993,B,sheepenter,O,enter,301,1,2915.399999999441,1017113.2999999998,7175,WL,A,5.0
6,18.926000118255615,distr,41073.999881744385,Tue Jul 01 2025 14:31:13 GMT-0500 (Central Daylight Time),1028642.5999999996,B,m,O,m,8592,1,8613.5,1020029.0999999996,7175,WL,A,6.0
6,19.14300012588501,distr,40856.99987411499,Tue Jul 01 2025 14:31:13 GMT-0500 (Central Daylight Time),1028859.3999999994,B,me,O,e,202,1,8830.299999999814,1020029.0999999996,7175,WL,A,6.0
6,19.325999975204468,distr,40674.00002479553,Tue Jul 01 2025 14:31:13 GMT-0500 (Central Daylight Time),1029042.3999999994,B,mea,O,a,170,1,9013.299999999814,1020029.0999999996,7175,WL,A,6.0
6,19.526000022888184,distr,40473.99997711182,Tue Jul 01 2025 14:31:13 GMT-0500 (Central Daylight Time),1029242.3999999994,B,meal,O,l,187,1,9213.299999999814,1020029.0999999996,7175,WL,A,6.0
6,19.943000078201294,distr,40056.999921798706,Tue Jul 01 2025 14:31:13 GMT-0500 (Central Daylight Time),1029659.1999999993,B,mealenter,O,enter,395,1,9630.099999999627,1020029.0999999996,7175,WL,A,6.0
6,29.75600004196167,distr,30243.99995803833,Tue Jul 01 2025 14:31:13 GMT-0500 (Central Daylight Time),1039472.5999999996,B,p,O,p,9802,1,9813.0,1029659.5999999996,7175,WL,A,7.0
6,30.106000185012817,distr,29893.999814987183,Tue Jul 01 2025 14:31:13 GMT-0500 (Central Daylight Time),1039822.5,B,po,O,o,340,1,10162.900000000373,1029659.5999999996,7175,WL,A,7.0
6,30.289999961853027,distr,29710.000038146973,Tue Jul 01 2025 14:31:13 GMT-0500 (Central Daylight Time),1040005.7999999998,B,poo,O,o,175,1,10346.200000000186,1029659.5999999996,7175,WL,A,7.0
6,30.555999994277954,distr,29444.000005722046,Tue Jul 01 2025 14:31:13 GMT-0500 (Central Daylight Time),1040272.2999999998,B,pool,O,l,248,1,10612.700000000186,1029659.5999999996,7175,WL,A,7.0
6,30.939000129699707,distr,29060.999870300293,Tue Jul 01 2025 14:31:13 GMT-0500 (Central Daylight Time),1040655.5999999996,B,poolenter,O,enter,373,1,10996.0,1029659.5999999996,7175,WL,A,7.0
6,43.18600010871887,distr,16813.999891281128,Tue Jul 01 2025 14:31:13 GMT-0500 (Central Daylight Time),1052901.6999999993,B,enter,O,enter,12230,1,12245.699999999255,1040656.0,7175,WL,A,8.0
6,57.19799995422363,distr,2802.000045776367,Tue Jul 01 2025 14:31:13 GMT-0500 (Central Daylight Time),1066913.8999999994,B,b,O,b,13999,1,14011.799999999814,1052902.0999999996,7175,WL,A,9.0
6,57.36400008201599,distr,2635.999917984009,Tue Jul 01 2025 14:31:13 GMT-0500 (Central Daylight Time),1067080.5999999996,B,bo,O,o,147,1,14178.5,1052902.0999999996,7175,WL,A,9.0
6,57.54800009727478,distr,2451.9999027252197,Tue Jul 01 2025 14:31:13 GMT-0500 (Central Daylight Time),1067263.8999999994,B,bow,O,w,173,1,14361.799999999814,1052902.0999999996,7175,WL,A,9.0
6,57.76400017738342,distr,2235.999822616577,Tue Jul 01 2025 14:31:13 GMT-0500 (Central Daylight Time),1067480.3999999994,B,bowl,O,l,198,1,14578.299999999814,1052902.0999999996,7175,WL,A,9.0
6,58.430999994277954,distr,1569.000005722046,Tue Jul 01 2025 14:31:13 GMT-0500 (Central Daylight Time),1068147.1999999993,B,bowlenter,O,enter,653,1,15245.099999999627,1052902.0999999996,7175,WL,A,9.0
6,60.01400017738342,distr,-14.000177383422852,Tue Jul 01 2025 14:31:13 GMT-0500 (Central Daylight Time),1069730.0,B,None,O,None,1578,1,1582.5,1068147.5,7175,WL,A,10.0
7,1.2330000400543213,immed,58766.99995994568,Tue Jul 01 2025 14:31:13 GMT-0500 (Central Daylight Time),1084258.5,A,b,O,b,1221,1,1232.9000000003725,1083025.5999999996,7175,WL,A,1.0
7,1.4000000953674316,immed,58599.99990463257,Tue Jul 01 2025 14:31:13 GMT-0500 (Central Daylight Time),1084425.1999999993,A,bo,O,o,147,1,1399.5999999996275,1083025.5999999996,7175,WL,A,1.0
7,1.566999912261963,immed,58433.00008773804,Tue Jul 01 2025 14:31:13 GMT-0500 (Central Daylight Time),1084591.7999999998,A,boo,O,o,156,1,1566.2000000001863,1083025.5999999996,7175,WL,A,1.0
7,1.7829999923706055,immed,58217.000007629395,Tue Jul 01 2025 14:31:13 GMT-0500 (Central Daylight Time),1084808.3999999994,A,book,O,k,206,1,1782.7999999998137,1083025.5999999996,7175,WL,A,1.0
7,2.1500000953674316,immed,57849.99990463257,Tue Jul 01 2025 14:31:13 GMT-0500 (Central Daylight Time),1085174.6999999993,A,bookenter,O,enter,349,1,2149.0999999996275,1083025.5999999996,7175,WL,A,1.0
7,3.2330000400543213,immed,56766.99995994568,Tue Jul 01 2025 14:31:13 GMT-0500 (Central Daylight Time),1086257.8999999994,A,t,O,t,1071,1,1082.8999999994412,1085175.0,7175,WL,A,2.0
7,3.4830000400543213,immed,56516.99995994568,Tue Jul 01 2025 14:31:13 GMT-0500 (Central Daylight Time),1086507.7999999998,A,tr,O,r,235,1,1332.7999999998137,1085175.0,7175,WL,A,2.0
7,3.615999937057495,immed,56384.000062942505,Tue Jul 01 2025 14:31:13 GMT-0500 (Central Daylight Time),1086640.6999999993,A,tra,O,a,122,1,1465.699999999255,1085175.0,7175,WL,A,2.0
7,3.7820000648498535,immed,56217.99993515015,Tue Jul 01 2025 14:31:13 GMT-0500 (Central Daylight Time),1086807.3999999994,A,trai,O,i,149,1,1632.3999999994412,1085175.0,7175,WL,A,2.0
7,3.999000072479248,immed,56000.99992752075,Tue Jul 01 2025 14:31:13 GMT-0500 (Central Daylight Time),1087024.2999999998,A,train,O,n,205,1,1849.2999999998137,1085175.0,7175,WL,A,2.0
7,4.5329999923706055,immed,55467.000007629395,Tue Jul 01 2025 14:31:13 GMT-0500 (Central Daylight Time),1087557.7999999998,A,trainenter,O,enter,517,1,2382.7999999998137,1085175.0,7175,WL,A,2.0
7,5.681999921798706,immed,54318.000078201294,Tue Jul 01 2025 14:31:13 GMT-0500 (Central Daylight Time),1088707.1999999993,A,f,O,f,1136,1,1149.199999999255,1087558.0,7175,WL,A,3.0
7,5.815000057220459,immed,54184.99994277954,Tue Jul 01 2025 14:31:13 GMT-0500 (Central Daylight Time),1088840.3999999994,A,fl,O,l,122,1,1282.3999999994412,1087558.0,7175,WL,A,3.0
7,5.997999906539917,immed,54002.00009346008,Tue Jul 01 2025 14:31:13 GMT-0500 (Central Daylight Time),1089023.6999999993,A,flo,O,o,173,1,1465.699999999255,1087558.0,7175,WL,A,3.0
7,6.082000017166138,immed,53917.99998283386,Tue Jul 01 2025 14:31:13 GMT-0500 (Central Daylight Time),1089107.0,A,flow,O,w,78,1,1549.0,1087558.0,7175,WL,A,3.0
7,6.148000001907349,immed,53851.99999809265,Tue Jul 01 2025 14:31:13 GMT-0500 (Central Daylight Time),1089173.6999999993,A,flowe,O,e,59,1,1615.699999999255,1087558.0,7175,WL,A,3.0
7,6.264999866485596,immed,53735.000133514404,Tue Jul 01 2025 14:31:13 GMT-0500 (Central Daylight Time),1089290.3999999994,A,flower,O,r,104,1,1732.3999999994412,1087558.0,7175,WL,A,3.0
7,6.5320000648498535,immed,53467.99993515015,Tue Jul 01 2025 14:31:13 GMT-0500 (Central Daylight Time),1089556.7999999998,A,flowerenter,O,enter,258,1,1998.7999999998137,1087558.0,7175,WL,A,3.0
7,7.8480000495910645,immed,52151.999950408936,Tue Jul 01 2025 14:31:13 GMT-0500 (Central Daylight Time),1090873.1999999993,A,r,O,r,1297,1,1316.0,1089557.1999999993,7175,WL,A,4.0
7,7.997999906539917,immed,52002.00009346008,Tue Jul 01 2025 14:31:13 GMT-0500 (Central Daylight Time),1091023.0999999996,A,ru,O,u,140,1,1465.9000000003725,1089557.1999999993,7175,WL,A,4.0
7,8.914000034332275,immed,51085.999965667725,Tue Jul 01 2025 14:31:13 GMT-0500 (Central Daylight Time),1091939.5,A,rug,O,g,902,1,2382.300000000745,1089557.1999999993,7175,WL,A,4.0
7,10.081000089645386,immed,49918.999910354614,Tue Jul 01 2025 14:31:13 GMT-0500 (Central Daylight Time),1093105.6999999993,A,rugenter,O,enter,1146,1,3548.5,1089557.1999999993,7175,WL,A,4.0
7,10.980000019073486,immed,49019.999980926514,Tue Jul 01 2025 14:31:13 GMT-0500 (Central Daylight Time),1094005.3999999994,A,m,O,m,892,1,899.2999999998137,1093106.0999999996,7175,WL,A,5.0
7,11.147000074386597,immed,48852.9999256134,Tue Jul 01 2025 14:31:13 GMT-0500 (Central Daylight Time),1094172.0,A,me,O,e,160,1,1065.9000000003725,1093106.0999999996,7175,WL,A,5.0
7,11.312999963760376,immed,48687.000036239624,Tue Jul 01 2025 14:31:13 GMT-0500 (Central Daylight Time),1094338.5999999996,A,mea,O,a,153,1,1232.5,1093106.0999999996,7175,WL,A,5.0
7,11.513000011444092,immed,48486.99998855591,Tue Jul 01 2025 14:31:13 GMT-0500 (Central Daylight Time),1094538.5999999996,A,mean,O,n,180,1,1432.5,1093106.0999999996,7175,WL,A,5.0
7,11.629999876022339,immed,48370.00012397766,Tue Jul 01 2025 14:31:13 GMT-0500 (Central Daylight Time),1094655.1999999993,A,meand,O,d,99,1,1549.0999999996275,1093106.0999999996,7175,WL,A,5.0
7,12.129999876022339,immed,47870.00012397766,Tue Jul 01 2025 14:31:13 GMT-0500 (Central Daylight Time),1095154.8999999994,A,meando,O,o,494,1,2048.7999999998137,1093106.0999999996,7175,WL,A,5.0
7,12.662999868392944,immed,47337.000131607056,Tue Jul 01 2025 14:31:13 GMT-0500 (Central Daylight Time),1095688.3999999994,A,meandow,O,w,523,1,2582.2999999998137,1093106.0999999996,7175,WL,A,5.0
7,12.980000019073486,immed,47019.999980926514,Tue Jul 01 2025 14:31:13 GMT-0500 (Central Daylight Time),1096004.7999999998,A,meando,O,backspace,309,1,2898.7000000001863,1093106.0999999996,7175,WL,A,5.0
7,13.162999868392944,immed,46837.000131607056,Tue Jul 01 2025 14:31:13 GMT-0500 (Central Daylight Time),1096188.0,A,meand,O,backspace,177,1,3081.9000000003725,1093106.0999999996,7175,WL,A,5.0
7,13.36299991607666,immed,46637.00008392334,Tue Jul 01 2025 14:31:13 GMT-0500 (Central Daylight Time),1096388.2999999998,A,mean,O,backspace,185,1,3282.2000000001863,1093106.0999999996,7175,WL,A,5.0
7,13.746000051498413,immed,46253.99994850159,Tue Jul 01 2025 14:31:13 GMT-0500 (Central Daylight Time),1096771.1999999993,A,mea,O,backspace,369,1,3665.0999999996275,1093106.0999999996,7175,WL,A,5.0
7,14.463000059127808,immed,45536.99994087219,Tue Jul 01 2025 14:31:13 GMT-0500 (Central Daylight Time),1097487.7999999998,A,mead,O,d,706,1,4381.700000000186,1093106.0999999996,7175,WL,A,5.0
7,14.645999908447266,immed,45354.000091552734,Tue Jul 01 2025 14:31:13 GMT-0500 (Central Daylight Time),1097671.1999999993,A,meado,O,o,166,1,4565.0999999996275,1093106.0999999996,7175,WL,A,5.0
7,14.796000003814697,immed,45203.9999961853,Tue Jul 01 2025 14:31:13 GMT-0500 (Central Daylight Time),1097821.0,A,meadow,O,w,134,1,4714.9000000003725,1093106.0999999996,7175,WL,A,5.0
7,15.694999933242798,immed,44305.0000667572,Tue Jul 01 2025 14:31:13 GMT-0500 (Central Daylight Time),1098720.5999999996,A,meadowenter,O,enter,889,1,5614.5,1093106.0999999996,7175,WL,A,5.0
7,16.26200008392334,immed,43737.99991607666,Tue Jul 01 2025 14:31:13 GMT-0500 (Central Daylight Time),1099287.1999999993,A,h,O,h,549,1,566.2999999998137,1098720.8999999994,7175,WL,A,6.0
7,16.411999940872192,immed,43588.00005912781,Tue Jul 01 2025 14:31:13 GMT-0500 (Central Daylight Time),1099437.2999999998,A,ha,O,a,142,1,716.4000000003725,1098720.8999999994,7175,WL,A,6.0
7,16.59500002861023,immed,43404.99997138977,Tue Jul 01 2025 14:31:13 GMT-0500 (Central Daylight Time),1099620.2999999998,A,har,O,r,168,1,899.4000000003725,1098720.8999999994,7175,WL,A,6.0
7,16.894999980926514,immed,43105.000019073486,Tue Jul 01 2025 14:31:13 GMT-0500 (Central Daylight Time),1099920.1999999993,A,harp,O,p,281,1,1199.2999999998137,1098720.8999999994,7175,WL,A,6.0
7,18.161999940872192,immed,41838.00005912781,Tue Jul 01 2025 14:31:13 GMT-0500 (Central Daylight Time),1101187.0999999996,A,harpenter,O,enter,1262,1,2466.2000000001863,1098720.8999999994,7175,WL,A,6.0
7,18.76099991798401,immed,41239.00008201599,Tue Jul 01 2025 14:31:13 GMT-0500 (Central Daylight Time),1101786.3999999994,A,s,O,s,586,1,599.0999999996275,1101187.2999999998,7175,WL,A,7.0
7,18.91100001335144,immed,41088.99998664856,Tue Jul 01 2025 14:31:13 GMT-0500 (Central Daylight Time),1101936.2999999998,A,sa,O,a,131,1,749.0,1101187.2999999998,7175,WL,A,7.0
7,19.094000101089478,immed,40905.99989891052,Tue Jul 01 2025 14:31:13 GMT-0500 (Central Daylight Time),1102119.5999999996,A,sal,O,l,173,1,932.2999999998137,1101187.2999999998,7175,WL,A,7.0
7,19.277999877929688,immed,40722.00012207031,Tue Jul 01 2025 14:31:13 GMT-0500 (Central Daylight Time),1102302.8999999994,A,salt,O,t,174,1,1115.5999999996275,1101187.2999999998,7175,WL,A,7.0
7,19.527999877929688,immed,40472.00012207031,Tue Jul 01 2025 14:31:13 GMT-0500 (Central Daylight Time),1102552.8999999994,A,saltenter,O,enter,231,1,1365.5999999996275,1101187.2999999998,7175,WL,A,7.0
7,20.859999895095825,immed,39140.000104904175,Tue Jul 01 2025 14:31:13 GMT-0500 (Central Daylight Time),1103885.6999999993,A,a,O,a,1317,1,1332.5,1102553.1999999993,7175,WL,A,8.0
7,21.026999950408936,immed,38973.000049591064,Tue Jul 01 2025 14:31:13 GMT-0500 (Central Daylight Time),1104052.1999999993,A,ap,O,p,160,1,1499.0,1102553.1999999993,7175,WL,A,8.0
7,21.22699999809265,immed,38773.00000190735,Tue Jul 01 2025 14:31:13 GMT-0500 (Central Daylight Time),1104252.5,A,app,O,p,185,1,1699.300000000745,1102553.1999999993,7175,WL,A,8.0
7,21.427000045776367,immed,38572.99995422363,Tue Jul 01 2025 14:31:13 GMT-0500 (Central Daylight Time),1104452.2999999998,A,appl,O,l,193,1,1899.1000000005588,1102553.1999999993,7175,WL,A,8.0
7,21.594000101089478,immed,38405.99989891052,Tue Jul 01 2025 14:31:13 GMT-0500 (Central Daylight Time),1104618.8999999994,A,apple,O,e,161,1,2065.7000000001863,1102553.1999999993,7175,WL,A,8.0
7,21.80999994277954,immed,38190.00005722046,Tue Jul 01 2025 14:31:13 GMT-0500 (Central Daylight Time),1104835.2999999998,A,appleenter,O,enter,202,1,2282.100000000559,1102553.1999999993,7175,WL,A,8.0
7,22.57699990272522,immed,37423.00009727478,Tue Jul 01 2025 14:31:13 GMT-0500 (Central Daylight Time),1105602.0,A,f,O,f,746,1,766.4000000003725,1104835.5999999996,7175,WL,A,9.0
7,22.66000008583069,immed,37339.99991416931,Tue Jul 01 2025 14:31:13 GMT-0500 (Central Daylight Time),1105685.0999999996,A,fi,O,i,75,1,849.5,1104835.5999999996,7175,WL,A,9.0
7,22.877000093460083,immed,37122.99990653992,Tue Jul 01 2025 14:31:13 GMT-0500 (Central Daylight Time),1105902.0,A,fin,O,n,201,1,1066.4000000003725,1104835.5999999996,7175,WL,A,9.0
7,22.927000045776367,immed,37072.99995422363,Tue Jul 01 2025 14:31:13 GMT-0500 (Central Daylight Time),1105952.0999999996,A,fing,O,g,39,1,1116.5,1104835.5999999996,7175,WL,A,9.0
7,23.109999895095825,immed,36890.000104904175,Tue Jul 01 2025 14:31:13 GMT-0500 (Central Daylight Time),1106135.0,A,finge,O,e,166,1,1299.4000000003725,1104835.5999999996,7175,WL,A,9.0
7,23.210000038146973,immed,36789.99996185303,Tue Jul 01 2025 14:31:13 GMT-0500 (Central Daylight Time),1106235.0,A,finger,O,r,79,1,1399.4000000003725,1104835.5999999996,7175,WL,A,9.0
7,25.2260000705719,immed,34773.9999294281,Tue Jul 01 2025 14:31:13 GMT-0500 (Central Daylight Time),1108251.0,A,fingerenter,O,enter,2002,1,3415.4000000003725,1104835.5999999996,7175,WL,A,9.0
7,34.65599989891052,immed,25344.000101089478,Tue Jul 01 2025 14:31:13 GMT-0500 (Central Daylight Time),1117681.5999999996,A,g,O,g,9410,1,9430.0,1108251.5999999996,7175,WL,A,10.0
7,34.805999994277954,immed,25194.000005722046,Tue Jul 01 2025 14:31:13 GMT-0500 (Central Daylight Time),1117831.3999999994,A,go,O,o,131,1,9579.799999999814,1108251.5999999996,7175,WL,A,10.0
7,35.039000034332275,immed,24960.999965667725,Tue Jul 01 2025 14:31:13 GMT-0500 (Central Daylight Time),1118064.5,A,gol,O,l,222,1,9812.900000000373,1108251.5999999996,7175,WL,A,10.0
7,35.206000089645386,immed,24793.999910354614,Tue Jul 01 2025 14:31:13 GMT-0500 (Central Daylight Time),1118231.3999999994,A,gold,O,d,149,1,9979.799999999814,1108251.5999999996,7175,WL,A,10.0
7,35.68899989128113,immed,24311.000108718872,Tue Jul 01 2025 14:31:13 GMT-0500 (Central Daylight Time),1118714.2999999998,A,goldenter,O,enter,462,1,10462.700000000186,1108251.5999999996,7175,WL,A,10.0
7,45.65299987792969,immed,14347.000122070312,Tue Jul 01 2025 14:31:13 GMT-0500 (Central Daylight Time),1128677.8999999994,A,r,O,r,9955,1,9963.099999999627,1118714.7999999998,7175,WL,A,11.0
7,45.835999965667725,immed,14164.000034332275,Tue Jul 01 2025 14:31:13 GMT-0500 (Central Daylight Time),1128861.2999999998,A,ra,O,a,167,1,10146.5,1118714.7999999998,7175,WL,A,11.0
7,46.069000005722046,immed,13930.999994277954,Tue Jul 01 2025 14:31:13 GMT-0500 (Central Daylight Time),1129094.3999999994,A,rat,O,t,224,1,10379.599999999627,1118714.7999999998,7175,WL,A,11.0
7,46.253000020980835,immed,13746.999979019165,Tue Jul 01 2025 14:31:13 GMT-0500 (Central Daylight Time),1129277.5999999996,A,ratt,O,t,167,1,10562.799999999814,1118714.7999999998,7175,WL,A,11.0
7,46.38599991798401,immed,13614.000082015991,Tue Jul 01 2025 14:31:13 GMT-0500 (Central Daylight Time),1129410.8999999994,A,rattl,O,l,112,1,10696.099999999627,1118714.7999999998,7175,WL,A,11.0
7,46.60199999809265,immed,13398.000001907349,Tue Jul 01 2025 14:31:13 GMT-0500 (Central Daylight Time),1129627.5999999996,A,rattle,O,e,203,1,10912.799999999814,1118714.7999999998,7175,WL,A,11.0
7,46.76900005340576,immed,13230.999946594238,Tue Jul 01 2025 14:31:13 GMT-0500 (Central Daylight Time),1129794.2999999998,A,rattleenter,O,enter,154,1,11079.5,1118714.7999999998,7175,WL,A,11.0
7,47.319000005722046,immed,12680.999994277954,Tue Jul 01 2025 14:31:13 GMT-0500 (Central Daylight Time),1130344.0999999996,A,c,O,c,539,1,549.5,1129794.5999999996,7175,WL,A,12.0
7,47.86899995803833,immed,12131.00004196167,Tue Jul 01 2025 14:31:13 GMT-0500 (Central Daylight Time),1130893.6999999993,A,ch,O,h,541,1,1099.0999999996275,1129794.5999999996,7175,WL,A,12.0
7,47.96900010108948,immed,12030.999898910522,Tue Jul 01 2025 14:31:13 GMT-0500 (Central Daylight Time),1130993.8999999994,A,chi,O,i,87,1,1199.2999999998137,1129794.5999999996,7175,WL,A,12.0
7,48.25200009346008,immed,11747.999906539917,Tue Jul 01 2025 14:31:13 GMT-0500 (Central Daylight Time),1131277.0999999996,A,chim,O,m,268,1,1482.5,1129794.5999999996,7175,WL,A,12.0
7,48.53500008583069,immed,11464.999914169312,Tue Jul 01 2025 14:31:13 GMT-0500 (Central Daylight Time),1131560.3999999994,A,chimn,O,n,272,1,1765.7999999998137,1129794.5999999996,7175,WL,A,12.0
7,48.80200004577637,immed,11197.999954223633,Tue Jul 01 2025 14:31:13 GMT-0500 (Central Daylight Time),1131827.0,A,chimne,O,e,253,1,2032.4000000003725,1129794.5999999996,7175,WL,A,12.0
7,49.01799988746643,immed,10982.00011253357,Tue Jul 01 2025 14:31:13 GMT-0500 (Central Daylight Time),1132043.5,A,chimney,O,y,210,1,2248.9000000003725,1129794.5999999996,7175,WL,A,12.0
7,49.818000078201294,immed,10181.999921798706,Tue Jul 01 2025 14:31:13 GMT-0500 (Central Daylight Time),1132843.3999999994,A,chimneyenter,O,enter,786,1,3048.7999999998137,1129794.5999999996,7175,WL,A,12.0
7,50.401000022888184,immed,9598.999977111816,Tue Jul 01 2025 14:31:13 GMT-0500 (Central Daylight Time),1133426.3999999994,A,l,O,l,562,1,582.5999999996275,1132843.7999999998,7175,WL,A,13.0
7,50.634000062942505,immed,9365.999937057495,Tue Jul 01 2025 14:31:13 GMT-0500 (Central Daylight Time),1133659.6999999993,A,lo,O,o,219,1,815.8999999994412,1132843.7999999998,7175,WL,A,13.0
7,50.818000078201294,immed,9181.999921798706,Tue Jul 01 2025 14:31:13 GMT-0500 (Central Daylight Time),1133842.7999999998,A,log,O,g,178,1,999.0,1132843.7999999998,7175,WL,A,13.0
7,51.11800003051758,immed,8881.999969482422,Tue Jul 01 2025 14:31:13 GMT-0500 (Central Daylight Time),1134142.6999999993,A,logenter,O,enter,291,1,1298.8999999994412,1132843.7999999998,7175,WL,A,13.0
7,51.550999879837036,immed,8449.000120162964,Tue Jul 01 2025 14:31:13 GMT-0500 (Central Daylight Time),1134576.2999999998,A,k,O,k,415,1,433.29999999981374,1134143.0,7175,WL,A,14.0
7,51.78399991989136,immed,8216.000080108643,Tue Jul 01 2025 14:31:13 GMT-0500 (Central Daylight Time),1134809.2999999998,A,ke,O,e,213,1,666.2999999998137,1134143.0,7175,WL,A,14.0
7,51.98399996757507,immed,8016.000032424927,Tue Jul 01 2025 14:31:13 GMT-0500 (Central Daylight Time),1135009.1999999993,A,key,O,y,180,1,866.1999999992549,1134143.0,7175,WL,A,14.0
7,52.83399987220764,immed,7166.000127792358,Tue Jul 01 2025 14:31:13 GMT-0500 (Central Daylight Time),1135858.8999999994,A,keyenter,O,enter,844,1,1715.8999999994412,1134143.0,7175,WL,A,14.0
7,60.013999938964844,immed,-13.99993896484375,Tue Jul 01 2025 14:31:13 GMT-0500 (Central Daylight Time),1143040.0999999996,A,None,O,None,7176,1,7181.0,1135859.0999999996,7175,WL,A,15.0
