block_c,block_dur,condition,countdown,datetime,endtime,list,multichar_response,project,response,response_time,session_number,start_end,starttime,subject_id,task,task_vers,trial
,,,,Wed Oct 29 2025 10:13:29 GMT-0500 (Central Daylight Time),,,,I,space,435,1,,,8075,WL,B,
prac,,0,,Wed Oct 29 2025 10:13:29 GMT-0500 (Central Daylight Time),,NA,b,I,b,4678,1,,,8075,WL,B,1.0
prac,,0,,Wed Oct 29 2025 10:13:29 GMT-0500 (Central Daylight Time),,NA,bo,I,o,391,1,,,8075,WL,B,1.0
prac,,0,,Wed Oct 29 2025 10:13:29 GMT-0500 (Central Daylight Time),,NA,boo,I,o,191,1,,,8075,WL,B,1.0
prac,,0,,Wed Oct 29 2025 10:13:29 GMT-0500 (Central Daylight Time),,NA,boos,I,s,269,1,,,8075,WL,B,1.0
prac,,0,,Wed Oct 29 2025 10:13:29 GMT-0500 (Central Daylight Time),,NA,boost,I,t,173,1,,,8075,WL,B,1.0
prac,,0,,Wed Oct 29 2025 10:13:29 GMT-0500 (Central Daylight Time),,NA,boostenter,I,enter,4262,1,,,8075,WL,B,1.0
1,0.5,learn,59500.0,Wed Oct 29 2025 10:13:29 GMT-0500 (Central Daylight Time),127531.69999999553,A,s,I,s,485,1,499.59999999403954,127032.10000000149,8075,WL,B,1.0
1,0.6669998168945312,learn,59333.00018310547,Wed Oct 29 2025 10:13:29 GMT-0500 (Central Daylight Time),127698.19999999553,A,st,I,t,159,1,666.0999999940395,127032.10000000149,8075,WL,B,1.0
1,0.8999998569488525,learn,59100.00014305115,Wed Oct 29 2025 10:13:29 GMT-0500 (Central Daylight Time),127931.69999999553,A,str,I,r,218,1,899.5999999940395,127032.10000000149,8075,WL,B,1.0
1,1.0,learn,59000.0,Wed Oct 29 2025 10:13:29 GMT-0500 (Central Daylight Time),128031.60000000149,A,stre,I,e,88,1,999.5,127032.10000000149,8075,WL,B,1.0
1,1.5,learn,58500.0,Wed Oct 29 2025 10:13:29 GMT-0500 (Central Daylight Time),128531.60000000149,A,stree,I,e,493,1,1499.5,127032.10000000149,8075,WL,B,1.0
1,1.8829998970031738,learn,58117.000102996826,Wed Oct 29 2025 10:13:29 GMT-0500 (Central Daylight Time),128914.60000000149,A,street,I,t,369,1,1882.5,127032.10000000149,8075,WL,B,1.0
1,2.4659998416900635,learn,57534.00015830994,Wed Oct 29 2025 10:13:29 GMT-0500 (Central Daylight Time),129497.79999999702,A,streetenter,I,enter,578,1,2465.6999999955297,127032.10000000149,8075,WL,B,1.0
1,2.8999998569488525,learn,57100.00014305115,Wed Oct 29 2025 10:13:29 GMT-0500 (Central Daylight Time),129931.79999999702,A,g,I,g,427,1,433.6000000014901,129498.19999999553,8075,WL,B,2.0
1,3.115999937057495,learn,56884.000062942505,Wed Oct 29 2025 10:13:29 GMT-0500 (Central Daylight Time),130147.29999999702,A,gr,I,r,209,1,649.1000000014901,129498.19999999553,8075,WL,B,2.0
1,3.2660000324249268,learn,56733.99996757507,Wed Oct 29 2025 10:13:29 GMT-0500 (Central Daylight Time),130297.5,A,gre,I,e,137,1,799.3000000044703,129498.19999999553,8075,WL,B,2.0
1,3.3989999294281006,learn,56601.0000705719,Wed Oct 29 2025 10:13:29 GMT-0500 (Central Daylight Time),130430.79999999702,A,grea,I,a,115,1,932.6000000014901,129498.19999999553,8075,WL,B,2.0
1,3.5490000247955322,learn,56450.99997520447,Wed Oct 29 2025 10:13:29 GMT-0500 (Central Daylight Time),130580.79999999702,A,greas,I,s,142,1,1082.6000000014901,129498.19999999553,8075,WL,B,2.0
1,3.998999834060669,learn,56001.00016593933,Wed Oct 29 2025 10:13:29 GMT-0500 (Central Daylight Time),131030.60000000149,A,grea,I,backspace,439,1,1532.4000000059605,129498.19999999553,8075,WL,B,2.0
1,4.198999881744385,learn,55801.000118255615,Wed Oct 29 2025 10:13:29 GMT-0500 (Central Daylight Time),131230.5,A,gre,I,backspace,190,1,1732.3000000044703,129498.19999999553,8075,WL,B,2.0
1,4.348999977111816,learn,55651.00002288818,Wed Oct 29 2025 10:13:29 GMT-0500 (Central Daylight Time),131380.69999999553,A,gr,I,backspace,133,1,1882.5,129498.19999999553,8075,WL,B,2.0
1,4.582000017166138,learn,55417.99998283386,Wed Oct 29 2025 10:13:29 GMT-0500 (Central Daylight Time),131613.8999999985,A,gra,I,a,224,1,2115.7000000029802,129498.19999999553,8075,WL,B,2.0
1,4.698999881744385,learn,55301.000118255615,Wed Oct 29 2025 10:13:29 GMT-0500 (Central Daylight Time),131730.5,A,gras,I,s,103,1,2232.3000000044703,129498.19999999553,8075,WL,B,2.0
1,4.883999824523926,learn,55116.000175476074,Wed Oct 29 2025 10:13:29 GMT-0500 (Central Daylight Time),131915.1000000015,A,grass,I,s,170,1,2416.9000000059605,129498.19999999553,8075,WL,B,2.0
1,5.082000017166138,learn,54917.99998283386,Wed Oct 29 2025 10:13:29 GMT-0500 (Central Daylight Time),132113.69999999553,A,grassenter,I,enter,186,1,2615.5,129498.19999999553,8075,WL,B,2.0
1,5.348999977111816,learn,54651.00002288818,Wed Oct 29 2025 10:13:29 GMT-0500 (Central Daylight Time),132380.29999999702,A,d,I,d,251,1,266.1000000014901,132114.19999999553,8075,WL,B,3.0
1,5.4649999141693115,learn,54535.00008583069,Wed Oct 29 2025 10:13:29 GMT-0500 (Central Daylight Time),132496.69999999553,A,do,I,o,104,1,382.5,132114.19999999553,8075,WL,B,3.0
1,5.648000001907349,learn,54351.99999809265,Wed Oct 29 2025 10:13:29 GMT-0500 (Central Daylight Time),132679.8999999985,A,doo,I,o,165,1,565.7000000029802,132114.19999999553,8075,WL,B,3.0
1,5.797999858856201,learn,54202.0001411438,Wed Oct 29 2025 10:13:29 GMT-0500 (Central Daylight Time),132829.8999999985,A,door,I,r,141,1,715.7000000029802,132114.19999999553,8075,WL,B,3.0
1,6.164999961853027,learn,53835.00003814697,Wed Oct 29 2025 10:13:29 GMT-0500 (Central Daylight Time),133196.5,A,doorenter,I,enter,351,1,1082.3000000044703,132114.19999999553,8075,WL,B,3.0
1,6.431999921798706,learn,53568.000078201294,Wed Oct 29 2025 10:13:29 GMT-0500 (Central Daylight Time),133463.1000000015,A,a,I,a,256,1,266.20000000298023,133196.8999999985,8075,WL,B,4.0
1,6.582000017166138,learn,53417.99998283386,Wed Oct 29 2025 10:13:29 GMT-0500 (Central Daylight Time),133613.5,A,ar,I,r,134,1,416.6000000014901,133196.8999999985,8075,WL,B,4.0
1,6.730999946594238,learn,53269.00005340576,Wed Oct 29 2025 10:13:29 GMT-0500 (Central Daylight Time),133762.8999999985,A,arm,I,m,143,1,566.0,133196.8999999985,8075,WL,B,4.0
1,7.047999858856201,learn,52952.0001411438,Wed Oct 29 2025 10:13:29 GMT-0500 (Central Daylight Time),134079.69999999553,A,armenter,I,enter,298,1,882.7999999970198,133196.8999999985,8075,WL,B,4.0
1,7.2809998989105225,learn,52719.00010108948,Wed Oct 29 2025 10:13:29 GMT-0500 (Central Daylight Time),134312.8999999985,A,w,I,w,212,1,232.79999999701977,134080.1000000015,8075,WL,B,5.0
1,7.365000009536743,learn,52634.99999046326,Wed Oct 29 2025 10:13:29 GMT-0500 (Central Daylight Time),134396.19999999553,A,wi,I,i,76,1,316.09999999403954,134080.1000000015,8075,WL,B,5.0
1,7.514999866485596,learn,52485.000133514404,Wed Oct 29 2025 10:13:29 GMT-0500 (Central Daylight Time),134546.19999999553,A,win,I,n,129,1,466.09999999403954,134080.1000000015,8075,WL,B,5.0
1,7.664000034332275,learn,52335.999965667725,Wed Oct 29 2025 10:13:29 GMT-0500 (Central Daylight Time),134696.0,A,wind,I,d,139,1,615.8999999985099,134080.1000000015,8075,WL,B,5.0
1,8.063999891281128,learn,51936.00010871887,Wed Oct 29 2025 10:13:29 GMT-0500 (Central Daylight Time),135096.0,A,windo,I,o,381,1,1015.8999999985099,134080.1000000015,8075,WL,B,5.0
1,8.230999946594238,learn,51769.00005340576,Wed Oct 29 2025 10:13:29 GMT-0500 (Central Daylight Time),135262.69999999553,A,window,I,w,149,1,1182.5999999940395,134080.1000000015,8075,WL,B,5.0
1,8.38099980354309,learn,51619.00019645691,Wed Oct 29 2025 10:13:29 GMT-0500 (Central Daylight Time),135412.6000000015,A,windowenter,I,enter,133,1,1332.5,134080.1000000015,8075,WL,B,5.0
1,8.63099980354309,learn,51369.00019645691,Wed Oct 29 2025 10:13:29 GMT-0500 (Central Daylight Time),135662.79999999702,A,f,I,f,240,1,249.69999999552965,135413.1000000015,8075,WL,B,6.0
1,8.780999898910522,learn,51219.00010108948,Wed Oct 29 2025 10:13:29 GMT-0500 (Central Daylight Time),135812.3999999985,A,fi,I,i,134,1,399.29999999701977,135413.1000000015,8075,WL,B,6.0
1,8.96399998664856,learn,51036.00001335144,Wed Oct 29 2025 10:13:29 GMT-0500 (Central Daylight Time),135995.69999999553,A,fir,I,r,177,1,582.5999999940395,135413.1000000015,8075,WL,B,6.0
1,9.263999938964844,learn,50736.000061035156,Wed Oct 29 2025 10:13:29 GMT-0500 (Central Daylight Time),136295.79999999702,A,fire,I,e,289,1,882.6999999955297,135413.1000000015,8075,WL,B,6.0
1,9.430999994277954,learn,50569.000005722046,Wed Oct 29 2025 10:13:29 GMT-0500 (Central Daylight Time),136462.3999999985,A,fireenter,I,enter,158,1,1049.2999999970198,135413.1000000015,8075,WL,B,6.0
1,10.646999835968018,learn,49353.00016403198,Wed Oct 29 2025 10:13:29 GMT-0500 (Central Daylight Time),137678.5,A,p,I,p,1208,1,1215.7000000029802,136462.79999999702,8075,WL,B,7.0
1,10.912999868392944,learn,49087.000131607056,Wed Oct 29 2025 10:13:29 GMT-0500 (Central Daylight Time),137944.8999999985,A,pi,I,i,255,1,1482.1000000014901,136462.79999999702,8075,WL,B,7.0
1,11.263000011444092,learn,48736.99998855591,Wed Oct 29 2025 10:13:29 GMT-0500 (Central Daylight Time),138295.0,A,pip,I,p,332,1,1832.2000000029802,136462.79999999702,8075,WL,B,7.0
1,11.513000011444092,learn,48486.99998855591,Wed Oct 29 2025 10:13:29 GMT-0500 (Central Daylight Time),138545.0,A,pipe,I,e,230,1,2082.2000000029802,136462.79999999702,8075,WL,B,7.0
1,11.747999906539917,learn,48252.00009346008,Wed Oct 29 2025 10:13:29 GMT-0500 (Central Daylight Time),138779.3999999985,A,pipeenter,I,enter,220,1,2316.60000000149,136462.79999999702,8075,WL,B,7.0
1,25.741999864578247,learn,34258.00013542175,Wed Oct 29 2025 10:13:29 GMT-0500 (Central Daylight Time),152773.8999999985,A,p,I,p,13987,1,13994.10000000149,138779.79999999702,8075,WL,B,8.0
1,26.008999824523926,learn,33991.000175476074,Wed Oct 29 2025 10:13:29 GMT-0500 (Central Daylight Time),153040.19999999553,A,pi,I,i,255,1,14260.39999999851,138779.79999999702,8075,WL,B,8.0
1,26.625,learn,33375.0,Wed Oct 29 2025 10:13:29 GMT-0500 (Central Daylight Time),153656.5,A,pip,I,p,596,1,14876.70000000298,138779.79999999702,8075,WL,B,8.0
1,29.87399983406067,learn,30126.00016593933,Wed Oct 29 2025 10:13:29 GMT-0500 (Central Daylight Time),156905.8999999985,A,pi,I,backspace,3229,1,18126.10000000149,138779.79999999702,8075,WL,B,8.0
1,30.12399983406067,learn,29876.00016593933,Wed Oct 29 2025 10:13:29 GMT-0500 (Central Daylight Time),157155.79999999702,A,p,I,backspace,235,1,18376.0,138779.79999999702,8075,WL,B,8.0
1,30.473999977111816,learn,29526.000022888184,Wed Oct 29 2025 10:13:29 GMT-0500 (Central Daylight Time),157505.5,A,,I,backspace,330,1,18725.70000000298,138779.79999999702,8075,WL,B,8.0
1,33.49199986457825,learn,26508.000135421753,Wed Oct 29 2025 10:13:29 GMT-0500 (Central Daylight Time),160523.29999999702,A,f,I,f,3004,1,21743.5,138779.79999999702,8075,WL,B,8.0
1,33.67199993133545,learn,26328.00006866455,Wed Oct 29 2025 10:13:29 GMT-0500 (Central Daylight Time),160703.79999999702,A,fi,I,i,175,1,21924.0,138779.79999999702,8075,WL,B,8.0
1,33.8199999332428,learn,26180.000066757202,Wed Oct 29 2025 10:13:29 GMT-0500 (Central Daylight Time),160851.3999999985,A,fir,I,r,143,1,22071.60000000149,138779.79999999702,8075,WL,B,8.0
1,33.90599989891052,learn,26094.000101089478,Wed Oct 29 2025 10:13:29 GMT-0500 (Central Daylight Time),160937.79999999702,A,fire,I,e,74,1,22158.0,138779.79999999702,8075,WL,B,8.0
1,34.055999994277954,learn,25944.000005722046,Wed Oct 29 2025 10:13:29 GMT-0500 (Central Daylight Time),161087.8999999985,A,fireenter,I,enter,140,1,22308.10000000149,138779.79999999702,8075,WL,B,8.0
1,50.383999824523926,learn,9616.000175476074,Wed Oct 29 2025 10:13:29 GMT-0500 (Central Daylight Time),177416.1000000015,A,enter,I,enter,16309,1,16327.80000000447,161088.29999999702,8075,WL,B,9.0
1,50.799999952316284,learn,9200.000047683716,Wed Oct 29 2025 10:13:29 GMT-0500 (Central Daylight Time),177832.5,A,enter,I,enter,397,1,415.8999999985099,177416.6000000015,8075,WL,B,10.0
1,51.467000007629395,learn,8532.999992370605,Wed Oct 29 2025 10:13:29 GMT-0500 (Central Daylight Time),178498.79999999702,A,enter,I,enter,661,1,665.8999999985099,177832.8999999985,8075,WL,B,11.0
1,51.882999897003174,learn,8117.000102996826,Wed Oct 29 2025 10:13:29 GMT-0500 (Central Daylight Time),178915.29999999702,A,enter,I,enter,411,1,416.1000000014901,178499.19999999553,8075,WL,B,12.0
1,52.382999897003174,learn,7617.000102996826,Wed Oct 29 2025 10:13:29 GMT-0500 (Central Daylight Time),179415.5,A,enter,I,enter,489,1,499.80000000447035,178915.69999999553,8075,WL,B,13.0
1,52.84999990463257,learn,7150.000095367432,Wed Oct 29 2025 10:13:29 GMT-0500 (Central Daylight Time),179882.19999999553,A,enter,I,enter,454,1,466.3999999985099,179415.79999999702,8075,WL,B,14.0
1,53.48300004005432,learn,6516.999959945679,Wed Oct 29 2025 10:13:29 GMT-0500 (Central Daylight Time),180514.79999999702,A,enter,I,enter,627,1,632.1999999955297,179882.6000000015,8075,WL,B,15.0
2,0.5170001983642578,learn,59482.99980163574,Wed Oct 29 2025 10:13:29 GMT-0500 (Central Daylight Time),248943.8999999985,A,s,I,s,499,1,516.3999999985099,248427.5,8075,WL,B,1.0
2,0.7000000476837158,learn,59299.999952316284,Wed Oct 29 2025 10:13:29 GMT-0500 (Central Daylight Time),249127.0,A,st,I,t,165,1,699.5,248427.5,8075,WL,B,1.0
2,0.9670000076293945,learn,59032.999992370605,Wed Oct 29 2025 10:13:29 GMT-0500 (Central Daylight Time),249393.6000000015,A,str,I,r,246,1,966.1000000014901,248427.5,8075,WL,B,1.0
2,1.1000001430511475,learn,58899.99985694885,Wed Oct 29 2025 10:13:29 GMT-0500 (Central Daylight Time),249526.69999999553,A,stre,I,e,124,1,1099.1999999955297,248427.5,8075,WL,B,1.0
2,1.317000150680542,learn,58682.99984931946,Wed Oct 29 2025 10:13:29 GMT-0500 (Central Daylight Time),249743.3999999985,A,stree,I,e,207,1,1315.8999999985099,248427.5,8075,WL,B,1.0
2,1.7829999923706055,learn,58217.000007629395,Wed Oct 29 2025 10:13:29 GMT-0500 (Central Daylight Time),250209.79999999702,A,street,I,t,446,1,1782.2999999970198,248427.5,8075,WL,B,1.0
2,2.1500000953674316,learn,57849.99990463257,Wed Oct 29 2025 10:13:29 GMT-0500 (Central Daylight Time),250576.8999999985,A,streetenter,I,enter,356,1,2149.39999999851,248427.5,8075,WL,B,1.0
2,2.4160001277923584,learn,57583.99987220764,Wed Oct 29 2025 10:13:29 GMT-0500 (Central Daylight Time),250842.79999999702,A,g,I,g,261,1,265.6000000014901,250577.19999999553,8075,WL,B,2.0
2,2.6490001678466797,learn,57350.99983215332,Wed Oct 29 2025 10:13:29 GMT-0500 (Central Daylight Time),251076.1000000015,A,gr,I,r,218,1,498.90000000596046,250577.19999999553,8075,WL,B,2.0
2,2.7829999923706055,learn,57217.000007629395,Wed Oct 29 2025 10:13:29 GMT-0500 (Central Daylight Time),251209.79999999702,A,gre,I,e,122,1,632.6000000014901,250577.19999999553,8075,WL,B,2.0
2,2.9830000400543213,learn,57016.99995994568,Wed Oct 29 2025 10:13:29 GMT-0500 (Central Daylight Time),251409.3999999985,A,grea,I,a,188,1,832.2000000029802,250577.19999999553,8075,WL,B,2.0
2,3.0830001831054688,learn,56916.99981689453,Wed Oct 29 2025 10:13:29 GMT-0500 (Central Daylight Time),251509.6000000015,A,greas,I,s,92,1,932.4000000059605,250577.19999999553,8075,WL,B,2.0
2,3.2660000324249268,learn,56733.99996757507,Wed Oct 29 2025 10:13:29 GMT-0500 (Central Daylight Time),251692.79999999702,A,greass,I,s,176,1,1115.6000000014901,250577.19999999553,8075,WL,B,2.0
2,3.433000087738037,learn,56566.99991226196,Wed Oct 29 2025 10:13:29 GMT-0500 (Central Daylight Time),251859.5,A,greassenter,I,enter,152,1,1282.3000000044703,250577.19999999553,8075,WL,B,2.0
2,4.932000160217285,learn,55067.999839782715,Wed Oct 29 2025 10:13:29 GMT-0500 (Central Daylight Time),253359.0,A,a,I,a,1490,1,1499.1000000014901,251859.8999999985,8075,WL,B,3.0
2,5.083000183105469,learn,54916.99981689453,Wed Oct 29 2025 10:13:29 GMT-0500 (Central Daylight Time),253509.5,A,ar,I,r,142,1,1649.6000000014901,251859.8999999985,8075,WL,B,3.0
2,5.249000072479248,learn,54750.99992752075,Wed Oct 29 2025 10:13:29 GMT-0500 (Central Daylight Time),253675.3999999985,A,arm,I,m,152,1,1815.5,251859.8999999985,8075,WL,B,3.0
2,5.482000112533569,learn,54517.99988746643,Wed Oct 29 2025 10:13:29 GMT-0500 (Central Daylight Time),253908.8999999985,A,armenter,I,enter,226,1,2049.0,251859.8999999985,8075,WL,B,3.0
2,5.7820000648498535,learn,54217.99993515015,Wed Oct 29 2025 10:13:29 GMT-0500 (Central Daylight Time),254208.69999999553,A,w,I,w,288,1,299.59999999403954,253909.1000000015,8075,WL,B,4.0
2,5.882000207901001,learn,54117.999792099,Wed Oct 29 2025 10:13:29 GMT-0500 (Central Daylight Time),254308.6000000015,A,wi,I,i,92,1,399.5,253909.1000000015,8075,WL,B,4.0
2,6.015000104904175,learn,53984.999895095825,Wed Oct 29 2025 10:13:29 GMT-0500 (Central Daylight Time),254442.0,A,win,I,n,121,1,532.8999999985099,253909.1000000015,8075,WL,B,4.0
2,6.14900016784668,learn,53850.99983215332,Wed Oct 29 2025 10:13:29 GMT-0500 (Central Daylight Time),254575.3999999985,A,wind,I,d,115,1,666.2999999970198,253909.1000000015,8075,WL,B,4.0
2,6.2820000648498535,learn,53717.99993515015,Wed Oct 29 2025 10:13:29 GMT-0500 (Central Daylight Time),254708.5,A,windo,I,o,126,1,799.3999999985099,253909.1000000015,8075,WL,B,4.0
2,6.489000082015991,learn,53510.99991798401,Wed Oct 29 2025 10:13:29 GMT-0500 (Central Daylight Time),254916.0,A,window,I,w,203,1,1006.8999999985099,253909.1000000015,8075,WL,B,4.0
2,6.79800009727478,learn,53201.99990272522,Wed Oct 29 2025 10:13:29 GMT-0500 (Central Daylight Time),255225.1000000015,A,windowenter,I,enter,289,1,1316.0,253909.1000000015,8075,WL,B,4.0
2,7.049000024795532,learn,52950.99997520447,Wed Oct 29 2025 10:13:29 GMT-0500 (Central Daylight Time),255475.69999999553,A,w,I,w,244,1,250.29999999701977,255225.3999999985,8075,WL,B,5.0
2,7.198000192642212,learn,52801.99980735779,Wed Oct 29 2025 10:13:29 GMT-0500 (Central Daylight Time),255624.8999999985,A,wi,I,i,138,1,399.5,255225.3999999985,8075,WL,B,5.0
2,7.3480000495910645,learn,52651.999950408936,Wed Oct 29 2025 10:13:29 GMT-0500 (Central Daylight Time),255774.69999999553,A,wif,I,f,140,1,549.2999999970198,255225.3999999985,8075,WL,B,5.0
2,7.498000144958496,learn,52501.999855041504,Wed Oct 29 2025 10:13:29 GMT-0500 (Central Daylight Time),255924.79999999702,A,wife,I,e,143,1,699.3999999985099,255225.3999999985,8075,WL,B,5.0
2,7.715000152587891,learn,52284.99984741211,Wed Oct 29 2025 10:13:29 GMT-0500 (Central Daylight Time),256141.3999999985,A,wifeenter,I,enter,209,1,916.0,255225.3999999985,8075,WL,B,5.0
2,7.965000152587891,learn,52034.99984741211,Wed Oct 29 2025 10:13:29 GMT-0500 (Central Daylight Time),256391.5,A,s,I,s,232,1,249.80000000447035,256141.69999999553,8075,WL,B,6.0
2,8.115000009536743,learn,51884.99999046326,Wed Oct 29 2025 10:13:29 GMT-0500 (Central Daylight Time),256541.29999999702,A,st,I,t,142,1,399.6000000014901,256141.69999999553,8075,WL,B,6.0
2,8.29800009727478,learn,51701.99990272522,Wed Oct 29 2025 10:13:29 GMT-0500 (Central Daylight Time),256724.69999999553,A,sta,I,a,176,1,583.0,256141.69999999553,8075,WL,B,6.0
2,8.430999994277954,learn,51569.000005722046,Wed Oct 29 2025 10:13:29 GMT-0500 (Central Daylight Time),256858.1000000015,A,star,I,r,113,1,716.4000000059605,256141.69999999553,8075,WL,B,6.0
2,8.764000177383423,learn,51235.99982261658,Wed Oct 29 2025 10:13:29 GMT-0500 (Central Daylight Time),257190.69999999553,A,starenter,I,enter,324,1,1049.0,256141.69999999553,8075,WL,B,6.0
2,9.614000082015991,learn,50385.99991798401,Wed Oct 29 2025 10:13:29 GMT-0500 (Central Daylight Time),258040.8999999985,A,a,I,a,831,1,849.8999999985099,257191.0,8075,WL,B,7.0
2,9.747000217437744,learn,50252.999782562256,Wed Oct 29 2025 10:13:29 GMT-0500 (Central Daylight Time),258174.19999999553,A,ar,I,r,123,1,983.1999999955297,257191.0,8075,WL,B,7.0
2,9.914000034332275,learn,50085.999965667725,Wed Oct 29 2025 10:13:29 GMT-0500 (Central Daylight Time),258340.5,A,arm,I,m,159,1,1149.5,257191.0,8075,WL,B,7.0
2,10.147000074386597,learn,49852.9999256134,Wed Oct 29 2025 10:13:29 GMT-0500 (Central Daylight Time),258573.8999999985,A,armenter,I,enter,225,1,1382.8999999985099,257191.0,8075,WL,B,7.0
2,12.063000202178955,learn,47936.999797821045,Wed Oct 29 2025 10:13:29 GMT-0500 (Central Daylight Time),260489.79999999702,A,f,I,f,1912,1,1915.6000000014901,258574.19999999553,8075,WL,B,8.0
2,12.213000059127808,learn,47786.99994087219,Wed Oct 29 2025 10:13:29 GMT-0500 (Central Daylight Time),260639.69999999553,A,fi,I,i,140,1,2065.5,258574.19999999553,8075,WL,B,8.0
2,12.34600019454956,learn,47653.99980545044,Wed Oct 29 2025 10:13:29 GMT-0500 (Central Daylight Time),260773.19999999553,A,fir,I,r,117,1,2199.0,258574.19999999553,8075,WL,B,8.0
2,12.480000019073486,learn,47519.999980926514,Wed Oct 29 2025 10:13:29 GMT-0500 (Central Daylight Time),260906.29999999702,A,fire,I,e,120,1,2332.10000000149,258574.19999999553,8075,WL,B,8.0
2,12.680000066757202,learn,47319.9999332428,Wed Oct 29 2025 10:13:29 GMT-0500 (Central Daylight Time),261106.6000000015,A,fireenter,I,enter,187,1,2532.4000000059605,258574.19999999553,8075,WL,B,8.0
2,14.479000091552734,learn,45520.999908447266,Wed Oct 29 2025 10:13:29 GMT-0500 (Central Daylight Time),262905.799999997,A,p,I,p,1778,1,1798.7999999970198,261107.0,8075,WL,B,9.0
2,14.578999996185303,learn,45421.0000038147,Wed Oct 29 2025 10:13:29 GMT-0500 (Central Daylight Time),263006.0,A,pu,I,u,91,1,1899.0,261107.0,8075,WL,B,9.0
2,15.062000036239624,learn,44937.999963760376,Wed Oct 29 2025 10:13:29 GMT-0500 (Central Daylight Time),263489.0,A,pup,I,p,472,1,2382.0,261107.0,8075,WL,B,9.0
2,15.212000131607056,learn,44787.999868392944,Wed Oct 29 2025 10:13:29 GMT-0500 (Central Daylight Time),263639.0,A,pupi,I,i,139,1,2532.0,261107.0,8075,WL,B,9.0
2,15.412000179290771,learn,44587.99982070923,Wed Oct 29 2025 10:13:29 GMT-0500 (Central Daylight Time),263838.69999999553,A,pupil,I,l,182,1,2731.6999999955297,261107.0,8075,WL,B,9.0
2,15.611999988555908,learn,44388.00001144409,Wed Oct 29 2025 10:13:29 GMT-0500 (Central Daylight Time),264038.8999999985,A,pupilenter,I,enter,191,1,2931.89999999851,261107.0,8075,WL,B,9.0
2,29.225000143051147,learn,30774.999856948853,Wed Oct 29 2025 10:13:29 GMT-0500 (Central Daylight Time),277651.299999997,A,s,I,s,13607,1,13612.10000000149,264039.19999999553,8075,WL,B,10.0
2,29.324000120162964,learn,30675.999879837036,Wed Oct 29 2025 10:13:29 GMT-0500 (Central Daylight Time),277751.1000000015,A,sk,I,k,82,1,13711.90000000596,264039.19999999553,8075,WL,B,10.0
2,29.508000135421753,learn,30491.999864578247,Wed Oct 29 2025 10:13:29 GMT-0500 (Central Daylight Time),277934.69999999553,A,ski,I,i,174,1,13895.5,264039.19999999553,8075,WL,B,10.0
2,29.641000032424927,learn,30358.999967575073,Wed Oct 29 2025 10:13:29 GMT-0500 (Central Daylight Time),278067.799999997,A,skin,I,n,119,1,14028.60000000149,264039.19999999553,8075,WL,B,10.0
2,29.824000120162964,learn,30175.999879837036,Wed Oct 29 2025 10:13:29 GMT-0500 (Central Daylight Time),278250.69999999553,A,skinenter,I,enter,177,1,14211.5,264039.19999999553,8075,WL,B,10.0
2,35.622000217437744,learn,24377.999782562256,Wed Oct 29 2025 10:13:29 GMT-0500 (Central Daylight Time),284049.19999999553,A,d,I,d,5787,1,5798.19999999553,278251.0,8075,WL,B,11.0
2,36.17200016975403,learn,23827.99983024597,Wed Oct 29 2025 10:13:29 GMT-0500 (Central Daylight Time),284598.8999999985,A,do,I,o,540,1,6347.89999999851,278251.0,8075,WL,B,11.0
2,36.38900017738342,learn,23610.999822616577,Wed Oct 29 2025 10:13:29 GMT-0500 (Central Daylight Time),284815.799999997,A,doo,I,o,199,1,6564.79999999702,278251.0,8075,WL,B,11.0
2,36.63900017738342,learn,23360.999822616577,Wed Oct 29 2025 10:13:29 GMT-0500 (Central Daylight Time),285065.299999997,A,door,I,r,238,1,6814.29999999702,278251.0,8075,WL,B,11.0
2,36.789000034332275,learn,23210.999965667725,Wed Oct 29 2025 10:13:29 GMT-0500 (Central Daylight Time),285215.799999997,A,doorenter,I,enter,140,1,6964.79999999702,278251.0,8075,WL,B,11.0
2,48.05200004577637,learn,11947.999954223633,Wed Oct 29 2025 10:13:29 GMT-0500 (Central Daylight Time),296478.8999999985,A,l,I,l,11246,1,11262.70000000298,285216.19999999553,8075,WL,B,12.0
2,48.18500018119812,learn,11814.99981880188,Wed Oct 29 2025 10:13:29 GMT-0500 (Central Daylight Time),296612.0,A,la,I,a,126,1,11395.80000000447,285216.19999999553,8075,WL,B,12.0
2,48.33500003814697,learn,11664.999961853027,Wed Oct 29 2025 10:13:29 GMT-0500 (Central Daylight Time),296761.8999999985,A,lak,I,k,129,1,11545.70000000298,285216.19999999553,8075,WL,B,12.0
2,48.4520001411438,learn,11547.999858856201,Wed Oct 29 2025 10:13:29 GMT-0500 (Central Daylight Time),296878.6000000015,A,lake,I,e,99,1,11662.40000000596,285216.19999999553,8075,WL,B,12.0
2,48.568000078201294,learn,11431.999921798706,Wed Oct 29 2025 10:13:29 GMT-0500 (Central Daylight Time),296995.1000000015,A,lakeenter,I,enter,95,1,11778.90000000596,285216.19999999553,8075,WL,B,12.0
2,58.21500015258789,learn,1784.9998474121094,Wed Oct 29 2025 10:13:29 GMT-0500 (Central Daylight Time),306641.8999999985,A,enter,I,enter,9643,1,9646.39999999851,296995.5,8075,WL,B,13.0
2,58.58200001716614,learn,1417.9999828338623,Wed Oct 29 2025 10:13:29 GMT-0500 (Central Daylight Time),307008.799999997,A,enter,I,enter,347,1,366.6000000014901,306642.19999999553,8075,WL,B,14.0
2,59.0310001373291,learn,968.9998626708984,Wed Oct 29 2025 10:13:29 GMT-0500 (Central Daylight Time),307458.6000000015,A,enter,I,enter,436,1,449.40000000596046,307009.19999999553,8075,WL,B,15.0
3,0.7660000324249268,learn,59233.99996757507,Wed Oct 29 2025 10:13:29 GMT-0500 (Central Daylight Time),375570.5,A,s,I,s,746,1,766.1000000014901,374804.3999999985,8075,WL,B,1.0
3,0.9660000801086426,learn,59033.99991989136,Wed Oct 29 2025 10:13:29 GMT-0500 (Central Daylight Time),375770.299999997,A,st,I,t,194,1,965.8999999985099,374804.3999999985,8075,WL,B,1.0
3,1.249000072479248,learn,58750.99992752075,Wed Oct 29 2025 10:13:29 GMT-0500 (Central Daylight Time),376053.6000000015,A,str,I,r,274,1,1249.2000000029802,374804.3999999985,8075,WL,B,1.0
3,1.3829998970031738,learn,58617.000102996826,Wed Oct 29 2025 10:13:29 GMT-0500 (Central Daylight Time),376187.19999999553,A,stre,I,e,120,1,1382.7999999970198,374804.3999999985,8075,WL,B,1.0
3,1.565999984741211,learn,58434.00001525879,Wed Oct 29 2025 10:13:29 GMT-0500 (Central Daylight Time),376370.19999999553,A,stree,I,e,178,1,1565.7999999970198,374804.3999999985,8075,WL,B,1.0
3,1.815999984741211,learn,58184.00001525879,Wed Oct 29 2025 10:13:29 GMT-0500 (Central Daylight Time),376620.3999999985,A,street,I,t,235,1,1816.0,374804.3999999985,8075,WL,B,1.0
3,2.249000072479248,learn,57750.99992752075,Wed Oct 29 2025 10:13:29 GMT-0500 (Central Daylight Time),377053.3999999985,A,streetenter,I,enter,417,1,2249.0,374804.3999999985,8075,WL,B,1.0
3,2.515000104904175,learn,57484.999895095825,Wed Oct 29 2025 10:13:29 GMT-0500 (Central Daylight Time),377319.8999999985,A,g,I,g,256,1,266.1000000014901,377053.799999997,8075,WL,B,2.0
3,2.681999921798706,learn,57318.000078201294,Wed Oct 29 2025 10:13:29 GMT-0500 (Central Daylight Time),377486.799999997,A,gr,I,r,158,1,433.0,377053.799999997,8075,WL,B,2.0
3,2.7820000648498535,learn,57217.99993515015,Wed Oct 29 2025 10:13:29 GMT-0500 (Central Daylight Time),377586.5,A,gra,I,a,95,1,532.7000000029802,377053.799999997,8075,WL,B,2.0
3,2.9649999141693115,learn,57035.00008583069,Wed Oct 29 2025 10:13:29 GMT-0500 (Central Daylight Time),377770.1000000015,A,gras,I,s,163,1,716.3000000044703,377053.799999997,8075,WL,B,2.0
3,3.1649999618530273,learn,56835.00003814697,Wed Oct 29 2025 10:13:29 GMT-0500 (Central Daylight Time),377970.0,A,grass,I,s,187,1,916.2000000029802,377053.799999997,8075,WL,B,2.0
3,3.431999921798706,learn,56568.000078201294,Wed Oct 29 2025 10:13:29 GMT-0500 (Central Daylight Time),378236.299999997,A,grassenter,I,enter,252,1,1182.5,377053.799999997,8075,WL,B,2.0
3,3.8480000495910645,learn,56151.999950408936,Wed Oct 29 2025 10:13:29 GMT-0500 (Central Daylight Time),378652.8999999985,A,a,I,a,409,1,416.20000000298023,378236.69999999553,8075,WL,B,3.0
3,3.999000072479248,learn,56000.99992752075,Wed Oct 29 2025 10:13:29 GMT-0500 (Central Daylight Time),378803.8999999985,A,ar,I,r,145,1,567.2000000029802,378236.69999999553,8075,WL,B,3.0
3,4.164999961853027,learn,55835.00003814697,Wed Oct 29 2025 10:13:29 GMT-0500 (Central Daylight Time),378969.5,A,arm,I,m,145,1,732.8000000044703,378236.69999999553,8075,WL,B,3.0
3,4.381999969482422,learn,55618.00003051758,Wed Oct 29 2025 10:13:29 GMT-0500 (Central Daylight Time),379186.19999999553,A,armenter,I,enter,204,1,949.5,378236.69999999553,8075,WL,B,3.0
3,6.5309998989105225,learn,53469.00010108948,Wed Oct 29 2025 10:13:29 GMT-0500 (Central Daylight Time),381335.5,A,w,I,w,2139,1,2148.89999999851,379186.6000000015,8075,WL,B,4.0
3,6.680999994277954,learn,53319.000005722046,Wed Oct 29 2025 10:13:29 GMT-0500 (Central Daylight Time),381485.5,A,wi,I,i,142,1,2298.89999999851,379186.6000000015,8075,WL,B,4.0
3,6.829999923706055,learn,53170.000076293945,Wed Oct 29 2025 10:13:29 GMT-0500 (Central Daylight Time),381635.1000000015,A,wif,I,f,144,1,2448.5,379186.6000000015,8075,WL,B,4.0
3,6.96399998664856,learn,53036.00001335144,Wed Oct 29 2025 10:13:29 GMT-0500 (Central Daylight Time),381768.799999997,A,wife,I,e,123,1,2582.1999999955297,379186.6000000015,8075,WL,B,4.0
3,7.180000066757202,learn,52819.9999332428,Wed Oct 29 2025 10:13:29 GMT-0500 (Central Daylight Time),381985.1000000015,A,wifeenter,I,enter,204,1,2798.5,379186.6000000015,8075,WL,B,4.0
3,8.02999997138977,learn,51970.00002861023,Wed Oct 29 2025 10:13:29 GMT-0500 (Central Daylight Time),382835.0,A,w,I,w,835,1,849.3999999985099,381985.6000000015,8075,WL,B,5.0
3,8.147000074386597,learn,51852.9999256134,Wed Oct 29 2025 10:13:29 GMT-0500 (Central Daylight Time),382951.69999999553,A,wi,I,i,98,1,966.0999999940395,381985.6000000015,8075,WL,B,5.0
3,8.314000129699707,learn,51685.99987030029,Wed Oct 29 2025 10:13:29 GMT-0500 (Central Daylight Time),383118.299999997,A,win,I,n,150,1,1132.6999999955297,381985.6000000015,8075,WL,B,5.0
3,8.513000011444092,learn,51486.99998855591,Wed Oct 29 2025 10:13:29 GMT-0500 (Central Daylight Time),383318.1000000015,A,wind,I,d,191,1,1332.5,381985.6000000015,8075,WL,B,5.0
3,8.630000114440918,learn,51369.99988555908,Wed Oct 29 2025 10:13:29 GMT-0500 (Central Daylight Time),383434.69999999553,A,windo,I,o,112,1,1449.0999999940395,381985.6000000015,8075,WL,B,5.0
3,8.829999923706055,learn,51170.000076293945,Wed Oct 29 2025 10:13:29 GMT-0500 (Central Daylight Time),383634.5,A,window,I,w,195,1,1648.8999999985099,381985.6000000015,8075,WL,B,5.0
3,9.263000011444092,learn,50736.99998855591,Wed Oct 29 2025 10:13:29 GMT-0500 (Central Daylight Time),384068.1000000015,A,windowenter,I,enter,419,1,2082.5,381985.6000000015,8075,WL,B,5.0
3,9.663000106811523,learn,50336.99989318848,Wed Oct 29 2025 10:13:29 GMT-0500 (Central Daylight Time),384467.799999997,A,c,I,c,385,1,399.3999999985099,384068.3999999985,8075,WL,B,6.0
3,9.79699993133545,learn,50203.00006866455,Wed Oct 29 2025 10:13:29 GMT-0500 (Central Daylight Time),384601.19999999553,A,ca,I,a,122,1,532.7999999970198,384068.3999999985,8075,WL,B,6.0
3,9.980000019073486,learn,50019.999980926514,Wed Oct 29 2025 10:13:29 GMT-0500 (Central Daylight Time),384784.6000000015,A,cab,I,b,163,1,716.2000000029802,384068.3999999985,8075,WL,B,6.0
3,10.062999963760376,learn,49937.000036239624,Wed Oct 29 2025 10:13:29 GMT-0500 (Central Daylight Time),384867.8999999985,A,cabi,I,i,77,1,799.5,384068.3999999985,8075,WL,B,6.0
3,10.180000066757202,learn,49819.9999332428,Wed Oct 29 2025 10:13:29 GMT-0500 (Central Daylight Time),384984.299999997,A,cabin,I,n,97,1,915.8999999985099,384068.3999999985,8075,WL,B,6.0
3,10.680000066757202,learn,49319.9999332428,Wed Oct 29 2025 10:13:29 GMT-0500 (Central Daylight Time),385484.19999999553,A,cabinenter,I,enter,485,1,1415.7999999970198,384068.3999999985,8075,WL,B,6.0
3,11.029000043869019,learn,48970.99995613098,Wed Oct 29 2025 10:13:29 GMT-0500 (Central Daylight Time),385833.8999999985,A,l,I,l,345,1,349.3999999985099,385484.5,8075,WL,B,7.0
3,11.163000106811523,learn,48836.99989318848,Wed Oct 29 2025 10:13:29 GMT-0500 (Central Daylight Time),385967.3999999985,A,la,I,a,123,1,482.8999999985099,385484.5,8075,WL,B,7.0
3,11.296000003814697,learn,48703.9999961853,Wed Oct 29 2025 10:13:29 GMT-0500 (Central Daylight Time),386100.69999999553,A,lak,I,k,119,1,616.1999999955297,385484.5,8075,WL,B,7.0
3,11.513000011444092,learn,48486.99998855591,Wed Oct 29 2025 10:13:29 GMT-0500 (Central Daylight Time),386317.299999997,A,lake,I,e,201,1,832.7999999970198,385484.5,8075,WL,B,7.0
3,11.779000043869019,learn,48220.99995613098,Wed Oct 29 2025 10:13:29 GMT-0500 (Central Daylight Time),386583.69999999553,A,lakeenter,I,enter,256,1,1099.1999999955297,385484.5,8075,WL,B,7.0
3,12.462000131607056,learn,47537.999868392944,Wed Oct 29 2025 10:13:29 GMT-0500 (Central Daylight Time),387266.8999999985,A,f,I,f,662,1,682.8999999985099,386584.0,8075,WL,B,8.0
3,12.696000099182129,learn,47303.99990081787,Wed Oct 29 2025 10:13:29 GMT-0500 (Central Daylight Time),387500.5,A,fi,I,i,219,1,916.5,386584.0,8075,WL,B,8.0
3,12.878999948501587,learn,47121.00005149841,Wed Oct 29 2025 10:13:29 GMT-0500 (Central Daylight Time),387683.5,A,fir,I,r,168,1,1099.5,386584.0,8075,WL,B,8.0
3,13.062000036239624,learn,46937.999963760376,Wed Oct 29 2025 10:13:29 GMT-0500 (Central Daylight Time),387866.799999997,A,fire,I,e,163,1,1282.7999999970198,386584.0,8075,WL,B,8.0
3,13.26200008392334,learn,46737.99991607666,Wed Oct 29 2025 10:13:29 GMT-0500 (Central Daylight Time),388066.6000000015,A,fireenter,I,enter,195,1,1482.6000000014901,386584.0,8075,WL,B,8.0
3,18.66000008583069,learn,41339.99991416931,Wed Oct 29 2025 10:13:29 GMT-0500 (Central Daylight Time),393465.19999999553,A,s,I,s,5379,1,5398.5,388066.69999999553,8075,WL,B,9.0
3,18.842999935150146,learn,41157.00006484985,Wed Oct 29 2025 10:13:29 GMT-0500 (Central Daylight Time),393648.0,A,st,I,t,162,1,5581.30000000447,388066.69999999553,8075,WL,B,9.0
3,19.009999990463257,learn,40990.00000953674,Wed Oct 29 2025 10:13:29 GMT-0500 (Central Daylight Time),393814.6000000015,A,sta,I,a,148,1,5747.9000000059605,388066.69999999553,8075,WL,B,9.0
3,19.127000093460083,learn,40872.99990653992,Wed Oct 29 2025 10:13:29 GMT-0500 (Central Daylight Time),393931.6000000015,A,star,I,r,111,1,5864.9000000059605,388066.69999999553,8075,WL,B,9.0
3,19.344000101089478,learn,40655.99989891052,Wed Oct 29 2025 10:13:29 GMT-0500 (Central Daylight Time),394148.19999999553,A,starenter,I,enter,209,1,6081.5,388066.69999999553,8075,WL,B,9.0
3,23.375999927520752,learn,36624.00007247925,Wed Oct 29 2025 10:13:29 GMT-0500 (Central Daylight Time),398180.3999999985,A,w,I,w,4018,1,4031.7999999970198,394148.6000000015,8075,WL,B,10.0
3,23.4760000705719,learn,36523.9999294281,Wed Oct 29 2025 10:13:29 GMT-0500 (Central Daylight Time),398280.19999999553,A,wi,I,i,81,1,4131.5999999940395,394148.6000000015,8075,WL,B,10.0
3,23.592000007629395,learn,36407.999992370605,Wed Oct 29 2025 10:13:29 GMT-0500 (Central Daylight Time),398397.0,A,wif,I,f,101,1,4248.39999999851,394148.6000000015,8075,WL,B,10.0
3,24.009000062942505,learn,35990.999937057495,Wed Oct 29 2025 10:13:29 GMT-0500 (Central Daylight Time),398813.3999999985,A,wife,I,e,409,1,4664.79999999702,394148.6000000015,8075,WL,B,10.0
3,24.20900011062622,learn,35790.99988937378,Wed Oct 29 2025 10:13:29 GMT-0500 (Central Daylight Time),399013.6000000015,A,wifeenter,I,enter,185,1,4865.0,394148.6000000015,8075,WL,B,10.0
3,31.52300000190735,learn,28476.99999809265,Wed Oct 29 2025 10:13:29 GMT-0500 (Central Daylight Time),406327.3999999985,A,c,I,c,7296,1,7313.5,399013.8999999985,8075,WL,B,11.0
3,31.789999961853027,learn,28210.000038146973,Wed Oct 29 2025 10:13:29 GMT-0500 (Central Daylight Time),406594.299999997,A,co,I,o,254,1,7580.39999999851,399013.8999999985,8075,WL,B,11.0
3,32.140000104904175,learn,27859.999895095825,Wed Oct 29 2025 10:13:29 GMT-0500 (Central Daylight Time),406944.19999999553,A,c,I,backspace,331,1,7930.29999999702,399013.8999999985,8075,WL,B,11.0
3,32.35700011253357,learn,27642.99988746643,Wed Oct 29 2025 10:13:29 GMT-0500 (Central Daylight Time),407161.8999999985,A,cl,I,l,213,1,8148.0,399013.8999999985,8075,WL,B,11.0
3,32.555999994277954,learn,27444.000005722046,Wed Oct 29 2025 10:13:29 GMT-0500 (Central Daylight Time),407360.799999997,A,clo,I,o,179,1,8346.89999999851,399013.8999999985,8075,WL,B,11.0
3,32.68900012969971,learn,27310.999870300293,Wed Oct 29 2025 10:13:29 GMT-0500 (Central Daylight Time),407494.1000000015,A,cloc,I,c,117,1,8480.20000000298,399013.8999999985,8075,WL,B,11.0
3,32.75600004196167,learn,27243.99995803833,Wed Oct 29 2025 10:13:29 GMT-0500 (Central Daylight Time),407560.5,A,clock,I,k,55,1,8546.60000000149,399013.8999999985,8075,WL,B,11.0
3,32.956000089645386,learn,27043.999910354614,Wed Oct 29 2025 10:13:29 GMT-0500 (Central Daylight Time),407760.3999999985,A,clockenter,I,enter,181,1,8746.5,399013.8999999985,8075,WL,B,11.0
3,45.984999895095825,learn,14015.000104904175,Wed Oct 29 2025 10:13:29 GMT-0500 (Central Daylight Time),420789.69999999553,A,s,I,s,13013,1,13028.79999999702,407760.8999999985,8075,WL,B,12.0
3,46.21799993515015,learn,13782.000064849854,Wed Oct 29 2025 10:13:29 GMT-0500 (Central Daylight Time),421023.1000000015,A,st,I,t,216,1,13262.20000000298,407760.8999999985,8075,WL,B,12.0
3,46.38499999046326,learn,13615.000009536743,Wed Oct 29 2025 10:13:29 GMT-0500 (Central Daylight Time),421189.8999999985,A,sta,I,a,150,1,13429.0,407760.8999999985,8075,WL,B,12.0
3,46.50099992752075,learn,13499.000072479248,Wed Oct 29 2025 10:13:29 GMT-0500 (Central Daylight Time),421306.299999997,A,star,I,r,112,1,13545.39999999851,407760.8999999985,8075,WL,B,12.0
3,47.551000118255615,learn,12448.999881744385,Wed Oct 29 2025 10:13:29 GMT-0500 (Central Daylight Time),422355.8999999985,A,sta,I,backspace,1035,1,14595.0,407760.8999999985,8075,WL,B,12.0
3,47.76699995994568,learn,12233.000040054321,Wed Oct 29 2025 10:13:29 GMT-0500 (Central Daylight Time),422572.6000000015,A,st,I,backspace,209,1,14811.70000000298,407760.8999999985,8075,WL,B,12.0
3,47.96799993515015,learn,12032.000064849854,Wed Oct 29 2025 10:13:29 GMT-0500 (Central Daylight Time),422772.69999999553,A,s,I,backspace,185,1,15011.79999999702,407760.8999999985,8075,WL,B,12.0
3,48.41700005531311,learn,11582.99994468689,Wed Oct 29 2025 10:13:29 GMT-0500 (Central Daylight Time),423222.299999997,A,,I,backspace,433,1,15461.39999999851,407760.8999999985,8075,WL,B,12.0
3,50.532999992370605,learn,9467.000007629395,Wed Oct 29 2025 10:13:29 GMT-0500 (Central Daylight Time),425338.5,A,s,I,s,2103,1,17577.60000000149,407760.8999999985,8075,WL,B,12.0
3,50.700000047683716,learn,9299.999952316284,Wed Oct 29 2025 10:13:29 GMT-0500 (Central Daylight Time),425504.8999999985,A,st,I,t,155,1,17744.0,407760.8999999985,8075,WL,B,12.0
3,50.84999990463257,learn,9150.000095367432,Wed Oct 29 2025 10:13:29 GMT-0500 (Central Daylight Time),425654.8999999985,A,sta,I,a,141,1,17894.0,407760.8999999985,8075,WL,B,12.0
3,51.032999992370605,learn,8967.000007629395,Wed Oct 29 2025 10:13:29 GMT-0500 (Central Daylight Time),425838.1000000015,A,star,I,r,167,1,18077.20000000298,407760.8999999985,8075,WL,B,12.0
3,51.25,learn,8750.0,Wed Oct 29 2025 10:13:29 GMT-0500 (Central Daylight Time),426054.69999999553,A,starenter,I,enter,199,1,18293.79999999702,407760.8999999985,8075,WL,B,12.0
3,60.013999938964844,learn,-13.99993896484375,Wed Oct 29 2025 10:13:29 GMT-0500 (Central Daylight Time),434818.69999999553,A,None,I,None,8760,1,8763.69999999553,426055.0,8075,WL,B,13.0
4,0.8830001354217529,learn,59116.99986457825,Wed Oct 29 2025 10:13:29 GMT-0500 (Central Daylight Time),504613.6000000015,A,s,I,s,875,1,883.2000000029802,503730.3999999985,8075,WL,B,1.0
4,1.0829999446868896,learn,58917.00005531311,Wed Oct 29 2025 10:13:29 GMT-0500 (Central Daylight Time),504813.3999999985,A,st,I,t,192,1,1083.0,503730.3999999985,8075,WL,B,1.0
4,1.3489999771118164,learn,58651.00002288818,Wed Oct 29 2025 10:13:29 GMT-0500 (Central Daylight Time),505079.8999999985,A,str,I,r,256,1,1349.5,503730.3999999985,8075,WL,B,1.0
4,1.4830000400543213,learn,58516.99995994568,Wed Oct 29 2025 10:13:29 GMT-0500 (Central Daylight Time),505213.299999997,A,stre,I,e,119,1,1482.8999999985099,503730.3999999985,8075,WL,B,1.0
4,1.6660001277923584,learn,58333.99987220764,Wed Oct 29 2025 10:13:29 GMT-0500 (Central Daylight Time),505396.3999999985,A,stree,I,e,168,1,1666.0,503730.3999999985,8075,WL,B,1.0
4,1.9490001201629639,learn,58050.999879837036,Wed Oct 29 2025 10:13:29 GMT-0500 (Central Daylight Time),505679.69999999553,A,street,I,t,265,1,1949.2999999970198,503730.3999999985,8075,WL,B,1.0
4,2.249000072479248,learn,57750.99992752075,Wed Oct 29 2025 10:13:29 GMT-0500 (Central Daylight Time),505979.69999999553,A,streetenter,I,enter,294,1,2249.2999999970198,503730.3999999985,8075,WL,B,1.0
4,2.499000072479248,learn,57500.99992752075,Wed Oct 29 2025 10:13:29 GMT-0500 (Central Daylight Time),506229.69999999553,A,g,I,g,242,1,249.69999999552965,505980.0,8075,WL,B,2.0
4,2.699000120162964,learn,57300.999879837036,Wed Oct 29 2025 10:13:29 GMT-0500 (Central Daylight Time),506429.69999999553,A,gr,I,r,183,1,449.69999999552965,505980.0,8075,WL,B,2.0
4,2.815999984741211,learn,57184.00001525879,Wed Oct 29 2025 10:13:29 GMT-0500 (Central Daylight Time),506546.1000000015,A,gra,I,a,104,1,566.1000000014901,505980.0,8075,WL,B,2.0
4,2.9820001125335693,learn,57017.99988746643,Wed Oct 29 2025 10:13:29 GMT-0500 (Central Daylight Time),506712.799999997,A,gras,I,s,155,1,732.7999999970198,505980.0,8075,WL,B,2.0
4,3.199000120162964,learn,56800.999879837036,Wed Oct 29 2025 10:13:29 GMT-0500 (Central Daylight Time),506929.3999999985,A,grass,I,s,196,1,949.3999999985099,505980.0,8075,WL,B,2.0
4,3.381999969482422,learn,56618.00003051758,Wed Oct 29 2025 10:13:29 GMT-0500 (Central Daylight Time),507112.799999997,A,grassenter,I,enter,164,1,1132.7999999970198,505980.0,8075,WL,B,2.0
4,3.9820001125335693,learn,56017.99988746643,Wed Oct 29 2025 10:13:29 GMT-0500 (Central Daylight Time),507712.69999999553,A,d,I,d,589,1,599.5999999940395,507113.1000000015,8075,WL,B,3.0
4,4.2820000648498535,learn,55717.99993515015,Wed Oct 29 2025 10:13:29 GMT-0500 (Central Daylight Time),508012.3999999985,A,do,I,o,293,1,899.2999999970198,507113.1000000015,8075,WL,B,3.0
4,4.482000112533569,learn,55517.99988746643,Wed Oct 29 2025 10:13:29 GMT-0500 (Central Daylight Time),508212.299999997,A,doo,I,o,185,1,1099.1999999955297,507113.1000000015,8075,WL,B,3.0
4,4.664999961853027,learn,55335.00003814697,Wed Oct 29 2025 10:13:29 GMT-0500 (Central Daylight Time),508395.69999999553,A,door,I,r,169,1,1282.5999999940395,507113.1000000015,8075,WL,B,3.0
4,4.8480000495910645,learn,55151.999950408936,Wed Oct 29 2025 10:13:29 GMT-0500 (Central Daylight Time),508578.799999997,A,doorenter,I,enter,177,1,1465.6999999955297,507113.1000000015,8075,WL,B,3.0
4,5.065000057220459,learn,54934.99994277954,Wed Oct 29 2025 10:13:29 GMT-0500 (Central Daylight Time),508795.6000000015,A,a,I,a,202,1,216.5,508579.1000000015,8075,WL,B,4.0
4,5.199000120162964,learn,54800.999879837036,Wed Oct 29 2025 10:13:29 GMT-0500 (Central Daylight Time),508928.8999999985,A,ar,I,r,122,1,349.79999999701977,508579.1000000015,8075,WL,B,4.0
4,5.398000001907349,learn,54601.99999809265,Wed Oct 29 2025 10:13:29 GMT-0500 (Central Daylight Time),509128.799999997,A,arm,I,m,188,1,549.6999999955297,508579.1000000015,8075,WL,B,4.0
4,5.680999994277954,learn,54319.000005722046,Wed Oct 29 2025 10:13:29 GMT-0500 (Central Daylight Time),509411.8999999985,A,armenter,I,enter,277,1,832.7999999970198,508579.1000000015,8075,WL,B,4.0
4,6.049000024795532,learn,53950.99997520447,Wed Oct 29 2025 10:13:29 GMT-0500 (Central Daylight Time),509779.5,A,w,I,w,362,1,367.30000000447035,509412.19999999553,8075,WL,B,5.0
4,6.215000152587891,learn,53784.99984741211,Wed Oct 29 2025 10:13:29 GMT-0500 (Central Daylight Time),509945.19999999553,A,wi,I,i,145,1,533.0,509412.19999999553,8075,WL,B,5.0
4,6.281000137329102,learn,53718.9998626709,Wed Oct 29 2025 10:13:29 GMT-0500 (Central Daylight Time),510011.8999999985,A,win,I,n,60,1,599.7000000029802,509412.19999999553,8075,WL,B,5.0
4,6.46399998664856,learn,53536.00001335144,Wed Oct 29 2025 10:13:29 GMT-0500 (Central Daylight Time),510194.799999997,A,wind,I,d,170,1,782.6000000014901,509412.19999999553,8075,WL,B,5.0
4,6.5980000495910645,learn,53401.999950408936,Wed Oct 29 2025 10:13:29 GMT-0500 (Central Daylight Time),510328.3999999985,A,windo,I,o,114,1,916.2000000029802,509412.19999999553,8075,WL,B,5.0
4,6.765000104904175,learn,53234.999895095825,Wed Oct 29 2025 10:13:29 GMT-0500 (Central Daylight Time),510495.1000000015,A,window,I,w,149,1,1082.9000000059605,509412.19999999553,8075,WL,B,5.0
4,6.930999994277954,learn,53069.000005722046,Wed Oct 29 2025 10:13:29 GMT-0500 (Central Daylight Time),510661.69999999553,A,windowenter,I,enter,158,1,1249.5,509412.19999999553,8075,WL,B,5.0
4,7.230999946594238,learn,52769.00005340576,Wed Oct 29 2025 10:13:29 GMT-0500 (Central Daylight Time),510961.5,A,c,I,c,288,1,299.5,510662.0,8075,WL,B,6.0
4,7.3480000495910645,learn,52651.999950408936,Wed Oct 29 2025 10:13:29 GMT-0500 (Central Daylight Time),511078.19999999553,A,ci,I,i,106,1,416.19999999552965,510662.0,8075,WL,B,6.0
4,7.514000177383423,learn,52485.99982261658,Wed Oct 29 2025 10:13:29 GMT-0500 (Central Daylight Time),511244.69999999553,A,cit,I,t,159,1,582.6999999955297,510662.0,8075,WL,B,6.0
4,7.664000034332275,learn,52335.999965667725,Wed Oct 29 2025 10:13:29 GMT-0500 (Central Daylight Time),511394.69999999553,A,city,I,y,138,1,732.6999999955297,510662.0,8075,WL,B,6.0
4,7.914000034332275,learn,52085.999965667725,Wed Oct 29 2025 10:13:29 GMT-0500 (Central Daylight Time),511644.6000000015,A,cityenter,I,enter,235,1,982.6000000014901,510662.0,8075,WL,B,6.0
4,8.21399998664856,learn,51786.00001335144,Wed Oct 29 2025 10:13:29 GMT-0500 (Central Daylight Time),511944.3999999985,A,c,I,c,289,1,299.3999999985099,511645.0,8075,WL,B,7.0
4,8.314000129699707,learn,51685.99987030029,Wed Oct 29 2025 10:13:29 GMT-0500 (Central Daylight Time),512044.3999999985,A,ca,I,a,93,1,399.3999999985099,511645.0,8075,WL,B,7.0
4,8.480999946594238,learn,51519.00005340576,Wed Oct 29 2025 10:13:29 GMT-0500 (Central Daylight Time),512211.0,A,cab,I,b,160,1,566.0,511645.0,8075,WL,B,7.0
4,8.581000089645386,learn,51418.999910354614,Wed Oct 29 2025 10:13:29 GMT-0500 (Central Daylight Time),512311.0,A,cabi,I,i,91,1,666.0,511645.0,8075,WL,B,7.0
4,8.71399998664856,learn,51286.00001335144,Wed Oct 29 2025 10:13:29 GMT-0500 (Central Daylight Time),512444.19999999553,A,cabin,I,n,119,1,799.1999999955297,511645.0,8075,WL,B,7.0
4,8.996999979019165,learn,51003.000020980835,Wed Oct 29 2025 10:13:29 GMT-0500 (Central Daylight Time),512727.5,A,cabinenter,I,enter,273,1,1082.5,511645.0,8075,WL,B,7.0
4,9.27999997138977,learn,50720.00002861023,Wed Oct 29 2025 10:13:29 GMT-0500 (Central Daylight Time),513010.6000000015,A,l,I,l,278,1,282.70000000298023,512727.8999999985,8075,WL,B,8.0
4,9.380000114440918,learn,50619.99988555908,Wed Oct 29 2025 10:13:29 GMT-0500 (Central Daylight Time),513110.8999999985,A,la,I,a,92,1,383.0,512727.8999999985,8075,WL,B,8.0
4,9.52999997138977,learn,50470.00002861023,Wed Oct 29 2025 10:13:29 GMT-0500 (Central Daylight Time),513260.69999999553,A,lak,I,k,143,1,532.7999999970198,512727.8999999985,8075,WL,B,8.0
4,9.746999979019165,learn,50253.000020980835,Wed Oct 29 2025 10:13:29 GMT-0500 (Central Daylight Time),513477.3999999985,A,lake,I,e,201,1,749.5,512727.8999999985,8075,WL,B,8.0
4,9.913000106811523,learn,50086.99989318848,Wed Oct 29 2025 10:13:29 GMT-0500 (Central Daylight Time),513643.6000000015,A,lakeenter,I,enter,151,1,915.7000000029802,512727.8999999985,8075,WL,B,8.0
4,10.39300012588501,learn,49606.99987411499,Wed Oct 29 2025 10:13:29 GMT-0500 (Central Daylight Time),514123.6000000015,A,f,I,f,329,1,479.80000000447035,513643.799999997,8075,WL,B,9.0
4,10.39900016784668,learn,49600.99983215332,Wed Oct 29 2025 10:13:29 GMT-0500 (Central Daylight Time),514129.3999999985,A,fi,I,i,1,1,485.6000000014901,513643.799999997,8075,WL,B,9.0
4,10.547000169754028,learn,49452.99983024597,Wed Oct 29 2025 10:13:29 GMT-0500 (Central Daylight Time),514276.8999999985,A,fir,I,r,127,1,633.1000000014901,513643.799999997,8075,WL,B,9.0
4,10.680000066757202,learn,49319.9999332428,Wed Oct 29 2025 10:13:29 GMT-0500 (Central Daylight Time),514410.19999999553,A,fire,I,e,129,1,766.3999999985099,513643.799999997,8075,WL,B,9.0
4,10.880000114440918,learn,49119.99988555908,Wed Oct 29 2025 10:13:29 GMT-0500 (Central Daylight Time),514610.19999999553,A,fireenter,I,enter,196,1,966.3999999985099,513643.799999997,8075,WL,B,9.0
4,14.812000036239624,learn,45187.999963760376,Wed Oct 29 2025 10:13:29 GMT-0500 (Central Daylight Time),518542.5,A,c,I,c,3924,1,3932.10000000149,514610.3999999985,8075,WL,B,10.0
4,14.894999980926514,learn,45105.000019073486,Wed Oct 29 2025 10:13:29 GMT-0500 (Central Daylight Time),518625.69999999553,A,cl,I,l,71,1,4015.2999999970198,514610.3999999985,8075,WL,B,10.0
4,15.062000036239624,learn,44937.999963760376,Wed Oct 29 2025 10:13:29 GMT-0500 (Central Daylight Time),518792.3999999985,A,clo,I,o,156,1,4182.0,514610.3999999985,8075,WL,B,10.0
4,15.17900013923645,learn,44820.99986076355,Wed Oct 29 2025 10:13:29 GMT-0500 (Central Daylight Time),518909.0,A,cloc,I,c,109,1,4298.60000000149,514610.3999999985,8075,WL,B,10.0
4,15.295000076293945,learn,44704.999923706055,Wed Oct 29 2025 10:13:29 GMT-0500 (Central Daylight Time),519025.6000000015,A,clock,I,k,95,1,4415.20000000298,514610.3999999985,8075,WL,B,10.0
4,15.495000123977661,learn,44504.99987602234,Wed Oct 29 2025 10:13:29 GMT-0500 (Central Daylight Time),519225.69999999553,A,clockenter,I,enter,180,1,4615.29999999702,514610.3999999985,8075,WL,B,10.0
4,15.67799997329712,learn,44322.00002670288,Wed Oct 29 2025 10:13:29 GMT-0500 (Central Daylight Time),519408.799999997,A,s,I,s,172,1,182.69999999552965,519226.1000000015,8075,WL,B,11.0
4,15.745000123977661,learn,44254.99987602234,Wed Oct 29 2025 10:13:29 GMT-0500 (Central Daylight Time),519475.1000000015,A,sk,I,k,61,1,249.0,519226.1000000015,8075,WL,B,11.0
4,15.912000179290771,learn,44087.99982070923,Wed Oct 29 2025 10:13:29 GMT-0500 (Central Daylight Time),519641.8999999985,A,ski,I,i,162,1,415.79999999701977,519226.1000000015,8075,WL,B,11.0
4,16.01200008392334,learn,43987.99991607666,Wed Oct 29 2025 10:13:29 GMT-0500 (Central Daylight Time),519742.1000000015,A,skin,I,n,91,1,516.0,519226.1000000015,8075,WL,B,11.0
4,16.261000156402588,learn,43738.99984359741,Wed Oct 29 2025 10:13:29 GMT-0500 (Central Daylight Time),519991.8999999985,A,skinenter,I,enter,231,1,765.7999999970198,519226.1000000015,8075,WL,B,11.0
4,16.628000020980835,learn,43371.999979019165,Wed Oct 29 2025 10:13:29 GMT-0500 (Central Daylight Time),520358.3999999985,A,p,I,p,350,1,366.20000000298023,519992.19999999553,8075,WL,B,12.0
4,16.74500012397766,learn,43254.99987602234,Wed Oct 29 2025 10:13:29 GMT-0500 (Central Daylight Time),520475.3999999985,A,pu,I,u,103,1,483.20000000298023,519992.19999999553,8075,WL,B,12.0
4,16.960999965667725,learn,43039.000034332275,Wed Oct 29 2025 10:13:29 GMT-0500 (Central Daylight Time),520691.69999999553,A,pup,I,p,210,1,699.5,519992.19999999553,8075,WL,B,12.0
4,17.128000020980835,learn,42871.999979019165,Wed Oct 29 2025 10:13:29 GMT-0500 (Central Daylight Time),520858.19999999553,A,pupi,I,i,154,1,866.0,519992.19999999553,8075,WL,B,12.0
4,17.278000116348267,learn,42721.99988365173,Wed Oct 29 2025 10:13:29 GMT-0500 (Central Daylight Time),521008.3999999985,A,pupil,I,l,139,1,1016.2000000029802,519992.19999999553,8075,WL,B,12.0
4,17.445000171661377,learn,42554.99982833862,Wed Oct 29 2025 10:13:29 GMT-0500 (Central Daylight Time),521175.0,A,pupilenter,I,enter,157,1,1182.8000000044703,519992.19999999553,8075,WL,B,12.0
4,29.85800004005432,learn,30141.99995994568,Wed Oct 29 2025 10:13:29 GMT-0500 (Central Daylight Time),533588.0,A,s,I,s,12399,1,12412.70000000298,521175.299999997,8075,WL,B,13.0
4,30.04100012779236,learn,29958.99987220764,Wed Oct 29 2025 10:13:29 GMT-0500 (Central Daylight Time),533771.1000000015,A,st,I,t,168,1,12595.80000000447,521175.299999997,8075,WL,B,13.0
4,30.223999977111816,learn,29776.000022888184,Wed Oct 29 2025 10:13:29 GMT-0500 (Central Daylight Time),533954.3999999985,A,sta,I,a,170,1,12779.10000000149,521175.299999997,8075,WL,B,13.0
4,30.324000120162964,learn,29675.999879837036,Wed Oct 29 2025 10:13:29 GMT-0500 (Central Daylight Time),534054.299999997,A,star,I,r,91,1,12879.0,521175.299999997,8075,WL,B,13.0
4,30.52400016784668,learn,29475.99983215332,Wed Oct 29 2025 10:13:29 GMT-0500 (Central Daylight Time),534253.8999999985,A,starenter,I,enter,183,1,13078.60000000149,521175.299999997,8075,WL,B,13.0
4,46.68499994277954,learn,13315.000057220459,Wed Oct 29 2025 10:13:29 GMT-0500 (Central Daylight Time),550415.6999999955,A,c,I,c,16143,1,16161.39999999851,534254.299999997,8075,WL,B,14.0
4,46.76800012588501,learn,13231.99987411499,Wed Oct 29 2025 10:13:29 GMT-0500 (Central Daylight Time),550498.8999999985,A,ci,I,i,77,1,16244.60000000149,534254.299999997,8075,WL,B,14.0
4,46.91799998283386,learn,13082.000017166138,Wed Oct 29 2025 10:13:29 GMT-0500 (Central Daylight Time),550649.1000000015,A,cit,I,t,139,1,16394.80000000447,534254.299999997,8075,WL,B,14.0
4,47.00200009346008,learn,12997.999906539917,Wed Oct 29 2025 10:13:29 GMT-0500 (Central Daylight Time),550732.1999999955,A,city,I,y,68,1,16477.89999999851,534254.299999997,8075,WL,B,14.0
4,47.151999950408936,learn,12848.000049591064,Wed Oct 29 2025 10:13:29 GMT-0500 (Central Daylight Time),550882.299999997,A,cityenter,I,enter,129,1,16628.0,534254.299999997,8075,WL,B,14.0
4,60.01400017738342,learn,-14.000177383422852,Wed Oct 29 2025 10:13:29 GMT-0500 (Central Daylight Time),563745.0,A,None,I,None,12858,1,12862.30000000447,550882.6999999955,8075,WL,B,15.0
5,0.6329998970031738,learn,60000.0,Wed Oct 29 2025 10:13:29 GMT-0500 (Central Daylight Time),632206.8999999985,A,f,I,f,616,1,632.8999999985099,631574.0,8075,WL,B,1.0
5,0.8169999122619629,learn,60000.0,Wed Oct 29 2025 10:13:29 GMT-0500 (Central Daylight Time),632390.299999997,A,fi,I,i,166,1,816.2999999970198,631574.0,8075,WL,B,1.0
5,1.0489997863769531,learn,60000.0,Wed Oct 29 2025 10:13:29 GMT-0500 (Central Daylight Time),632623.1999999955,A,fir,I,r,215,1,1049.1999999955297,631574.0,8075,WL,B,1.0
5,1.248999834060669,learn,60000.0,Wed Oct 29 2025 10:13:29 GMT-0500 (Central Daylight Time),632823.299999997,A,fire,I,e,182,1,1249.2999999970198,631574.0,8075,WL,B,1.0
5,1.4159998893737793,learn,60000.0,Wed Oct 29 2025 10:13:29 GMT-0500 (Central Daylight Time),632989.8999999985,A,fireenter,I,enter,150,1,1415.8999999985099,631574.0,8075,WL,B,1.0
5,1.6659998893737793,learn,60000.0,Wed Oct 29 2025 10:13:29 GMT-0500 (Central Daylight Time),633239.8999999985,A,c,I,c,240,1,249.60000000149012,632990.299999997,8075,WL,B,2.0
5,1.7659997940063477,learn,60000.0,Wed Oct 29 2025 10:13:29 GMT-0500 (Central Daylight Time),633339.799999997,A,cl,I,l,86,1,349.5,632990.299999997,8075,WL,B,2.0
5,1.931999921798706,learn,60000.0,Wed Oct 29 2025 10:13:29 GMT-0500 (Central Daylight Time),633506.1000000015,A,clo,I,o,161,1,515.8000000044703,632990.299999997,8075,WL,B,2.0
5,2.048999786376953,learn,60000.0,Wed Oct 29 2025 10:13:29 GMT-0500 (Central Daylight Time),633622.6000000015,A,cloc,I,c,106,1,632.3000000044703,632990.299999997,8075,WL,B,2.0
5,2.181999921798706,learn,60000.0,Wed Oct 29 2025 10:13:29 GMT-0500 (Central Daylight Time),633756.0,A,clock,I,k,119,1,765.7000000029802,632990.299999997,8075,WL,B,2.0
5,2.4659998416900635,learn,60000.0,Wed Oct 29 2025 10:13:29 GMT-0500 (Central Daylight Time),634039.799999997,A,clockenter,I,enter,265,1,1049.5,632990.299999997,8075,WL,B,2.0
5,2.6989998817443848,learn,60000.0,Wed Oct 29 2025 10:13:29 GMT-0500 (Central Daylight Time),634272.8999999985,A,w,I,w,221,1,232.60000000149012,634040.299999997,8075,WL,B,3.0
5,2.7829999923706055,learn,60000.0,Wed Oct 29 2025 10:13:29 GMT-0500 (Central Daylight Time),634356.3999999985,A,wi,I,i,69,1,316.1000000014901,634040.299999997,8075,WL,B,3.0
5,2.8989999294281006,learn,60000.0,Wed Oct 29 2025 10:13:29 GMT-0500 (Central Daylight Time),634472.799999997,A,win,I,n,105,1,432.5,634040.299999997,8075,WL,B,3.0
5,3.131999969482422,learn,60000.0,Wed Oct 29 2025 10:13:29 GMT-0500 (Central Daylight Time),634706.0,A,wind,I,d,229,1,665.7000000029802,634040.299999997,8075,WL,B,3.0
5,3.298999786376953,learn,60000.0,Wed Oct 29 2025 10:13:29 GMT-0500 (Central Daylight Time),634872.6999999955,A,windo,I,o,156,1,832.3999999985099,634040.299999997,8075,WL,B,3.0
5,3.7649998664855957,learn,60000.0,Wed Oct 29 2025 10:13:29 GMT-0500 (Central Daylight Time),635339.0,A,window,I,w,453,1,1298.7000000029802,634040.299999997,8075,WL,B,3.0
5,3.9489998817443848,learn,60000.0,Wed Oct 29 2025 10:13:29 GMT-0500 (Central Daylight Time),635522.5,A,windowenter,I,enter,171,1,1482.2000000029802,634040.299999997,8075,WL,B,3.0
5,4.181999921798706,learn,60000.0,Wed Oct 29 2025 10:13:29 GMT-0500 (Central Daylight Time),635755.6999999955,A,c,I,c,219,1,232.79999999701977,635522.8999999985,8075,WL,B,4.0
5,4.298999786376953,learn,60000.0,Wed Oct 29 2025 10:13:29 GMT-0500 (Central Daylight Time),635872.299999997,A,ci,I,i,98,1,349.3999999985099,635522.8999999985,8075,WL,B,4.0
5,4.431999921798706,learn,60000.0,Wed Oct 29 2025 10:13:29 GMT-0500 (Central Daylight Time),636005.5,A,cit,I,t,125,1,482.6000000014901,635522.8999999985,8075,WL,B,4.0
5,4.547999858856201,learn,60000.0,Wed Oct 29 2025 10:13:29 GMT-0500 (Central Daylight Time),636122.1999999955,A,city,I,y,112,1,599.2999999970198,635522.8999999985,8075,WL,B,4.0
5,4.7829999923706055,learn,60000.0,Wed Oct 29 2025 10:13:29 GMT-0500 (Central Daylight Time),636356.6000000015,A,cityenter,I,enter,227,1,833.7000000029802,635522.8999999985,8075,WL,B,4.0
5,5.331999778747559,learn,60000.0,Wed Oct 29 2025 10:13:29 GMT-0500 (Central Daylight Time),636905.6999999955,A,s,I,s,527,1,548.7999999970198,636356.8999999985,8075,WL,B,5.0
5,5.380999803543091,learn,60000.0,Wed Oct 29 2025 10:13:29 GMT-0500 (Central Daylight Time),636955.0,A,sk,I,k,44,1,598.1000000014901,636356.8999999985,8075,WL,B,5.0
5,5.563999891281128,learn,60000.0,Wed Oct 29 2025 10:13:29 GMT-0500 (Central Daylight Time),637138.299999997,A,ski,I,i,178,1,781.3999999985099,636356.8999999985,8075,WL,B,5.0
5,5.630999803543091,learn,60000.0,Wed Oct 29 2025 10:13:29 GMT-0500 (Central Daylight Time),637205.1999999955,A,skin,I,n,59,1,848.2999999970198,636356.8999999985,8075,WL,B,5.0
5,5.898000001907349,learn,60000.0,Wed Oct 29 2025 10:13:29 GMT-0500 (Central Daylight Time),637471.6999999955,A,skinenter,I,enter,248,1,1114.7999999970198,636356.8999999985,8075,WL,B,5.0
5,7.21399998664856,learn,60000.0,Wed Oct 29 2025 10:13:29 GMT-0500 (Central Daylight Time),638788.1000000015,A,w,I,w,1310,1,1316.0,637472.1000000015,8075,WL,B,6.0
5,7.330999851226807,learn,60000.0,Wed Oct 29 2025 10:13:29 GMT-0500 (Central Daylight Time),638904.799999997,A,wi,I,i,105,1,1432.6999999955297,637472.1000000015,8075,WL,B,6.0
5,7.513999938964844,learn,60000.0,Wed Oct 29 2025 10:13:29 GMT-0500 (Central Daylight Time),639087.799999997,A,wif,I,f,165,1,1615.6999999955297,637472.1000000015,8075,WL,B,6.0
5,7.746999979019165,learn,60000.0,Wed Oct 29 2025 10:13:29 GMT-0500 (Central Daylight Time),639321.1999999955,A,wife,I,e,222,1,1849.0999999940395,637472.1000000015,8075,WL,B,6.0
5,7.896999835968018,learn,60000.0,Wed Oct 29 2025 10:13:29 GMT-0500 (Central Daylight Time),639471.299999997,A,wifeenter,I,enter,140,1,1999.1999999955297,637472.1000000015,8075,WL,B,6.0
5,9.562999963760376,learn,60000.0,Wed Oct 29 2025 10:13:29 GMT-0500 (Central Daylight Time),641137.1999999955,A,s,I,s,1654,1,1665.5999999940395,639471.6000000015,8075,WL,B,7.0
5,9.746999979019165,learn,60000.0,Wed Oct 29 2025 10:13:29 GMT-0500 (Central Daylight Time),641320.6000000015,A,st,I,t,172,1,1849.0,639471.6000000015,8075,WL,B,7.0
5,9.979999780654907,learn,60000.0,Wed Oct 29 2025 10:13:29 GMT-0500 (Central Daylight Time),641553.8999999985,A,str,I,r,229,1,2082.2999999970198,639471.6000000015,8075,WL,B,7.0
5,10.04699993133545,learn,60000.0,Wed Oct 29 2025 10:13:29 GMT-0500 (Central Daylight Time),641620.6000000015,A,stre,I,e,52,1,2149.0,639471.6000000015,8075,WL,B,7.0
5,10.229999780654907,learn,60000.0,Wed Oct 29 2025 10:13:29 GMT-0500 (Central Daylight Time),641803.799999997,A,stree,I,e,169,1,2332.1999999955297,639471.6000000015,8075,WL,B,7.0
5,10.63099980354309,learn,60000.0,Wed Oct 29 2025 10:13:29 GMT-0500 (Central Daylight Time),642204.6999999955,A,street,I,t,394,1,2733.0999999940395,639471.6000000015,8075,WL,B,7.0
5,10.797999858856201,learn,60000.0,Wed Oct 29 2025 10:13:29 GMT-0500 (Central Daylight Time),642371.5,A,streetenter,I,enter,144,1,2899.89999999851,639471.6000000015,8075,WL,B,7.0
5,10.995999813079834,learn,60000.0,Wed Oct 29 2025 10:13:29 GMT-0500 (Central Daylight Time),642570.1000000015,A,g,I,g,178,1,198.30000000447035,642371.799999997,8075,WL,B,8.0
5,11.212999820709229,learn,60000.0,Wed Oct 29 2025 10:13:29 GMT-0500 (Central Daylight Time),642786.8999999985,A,gr,I,r,197,1,415.1000000014901,642371.799999997,8075,WL,B,8.0
5,11.296000003814697,learn,60000.0,Wed Oct 29 2025 10:13:29 GMT-0500 (Central Daylight Time),642870.1999999955,A,gra,I,a,75,1,498.3999999985099,642371.799999997,8075,WL,B,8.0
5,11.480999946594238,learn,60000.0,Wed Oct 29 2025 10:13:29 GMT-0500 (Central Daylight Time),643054.5,A,gras,I,s,175,1,682.7000000029802,642371.799999997,8075,WL,B,8.0
5,11.679999828338623,learn,60000.0,Wed Oct 29 2025 10:13:29 GMT-0500 (Central Daylight Time),643253.3999999985,A,grass,I,s,183,1,881.6000000014901,642371.799999997,8075,WL,B,8.0
5,11.86299991607666,learn,60000.0,Wed Oct 29 2025 10:13:29 GMT-0500 (Central Daylight Time),643436.3999999985,A,grassenter,I,enter,176,1,1064.6000000014901,642371.799999997,8075,WL,B,8.0
5,12.995999813079834,learn,60000.0,Wed Oct 29 2025 10:13:29 GMT-0500 (Central Daylight Time),644569.6000000015,A,a,I,a,1113,1,1132.8000000044703,643436.799999997,8075,WL,B,9.0
5,13.128999948501587,learn,60000.0,Wed Oct 29 2025 10:13:29 GMT-0500 (Central Daylight Time),644702.8999999985,A,ar,I,r,124,1,1266.1000000014901,643436.799999997,8075,WL,B,9.0
5,13.328999996185303,learn,60000.0,Wed Oct 29 2025 10:13:29 GMT-0500 (Central Daylight Time),644902.799999997,A,arm,I,m,183,1,1466.0,643436.799999997,8075,WL,B,9.0
5,13.52899980545044,learn,60000.0,Wed Oct 29 2025 10:13:29 GMT-0500 (Central Daylight Time),645102.799999997,A,armenter,I,enter,191,1,1666.0,643436.799999997,8075,WL,B,9.0
5,13.895999908447266,learn,60000.0,Wed Oct 29 2025 10:13:29 GMT-0500 (Central Daylight Time),645469.3999999985,A,d,I,d,359,1,366.29999999701977,645103.1000000015,8075,WL,B,10.0
5,13.994999885559082,learn,60000.0,Wed Oct 29 2025 10:13:29 GMT-0500 (Central Daylight Time),645569.299999997,A,do,I,o,80,1,466.19999999552965,645103.1000000015,8075,WL,B,10.0
5,14.144999980926514,learn,60000.0,Wed Oct 29 2025 10:13:29 GMT-0500 (Central Daylight Time),645719.299999997,A,doo,I,o,132,1,616.1999999955297,645103.1000000015,8075,WL,B,10.0
5,14.311999797821045,learn,60000.0,Wed Oct 29 2025 10:13:29 GMT-0500 (Central Daylight Time),645885.8999999985,A,door,I,r,150,1,782.7999999970198,645103.1000000015,8075,WL,B,10.0
5,14.561999797821045,learn,60000.0,Wed Oct 29 2025 10:13:29 GMT-0500 (Central Daylight Time),646135.6999999955,A,doorenter,I,enter,231,1,1032.5999999940395,645103.1000000015,8075,WL,B,10.0
5,22.608999967575073,learn,60000.0,Wed Oct 29 2025 10:13:29 GMT-0500 (Central Daylight Time),654183.1999999955,A,c,I,c,8030,1,8047.19999999553,646136.0,8075,WL,B,11.0
5,22.692999839782715,learn,60000.0,Wed Oct 29 2025 10:13:29 GMT-0500 (Central Daylight Time),654266.6999999955,A,ca,I,a,62,1,8130.69999999553,646136.0,8075,WL,B,11.0
5,22.89299988746643,learn,60000.0,Wed Oct 29 2025 10:13:29 GMT-0500 (Central Daylight Time),654466.5,A,cab,I,b,187,1,8330.5,646136.0,8075,WL,B,11.0
5,23.042999982833862,learn,60000.0,Wed Oct 29 2025 10:13:29 GMT-0500 (Central Daylight Time),654616.3999999985,A,cabi,I,i,131,1,8480.39999999851,646136.0,8075,WL,B,11.0
5,23.192999839782715,learn,60000.0,Wed Oct 29 2025 10:13:29 GMT-0500 (Central Daylight Time),654766.5,A,cabin,I,n,141,1,8630.5,646136.0,8075,WL,B,11.0
5,23.45899987220764,learn,60000.0,Wed Oct 29 2025 10:13:29 GMT-0500 (Central Daylight Time),655033.1000000015,A,cabinenter,I,enter,255,1,8897.10000000149,646136.0,8075,WL,B,11.0
5,35.937999963760376,learn,60000.0,Wed Oct 29 2025 10:13:29 GMT-0500 (Central Daylight Time),667512.5,A,p,I,p,12461,1,12479.10000000149,655033.3999999985,8075,WL,B,12.0
5,36.02199983596802,learn,60000.0,Wed Oct 29 2025 10:13:29 GMT-0500 (Central Daylight Time),667595.799999997,A,pi,I,i,77,1,12562.39999999851,655033.3999999985,8075,WL,B,12.0
5,36.15499997138977,learn,60000.0,Wed Oct 29 2025 10:13:29 GMT-0500 (Central Daylight Time),667729.1000000015,A,pip,I,p,122,1,12695.70000000298,655033.3999999985,8075,WL,B,12.0
5,36.3219997882843,learn,60000.0,Wed Oct 29 2025 10:13:29 GMT-0500 (Central Daylight Time),667895.799999997,A,pipe,I,e,148,1,12862.39999999851,655033.3999999985,8075,WL,B,12.0
5,36.47199988365173,learn,60000.0,Wed Oct 29 2025 10:13:29 GMT-0500 (Central Daylight Time),668045.6000000015,A,pipeenter,I,enter,134,1,13012.20000000298,655033.3999999985,8075,WL,B,12.0
5,48.150999784469604,learn,60000.0,Wed Oct 29 2025 10:13:29 GMT-0500 (Central Daylight Time),679725.1000000015,A,d,I,d,11664,1,11679.20000000298,668045.8999999985,8075,WL,B,13.0
5,48.617999792099,learn,60000.0,Wed Oct 29 2025 10:13:29 GMT-0500 (Central Daylight Time),680191.799999997,A,,I,backspace,456,1,12145.89999999851,668045.8999999985,8075,WL,B,13.0
5,50.69999980926514,learn,60000.0,Wed Oct 29 2025 10:13:29 GMT-0500 (Central Daylight Time),682274.3999999985,A,d,I,d,2078,1,14228.5,668045.8999999985,8075,WL,B,13.0
5,51.26699995994568,learn,60000.0,Wed Oct 29 2025 10:13:29 GMT-0500 (Central Daylight Time),682840.799999997,A,,I,backspace,546,1,14794.89999999851,668045.8999999985,8075,WL,B,13.0
5,55.33199977874756,learn,60000.0,Wed Oct 29 2025 10:13:29 GMT-0500 (Central Daylight Time),686906.3999999985,A,s,I,s,4053,1,18860.5,668045.8999999985,8075,WL,B,13.0
5,55.448999881744385,learn,60000.0,Wed Oct 29 2025 10:13:29 GMT-0500 (Central Daylight Time),687022.799999997,A,st,I,t,99,1,18976.89999999851,668045.8999999985,8075,WL,B,13.0
5,55.71599984169006,learn,60000.0,Wed Oct 29 2025 10:13:29 GMT-0500 (Central Daylight Time),687289.6999999955,A,sta,I,a,262,1,19243.79999999702,668045.8999999985,8075,WL,B,13.0
5,55.83199977874756,learn,60000.0,Wed Oct 29 2025 10:13:29 GMT-0500 (Central Daylight Time),687406.299999997,A,star,I,r,108,1,19360.39999999851,668045.8999999985,8075,WL,B,13.0
5,56.115999937057495,learn,60000.0,Wed Oct 29 2025 10:13:29 GMT-0500 (Central Daylight Time),687689.6000000015,A,starenter,I,enter,262,1,19643.70000000298,668045.8999999985,8075,WL,B,13.0
5,62.1969997882843,learn,60000.0,Wed Oct 29 2025 10:13:29 GMT-0500 (Central Daylight Time),693770.6999999955,A,p,I,p,6075,1,6080.79999999702,687689.8999999985,8075,WL,B,14.0
6,1.0170001983642578,distr,58982.99980163574,Wed Oct 29 2025 10:13:29 GMT-0500 (Central Daylight Time),764481.799999997,B,f,I,f,996,1,1016.0,763465.799999997,8075,WL,B,1.0
6,1.2000000476837158,distr,58799.999952316284,Wed Oct 29 2025 10:13:29 GMT-0500 (Central Daylight Time),764665.299999997,B,fr,I,r,170,1,1199.5,763465.799999997,8075,WL,B,1.0
6,1.3000001907348633,distr,58699.99980926514,Wed Oct 29 2025 10:13:29 GMT-0500 (Central Daylight Time),764765.1999999955,B,fri,I,i,92,1,1299.3999999985099,763465.799999997,8075,WL,B,1.0
6,1.4170000553131104,distr,58582.99994468689,Wed Oct 29 2025 10:13:29 GMT-0500 (Central Daylight Time),764881.8999999985,B,frie,I,e,96,1,1416.1000000014901,763465.799999997,8075,WL,B,1.0
6,1.5,distr,58500.0,Wed Oct 29 2025 10:13:29 GMT-0500 (Central Daylight Time),764965.1000000015,B,frien,I,n,68,1,1499.3000000044703,763465.799999997,8075,WL,B,1.0
6,1.633000135421753,distr,58366.99986457825,Wed Oct 29 2025 10:13:29 GMT-0500 (Central Daylight Time),765098.5,B,friend,I,d,119,1,1632.7000000029802,763465.799999997,8075,WL,B,1.0
6,1.7829999923706055,distr,58217.000007629395,Wed Oct 29 2025 10:13:29 GMT-0500 (Central Daylight Time),765248.1999999955,B,friendenter,I,enter,139,1,1782.3999999985099,763465.799999997,8075,WL,B,1.0
6,2.0329999923706055,distr,57967.000007629395,Wed Oct 29 2025 10:13:29 GMT-0500 (Central Daylight Time),765498.299999997,B,b,I,b,229,1,249.79999999701977,765248.5,8075,WL,B,2.0
6,2.1500000953674316,distr,57849.99990463257,Wed Oct 29 2025 10:13:29 GMT-0500 (Central Daylight Time),765615.0,B,ba,I,a,107,1,366.5,765248.5,8075,WL,B,2.0
6,2.2160000801086426,distr,57783.99991989136,Wed Oct 29 2025 10:13:29 GMT-0500 (Central Daylight Time),765681.5,B,bab,I,b,47,1,433.0,765248.5,8075,WL,B,2.0
6,2.3500001430511475,distr,57649.99985694885,Wed Oct 29 2025 10:13:29 GMT-0500 (Central Daylight Time),765815.1000000015,B,baby,I,y,116,1,566.6000000014901,765248.5,8075,WL,B,2.0
6,2.4830000400543213,distr,57516.99995994568,Wed Oct 29 2025 10:13:29 GMT-0500 (Central Daylight Time),765948.1999999955,B,babyenter,I,enter,127,1,699.6999999955297,765248.5,8075,WL,B,2.0
6,2.866000175476074,distr,57133.999824523926,Wed Oct 29 2025 10:13:29 GMT-0500 (Central Daylight Time),766331.299999997,B,p,I,p,377,1,382.79999999701977,765948.5,8075,WL,B,3.0
6,3.0340001583099365,distr,56965.99984169006,Wed Oct 29 2025 10:13:29 GMT-0500 (Central Daylight Time),766498.8999999985,B,pa,I,a,146,1,550.3999999985099,765948.5,8075,WL,B,3.0
6,3.1660001277923584,distr,56833.99987220764,Wed Oct 29 2025 10:13:29 GMT-0500 (Central Daylight Time),766631.5,B,pal,I,l,115,1,683.0,765948.5,8075,WL,B,3.0
6,3.267000198364258,distr,56732.99980163574,Wed Oct 29 2025 10:13:29 GMT-0500 (Central Daylight Time),766732.299999997,B,pala,I,a,94,1,783.7999999970198,765948.5,8075,WL,B,3.0
6,3.3990001678466797,distr,56600.99983215332,Wed Oct 29 2025 10:13:29 GMT-0500 (Central Daylight Time),766864.5,B,palac,I,c,121,1,916.0,765948.5,8075,WL,B,3.0
6,3.5989999771118164,distr,56401.00002288818,Wed Oct 29 2025 10:13:29 GMT-0500 (Central Daylight Time),767064.6000000015,B,palace,I,e,181,1,1116.1000000014901,765948.5,8075,WL,B,3.0
6,3.8489999771118164,distr,56151.00002288818,Wed Oct 29 2025 10:13:29 GMT-0500 (Central Daylight Time),767314.299999997,B,palaceenter,I,enter,229,1,1365.7999999970198,765948.5,8075,WL,B,3.0
6,3.999000072479248,distr,56000.99992752075,Wed Oct 29 2025 10:13:29 GMT-0500 (Central Daylight Time),767464.1999999955,B,s,I,s,139,1,149.59999999403954,767314.6000000015,8075,WL,B,4.0
6,4.098999977111816,distr,55901.00002288818,Wed Oct 29 2025 10:13:29 GMT-0500 (Central Daylight Time),767564.1999999955,B,st,I,t,94,1,249.59999999403954,767314.6000000015,8075,WL,B,4.0
6,4.315999984741211,distr,55684.00001525879,Wed Oct 29 2025 10:13:29 GMT-0500 (Central Daylight Time),767781.0,B,ste,I,e,201,1,466.3999999985099,767314.6000000015,8075,WL,B,4.0
6,4.565999984741211,distr,55434.00001525879,Wed Oct 29 2025 10:13:29 GMT-0500 (Central Daylight Time),768030.799999997,B,stea,I,a,232,1,716.1999999955297,767314.6000000015,8075,WL,B,4.0
6,4.699000120162964,distr,55300.999879837036,Wed Oct 29 2025 10:13:29 GMT-0500 (Central Daylight Time),768164.1000000015,B,steam,I,m,119,1,849.5,767314.6000000015,8075,WL,B,4.0
6,4.966000080108643,distr,55033.99991989136,Wed Oct 29 2025 10:13:29 GMT-0500 (Central Daylight Time),768430.799999997,B,steamenter,I,enter,249,1,1116.1999999955297,767314.6000000015,8075,WL,B,4.0
6,7.448000192642212,distr,52551.99980735779,Wed Oct 29 2025 10:13:29 GMT-0500 (Central Daylight Time),770913.3999999985,B,l,I,l,2462,1,2482.2999999970198,768431.1000000015,8075,WL,B,5.0
6,7.581000089645386,distr,52418.999910354614,Wed Oct 29 2025 10:13:29 GMT-0500 (Central Daylight Time),771046.6000000015,B,li,I,i,116,1,2615.5,768431.1000000015,8075,WL,B,5.0
6,7.6650002002716064,distr,52334.99979972839,Wed Oct 29 2025 10:13:29 GMT-0500 (Central Daylight Time),771130.0,B,lip,I,p,79,1,2698.89999999851,768431.1000000015,8075,WL,B,5.0
6,7.9150002002716064,distr,52084.99979972839,Wed Oct 29 2025 10:13:29 GMT-0500 (Central Daylight Time),771379.799999997,B,lipenter,I,enter,244,1,2948.6999999955297,768431.1000000015,8075,WL,B,5.0
6,21.094000101089478,distr,38905.99989891052,Wed Oct 29 2025 10:13:29 GMT-0500 (Central Daylight Time),784559.1999999955,B,v,I,v,13161,1,13179.0,771380.1999999955,8075,WL,B,6.0
6,21.177000045776367,distr,38822.99995422363,Wed Oct 29 2025 10:13:29 GMT-0500 (Central Daylight Time),784642.5,B,vi,I,i,78,1,13262.30000000447,771380.1999999955,8075,WL,B,6.0
6,21.294000148773193,distr,38705.99985122681,Wed Oct 29 2025 10:13:29 GMT-0500 (Central Daylight Time),784758.8999999985,B,vil,I,l,99,1,13378.70000000298,771380.1999999955,8075,WL,B,6.0
6,21.427000045776367,distr,38572.99995422363,Wed Oct 29 2025 10:13:29 GMT-0500 (Central Daylight Time),784892.1000000015,B,vill,I,l,127,1,13511.90000000596,771380.1999999955,8075,WL,B,6.0
6,21.478000164031982,distr,38521.99983596802,Wed Oct 29 2025 10:13:29 GMT-0500 (Central Daylight Time),784943.5,B,villa,I,a,42,1,13563.30000000447,771380.1999999955,8075,WL,B,6.0
6,21.5770001411438,distr,38422.9998588562,Wed Oct 29 2025 10:13:29 GMT-0500 (Central Daylight Time),785042.299999997,B,villag,I,g,86,1,13662.10000000149,771380.1999999955,8075,WL,B,6.0
6,21.677000045776367,distr,38322.99995422363,Wed Oct 29 2025 10:13:29 GMT-0500 (Central Daylight Time),785142.1999999955,B,village,I,e,83,1,13762.0,771380.1999999955,8075,WL,B,6.0
6,21.792999982833862,distr,38207.00001716614,Wed Oct 29 2025 10:13:29 GMT-0500 (Central Daylight Time),785258.8999999985,B,villageenter,I,enter,104,1,13878.70000000298,771380.1999999955,8075,WL,B,6.0
6,33.4520001411438,distr,26547.9998588562,Wed Oct 29 2025 10:13:29 GMT-0500 (Central Daylight Time),796917.6000000015,B,enter,I,enter,11654,1,11658.30000000447,785259.299999997,8075,WL,B,7.0
6,33.67300009727478,distr,26326.99990272522,Wed Oct 29 2025 10:13:29 GMT-0500 (Central Daylight Time),797138.1999999955,B,enter,I,enter,215,1,220.29999999701977,796917.8999999985,8075,WL,B,8.0
6,33.94000005722046,distr,26059.99994277954,Wed Oct 29 2025 10:13:29 GMT-0500 (Central Daylight Time),797405.0,B,enter,I,enter,252,1,266.3999999985099,797138.6000000015,8075,WL,B,9.0
6,34.27300000190735,distr,25726.99999809265,Wed Oct 29 2025 10:13:29 GMT-0500 (Central Daylight Time),797738.3999999985,B,enter,I,enter,321,1,333.20000000298023,797405.1999999955,8075,WL,B,10.0
6,34.555999994277954,distr,25444.000005722046,Wed Oct 29 2025 10:13:29 GMT-0500 (Central Daylight Time),798021.5,B,enter,I,enter,267,1,282.80000000447035,797738.6999999955,8075,WL,B,11.0
6,34.85600018501282,distr,25143.999814987183,Wed Oct 29 2025 10:13:29 GMT-0500 (Central Daylight Time),798321.0,B,enter,I,enter,287,1,299.20000000298023,798021.799999997,8075,WL,B,12.0
6,35.206000089645386,distr,24793.999910354614,Wed Oct 29 2025 10:13:29 GMT-0500 (Central Daylight Time),798671.5,B,enter,I,enter,333,1,350.30000000447035,798321.1999999955,8075,WL,B,13.0
6,35.75600004196167,distr,24243.99995803833,Wed Oct 29 2025 10:13:29 GMT-0500 (Central Daylight Time),799220.8999999985,B,enter,I,enter,534,1,549.0,798671.8999999985,8075,WL,B,14.0
6,36.10600018501282,distr,23893.999814987183,Wed Oct 29 2025 10:13:29 GMT-0500 (Central Daylight Time),799571.0,B,enter,I,enter,336,1,349.70000000298023,799221.299999997,8075,WL,B,15.0
7,6.0309998989105225,immed,53969.00010108948,Wed Oct 29 2025 10:13:29 GMT-0500 (Central Daylight Time),811883.3999999985,A,w,I,w,6017,1,6030.79999999702,805852.6000000015,8075,WL,B,1.0
7,6.5980000495910645,immed,53401.999950408936,Wed Oct 29 2025 10:13:29 GMT-0500 (Central Daylight Time),812450.3999999985,A,wi,I,i,554,1,6597.79999999702,805852.6000000015,8075,WL,B,1.0
7,6.730999946594238,immed,53269.00005340576,Wed Oct 29 2025 10:13:29 GMT-0500 (Central Daylight Time),812583.799999997,A,win,I,n,123,1,6731.19999999553,805852.6000000015,8075,WL,B,1.0
7,6.930999994277954,immed,53069.000005722046,Wed Oct 29 2025 10:13:29 GMT-0500 (Central Daylight Time),812783.6000000015,A,wind,I,d,182,1,6931.0,805852.6000000015,8075,WL,B,1.0
7,7.0309998989105225,immed,52969.00010108948,Wed Oct 29 2025 10:13:29 GMT-0500 (Central Daylight Time),812883.1999999955,A,windo,I,o,86,1,7030.5999999940395,805852.6000000015,8075,WL,B,1.0
7,7.263999938964844,immed,52736.000061035156,Wed Oct 29 2025 10:13:29 GMT-0500 (Central Daylight Time),813116.799999997,A,window,I,w,226,1,7264.19999999553,805852.6000000015,8075,WL,B,1.0
7,7.664000034332275,immed,52335.999965667725,Wed Oct 29 2025 10:13:29 GMT-0500 (Central Daylight Time),813516.6999999955,A,windowenter,I,enter,385,1,7664.0999999940395,805852.6000000015,8075,WL,B,1.0
7,7.996999979019165,immed,52003.000020980835,Wed Oct 29 2025 10:13:29 GMT-0500 (Central Daylight Time),813849.6999999955,A,w,I,w,328,1,332.69999999552965,813517.0,8075,WL,B,2.0
7,8.13100004196167,immed,51868.99995803833,Wed Oct 29 2025 10:13:29 GMT-0500 (Central Daylight Time),813983.1000000015,A,wi,I,i,123,1,466.1000000014901,813517.0,8075,WL,B,2.0
7,8.27999997138977,immed,51720.00002861023,Wed Oct 29 2025 10:13:29 GMT-0500 (Central Daylight Time),814132.8999999985,A,wif,I,f,143,1,615.8999999985099,813517.0,8075,WL,B,2.0
7,8.430999994277954,immed,51569.000005722046,Wed Oct 29 2025 10:13:29 GMT-0500 (Central Daylight Time),814283.299999997,A,wife,I,e,137,1,766.2999999970198,813517.0,8075,WL,B,2.0
7,8.563999891281128,immed,51436.00010871887,Wed Oct 29 2025 10:13:29 GMT-0500 (Central Daylight Time),814416.3999999985,A,wifeenter,I,enter,122,1,899.3999999985099,813517.0,8075,WL,B,2.0
7,13.961999893188477,immed,46038.00010681152,Wed Oct 29 2025 10:13:29 GMT-0500 (Central Daylight Time),819814.6999999955,A,s,I,s,5381,1,5398.0,814416.6999999955,8075,WL,B,3.0
7,14.078999996185303,immed,45921.0000038147,Wed Oct 29 2025 10:13:29 GMT-0500 (Central Daylight Time),819931.299999997,A,st,I,t,103,1,5514.60000000149,814416.6999999955,8075,WL,B,3.0
7,14.196000099182129,immed,45803.99990081787,Wed Oct 29 2025 10:13:29 GMT-0500 (Central Daylight Time),820048.0,A,sta,I,a,106,1,5631.30000000447,814416.6999999955,8075,WL,B,3.0
7,14.312000036239624,immed,45687.999963760376,Wed Oct 29 2025 10:13:29 GMT-0500 (Central Daylight Time),820164.299999997,A,star,I,r,100,1,5747.60000000149,814416.6999999955,8075,WL,B,3.0
7,14.625999927520752,immed,45374.00007247925,Wed Oct 29 2025 10:13:29 GMT-0500 (Central Daylight Time),820478.299999997,A,starenter,I,enter,293,1,6061.60000000149,814416.6999999955,8075,WL,B,3.0
7,15.062000036239624,immed,44937.999963760376,Wed Oct 29 2025 10:13:29 GMT-0500 (Central Daylight Time),820914.5,A,s,I,s,431,1,435.8999999985099,820478.6000000015,8075,WL,B,4.0
7,15.644999980926514,immed,44355.000019073486,Wed Oct 29 2025 10:13:29 GMT-0500 (Central Daylight Time),821497.3999999985,A,st,I,t,563,1,1018.7999999970198,820478.6000000015,8075,WL,B,4.0
7,15.894999980926514,immed,44105.000019073486,Wed Oct 29 2025 10:13:29 GMT-0500 (Central Daylight Time),821747.3999999985,A,str,I,r,236,1,1268.7999999970198,820478.6000000015,8075,WL,B,4.0
7,16.028000116348267,immed,43971.99988365173,Wed Oct 29 2025 10:13:29 GMT-0500 (Central Daylight Time),821880.6999999955,A,stre,I,e,114,1,1402.0999999940395,820478.6000000015,8075,WL,B,4.0
7,16.211999893188477,immed,43788.00010681152,Wed Oct 29 2025 10:13:29 GMT-0500 (Central Daylight Time),822063.8999999985,A,stree,I,e,173,1,1585.2999999970198,820478.6000000015,8075,WL,B,4.0
7,16.42799997329712,immed,43572.00002670288,Wed Oct 29 2025 10:13:29 GMT-0500 (Central Daylight Time),822280.8999999985,A,street,I,t,205,1,1802.2999999970198,820478.6000000015,8075,WL,B,4.0
7,16.727999925613403,immed,43272.0000743866,Wed Oct 29 2025 10:13:29 GMT-0500 (Central Daylight Time),822580.6000000015,A,streetenter,I,enter,285,1,2102.0,820478.6000000015,8075,WL,B,4.0
7,17.045000076293945,immed,42954.999923706055,Wed Oct 29 2025 10:13:29 GMT-0500 (Central Daylight Time),822896.8999999985,A,g,I,g,296,1,315.8999999985099,822581.0,8075,WL,B,5.0
7,17.227999925613403,immed,42772.0000743866,Wed Oct 29 2025 10:13:29 GMT-0500 (Central Daylight Time),823080.3999999985,A,gr,I,r,173,1,499.3999999985099,822581.0,8075,WL,B,5.0
7,17.344000101089478,immed,42655.99989891052,Wed Oct 29 2025 10:13:29 GMT-0500 (Central Daylight Time),823196.6999999955,A,gra,I,a,109,1,615.6999999955297,822581.0,8075,WL,B,5.0
7,17.528000116348267,immed,42471.99988365173,Wed Oct 29 2025 10:13:29 GMT-0500 (Central Daylight Time),823380.0,A,gras,I,s,169,1,799.0,822581.0,8075,WL,B,5.0
7,17.74399995803833,immed,42256.00004196167,Wed Oct 29 2025 10:13:29 GMT-0500 (Central Daylight Time),823596.6000000015,A,grass,I,s,208,1,1015.6000000014901,822581.0,8075,WL,B,5.0
7,17.91100001335144,immed,42088.99998664856,Wed Oct 29 2025 10:13:29 GMT-0500 (Central Daylight Time),823763.3999999985,A,grassenter,I,enter,160,1,1182.3999999985099,822581.0,8075,WL,B,5.0
7,19.39400005340576,immed,40605.99994659424,Wed Oct 29 2025 10:13:29 GMT-0500 (Central Daylight Time),825246.1000000015,A,c,I,c,1466,1,1482.4000000059605,823763.6999999955,8075,WL,B,6.0
7,19.49399995803833,immed,40506.00004196167,Wed Oct 29 2025 10:13:29 GMT-0500 (Central Daylight Time),825346.0,A,ca,I,a,94,1,1582.3000000044703,823763.6999999955,8075,WL,B,6.0
7,19.609999895095825,immed,40390.000104904175,Wed Oct 29 2025 10:13:29 GMT-0500 (Central Daylight Time),825462.799999997,A,cab,I,b,100,1,1699.1000000014901,823763.6999999955,8075,WL,B,6.0
7,19.74399995803833,immed,40256.00004196167,Wed Oct 29 2025 10:13:29 GMT-0500 (Central Daylight Time),825596.1000000015,A,cabi,I,i,127,1,1832.4000000059605,823763.6999999955,8075,WL,B,6.0
7,19.80999994277954,immed,40190.00005722046,Wed Oct 29 2025 10:13:29 GMT-0500 (Central Daylight Time),825662.799999997,A,cabin,I,n,49,1,1899.1000000014901,823763.6999999955,8075,WL,B,6.0
7,19.97699999809265,immed,40023.00000190735,Wed Oct 29 2025 10:13:29 GMT-0500 (Central Daylight Time),825829.6000000015,A,cabinenter,I,enter,159,1,2065.9000000059605,823763.6999999955,8075,WL,B,6.0
7,22.625999927520752,immed,37374.00007247925,Wed Oct 29 2025 10:13:29 GMT-0500 (Central Daylight Time),828478.6999999955,A,f,I,f,2640,1,2648.7999999970198,825829.8999999985,8075,WL,B,7.0
7,22.7260000705719,immed,37273.9999294281,Wed Oct 29 2025 10:13:29 GMT-0500 (Central Daylight Time),828578.5,A,fi,I,i,79,1,2748.60000000149,825829.8999999985,8075,WL,B,7.0
7,22.825999975204468,immed,37174.00002479553,Wed Oct 29 2025 10:13:29 GMT-0500 (Central Daylight Time),828678.5,A,fir,I,r,83,1,2848.60000000149,825829.8999999985,8075,WL,B,7.0
7,22.89300012588501,immed,37106.99987411499,Wed Oct 29 2025 10:13:29 GMT-0500 (Central Daylight Time),828745.3999999985,A,fire,I,e,55,1,2915.5,825829.8999999985,8075,WL,B,7.0
7,23.026000022888184,immed,36973.99997711182,Wed Oct 29 2025 10:13:29 GMT-0500 (Central Daylight Time),828878.299999997,A,fireenter,I,enter,124,1,3048.39999999851,825829.8999999985,8075,WL,B,7.0
7,30.890000104904175,immed,29109.999895095825,Wed Oct 29 2025 10:13:29 GMT-0500 (Central Daylight Time),836742.799999997,A,p,I,p,7847,1,7864.10000000149,828878.6999999955,8075,WL,B,8.0
7,31.0239999294281,immed,28976.0000705719,Wed Oct 29 2025 10:13:29 GMT-0500 (Central Daylight Time),836876.0,A,pu,I,u,127,1,7997.30000000447,828878.6999999955,8075,WL,B,8.0
7,31.157000064849854,immed,28842.999935150146,Wed Oct 29 2025 10:13:29 GMT-0500 (Central Daylight Time),837009.3999999985,A,pup,I,p,112,1,8130.70000000298,828878.6999999955,8075,WL,B,8.0
7,31.306999921798706,immed,28693.000078201294,Wed Oct 29 2025 10:13:29 GMT-0500 (Central Daylight Time),837159.1999999955,A,pupi,I,i,132,1,8280.5,828878.6999999955,8075,WL,B,8.0
7,31.44000005722046,immed,28559.99994277954,Wed Oct 29 2025 10:13:29 GMT-0500 (Central Daylight Time),837292.1999999955,A,pupil,I,l,126,1,8413.5,828878.6999999955,8075,WL,B,8.0
7,31.60599994659424,immed,28394.00005340576,Wed Oct 29 2025 10:13:29 GMT-0500 (Central Daylight Time),837458.8999999985,A,pupilenter,I,enter,161,1,8580.20000000298,828878.6999999955,8075,WL,B,8.0
7,36.73799991607666,immed,23262.00008392334,Wed Oct 29 2025 10:13:29 GMT-0500 (Central Daylight Time),842590.6000000015,A,a,I,a,5122,1,5131.5,837459.1000000015,8075,WL,B,9.0
7,36.82100009918213,immed,23178.99990081787,Wed Oct 29 2025 10:13:29 GMT-0500 (Central Daylight Time),842673.8999999985,A,ar,I,r,71,1,5214.79999999702,837459.1000000015,8075,WL,B,9.0
7,36.9210000038147,immed,23078.999996185303,Wed Oct 29 2025 10:13:29 GMT-0500 (Central Daylight Time),842773.6999999955,A,arm,I,m,91,1,5314.5999999940395,837459.1000000015,8075,WL,B,9.0
7,37.104000091552734,immed,22895.999908447266,Wed Oct 29 2025 10:13:29 GMT-0500 (Central Daylight Time),842957.0,A,armenter,I,enter,175,1,5497.89999999851,837459.1000000015,8075,WL,B,9.0
7,41.269999980926514,immed,18730.000019073486,Wed Oct 29 2025 10:13:29 GMT-0500 (Central Daylight Time),847122.6000000015,A,c,I,c,4161,1,4165.4000000059605,842957.1999999955,8075,WL,B,10.0
7,41.437000036239624,immed,18562.999963760376,Wed Oct 29 2025 10:13:29 GMT-0500 (Central Daylight Time),847289.5,A,ca,I,a,155,1,4332.30000000447,842957.1999999955,8075,WL,B,10.0
7,41.62000012397766,immed,18379.99987602234,Wed Oct 29 2025 10:13:29 GMT-0500 (Central Daylight Time),847472.299999997,A,cab,I,b,172,1,4515.10000000149,842957.1999999955,8075,WL,B,10.0
7,41.72000002861023,immed,18279.99997138977,Wed Oct 29 2025 10:13:29 GMT-0500 (Central Daylight Time),847572.6999999955,A,cabi,I,i,93,1,4615.5,842957.1999999955,8075,WL,B,10.0
7,41.8199999332428,immed,18180.000066757202,Wed Oct 29 2025 10:13:29 GMT-0500 (Central Daylight Time),847672.3999999985,A,cabin,I,n,89,1,4715.20000000298,842957.1999999955,8075,WL,B,10.0
7,41.98799991607666,immed,18012.00008392334,Wed Oct 29 2025 10:13:29 GMT-0500 (Central Daylight Time),847840.299999997,A,cabinenter,I,enter,157,1,4883.10000000149,842957.1999999955,8075,WL,B,10.0
7,46.003000020980835,immed,13996.999979019165,Wed Oct 29 2025 10:13:29 GMT-0500 (Central Daylight Time),851855.799999997,A,p,I,p,3997,1,4015.10000000149,847840.6999999955,8075,WL,B,11.0
7,46.10199999809265,immed,13898.000001907349,Wed Oct 29 2025 10:13:29 GMT-0500 (Central Daylight Time),851954.5,A,pi,I,i,86,1,4113.80000000447,847840.6999999955,8075,WL,B,11.0
7,46.21900010108948,immed,13780.999898910522,Wed Oct 29 2025 10:13:29 GMT-0500 (Central Daylight Time),852071.299999997,A,pip,I,p,99,1,4230.60000000149,847840.6999999955,8075,WL,B,11.0
7,46.33500003814697,immed,13664.999961853027,Wed Oct 29 2025 10:13:29 GMT-0500 (Central Daylight Time),852188.0,A,pipe,I,e,102,1,4347.30000000447,847840.6999999955,8075,WL,B,11.0
7,46.486000061035156,immed,13513.999938964844,Wed Oct 29 2025 10:13:29 GMT-0500 (Central Daylight Time),852338.0,A,pipeenter,I,enter,137,1,4497.30000000447,847840.6999999955,8075,WL,B,11.0
7,60.015000104904175,immed,-15.000104904174805,Wed Oct 29 2025 10:13:29 GMT-0500 (Central Daylight Time),865867.1000000015,A,None,I,None,13524,1,13528.70000000298,852338.3999999985,8075,WL,B,12.0
