block_c,block_dur,condition,countdown,datetime,endtime,list,multichar_response,project,response,response_time,session_number,start_end,starttime,subject_id,task,task_vers,trial
,,,,Mon Jun 22 2026 09:37:04 GMT-0500 (Central Daylight Time),,,,I,space,3556,3,,,8075,WL,A,
prac,,0,,Mon Jun 22 2026 09:37:04 GMT-0500 (Central Daylight Time),,NA,b,I,b,4274,3,,,8075,WL,A,1.0
prac,,0,,Mon Jun 22 2026 09:37:04 GMT-0500 (Central Daylight Time),,NA,bo,I,o,330,3,,,8075,WL,A,1.0
prac,,0,,Mon Jun 22 2026 09:37:04 GMT-0500 (Central Daylight Time),,NA,boo,I,o,142,3,,,8075,WL,A,1.0
prac,,0,,Mon Jun 22 2026 09:37:04 GMT-0500 (Central Daylight Time),,NA,boos,I,s,159,3,,,8075,WL,A,1.0
prac,,0,,Mon Jun 22 2026 09:37:04 GMT-0500 (Central Daylight Time),,NA,boost,I,t,129,3,,,8075,WL,A,1.0
prac,,0,,Mon Jun 22 2026 09:37:04 GMT-0500 (Central Daylight Time),,NA,boostenter,I,enter,1924,3,,,8075,WL,A,1.0
1,0.5160000324249268,learn,59483.99996757507,Mon Jun 22 2026 09:37:04 GMT-0500 (Central Daylight Time),128029.30000000075,A,b,I,b,510,3,516.0,127513.30000000075,8075,WL,A,1.0
1,0.6670000553131104,learn,59332.99994468689,Mon Jun 22 2026 09:37:04 GMT-0500 (Central Daylight Time),128179.40000000224,A,bo,I,o,136,3,666.1000000014901,127513.30000000075,8075,WL,A,1.0
1,0.817000150680542,learn,59182.99984931946,Mon Jun 22 2026 09:37:04 GMT-0500 (Central Daylight Time),128329.5,A,boo,I,o,140,3,816.1999999992549,127513.30000000075,8075,WL,A,1.0
1,0.9500000476837158,learn,59049.999952316284,Mon Jun 22 2026 09:37:04 GMT-0500 (Central Daylight Time),128462.80000000075,A,book,I,k,117,3,949.5,127513.30000000075,8075,WL,A,1.0
1,1.4830000400543213,learn,58516.99995994568,Mon Jun 22 2026 09:37:04 GMT-0500 (Central Daylight Time),128995.80000000075,A,bookenter,I,enter,512,3,1482.5,127513.30000000075,8075,WL,A,1.0
1,2.1490001678466797,learn,57850.99983215332,Mon Jun 22 2026 09:37:04 GMT-0500 (Central Daylight Time),129662.0,A,f,I,f,660,3,665.6999999992549,128996.30000000075,8075,WL,A,2.0
1,2.249000072479248,learn,57750.99992752075,Mon Jun 22 2026 09:37:04 GMT-0500 (Central Daylight Time),129762.19999999925,A,fl,I,l,90,3,765.8999999985099,128996.30000000075,8075,WL,A,2.0
1,2.433000087738037,learn,57566.99991226196,Mon Jun 22 2026 09:37:04 GMT-0500 (Central Daylight Time),129945.69999999925,A,flo,I,o,173,3,949.3999999985099,128996.30000000075,8075,WL,A,2.0
1,2.616000175476074,learn,57383.999824523926,Mon Jun 22 2026 09:37:04 GMT-0500 (Central Daylight Time),130129.10000000149,A,flow,I,w,166,3,1132.800000000745,128996.30000000075,8075,WL,A,2.0
1,2.7330000400543213,learn,57266.99995994568,Mon Jun 22 2026 09:37:04 GMT-0500 (Central Daylight Time),130245.40000000224,A,flowe,I,e,103,3,1249.1000000014901,128996.30000000075,8075,WL,A,2.0
1,2.883000135421753,learn,57116.99986457825,Mon Jun 22 2026 09:37:04 GMT-0500 (Central Daylight Time),130395.5,A,flower,I,r,128,3,1399.199999999255,128996.30000000075,8075,WL,A,2.0
1,3.0989999771118164,learn,56901.00002288818,Mon Jun 22 2026 09:37:04 GMT-0500 (Central Daylight Time),130612.0,A,flowerenter,I,enter,195,3,1615.699999999255,128996.30000000075,8075,WL,A,2.0
1,3.815999984741211,learn,56184.00001525879,Mon Jun 22 2026 09:37:04 GMT-0500 (Central Daylight Time),131328.5,A,m,I,m,700,3,716.0,130612.5,8075,WL,A,3.0
1,3.8990001678466797,learn,56100.99983215332,Mon Jun 22 2026 09:37:04 GMT-0500 (Central Daylight Time),131411.6000000015,A,me,I,e,70,3,799.1000000014901,130612.5,8075,WL,A,3.0
1,4.015000104904175,learn,55984.999895095825,Mon Jun 22 2026 09:37:04 GMT-0500 (Central Daylight Time),131528.40000000224,A,mea,I,a,108,3,915.9000000022352,130612.5,8075,WL,A,3.0
1,4.232000112533569,learn,55767.99988746643,Mon Jun 22 2026 09:37:04 GMT-0500 (Central Daylight Time),131745.0,A,mead,I,d,206,3,1132.5,130612.5,8075,WL,A,3.0
1,4.381999969482422,learn,55618.00003051758,Mon Jun 22 2026 09:37:04 GMT-0500 (Central Daylight Time),131894.90000000224,A,meado,I,o,143,3,1282.4000000022352,130612.5,8075,WL,A,3.0
1,4.687999963760376,learn,55312.000036239624,Mon Jun 22 2026 09:37:04 GMT-0500 (Central Daylight Time),132200.6000000015,A,meadow,I,w,300,3,1588.1000000014901,130612.5,8075,WL,A,3.0
1,4.835000038146973,learn,55164.99996185303,Mon Jun 22 2026 09:37:04 GMT-0500 (Central Daylight Time),132347.80000000075,A,meadowenter,I,enter,141,3,1735.300000000745,130612.5,8075,WL,A,3.0
1,5.065000057220459,learn,54934.99994277954,Mon Jun 22 2026 09:37:04 GMT-0500 (Central Daylight Time),132577.90000000224,A,t,I,t,219,3,229.5,132348.40000000224,8075,WL,A,4.0
1,5.265000104904175,learn,54734.999895095825,Mon Jun 22 2026 09:37:04 GMT-0500 (Central Daylight Time),132777.90000000224,A,tr,I,r,190,3,429.5,132348.40000000224,8075,WL,A,4.0
1,5.381999969482422,learn,54618.00003051758,Mon Jun 22 2026 09:37:04 GMT-0500 (Central Daylight Time),132894.6000000015,A,tra,I,a,102,3,546.1999999992549,132348.40000000224,8075,WL,A,4.0
1,5.515000104904175,learn,54484.999895095825,Mon Jun 22 2026 09:37:04 GMT-0500 (Central Daylight Time),133027.80000000075,A,trai,I,i,120,3,679.3999999985099,132348.40000000224,8075,WL,A,4.0
1,5.682000160217285,learn,54317.999839782715,Mon Jun 22 2026 09:37:04 GMT-0500 (Central Daylight Time),133194.6000000015,A,train,I,n,148,3,846.1999999992549,132348.40000000224,8075,WL,A,4.0
1,6.465000152587891,learn,53534.99984741211,Mon Jun 22 2026 09:37:04 GMT-0500 (Central Daylight Time),133977.5,A,trainenter,I,enter,772,3,1629.0999999977648,132348.40000000224,8075,WL,A,4.0
1,6.883000135421753,learn,53116.99986457825,Mon Jun 22 2026 09:37:04 GMT-0500 (Central Daylight Time),134395.40000000224,A,r,I,r,406,3,417.5,133977.90000000224,8075,WL,A,5.0
1,7.0980000495910645,learn,52901.999950408936,Mon Jun 22 2026 09:37:04 GMT-0500 (Central Daylight Time),134610.90000000224,A,ru,I,u,204,3,633.0,133977.90000000224,8075,WL,A,5.0
1,7.481000185012817,learn,52518.99981498718,Mon Jun 22 2026 09:37:04 GMT-0500 (Central Daylight Time),134993.5,A,run,I,n,364,3,1015.5999999977648,133977.90000000224,8075,WL,A,5.0
1,7.748000144958496,learn,52251.999855041504,Mon Jun 22 2026 09:37:04 GMT-0500 (Central Daylight Time),135260.5,A,runenter,I,enter,254,3,1282.5999999977648,133977.90000000224,8075,WL,A,5.0
1,8.21399998664856,learn,51786.00001335144,Mon Jun 22 2026 09:37:04 GMT-0500 (Central Daylight Time),135727.1000000015,A,s,I,s,459,3,466.19999999925494,135260.90000000224,8075,WL,A,6.0
1,8.29800009727478,learn,51701.99990272522,Mon Jun 22 2026 09:37:04 GMT-0500 (Central Daylight Time),135810.5,A,sa,I,a,73,3,549.5999999977648,135260.90000000224,8075,WL,A,6.0
1,8.46399998664856,learn,51536.00001335144,Mon Jun 22 2026 09:37:04 GMT-0500 (Central Daylight Time),135976.90000000224,A,sal,I,l,148,3,716.0,135260.90000000224,8075,WL,A,6.0
1,8.765000104904175,learn,51234.999895095825,Mon Jun 22 2026 09:37:04 GMT-0500 (Central Daylight Time),136277.90000000224,A,salt,I,t,279,3,1017.0,135260.90000000224,8075,WL,A,6.0
1,8.996999979019165,learn,51003.000020980835,Mon Jun 22 2026 09:37:04 GMT-0500 (Central Daylight Time),136510.0,A,saltenter,I,enter,218,3,1249.0999999977648,135260.90000000224,8075,WL,A,6.0
1,9.282000064849854,learn,50717.99993515015,Mon Jun 22 2026 09:37:04 GMT-0500 (Central Daylight Time),136794.6000000015,A,h,I,h,273,3,284.19999999925494,136510.40000000224,8075,WL,A,7.0
1,9.414000034332275,learn,50585.999965667725,Mon Jun 22 2026 09:37:04 GMT-0500 (Central Daylight Time),136926.90000000224,A,ha,I,a,117,3,416.5,136510.40000000224,8075,WL,A,7.0
1,9.580000162124634,learn,50419.999837875366,Mon Jun 22 2026 09:37:04 GMT-0500 (Central Daylight Time),137092.90000000224,A,har,I,r,160,3,582.5,136510.40000000224,8075,WL,A,7.0
1,9.764000177383423,learn,50235.99982261658,Mon Jun 22 2026 09:37:04 GMT-0500 (Central Daylight Time),137276.90000000224,A,harp,I,p,162,3,766.5,136510.40000000224,8075,WL,A,7.0
1,10.114000082015991,learn,49885.99991798401,Mon Jun 22 2026 09:37:04 GMT-0500 (Central Daylight Time),137626.69999999925,A,harpenter,I,enter,331,3,1116.2999999970198,136510.40000000224,8075,WL,A,7.0
1,10.44700002670288,learn,49552.99997329712,Mon Jun 22 2026 09:37:04 GMT-0500 (Central Daylight Time),137959.69999999925,A,g,I,g,317,3,332.5999999977648,137627.1000000015,8075,WL,A,8.0
1,10.547000169754028,learn,49452.99983024597,Mon Jun 22 2026 09:37:04 GMT-0500 (Central Daylight Time),138059.80000000075,A,go,I,o,79,3,432.69999999925494,137627.1000000015,8075,WL,A,8.0
1,10.746999979019165,learn,49253.000020980835,Mon Jun 22 2026 09:37:04 GMT-0500 (Central Daylight Time),138259.80000000075,A,gol,I,l,179,3,632.6999999992549,137627.1000000015,8075,WL,A,8.0
1,10.930000066757202,learn,49069.9999332428,Mon Jun 22 2026 09:37:04 GMT-0500 (Central Daylight Time),138443.0,A,gold,I,d,164,3,815.8999999985099,137627.1000000015,8075,WL,A,8.0
1,11.080000162124634,learn,48919.999837875366,Mon Jun 22 2026 09:37:04 GMT-0500 (Central Daylight Time),138592.90000000224,A,goldenter,I,enter,141,3,965.8000000007451,137627.1000000015,8075,WL,A,8.0
1,11.27999997138977,learn,48720.00002861023,Mon Jun 22 2026 09:37:04 GMT-0500 (Central Daylight Time),138792.5,A,f,I,f,191,3,199.19999999925494,138593.30000000075,8075,WL,A,9.0
1,11.380000114440918,learn,48619.99988555908,Mon Jun 22 2026 09:37:04 GMT-0500 (Central Daylight Time),138892.80000000075,A,fi,I,i,79,3,299.5,138593.30000000075,8075,WL,A,9.0
1,11.480000019073486,learn,48519.999980926514,Mon Jun 22 2026 09:37:04 GMT-0500 (Central Daylight Time),138992.90000000224,A,fin,I,n,83,3,399.6000000014901,138593.30000000075,8075,WL,A,9.0
1,11.680000066757202,learn,48319.9999332428,Mon Jun 22 2026 09:37:04 GMT-0500 (Central Daylight Time),139192.69999999925,A,fing,I,g,191,3,599.3999999985099,138593.30000000075,8075,WL,A,9.0
1,11.86300015449524,learn,48136.99984550476,Mon Jun 22 2026 09:37:04 GMT-0500 (Central Daylight Time),139376.0,A,finge,I,e,167,3,782.6999999992549,138593.30000000075,8075,WL,A,9.0
1,11.930000066757202,learn,48069.9999332428,Mon Jun 22 2026 09:37:04 GMT-0500 (Central Daylight Time),139442.6000000015,A,finger,I,r,48,3,849.3000000007451,138593.30000000075,8075,WL,A,9.0
1,12.11300015449524,learn,47886.99984550476,Mon Jun 22 2026 09:37:04 GMT-0500 (Central Daylight Time),139625.6000000015,A,fingerenter,I,enter,165,3,1032.300000000745,138593.30000000075,8075,WL,A,9.0
1,26.259000062942505,learn,33740.999937057495,Mon Jun 22 2026 09:37:04 GMT-0500 (Central Daylight Time),153771.5,A,enter,I,enter,14126,3,14145.699999999255,139625.80000000075,8075,WL,A,10.0
1,26.792999982833862,learn,33207.00001716614,Mon Jun 22 2026 09:37:04 GMT-0500 (Central Daylight Time),154305.69999999925,A,enter,I,enter,516,3,533.7999999970198,153771.90000000224,8075,WL,A,11.0
1,27.77500009536743,learn,32224.99990463257,Mon Jun 22 2026 09:37:04 GMT-0500 (Central Daylight Time),155287.80000000075,A,enter,I,enter,966,3,981.6999999992549,154306.1000000015,8075,WL,A,12.0
1,28.256999969482422,learn,31743.000030517578,Mon Jun 22 2026 09:37:04 GMT-0500 (Central Daylight Time),155769.80000000075,A,enter,I,enter,476,3,481.5,155288.30000000075,8075,WL,A,13.0
1,28.79200005531311,learn,31207.99994468689,Mon Jun 22 2026 09:37:04 GMT-0500 (Central Daylight Time),156304.90000000224,A,enter,I,enter,526,3,534.5,155770.40000000224,8075,WL,A,14.0
1,29.256999969482422,learn,30743.000030517578,Mon Jun 22 2026 09:37:04 GMT-0500 (Central Daylight Time),156770.40000000224,A,enter,I,enter,454,3,465.1000000014901,156305.30000000075,8075,WL,A,15.0
2,0.3840000629425049,learn,59615.999937057495,Mon Jun 22 2026 09:37:04 GMT-0500 (Central Daylight Time),222534.40000000224,A,b,I,b,371,3,384.1000000014901,222150.30000000075,8075,WL,A,1.0
2,0.5329999923706055,learn,59467.000007629395,Mon Jun 22 2026 09:37:04 GMT-0500 (Central Daylight Time),222683.1000000015,A,bo,I,o,137,3,532.8000000007451,222150.30000000075,8075,WL,A,1.0
2,0.75,learn,59250.0,Mon Jun 22 2026 09:37:04 GMT-0500 (Central Daylight Time),222900.40000000224,A,boo,I,o,196,3,750.1000000014901,222150.30000000075,8075,WL,A,1.0
2,1.0329999923706055,learn,58967.000007629395,Mon Jun 22 2026 09:37:04 GMT-0500 (Central Daylight Time),223183.0,A,book,I,k,267,3,1032.699999999255,222150.30000000075,8075,WL,A,1.0
2,1.2990000247955322,learn,58700.99997520447,Mon Jun 22 2026 09:37:04 GMT-0500 (Central Daylight Time),223449.6000000015,A,bookenter,I,enter,256,3,1299.300000000745,222150.30000000075,8075,WL,A,1.0
2,1.5829999446868896,learn,58417.00005531311,Mon Jun 22 2026 09:37:04 GMT-0500 (Central Daylight Time),223732.80000000075,A,f,I,f,271,3,282.80000000074506,223450.0,8075,WL,A,2.0
2,1.681999921798706,learn,58318.000078201294,Mon Jun 22 2026 09:37:04 GMT-0500 (Central Daylight Time),223832.69999999925,A,fl,I,l,82,3,382.69999999925494,223450.0,8075,WL,A,2.0
2,1.8659999370574951,learn,58134.000062942505,Mon Jun 22 2026 09:37:04 GMT-0500 (Central Daylight Time),224016.80000000075,A,flo,I,o,175,3,566.8000000007451,223450.0,8075,WL,A,2.0
2,1.999000072479248,learn,58000.99992752075,Mon Jun 22 2026 09:37:04 GMT-0500 (Central Daylight Time),224149.30000000075,A,flow,I,w,119,3,699.3000000007451,223450.0,8075,WL,A,2.0
2,2.0820000171661377,learn,57917.99998283386,Mon Jun 22 2026 09:37:04 GMT-0500 (Central Daylight Time),224232.6000000015,A,flowe,I,e,75,3,782.6000000014901,223450.0,8075,WL,A,2.0
2,2.2160000801086426,learn,57783.99991989136,Mon Jun 22 2026 09:37:04 GMT-0500 (Central Daylight Time),224365.80000000075,A,flower,I,r,127,3,915.8000000007451,223450.0,8075,WL,A,2.0
2,2.365000009536743,learn,57634.99999046326,Mon Jun 22 2026 09:37:04 GMT-0500 (Central Daylight Time),224515.80000000075,A,flowerenter,I,enter,129,3,1065.800000000745,223450.0,8075,WL,A,2.0
2,2.815000057220459,learn,57184.99994277954,Mon Jun 22 2026 09:37:04 GMT-0500 (Central Daylight Time),224965.69999999925,A,t,I,t,435,3,449.3999999985099,224516.30000000075,8075,WL,A,3.0
2,3.0320000648498535,learn,56967.99993515015,Mon Jun 22 2026 09:37:04 GMT-0500 (Central Daylight Time),225182.19999999925,A,tr,I,r,202,3,665.8999999985099,224516.30000000075,8075,WL,A,3.0
2,3.131999969482422,learn,56868.00003051758,Mon Jun 22 2026 09:37:04 GMT-0500 (Central Daylight Time),225282.30000000075,A,tra,I,a,90,3,766.0,224516.30000000075,8075,WL,A,3.0
2,3.2319998741149902,learn,56768.00012588501,Mon Jun 22 2026 09:37:04 GMT-0500 (Central Daylight Time),225382.30000000075,A,trai,I,i,94,3,866.0,224516.30000000075,8075,WL,A,3.0
2,3.315000057220459,learn,56684.99994277954,Mon Jun 22 2026 09:37:04 GMT-0500 (Central Daylight Time),225465.69999999925,A,train,I,n,66,3,949.3999999985099,224516.30000000075,8075,WL,A,3.0
2,3.4819998741149902,learn,56518.00012588501,Mon Jun 22 2026 09:37:04 GMT-0500 (Central Daylight Time),225632.30000000075,A,trainenter,I,enter,158,3,1116.0,224516.30000000075,8075,WL,A,3.0
2,3.6649999618530273,learn,56335.00003814697,Mon Jun 22 2026 09:37:04 GMT-0500 (Central Daylight Time),225815.6000000015,A,m,I,m,167,3,182.90000000223517,225632.69999999925,8075,WL,A,4.0
2,3.815000057220459,learn,56184.99994277954,Mon Jun 22 2026 09:37:04 GMT-0500 (Central Daylight Time),225965.5,A,me,I,e,129,3,332.80000000074506,225632.69999999925,8075,WL,A,4.0
2,3.8989999294281006,learn,56101.0000705719,Mon Jun 22 2026 09:37:04 GMT-0500 (Central Daylight Time),226048.80000000075,A,mea,I,a,67,3,416.1000000014901,225632.69999999925,8075,WL,A,4.0
2,4.131999969482422,learn,55868.00003051758,Mon Jun 22 2026 09:37:04 GMT-0500 (Central Daylight Time),226282.0,A,meas,I,s,223,3,649.3000000007451,225632.69999999925,8075,WL,A,4.0
2,4.460999965667725,learn,55539.000034332275,Mon Jun 22 2026 09:37:04 GMT-0500 (Central Daylight Time),226611.6000000015,A,mea,I,backspace,261,3,978.9000000022352,225632.69999999925,8075,WL,A,4.0
2,4.598999977111816,learn,55401.00002288818,Mon Jun 22 2026 09:37:04 GMT-0500 (Central Daylight Time),226748.90000000224,A,mead,I,d,133,3,1116.2000000029802,225632.69999999925,8075,WL,A,4.0
2,4.79800009727478,learn,55201.99990272522,Mon Jun 22 2026 09:37:04 GMT-0500 (Central Daylight Time),226948.69999999925,A,meado,I,o,178,3,1316.0,225632.69999999925,8075,WL,A,4.0
2,4.930999994277954,learn,55069.000005722046,Mon Jun 22 2026 09:37:04 GMT-0500 (Central Daylight Time),227081.69999999925,A,meadow,I,w,116,3,1449.0,225632.69999999925,8075,WL,A,4.0
2,5.265000104904175,learn,54734.999895095825,Mon Jun 22 2026 09:37:04 GMT-0500 (Central Daylight Time),227414.90000000224,A,meadowenter,I,enter,327,3,1782.2000000029802,225632.69999999925,8075,WL,A,4.0
2,7.796999931335449,learn,52203.00006866455,Mon Jun 22 2026 09:37:04 GMT-0500 (Central Daylight Time),229947.40000000224,A,h,I,h,2521,3,2532.2000000029802,227415.19999999925,8075,WL,A,5.0
2,7.96399998664856,learn,52036.00001335144,Mon Jun 22 2026 09:37:04 GMT-0500 (Central Daylight Time),230114.30000000075,A,ha,I,a,149,3,2699.10000000149,227415.19999999925,8075,WL,A,5.0
2,8.063999891281128,learn,51936.00010871887,Mon Jun 22 2026 09:37:04 GMT-0500 (Central Daylight Time),230213.90000000224,A,har,I,r,94,3,2798.7000000029802,227415.19999999925,8075,WL,A,5.0
2,8.21399998664856,learn,51786.00001335144,Mon Jun 22 2026 09:37:04 GMT-0500 (Central Daylight Time),230364.1000000015,A,harp,I,p,129,3,2948.900000002235,227415.19999999925,8075,WL,A,5.0
2,8.563999891281128,learn,51436.00010871887,Mon Jun 22 2026 09:37:04 GMT-0500 (Central Daylight Time),230714.1000000015,A,harpenter,I,enter,332,3,3298.900000002235,227415.19999999925,8075,WL,A,5.0
2,8.77999997138977,learn,51220.00002861023,Mon Jun 22 2026 09:37:04 GMT-0500 (Central Daylight Time),230930.5,A,f,I,f,205,3,216.09999999776483,230714.40000000224,8075,WL,A,6.0
2,8.88100004196167,learn,51118.99995803833,Mon Jun 22 2026 09:37:04 GMT-0500 (Central Daylight Time),231031.40000000224,A,fi,I,i,94,3,317.0,230714.40000000224,8075,WL,A,6.0
2,8.980000019073486,learn,51019.999980926514,Mon Jun 22 2026 09:37:04 GMT-0500 (Central Daylight Time),231130.80000000075,A,fin,I,n,81,3,416.3999999985099,230714.40000000224,8075,WL,A,6.0
2,9.180000066757202,learn,50819.9999332428,Mon Jun 22 2026 09:37:04 GMT-0500 (Central Daylight Time),231330.30000000075,A,fing,I,g,190,3,615.8999999985099,230714.40000000224,8075,WL,A,6.0
2,9.397000074386597,learn,50602.9999256134,Mon Jun 22 2026 09:37:04 GMT-0500 (Central Daylight Time),231546.90000000224,A,finge,I,e,206,3,832.5,230714.40000000224,8075,WL,A,6.0
2,9.480000019073486,learn,50519.999980926514,Mon Jun 22 2026 09:37:04 GMT-0500 (Central Daylight Time),231630.6000000015,A,finger,I,r,70,3,916.1999999992549,230714.40000000224,8075,WL,A,6.0
2,9.579999923706055,learn,50420.000076293945,Mon Jun 22 2026 09:37:04 GMT-0500 (Central Daylight Time),231730.1000000015,A,fingerenter,I,enter,90,3,1015.6999999992549,230714.40000000224,8075,WL,A,6.0
2,9.763000011444092,learn,50236.99998855591,Mon Jun 22 2026 09:37:04 GMT-0500 (Central Daylight Time),231913.5,A,s,I,s,173,3,183.0,231730.5,8075,WL,A,7.0
2,9.879999876022339,learn,50120.00012397766,Mon Jun 22 2026 09:37:04 GMT-0500 (Central Daylight Time),232030.0,A,sa,I,a,110,3,299.5,231730.5,8075,WL,A,7.0
2,9.996999979019165,learn,50003.000020980835,Mon Jun 22 2026 09:37:04 GMT-0500 (Central Daylight Time),232147.0,A,sal,I,l,106,3,416.5,231730.5,8075,WL,A,7.0
2,10.180999994277954,learn,49819.000005722046,Mon Jun 22 2026 09:37:04 GMT-0500 (Central Daylight Time),232330.80000000075,A,salt,I,t,165,3,600.3000000007451,231730.5,8075,WL,A,7.0
2,10.36299991607666,learn,49637.00008392334,Mon Jun 22 2026 09:37:04 GMT-0500 (Central Daylight Time),232513.5,A,saltenter,I,enter,173,3,783.0,231730.5,8075,WL,A,7.0
2,10.678999900817871,learn,49321.00009918213,Mon Jun 22 2026 09:37:04 GMT-0500 (Central Daylight Time),232829.5,A,a,I,a,302,3,315.5999999977648,232513.90000000224,8075,WL,A,8.0
2,10.763000011444092,learn,49236.99998855591,Mon Jun 22 2026 09:37:04 GMT-0500 (Central Daylight Time),232912.90000000224,A,ap,I,p,74,3,399.0,232513.90000000224,8075,WL,A,8.0
2,10.928999900817871,learn,49071.00009918213,Mon Jun 22 2026 09:37:04 GMT-0500 (Central Daylight Time),233079.69999999925,A,app,I,p,151,3,565.7999999970198,232513.90000000224,8075,WL,A,8.0
2,11.128999948501587,learn,48871.00005149841,Mon Jun 22 2026 09:37:04 GMT-0500 (Central Daylight Time),233279.90000000224,A,appl,I,l,192,3,766.0,232513.90000000224,8075,WL,A,8.0
2,11.279000043869019,learn,48720.99995613098,Mon Jun 22 2026 09:37:04 GMT-0500 (Central Daylight Time),233429.69999999925,A,apple,I,e,136,3,915.7999999970198,232513.90000000224,8075,WL,A,8.0
2,11.411999940872192,learn,48588.00005912781,Mon Jun 22 2026 09:37:04 GMT-0500 (Central Daylight Time),233563.30000000075,A,appleenter,I,enter,114,3,1049.3999999985099,232513.90000000224,8075,WL,A,8.0
2,11.595999956130981,learn,48404.00004386902,Mon Jun 22 2026 09:37:04 GMT-0500 (Central Daylight Time),233747.1000000015,A,t,I,t,173,3,183.60000000149012,233563.5,8075,WL,A,9.0
2,11.812000036239624,learn,48187.999963760376,Mon Jun 22 2026 09:37:04 GMT-0500 (Central Daylight Time),233963.0,A,tr,I,r,196,3,399.5,233563.5,8075,WL,A,9.0
2,11.911999940872192,learn,48088.00005912781,Mon Jun 22 2026 09:37:04 GMT-0500 (Central Daylight Time),234063.1000000015,A,tra,I,a,85,3,499.6000000014901,233563.5,8075,WL,A,9.0
2,12.01200008392334,learn,47987.99991607666,Mon Jun 22 2026 09:37:04 GMT-0500 (Central Daylight Time),234162.69999999925,A,trai,I,i,88,3,599.1999999992549,233563.5,8075,WL,A,9.0
2,12.095999956130981,learn,47904.00004386902,Mon Jun 22 2026 09:37:04 GMT-0500 (Central Daylight Time),234246.5,A,train,I,n,70,3,683.0,233563.5,8075,WL,A,9.0
2,12.694999933242798,learn,47305.0000667572,Mon Jun 22 2026 09:37:04 GMT-0500 (Central Daylight Time),234845.5,A,trainenter,I,enter,585,3,1282.0,233563.5,8075,WL,A,9.0
2,13.111000061035156,learn,46888.999938964844,Mon Jun 22 2026 09:37:04 GMT-0500 (Central Daylight Time),235262.1000000015,A,l,I,l,402,3,416.4000000022352,234845.69999999925,8075,WL,A,10.0
2,13.277999877929688,learn,46722.00012207031,Mon Jun 22 2026 09:37:04 GMT-0500 (Central Daylight Time),235428.6000000015,A,lo,I,o,161,3,582.9000000022352,234845.69999999925,8075,WL,A,10.0
2,13.477999925613403,learn,46522.0000743866,Mon Jun 22 2026 09:37:04 GMT-0500 (Central Daylight Time),235628.90000000224,A,log,I,g,187,3,783.2000000029802,234845.69999999925,8075,WL,A,10.0
2,13.678999900817871,learn,46321.00009918213,Mon Jun 22 2026 09:37:04 GMT-0500 (Central Daylight Time),235830.1000000015,A,logenter,I,enter,180,3,984.4000000022352,234845.69999999925,8075,WL,A,10.0
2,15.311000108718872,learn,44688.99989128113,Mon Jun 22 2026 09:37:04 GMT-0500 (Central Daylight Time),237461.90000000224,A,g,I,g,1618,3,1631.6000000014901,235830.30000000075,8075,WL,A,11.0
2,15.394000053405762,learn,44605.99994659424,Mon Jun 22 2026 09:37:04 GMT-0500 (Central Daylight Time),237545.1000000015,A,go,I,o,73,3,1714.800000000745,235830.30000000075,8075,WL,A,11.0
2,15.611000061035156,learn,44388.999938964844,Mon Jun 22 2026 09:37:04 GMT-0500 (Central Daylight Time),237761.69999999925,A,gol,I,l,207,3,1931.3999999985099,235830.30000000075,8075,WL,A,11.0
2,15.711999893188477,learn,44288.00010681152,Mon Jun 22 2026 09:37:04 GMT-0500 (Central Daylight Time),237862.80000000075,A,gold,I,d,94,3,2032.5,235830.30000000075,8075,WL,A,11.0
2,15.878000020980835,learn,44121.999979019165,Mon Jun 22 2026 09:37:04 GMT-0500 (Central Daylight Time),238028.40000000224,A,goldenter,I,enter,152,3,2198.10000000149,235830.30000000075,8075,WL,A,11.0
2,31.390000104904175,learn,28609.999895095825,Mon Jun 22 2026 09:37:04 GMT-0500 (Central Daylight Time),253540.30000000075,A,enter,I,enter,15492,3,15511.699999999255,238028.6000000015,8075,WL,A,12.0
2,31.77300000190735,learn,28226.99999809265,Mon Jun 22 2026 09:37:04 GMT-0500 (Central Daylight Time),253923.69999999925,A,enter,I,enter,371,3,383.0,253540.69999999925,8075,WL,A,13.0
2,32.223000049591064,learn,27776.999950408936,Mon Jun 22 2026 09:37:04 GMT-0500 (Central Daylight Time),254374.30000000075,A,enter,I,enter,437,3,450.30000000074506,253924.0,8075,WL,A,14.0
2,32.82200002670288,learn,27177.99997329712,Mon Jun 22 2026 09:37:04 GMT-0500 (Central Daylight Time),254972.90000000224,A,enter,I,enter,585,3,598.3000000007451,254374.6000000015,8075,WL,A,15.0
3,0.6329998970031738,learn,59367.000102996826,Mon Jun 22 2026 09:37:04 GMT-0500 (Central Daylight Time),322218.69999999925,A,b,I,b,616,3,633.1999999992549,321585.5,8075,WL,A,1.0
3,0.7669999599456787,learn,59233.00004005432,Mon Jun 22 2026 09:37:04 GMT-0500 (Central Daylight Time),322352.19999999925,A,bo,I,o,125,3,766.6999999992549,321585.5,8075,WL,A,1.0
3,0.9179999828338623,learn,59082.00001716614,Mon Jun 22 2026 09:37:04 GMT-0500 (Central Daylight Time),322502.90000000224,A,boo,I,o,143,3,917.4000000022352,321585.5,8075,WL,A,1.0
3,1.066999912261963,learn,58933.00008773804,Mon Jun 22 2026 09:37:04 GMT-0500 (Central Daylight Time),322652.0,A,book,I,k,128,3,1066.5,321585.5,8075,WL,A,1.0
3,1.500999927520752,learn,58499.00007247925,Mon Jun 22 2026 09:37:04 GMT-0500 (Central Daylight Time),323086.1000000015,A,bookenter,I,enter,420,3,1500.6000000014901,321585.5,8075,WL,A,1.0
3,1.9500000476837158,learn,58049.999952316284,Mon Jun 22 2026 09:37:04 GMT-0500 (Central Daylight Time),323534.90000000224,A,m,I,m,442,3,448.5,323086.40000000224,8075,WL,A,2.0
3,2.8329999446868896,learn,57167.00005531311,Mon Jun 22 2026 09:37:04 GMT-0500 (Central Daylight Time),324417.90000000224,A,me,I,e,872,3,1331.5,323086.40000000224,8075,WL,A,2.0
3,3.0160000324249268,learn,56983.99996757507,Mon Jun 22 2026 09:37:04 GMT-0500 (Central Daylight Time),324601.1000000015,A,mea,I,a,173,3,1514.699999999255,323086.40000000224,8075,WL,A,2.0
3,3.184000015258789,learn,56815.99998474121,Mon Jun 22 2026 09:37:04 GMT-0500 (Central Daylight Time),324769.1000000015,A,mead,I,d,158,3,1682.699999999255,323086.40000000224,8075,WL,A,2.0
3,3.2990000247955322,learn,56700.99997520447,Mon Jun 22 2026 09:37:04 GMT-0500 (Central Daylight Time),324884.5,A,meado,I,o,94,3,1798.0999999977648,323086.40000000224,8075,WL,A,2.0
3,3.4660000801086426,learn,56533.99991989136,Mon Jun 22 2026 09:37:04 GMT-0500 (Central Daylight Time),325051.30000000075,A,meadow,I,w,155,3,1964.8999999985099,323086.40000000224,8075,WL,A,2.0
3,3.6489999294281006,learn,56351.0000705719,Mon Jun 22 2026 09:37:04 GMT-0500 (Central Daylight Time),325234.19999999925,A,meadowenter,I,enter,171,3,2147.7999999970198,323086.40000000224,8075,WL,A,2.0
3,3.8329999446868896,learn,56167.00005531311,Mon Jun 22 2026 09:37:04 GMT-0500 (Central Daylight Time),325417.90000000224,A,f,I,f,166,3,183.30000000074506,325234.6000000015,8075,WL,A,3.0
3,3.9159998893737793,learn,56084.00011062622,Mon Jun 22 2026 09:37:04 GMT-0500 (Central Daylight Time),325500.6000000015,A,fl,I,l,63,3,266.0,325234.6000000015,8075,WL,A,3.0
3,4.082000017166138,learn,55917.99998283386,Mon Jun 22 2026 09:37:04 GMT-0500 (Central Daylight Time),325667.5,A,flo,I,o,146,3,432.8999999985099,325234.6000000015,8075,WL,A,3.0
3,4.1499998569488525,learn,55850.00014305115,Mon Jun 22 2026 09:37:04 GMT-0500 (Central Daylight Time),325735.19999999925,A,flow,I,w,61,3,500.5999999977648,325234.6000000015,8075,WL,A,3.0
3,4.249000072479248,learn,55750.99992752075,Mon Jun 22 2026 09:37:04 GMT-0500 (Central Daylight Time),325834.40000000224,A,flowe,I,e,81,3,599.8000000007451,325234.6000000015,8075,WL,A,3.0
3,4.365999937057495,learn,55634.000062942505,Mon Jun 22 2026 09:37:04 GMT-0500 (Central Daylight Time),325950.69999999925,A,flower,I,r,109,3,716.0999999977648,325234.6000000015,8075,WL,A,3.0
3,4.5320000648498535,learn,55467.99993515015,Mon Jun 22 2026 09:37:04 GMT-0500 (Central Daylight Time),326117.5,A,flowerenter,I,enter,145,3,882.8999999985099,325234.6000000015,8075,WL,A,3.0
3,7.0980000495910645,learn,52901.999950408936,Mon Jun 22 2026 09:37:04 GMT-0500 (Central Daylight Time),328683.30000000075,A,l,I,l,2555,3,2565.5,326117.80000000075,8075,WL,A,4.0
3,7.315000057220459,learn,52684.99994277954,Mon Jun 22 2026 09:37:04 GMT-0500 (Central Daylight Time),328899.80000000075,A,lo,I,o,196,3,2782.0,326117.80000000075,8075,WL,A,4.0
3,7.648000001907349,learn,52351.99999809265,Mon Jun 22 2026 09:37:04 GMT-0500 (Central Daylight Time),329233.0,A,l,I,backspace,316,3,3115.199999999255,326117.80000000075,8075,WL,A,4.0
3,7.815000057220459,learn,52184.99994277954,Mon Jun 22 2026 09:37:04 GMT-0500 (Central Daylight Time),329399.80000000075,A,,I,backspace,151,3,3282.0,326117.80000000075,8075,WL,A,4.0
3,10.664000034332275,learn,49335.999965667725,Mon Jun 22 2026 09:37:04 GMT-0500 (Central Daylight Time),332248.80000000075,A,s,I,s,2833,3,6131.0,326117.80000000075,8075,WL,A,4.0
3,10.746999979019165,learn,49253.000020980835,Mon Jun 22 2026 09:37:04 GMT-0500 (Central Daylight Time),332332.0,A,sa,I,a,71,3,6214.199999999255,326117.80000000075,8075,WL,A,4.0
3,10.864000082015991,learn,49135.99991798401,Mon Jun 22 2026 09:37:04 GMT-0500 (Central Daylight Time),332448.80000000075,A,sal,I,l,107,3,6331.0,326117.80000000075,8075,WL,A,4.0
3,11.079999923706055,learn,48920.000076293945,Mon Jun 22 2026 09:37:04 GMT-0500 (Central Daylight Time),332665.40000000224,A,salt,I,t,199,3,6547.60000000149,326117.80000000075,8075,WL,A,4.0
3,11.312999963760376,learn,48687.000036239624,Mon Jun 22 2026 09:37:04 GMT-0500 (Central Daylight Time),332898.40000000224,A,saltenter,I,enter,215,3,6780.60000000149,326117.80000000075,8075,WL,A,4.0
3,11.796000003814697,learn,48203.9999961853,Mon Jun 22 2026 09:37:04 GMT-0500 (Central Daylight Time),333381.6000000015,A,h,I,h,478,3,482.80000000074506,332898.80000000075,8075,WL,A,5.0
3,11.930000066757202,learn,48069.9999332428,Mon Jun 22 2026 09:37:04 GMT-0500 (Central Daylight Time),333514.90000000224,A,ha,I,a,114,3,616.1000000014901,332898.80000000075,8075,WL,A,5.0
3,12.02999997138977,learn,47970.00002861023,Mon Jun 22 2026 09:37:04 GMT-0500 (Central Daylight Time),333615.0,A,har,I,r,86,3,716.1999999992549,332898.80000000075,8075,WL,A,5.0
3,12.180000066757202,learn,47819.9999332428,Mon Jun 22 2026 09:37:04 GMT-0500 (Central Daylight Time),333764.90000000224,A,harp,I,p,136,3,866.1000000014901,332898.80000000075,8075,WL,A,5.0
3,12.46399998664856,learn,47536.00001335144,Mon Jun 22 2026 09:37:04 GMT-0500 (Central Daylight Time),334049.19999999925,A,harpenter,I,enter,267,3,1150.3999999985099,332898.80000000075,8075,WL,A,5.0
3,13.645999908447266,learn,46354.000091552734,Mon Jun 22 2026 09:37:04 GMT-0500 (Central Daylight Time),335231.19999999925,A,a,I,a,1175,3,1181.5999999977648,334049.6000000015,8075,WL,A,6.0
3,13.746000051498413,learn,46253.99994850159,Mon Jun 22 2026 09:37:04 GMT-0500 (Central Daylight Time),335331.1000000015,A,ap,I,p,80,3,1281.5,334049.6000000015,8075,WL,A,6.0
3,13.895999908447266,learn,46104.000091552734,Mon Jun 22 2026 09:37:04 GMT-0500 (Central Daylight Time),335481.30000000075,A,app,I,p,133,3,1431.699999999255,334049.6000000015,8075,WL,A,6.0
3,14.095999956130981,learn,45904.00004386902,Mon Jun 22 2026 09:37:04 GMT-0500 (Central Daylight Time),335681.1000000015,A,appl,I,l,191,3,1631.5,334049.6000000015,8075,WL,A,6.0
3,14.312999963760376,learn,45687.000036239624,Mon Jun 22 2026 09:37:04 GMT-0500 (Central Daylight Time),335897.80000000075,A,apple,I,e,199,3,1848.199999999255,334049.6000000015,8075,WL,A,6.0
3,14.496000051498413,learn,45503.99994850159,Mon Jun 22 2026 09:37:04 GMT-0500 (Central Daylight Time),336081.30000000075,A,appleenter,I,enter,175,3,2031.699999999255,334049.6000000015,8075,WL,A,6.0
3,14.69599986076355,learn,45304.00013923645,Mon Jun 22 2026 09:37:04 GMT-0500 (Central Daylight Time),336281.0,A,c,I,c,190,3,199.39999999850988,336081.6000000015,8075,WL,A,7.0
3,14.911999940872192,learn,45088.00005912781,Mon Jun 22 2026 09:37:04 GMT-0500 (Central Daylight Time),336497.40000000224,A,ch,I,h,207,3,415.80000000074506,336081.6000000015,8075,WL,A,7.0
3,15.095999956130981,learn,44904.00004386902,Mon Jun 22 2026 09:37:04 GMT-0500 (Central Daylight Time),336681.1000000015,A,chi,I,i,166,3,599.5,336081.6000000015,8075,WL,A,7.0
3,15.279000043869019,learn,44720.99995613098,Mon Jun 22 2026 09:37:04 GMT-0500 (Central Daylight Time),336864.0,A,chim,I,m,175,3,782.3999999985099,336081.6000000015,8075,WL,A,7.0
3,15.979000091552734,learn,44020.999908447266,Mon Jun 22 2026 09:37:04 GMT-0500 (Central Daylight Time),337563.80000000075,A,chimm,I,m,680,3,1482.199999999255,336081.6000000015,8075,WL,A,7.0
3,16.17899990081787,learn,43821.00009918213,Mon Jun 22 2026 09:37:04 GMT-0500 (Central Daylight Time),337763.80000000075,A,chimmn,I,n,188,3,1682.199999999255,336081.6000000015,8075,WL,A,7.0
3,16.32800006866455,learn,43671.99993133545,Mon Jun 22 2026 09:37:04 GMT-0500 (Central Daylight Time),337913.69999999925,A,chimmne,I,e,140,3,1832.0999999977648,336081.6000000015,8075,WL,A,7.0
3,16.411999940872192,learn,43588.00005912781,Mon Jun 22 2026 09:37:04 GMT-0500 (Central Daylight Time),337997.19999999925,A,chimmney,I,y,79,3,1915.5999999977648,336081.6000000015,8075,WL,A,7.0
3,18.67899990081787,learn,41321.00009918213,Mon Jun 22 2026 09:37:04 GMT-0500 (Central Daylight Time),340264.1000000015,A,chimmneyenter,I,enter,2251,3,4182.5,336081.6000000015,8075,WL,A,7.0
3,19.24399995803833,learn,40756.00004196167,Mon Jun 22 2026 09:37:04 GMT-0500 (Central Daylight Time),340829.6000000015,A,l,I,l,544,3,565.1999999992549,340264.40000000224,8075,WL,A,8.0
3,19.427000045776367,learn,40572.99995422363,Mon Jun 22 2026 09:37:04 GMT-0500 (Central Daylight Time),341012.5,A,lo,I,o,170,3,748.0999999977648,340264.40000000224,8075,WL,A,8.0
3,19.627000093460083,learn,40372.99990653992,Mon Jun 22 2026 09:37:04 GMT-0500 (Central Daylight Time),341212.5,A,log,I,g,187,3,948.0999999977648,340264.40000000224,8075,WL,A,8.0
3,19.74399995803833,learn,40256.00004196167,Mon Jun 22 2026 09:37:04 GMT-0500 (Central Daylight Time),341329.30000000075,A,logenter,I,enter,108,3,1064.8999999985099,340264.40000000224,8075,WL,A,8.0
3,20.111000061035156,learn,39888.999938964844,Mon Jun 22 2026 09:37:04 GMT-0500 (Central Daylight Time),341695.80000000075,A,k,I,k,351,3,366.19999999925494,341329.6000000015,8075,WL,A,9.0
3,20.210999965667725,learn,39789.000034332275,Mon Jun 22 2026 09:37:04 GMT-0500 (Central Daylight Time),341796.0,A,ke,I,e,89,3,466.3999999985099,341329.6000000015,8075,WL,A,9.0
3,20.32699990272522,learn,39673.00009727478,Mon Jun 22 2026 09:37:04 GMT-0500 (Central Daylight Time),341912.6000000015,A,key,I,y,99,3,583.0,341329.6000000015,8075,WL,A,9.0
3,20.59500002861023,learn,39404.99997138977,Mon Jun 22 2026 09:37:04 GMT-0500 (Central Daylight Time),342180.1000000015,A,keyenter,I,enter,248,3,850.5,341329.6000000015,8075,WL,A,9.0
3,24.55900001525879,learn,35440.99998474121,Mon Jun 22 2026 09:37:04 GMT-0500 (Central Daylight Time),346144.40000000224,A,g,I,g,3956,3,3964.0,342180.40000000224,8075,WL,A,10.0
3,24.658999919891357,learn,35341.00008010864,Mon Jun 22 2026 09:37:04 GMT-0500 (Central Daylight Time),346244.30000000075,A,go,I,o,79,3,4063.89999999851,342180.40000000224,8075,WL,A,10.0
3,24.842999935150146,learn,35157.00006484985,Mon Jun 22 2026 09:37:04 GMT-0500 (Central Daylight Time),346428.0,A,gol,I,l,172,3,4247.599999997765,342180.40000000224,8075,WL,A,10.0
3,24.95899987220764,learn,35041.00012779236,Mon Jun 22 2026 09:37:04 GMT-0500 (Central Daylight Time),346544.30000000075,A,gold,I,d,108,3,4363.89999999851,342180.40000000224,8075,WL,A,10.0
3,25.14299988746643,learn,34857.00011253357,Mon Jun 22 2026 09:37:04 GMT-0500 (Central Daylight Time),346728.6000000015,A,goldenter,I,enter,175,3,4548.199999999255,342180.40000000224,8075,WL,A,10.0
3,39.08800005912781,learn,20911.999940872192,Mon Jun 22 2026 09:37:04 GMT-0500 (Central Daylight Time),360673.30000000075,A,f,I,f,13936,3,13944.300000000745,346729.0,8075,WL,A,11.0
3,39.187999963760376,learn,20812.000036239624,Mon Jun 22 2026 09:37:04 GMT-0500 (Central Daylight Time),360773.19999999925,A,fi,I,i,87,3,14044.199999999255,346729.0,8075,WL,A,11.0
3,39.32099986076355,learn,20679.00013923645,Mon Jun 22 2026 09:37:04 GMT-0500 (Central Daylight Time),360906.30000000075,A,fin,I,n,123,3,14177.300000000745,346729.0,8075,WL,A,11.0
3,39.4539999961853,learn,20546.000003814697,Mon Jun 22 2026 09:37:04 GMT-0500 (Central Daylight Time),361039.80000000075,A,fing,I,g,116,3,14310.800000000745,346729.0,8075,WL,A,11.0
3,39.604000091552734,learn,20395.999908447266,Mon Jun 22 2026 09:37:04 GMT-0500 (Central Daylight Time),361189.90000000224,A,finge,I,e,136,3,14460.900000002235,346729.0,8075,WL,A,11.0
3,39.6710000038147,learn,20328.999996185303,Mon Jun 22 2026 09:37:04 GMT-0500 (Central Daylight Time),361256.6000000015,A,finger,I,r,50,3,14527.60000000149,346729.0,8075,WL,A,11.0
3,39.770999908447266,learn,20229.000091552734,Mon Jun 22 2026 09:37:04 GMT-0500 (Central Daylight Time),361356.40000000224,A,fingerenter,I,enter,88,3,14627.400000002235,346729.0,8075,WL,A,11.0
3,48.734999895095825,learn,11265.000104904175,Mon Jun 22 2026 09:37:04 GMT-0500 (Central Daylight Time),370320.30000000075,A,k,I,k,8956,3,8963.60000000149,361356.69999999925,8075,WL,A,12.0
3,48.86899995803833,learn,11131.00004196167,Mon Jun 22 2026 09:37:04 GMT-0500 (Central Daylight Time),370453.90000000224,A,ke,I,e,128,3,9097.20000000298,361356.69999999925,8075,WL,A,12.0
3,48.96799993515015,learn,11032.000064849854,Mon Jun 22 2026 09:37:04 GMT-0500 (Central Daylight Time),370553.69999999925,A,key,I,y,83,3,9197.0,361356.69999999925,8075,WL,A,12.0
3,49.13499999046326,learn,10865.000009536743,Mon Jun 22 2026 09:37:04 GMT-0500 (Central Daylight Time),370720.19999999925,A,keyenter,I,enter,151,3,9363.5,361356.69999999925,8075,WL,A,12.0
3,53.43400001525879,learn,6565.999984741211,Mon Jun 22 2026 09:37:04 GMT-0500 (Central Daylight Time),375019.80000000075,A,enter,I,enter,4288,3,4299.199999999255,370720.6000000015,8075,WL,A,13.0
3,54.09999990463257,learn,5900.000095367432,Mon Jun 22 2026 09:37:04 GMT-0500 (Central Daylight Time),375685.19999999925,A,enter,I,enter,645,3,665.0,375020.19999999925,8075,WL,A,14.0
3,54.53399991989136,learn,5466.000080108643,Mon Jun 22 2026 09:37:04 GMT-0500 (Central Daylight Time),376119.30000000075,A,enter,I,enter,427,3,433.69999999925494,375685.6000000015,8075,WL,A,15.0
4,0.3509998321533203,learn,59649.00016784668,Mon Jun 22 2026 09:37:04 GMT-0500 (Central Daylight Time),442281.19999999925,A,a,I,a,341,3,349.79999999701977,441931.40000000224,8075,WL,A,1.0
4,0.4500000476837158,learn,59549.999952316284,Mon Jun 22 2026 09:37:04 GMT-0500 (Central Daylight Time),442381.0,A,ap,I,p,85,3,449.5999999977648,441931.40000000224,8075,WL,A,1.0
4,0.6169998645782471,learn,59383.00013542175,Mon Jun 22 2026 09:37:04 GMT-0500 (Central Daylight Time),442547.40000000224,A,app,I,p,147,3,616.0,441931.40000000224,8075,WL,A,1.0
4,0.8169999122619629,learn,59183.00008773804,Mon Jun 22 2026 09:37:04 GMT-0500 (Central Daylight Time),442747.69999999925,A,appl,I,l,180,3,816.2999999970198,441931.40000000224,8075,WL,A,1.0
4,0.9670000076293945,learn,59032.999992370605,Mon Jun 22 2026 09:37:04 GMT-0500 (Central Daylight Time),442897.5,A,apple,I,e,133,3,966.0999999977648,441931.40000000224,8075,WL,A,1.0
4,1.116999864578247,learn,58883.00013542175,Mon Jun 22 2026 09:37:04 GMT-0500 (Central Daylight Time),443047.40000000224,A,appleenter,I,enter,134,3,1116.0,441931.40000000224,8075,WL,A,1.0
4,1.3339998722076416,learn,58666.00012779236,Mon Jun 22 2026 09:37:04 GMT-0500 (Central Daylight Time),443265.0,A,c,I,c,209,3,217.30000000074506,443047.69999999925,8075,WL,A,2.0
4,1.5169999599456787,learn,58483.00004005432,Mon Jun 22 2026 09:37:04 GMT-0500 (Central Daylight Time),443447.19999999925,A,ch,I,h,167,3,399.5,443047.69999999925,8075,WL,A,2.0
4,1.6670000553131104,learn,58332.99994468689,Mon Jun 22 2026 09:37:04 GMT-0500 (Central Daylight Time),443597.5,A,chi,I,i,137,3,549.8000000007451,443047.69999999925,8075,WL,A,2.0
4,1.8329999446868896,learn,58167.00005531311,Mon Jun 22 2026 09:37:04 GMT-0500 (Central Daylight Time),443764.0,A,chim,I,m,146,3,716.3000000007451,443047.69999999925,8075,WL,A,2.0
4,2.132999897003174,learn,57867.000102996826,Mon Jun 22 2026 09:37:04 GMT-0500 (Central Daylight Time),444063.69999999925,A,chimm,I,m,292,3,1016.0,443047.69999999925,8075,WL,A,2.0
4,2.315999984741211,learn,57684.00001525879,Mon Jun 22 2026 09:37:04 GMT-0500 (Central Daylight Time),444246.90000000224,A,chimmn,I,n,169,3,1199.2000000029802,443047.69999999925,8075,WL,A,2.0
4,2.450000047683716,learn,57549.999952316284,Mon Jun 22 2026 09:37:04 GMT-0500 (Central Daylight Time),444380.5,A,chimmne,I,e,121,3,1332.800000000745,443047.69999999925,8075,WL,A,2.0
4,2.549999952316284,learn,57450.000047683716,Mon Jun 22 2026 09:37:04 GMT-0500 (Central Daylight Time),444480.1000000015,A,chimmney,I,y,84,3,1432.4000000022352,443047.69999999925,8075,WL,A,2.0
4,2.882999897003174,learn,57117.000102996826,Mon Jun 22 2026 09:37:04 GMT-0500 (Central Daylight Time),444813.69999999925,A,chimmneyenter,I,enter,320,3,1766.0,443047.69999999925,8075,WL,A,2.0
4,3.200000047683716,learn,56799.999952316284,Mon Jun 22 2026 09:37:04 GMT-0500 (Central Daylight Time),445130.40000000224,A,b,I,b,299,3,316.4000000022352,444814.0,8075,WL,A,3.0
4,3.3329999446868896,learn,56667.00005531311,Mon Jun 22 2026 09:37:04 GMT-0500 (Central Daylight Time),445263.5,A,bu,I,u,126,3,449.5,444814.0,8075,WL,A,3.0
4,3.498999834060669,learn,56501.00016593933,Mon Jun 22 2026 09:37:04 GMT-0500 (Central Daylight Time),445430.0,A,but,I,t,161,3,616.0,444814.0,8075,WL,A,3.0
4,3.682999849319458,learn,56317.00015068054,Mon Jun 22 2026 09:37:04 GMT-0500 (Central Daylight Time),445613.30000000075,A,butt,I,t,162,3,799.3000000007451,444814.0,8075,WL,A,3.0
4,3.7829999923706055,learn,56217.000007629395,Mon Jun 22 2026 09:37:04 GMT-0500 (Central Daylight Time),445713.40000000224,A,butto,I,o,83,3,899.4000000022352,444814.0,8075,WL,A,3.0
4,3.9659998416900635,learn,56034.00015830994,Mon Jun 22 2026 09:37:04 GMT-0500 (Central Daylight Time),445896.5,A,button,I,n,166,3,1082.5,444814.0,8075,WL,A,3.0
4,4.198999881744385,learn,55801.000118255615,Mon Jun 22 2026 09:37:04 GMT-0500 (Central Daylight Time),446130.0,A,buttonenter,I,enter,224,3,1316.0,444814.0,8075,WL,A,3.0
4,4.448999881744385,learn,55551.000118255615,Mon Jun 22 2026 09:37:04 GMT-0500 (Central Daylight Time),446379.80000000075,A,l,I,l,238,3,249.5,446130.30000000075,8075,WL,A,4.0
4,4.648999929428101,learn,55351.0000705719,Mon Jun 22 2026 09:37:04 GMT-0500 (Central Daylight Time),446579.5,A,lo,I,o,180,3,449.19999999925494,446130.30000000075,8075,WL,A,4.0
4,4.815999984741211,learn,55184.00001525879,Mon Jun 22 2026 09:37:04 GMT-0500 (Central Daylight Time),446746.30000000075,A,log,I,g,149,3,616.0,446130.30000000075,8075,WL,A,4.0
4,5.131999969482422,learn,54868.00003051758,Mon Jun 22 2026 09:37:04 GMT-0500 (Central Daylight Time),447062.90000000224,A,logenter,I,enter,310,3,932.6000000014901,446130.30000000075,8075,WL,A,4.0
4,5.431999921798706,learn,54568.000078201294,Mon Jun 22 2026 09:37:04 GMT-0500 (Central Daylight Time),447362.80000000075,A,g,I,g,290,3,299.3999999985099,447063.40000000224,8075,WL,A,5.0
4,5.582000017166138,learn,54417.99998283386,Mon Jun 22 2026 09:37:04 GMT-0500 (Central Daylight Time),447512.69999999925,A,go,I,o,133,3,449.29999999701977,447063.40000000224,8075,WL,A,5.0
4,5.764999866485596,learn,54235.000133514404,Mon Jun 22 2026 09:37:04 GMT-0500 (Central Daylight Time),447696.1000000015,A,gol,I,l,176,3,632.6999999992549,447063.40000000224,8075,WL,A,5.0
4,5.931999921798706,learn,54068.000078201294,Mon Jun 22 2026 09:37:04 GMT-0500 (Central Daylight Time),447862.6000000015,A,gold,I,d,152,3,799.1999999992549,447063.40000000224,8075,WL,A,5.0
4,6.082000017166138,learn,53917.99998283386,Mon Jun 22 2026 09:37:04 GMT-0500 (Central Daylight Time),448012.80000000075,A,goldenter,I,enter,137,3,949.3999999985099,447063.40000000224,8075,WL,A,5.0
4,6.697999954223633,learn,53302.00004577637,Mon Jun 22 2026 09:37:04 GMT-0500 (Central Daylight Time),448629.1000000015,A,b,I,b,595,3,616.0,448013.1000000015,8075,WL,A,6.0
4,6.7820000648498535,learn,53217.99993515015,Mon Jun 22 2026 09:37:04 GMT-0500 (Central Daylight Time),448712.19999999925,A,bo,I,o,67,3,699.0999999977648,448013.1000000015,8075,WL,A,6.0
4,6.914999961853027,learn,53085.00003814697,Mon Jun 22 2026 09:37:04 GMT-0500 (Central Daylight Time),448845.6000000015,A,boo,I,o,119,3,832.5,448013.1000000015,8075,WL,A,6.0
4,7.014999866485596,learn,52985.000133514404,Mon Jun 22 2026 09:37:04 GMT-0500 (Central Daylight Time),448945.6000000015,A,book,I,k,83,3,932.5,448013.1000000015,8075,WL,A,6.0
4,7.230999946594238,learn,52769.00005340576,Mon Jun 22 2026 09:37:04 GMT-0500 (Central Daylight Time),449162.1000000015,A,bookenter,I,enter,199,3,1149.0,448013.1000000015,8075,WL,A,6.0
4,9.48199987411499,learn,50518.00012588501,Mon Jun 22 2026 09:37:04 GMT-0500 (Central Daylight Time),451412.6000000015,A,m,I,m,2238,3,2250.199999999255,449162.40000000224,8075,WL,A,7.0
4,9.680999994277954,learn,50319.000005722046,Mon Jun 22 2026 09:37:04 GMT-0500 (Central Daylight Time),451611.69999999925,A,me,I,e,188,3,2449.2999999970198,449162.40000000224,8075,WL,A,7.0
4,9.813999891281128,learn,50186.00010871887,Mon Jun 22 2026 09:37:04 GMT-0500 (Central Daylight Time),451744.6000000015,A,mea,I,a,116,3,2582.199999999255,449162.40000000224,8075,WL,A,7.0
4,10.030999898910522,learn,49969.00010108948,Mon Jun 22 2026 09:37:04 GMT-0500 (Central Daylight Time),451961.1000000015,A,mead,I,d,208,3,2798.699999999255,449162.40000000224,8075,WL,A,7.0
4,10.148000001907349,learn,49851.99999809265,Mon Jun 22 2026 09:37:04 GMT-0500 (Central Daylight Time),452078.90000000224,A,meado,I,o,103,3,2916.5,449162.40000000224,8075,WL,A,7.0
4,10.280999898910522,learn,49719.00010108948,Mon Jun 22 2026 09:37:04 GMT-0500 (Central Daylight Time),452211.40000000224,A,meadow,I,w,121,3,3049.0,449162.40000000224,8075,WL,A,7.0
4,10.430999994277954,learn,49569.000005722046,Mon Jun 22 2026 09:37:04 GMT-0500 (Central Daylight Time),452361.40000000224,A,meadowenter,I,enter,141,3,3199.0,449162.40000000224,8075,WL,A,7.0
4,10.79699993133545,learn,49203.00006866455,Mon Jun 22 2026 09:37:04 GMT-0500 (Central Daylight Time),452727.6000000015,A,t,I,t,358,3,365.9000000022352,452361.69999999925,8075,WL,A,8.0
4,10.980999946594238,learn,49019.00005340576,Mon Jun 22 2026 09:37:04 GMT-0500 (Central Daylight Time),452911.1000000015,A,tr,I,r,168,3,549.4000000022352,452361.69999999925,8075,WL,A,8.0
4,11.079999923706055,learn,48920.000076293945,Mon Jun 22 2026 09:37:04 GMT-0500 (Central Daylight Time),453010.80000000075,A,tra,I,a,88,3,649.1000000014901,452361.69999999925,8075,WL,A,8.0
4,11.19700002670288,learn,48802.99997329712,Mon Jun 22 2026 09:37:04 GMT-0500 (Central Daylight Time),453127.5,A,trai,I,i,109,3,765.8000000007451,452361.69999999925,8075,WL,A,8.0
4,11.313999891281128,learn,48686.00010871887,Mon Jun 22 2026 09:37:04 GMT-0500 (Central Daylight Time),453244.30000000075,A,train,I,n,105,3,882.6000000014901,452361.69999999925,8075,WL,A,8.0
4,11.562999963760376,learn,48437.000036239624,Mon Jun 22 2026 09:37:04 GMT-0500 (Central Daylight Time),453494.0,A,trainenter,I,enter,236,3,1132.300000000745,452361.69999999925,8075,WL,A,8.0
4,12.29699993133545,learn,47703.00006866455,Mon Jun 22 2026 09:37:04 GMT-0500 (Central Daylight Time),454227.1000000015,A,l,I,l,714,3,731.9000000022352,453495.19999999925,8075,WL,A,9.0
4,12.463000059127808,learn,47536.99994087219,Mon Jun 22 2026 09:37:04 GMT-0500 (Central Daylight Time),454394.1000000015,A,lo,I,o,156,3,898.9000000022352,453495.19999999925,8075,WL,A,9.0
4,12.580999851226807,learn,47419.00014877319,Mon Jun 22 2026 09:37:04 GMT-0500 (Central Daylight Time),454511.40000000224,A,log,I,g,111,3,1016.2000000029802,453495.19999999925,8075,WL,A,9.0
4,12.77999997138977,learn,47220.00002861023,Mon Jun 22 2026 09:37:04 GMT-0500 (Central Daylight Time),454710.90000000224,A,logenter,I,enter,184,3,1215.7000000029802,453495.19999999925,8075,WL,A,9.0
4,13.645999908447266,learn,46354.000091552734,Mon Jun 22 2026 09:37:04 GMT-0500 (Central Daylight Time),455576.69999999925,A,b,I,b,858,3,865.5999999977648,454711.1000000015,8075,WL,A,10.0
4,13.796000003814697,learn,46203.9999961853,Mon Jun 22 2026 09:37:04 GMT-0500 (Central Daylight Time),455726.80000000075,A,bu,I,u,135,3,1015.6999999992549,454711.1000000015,8075,WL,A,10.0
4,14.763000011444092,learn,45236.99998855591,Mon Jun 22 2026 09:37:04 GMT-0500 (Central Daylight Time),456693.19999999925,A,b,I,backspace,962,3,1982.0999999977648,454711.1000000015,8075,WL,A,10.0
4,14.978999853134155,learn,45021.000146865845,Mon Jun 22 2026 09:37:04 GMT-0500 (Central Daylight Time),456909.5,A,,I,backspace,211,3,2198.39999999851,454711.1000000015,8075,WL,A,10.0
4,16.161999940872192,learn,43838.00005912781,Mon Jun 22 2026 09:37:04 GMT-0500 (Central Daylight Time),458092.69999999925,A,f,I,f,1179,3,3381.599999997765,454711.1000000015,8075,WL,A,10.0
4,16.26199984550476,learn,43738.00015449524,Mon Jun 22 2026 09:37:04 GMT-0500 (Central Daylight Time),458192.69999999925,A,fl,I,l,91,3,3481.599999997765,454711.1000000015,8075,WL,A,10.0
4,16.411999940872192,learn,43588.00005912781,Mon Jun 22 2026 09:37:04 GMT-0500 (Central Daylight Time),458342.69999999925,A,flo,I,o,144,3,3631.599999997765,454711.1000000015,8075,WL,A,10.0
4,16.51199984550476,learn,43488.00015449524,Mon Jun 22 2026 09:37:04 GMT-0500 (Central Daylight Time),458442.5,A,flow,I,w,81,3,3731.39999999851,454711.1000000015,8075,WL,A,10.0
4,16.59500002861023,learn,43404.99997138977,Mon Jun 22 2026 09:37:04 GMT-0500 (Central Daylight Time),458525.90000000224,A,flowe,I,e,77,3,3814.800000000745,454711.1000000015,8075,WL,A,10.0
4,16.694999933242798,learn,43305.0000667572,Mon Jun 22 2026 09:37:04 GMT-0500 (Central Daylight Time),458625.90000000224,A,flower,I,r,89,3,3914.800000000745,454711.1000000015,8075,WL,A,10.0
4,16.77900004386902,learn,43220.99995613098,Mon Jun 22 2026 09:37:04 GMT-0500 (Central Daylight Time),458709.19999999925,A,flowerenter,I,enter,79,3,3998.099999997765,454711.1000000015,8075,WL,A,10.0
4,16.994999885559082,learn,43005.00011444092,Mon Jun 22 2026 09:37:04 GMT-0500 (Central Daylight Time),458925.80000000075,A,f,I,f,203,3,216.30000000074506,458709.5,8075,WL,A,11.0
4,17.111999988555908,learn,42888.00001144409,Mon Jun 22 2026 09:37:04 GMT-0500 (Central Daylight Time),459042.19999999925,A,fi,I,i,98,3,332.69999999925494,458709.5,8075,WL,A,11.0
4,17.210999965667725,learn,42789.000034332275,Mon Jun 22 2026 09:37:04 GMT-0500 (Central Daylight Time),459142.1000000015,A,fin,I,n,83,3,432.6000000014901,458709.5,8075,WL,A,11.0
4,17.310999870300293,learn,42689.00012969971,Mon Jun 22 2026 09:37:04 GMT-0500 (Central Daylight Time),459242.0,A,fing,I,g,81,3,532.5,458709.5,8075,WL,A,11.0
4,17.496000051498413,learn,42503.99994850159,Mon Jun 22 2026 09:37:04 GMT-0500 (Central Daylight Time),459426.80000000075,A,finge,I,e,166,3,717.3000000007451,458709.5,8075,WL,A,11.0
4,17.562000036239624,learn,42437.999963760376,Mon Jun 22 2026 09:37:04 GMT-0500 (Central Daylight Time),459492.30000000075,A,finger,I,r,54,3,782.8000000007451,458709.5,8075,WL,A,11.0
4,17.711999893188477,learn,42288.00010681152,Mon Jun 22 2026 09:37:04 GMT-0500 (Central Daylight Time),459642.30000000075,A,fingerenter,I,enter,132,3,932.8000000007451,458709.5,8075,WL,A,11.0
4,18.128000020980835,learn,41871.999979019165,Mon Jun 22 2026 09:37:04 GMT-0500 (Central Daylight Time),460058.80000000075,A,s,I,s,398,3,416.1000000014901,459642.69999999925,8075,WL,A,12.0
4,18.244999885559082,learn,41755.00011444092,Mon Jun 22 2026 09:37:04 GMT-0500 (Central Daylight Time),460175.5,A,sa,I,a,109,3,532.8000000007451,459642.69999999925,8075,WL,A,12.0
4,18.378000020980835,learn,41621.999979019165,Mon Jun 22 2026 09:37:04 GMT-0500 (Central Daylight Time),460308.5,A,sal,I,l,112,3,665.8000000007451,459642.69999999925,8075,WL,A,12.0
4,18.51099991798401,learn,41489.00008201599,Mon Jun 22 2026 09:37:04 GMT-0500 (Central Daylight Time),460442.80000000075,A,salt,I,t,116,3,800.1000000014901,459642.69999999925,8075,WL,A,12.0
4,18.644999980926514,learn,41355.000019073486,Mon Jun 22 2026 09:37:04 GMT-0500 (Central Daylight Time),460575.19999999925,A,saltenter,I,enter,126,3,932.5,459642.69999999925,8075,WL,A,12.0
4,18.961999893188477,learn,41038.00010681152,Mon Jun 22 2026 09:37:04 GMT-0500 (Central Daylight Time),460892.69999999925,A,h,I,h,296,3,317.0,460575.69999999925,8075,WL,A,13.0
4,19.060999870300293,learn,40939.00012969971,Mon Jun 22 2026 09:37:04 GMT-0500 (Central Daylight Time),460991.5,A,ha,I,a,84,3,415.80000000074506,460575.69999999925,8075,WL,A,13.0
4,19.144999980926514,learn,40855.000019073486,Mon Jun 22 2026 09:37:04 GMT-0500 (Central Daylight Time),461075.5,A,har,I,r,73,3,499.80000000074506,460575.69999999925,8075,WL,A,13.0
4,19.277999877929688,learn,40722.00012207031,Mon Jun 22 2026 09:37:04 GMT-0500 (Central Daylight Time),461208.40000000224,A,harp,I,p,116,3,632.7000000029802,460575.69999999925,8075,WL,A,13.0
4,19.460999965667725,learn,40539.000034332275,Mon Jun 22 2026 09:37:04 GMT-0500 (Central Daylight Time),461391.69999999925,A,harpenter,I,enter,176,3,816.0,460575.69999999925,8075,WL,A,13.0
4,45.8529999256134,learn,14147.000074386597,Mon Jun 22 2026 09:37:04 GMT-0500 (Central Daylight Time),487783.40000000224,A,enter,I,enter,26377,3,26391.300000000745,461392.1000000015,8075,WL,A,14.0
4,46.11899995803833,learn,13881.00004196167,Mon Jun 22 2026 09:37:04 GMT-0500 (Central Daylight Time),488050.0,A,enter,I,enter,249,3,266.19999999925494,487783.80000000075,8075,WL,A,15.0
5,0.39999985694885254,learn,60000.0,Mon Jun 22 2026 09:37:04 GMT-0500 (Central Daylight Time),555679.8000000007,A,a,I,a,385,3,399.69999999925494,555280.1000000015,8075,WL,A,1.0
5,0.49900007247924805,learn,60000.0,Mon Jun 22 2026 09:37:04 GMT-0500 (Central Daylight Time),555779.0,A,ap,I,p,87,3,498.8999999985099,555280.1000000015,8075,WL,A,1.0
5,0.6659998893737793,learn,60000.0,Mon Jun 22 2026 09:37:04 GMT-0500 (Central Daylight Time),555945.5,A,app,I,p,150,3,665.3999999985099,555280.1000000015,8075,WL,A,1.0
5,0.9289999008178711,learn,60000.0,Mon Jun 22 2026 09:37:04 GMT-0500 (Central Daylight Time),556209.1999999993,A,appl,I,l,125,3,929.0999999977648,555280.1000000015,8075,WL,A,1.0
5,0.934999942779541,learn,60000.0,Mon Jun 22 2026 09:37:04 GMT-0500 (Central Daylight Time),556214.9000000022,A,apple,I,e,1,3,934.8000000007451,555280.1000000015,8075,WL,A,1.0
5,1.0769999027252197,learn,60000.0,Mon Jun 22 2026 09:37:04 GMT-0500 (Central Daylight Time),556356.6999999993,A,appleenter,I,enter,120,3,1076.5999999977648,555280.1000000015,8075,WL,A,1.0
5,1.7149999141693115,learn,60000.0,Mon Jun 22 2026 09:37:04 GMT-0500 (Central Daylight Time),556995.3000000007,A,c,I,c,619,3,638.3000000007451,556357.0,8075,WL,A,2.0
5,1.8650000095367432,learn,60000.0,Mon Jun 22 2026 09:37:04 GMT-0500 (Central Daylight Time),557145.1000000015,A,ch,I,h,141,3,788.1000000014901,556357.0,8075,WL,A,2.0
5,2.0320000648498535,learn,60000.0,Mon Jun 22 2026 09:37:04 GMT-0500 (Central Daylight Time),557311.8000000007,A,chi,I,i,158,3,954.8000000007451,556357.0,8075,WL,A,2.0
5,2.180999994277954,learn,60000.0,Mon Jun 22 2026 09:37:04 GMT-0500 (Central Daylight Time),557461.3000000007,A,chim,I,m,143,3,1104.300000000745,556357.0,8075,WL,A,2.0
5,2.5149998664855957,learn,60000.0,Mon Jun 22 2026 09:37:04 GMT-0500 (Central Daylight Time),557795.0,A,chimm,I,m,323,3,1438.0,556357.0,8075,WL,A,2.0
5,2.7309999465942383,learn,60000.0,Mon Jun 22 2026 09:37:04 GMT-0500 (Central Daylight Time),558011.3000000007,A,chimmn,I,n,204,3,1654.300000000745,556357.0,8075,WL,A,2.0
5,2.8980000019073486,learn,60000.0,Mon Jun 22 2026 09:37:04 GMT-0500 (Central Daylight Time),558178.1999999993,A,chimmne,I,e,148,3,1821.199999999255,556357.0,8075,WL,A,2.0
5,2.9819998741149902,learn,60000.0,Mon Jun 22 2026 09:37:04 GMT-0500 (Central Daylight Time),558261.5,A,chimmney,I,y,70,3,1904.5,556357.0,8075,WL,A,2.0
5,3.197999954223633,learn,60000.0,Mon Jun 22 2026 09:37:04 GMT-0500 (Central Daylight Time),558477.9000000022,A,chimmneyenter,I,enter,210,3,2120.900000002235,556357.0,8075,WL,A,2.0
5,3.4639999866485596,learn,60000.0,Mon Jun 22 2026 09:37:04 GMT-0500 (Central Daylight Time),558744.5,A,b,I,b,259,3,266.30000000074506,558478.1999999993,8075,WL,A,3.0
5,3.614000082015991,learn,60000.0,Mon Jun 22 2026 09:37:04 GMT-0500 (Central Daylight Time),558894.4000000022,A,bu,I,u,144,3,416.20000000298023,558478.1999999993,8075,WL,A,3.0
5,3.7639999389648438,learn,60000.0,Mon Jun 22 2026 09:37:04 GMT-0500 (Central Daylight Time),559044.5,A,but,I,t,129,3,566.3000000007451,558478.1999999993,8075,WL,A,3.0
5,3.9489998817443848,learn,60000.0,Mon Jun 22 2026 09:37:04 GMT-0500 (Central Daylight Time),559228.6999999993,A,butt,I,t,163,3,750.5,558478.1999999993,8075,WL,A,3.0
5,4.0309998989105225,learn,60000.0,Mon Jun 22 2026 09:37:04 GMT-0500 (Central Daylight Time),559311.1000000015,A,butto,I,o,76,3,832.9000000022352,558478.1999999993,8075,WL,A,3.0
5,4.148000001907349,learn,60000.0,Mon Jun 22 2026 09:37:04 GMT-0500 (Central Daylight Time),559427.8000000007,A,button,I,n,105,3,949.6000000014901,558478.1999999993,8075,WL,A,3.0
5,4.397000074386597,learn,60000.0,Mon Jun 22 2026 09:37:04 GMT-0500 (Central Daylight Time),559677.1999999993,A,buttonenter,I,enter,245,3,1199.0,558478.1999999993,8075,WL,A,3.0
5,4.664000034332275,learn,60000.0,Mon Jun 22 2026 09:37:04 GMT-0500 (Central Daylight Time),559944.4000000022,A,l,I,l,251,3,266.9000000022352,559677.5,8075,WL,A,4.0
5,4.832000017166138,learn,60000.0,Mon Jun 22 2026 09:37:04 GMT-0500 (Central Daylight Time),560111.6000000015,A,lo,I,o,160,3,434.1000000014901,559677.5,8075,WL,A,4.0
5,5.013999938964844,learn,60000.0,Mon Jun 22 2026 09:37:04 GMT-0500 (Central Daylight Time),560293.9000000022,A,log,I,g,169,3,616.4000000022352,559677.5,8075,WL,A,4.0
5,5.230000019073486,learn,60000.0,Mon Jun 22 2026 09:37:04 GMT-0500 (Central Daylight Time),560510.5,A,logenter,I,enter,211,3,833.0,559677.5,8075,WL,A,4.0
5,6.296999931335449,learn,60000.0,Mon Jun 22 2026 09:37:04 GMT-0500 (Central Daylight Time),561576.9000000022,A,k,I,k,1050,3,1066.2000000029802,560510.6999999993,8075,WL,A,5.0
5,6.397000074386597,learn,60000.0,Mon Jun 22 2026 09:37:04 GMT-0500 (Central Daylight Time),561676.8000000007,A,ke,I,e,95,3,1166.1000000014901,560510.6999999993,8075,WL,A,5.0
5,6.513999938964844,learn,60000.0,Mon Jun 22 2026 09:37:04 GMT-0500 (Central Daylight Time),561793.6000000015,A,key,I,y,108,3,1282.9000000022352,560510.6999999993,8075,WL,A,5.0
5,6.697000026702881,learn,60000.0,Mon Jun 22 2026 09:37:04 GMT-0500 (Central Daylight Time),561976.6999999993,A,keyenter,I,enter,174,3,1466.0,560510.6999999993,8075,WL,A,5.0
5,7.129999876022339,learn,60000.0,Mon Jun 22 2026 09:37:04 GMT-0500 (Central Daylight Time),562410.1000000015,A,g,I,g,416,3,433.1000000014901,561977.0,8075,WL,A,6.0
5,7.213000059127808,learn,60000.0,Mon Jun 22 2026 09:37:04 GMT-0500 (Central Daylight Time),562493.0,A,go,I,o,77,3,516.0,561977.0,8075,WL,A,6.0
5,7.398000001907349,learn,60000.0,Mon Jun 22 2026 09:37:04 GMT-0500 (Central Daylight Time),562677.6000000015,A,gol,I,l,171,3,700.6000000014901,561977.0,8075,WL,A,6.0
5,7.546999931335449,learn,60000.0,Mon Jun 22 2026 09:37:04 GMT-0500 (Central Daylight Time),562826.5,A,gold,I,d,129,3,849.5,561977.0,8075,WL,A,6.0
5,8.978999853134155,learn,60000.0,Mon Jun 22 2026 09:37:04 GMT-0500 (Central Daylight Time),564259.3000000007,A,goldenter,I,enter,1422,3,2282.300000000745,561977.0,8075,WL,A,6.0
5,9.662999868392944,learn,60000.0,Mon Jun 22 2026 09:37:04 GMT-0500 (Central Daylight Time),564942.6000000015,A,b,I,b,669,3,682.9000000022352,564259.6999999993,8075,WL,A,7.0
5,9.796000003814697,learn,60000.0,Mon Jun 22 2026 09:37:04 GMT-0500 (Central Daylight Time),565075.9000000022,A,bo,I,o,113,3,816.2000000029802,564259.6999999993,8075,WL,A,7.0
5,9.961999893188477,learn,60000.0,Mon Jun 22 2026 09:37:04 GMT-0500 (Central Daylight Time),565242.4000000022,A,boo,I,o,149,3,982.7000000029802,564259.6999999993,8075,WL,A,7.0
5,10.062000036239624,learn,60000.0,Mon Jun 22 2026 09:37:04 GMT-0500 (Central Daylight Time),565342.3000000007,A,book,I,k,94,3,1082.6000000014901,564259.6999999993,8075,WL,A,7.0
5,10.345999956130981,learn,60000.0,Mon Jun 22 2026 09:37:04 GMT-0500 (Central Daylight Time),565625.8000000007,A,bookenter,I,enter,274,3,1366.1000000014901,564259.6999999993,8075,WL,A,7.0
5,10.76200008392334,learn,60000.0,Mon Jun 22 2026 09:37:04 GMT-0500 (Central Daylight Time),566042.4000000022,A,f,I,f,407,3,416.20000000298023,565626.1999999993,8075,WL,A,8.0
5,10.845999956130981,learn,60000.0,Mon Jun 22 2026 09:37:04 GMT-0500 (Central Daylight Time),566125.6000000015,A,fl,I,l,70,3,499.4000000022352,565626.1999999993,8075,WL,A,8.0
5,10.994999885559082,learn,60000.0,Mon Jun 22 2026 09:37:04 GMT-0500 (Central Daylight Time),566275.4000000022,A,flo,I,o,138,3,649.2000000029802,565626.1999999993,8075,WL,A,8.0
5,11.062000036239624,learn,60000.0,Mon Jun 22 2026 09:37:04 GMT-0500 (Central Daylight Time),566341.8000000007,A,flow,I,w,61,3,715.6000000014901,565626.1999999993,8075,WL,A,8.0
5,11.145999908447266,learn,60000.0,Mon Jun 22 2026 09:37:04 GMT-0500 (Central Daylight Time),566425.6999999993,A,flowe,I,e,75,3,799.5,565626.1999999993,8075,WL,A,8.0
5,11.228999853134155,learn,60000.0,Mon Jun 22 2026 09:37:04 GMT-0500 (Central Daylight Time),566509.0,A,flower,I,r,71,3,882.8000000007451,565626.1999999993,8075,WL,A,8.0
5,11.361999988555908,learn,60000.0,Mon Jun 22 2026 09:37:04 GMT-0500 (Central Daylight Time),566641.6999999993,A,flowerenter,I,enter,115,3,1015.5,565626.1999999993,8075,WL,A,8.0
5,11.779000043869019,learn,60000.0,Mon Jun 22 2026 09:37:04 GMT-0500 (Central Daylight Time),567058.6000000015,A,m,I,m,399,3,416.5,566642.1000000015,8075,WL,A,9.0
5,11.86299991607666,learn,60000.0,Mon Jun 22 2026 09:37:04 GMT-0500 (Central Daylight Time),567142.6999999993,A,me,I,e,77,3,500.5999999977648,566642.1000000015,8075,WL,A,9.0
5,11.978999853134155,learn,60000.0,Mon Jun 22 2026 09:37:04 GMT-0500 (Central Daylight Time),567258.6000000015,A,mea,I,a,105,3,616.5,566642.1000000015,8075,WL,A,9.0
5,12.295000076293945,learn,60000.0,Mon Jun 22 2026 09:37:04 GMT-0500 (Central Daylight Time),567575.1999999993,A,mead,I,d,310,3,933.0999999977648,566642.1000000015,8075,WL,A,9.0
5,12.444999933242798,learn,60000.0,Mon Jun 22 2026 09:37:04 GMT-0500 (Central Daylight Time),567724.6000000015,A,meado,I,o,129,3,1082.5,566642.1000000015,8075,WL,A,9.0
5,12.545000076293945,learn,60000.0,Mon Jun 22 2026 09:37:04 GMT-0500 (Central Daylight Time),567825.0,A,meadow,I,w,84,3,1182.8999999985099,566642.1000000015,8075,WL,A,9.0
5,12.644999980926514,learn,60000.0,Mon Jun 22 2026 09:37:04 GMT-0500 (Central Daylight Time),567924.8000000007,A,meadowenter,I,enter,95,3,1282.699999999255,566642.1000000015,8075,WL,A,9.0
5,15.976999998092651,learn,60000.0,Mon Jun 22 2026 09:37:04 GMT-0500 (Central Daylight Time),571257.1999999993,A,f,I,f,3316,3,3332.199999999255,567925.0,8075,WL,A,10.0
5,16.07800006866455,learn,60000.0,Mon Jun 22 2026 09:37:04 GMT-0500 (Central Daylight Time),571358.1999999993,A,fi,I,i,79,3,3433.199999999255,567925.0,8075,WL,A,10.0
5,16.194000005722046,learn,60000.0,Mon Jun 22 2026 09:37:04 GMT-0500 (Central Daylight Time),571474.0,A,fin,I,n,106,3,3549.0,567925.0,8075,WL,A,10.0
5,16.295000076293945,learn,60000.0,Mon Jun 22 2026 09:37:04 GMT-0500 (Central Daylight Time),571574.8000000007,A,fing,I,g,95,3,3649.800000000745,567925.0,8075,WL,A,10.0
5,16.49399995803833,learn,60000.0,Mon Jun 22 2026 09:37:04 GMT-0500 (Central Daylight Time),571774.4000000022,A,finge,I,e,186,3,3849.400000002235,567925.0,8075,WL,A,10.0
5,16.644999980926514,learn,60000.0,Mon Jun 22 2026 09:37:04 GMT-0500 (Central Daylight Time),571924.6999999993,A,finger,I,r,129,3,3999.699999999255,567925.0,8075,WL,A,10.0
5,17.043999910354614,learn,60000.0,Mon Jun 22 2026 09:37:04 GMT-0500 (Central Daylight Time),572323.5,A,fingerenter,I,enter,387,3,4398.5,567925.0,8075,WL,A,10.0
5,17.259999990463257,learn,60000.0,Mon Jun 22 2026 09:37:04 GMT-0500 (Central Daylight Time),572540.3000000007,A,s,I,s,205,3,216.39999999850988,572323.9000000022,8075,WL,A,11.0
5,17.39400005340576,learn,60000.0,Mon Jun 22 2026 09:37:04 GMT-0500 (Central Daylight Time),572673.6000000015,A,sa,I,a,124,3,349.69999999925494,572323.9000000022,8075,WL,A,11.0
5,17.526999950408936,learn,60000.0,Mon Jun 22 2026 09:37:04 GMT-0500 (Central Daylight Time),572806.9000000022,A,sal,I,l,118,3,483.0,572323.9000000022,8075,WL,A,11.0
5,17.710999965667725,learn,60000.0,Mon Jun 22 2026 09:37:04 GMT-0500 (Central Daylight Time),572991.0,A,salt,I,t,178,3,667.0999999977648,572323.9000000022,8075,WL,A,11.0
5,17.943000078201294,learn,60000.0,Mon Jun 22 2026 09:37:04 GMT-0500 (Central Daylight Time),573223.3000000007,A,saltenter,I,enter,217,3,899.3999999985099,572323.9000000022,8075,WL,A,11.0
5,18.960000038146973,learn,60000.0,Mon Jun 22 2026 09:37:04 GMT-0500 (Central Daylight Time),574239.6999999993,A,h,I,h,1008,3,1016.0999999977648,573223.6000000015,8075,WL,A,12.0
5,19.092999935150146,learn,60000.0,Mon Jun 22 2026 09:37:04 GMT-0500 (Central Daylight Time),574373.1999999993,A,ha,I,a,121,3,1149.5999999977648,573223.6000000015,8075,WL,A,12.0
5,19.2260000705719,learn,60000.0,Mon Jun 22 2026 09:37:04 GMT-0500 (Central Daylight Time),574506.4000000022,A,har,I,r,124,3,1282.800000000745,573223.6000000015,8075,WL,A,12.0
5,19.4760000705719,learn,60000.0,Mon Jun 22 2026 09:37:04 GMT-0500 (Central Daylight Time),574756.0,A,harp,I,p,238,3,1532.3999999985099,573223.6000000015,8075,WL,A,12.0
5,21.609999895095825,learn,60000.0,Mon Jun 22 2026 09:37:04 GMT-0500 (Central Daylight Time),576889.8000000007,A,harpenter,I,enter,2117,3,3666.199999999255,573223.6000000015,8075,WL,A,12.0
5,21.991999864578247,learn,60000.0,Mon Jun 22 2026 09:37:04 GMT-0500 (Central Daylight Time),577272.1000000015,A,f,I,f,366,3,382.0,576890.1000000015,8075,WL,A,13.0
5,22.075000047683716,learn,60000.0,Mon Jun 22 2026 09:37:04 GMT-0500 (Central Daylight Time),577355.5,A,fl,I,l,63,3,465.3999999985099,576890.1000000015,8075,WL,A,13.0
5,22.20799994468689,learn,60000.0,Mon Jun 22 2026 09:37:04 GMT-0500 (Central Daylight Time),577488.4000000022,A,flo,I,o,116,3,598.3000000007451,576890.1000000015,8075,WL,A,13.0
5,22.274999856948853,learn,60000.0,Mon Jun 22 2026 09:37:04 GMT-0500 (Central Daylight Time),577555.5,A,flow,I,w,47,3,665.3999999985099,576890.1000000015,8075,WL,A,13.0
5,22.325999975204468,learn,60000.0,Mon Jun 22 2026 09:37:04 GMT-0500 (Central Daylight Time),577605.8000000007,A,flowe,I,e,36,3,715.6999999992549,576890.1000000015,8075,WL,A,13.0
5,22.425999879837036,learn,60000.0,Mon Jun 22 2026 09:37:04 GMT-0500 (Central Daylight Time),577705.6999999993,A,flower,I,r,82,3,815.5999999977648,576890.1000000015,8075,WL,A,13.0
5,22.54099988937378,learn,60000.0,Mon Jun 22 2026 09:37:04 GMT-0500 (Central Daylight Time),577821.4000000022,A,flowerenter,I,enter,111,3,931.3000000007451,576890.1000000015,8075,WL,A,13.0
5,31.388999938964844,learn,60000.0,Mon Jun 22 2026 09:37:04 GMT-0500 (Central Daylight Time),586669.1000000015,A,g,I,g,8835,3,8847.5,577821.6000000015,8075,WL,A,14.0
5,31.539000034332275,learn,60000.0,Mon Jun 22 2026 09:37:04 GMT-0500 (Central Daylight Time),586819.1000000015,A,go,I,o,130,3,8997.5,577821.6000000015,8075,WL,A,14.0
5,31.772000074386597,learn,60000.0,Mon Jun 22 2026 09:37:04 GMT-0500 (Central Daylight Time),587052.3000000007,A,gol,I,l,212,3,9230.699999999255,577821.6000000015,8075,WL,A,14.0
5,32.0550000667572,learn,60000.0,Mon Jun 22 2026 09:37:04 GMT-0500 (Central Daylight Time),587335.4000000022,A,gold,I,d,276,3,9513.800000000745,577821.6000000015,8075,WL,A,14.0
5,32.17199993133545,learn,60000.0,Mon Jun 22 2026 09:37:04 GMT-0500 (Central Daylight Time),587452.0,A,goldenter,I,enter,96,3,9630.39999999851,577821.6000000015,8075,WL,A,14.0
5,33.621999979019165,learn,60000.0,Mon Jun 22 2026 09:37:04 GMT-0500 (Central Daylight Time),588902.3000000007,A,enter,I,enter,1437,3,1449.8999999985099,587452.4000000022,8075,WL,A,15.0
6,1.067000150680542,distr,58932.99984931946,Mon Jun 22 2026 09:37:04 GMT-0500 (Central Daylight Time),657946.9000000022,B,b,I,b,1057,3,1066.4000000022352,656880.5,8075,WL,A,1.0
6,1.2330000400543213,distr,58766.99995994568,Mon Jun 22 2026 09:37:04 GMT-0500 (Central Daylight Time),658113.1999999993,B,bo,I,o,156,3,1232.699999999255,656880.5,8075,WL,A,1.0
6,1.3500001430511475,distr,58649.99985694885,Mon Jun 22 2026 09:37:04 GMT-0500 (Central Daylight Time),658230.0,B,bow,I,w,103,3,1349.5,656880.5,8075,WL,A,1.0
6,1.5499999523162842,distr,58450.000047683716,Mon Jun 22 2026 09:37:04 GMT-0500 (Central Daylight Time),658429.8000000007,B,bowl,I,l,186,3,1549.300000000745,656880.5,8075,WL,A,1.0
6,1.8330001831054688,distr,58166.99981689453,Mon Jun 22 2026 09:37:04 GMT-0500 (Central Daylight Time),658713.1999999993,B,bowlenter,I,enter,274,3,1832.699999999255,656880.5,8075,WL,A,1.0
6,2.366000175476074,distr,57633.999824523926,Mon Jun 22 2026 09:37:04 GMT-0500 (Central Daylight Time),659246.3000000007,B,d,I,d,527,3,532.6999999992549,658713.6000000015,8075,WL,A,2.0
6,2.5830001831054688,distr,57416.99981689453,Mon Jun 22 2026 09:37:04 GMT-0500 (Central Daylight Time),659462.9000000022,B,da,I,a,202,3,749.3000000007451,658713.6000000015,8075,WL,A,2.0
6,3.116000175476074,distr,56883.999824523926,Mon Jun 22 2026 09:37:04 GMT-0500 (Central Daylight Time),659996.1000000015,B,daw,I,w,522,3,1282.5,658713.6000000015,8075,WL,A,2.0
6,3.3320000171661377,distr,56667.99998283386,Mon Jun 22 2026 09:37:04 GMT-0500 (Central Daylight Time),660212.6999999993,B,dawn,I,n,196,3,1499.0999999977648,658713.6000000015,8075,WL,A,2.0
6,3.567000150680542,distr,56432.99984931946,Mon Jun 22 2026 09:37:04 GMT-0500 (Central Daylight Time),660447.0,B,dawnenter,I,enter,228,3,1733.3999999985099,658713.6000000015,8075,WL,A,2.0
6,4.39900016784668,distr,55600.99983215332,Mon Jun 22 2026 09:37:04 GMT-0500 (Central Daylight Time),661279.0,B,b,I,b,825,3,831.6999999992549,660447.3000000007,8075,WL,A,3.0
6,5.098999977111816,distr,54901.00002288818,Mon Jun 22 2026 09:37:04 GMT-0500 (Central Daylight Time),661979.0,B,,I,backspace,689,3,1531.699999999255,660447.3000000007,8075,WL,A,3.0
6,5.430999994277954,distr,54569.000005722046,Mon Jun 22 2026 09:37:04 GMT-0500 (Central Daylight Time),662311.6999999993,B,c,I,c,325,3,1864.3999999985099,660447.3000000007,8075,WL,A,3.0
6,5.565000057220459,distr,54434.99994277954,Mon Jun 22 2026 09:37:04 GMT-0500 (Central Daylight Time),662445.3000000007,B,co,I,o,113,3,1998.0,660447.3000000007,8075,WL,A,3.0
6,5.5980000495910645,distr,54401.999950408936,Mon Jun 22 2026 09:37:04 GMT-0500 (Central Daylight Time),662478.6999999993,B,cou,I,u,19,3,2031.3999999985099,660447.3000000007,8075,WL,A,3.0
6,5.781000137329102,distr,54218.9998626709,Mon Jun 22 2026 09:37:04 GMT-0500 (Central Daylight Time),662661.6000000015,B,cout,I,t,178,3,2214.300000000745,660447.3000000007,8075,WL,A,3.0
6,6.230999946594238,distr,53769.00005340576,Mon Jun 22 2026 09:37:04 GMT-0500 (Central Daylight Time),663111.5,B,cou,I,backspace,442,3,2664.199999999255,660447.3000000007,8075,WL,A,3.0
6,6.447999954223633,distr,53552.00004577637,Mon Jun 22 2026 09:37:04 GMT-0500 (Central Daylight Time),663328.3000000007,B,coun,I,n,201,3,2881.0,660447.3000000007,8075,WL,A,3.0
6,6.598999977111816,distr,53401.00002288818,Mon Jun 22 2026 09:37:04 GMT-0500 (Central Daylight Time),663479.5,B,count,I,t,144,3,3032.199999999255,660447.3000000007,8075,WL,A,3.0
6,6.7820000648498535,distr,53217.99993515015,Mon Jun 22 2026 09:37:04 GMT-0500 (Central Daylight Time),663661.8000000007,B,countr,I,r,169,3,3214.5,660447.3000000007,8075,WL,A,3.0
6,6.831000089645386,distr,53168.999910354614,Mon Jun 22 2026 09:37:04 GMT-0500 (Central Daylight Time),663711.6000000015,B,country,I,y,35,3,3264.300000000745,660447.3000000007,8075,WL,A,3.0
6,6.982000112533569,distr,53017.99988746643,Mon Jun 22 2026 09:37:04 GMT-0500 (Central Daylight Time),663861.8000000007,B,countryenter,I,enter,145,3,3414.5,660447.3000000007,8075,WL,A,3.0
6,7.664000034332275,distr,52335.999965667725,Mon Jun 22 2026 09:37:04 GMT-0500 (Central Daylight Time),664544.6000000015,B,s,I,s,674,3,682.6000000014901,663862.0,8075,WL,A,4.0
6,8.180999994277954,distr,51819.000005722046,Mon Jun 22 2026 09:37:04 GMT-0500 (Central Daylight Time),665061.3000000007,B,se,I,e,496,3,1199.300000000745,663862.0,8075,WL,A,4.0
6,8.364000082015991,distr,51635.99991798401,Mon Jun 22 2026 09:37:04 GMT-0500 (Central Daylight Time),665244.4000000022,B,see,I,e,171,3,1382.4000000022352,663862.0,8075,WL,A,4.0
6,8.54800009727478,distr,51451.99990272522,Mon Jun 22 2026 09:37:04 GMT-0500 (Central Daylight Time),665427.9000000022,B,seed,I,d,163,3,1565.9000000022352,663862.0,8075,WL,A,4.0
6,8.647000074386597,distr,51352.9999256134,Mon Jun 22 2026 09:37:04 GMT-0500 (Central Daylight Time),665527.6999999993,B,seedenter,I,enter,84,3,1665.699999999255,663862.0,8075,WL,A,4.0
6,8.814000129699707,distr,51185.99987030029,Mon Jun 22 2026 09:37:04 GMT-0500 (Central Daylight Time),665694.3000000007,B,s,I,s,153,3,166.30000000074506,665528.0,8075,WL,A,5.0
6,8.88100004196167,distr,51118.99995803833,Mon Jun 22 2026 09:37:04 GMT-0500 (Central Daylight Time),665760.8000000007,B,sh,I,h,58,3,232.80000000074506,665528.0,8075,WL,A,5.0
6,8.996999979019165,distr,51003.000020980835,Mon Jun 22 2026 09:37:04 GMT-0500 (Central Daylight Time),665877.4000000022,B,she,I,e,103,3,349.4000000022352,665528.0,8075,WL,A,5.0
6,9.147000074386597,distr,50852.9999256134,Mon Jun 22 2026 09:37:04 GMT-0500 (Central Daylight Time),666027.4000000022,B,shee,I,e,139,3,499.4000000022352,665528.0,8075,WL,A,5.0
6,9.264000177383423,distr,50735.99982261658,Mon Jun 22 2026 09:37:04 GMT-0500 (Central Daylight Time),666144.1000000015,B,sheep,I,p,108,3,616.1000000014901,665528.0,8075,WL,A,5.0
6,9.547000169754028,distr,50452.99983024597,Mon Jun 22 2026 09:37:04 GMT-0500 (Central Daylight Time),666427.4000000022,B,sheepenter,I,enter,272,3,899.4000000022352,665528.0,8075,WL,A,5.0
6,9.781000137329102,distr,50218.9998626709,Mon Jun 22 2026 09:37:04 GMT-0500 (Central Daylight Time),666661.6999999993,B,j,I,j,213,3,234.09999999776483,666427.6000000015,8075,WL,A,6.0
6,9.914000034332275,distr,50085.999965667725,Mon Jun 22 2026 09:37:04 GMT-0500 (Central Daylight Time),666794.0,B,ju,I,u,114,3,366.3999999985099,666427.6000000015,8075,WL,A,6.0
6,9.996999979019165,distr,50003.000020980835,Mon Jun 22 2026 09:37:04 GMT-0500 (Central Daylight Time),666877.1000000015,B,jud,I,d,78,3,449.5,666427.6000000015,8075,WL,A,6.0
6,10.114000082015991,distr,49885.99991798401,Mon Jun 22 2026 09:37:04 GMT-0500 (Central Daylight Time),666993.9000000022,B,judg,I,g,108,3,566.3000000007451,666427.6000000015,8075,WL,A,6.0
6,10.230000019073486,distr,49769.999980926514,Mon Jun 22 2026 09:37:04 GMT-0500 (Central Daylight Time),667110.6000000015,B,judge,I,e,102,3,683.0,666427.6000000015,8075,WL,A,6.0
6,10.413000106811523,distr,49586.99989318848,Mon Jun 22 2026 09:37:04 GMT-0500 (Central Daylight Time),667293.6000000015,B,judgeenter,I,enter,178,3,866.0,666427.6000000015,8075,WL,A,6.0
6,15.695000171661377,distr,44304.99982833862,Mon Jun 22 2026 09:37:04 GMT-0500 (Central Daylight Time),672575.5,B,j,I,j,5275,3,5281.599999997765,667293.9000000022,8075,WL,A,7.0
6,15.894999980926514,distr,44105.000019073486,Mon Jun 22 2026 09:37:04 GMT-0500 (Central Daylight Time),672775.3000000007,B,ju,I,u,184,3,5481.39999999851,667293.9000000022,8075,WL,A,7.0
6,15.979000091552734,distr,44020.999908447266,Mon Jun 22 2026 09:37:04 GMT-0500 (Central Daylight Time),672858.8000000007,B,jud,I,d,73,3,5564.89999999851,667293.9000000022,8075,WL,A,7.0
6,16.09500002861023,distr,43904.99997138977,Mon Jun 22 2026 09:37:04 GMT-0500 (Central Daylight Time),672975.4000000022,B,judg,I,g,110,3,5681.5,667293.9000000022,8075,WL,A,7.0
6,16.228000164031982,distr,43771.99983596802,Mon Jun 22 2026 09:37:04 GMT-0500 (Central Daylight Time),673108.6000000015,B,judge,I,e,128,3,5814.699999999255,667293.9000000022,8075,WL,A,7.0
6,16.41200017929077,distr,43587.99982070923,Mon Jun 22 2026 09:37:04 GMT-0500 (Central Daylight Time),673291.9000000022,B,judgeenter,I,enter,163,3,5998.0,667293.9000000022,8075,WL,A,7.0
6,20.89400005340576,distr,39105.99994659424,Mon Jun 22 2026 09:37:04 GMT-0500 (Central Daylight Time),677774.0,B,enter,I,enter,4468,3,4481.800000000745,673292.1999999993,8075,WL,A,8.0
6,21.127000093460083,distr,38872.99990653992,Mon Jun 22 2026 09:37:04 GMT-0500 (Central Daylight Time),678007.1000000015,B,enter,I,enter,218,3,232.80000000074506,677774.3000000007,8075,WL,A,9.0
6,21.39300012588501,distr,38606.99987411499,Mon Jun 22 2026 09:37:04 GMT-0500 (Central Daylight Time),678273.6999999993,B,enter,I,enter,250,3,266.19999999925494,678007.5,8075,WL,A,10.0
6,21.694000005722046,distr,38305.999994277954,Mon Jun 22 2026 09:37:04 GMT-0500 (Central Daylight Time),678573.9000000022,B,enter,I,enter,287,3,299.9000000022352,678274.0,8075,WL,A,11.0
6,21.97699999809265,distr,38023.00000190735,Mon Jun 22 2026 09:37:04 GMT-0500 (Central Daylight Time),678856.8000000007,B,enter,I,enter,265,3,282.5,678574.3000000007,8075,WL,A,12.0
6,22.276000022888184,distr,37723.99997711182,Mon Jun 22 2026 09:37:04 GMT-0500 (Central Daylight Time),679156.6000000015,B,enter,I,enter,280,3,299.5,678857.1000000015,8075,WL,A,13.0
6,22.66000008583069,distr,37339.99991416931,Mon Jun 22 2026 09:37:04 GMT-0500 (Central Daylight Time),679540.1000000015,B,enter,I,enter,372,3,383.19999999925494,679156.9000000022,8075,WL,A,14.0
6,23.042999982833862,distr,36957.00001716614,Mon Jun 22 2026 09:37:04 GMT-0500 (Central Daylight Time),679923.3000000007,B,enter,I,enter,373,3,382.8999999985099,679540.4000000022,8075,WL,A,15.0
7,0.6669998168945312,immed,59333.00018310547,Mon Jun 22 2026 09:37:04 GMT-0500 (Central Daylight Time),693252.1000000015,A,m,I,m,655,3,666.1999999992549,692585.9000000022,8075,WL,A,1.0
7,0.7839999198913574,immed,59216.00008010864,Mon Jun 22 2026 09:37:04 GMT-0500 (Central Daylight Time),693369.1000000015,A,me,I,e,99,3,783.1999999992549,692585.9000000022,8075,WL,A,1.0
7,0.8839998245239258,immed,59116.000175476074,Mon Jun 22 2026 09:37:04 GMT-0500 (Central Daylight Time),693469.1000000015,A,mea,I,a,87,3,883.1999999992549,692585.9000000022,8075,WL,A,1.0
7,1.0839998722076416,immed,58916.00012779236,Mon Jun 22 2026 09:37:04 GMT-0500 (Central Daylight Time),693669.0,A,mead,I,d,179,3,1083.0999999977648,692585.9000000022,8075,WL,A,1.0
7,1.1669998168945312,immed,58833.00018310547,Mon Jun 22 2026 09:37:04 GMT-0500 (Central Daylight Time),693752.1000000015,A,meado,I,o,67,3,1166.199999999255,692585.9000000022,8075,WL,A,1.0
7,1.2839999198913574,immed,58716.00008010864,Mon Jun 22 2026 09:37:04 GMT-0500 (Central Daylight Time),693868.8000000007,A,meadow,I,w,112,3,1282.8999999985099,692585.9000000022,8075,WL,A,1.0
7,1.4829998016357422,immed,58517.00019836426,Mon Jun 22 2026 09:37:04 GMT-0500 (Central Daylight Time),694068.8000000007,A,meadowenter,I,enter,180,3,1482.8999999985099,692585.9000000022,8075,WL,A,1.0
7,1.684000015258789,immed,58315.99998474121,Mon Jun 22 2026 09:37:04 GMT-0500 (Central Daylight Time),694269.5,A,f,I,f,180,3,200.39999999850988,694069.1000000015,8075,WL,A,2.0
7,1.7669999599456787,immed,58233.00004005432,Mon Jun 22 2026 09:37:04 GMT-0500 (Central Daylight Time),694352.0,A,fl,I,l,74,3,282.8999999985099,694069.1000000015,8075,WL,A,2.0
7,1.932999849319458,immed,58067.00015068054,Mon Jun 22 2026 09:37:04 GMT-0500 (Central Daylight Time),694518.6000000015,A,flo,I,o,161,3,449.5,694069.1000000015,8075,WL,A,2.0
7,1.9670000076293945,immed,58032.999992370605,Mon Jun 22 2026 09:37:04 GMT-0500 (Central Daylight Time),694551.8000000007,A,flow,I,w,26,3,482.69999999925494,694069.1000000015,8075,WL,A,2.0
7,2.066999912261963,immed,57933.00008773804,Mon Jun 22 2026 09:37:04 GMT-0500 (Central Daylight Time),694651.8000000007,A,flowe,I,e,88,3,582.6999999992549,694069.1000000015,8075,WL,A,2.0
7,2.1999998092651367,immed,57800.00019073486,Mon Jun 22 2026 09:37:04 GMT-0500 (Central Daylight Time),694785.1000000015,A,flower,I,r,125,3,716.0,694069.1000000015,8075,WL,A,2.0
7,2.299999952316284,immed,57700.000047683716,Mon Jun 22 2026 09:37:04 GMT-0500 (Central Daylight Time),694885.1000000015,A,flowerenter,I,enter,95,3,816.0,694069.1000000015,8075,WL,A,2.0
7,6.9649999141693115,immed,53035.00008583069,Mon Jun 22 2026 09:37:04 GMT-0500 (Central Daylight Time),699550.3000000007,A,f,I,f,4652,3,4665.10000000149,694885.1999999993,8075,WL,A,3.0
7,7.082000017166138,immed,52917.99998283386,Mon Jun 22 2026 09:37:04 GMT-0500 (Central Daylight Time),699667.1999999993,A,fi,I,i,106,3,4782.0,694885.1999999993,8075,WL,A,3.0
7,7.23199987411499,immed,52768.00012588501,Mon Jun 22 2026 09:37:04 GMT-0500 (Central Daylight Time),699817.0,A,fin,I,n,140,3,4931.800000000745,694885.1999999993,8075,WL,A,3.0
7,7.365000009536743,immed,52634.99999046326,Mon Jun 22 2026 09:37:04 GMT-0500 (Central Daylight Time),699950.0,A,fing,I,g,127,3,5064.800000000745,694885.1999999993,8075,WL,A,3.0
7,7.580999851226807,immed,52419.00014877319,Mon Jun 22 2026 09:37:04 GMT-0500 (Central Daylight Time),700166.5,A,finge,I,e,202,3,5281.300000000745,694885.1999999993,8075,WL,A,3.0
7,7.680999994277954,immed,52319.000005722046,Mon Jun 22 2026 09:37:04 GMT-0500 (Central Daylight Time),700266.6000000015,A,finger,I,r,81,3,5381.400000002235,694885.1999999993,8075,WL,A,3.0
7,7.847999811172485,immed,52152.000188827515,Mon Jun 22 2026 09:37:04 GMT-0500 (Central Daylight Time),700433.1000000015,A,fingerenter,I,enter,149,3,5547.900000002235,694885.1999999993,8075,WL,A,3.0
7,12.212999820709229,immed,47787.00017929077,Mon Jun 22 2026 09:37:04 GMT-0500 (Central Daylight Time),704798.6999999993,A,s,I,s,4351,3,4365.29999999702,700433.4000000022,8075,WL,A,4.0
7,12.329999923706055,immed,47670.000076293945,Mon Jun 22 2026 09:37:04 GMT-0500 (Central Daylight Time),704915.4000000022,A,sa,I,a,105,3,4482.0,700433.4000000022,8075,WL,A,4.0
7,12.398000001907349,immed,47601.99999809265,Mon Jun 22 2026 09:37:04 GMT-0500 (Central Daylight Time),704982.9000000022,A,sal,I,l,61,3,4549.5,700433.4000000022,8075,WL,A,4.0
7,12.562999963760376,immed,47437.000036239624,Mon Jun 22 2026 09:37:04 GMT-0500 (Central Daylight Time),705148.6000000015,A,salt,I,t,145,3,4715.199999999255,700433.4000000022,8075,WL,A,4.0
7,12.712999820709229,immed,47287.00017929077,Mon Jun 22 2026 09:37:04 GMT-0500 (Central Daylight Time),705298.5,A,saltenter,I,enter,132,3,4865.099999997765,700433.4000000022,8075,WL,A,4.0
7,13.162999868392944,immed,46837.000131607056,Mon Jun 22 2026 09:37:04 GMT-0500 (Central Daylight Time),705748.4000000022,A,h,I,h,438,3,449.6000000014901,705298.8000000007,8075,WL,A,5.0
7,13.280999898910522,immed,46719.00010108948,Mon Jun 22 2026 09:37:04 GMT-0500 (Central Daylight Time),705865.9000000022,A,ha,I,a,108,3,567.1000000014901,705298.8000000007,8075,WL,A,5.0
7,13.379999876022339,immed,46620.00012397766,Mon Jun 22 2026 09:37:04 GMT-0500 (Central Daylight Time),705965.1999999993,A,har,I,r,88,3,666.3999999985099,705298.8000000007,8075,WL,A,5.0
7,13.495999813079834,immed,46504.000186920166,Mon Jun 22 2026 09:37:04 GMT-0500 (Central Daylight Time),706081.6000000015,A,harp,I,p,107,3,782.8000000007451,705298.8000000007,8075,WL,A,5.0
7,13.730000019073486,immed,46269.999980926514,Mon Jun 22 2026 09:37:04 GMT-0500 (Central Daylight Time),706315.0,A,harpenter,I,enter,215,3,1016.1999999992549,705298.8000000007,8075,WL,A,5.0
7,15.628999948501587,immed,44371.00005149841,Mon Jun 22 2026 09:37:04 GMT-0500 (Central Daylight Time),708214.1999999993,A,a,I,a,1886,3,1898.8999999985099,706315.3000000007,8075,WL,A,6.0
7,15.728999853134155,immed,44271.000146865845,Mon Jun 22 2026 09:37:04 GMT-0500 (Central Daylight Time),708314.3000000007,A,ap,I,p,90,3,1999.0,706315.3000000007,8075,WL,A,6.0
7,15.878999948501587,immed,44121.00005149841,Mon Jun 22 2026 09:37:04 GMT-0500 (Central Daylight Time),708464.1999999993,A,app,I,p,141,3,2148.89999999851,706315.3000000007,8075,WL,A,6.0
7,16.061999797821045,immed,43938.000202178955,Mon Jun 22 2026 09:37:04 GMT-0500 (Central Daylight Time),708647.5,A,appl,I,l,176,3,2332.199999999255,706315.3000000007,8075,WL,A,6.0
7,16.194999933242798,immed,43805.0000667572,Mon Jun 22 2026 09:37:04 GMT-0500 (Central Daylight Time),708780.6999999993,A,apple,I,e,113,3,2465.39999999851,706315.3000000007,8075,WL,A,6.0
7,16.611999988555908,immed,43388.00001144409,Mon Jun 22 2026 09:37:04 GMT-0500 (Central Daylight Time),709197.0,A,appleenter,I,enter,412,3,2881.699999999255,706315.3000000007,8075,WL,A,6.0
7,16.911999940872192,immed,43088.00005912781,Mon Jun 22 2026 09:37:04 GMT-0500 (Central Daylight Time),709497.3000000007,A,c,I,c,291,3,300.0,709197.3000000007,8075,WL,A,7.0
7,17.044999837875366,immed,42955.000162124634,Mon Jun 22 2026 09:37:04 GMT-0500 (Central Daylight Time),709630.8000000007,A,ch,I,h,119,3,433.5,709197.3000000007,8075,WL,A,7.0
7,17.294999837875366,immed,42705.000162124634,Mon Jun 22 2026 09:37:04 GMT-0500 (Central Daylight Time),709880.5,A,chi,I,i,242,3,683.1999999992549,709197.3000000007,8075,WL,A,7.0
7,17.628000020980835,immed,42371.999979019165,Mon Jun 22 2026 09:37:04 GMT-0500 (Central Daylight Time),710213.5,A,chim,I,m,328,3,1016.1999999992549,709197.3000000007,8075,WL,A,7.0
7,17.861999988555908,immed,42138.00001144409,Mon Jun 22 2026 09:37:04 GMT-0500 (Central Daylight Time),710447.6000000015,A,chimm,I,m,219,3,1250.300000000745,709197.3000000007,8075,WL,A,7.0
7,18.044999837875366,immed,41955.000162124634,Mon Jun 22 2026 09:37:04 GMT-0500 (Central Daylight Time),710630.5,A,chimmn,I,n,169,3,1433.199999999255,709197.3000000007,8075,WL,A,7.0
7,18.17799997329712,immed,41822.00002670288,Mon Jun 22 2026 09:37:04 GMT-0500 (Central Daylight Time),710763.5,A,chimmne,I,e,114,3,1566.199999999255,709197.3000000007,8075,WL,A,7.0
7,18.26199984550476,immed,41738.00015449524,Mon Jun 22 2026 09:37:04 GMT-0500 (Central Daylight Time),710847.6999999993,A,chimmney,I,y,77,3,1650.3999999985099,709197.3000000007,8075,WL,A,7.0
7,18.444999933242798,immed,41555.0000667572,Mon Jun 22 2026 09:37:04 GMT-0500 (Central Daylight Time),711030.1999999993,A,chimmneyenter,I,enter,169,3,1832.8999999985099,709197.3000000007,8075,WL,A,7.0
7,25.991999864578247,immed,34008.00013542175,Mon Jun 22 2026 09:37:04 GMT-0500 (Central Daylight Time),718577.6000000015,A,g,I,g,7530,3,7547.10000000149,711030.5,8075,WL,A,8.0
7,26.092000007629395,immed,33907.999992370605,Mon Jun 22 2026 09:37:04 GMT-0500 (Central Daylight Time),718677.6000000015,A,go,I,o,93,3,7647.10000000149,711030.5,8075,WL,A,8.0
7,26.30900001525879,immed,33690.99998474121,Mon Jun 22 2026 09:37:04 GMT-0500 (Central Daylight Time),718894.4000000022,A,gol,I,l,204,3,7863.900000002235,711030.5,8075,WL,A,8.0
7,26.441999912261963,immed,33558.00008773804,Mon Jun 22 2026 09:37:04 GMT-0500 (Central Daylight Time),719027.9000000022,A,gold,I,d,122,3,7997.400000002235,711030.5,8075,WL,A,8.0
7,26.574999809265137,immed,33425.00019073486,Mon Jun 22 2026 09:37:04 GMT-0500 (Central Daylight Time),719160.8000000007,A,goldenter,I,enter,124,3,8130.300000000745,711030.5,8075,WL,A,8.0
7,44.269999980926514,immed,15730.000019073486,Mon Jun 22 2026 09:37:04 GMT-0500 (Central Daylight Time),736855.6000000015,A,f,I,f,17680,3,17694.5,719161.1000000015,8075,WL,A,9.0
7,44.419999837875366,immed,15580.000162124634,Mon Jun 22 2026 09:37:04 GMT-0500 (Central Daylight Time),737005.4000000022,A,fl,I,l,136,3,17844.300000000745,719161.1000000015,8075,WL,A,9.0
7,44.68599987030029,immed,15314.000129699707,Mon Jun 22 2026 09:37:04 GMT-0500 (Central Daylight Time),737271.9000000022,A,flo,I,o,259,3,18110.800000000745,719161.1000000015,8075,WL,A,9.0
7,44.83699989318848,immed,15163.000106811523,Mon Jun 22 2026 09:37:04 GMT-0500 (Central Daylight Time),737422.9000000022,A,flow,I,w,145,3,18261.800000000745,719161.1000000015,8075,WL,A,9.0
7,44.88699984550476,immed,15113.00015449524,Mon Jun 22 2026 09:37:04 GMT-0500 (Central Daylight Time),737472.1999999993,A,flowe,I,e,41,3,18311.099999997765,719161.1000000015,8075,WL,A,9.0
7,45.019999980926514,immed,14980.000019073486,Mon Jun 22 2026 09:37:04 GMT-0500 (Central Daylight Time),737605.0,A,flower,I,r,128,3,18443.89999999851,719161.1000000015,8075,WL,A,9.0
7,45.169999837875366,immed,14830.000162124634,Mon Jun 22 2026 09:37:04 GMT-0500 (Central Daylight Time),737755.1000000015,A,flowerenter,I,enter,140,3,18594.0,719161.1000000015,8075,WL,A,9.0
7,50.817999839782715,immed,9182.000160217285,Mon Jun 22 2026 09:37:04 GMT-0500 (Central Daylight Time),743403.1999999993,A,b,I,b,5629,3,5647.89999999851,737755.3000000007,8075,WL,A,10.0
7,50.88499999046326,immed,9115.000009536743,Mon Jun 22 2026 09:37:04 GMT-0500 (Central Daylight Time),743470.8000000007,A,bu,I,u,61,3,5715.5,737755.3000000007,8075,WL,A,10.0
7,51.03399991989136,immed,8966.000080108643,Mon Jun 22 2026 09:37:04 GMT-0500 (Central Daylight Time),743619.6000000015,A,but,I,t,129,3,5864.300000000745,737755.3000000007,8075,WL,A,10.0
7,51.18400001525879,immed,8815.999984741211,Mon Jun 22 2026 09:37:04 GMT-0500 (Central Daylight Time),743769.6999999993,A,butt,I,t,133,3,6014.39999999851,737755.3000000007,8075,WL,A,10.0
7,51.25099992752075,immed,8749.000072479248,Mon Jun 22 2026 09:37:04 GMT-0500 (Central Daylight Time),743836.4000000022,A,butto,I,o,55,3,6081.10000000149,737755.3000000007,8075,WL,A,10.0
7,51.35099983215332,immed,8649.00016784668,Mon Jun 22 2026 09:37:04 GMT-0500 (Central Daylight Time),743936.1999999993,A,button,I,n,92,3,6180.89999999851,737755.3000000007,8075,WL,A,10.0
7,51.46799993515015,immed,8532.000064849854,Mon Jun 22 2026 09:37:04 GMT-0500 (Central Daylight Time),744053.1000000015,A,buttonenter,I,enter,104,3,6297.800000000745,737755.3000000007,8075,WL,A,10.0
7,60.014999866485596,immed,-14.999866485595703,Mon Jun 22 2026 09:37:04 GMT-0500 (Central Daylight Time),752600.6000000015,A,None,I,None,8542,3,8547.10000000149,744053.5,8075,WL,A,11.0
