acc_sum,block,block_c,change,condition,correct,correct_response,datetime,endtime,face,project,response,response_time,row_sel,session_number,start_end,starttime,subject_id,task,task_vers,trial
0,prac,1,,1-Back,,,Tue Aug 06 2024 18:04:19 GMT-0500 (Central Daylight Time),,124_o_f_d_a.png,O,space,16916,1,1,,,7009,VNB,A,0
1,prac,1,0.0,1-Back,1,m,Tue Aug 06 2024 18:04:19 GMT-0500 (Central Daylight Time),145088.60000000056,071_y_f_n_a.png,O,m,1233,2,1,2042.0,143046.60000000056,7009,VNB,A,1
2,prac,1,0.0,1-Back,1,m,Tue Aug 06 2024 18:04:19 GMT-0500 (Central Daylight Time),147052.7999999998,165_m_m_h_a.png,O,m,1147,3,1,1955.3999999994412,145097.40000000037,7009,VNB,A,2
2,prac,1,0.0,1-Back,0,m,Tue Aug 06 2024 18:04:19 GMT-0500 (Central Daylight Time),148802.2000000002,109_y_m_d_a.png,O,z,942,4,1,1741.0999999996275,147061.10000000056,7009,VNB,A,3
3,prac,1,0.0,1-Back,1,m,Tue Aug 06 2024 18:04:19 GMT-0500 (Central Daylight Time),151167.90000000037,124_o_f_n_a.png,O,m,1520,5,1,2357.7000000001863,148810.2000000002,7009,VNB,A,4
4,prac,1,1.0,1-Back,1,z,Tue Aug 06 2024 18:04:19 GMT-0500 (Central Daylight Time),153434.0,109_y_m_n_a.png,O,z,1460,6,1,2258.7000000001863,151175.2999999998,7009,VNB,A,5
5,prac,1,0.0,1-Back,1,m,Tue Aug 06 2024 18:04:19 GMT-0500 (Central Daylight Time),155266.7999999998,039_o_m_h_a.png,O,m,1024,7,1,1824.7999999998137,153442.0,7009,VNB,A,6
6,prac,1,0.0,1-Back,1,m,Tue Aug 06 2024 18:04:19 GMT-0500 (Central Daylight Time),157316.0,139_m_f_d_a.png,O,m,1246,8,1,2041.2000000001863,155274.7999999998,7009,VNB,A,7
7,prac,1,1.0,1-Back,1,z,Tue Aug 06 2024 18:04:19 GMT-0500 (Central Daylight Time),159015.7000000002,071_y_f_d_a.png,O,z,893,9,1,1691.0999999996275,157324.60000000056,7009,VNB,A,8
8,prac,1,0.0,1-Back,1,m,Tue Aug 06 2024 18:04:19 GMT-0500 (Central Daylight Time),160665.2000000002,165_m_m_n_a.png,O,m,849,10,1,1641.7999999998137,159023.40000000037,7009,VNB,A,9
9,prac,1,0.0,1-Back,1,m,Tue Aug 06 2024 18:04:19 GMT-0500 (Central Daylight Time),162564.40000000037,124_o_f_h_a.png,O,m,1071,11,1,1891.7000000001863,160672.7000000002,7009,VNB,A,10
9,prac,1,0.0,1-Back,0,m,Tue Aug 06 2024 18:04:19 GMT-0500 (Central Daylight Time),164230.7999999998,109_y_m_d_a.png,O,z,878,12,1,1659.0,162571.7999999998,7009,VNB,A,11
0,test,1,0.0,1-Back,,,Tue Aug 06 2024 18:04:19 GMT-0500 (Central Daylight Time),164230.7999999998,071_y_f_d_a.png,O,space,15139,1,1,1659.0,162571.7999999998,7009,VNB,A,0
1,test,1,0.0,1-Back,1,m,Tue Aug 06 2024 18:04:19 GMT-0500 (Central Daylight Time),194254.7000000002,139_m_f_n_a.png,O,m,727,2,1,1742.0,192512.7000000002,7009,VNB,A,1
2,test,1,0.0,1-Back,1,m,Tue Aug 06 2024 18:04:19 GMT-0500 (Central Daylight Time),196170.2999999998,039_o_m_h_a.png,O,m,899,3,1,1909.3999999994412,194260.90000000037,7009,VNB,A,2
3,test,1,1.0,1-Back,1,z,Tue Aug 06 2024 18:04:19 GMT-0500 (Central Daylight Time),198236.60000000056,165_m_m_h_a.png,O,z,1047,4,1,2059.9000000003725,196176.7000000002,7009,VNB,A,3
4,test,1,0.0,1-Back,1,m,Tue Aug 06 2024 18:04:19 GMT-0500 (Central Daylight Time),200169.2000000002,124_o_f_n_a.png,O,m,909,5,1,1925.7999999998137,198243.40000000037,7009,VNB,A,4
4,test,1,0.0,1-Back,0,m,Tue Aug 06 2024 18:04:19 GMT-0500 (Central Daylight Time),202635.10000000056,109_y_m_d_a.png,O,z,1448,6,1,2459.2000000001863,200175.90000000037,7009,VNB,A,5
5,test,1,1.0,1-Back,1,z,Tue Aug 06 2024 18:04:19 GMT-0500 (Central Daylight Time),204602.40000000037,139_m_f_d_a.png,O,z,942,7,1,1960.6000000005588,202641.7999999998,7009,VNB,A,6
6,test,1,0.0,1-Back,1,m,Tue Aug 06 2024 18:04:19 GMT-0500 (Central Daylight Time),206717.2000000002,071_y_f_h_a.png,O,m,1096,8,1,2108.0,204609.2000000002,7009,VNB,A,7
7,test,1,0.0,1-Back,1,m,Tue Aug 06 2024 18:04:19 GMT-0500 (Central Daylight Time),208766.5,039_o_m_n_a.png,O,m,1028,9,1,2041.8999999994412,206724.60000000056,7009,VNB,A,8
8,test,1,0.0,1-Back,1,m,Tue Aug 06 2024 18:04:19 GMT-0500 (Central Daylight Time),210715.7999999998,109_y_m_h_a.png,O,m,931,10,1,1942.7999999998137,208773.0,7009,VNB,A,9
9,test,1,0.0,1-Back,1,m,Tue Aug 06 2024 18:04:19 GMT-0500 (Central Daylight Time),212816.5,039_o_m_d_a.png,O,m,1069,11,1,2094.2000000001863,210722.2999999998,7009,VNB,A,10
10,test,1,1.0,1-Back,1,z,Tue Aug 06 2024 18:04:19 GMT-0500 (Central Daylight Time),214897.90000000037,124_o_f_d_a.png,O,z,1050,12,1,2075.0,212822.90000000037,7009,VNB,A,11
11,test,1,0.0,1-Back,1,m,Tue Aug 06 2024 18:04:19 GMT-0500 (Central Daylight Time),217147.10000000056,165_m_m_n_a.png,O,m,1231,13,1,2242.600000000559,214904.5,7009,VNB,A,12
12,test,1,1.0,1-Back,1,z,Tue Aug 06 2024 18:04:19 GMT-0500 (Central Daylight Time),219196.7999999998,071_y_f_n_a.png,O,z,1022,14,1,2043.5,217153.2999999998,7009,VNB,A,13
13,test,1,0.0,1-Back,1,m,Tue Aug 06 2024 18:04:19 GMT-0500 (Central Daylight Time),221412.7000000002,139_m_f_h_a.png,O,m,1189,15,1,2209.0999999996275,219203.60000000056,7009,VNB,A,14
14,test,1,0.0,1-Back,1,m,Tue Aug 06 2024 18:04:19 GMT-0500 (Central Daylight Time),223812.10000000056,165_m_m_d_a.png,O,m,1373,16,1,2392.600000000559,221419.5,7009,VNB,A,15
15,test,1,0.0,1-Back,1,m,Tue Aug 06 2024 18:04:19 GMT-0500 (Central Daylight Time),226061.40000000037,109_y_m_n_a.png,O,m,1221,17,1,2242.4000000003725,223819.0,7009,VNB,A,16
16,test,1,0.0,1-Back,1,m,Tue Aug 06 2024 18:04:19 GMT-0500 (Central Daylight Time),228193.7999999998,124_o_f_h_a.png,O,m,1108,18,1,2126.199999999255,226067.60000000056,7009,VNB,A,17
0,test,2,0.0,1-Back,,,Tue Aug 06 2024 18:04:19 GMT-0500 (Central Daylight Time),228193.7999999998,109_y_m_n_a.png,O,space,5159,1,1,2126.199999999255,226067.60000000056,7009,VNB,A,0
1,test,2,0.0,1-Back,1,m,Tue Aug 06 2024 18:04:19 GMT-0500 (Central Daylight Time),237557.40000000037,071_y_f_h_a.png,O,m,1129,2,1,2142.2000000001863,235415.2000000002,7009,VNB,A,1
2,test,2,1.0,1-Back,1,m,Tue Aug 06 2024 18:04:19 GMT-0500 (Central Daylight Time),239607.10000000056,039_o_m_n_a.png,O,m,1028,3,1,2042.7000000001863,237564.40000000037,7009,VNB,A,2
2,test,2,0.0,1-Back,0,m,Tue Aug 06 2024 18:04:19 GMT-0500 (Central Daylight Time),241673.0,139_m_f_d_a.png,O,z,1033,4,1,2059.2000000001863,239613.7999999998,7009,VNB,A,3
3,test,2,0.0,1-Back,1,z,Tue Aug 06 2024 18:04:19 GMT-0500 (Central Daylight Time),243555.7999999998,165_m_m_d_a.png,O,z,856,5,1,1875.8999999994412,241679.90000000037,7009,VNB,A,4
4,test,2,0.0,1-Back,1,m,Tue Aug 06 2024 18:04:19 GMT-0500 (Central Daylight Time),245605.2000000002,109_y_m_h_a.png,O,m,1028,6,1,2042.7999999998137,243562.40000000037,7009,VNB,A,5
5,test,2,1.0,1-Back,1,z,Tue Aug 06 2024 18:04:19 GMT-0500 (Central Daylight Time),247554.5,124_o_f_h_a.png,O,z,932,7,1,1942.2999999998137,245612.2000000002,7009,VNB,A,6
6,test,2,0.0,1-Back,1,m,Tue Aug 06 2024 18:04:19 GMT-0500 (Central Daylight Time),249620.40000000037,139_m_f_n_a.png,O,m,1047,8,1,2059.2000000001863,247561.2000000002,7009,VNB,A,7
7,test,2,0.0,1-Back,1,m,Tue Aug 06 2024 18:04:19 GMT-0500 (Central Daylight Time),252102.90000000037,071_y_f_d_a.png,O,m,1453,9,1,2476.0,249626.90000000037,7009,VNB,A,8
8,test,2,0.0,1-Back,1,m,Tue Aug 06 2024 18:04:19 GMT-0500 (Central Daylight Time),254102.2000000002,165_m_m_n_a.png,O,m,978,10,1,1992.2000000001863,252110.0,7009,VNB,A,9
9,test,2,1.0,1-Back,1,m,Tue Aug 06 2024 18:04:19 GMT-0500 (Central Daylight Time),256218.2000000002,139_m_f_h_a.png,O,m,1099,11,1,2109.2000000001863,254109.0,7009,VNB,A,10
10,test,2,0.0,1-Back,1,z,Tue Aug 06 2024 18:04:19 GMT-0500 (Central Daylight Time),258234.40000000037,039_o_m_h_a.png,O,z,983,12,1,2009.6000000005588,256224.7999999998,7009,VNB,A,11
11,test,2,0.0,1-Back,1,m,Tue Aug 06 2024 18:04:19 GMT-0500 (Central Daylight Time),260250.5,109_y_m_d_a.png,O,m,999,13,1,2009.3999999994412,258241.10000000056,7009,VNB,A,12
12,test,2,0.0,1-Back,1,m,Tue Aug 06 2024 18:04:19 GMT-0500 (Central Daylight Time),262512.9000000004,124_o_f_n_a.png,O,m,1246,14,1,2255.7999999998137,260257.10000000056,7009,VNB,A,13
13,test,2,0.0,1-Back,1,z,Tue Aug 06 2024 18:04:19 GMT-0500 (Central Daylight Time),264515.7000000002,071_y_f_n_a.png,O,z,973,15,1,1995.7999999998137,262519.9000000004,7009,VNB,A,14
14,test,2,1.0,1-Back,1,m,Tue Aug 06 2024 18:04:19 GMT-0500 (Central Daylight Time),266831.7999999998,165_m_m_h_a.png,O,m,1286,16,1,2309.5,264522.2999999998,7009,VNB,A,15
15,test,2,0.0,1-Back,1,m,Tue Aug 06 2024 18:04:19 GMT-0500 (Central Daylight Time),268964.2999999998,124_o_f_d_a.png,O,m,1106,17,1,2125.7999999998137,266838.5,7009,VNB,A,16
16,test,2,1.0,1-Back,1,z,Tue Aug 06 2024 18:04:19 GMT-0500 (Central Daylight Time),271030.2999999998,039_o_m_d_a.png,O,z,1045,18,1,2059.0999999996275,268971.2000000002,7009,VNB,A,17
0,test,3,1.0,1-Back,,,Tue Aug 06 2024 18:04:19 GMT-0500 (Central Daylight Time),271030.2999999998,124_o_f_h_a.png,O,space,4155,1,1,2059.0999999996275,268971.2000000002,7009,VNB,A,0
1,test,3,0.0,1-Back,1,m,Tue Aug 06 2024 18:04:19 GMT-0500 (Central Daylight Time),279078.0,139_m_f_d_a.png,O,m,812,2,1,1825.5,277252.5,7009,VNB,A,1
2,test,3,1.0,1-Back,1,m,Tue Aug 06 2024 18:04:19 GMT-0500 (Central Daylight Time),281226.7999999998,165_m_m_n_a.png,O,m,1131,3,1,2142.199999999255,279084.60000000056,7009,VNB,A,2
3,test,3,0.0,1-Back,1,z,Tue Aug 06 2024 18:04:19 GMT-0500 (Central Daylight Time),283243.2999999998,124_o_f_n_a.png,O,z,998,4,1,2009.699999999255,281233.60000000056,7009,VNB,A,3
4,test,3,1.0,1-Back,1,m,Tue Aug 06 2024 18:04:19 GMT-0500 (Central Daylight Time),285792.2999999998,039_o_m_d_a.png,O,m,1526,5,1,2542.2999999998137,283250.0,7009,VNB,A,4
5,test,3,0.0,1-Back,1,m,Tue Aug 06 2024 18:04:19 GMT-0500 (Central Daylight Time),287876.2000000002,071_y_f_h_a.png,O,m,1065,6,1,2077.4000000003725,285798.7999999998,7009,VNB,A,5
6,test,3,0.0,1-Back,1,z,Tue Aug 06 2024 18:04:19 GMT-0500 (Central Daylight Time),289857.60000000056,109_y_m_h_a.png,O,z,950,7,1,1974.2000000001863,287883.4000000004,7009,VNB,A,6
7,test,3,0.0,1-Back,1,m,Tue Aug 06 2024 18:04:19 GMT-0500 (Central Daylight Time),291873.60000000056,139_m_f_n_a.png,O,m,991,8,1,2009.1000000005588,289864.5,7009,VNB,A,7
8,test,3,0.0,1-Back,1,m,Tue Aug 06 2024 18:04:19 GMT-0500 (Central Daylight Time),293974.2000000002,071_y_f_d_a.png,O,m,1079,9,1,2092.2999999998137,291881.9000000004,7009,VNB,A,8
8,test,3,1.0,1-Back,0,m,Tue Aug 06 2024 18:04:19 GMT-0500 (Central Daylight Time),296339.0,039_o_m_n_a.png,O,z,1341,10,1,2358.5999999996275,293980.4000000004,7009,VNB,A,9
9,test,3,0.0,1-Back,1,m,Tue Aug 06 2024 18:04:19 GMT-0500 (Central Daylight Time),298538.2999999998,165_m_m_h_a.png,O,m,1182,11,1,2191.5999999996275,296346.7000000002,7009,VNB,A,10
10,test,3,0.0,1-Back,1,z,Tue Aug 06 2024 18:04:19 GMT-0500 (Central Daylight Time),300671.10000000056,139_m_f_h_a.png,O,z,1111,12,1,2126.600000000559,298544.5,7009,VNB,A,11
11,test,3,1.0,1-Back,1,m,Tue Aug 06 2024 18:04:19 GMT-0500 (Central Daylight Time),302753.9000000004,124_o_f_d_a.png,O,m,1050,13,1,2076.2999999998137,300677.60000000056,7009,VNB,A,12
12,test,3,0.0,1-Back,1,z,Tue Aug 06 2024 18:04:19 GMT-0500 (Central Daylight Time),304903.2000000002,165_m_m_d_a.png,O,z,1128,14,1,2142.7000000001863,302760.5,7009,VNB,A,13
13,test,3,0.0,1-Back,1,m,Tue Aug 06 2024 18:04:19 GMT-0500 (Central Daylight Time),306935.9000000004,109_y_m_n_a.png,O,m,1010,15,1,2025.0,304910.9000000004,7009,VNB,A,14
14,test,3,1.0,1-Back,1,m,Tue Aug 06 2024 18:04:19 GMT-0500 (Central Daylight Time),309069.0,039_o_m_h_a.png,O,m,1114,16,1,2126.399999999441,306942.60000000056,7009,VNB,A,15
15,test,3,0.0,1-Back,1,m,Tue Aug 06 2024 18:04:19 GMT-0500 (Central Daylight Time),311201.0,109_y_m_d_a.png,O,m,1099,17,1,2125.0,309076.0,7009,VNB,A,16
16,test,3,1.0,1-Back,1,m,Tue Aug 06 2024 18:04:19 GMT-0500 (Central Daylight Time),313050.4000000004,071_y_f_n_a.png,O,m,832,18,1,1842.2000000001863,311208.2000000002,7009,VNB,A,17
0,test,4,1.0,1-Back,,,Tue Aug 06 2024 18:04:19 GMT-0500 (Central Daylight Time),313050.4000000004,165_m_m_d_a.png,O,space,2742,1,1,1842.2000000001863,311208.2000000002,7009,VNB,A,0
0,test,4,0.0,1-Back,0,z,Tue Aug 06 2024 18:04:19 GMT-0500 (Central Daylight Time),320381.4000000004,039_o_m_d_a.png,O,m,1538,2,1,2559.7000000001863,317821.7000000002,7009,VNB,A,1
1,test,4,0.0,1-Back,1,m,Tue Aug 06 2024 18:04:19 GMT-0500 (Central Daylight Time),322347.7999999998,109_y_m_h_a.png,O,m,948,3,1,1959.5999999996275,320388.2000000002,7009,VNB,A,2
2,test,4,0.0,1-Back,1,m,Tue Aug 06 2024 18:04:19 GMT-0500 (Central Daylight Time),324213.60000000056,139_m_f_n_a.png,O,m,838,4,1,1859.0,322354.60000000056,7009,VNB,A,3
3,test,4,1.0,1-Back,1,m,Tue Aug 06 2024 18:04:19 GMT-0500 (Central Daylight Time),326346.2000000002,124_o_f_h_a.png,O,m,1100,5,1,2126.0,324220.2000000002,7009,VNB,A,4
4,test,4,0.0,1-Back,1,m,Tue Aug 06 2024 18:04:19 GMT-0500 (Central Daylight Time),328179.0,165_m_m_n_a.png,O,m,807,6,1,1825.8999999994412,326353.10000000056,7009,VNB,A,5
5,test,4,0.0,1-Back,1,m,Tue Aug 06 2024 18:04:19 GMT-0500 (Central Daylight Time),330196.4000000004,109_y_m_d_a.png,O,m,989,7,1,2011.0,328185.4000000004,7009,VNB,A,6
6,test,4,1.0,1-Back,1,z,Tue Aug 06 2024 18:04:19 GMT-0500 (Central Daylight Time),332194.4000000004,071_y_f_d_a.png,O,z,966,8,1,1991.2000000001863,330203.2000000002,7009,VNB,A,7
7,test,4,0.0,1-Back,1,m,Tue Aug 06 2024 18:04:19 GMT-0500 (Central Daylight Time),334410.4000000004,139_m_f_h_a.png,O,m,1087,9,1,2208.5,332201.9000000004,7009,VNB,A,8
8,test,4,0.0,1-Back,1,z,Tue Aug 06 2024 18:04:19 GMT-0500 (Central Daylight Time),336259.9000000004,039_o_m_h_a.png,O,z,831,10,1,1841.2000000001863,334418.7000000002,7009,VNB,A,9
9,test,4,1.0,1-Back,1,m,Tue Aug 06 2024 18:04:19 GMT-0500 (Central Daylight Time),338342.7000000002,124_o_f_n_a.png,O,m,1062,11,1,2074.0999999996275,336268.60000000056,7009,VNB,A,10
10,test,4,0.0,1-Back,1,m,Tue Aug 06 2024 18:04:19 GMT-0500 (Central Daylight Time),340558.7000000002,139_m_f_d_a.png,O,m,1187,12,1,2208.7999999998137,338349.9000000004,7009,VNB,A,11
11,test,4,0.0,1-Back,1,m,Tue Aug 06 2024 18:04:19 GMT-0500 (Central Daylight Time),342424.7999999998,071_y_f_n_a.png,O,m,843,13,1,1859.199999999255,340565.60000000056,7009,VNB,A,12
12,test,4,0.0,1-Back,1,m,Tue Aug 06 2024 18:04:19 GMT-0500 (Central Daylight Time),344324.10000000056,124_o_f_d_a.png,O,m,881,14,1,1892.7000000001863,342431.4000000004,7009,VNB,A,13
13,test,4,0.0,1-Back,1,m,Tue Aug 06 2024 18:04:19 GMT-0500 (Central Daylight Time),346223.2999999998,071_y_f_h_a.png,O,m,877,15,1,1892.8999999994412,344330.4000000004,7009,VNB,A,14
14,test,4,1.0,1-Back,1,z,Tue Aug 06 2024 18:04:19 GMT-0500 (Central Daylight Time),348089.5,165_m_m_h_a.png,O,z,834,16,1,1859.0999999996275,346230.4000000004,7009,VNB,A,15
15,test,4,0.0,1-Back,1,m,Tue Aug 06 2024 18:04:19 GMT-0500 (Central Daylight Time),350022.10000000056,039_o_m_n_a.png,O,m,904,17,1,1926.0,348096.10000000056,7009,VNB,A,16
15,test,4,1.0,1-Back,0,z,Tue Aug 06 2024 18:04:19 GMT-0500 (Central Daylight Time),352071.9000000004,109_y_m_n_a.png,O,m,1027,18,1,2043.6000000005588,350028.2999999998,7009,VNB,A,17
0,test,5,1.0,1-Back,,,Tue Aug 06 2024 18:04:19 GMT-0500 (Central Daylight Time),352071.9000000004,039_o_m_n_a.png,O,space,2137,1,1,2043.6000000005588,350028.2999999998,7009,VNB,A,0
1,test,5,1.0,1-Back,1,m,Tue Aug 06 2024 18:04:19 GMT-0500 (Central Daylight Time),358236.2999999998,124_o_f_h_a.png,O,m,980,2,1,1993.2999999998137,356243.0,7009,VNB,A,1
2,test,5,0.0,1-Back,1,m,Tue Aug 06 2024 18:04:19 GMT-0500 (Central Daylight Time),360202.4000000004,109_y_m_d_a.png,O,m,941,3,1,1959.6000000005588,358242.7999999998,7009,VNB,A,2
3,test,5,0.0,1-Back,1,z,Tue Aug 06 2024 18:04:19 GMT-0500 (Central Daylight Time),362418.2999999998,039_o_m_d_a.png,O,z,1199,4,1,2209.199999999255,360209.10000000056,7009,VNB,A,3
4,test,5,0.0,1-Back,1,m,Tue Aug 06 2024 18:04:19 GMT-0500 (Central Daylight Time),364434.4000000004,139_m_f_h_a.png,O,m,991,5,1,2008.2000000001863,362426.2000000002,7009,VNB,A,4
5,test,5,0.0,1-Back,1,m,Tue Aug 06 2024 18:04:19 GMT-0500 (Central Daylight Time),366600.5,071_y_f_n_a.png,O,m,1143,6,1,2159.0,364441.5,7009,VNB,A,5
6,test,5,1.0,1-Back,1,z,Tue Aug 06 2024 18:04:19 GMT-0500 (Central Daylight Time),368649.9000000004,124_o_f_n_a.png,O,z,1025,7,1,2041.7999999998137,366608.10000000056,7009,VNB,A,6
7,test,5,0.0,1-Back,1,m,Tue Aug 06 2024 18:04:19 GMT-0500 (Central Daylight Time),370899.0,139_m_f_d_a.png,O,m,1224,8,1,2242.5999999996275,368656.4000000004,7009,VNB,A,7
8,test,5,0.0,1-Back,1,m,Tue Aug 06 2024 18:04:19 GMT-0500 (Central Daylight Time),372898.2999999998,109_y_m_h_a.png,O,m,974,9,1,1992.5,370905.7999999998,7009,VNB,A,8
9,test,5,0.0,1-Back,1,m,Tue Aug 06 2024 18:04:19 GMT-0500 (Central Daylight Time),374747.7999999998,071_y_f_d_a.png,O,m,831,10,1,1843.0999999996275,372904.7000000002,7009,VNB,A,9
10,test,5,0.0,1-Back,1,m,Tue Aug 06 2024 18:04:19 GMT-0500 (Central Daylight Time),376897.2999999998,165_m_m_n_a.png,O,m,1118,11,1,2143.0999999996275,374754.2000000002,7009,VNB,A,10
11,test,5,1.0,1-Back,1,z,Tue Aug 06 2024 18:04:19 GMT-0500 (Central Daylight Time),378896.60000000056,139_m_f_n_a.png,O,z,968,12,1,1991.7000000001863,376904.9000000004,7009,VNB,A,11
12,test,5,0.0,1-Back,1,m,Tue Aug 06 2024 18:04:19 GMT-0500 (Central Daylight Time),380895.7999999998,039_o_m_h_a.png,O,m,977,13,1,1992.5999999996275,378903.2000000002,7009,VNB,A,12
13,test,5,0.0,1-Back,1,z,Tue Aug 06 2024 18:04:19 GMT-0500 (Central Daylight Time),382911.7999999998,165_m_m_h_a.png,O,z,993,14,1,2008.5999999996275,380903.2000000002,7009,VNB,A,13
14,test,5,1.0,1-Back,1,m,Tue Aug 06 2024 18:04:19 GMT-0500 (Central Daylight Time),384861.2999999998,124_o_f_d_a.png,O,m,929,15,1,1942.0999999996275,382919.2000000002,7009,VNB,A,14
15,test,5,0.0,1-Back,1,m,Tue Aug 06 2024 18:04:19 GMT-0500 (Central Daylight Time),386960.7000000002,109_y_m_n_a.png,O,m,1068,16,1,2092.0999999996275,384868.60000000056,7009,VNB,A,15
16,test,5,0.0,1-Back,1,m,Tue Aug 06 2024 18:04:19 GMT-0500 (Central Daylight Time),388943.5,071_y_f_h_a.png,O,m,953,17,1,1976.0,386967.5,7009,VNB,A,16
17,test,5,0.0,1-Back,1,m,Tue Aug 06 2024 18:04:19 GMT-0500 (Central Daylight Time),391009.2999999998,165_m_m_d_a.png,O,m,1034,18,1,2059.199999999255,388950.10000000056,7009,VNB,A,17
0,prac,1,0.0,2-Back,,,Tue Aug 06 2024 18:04:19 GMT-0500 (Central Daylight Time),391009.2999999998,139_m_f_n_a.png,O,space,16034,1,1,2059.199999999255,388950.10000000056,7009,VNB,A,0
0,prac,1,0.0,2-Back,,,Tue Aug 06 2024 18:04:19 GMT-0500 (Central Daylight Time),391009.2999999998,124_o_f_h_a.png,O,space,16034,2,1,2059.199999999255,388950.10000000056,7009,VNB,A,0
0,prac,1,0.0,2-Back,0,m,Tue Aug 06 2024 18:04:19 GMT-0500 (Central Daylight Time),539646.2000000002,039_o_m_d_a.png,O,None,2002,3,1,2791.5999999996275,536854.6000000006,7009,VNB,A,1
1,prac,1,1.0,2-Back,1,z,Tue Aug 06 2024 18:04:19 GMT-0500 (Central Daylight Time),542328.7999999998,165_m_m_h_a.png,O,z,1866,4,1,2674.5,539654.2999999998,7009,VNB,A,2
2,prac,1,0.0,2-Back,1,m,Tue Aug 06 2024 18:04:19 GMT-0500 (Central Daylight Time),544377.7000000002,071_y_f_n_a.png,O,m,1247,5,1,2041.0999999996275,542336.6000000006,7009,VNB,A,3
3,prac,1,1.0,2-Back,1,z,Tue Aug 06 2024 18:04:19 GMT-0500 (Central Daylight Time),546461.0,039_o_m_h_a.png,O,z,1281,6,1,2075.5999999996275,544385.4000000004,7009,VNB,A,4
4,prac,1,1.0,2-Back,1,z,Tue Aug 06 2024 18:04:19 GMT-0500 (Central Daylight Time),548676.7000000002,109_y_m_n_a.png,O,z,1397,7,1,2207.2000000001863,546469.5,7009,VNB,A,5
5,prac,1,0.0,2-Back,1,m,Tue Aug 06 2024 18:04:19 GMT-0500 (Central Daylight Time),551009.2000000002,139_m_f_d_a.png,O,m,1531,8,1,2324.2000000001863,548685.0,7009,VNB,A,6
6,prac,1,0.0,2-Back,1,m,Tue Aug 06 2024 18:04:19 GMT-0500 (Central Daylight Time),553275.4000000004,124_o_f_d_a.png,O,m,1401,9,1,2256.2000000001863,551019.2000000002,7009,VNB,A,7
7,prac,1,0.0,2-Back,1,m,Tue Aug 06 2024 18:04:19 GMT-0500 (Central Daylight Time),555191.2999999998,165_m_m_h_a.png,O,m,1126,10,1,1907.7999999998137,553283.5,7009,VNB,A,8
8,prac,1,1.0,2-Back,1,z,Tue Aug 06 2024 18:04:19 GMT-0500 (Central Daylight Time),557324.0,071_y_f_d_a.png,O,z,1329,11,1,2124.7999999998137,555199.2000000002,7009,VNB,A,9
8,prac,1,0.0,2-Back,0,m,Tue Aug 06 2024 18:04:19 GMT-0500 (Central Daylight Time),559256.7000000002,039_o_m_n_a.png,O,z,1127,12,1,1925.0,557331.7000000002,7009,VNB,A,10
0,test,1,0.0,2-Back,,,Tue Aug 06 2024 18:04:19 GMT-0500 (Central Daylight Time),559256.7000000002,109_y_m_h_a.png,O,space,15802,1,1,1925.0,557331.7000000002,7009,VNB,A,0
0,test,1,0.0,2-Back,,,Tue Aug 06 2024 18:04:19 GMT-0500 (Central Daylight Time),559256.7000000002,124_o_f_n_a.png,O,space,15802,2,1,1925.0,557331.7000000002,7009,VNB,A,0
1,test,1,0.0,2-Back,1,z,Tue Aug 06 2024 18:04:19 GMT-0500 (Central Daylight Time),593179.2999999998,039_o_m_h_a.png,O,z,1043,3,1,2090.5999999996275,591088.7000000002,7009,VNB,A,1
2,test,1,0.0,2-Back,1,m,Tue Aug 06 2024 18:04:19 GMT-0500 (Central Daylight Time),595461.9000000004,139_m_f_d_a.png,O,m,1262,4,1,2275.600000000559,593186.2999999998,7009,VNB,A,2
3,test,1,1.0,2-Back,1,m,Tue Aug 06 2024 18:04:19 GMT-0500 (Central Daylight Time),597827.9000000004,109_y_m_n_a.png,O,m,1348,5,1,2358.7000000001863,595469.2000000002,7009,VNB,A,3
4,test,1,0.0,2-Back,1,z,Tue Aug 06 2024 18:04:19 GMT-0500 (Central Daylight Time),600093.6000000006,071_y_f_d_a.png,O,z,1238,6,1,2258.7000000001863,597834.9000000004,7009,VNB,A,4
4,test,1,0.0,2-Back,0,m,Tue Aug 06 2024 18:04:19 GMT-0500 (Central Daylight Time),602876.2000000002,165_m_m_h_a.png,O,z,1764,7,1,2776.0,600100.2000000002,7009,VNB,A,5
4,test,1,1.0,2-Back,0,m,Tue Aug 06 2024 18:04:19 GMT-0500 (Central Daylight Time),605009.2000000002,071_y_f_n_a.png,O,z,1109,8,1,2126.2999999998137,602882.9000000004,7009,VNB,A,6
5,test,1,0.0,2-Back,1,z,Tue Aug 06 2024 18:04:19 GMT-0500 (Central Daylight Time),606858.4000000004,124_o_f_h_a.png,O,z,832,9,1,1842.7999999998137,605015.6000000006,7009,VNB,A,7
6,test,1,0.0,2-Back,1,m,Tue Aug 06 2024 18:04:19 GMT-0500 (Central Daylight Time),609075.5,039_o_m_d_a.png,O,m,1184,10,1,2210.2000000001863,606865.2999999998,7009,VNB,A,8
7,test,1,1.0,2-Back,1,m,Tue Aug 06 2024 18:04:19 GMT-0500 (Central Daylight Time),612040.2000000002,165_m_m_d_a.png,O,m,1935,11,1,2958.0999999996275,609082.1000000006,7009,VNB,A,9
7,test,1,0.0,2-Back,0,m,Tue Aug 06 2024 18:04:19 GMT-0500 (Central Daylight Time),614206.0,139_m_f_n_a.png,O,z,1136,12,1,2158.5,612047.5,7009,VNB,A,10
8,test,1,0.0,2-Back,1,m,Tue Aug 06 2024 18:04:19 GMT-0500 (Central Daylight Time),616538.6000000006,071_y_f_h_a.png,O,m,1299,13,1,2325.300000000745,614213.2999999998,7009,VNB,A,11
9,test,1,0.0,2-Back,1,z,Tue Aug 06 2024 18:04:19 GMT-0500 (Central Daylight Time),618704.6000000006,165_m_m_n_a.png,O,z,1135,14,1,2158.4000000003725,616546.2000000002,7009,VNB,A,12
10,test,1,0.0,2-Back,1,m,Tue Aug 06 2024 18:04:19 GMT-0500 (Central Daylight Time),620770.7000000002,109_y_m_d_a.png,O,m,1041,15,1,2059.4000000003725,618711.2999999998,7009,VNB,A,13
11,test,1,1.0,2-Back,1,m,Tue Aug 06 2024 18:04:19 GMT-0500 (Central Daylight Time),623153.1000000006,139_m_f_h_a.png,O,m,1350,16,1,2375.4000000003725,620777.7000000002,7009,VNB,A,14
11,test,1,0.0,2-Back,0,z,Tue Aug 06 2024 18:04:19 GMT-0500 (Central Daylight Time),625569.2000000002,124_o_f_d_a.png,O,m,1392,17,1,2409.5,623159.7000000002,7009,VNB,A,15
11,test,1,0.0,2-Back,0,m,Tue Aug 06 2024 18:04:19 GMT-0500 (Central Daylight Time),628368.4000000004,039_o_m_n_a.png,O,z,1768,18,1,2791.9000000003725,625576.5,7009,VNB,A,16
0,test,2,0.0,2-Back,,,Tue Aug 06 2024 18:04:19 GMT-0500 (Central Daylight Time),628368.4000000004,165_m_m_h_a.png,O,space,3049,1,1,2791.9000000003725,625576.5,7009,VNB,A,0
0,test,2,0.0,2-Back,,,Tue Aug 06 2024 18:04:19 GMT-0500 (Central Daylight Time),628368.4000000004,071_y_f_n_a.png,O,space,3049,2,1,2791.9000000003725,625576.5,7009,VNB,A,0
1,test,2,1.0,2-Back,1,z,Tue Aug 06 2024 18:04:19 GMT-0500 (Central Daylight Time),638298.4000000004,124_o_f_h_a.png,O,z,758,3,1,1775.7999999998137,636522.6000000006,7009,VNB,A,1
2,test,2,0.0,2-Back,1,m,Tue Aug 06 2024 18:04:19 GMT-0500 (Central Daylight Time),640714.5,039_o_m_d_a.png,O,m,1388,4,1,2409.7999999998137,638304.7000000002,7009,VNB,A,2
3,test,2,0.0,2-Back,1,m,Tue Aug 06 2024 18:04:19 GMT-0500 (Central Daylight Time),643546.7999999998,139_m_f_d_a.png,O,m,1816,5,1,2825.699999999255,640721.1000000006,7009,VNB,A,3
4,test,2,0.0,2-Back,1,m,Tue Aug 06 2024 18:04:19 GMT-0500 (Central Daylight Time),646312.5,109_y_m_h_a.png,O,m,1735,6,1,2758.899999999441,643553.6000000006,7009,VNB,A,4
5,test,2,0.0,2-Back,1,m,Tue Aug 06 2024 18:04:19 GMT-0500 (Central Daylight Time),648962.0,124_o_f_n_a.png,O,m,1625,7,1,2642.5,646319.5,7009,VNB,A,5
6,test,2,1.0,2-Back,1,z,Tue Aug 06 2024 18:04:19 GMT-0500 (Central Daylight Time),651044.5,039_o_m_h_a.png,O,z,1064,8,1,2076.0,648968.5,7009,VNB,A,6
7,test,2,0.0,2-Back,1,m,Tue Aug 06 2024 18:04:19 GMT-0500 (Central Daylight Time),653226.9000000004,071_y_f_d_a.png,O,m,1165,9,1,2175.9000000003725,651051.0,7009,VNB,A,7
8,test,2,0.0,2-Back,1,m,Tue Aug 06 2024 18:04:19 GMT-0500 (Central Daylight Time),655943.1000000006,109_y_m_d_a.png,O,m,1694,10,1,2708.9000000003725,653234.2000000002,7009,VNB,A,8
9,test,2,0.0,2-Back,1,m,Tue Aug 06 2024 18:04:19 GMT-0500 (Central Daylight Time),657925.7000000002,165_m_m_n_a.png,O,m,954,11,1,1975.7000000001863,655950.0,7009,VNB,A,9
10,test,2,0.0,2-Back,1,m,Tue Aug 06 2024 18:04:19 GMT-0500 (Central Daylight Time),659924.9000000004,139_m_f_h_a.png,O,m,972,12,1,1992.6000000005588,657932.2999999998,7009,VNB,A,10
11,test,2,1.0,2-Back,1,z,Tue Aug 06 2024 18:04:19 GMT-0500 (Central Daylight Time),662207.5,039_o_m_n_a.png,O,z,1261,13,1,2276.2000000001863,659931.2999999998,7009,VNB,A,11
11,test,2,0.0,2-Back,0,m,Tue Aug 06 2024 18:04:19 GMT-0500 (Central Daylight Time),664606.7999999998,124_o_f_d_a.png,O,z,1370,14,1,2391.699999999255,662215.1000000006,7009,VNB,A,12
12,test,2,0.0,2-Back,1,m,Tue Aug 06 2024 18:04:19 GMT-0500 (Central Daylight Time),666772.9000000004,071_y_f_h_a.png,O,m,1147,15,1,2159.2000000001863,664613.7000000002,7009,VNB,A,13
13,test,2,0.0,2-Back,1,z,Tue Aug 06 2024 18:04:19 GMT-0500 (Central Daylight Time),669088.9000000004,165_m_m_d_a.png,O,z,1283,16,1,2309.4000000003725,666779.5,7009,VNB,A,14
14,test,2,0.0,2-Back,1,m,Tue Aug 06 2024 18:04:19 GMT-0500 (Central Daylight Time),671038.2999999998,109_y_m_n_a.png,O,m,921,17,1,1942.699999999255,669095.6000000006,7009,VNB,A,15
15,test,2,1.0,2-Back,1,m,Tue Aug 06 2024 18:04:19 GMT-0500 (Central Daylight Time),673487.4000000004,139_m_f_n_a.png,O,m,1419,18,1,2442.600000000559,671044.7999999998,7009,VNB,A,16
0,test,3,1.0,2-Back,,,Tue Aug 06 2024 18:04:19 GMT-0500 (Central Daylight Time),673487.4000000004,039_o_m_n_a.png,O,space,4370,1,1,2442.600000000559,671044.7999999998,7009,VNB,A,0
0,test,3,1.0,2-Back,,,Tue Aug 06 2024 18:04:19 GMT-0500 (Central Daylight Time),673487.4000000004,124_o_f_d_a.png,O,space,4370,2,1,2442.600000000559,671044.7999999998,7009,VNB,A,0
1,test,3,0.0,2-Back,1,m,Tue Aug 06 2024 18:04:19 GMT-0500 (Central Daylight Time),684967.1000000006,071_y_f_h_a.png,O,m,1027,3,1,2042.5,682924.6000000006,7009,VNB,A,1
2,test,3,0.0,2-Back,1,z,Tue Aug 06 2024 18:04:19 GMT-0500 (Central Daylight Time),687017.6000000006,139_m_f_d_a.png,O,z,1018,4,1,2043.4000000003725,684974.2000000002,7009,VNB,A,2
3,test,3,1.0,2-Back,1,m,Tue Aug 06 2024 18:04:19 GMT-0500 (Central Daylight Time),689200.4000000004,109_y_m_n_a.png,O,m,1153,5,1,2175.600000000559,687024.7999999998,7009,VNB,A,3
3,test,3,0.0,2-Back,0,m,Tue Aug 06 2024 18:04:19 GMT-0500 (Central Daylight Time),692232.0,039_o_m_h_a.png,O,None,2016,6,1,3025.399999999441,689206.6000000006,7009,VNB,A,4
4,test,3,0.0,2-Back,1,z,Tue Aug 06 2024 18:04:19 GMT-0500 (Central Daylight Time),694514.2000000002,071_y_f_n_a.png,O,z,1250,7,1,2275.7999999998137,692238.4000000004,7009,VNB,A,5
4,test,3,1.0,2-Back,0,m,Tue Aug 06 2024 18:04:19 GMT-0500 (Central Daylight Time),696813.2999999998,165_m_m_d_a.png,O,z,1279,8,1,2292.5999999996275,694520.7000000002,7009,VNB,A,6
5,test,3,0.0,2-Back,1,m,Tue Aug 06 2024 18:04:19 GMT-0500 (Central Daylight Time),699312.7000000002,109_y_m_d_a.png,O,m,1468,9,1,2493.0,696819.7000000002,7009,VNB,A,7
6,test,3,0.0,2-Back,1,m,Tue Aug 06 2024 18:04:19 GMT-0500 (Central Daylight Time),701378.5,124_o_f_h_a.png,O,m,1033,10,1,2059.0999999996275,699319.4000000004,7009,VNB,A,8
7,test,3,1.0,2-Back,1,m,Tue Aug 06 2024 18:04:19 GMT-0500 (Central Daylight Time),703578.2000000002,139_m_f_n_a.png,O,m,1183,11,1,2193.0,701385.2000000002,7009,VNB,A,9
7,test,3,1.0,2-Back,0,z,Tue Aug 06 2024 18:04:19 GMT-0500 (Central Daylight Time),705777.1000000006,165_m_m_h_a.png,O,m,1175,12,1,2192.5,703584.6000000006,7009,VNB,A,10
8,test,3,0.0,2-Back,1,m,Tue Aug 06 2024 18:04:19 GMT-0500 (Central Daylight Time),708076.5,071_y_f_d_a.png,O,m,1280,13,1,2293.0,705783.5,7009,VNB,A,11
8,test,3,0.0,2-Back,0,m,Tue Aug 06 2024 18:04:19 GMT-0500 (Central Daylight Time),710359.1000000006,124_o_f_n_a.png,O,z,1253,14,1,2275.800000000745,708083.2999999998,7009,VNB,A,12
8,test,3,0.0,2-Back,0,z,Tue Aug 06 2024 18:04:19 GMT-0500 (Central Daylight Time),712408.4000000004,039_o_m_d_a.png,O,m,1018,15,1,2042.6000000005588,710365.7999999998,7009,VNB,A,13
9,test,3,1.0,2-Back,1,m,Tue Aug 06 2024 18:04:19 GMT-0500 (Central Daylight Time),714407.7999999998,139_m_f_h_a.png,O,m,969,16,1,1992.3999999994412,712415.4000000004,7009,VNB,A,14
10,test,3,0.0,2-Back,1,m,Tue Aug 06 2024 18:04:19 GMT-0500 (Central Daylight Time),716690.7000000002,165_m_m_n_a.png,O,m,1258,17,1,2276.4000000003725,714414.2999999998,7009,VNB,A,15
10,test,3,0.0,2-Back,0,z,Tue Aug 06 2024 18:04:19 GMT-0500 (Central Daylight Time),718806.6000000006,109_y_m_h_a.png,O,m,1095,18,1,2109.100000000559,716697.5,7009,VNB,A,16
0,test,4,0.0,2-Back,,,Tue Aug 06 2024 18:04:19 GMT-0500 (Central Daylight Time),718806.6000000006,139_m_f_n_a.png,O,space,3098,1,1,2109.100000000559,716697.5,7009,VNB,A,0
0,test,4,0.0,2-Back,,,Tue Aug 06 2024 18:04:19 GMT-0500 (Central Daylight Time),718806.6000000006,039_o_m_n_a.png,O,space,3098,2,1,2109.100000000559,716697.5,7009,VNB,A,0
1,test,4,1.0,2-Back,1,m,Tue Aug 06 2024 18:04:19 GMT-0500 (Central Daylight Time),729553.1000000006,109_y_m_h_a.png,O,m,1518,3,1,2542.2000000001863,727010.9000000004,7009,VNB,A,1
1,test,4,1.0,2-Back,0,m,Tue Aug 06 2024 18:04:19 GMT-0500 (Central Daylight Time),731602.4000000004,124_o_f_d_a.png,O,z,1017,4,1,2041.7999999998137,729560.6000000006,7009,VNB,A,2
2,test,4,0.0,2-Back,1,z,Tue Aug 06 2024 18:04:19 GMT-0500 (Central Daylight Time),733472.7999999998,039_o_m_h_a.png,O,z,847,5,1,1862.8999999994412,731609.9000000004,7009,VNB,A,3
3,test,4,0.0,2-Back,1,m,Tue Aug 06 2024 18:04:19 GMT-0500 (Central Daylight Time),735617.7999999998,165_m_m_n_a.png,O,m,1117,6,1,2137.5999999996275,733480.2000000002,7009,VNB,A,4
3,test,4,0.0,2-Back,0,m,Tue Aug 06 2024 18:04:19 GMT-0500 (Central Daylight Time),738033.9000000004,139_m_f_d_a.png,O,z,1392,7,1,2408.7999999998137,735625.1000000006,7009,VNB,A,5
4,test,4,0.0,2-Back,1,z,Tue Aug 06 2024 18:04:19 GMT-0500 (Central Daylight Time),740283.2000000002,071_y_f_n_a.png,O,z,1223,8,1,2242.0999999996275,738041.1000000006,7009,VNB,A,6
5,test,4,1.0,2-Back,1,m,Tue Aug 06 2024 18:04:19 GMT-0500 (Central Daylight Time),742615.7000000002,124_o_f_h_a.png,O,m,1310,9,1,2325.7000000001863,740290.0,7009,VNB,A,7
5,test,4,0.0,2-Back,0,m,Tue Aug 06 2024 18:04:19 GMT-0500 (Central Daylight Time),744948.5,165_m_m_h_a.png,O,z,1306,10,1,2325.0,742623.5,7009,VNB,A,8
5,test,4,0.0,2-Back,0,m,Tue Aug 06 2024 18:04:19 GMT-0500 (Central Daylight Time),747982.2000000002,071_y_f_d_a.png,O,None,2017,11,1,3027.0999999996275,744955.1000000006,7009,VNB,A,9
5,test,4,0.0,2-Back,0,m,Tue Aug 06 2024 18:04:19 GMT-0500 (Central Daylight Time),750196.7000000002,109_y_m_n_a.png,O,z,1189,12,1,2206.9000000003725,747989.7999999998,7009,VNB,A,10
5,test,4,0.0,2-Back,0,z,Tue Aug 06 2024 18:04:19 GMT-0500 (Central Daylight Time),752595.7999999998,039_o_m_d_a.png,O,m,1373,13,1,2392.5999999996275,750203.2000000002,7009,VNB,A,11
6,test,4,1.0,2-Back,1,m,Tue Aug 06 2024 18:04:19 GMT-0500 (Central Daylight Time),754778.2999999998,139_m_f_h_a.png,O,m,1165,14,1,2176.2999999998137,752602.0,7009,VNB,A,12
7,test,4,1.0,2-Back,1,m,Tue Aug 06 2024 18:04:19 GMT-0500 (Central Daylight Time),756792.7999999998,071_y_f_h_a.png,O,m,998,15,1,2007.8999999994412,754784.9000000004,7009,VNB,A,13
8,test,4,0.0,2-Back,1,m,Tue Aug 06 2024 18:04:19 GMT-0500 (Central Daylight Time),758793.7999999998,124_o_f_n_a.png,O,m,975,16,1,1994.5,756799.2999999998,7009,VNB,A,14
9,test,4,0.0,2-Back,1,m,Tue Aug 06 2024 18:04:19 GMT-0500 (Central Daylight Time),761043.1000000006,109_y_m_d_a.png,O,m,1231,17,1,2242.5,758800.6000000006,7009,VNB,A,15
10,test,4,1.0,2-Back,1,m,Tue Aug 06 2024 18:04:19 GMT-0500 (Central Daylight Time),763292.5,165_m_m_d_a.png,O,m,1230,18,1,2243.5,761049.0,7009,VNB,A,16
0,test,5,1.0,2-Back,,,Tue Aug 06 2024 18:04:19 GMT-0500 (Central Daylight Time),763292.5,071_y_f_d_a.png,O,space,5500,1,1,2243.5,761049.0,7009,VNB,A,0
0,test,5,1.0,2-Back,,,Tue Aug 06 2024 18:04:19 GMT-0500 (Central Daylight Time),763292.5,124_o_f_h_a.png,O,space,5500,2,1,2243.5,761049.0,7009,VNB,A,0
0,test,5,1.0,2-Back,0,z,Tue Aug 06 2024 18:04:19 GMT-0500 (Central Daylight Time),776922.5,039_o_m_d_a.png,O,None,2016,3,1,3027.0,773895.5,7009,VNB,A,1
1,test,5,1.0,2-Back,1,m,Tue Aug 06 2024 18:04:19 GMT-0500 (Central Daylight Time),778921.0,139_m_f_n_a.png,O,m,968,4,1,1991.8999999994412,776929.1000000006,7009,VNB,A,2
2,test,5,0.0,2-Back,1,m,Tue Aug 06 2024 18:04:19 GMT-0500 (Central Daylight Time),781236.7999999998,165_m_m_h_a.png,O,m,1289,5,1,2309.199999999255,778927.6000000006,7009,VNB,A,3
3,test,5,0.0,2-Back,1,z,Tue Aug 06 2024 18:04:19 GMT-0500 (Central Daylight Time),783419.4000000004,071_y_f_n_a.png,O,z,1156,6,1,2176.0,781243.4000000004,7009,VNB,A,4
4,test,5,0.0,2-Back,1,m,Tue Aug 06 2024 18:04:19 GMT-0500 (Central Daylight Time),785818.6000000006,124_o_f_d_a.png,O,m,1382,7,1,2392.600000000559,783426.0,7009,VNB,A,5
4,test,5,0.0,2-Back,0,m,Tue Aug 06 2024 18:04:19 GMT-0500 (Central Daylight Time),788501.2000000002,039_o_m_h_a.png,O,z,1663,8,1,2675.7999999998137,785825.4000000004,7009,VNB,A,6
5,test,5,1.0,2-Back,1,z,Tue Aug 06 2024 18:04:19 GMT-0500 (Central Daylight Time),791083.9000000004,139_m_f_d_a.png,O,z,1555,9,1,2575.5,788508.4000000004,7009,VNB,A,7
6,test,5,0.0,2-Back,1,m,Tue Aug 06 2024 18:04:19 GMT-0500 (Central Daylight Time),793133.2000000002,109_y_m_n_a.png,O,m,1022,10,1,2043.0,791090.2000000002,7009,VNB,A,8
7,test,5,0.0,2-Back,1,m,Tue Aug 06 2024 18:04:19 GMT-0500 (Central Daylight Time),795299.0,165_m_m_n_a.png,O,m,1140,11,1,2159.0,793140.0,7009,VNB,A,9
8,test,5,0.0,2-Back,1,m,Tue Aug 06 2024 18:04:19 GMT-0500 (Central Daylight Time),797148.5,071_y_f_h_a.png,O,m,822,12,1,1842.5999999996275,795305.9000000004,7009,VNB,A,10
9,test,5,0.0,2-Back,1,m,Tue Aug 06 2024 18:04:19 GMT-0500 (Central Daylight Time),799097.9000000004,109_y_m_d_a.png,O,m,925,13,1,1941.7999999998137,797156.1000000006,7009,VNB,A,11
9,test,5,1.0,2-Back,0,z,Tue Aug 06 2024 18:04:19 GMT-0500 (Central Daylight Time),801130.6000000006,139_m_f_h_a.png,O,m,1015,14,1,2026.0,799104.6000000006,7009,VNB,A,12
10,test,5,0.0,2-Back,1,m,Tue Aug 06 2024 18:04:19 GMT-0500 (Central Daylight Time),803080.2000000002,039_o_m_n_a.png,O,m,927,15,1,1943.0,801137.2000000002,7009,VNB,A,13
10,test,5,0.0,2-Back,0,m,Tue Aug 06 2024 18:04:19 GMT-0500 (Central Daylight Time),805012.7000000002,165_m_m_d_a.png,O,z,913,16,1,1926.2999999998137,803086.4000000004,7009,VNB,A,14
10,test,5,0.0,2-Back,0,z,Tue Aug 06 2024 18:04:19 GMT-0500 (Central Daylight Time),807362.1000000006,124_o_f_n_a.png,O,m,1325,17,1,2342.4000000003725,805019.7000000002,7009,VNB,A,15
11,test,5,1.0,2-Back,1,m,Tue Aug 06 2024 18:04:19 GMT-0500 (Central Daylight Time),809361.4000000004,109_y_m_h_a.png,O,m,967,18,1,1992.4000000003725,807369.0,7009,VNB,A,16
