block_c,block_dur,condition,countdown,datetime,endtime,list,multichar_response,project,response,response_time,session_number,start_end,starttime,subject_id,task,task_vers,trial
,,,,Tue Feb 17 2026 14:40:40 GMT-0600 (Central Standard Time),,,,O,space,159,1,,,7761,WL,C,
prac,,0,,Tue Feb 17 2026 14:40:40 GMT-0600 (Central Standard Time),,NA,b,O,b,6147,1,,,7761,WL,C,1.0
prac,,0,,Tue Feb 17 2026 14:40:40 GMT-0600 (Central Standard Time),,NA,bo,O,o,587,1,,,7761,WL,C,1.0
prac,,0,,Tue Feb 17 2026 14:40:40 GMT-0600 (Central Standard Time),,NA,boo,O,o,218,1,,,7761,WL,C,1.0
prac,,0,,Tue Feb 17 2026 14:40:40 GMT-0600 (Central Standard Time),,NA,boos,O,s,311,1,,,7761,WL,C,1.0
prac,,0,,Tue Feb 17 2026 14:40:40 GMT-0600 (Central Standard Time),,NA,boost,O,t,371,1,,,7761,WL,C,1.0
prac,,0,,Tue Feb 17 2026 14:40:40 GMT-0600 (Central Standard Time),,NA,boostenter,O,enter,4693,1,,,7761,WL,C,1.0
1,1.9839999675750732,learn,58016.00003242493,Tue Feb 17 2026 14:40:40 GMT-0600 (Central Standard Time),151827.5,A,s,O,s,1968,1,1983.3999999761581,149844.10000002384,7761,WL,C,1.0
1,2.4159998893737793,learn,57584.00011062622,Tue Feb 17 2026 14:40:40 GMT-0600 (Central Standard Time),152259.80000001192,A,sh,O,h,417,1,2415.699999988079,149844.10000002384,7761,WL,C,1.0
1,3.183000087738037,learn,56816.99991226196,Tue Feb 17 2026 14:40:40 GMT-0600 (Central Standard Time),153027.10000002384,A,sho,O,o,763,1,3183.0,149844.10000002384,7761,WL,C,1.0
1,3.6519999504089355,learn,56348.000049591064,Tue Feb 17 2026 14:40:40 GMT-0600 (Central Standard Time),153495.39999997616,A,shor,O,r,457,1,3651.2999999523163,149844.10000002384,7761,WL,C,1.0
1,4.0320000648498535,learn,55967.99993515015,Tue Feb 17 2026 14:40:40 GMT-0600 (Central Standard Time),153876.10000002384,A,shore,O,e,363,1,4032.0,149844.10000002384,7761,WL,C,1.0
1,4.865999937057495,learn,55134.000062942505,Tue Feb 17 2026 14:40:40 GMT-0600 (Central Standard Time),154709.39999997616,A,shoreenter,O,enter,817,1,4865.299999952316,149844.10000002384,7761,WL,C,1.0
1,6.29800009727478,learn,53701.99990272522,Tue Feb 17 2026 14:40:40 GMT-0600 (Central Standard Time),156142.0,A,w,O,w,1423,1,1432.3999999761581,154709.60000002384,7761,WL,C,2.0
1,6.648999929428101,learn,53351.0000705719,Tue Feb 17 2026 14:40:40 GMT-0600 (Central Standard Time),156492.19999998808,A,wh,O,h,346,1,1782.5999999642372,154709.60000002384,7761,WL,C,2.0
1,7.0320000648498535,learn,52967.99993515015,Tue Feb 17 2026 14:40:40 GMT-0600 (Central Standard Time),156875.60000002384,A,whe,O,e,366,1,2166.0,154709.60000002384,7761,WL,C,2.0
1,7.88100004196167,learn,52118.99995803833,Tue Feb 17 2026 14:40:40 GMT-0600 (Central Standard Time),157724.80000001192,A,whea,O,a,832,1,3015.199999988079,154709.60000002384,7761,WL,C,2.0
1,8.381999969482422,learn,51618.00003051758,Tue Feb 17 2026 14:40:40 GMT-0600 (Central Standard Time),158225.89999997616,A,wheat,O,t,497,1,3516.2999999523163,154709.60000002384,7761,WL,C,2.0
1,9.95199990272522,learn,50048.00009727478,Tue Feb 17 2026 14:40:40 GMT-0600 (Central Standard Time),159795.60000002384,A,wheatenter,O,enter,1561,1,5086.0,154709.60000002384,7761,WL,C,2.0
1,22.825999975204468,learn,37174.00002479553,Tue Feb 17 2026 14:40:40 GMT-0600 (Central Standard Time),172670.0,A,c,O,c,12867,1,12874.199999988079,159795.80000001192,7761,WL,C,3.0
1,23.24399995803833,learn,36756.00004196167,Tue Feb 17 2026 14:40:40 GMT-0600 (Central Standard Time),173087.80000001192,A,co,O,o,407,1,13292.0,159795.80000001192,7761,WL,C,3.0
1,23.51099991798401,learn,36489.00008201599,Tue Feb 17 2026 14:40:40 GMT-0600 (Central Standard Time),173354.69999998808,A,cor,O,r,253,1,13558.899999976158,159795.80000001192,7761,WL,C,3.0
1,23.842999935150146,learn,36157.00006484985,Tue Feb 17 2026 14:40:40 GMT-0600 (Central Standard Time),173687.0,A,corn,O,n,312,1,13891.199999988079,159795.80000001192,7761,WL,C,3.0
1,25.591000080108643,learn,34408.99991989136,Tue Feb 17 2026 14:40:40 GMT-0600 (Central Standard Time),175435.10000002384,A,cornenter,O,enter,1725,1,15639.300000011921,159795.80000001192,7761,WL,C,3.0
1,33.4449999332428,learn,26555.000066757202,Tue Feb 17 2026 14:40:40 GMT-0600 (Central Standard Time),183289.10000002384,A,b,O,b,7832,1,7853.700000047684,175435.39999997616,7761,WL,C,4.0
1,33.82299995422363,learn,26177.000045776367,Tue Feb 17 2026 14:40:40 GMT-0600 (Central Standard Time),183667.10000002384,A,bo,O,o,373,1,8231.700000047684,175435.39999997616,7761,WL,C,4.0
1,34.223000049591064,learn,25776.999950408936,Tue Feb 17 2026 14:40:40 GMT-0600 (Central Standard Time),184066.80000001192,A,boy,O,y,382,1,8631.400000035763,175435.39999997616,7761,WL,C,4.0
1,36.42199993133545,learn,23578.00006866455,Tue Feb 17 2026 14:40:40 GMT-0600 (Central Standard Time),186266.30000001192,A,boyenter,O,enter,2183,1,10830.900000035763,175435.39999997616,7761,WL,C,4.0
1,60.015000104904175,learn,-15.000104904174805,Tue Feb 17 2026 14:40:40 GMT-0600 (Central Standard Time),209858.5,A,None,O,None,23587,1,23592.0,186266.5,7761,WL,C,5.0
2,1.816999912261963,learn,58183.00008773804,Tue Feb 17 2026 14:40:40 GMT-0600 (Central Standard Time),282419.8000000119,A,s,O,s,1804,1,1816.6000000238419,280603.1999999881,7761,WL,C,1.0
2,2.2159998416900635,learn,57784.00015830994,Tue Feb 17 2026 14:40:40 GMT-0600 (Central Standard Time),282818.60000002384,A,sh,O,h,384,1,2215.400000035763,280603.1999999881,7761,WL,C,1.0
2,2.615999937057495,learn,57384.000062942505,Tue Feb 17 2026 14:40:40 GMT-0600 (Central Standard Time),283219.5,A,sho,O,o,394,1,2616.300000011921,280603.1999999881,7761,WL,C,1.0
2,3.0319998264312744,learn,56968.000173568726,Tue Feb 17 2026 14:40:40 GMT-0600 (Central Standard Time),283635.10000002384,A,shor,O,r,410,1,3031.900000035763,280603.1999999881,7761,WL,C,1.0
2,3.3989999294281006,learn,56601.0000705719,Tue Feb 17 2026 14:40:40 GMT-0600 (Central Standard Time),284001.60000002384,A,shore,O,e,354,1,3398.400000035763,280603.1999999881,7761,WL,C,1.0
2,4.230999946594238,learn,55769.00005340576,Tue Feb 17 2026 14:40:40 GMT-0600 (Central Standard Time),284834.1999999881,A,shoreb,O,b,829,1,4231.0,280603.1999999881,7761,WL,C,1.0
2,8.096999883651733,learn,51903.00011634827,Tue Feb 17 2026 14:40:40 GMT-0600 (Central Standard Time),288700.3000000119,A,shore,O,backspace,3861,1,8097.100000023842,280603.1999999881,7761,WL,C,1.0
2,9.23199987411499,learn,50768.00012588501,Tue Feb 17 2026 14:40:40 GMT-0600 (Central Standard Time),289834.5,A,shoreenter,O,enter,1129,1,9231.300000011921,280603.1999999881,7761,WL,C,1.0
2,10.529000043869019,learn,49470.99995613098,Tue Feb 17 2026 14:40:40 GMT-0600 (Central Standard Time),291131.6999999881,A,b,O,b,1289,1,1296.800000011921,289834.89999997616,7761,WL,C,2.0
2,10.996000051498413,learn,49003.99994850159,Tue Feb 17 2026 14:40:40 GMT-0600 (Central Standard Time),291599.3000000119,A,bo,O,o,456,1,1764.4000000357628,289834.89999997616,7761,WL,C,2.0
2,11.480000019073486,learn,48519.999980926514,Tue Feb 17 2026 14:40:40 GMT-0600 (Central Standard Time),292082.89999997616,A,boy,O,y,479,1,2248.0,289834.89999997616,7761,WL,C,2.0
2,13.244999885559082,learn,46755.00011444092,Tue Feb 17 2026 14:40:40 GMT-0600 (Central Standard Time),293848.1999999881,A,boyw,O,w,1754,1,4013.300000011921,289834.89999997616,7761,WL,C,2.0
2,13.744999885559082,learn,46255.00011444092,Tue Feb 17 2026 14:40:40 GMT-0600 (Central Standard Time),294348.0,A,boywh,O,h,479,1,4513.100000023842,289834.89999997616,7761,WL,C,2.0
2,14.144000053405762,learn,45855.99994659424,Tue Feb 17 2026 14:40:40 GMT-0600 (Central Standard Time),294747.10000002384,A,boywhe,O,e,383,1,4912.200000047684,289834.89999997616,7761,WL,C,2.0
2,14.610999822616577,learn,45389.00017738342,Tue Feb 17 2026 14:40:40 GMT-0600 (Central Standard Time),295214.0,A,boywhea,O,a,458,1,5379.100000023842,289834.89999997616,7761,WL,C,2.0
2,15.227999925613403,learn,44772.0000743866,Tue Feb 17 2026 14:40:40 GMT-0600 (Central Standard Time),295831.10000002384,A,boywheat,O,t,600,1,5996.200000047684,289834.89999997616,7761,WL,C,2.0
2,17.76099991798401,learn,42239.00008201599,Tue Feb 17 2026 14:40:40 GMT-0600 (Central Standard Time),298364.0,A,boywheatw,O,w,2528,1,8529.100000023842,289834.89999997616,7761,WL,C,2.0
2,18.110999822616577,learn,41889.00017738342,Tue Feb 17 2026 14:40:40 GMT-0600 (Central Standard Time),298714.0,A,boywheatwh,O,h,346,1,8879.100000023842,289834.89999997616,7761,WL,C,2.0
2,18.442999839782715,learn,41557.000160217285,Tue Feb 17 2026 14:40:40 GMT-0600 (Central Standard Time),299045.8000000119,A,boywheatwhe,O,e,324,1,9210.900000035763,289834.89999997616,7761,WL,C,2.0
2,18.876999855041504,learn,41123.000144958496,Tue Feb 17 2026 14:40:40 GMT-0600 (Central Standard Time),299479.89999997616,A,boywheatwhea,O,a,424,1,9645.0,289834.89999997616,7761,WL,C,2.0
2,19.293999910354614,learn,40706.000089645386,Tue Feb 17 2026 14:40:40 GMT-0600 (Central Standard Time),299896.89999997616,A,boywheatwheat,O,t,395,1,10062.0,289834.89999997616,7761,WL,C,2.0
2,25.590999841690063,learn,34409.00015830994,Tue Feb 17 2026 14:40:40 GMT-0600 (Central Standard Time),306194.3000000119,A,boywheatwheatdelete,O,delete,6291,1,16359.400000035763,289834.89999997616,7761,WL,C,2.0
2,25.85800004005432,learn,34141.99995994568,Tue Feb 17 2026 14:40:40 GMT-0600 (Central Standard Time),306460.60000002384,A,boywheatwheatdeletedelete,O,delete,260,1,16625.700000047684,289834.89999997616,7761,WL,C,2.0
2,34.32200002670288,learn,25677.99997329712,Tue Feb 17 2026 14:40:40 GMT-0600 (Central Standard Time),314925.5,A,boywheatwheatdeletedelet,O,backspace,8447,1,25090.600000023842,289834.89999997616,7761,WL,C,2.0
2,35.50499987602234,learn,24495.00012397766,Tue Feb 17 2026 14:40:40 GMT-0600 (Central Standard Time),316107.89999997616,A,boywheatwheatdeletedele,O,backspace,1176,1,26273.0,289834.89999997616,7761,WL,C,2.0
2,35.687000036239624,learn,24312.999963760376,Tue Feb 17 2026 14:40:40 GMT-0600 (Central Standard Time),316290.3000000119,A,boywheatwheatdeletedel,O,backspace,167,1,26455.400000035763,289834.89999997616,7761,WL,C,2.0
2,35.83800005912781,learn,24161.999940872192,Tue Feb 17 2026 14:40:40 GMT-0600 (Central Standard Time),316440.8000000119,A,boywheatwheatdeletede,O,backspace,138,1,26605.900000035763,289834.89999997616,7761,WL,C,2.0
2,36.97000002861023,learn,23029.99997138977,Tue Feb 17 2026 14:40:40 GMT-0600 (Central Standard Time),317573.5,A,boywheatwheatdeleted,O,backspace,1123,1,27738.600000023842,289834.89999997616,7761,WL,C,2.0
2,37.371999979019165,learn,22628.000020980835,Tue Feb 17 2026 14:40:40 GMT-0600 (Central Standard Time),317974.60000002384,A,boywheatwheatdelete,O,backspace,382,1,28139.700000047684,289834.89999997616,7761,WL,C,2.0
2,37.537999868392944,learn,22462.000131607056,Tue Feb 17 2026 14:40:40 GMT-0600 (Central Standard Time),318140.89999997616,A,boywheatwheatdelet,O,backspace,145,1,28306.0,289834.89999997616,7761,WL,C,2.0
2,37.669999837875366,learn,22330.000162124634,Tue Feb 17 2026 14:40:40 GMT-0600 (Central Standard Time),318273.3000000119,A,boywheatwheatdele,O,backspace,127,1,28438.400000035763,289834.89999997616,7761,WL,C,2.0
2,37.853999853134155,learn,22146.000146865845,Tue Feb 17 2026 14:40:40 GMT-0600 (Central Standard Time),318456.8000000119,A,boywheatwheatdel,O,backspace,173,1,28621.900000035763,289834.89999997616,7761,WL,C,2.0
2,38.00499987602234,learn,21995.00012397766,Tue Feb 17 2026 14:40:40 GMT-0600 (Central Standard Time),318607.5,A,boywheatwheatde,O,backspace,138,1,28772.600000023842,289834.89999997616,7761,WL,C,2.0
2,38.169999837875366,learn,21830.000162124634,Tue Feb 17 2026 14:40:40 GMT-0600 (Central Standard Time),318773.5,A,boywheatwheatd,O,backspace,150,1,28938.600000023842,289834.89999997616,7761,WL,C,2.0
2,38.33800005912781,learn,21661.999940872192,Tue Feb 17 2026 14:40:40 GMT-0600 (Central Standard Time),318940.89999997616,A,boywheatwheat,O,backspace,149,1,29106.0,289834.89999997616,7761,WL,C,2.0
2,38.51900005340576,learn,21480.99994659424,Tue Feb 17 2026 14:40:40 GMT-0600 (Central Standard Time),319122.5,A,boywheatwhea,O,backspace,166,1,29287.600000023842,289834.89999997616,7761,WL,C,2.0
2,38.687999963760376,learn,21312.000036239624,Tue Feb 17 2026 14:40:40 GMT-0600 (Central Standard Time),319291.39999997616,A,boywheatwhe,O,backspace,149,1,29456.5,289834.89999997616,7761,WL,C,2.0
2,38.888999938964844,learn,21111.000061035156,Tue Feb 17 2026 14:40:40 GMT-0600 (Central Standard Time),319491.5,A,boywheatwh,O,backspace,176,1,29656.600000023842,289834.89999997616,7761,WL,C,2.0
2,39.0699999332428,learn,20930.000066757202,Tue Feb 17 2026 14:40:40 GMT-0600 (Central Standard Time),319673.10000002384,A,boywheatw,O,backspace,160,1,29838.200000047684,289834.89999997616,7761,WL,C,2.0
2,39.23699998855591,learn,20763.00001144409,Tue Feb 17 2026 14:40:40 GMT-0600 (Central Standard Time),319840.39999997616,A,boywheat,O,backspace,155,1,30005.5,289834.89999997616,7761,WL,C,2.0
2,39.4210000038147,learn,20578.999996185303,Tue Feb 17 2026 14:40:40 GMT-0600 (Central Standard Time),320023.60000002384,A,boywhea,O,backspace,173,1,30188.700000047684,289834.89999997616,7761,WL,C,2.0
2,39.6029999256134,learn,20397.000074386597,Tue Feb 17 2026 14:40:40 GMT-0600 (Central Standard Time),320206.3000000119,A,boywhe,O,backspace,166,1,30371.400000035763,289834.89999997616,7761,WL,C,2.0
2,39.80399990081787,learn,20196.00009918213,Tue Feb 17 2026 14:40:40 GMT-0600 (Central Standard Time),320406.8000000119,A,boywh,O,backspace,180,1,30571.900000035763,289834.89999997616,7761,WL,C,2.0
2,40.1029999256134,learn,19897.000074386597,Tue Feb 17 2026 14:40:40 GMT-0600 (Central Standard Time),320706.10000002384,A,boyw,O,backspace,284,1,30871.200000047684,289834.89999997616,7761,WL,C,2.0
2,40.38699984550476,learn,19613.00015449524,Tue Feb 17 2026 14:40:40 GMT-0600 (Central Standard Time),320990.10000002384,A,boy,O,backspace,274,1,31155.200000047684,289834.89999997616,7761,WL,C,2.0
2,41.90299987792969,learn,18097.000122070312,Tue Feb 17 2026 14:40:40 GMT-0600 (Central Standard Time),322505.8000000119,A,boyenter,O,enter,1495,1,32670.900000035763,289834.89999997616,7761,WL,C,2.0
2,43.751999855041504,learn,16248.000144958496,Tue Feb 17 2026 14:40:40 GMT-0600 (Central Standard Time),324355.0,A,w,O,w,1843,1,1848.800000011921,322506.1999999881,7761,WL,C,3.0
2,44.14100003242493,learn,15858.999967575073,Tue Feb 17 2026 14:40:40 GMT-0600 (Central Standard Time),324744.39999997616,A,wh,O,h,368,1,2238.199999988079,322506.1999999881,7761,WL,C,3.0
2,44.58500003814697,learn,15414.999961853027,Tue Feb 17 2026 14:40:40 GMT-0600 (Central Standard Time),325187.6999999881,A,whe,O,e,429,1,2681.5,322506.1999999881,7761,WL,C,3.0
2,45.069000005722046,learn,14930.999994277954,Tue Feb 17 2026 14:40:40 GMT-0600 (Central Standard Time),325671.6999999881,A,whea,O,a,471,1,3165.5,322506.1999999881,7761,WL,C,3.0
2,45.55200004577637,learn,14447.999954223633,Tue Feb 17 2026 14:40:40 GMT-0600 (Central Standard Time),326154.60000002384,A,wheat,O,t,459,1,3648.400000035763,322506.1999999881,7761,WL,C,3.0
2,50.33399987220764,learn,9666.000127792358,Tue Feb 17 2026 14:40:40 GMT-0600 (Central Standard Time),330937.3000000119,A,wheatc,O,c,4766,1,8431.100000023842,322506.1999999881,7761,WL,C,3.0
2,50.66700005531311,learn,9332.99994468689,Tue Feb 17 2026 14:40:40 GMT-0600 (Central Standard Time),331270.39999997616,A,wheatco,O,o,324,1,8764.199999988079,322506.1999999881,7761,WL,C,3.0
2,51.0,learn,9000.0,Tue Feb 17 2026 14:40:40 GMT-0600 (Central Standard Time),331603.39999997616,A,wheatcor,O,r,316,1,9097.199999988079,322506.1999999881,7761,WL,C,3.0
2,51.48399996757507,learn,8516.000032424927,Tue Feb 17 2026 14:40:40 GMT-0600 (Central Standard Time),332086.60000002384,A,wheatcorn,O,n,473,1,9580.400000035763,322506.1999999881,7761,WL,C,3.0
2,60.013999938964844,learn,-13.99993896484375,Tue Feb 17 2026 14:40:40 GMT-0600 (Central Standard Time),340617.3000000119,A,wheatcornNone,O,None,8527,1,18111.100000023842,322506.1999999881,7761,WL,C,3.0
3,1.5499999523162842,learn,58450.000047683716,Tue Feb 17 2026 14:40:40 GMT-0600 (Central Standard Time),427688.89999997616,A,b,O,b,1536,1,1549.0999999642372,426139.8000000119,7761,WL,C,1.0
3,2.1669998168945312,learn,57833.00018310547,Tue Feb 17 2026 14:40:40 GMT-0600 (Central Standard Time),428306.60000002384,A,bo,O,o,595,1,2166.800000011921,426139.8000000119,7761,WL,C,1.0
3,2.632999897003174,learn,57367.000102996826,Tue Feb 17 2026 14:40:40 GMT-0600 (Central Standard Time),428771.89999997616,A,bod,O,d,443,1,2632.099999964237,426139.8000000119,7761,WL,C,1.0
3,3.1009998321533203,learn,56899.00016784668,Tue Feb 17 2026 14:40:40 GMT-0600 (Central Standard Time),429240.3000000119,A,body,O,y,448,1,3100.5,426139.8000000119,7761,WL,C,1.0
3,4.932999849319458,learn,55067.00015068054,Tue Feb 17 2026 14:40:40 GMT-0600 (Central Standard Time),431072.1999999881,A,bodyenter,O,enter,1813,1,4932.399999976158,426139.8000000119,7761,WL,C,1.0
3,6.198999881744385,learn,53801.000118255615,Tue Feb 17 2026 14:40:40 GMT-0600 (Central Standard Time),432338.1999999881,A,s,O,s,1261,1,1265.800000011921,431072.39999997616,7761,WL,C,2.0
3,6.631999969482422,learn,53368.00003051758,Tue Feb 17 2026 14:40:40 GMT-0600 (Central Standard Time),432771.10000002384,A,sh,O,h,418,1,1698.7000000476837,431072.39999997616,7761,WL,C,2.0
3,7.23199987411499,learn,52768.00012588501,Tue Feb 17 2026 14:40:40 GMT-0600 (Central Standard Time),433371.3000000119,A,sho,O,o,594,1,2298.900000035763,431072.39999997616,7761,WL,C,2.0
3,7.81499981880188,learn,52185.00018119812,Tue Feb 17 2026 14:40:40 GMT-0600 (Central Standard Time),433954.60000002384,A,shor,O,r,577,1,2882.2000000476837,431072.39999997616,7761,WL,C,2.0
3,8.264999866485596,learn,51735.000133514404,Tue Feb 17 2026 14:40:40 GMT-0600 (Central Standard Time),434404.3000000119,A,shore,O,e,431,1,3331.900000035763,431072.39999997616,7761,WL,C,2.0
3,9.047999858856201,learn,50952.0001411438,Tue Feb 17 2026 14:40:40 GMT-0600 (Central Standard Time),435186.89999997616,A,shoreenter,O,enter,767,1,4114.5,431072.39999997616,7761,WL,C,2.0
3,10.047999858856201,learn,49952.0001411438,Tue Feb 17 2026 14:40:40 GMT-0600 (Central Standard Time),436186.8000000119,A,b,O,b,979,1,999.6000000238419,435187.1999999881,7761,WL,C,3.0
3,10.54699993133545,learn,49453.00006866455,Tue Feb 17 2026 14:40:40 GMT-0600 (Central Standard Time),436686.5,A,bo,O,o,487,1,1499.300000011921,435187.1999999881,7761,WL,C,3.0
3,11.04699993133545,learn,48953.00006866455,Tue Feb 17 2026 14:40:40 GMT-0600 (Central Standard Time),437186.5,A,boy,O,y,486,1,1999.300000011921,435187.1999999881,7761,WL,C,3.0
3,12.013999938964844,learn,47986.000061035156,Tue Feb 17 2026 14:40:40 GMT-0600 (Central Standard Time),438153.39999997616,A,boyenter,O,enter,951,1,2966.199999988079,435187.1999999881,7761,WL,C,3.0
3,13.894999980926514,learn,46105.000019073486,Tue Feb 17 2026 14:40:40 GMT-0600 (Central Standard Time),440034.60000002384,A,s,O,s,1876,1,1881.0,438153.60000002384,7761,WL,C,4.0
3,14.38100004196167,learn,45618.99995803833,Tue Feb 17 2026 14:40:40 GMT-0600 (Central Standard Time),440520.6999999881,A,sh,O,h,465,1,2367.099999964237,438153.60000002384,7761,WL,C,4.0
3,14.878999948501587,learn,45121.00005149841,Tue Feb 17 2026 14:40:40 GMT-0600 (Central Standard Time),441018.1999999881,A,she,O,e,491,1,2864.599999964237,438153.60000002384,7761,WL,C,4.0
3,15.128999948501587,learn,44871.00005149841,Tue Feb 17 2026 14:40:40 GMT-0600 (Central Standard Time),441267.89999997616,A,shee,O,e,242,1,3114.2999999523163,438153.60000002384,7761,WL,C,4.0
3,15.428999900817871,learn,44571.00009918213,Tue Feb 17 2026 14:40:40 GMT-0600 (Central Standard Time),441568.5,A,sheep,O,p,286,1,3414.899999976158,438153.60000002384,7761,WL,C,4.0
3,16.477999925613403,learn,43522.0000743866,Tue Feb 17 2026 14:40:40 GMT-0600 (Central Standard Time),442617.60000002384,A,sheepenter,O,enter,1033,1,4464.0,438153.60000002384,7761,WL,C,4.0
3,20.32799983024597,learn,39672.00016975403,Tue Feb 17 2026 14:40:40 GMT-0600 (Central Standard Time),446467.10000002384,A,c,O,c,3829,1,3848.600000023842,442618.5,7761,WL,C,5.0
3,20.895999908447266,learn,39104.000091552734,Tue Feb 17 2026 14:40:40 GMT-0600 (Central Standard Time),447035.6999999881,A,ca,O,a,554,1,4417.199999988079,442618.5,7761,WL,C,5.0
3,21.411999940872192,learn,38588.00005912781,Tue Feb 17 2026 14:40:40 GMT-0600 (Central Standard Time),447550.89999997616,A,cat,O,t,505,1,4932.399999976158,442618.5,7761,WL,C,5.0
3,21.626999855041504,learn,38373.000144958496,Tue Feb 17 2026 14:40:40 GMT-0600 (Central Standard Time),447766.1999999881,A,catt,O,t,205,1,5147.699999988079,442618.5,7761,WL,C,5.0
3,21.960999965667725,learn,38039.000034332275,Tue Feb 17 2026 14:40:40 GMT-0600 (Central Standard Time),448100.3000000119,A,cattl,O,l,326,1,5481.800000011921,442618.5,7761,WL,C,5.0
3,22.27900004386902,learn,37720.99995613098,Tue Feb 17 2026 14:40:40 GMT-0600 (Central Standard Time),448418.3000000119,A,cattle,O,e,304,1,5799.800000011921,442618.5,7761,WL,C,5.0
3,23.14299988746643,learn,36857.00011253357,Tue Feb 17 2026 14:40:40 GMT-0600 (Central Standard Time),449282.1999999881,A,cattleenter,O,enter,842,1,6663.699999988079,442618.5,7761,WL,C,5.0
3,24.360999822616577,learn,35639.00017738342,Tue Feb 17 2026 14:40:40 GMT-0600 (Central Standard Time),450500.0,A,n,O,n,1202,1,1217.5,449282.5,7761,WL,C,6.0
3,24.643999814987183,learn,35356.00018501282,Tue Feb 17 2026 14:40:40 GMT-0600 (Central Standard Time),450783.10000002384,A,na,O,a,271,1,1500.6000000238419,449282.5,7761,WL,C,6.0
3,24.942999839782715,learn,35057.000160217285,Tue Feb 17 2026 14:40:40 GMT-0600 (Central Standard Time),451081.89999997616,A,nai,O,i,285,1,1799.3999999761581,449282.5,7761,WL,C,6.0
3,25.29199981689453,learn,34708.00018310547,Tue Feb 17 2026 14:40:40 GMT-0600 (Central Standard Time),451431.39999997616,A,nail,O,l,332,1,2148.899999976158,449282.5,7761,WL,C,6.0
3,26.375999927520752,learn,33624.00007247925,Tue Feb 17 2026 14:40:40 GMT-0600 (Central Standard Time),452514.89999997616,A,nailenter,O,enter,1068,1,3232.399999976158,449282.5,7761,WL,C,6.0
3,35.620999813079834,learn,24379.000186920166,Tue Feb 17 2026 14:40:40 GMT-0600 (Central Standard Time),461760.3000000119,A,s,O,s,9225,1,9245.199999988079,452515.10000002384,7761,WL,C,7.0
3,36.00600004196167,learn,23993.99995803833,Tue Feb 17 2026 14:40:40 GMT-0600 (Central Standard Time),462145.60000002384,A,sh,O,h,374,1,9630.5,452515.10000002384,7761,WL,C,7.0
3,36.371999979019165,learn,23628.000020980835,Tue Feb 17 2026 14:40:40 GMT-0600 (Central Standard Time),462511.6999999881,A,sha,O,a,353,1,9996.599999964237,452515.10000002384,7761,WL,C,7.0
3,36.77300000190735,learn,23226.99999809265,Tue Feb 17 2026 14:40:40 GMT-0600 (Central Standard Time),462911.89999997616,A,shap,O,p,381,1,10396.799999952316,452515.10000002384,7761,WL,C,7.0
3,37.187999963760376,learn,22812.000036239624,Tue Feb 17 2026 14:40:40 GMT-0600 (Central Standard Time),463327.60000002384,A,shape,O,e,404,1,10812.5,452515.10000002384,7761,WL,C,7.0
3,37.98799991607666,learn,22012.00008392334,Tue Feb 17 2026 14:40:40 GMT-0600 (Central Standard Time),464127.6999999881,A,shapeenter,O,enter,790,1,11612.599999964237,452515.10000002384,7761,WL,C,7.0
3,46.38499999046326,learn,13615.000009536743,Tue Feb 17 2026 14:40:40 GMT-0600 (Central Standard Time),472524.5,A,w,O,w,8380,1,8396.5,464128.0,7761,WL,C,8.0
3,46.68499994277954,learn,13315.000057220459,Tue Feb 17 2026 14:40:40 GMT-0600 (Central Standard Time),472824.8000000119,A,wh,O,h,288,1,8696.800000011921,464128.0,7761,WL,C,8.0
3,46.93599987030029,learn,13064.000129699707,Tue Feb 17 2026 14:40:40 GMT-0600 (Central Standard Time),473075.5,A,whe,O,e,244,1,8947.5,464128.0,7761,WL,C,8.0
3,47.269999980926514,learn,12730.000019073486,Tue Feb 17 2026 14:40:40 GMT-0600 (Central Standard Time),473408.8000000119,A,whea,O,a,319,1,9280.800000011921,464128.0,7761,WL,C,8.0
3,47.6029999256134,learn,12397.000074386597,Tue Feb 17 2026 14:40:40 GMT-0600 (Central Standard Time),473741.89999997616,A,wheat,O,t,316,1,9613.899999976158,464128.0,7761,WL,C,8.0
3,48.76899981498718,learn,11231.000185012817,Tue Feb 17 2026 14:40:40 GMT-0600 (Central Standard Time),474907.8000000119,A,wheatenter,O,enter,1144,1,10779.800000011921,464128.0,7761,WL,C,8.0
3,56.383999824523926,learn,3616.000175476074,Tue Feb 17 2026 14:40:40 GMT-0600 (Central Standard Time),482523.39999997616,A,s,O,s,7601,1,7615.299999952316,474908.10000002384,7761,WL,C,9.0
3,56.865999937057495,learn,3134.000062942505,Tue Feb 17 2026 14:40:40 GMT-0600 (Central Standard Time),483005.1999999881,A,sh,O,h,459,1,8097.099999964237,474908.10000002384,7761,WL,C,9.0
3,57.73300004005432,learn,2266.9999599456787,Tue Feb 17 2026 14:40:40 GMT-0600 (Central Standard Time),483872.0,A,she,O,e,847,1,8963.899999976158,474908.10000002384,7761,WL,C,9.0
3,57.98199987411499,learn,2018.0001258850098,Tue Feb 17 2026 14:40:40 GMT-0600 (Central Standard Time),484121.6999999881,A,shee,O,e,229,1,9213.599999964237,474908.10000002384,7761,WL,C,9.0
3,58.24799990653992,learn,1752.000093460083,Tue Feb 17 2026 14:40:40 GMT-0600 (Central Standard Time),484387.6999999881,A,sheep,O,p,261,1,9479.599999964237,474908.10000002384,7761,WL,C,9.0
3,58.7979998588562,learn,1202.0001411437988,Tue Feb 17 2026 14:40:40 GMT-0600 (Central Standard Time),484937.3000000119,A,sheepenter,O,enter,538,1,10029.199999988079,474908.10000002384,7761,WL,C,9.0
3,60.01699995994568,learn,-16.99995994567871,Tue Feb 17 2026 14:40:40 GMT-0600 (Central Standard Time),486156.0,A,None,O,None,1215,1,1218.5,484937.5,7761,WL,C,10.0
4,1.1170001029968262,learn,58882.999897003174,Tue Feb 17 2026 14:40:40 GMT-0600 (Central Standard Time),559780.8999999762,A,b,O,b,1107,1,1116.5999999642372,558664.3000000119,7761,WL,C,1.0
4,1.6150000095367432,learn,58384.99999046326,Tue Feb 17 2026 14:40:40 GMT-0600 (Central Standard Time),560279.8999999762,A,bo,O,o,482,1,1615.5999999642372,558664.3000000119,7761,WL,C,1.0
4,2.0490000247955322,learn,57950.99997520447,Tue Feb 17 2026 14:40:40 GMT-0600 (Central Standard Time),560713.8999999762,A,bod,O,d,412,1,2049.599999964237,558664.3000000119,7761,WL,C,1.0
4,2.430999994277954,learn,57569.000005722046,Tue Feb 17 2026 14:40:40 GMT-0600 (Central Standard Time),561095.8000000119,A,body,O,y,366,1,2431.5,558664.3000000119,7761,WL,C,1.0
4,3.249000072479248,learn,56750.99992752075,Tue Feb 17 2026 14:40:40 GMT-0600 (Central Standard Time),561913.3999999762,A,bodyenter,O,enter,796,1,3249.099999964237,558664.3000000119,7761,WL,C,1.0
4,4.04800009727478,learn,55951.99990272522,Tue Feb 17 2026 14:40:40 GMT-0600 (Central Standard Time),562712.8000000119,A,s,O,s,788,1,799.0,561913.8000000119,7761,WL,C,2.0
4,4.447999954223633,learn,55552.00004577637,Tue Feb 17 2026 14:40:40 GMT-0600 (Central Standard Time),563112.6000000238,A,sh,O,h,385,1,1198.800000011921,561913.8000000119,7761,WL,C,2.0
4,5.015000104904175,learn,54984.999895095825,Tue Feb 17 2026 14:40:40 GMT-0600 (Central Standard Time),563679.0,A,sho,O,o,558,1,1765.199999988079,561913.8000000119,7761,WL,C,2.0
4,5.414000034332275,learn,54585.999965667725,Tue Feb 17 2026 14:40:40 GMT-0600 (Central Standard Time),564078.3999999762,A,shoo,O,o,385,1,2164.599999964237,561913.8000000119,7761,WL,C,2.0
4,5.815000057220459,learn,54184.99994277954,Tue Feb 17 2026 14:40:40 GMT-0600 (Central Standard Time),564479.6999999881,A,shoor,O,r,390,1,2565.899999976158,561913.8000000119,7761,WL,C,2.0
4,6.197000026702881,learn,53802.99997329712,Tue Feb 17 2026 14:40:40 GMT-0600 (Central Standard Time),564861.8000000119,A,shoore,O,e,373,1,2948.0,561913.8000000119,7761,WL,C,2.0
4,6.781000137329102,learn,53218.9998626709,Tue Feb 17 2026 14:40:40 GMT-0600 (Central Standard Time),565445.6999999881,A,shooreenter,O,enter,564,1,3531.899999976158,561913.8000000119,7761,WL,C,2.0
4,8.38100004196167,learn,51618.99995803833,Tue Feb 17 2026 14:40:40 GMT-0600 (Central Standard Time),567045.1999999881,A,t,O,t,1583,1,1599.300000011921,565445.8999999762,7761,WL,C,3.0
4,8.797000169754028,learn,51202.99983024597,Tue Feb 17 2026 14:40:40 GMT-0600 (Central Standard Time),567461.1000000238,A,to,O,o,394,1,2015.2000000476837,565445.8999999762,7761,WL,C,3.0
4,9.246999979019165,learn,50753.000020980835,Tue Feb 17 2026 14:40:40 GMT-0600 (Central Standard Time),567911.1999999881,A,tow,O,w,427,1,2465.300000011921,565445.8999999762,7761,WL,C,3.0
4,9.663000106811523,learn,50336.99989318848,Tue Feb 17 2026 14:40:40 GMT-0600 (Central Standard Time),568327.3999999762,A,towe,O,e,403,1,2881.5,565445.8999999762,7761,WL,C,3.0
4,10.080000162124634,learn,49919.999837875366,Tue Feb 17 2026 14:40:40 GMT-0600 (Central Standard Time),568744.6999999881,A,tower,O,r,404,1,3298.800000011921,565445.8999999762,7761,WL,C,3.0
4,11.245000123977661,learn,48754.99987602234,Tue Feb 17 2026 14:40:40 GMT-0600 (Central Standard Time),569909.6000000238,A,towerenter,O,enter,1150,1,4463.700000047684,565445.8999999762,7761,WL,C,3.0
4,12.029000043869019,learn,47970.99995613098,Tue Feb 17 2026 14:40:40 GMT-0600 (Central Standard Time),570693.6999999881,A,b,O,b,767,1,783.8999999761581,569909.8000000119,7761,WL,C,4.0
4,12.430000066757202,learn,47569.9999332428,Tue Feb 17 2026 14:40:40 GMT-0600 (Central Standard Time),571094.3000000119,A,bo,O,o,382,1,1184.5,569909.8000000119,7761,WL,C,4.0
4,12.896000146865845,learn,47103.999853134155,Tue Feb 17 2026 14:40:40 GMT-0600 (Central Standard Time),571560.0,A,boy,O,y,452,1,1650.199999988079,569909.8000000119,7761,WL,C,4.0
4,13.644999980926514,learn,46355.000019073486,Tue Feb 17 2026 14:40:40 GMT-0600 (Central Standard Time),572309.6999999881,A,boyenter,O,enter,728,1,2399.899999976158,569909.8000000119,7761,WL,C,4.0
4,14.628000020980835,learn,45371.999979019165,Tue Feb 17 2026 14:40:40 GMT-0600 (Central Standard Time),573292.8999999762,A,d,O,d,976,1,983.0,572309.8999999762,7761,WL,C,5.0
4,15.029000043869019,learn,44970.99995613098,Tue Feb 17 2026 14:40:40 GMT-0600 (Central Standard Time),573693.0,A,do,O,o,393,1,1383.1000000238419,572309.8999999762,7761,WL,C,5.0
4,15.378000020980835,learn,44621.999979019165,Tue Feb 17 2026 14:40:40 GMT-0600 (Central Standard Time),574042.5,A,doc,O,c,343,1,1732.6000000238419,572309.8999999762,7761,WL,C,5.0
4,15.795000076293945,learn,44204.999923706055,Tue Feb 17 2026 14:40:40 GMT-0600 (Central Standard Time),574459.3000000119,A,doct,O,t,410,1,2149.400000035763,572309.8999999762,7761,WL,C,5.0
4,16.228000164031982,learn,43771.99983596802,Tue Feb 17 2026 14:40:40 GMT-0600 (Central Standard Time),574892.1999999881,A,docto,O,o,416,1,2582.300000011921,572309.8999999762,7761,WL,C,5.0
4,16.64800000190735,learn,43351.99999809265,Tue Feb 17 2026 14:40:40 GMT-0600 (Central Standard Time),575312.3000000119,A,doctor,O,r,403,1,3002.400000035763,572309.8999999762,7761,WL,C,5.0
4,17.66100001335144,learn,42338.99998664856,Tue Feb 17 2026 14:40:40 GMT-0600 (Central Standard Time),576325.5,A,doctorenter,O,enter,999,1,4015.600000023842,572309.8999999762,7761,WL,C,5.0
4,18.646000146865845,learn,41353.999853134155,Tue Feb 17 2026 14:40:40 GMT-0600 (Central Standard Time),577310.0,A,f,O,f,979,1,984.3999999761581,576325.6000000238,7761,WL,C,6.0
4,19.094000101089478,learn,40905.99989891052,Tue Feb 17 2026 14:40:40 GMT-0600 (Central Standard Time),577758.3999999762,A,fl,O,l,438,1,1432.7999999523163,576325.6000000238,7761,WL,C,6.0
4,19.526000022888184,learn,40473.99997711182,Tue Feb 17 2026 14:40:40 GMT-0600 (Central Standard Time),578190.6999999881,A,fla,O,a,415,1,1865.0999999642372,576325.6000000238,7761,WL,C,6.0
4,19.960999965667725,learn,40039.000034332275,Tue Feb 17 2026 14:40:40 GMT-0600 (Central Standard Time),578625.1999999881,A,flag,O,g,421,1,2299.599999964237,576325.6000000238,7761,WL,C,6.0
4,21.026000022888184,learn,38973.99997711182,Tue Feb 17 2026 14:40:40 GMT-0600 (Central Standard Time),579690.8000000119,A,flagenter,O,enter,1052,1,3365.199999988079,576325.6000000238,7761,WL,C,6.0
4,24.891000032424927,learn,35108.99996757507,Tue Feb 17 2026 14:40:40 GMT-0600 (Central Standard Time),583555.3000000119,A,s,O,s,3859,1,3864.300000011921,579691.0,7761,WL,C,7.0
4,25.294000148773193,learn,34705.99985122681,Tue Feb 17 2026 14:40:40 GMT-0600 (Central Standard Time),583958.1999999881,A,sh,O,h,394,1,4267.199999988079,579691.0,7761,WL,C,7.0
4,25.741000175476074,learn,34258.999824523926,Tue Feb 17 2026 14:40:40 GMT-0600 (Central Standard Time),584405.5,A,she,O,e,425,1,4714.5,579691.0,7761,WL,C,7.0
4,26.125,learn,33875.0,Tue Feb 17 2026 14:40:40 GMT-0600 (Central Standard Time),584789.8000000119,A,shee,O,e,366,1,5098.800000011921,579691.0,7761,WL,C,7.0
4,26.45800018310547,learn,33541.99981689453,Tue Feb 17 2026 14:40:40 GMT-0600 (Central Standard Time),585122.6000000238,A,sheep,O,p,319,1,5431.600000023842,579691.0,7761,WL,C,7.0
4,27.424999952316284,learn,32575.000047683716,Tue Feb 17 2026 14:40:40 GMT-0600 (Central Standard Time),586089.1000000238,A,sheepenter,O,enter,953,1,6398.100000023842,579691.0,7761,WL,C,7.0
4,35.48900008201599,learn,24510.99991798401,Tue Feb 17 2026 14:40:40 GMT-0600 (Central Standard Time),594153.3000000119,A,c,O,c,8044,1,8063.800000011921,586089.5,7761,WL,C,8.0
4,35.78800010681152,learn,24211.999893188477,Tue Feb 17 2026 14:40:40 GMT-0600 (Central Standard Time),594452.8000000119,A,co,O,o,281,1,8363.300000011921,586089.5,7761,WL,C,8.0
4,36.07200002670288,learn,23927.99997329712,Tue Feb 17 2026 14:40:40 GMT-0600 (Central Standard Time),594736.6000000238,A,cor,O,r,262,1,8647.100000023842,586089.5,7761,WL,C,8.0
4,36.38900017738342,learn,23610.999822616577,Tue Feb 17 2026 14:40:40 GMT-0600 (Central Standard Time),595053.1999999881,A,corn,O,n,299,1,8963.699999988079,586089.5,7761,WL,C,8.0
4,37.22099995613098,learn,22779.00004386902,Tue Feb 17 2026 14:40:40 GMT-0600 (Central Standard Time),595886.0,A,cornenter,O,enter,823,1,9796.5,586089.5,7761,WL,C,8.0
4,40.45300006866455,learn,19546.99993133545,Tue Feb 17 2026 14:40:40 GMT-0600 (Central Standard Time),599117.8999999762,A,f,O,f,3216,1,3231.599999964237,595886.3000000119,7761,WL,C,9.0
4,40.705000162124634,learn,19294.999837875366,Tue Feb 17 2026 14:40:40 GMT-0600 (Central Standard Time),599369.3999999762,A,fl,O,l,239,1,3483.099999964237,595886.3000000119,7761,WL,C,9.0
4,41.004000186920166,learn,18995.999813079834,Tue Feb 17 2026 14:40:40 GMT-0600 (Central Standard Time),599668.3000000119,A,fla,O,a,295,1,3782.0,595886.3000000119,7761,WL,C,9.0
4,41.986000061035156,learn,18013.999938964844,Tue Feb 17 2026 14:40:40 GMT-0600 (Central Standard Time),600651.0,A,flag,O,g,977,1,4764.699999988079,595886.3000000119,7761,WL,C,9.0
4,43.01900005340576,learn,16980.99994659424,Tue Feb 17 2026 14:40:40 GMT-0600 (Central Standard Time),601683.6999999881,A,flagenter,O,enter,1025,1,5797.399999976158,595886.3000000119,7761,WL,C,9.0
4,50.90000009536743,learn,9099.999904632568,Tue Feb 17 2026 14:40:40 GMT-0600 (Central Standard Time),609564.6000000238,A,n,O,n,7874,1,7880.600000023842,601684.0,7761,WL,C,10.0
4,51.18300008773804,learn,8816.999912261963,Tue Feb 17 2026 14:40:40 GMT-0600 (Central Standard Time),609847.8000000119,A,na,O,a,274,1,8163.800000011921,601684.0,7761,WL,C,10.0
4,51.450000047683716,learn,8549.999952316284,Tue Feb 17 2026 14:40:40 GMT-0600 (Central Standard Time),610114.6000000238,A,nai,O,i,254,1,8430.600000023842,601684.0,7761,WL,C,10.0
4,51.75100016593933,learn,8248.999834060669,Tue Feb 17 2026 14:40:40 GMT-0600 (Central Standard Time),610415.1999999881,A,nail,O,l,291,1,8731.199999988079,601684.0,7761,WL,C,10.0
4,52.50100016593933,learn,7498.999834060669,Tue Feb 17 2026 14:40:40 GMT-0600 (Central Standard Time),611165.1999999881,A,nailenter,O,enter,729,1,9481.199999988079,601684.0,7761,WL,C,10.0
4,60.01400017738342,learn,-14.000177383422852,Tue Feb 17 2026 14:40:40 GMT-0600 (Central Standard Time),618678.6000000238,A,None,O,None,7509,1,7513.100000023842,611165.5,7761,WL,C,11.0
5,1.366999864578247,learn,60000.0,Tue Feb 17 2026 14:40:40 GMT-0600 (Central Standard Time),693404.6000000238,A,b,O,b,1359,1,1366.5,692038.1000000238,7761,WL,C,1.0
5,1.866999864578247,learn,60000.0,Tue Feb 17 2026 14:40:40 GMT-0600 (Central Standard Time),693904.6999999881,A,bo,O,o,480,1,1866.5999999642372,692038.1000000238,7761,WL,C,1.0
5,2.251999855041504,learn,60000.0,Tue Feb 17 2026 14:40:40 GMT-0600 (Central Standard Time),694289.1999999881,A,bod,O,d,369,1,2251.099999964237,692038.1000000238,7761,WL,C,1.0
5,2.6669998168945312,learn,60000.0,Tue Feb 17 2026 14:40:40 GMT-0600 (Central Standard Time),694704.6000000238,A,body,O,y,403,1,2666.5,692038.1000000238,7761,WL,C,1.0
5,4.299000024795532,learn,60000.0,Tue Feb 17 2026 14:40:40 GMT-0600 (Central Standard Time),696337.0,A,bodyenter,O,enter,1613,1,4298.899999976158,692038.1000000238,7761,WL,C,1.0
5,7.049000024795532,learn,60000.0,Tue Feb 17 2026 14:40:40 GMT-0600 (Central Standard Time),699086.6000000238,A,s,O,s,2731,1,2749.300000011921,696337.3000000119,7761,WL,C,2.0
5,7.38100004196167,learn,60000.0,Tue Feb 17 2026 14:40:40 GMT-0600 (Central Standard Time),699418.8000000119,A,sh,O,h,318,1,3081.5,696337.3000000119,7761,WL,C,2.0
5,7.7149999141693115,learn,60000.0,Tue Feb 17 2026 14:40:40 GMT-0600 (Central Standard Time),699753.3000000119,A,sha,O,a,313,1,3416.0,696337.3000000119,7761,WL,C,2.0
5,8.214999914169312,learn,60000.0,Tue Feb 17 2026 14:40:40 GMT-0600 (Central Standard Time),700252.6000000238,A,shap,O,p,493,1,3915.300000011921,696337.3000000119,7761,WL,C,2.0
5,8.63100004196167,learn,60000.0,Tue Feb 17 2026 14:40:40 GMT-0600 (Central Standard Time),700668.6000000238,A,shape,O,e,408,1,4331.300000011921,696337.3000000119,7761,WL,C,2.0
5,9.148000001907349,learn,60000.0,Tue Feb 17 2026 14:40:40 GMT-0600 (Central Standard Time),701185.5,A,shapeenter,O,enter,505,1,4848.199999988079,696337.3000000119,7761,WL,C,2.0
5,9.962999820709229,learn,60000.0,Tue Feb 17 2026 14:40:40 GMT-0600 (Central Standard Time),702000.8000000119,A,b,O,b,803,1,815.1000000238419,701185.6999999881,7761,WL,C,3.0
5,10.430999994277954,learn,60000.0,Tue Feb 17 2026 14:40:40 GMT-0600 (Central Standard Time),702469.1000000238,A,bo,O,o,464,1,1283.4000000357628,701185.6999999881,7761,WL,C,3.0
5,10.914000034332275,learn,60000.0,Tue Feb 17 2026 14:40:40 GMT-0600 (Central Standard Time),702951.3000000119,A,boy,O,y,470,1,1765.6000000238419,701185.6999999881,7761,WL,C,3.0
5,11.76199984550476,learn,60000.0,Tue Feb 17 2026 14:40:40 GMT-0600 (Central Standard Time),703800.0,A,boyenter,O,enter,830,1,2614.300000011921,701185.6999999881,7761,WL,C,3.0
5,12.345999956130981,learn,60000.0,Tue Feb 17 2026 14:40:40 GMT-0600 (Central Standard Time),704383.6000000238,A,d,O,d,573,1,583.4000000357628,703800.1999999881,7761,WL,C,4.0
5,12.745999813079834,learn,60000.0,Tue Feb 17 2026 14:40:40 GMT-0600 (Central Standard Time),704783.8999999762,A,do,O,o,380,1,983.6999999880791,703800.1999999881,7761,WL,C,4.0
5,13.046000003814697,learn,60000.0,Tue Feb 17 2026 14:40:40 GMT-0600 (Central Standard Time),705083.6999999881,A,doc,O,c,296,1,1283.5,703800.1999999881,7761,WL,C,4.0
5,13.480000019073486,learn,60000.0,Tue Feb 17 2026 14:40:40 GMT-0600 (Central Standard Time),705517.3999999762,A,doct,O,t,416,1,1717.199999988079,703800.1999999881,7761,WL,C,4.0
5,13.813999891281128,learn,60000.0,Tue Feb 17 2026 14:40:40 GMT-0600 (Central Standard Time),705851.8000000119,A,docto,O,o,325,1,2051.600000023842,703800.1999999881,7761,WL,C,4.0
5,14.345999956130981,learn,60000.0,Tue Feb 17 2026 14:40:40 GMT-0600 (Central Standard Time),706383.3000000119,A,doctor,O,r,521,1,2583.100000023842,703800.1999999881,7761,WL,C,4.0
5,15.69599986076355,learn,60000.0,Tue Feb 17 2026 14:40:40 GMT-0600 (Central Standard Time),707733.3999999762,A,doctorenter,O,enter,1332,1,3933.199999988079,703800.1999999881,7761,WL,C,4.0
5,17.477999925613403,learn,60000.0,Tue Feb 17 2026 14:40:40 GMT-0600 (Central Standard Time),709515.8999999762,A,q,O,q,1768,1,1782.199999988079,707733.6999999881,7761,WL,C,5.0
5,17.878999948501587,learn,60000.0,Tue Feb 17 2026 14:40:40 GMT-0600 (Central Standard Time),709916.8000000119,A,qu,O,u,393,1,2183.100000023842,707733.6999999881,7761,WL,C,5.0
5,18.26199984550476,learn,60000.0,Tue Feb 17 2026 14:40:40 GMT-0600 (Central Standard Time),710299.8000000119,A,que,O,e,378,1,2566.100000023842,707733.6999999881,7761,WL,C,5.0
5,18.59500002861023,learn,60000.0,Tue Feb 17 2026 14:40:40 GMT-0600 (Central Standard Time),710632.6000000238,A,quee,O,e,320,1,2898.900000035763,707733.6999999881,7761,WL,C,5.0
5,18.977999925613403,learn,60000.0,Tue Feb 17 2026 14:40:40 GMT-0600 (Central Standard Time),711015.6000000238,A,queen,O,n,372,1,3281.900000035763,707733.6999999881,7761,WL,C,5.0
5,20.24399995803833,learn,60000.0,Tue Feb 17 2026 14:40:40 GMT-0600 (Central Standard Time),712282.0,A,queenenter,O,enter,1259,1,4548.300000011921,707733.6999999881,7761,WL,C,5.0
5,20.994999885559082,learn,60000.0,Tue Feb 17 2026 14:40:40 GMT-0600 (Central Standard Time),713032.8000000119,A,c,O,c,733,1,750.6000000238419,712282.1999999881,7761,WL,C,6.0
5,21.342999935150146,learn,60000.0,Tue Feb 17 2026 14:40:40 GMT-0600 (Central Standard Time),713380.3999999762,A,ca,O,a,332,1,1098.199999988079,712282.1999999881,7761,WL,C,6.0
5,21.710999965667725,learn,60000.0,Tue Feb 17 2026 14:40:40 GMT-0600 (Central Standard Time),713748.6000000238,A,cat,O,t,364,1,1466.4000000357628,712282.1999999881,7761,WL,C,6.0
5,21.960999965667725,learn,60000.0,Tue Feb 17 2026 14:40:40 GMT-0600 (Central Standard Time),713998.5,A,catt,O,t,231,1,1716.300000011921,712282.1999999881,7761,WL,C,6.0
5,23.210000038146973,learn,60000.0,Tue Feb 17 2026 14:40:40 GMT-0600 (Central Standard Time),715247.3000000119,A,cattl,O,l,1231,1,2965.100000023842,712282.1999999881,7761,WL,C,6.0
5,23.54199981689453,learn,60000.0,Tue Feb 17 2026 14:40:40 GMT-0600 (Central Standard Time),715579.8000000119,A,cattle,O,e,318,1,3297.600000023842,712282.1999999881,7761,WL,C,6.0
5,24.04199981689453,learn,60000.0,Tue Feb 17 2026 14:40:40 GMT-0600 (Central Standard Time),716079.6000000238,A,cattleenter,O,enter,491,1,3797.400000035763,712282.1999999881,7761,WL,C,6.0
5,24.878000020980835,learn,60000.0,Tue Feb 17 2026 14:40:40 GMT-0600 (Central Standard Time),716915.3999999762,A,n,O,n,832,1,835.5999999642372,716079.8000000119,7761,WL,C,7.0
5,25.192999839782715,learn,60000.0,Tue Feb 17 2026 14:40:40 GMT-0600 (Central Standard Time),717230.5,A,na,O,a,304,1,1150.699999988079,716079.8000000119,7761,WL,C,7.0
5,25.526999950408936,learn,60000.0,Tue Feb 17 2026 14:40:40 GMT-0600 (Central Standard Time),717564.8999999762,A,nai,O,i,317,1,1485.0999999642372,716079.8000000119,7761,WL,C,7.0
5,25.893999814987183,learn,60000.0,Tue Feb 17 2026 14:40:40 GMT-0600 (Central Standard Time),717931.5,A,nail,O,l,345,1,1851.699999988079,716079.8000000119,7761,WL,C,7.0
5,26.743000030517578,learn,60000.0,Tue Feb 17 2026 14:40:40 GMT-0600 (Central Standard Time),718780.1999999881,A,nailenter,O,enter,840,1,2700.399999976158,716079.8000000119,7761,WL,C,7.0
5,27.425999879837036,learn,60000.0,Tue Feb 17 2026 14:40:40 GMT-0600 (Central Standard Time),719463.8000000119,A,f,O,f,665,1,683.4000000357628,718780.3999999762,7761,WL,C,8.0
5,27.875999927520752,learn,60000.0,Tue Feb 17 2026 14:40:40 GMT-0600 (Central Standard Time),719913.5,A,fl,O,l,430,1,1133.1000000238419,718780.3999999762,7761,WL,C,8.0
5,28.20899987220764,learn,60000.0,Tue Feb 17 2026 14:40:40 GMT-0600 (Central Standard Time),720247.0,A,fla,O,a,316,1,1466.6000000238419,718780.3999999762,7761,WL,C,8.0
5,28.72599983215332,learn,60000.0,Tue Feb 17 2026 14:40:40 GMT-0600 (Central Standard Time),720763.1999999881,A,flag,O,g,495,1,1982.800000011921,718780.3999999762,7761,WL,C,8.0
5,29.240999937057495,learn,60000.0,Tue Feb 17 2026 14:40:40 GMT-0600 (Central Standard Time),721279.1000000238,A,flagenter,O,enter,505,1,2498.7000000476837,718780.3999999762,7761,WL,C,8.0
5,29.79099988937378,learn,60000.0,Tue Feb 17 2026 14:40:40 GMT-0600 (Central Standard Time),721828.6999999881,A,d,O,d,533,1,549.3999999761581,721279.3000000119,7761,WL,C,9.0
5,30.223999977111816,learn,60000.0,Tue Feb 17 2026 14:40:40 GMT-0600 (Central Standard Time),722261.3999999762,A,do,O,o,416,1,982.0999999642372,721279.3000000119,7761,WL,C,9.0
5,30.524999856948853,learn,60000.0,Tue Feb 17 2026 14:40:40 GMT-0600 (Central Standard Time),722562.1999999881,A,doc,O,c,279,1,1282.8999999761581,721279.3000000119,7761,WL,C,9.0
5,30.95899987220764,learn,60000.0,Tue Feb 17 2026 14:40:40 GMT-0600 (Central Standard Time),722996.6999999881,A,doct,O,t,430,1,1717.3999999761581,721279.3000000119,7761,WL,C,9.0
5,31.274999856948853,learn,60000.0,Tue Feb 17 2026 14:40:40 GMT-0600 (Central Standard Time),723312.8000000119,A,docto,O,o,294,1,2033.5,721279.3000000119,7761,WL,C,9.0
5,31.573999881744385,learn,60000.0,Tue Feb 17 2026 14:40:40 GMT-0600 (Central Standard Time),723611.6999999881,A,doctor,O,r,292,1,2332.399999976158,721279.3000000119,7761,WL,C,9.0
5,32.75699996948242,learn,60000.0,Tue Feb 17 2026 14:40:40 GMT-0600 (Central Standard Time),724794.5,A,doctorenter,O,enter,1177,1,3515.199999988079,721279.3000000119,7761,WL,C,9.0
5,40.121999979019165,learn,60000.0,Tue Feb 17 2026 14:40:40 GMT-0600 (Central Standard Time),732159.1999999881,A,h,O,h,7356,1,7364.599999964237,724794.6000000238,7761,WL,C,10.0
5,40.47199988365173,learn,60000.0,Tue Feb 17 2026 14:40:40 GMT-0600 (Central Standard Time),732509.3999999762,A,ho,O,o,335,1,7714.799999952316,724794.6000000238,7761,WL,C,10.0
5,40.787999868392944,learn,60000.0,Tue Feb 17 2026 14:40:40 GMT-0600 (Central Standard Time),732825.3999999762,A,hom,O,m,306,1,8030.799999952316,724794.6000000238,7761,WL,C,10.0
5,41.105000019073486,learn,60000.0,Tue Feb 17 2026 14:40:40 GMT-0600 (Central Standard Time),733142.3000000119,A,home,O,e,310,1,8347.699999988079,724794.6000000238,7761,WL,C,10.0
5,41.918999910354614,learn,60000.0,Tue Feb 17 2026 14:40:40 GMT-0600 (Central Standard Time),733957.1000000238,A,homeenter,O,enter,798,1,9162.5,724794.6000000238,7761,WL,C,10.0
5,45.501999855041504,learn,60000.0,Tue Feb 17 2026 14:40:40 GMT-0600 (Central Standard Time),737539.8999999762,A,c,O,c,3568,1,3582.5,733957.3999999762,7761,WL,C,11.0
5,45.870999813079834,learn,60000.0,Tue Feb 17 2026 14:40:40 GMT-0600 (Central Standard Time),737909.1000000238,A,ca,O,a,364,1,3951.7000000476837,733957.3999999762,7761,WL,C,11.0
5,46.253000020980835,learn,60000.0,Tue Feb 17 2026 14:40:40 GMT-0600 (Central Standard Time),738290.8000000119,A,cam,O,m,377,1,4333.400000035763,733957.3999999762,7761,WL,C,11.0
5,46.65400004386902,learn,60000.0,Tue Feb 17 2026 14:40:40 GMT-0600 (Central Standard Time),738691.1999999881,A,camp,O,p,396,1,4733.800000011921,733957.3999999762,7761,WL,C,11.0
5,47.751999855041504,learn,60000.0,Tue Feb 17 2026 14:40:40 GMT-0600 (Central Standard Time),739790.0,A,campenter,O,enter,1081,1,5832.600000023842,733957.3999999762,7761,WL,C,11.0
5,68.54499983787537,learn,60000.0,Tue Feb 17 2026 14:40:40 GMT-0600 (Central Standard Time),760582.8000000119,A,f,O,f,20775,1,20792.5,739790.3000000119,7761,WL,C,12.0
6,2.5820000171661377,distr,57417.99998283386,Tue Feb 17 2026 14:40:40 GMT-0600 (Central Standard Time),835308.6999999881,B,m,O,m,2574,1,2581.699999988079,832727.0,7761,WL,C,1.0
6,3.2660000324249268,distr,56733.99996757507,Tue Feb 17 2026 14:40:40 GMT-0600 (Central Standard Time),835993.0,B,mo,O,o,672,1,3266.0,832727.0,7761,WL,C,1.0
6,3.8500001430511475,distr,56149.99985694885,Tue Feb 17 2026 14:40:40 GMT-0600 (Central Standard Time),836576.8999999762,B,mot,O,t,562,1,3849.899999976158,832727.0,7761,WL,C,1.0
6,4.101000070571899,distr,55898.9999294281,Tue Feb 17 2026 14:40:40 GMT-0600 (Central Standard Time),836827.8000000119,B,moth,O,h,240,1,4100.800000011921,832727.0,7761,WL,C,1.0
6,4.416000127792358,distr,55583.99987220764,Tue Feb 17 2026 14:40:40 GMT-0600 (Central Standard Time),837143.1999999881,B,mothe,O,e,297,1,4416.199999988079,832727.0,7761,WL,C,1.0
6,4.700000047683716,distr,55299.999952316284,Tue Feb 17 2026 14:40:40 GMT-0600 (Central Standard Time),837427.3000000119,B,mother,O,r,263,1,4700.300000011921,832727.0,7761,WL,C,1.0
6,5.431999921798706,distr,54568.000078201294,Tue Feb 17 2026 14:40:40 GMT-0600 (Central Standard Time),838158.8000000119,B,motherenter,O,enter,721,1,5431.800000011921,832727.0,7761,WL,C,1.0
6,6.115000009536743,distr,53884.99999046326,Tue Feb 17 2026 14:40:40 GMT-0600 (Central Standard Time),838841.8000000119,B,c,O,c,661,1,682.8000000119209,838159.0,7761,WL,C,2.0
6,6.465000152587891,distr,53534.99984741211,Tue Feb 17 2026 14:40:40 GMT-0600 (Central Standard Time),839192.1999999881,B,ch,O,h,338,1,1033.199999988079,838159.0,7761,WL,C,2.0
6,6.79800009727478,distr,53201.99990272522,Tue Feb 17 2026 14:40:40 GMT-0600 (Central Standard Time),839525.1000000238,B,chr,O,r,317,1,1366.1000000238419,838159.0,7761,WL,C,2.0
6,7.230000019073486,distr,52769.999980926514,Tue Feb 17 2026 14:40:40 GMT-0600 (Central Standard Time),839957.1999999881,B,chri,O,i,423,1,1798.199999988079,838159.0,7761,WL,C,2.0
6,7.565000057220459,distr,52434.99994277954,Tue Feb 17 2026 14:40:40 GMT-0600 (Central Standard Time),840292.1000000238,B,chris,O,s,320,1,2133.100000023842,838159.0,7761,WL,C,2.0
6,7.947999954223633,distr,52052.00004577637,Tue Feb 17 2026 14:40:40 GMT-0600 (Central Standard Time),840674.3999999762,B,christ,O,t,375,1,2515.399999976158,838159.0,7761,WL,C,2.0
6,8.332000017166138,distr,51667.99998283386,Tue Feb 17 2026 14:40:40 GMT-0600 (Central Standard Time),841059.3999999762,B,christm,O,m,362,1,2900.399999976158,838159.0,7761,WL,C,2.0
6,8.630000114440918,distr,51369.99988555908,Tue Feb 17 2026 14:40:40 GMT-0600 (Central Standard Time),841357.1999999881,B,christma,O,a,280,1,3198.199999988079,838159.0,7761,WL,C,2.0
6,8.996999979019165,distr,51003.000020980835,Tue Feb 17 2026 14:40:40 GMT-0600 (Central Standard Time),841723.6000000238,B,christmas,O,s,351,1,3564.600000023842,838159.0,7761,WL,C,2.0
6,9.663000106811523,distr,50336.99989318848,Tue Feb 17 2026 14:40:40 GMT-0600 (Central Standard Time),842389.6999999881,B,christmasenter,O,enter,647,1,4230.699999988079,838159.0,7761,WL,C,2.0
6,23.742000102996826,distr,36257.999897003174,Tue Feb 17 2026 14:40:40 GMT-0600 (Central Standard Time),856469.1000000238,B,w,O,w,14063,1,14079.200000047684,842389.8999999762,7761,WL,C,3.0
6,24.176000118255615,distr,35823.999881744385,Tue Feb 17 2026 14:40:40 GMT-0600 (Central Standard Time),856903.0,B,wi,O,i,425,1,14513.100000023842,842389.8999999762,7761,WL,C,3.0
6,24.558000087738037,distr,35441.99991226196,Tue Feb 17 2026 14:40:40 GMT-0600 (Central Standard Time),857285.1000000238,B,win,O,n,375,1,14895.200000047684,842389.8999999762,7761,WL,C,3.0
6,24.95900011062622,distr,35040.99988937378,Tue Feb 17 2026 14:40:40 GMT-0600 (Central Standard Time),857686.1999999881,B,wint,O,t,385,1,15296.300000011921,842389.8999999762,7761,WL,C,3.0
6,25.54100012779236,distr,34458.99987220764,Tue Feb 17 2026 14:40:40 GMT-0600 (Central Standard Time),858268.1000000238,B,winte,O,e,575,1,15878.200000047684,842389.8999999762,7761,WL,C,3.0
6,25.875999927520752,distr,34124.00007247925,Tue Feb 17 2026 14:40:40 GMT-0600 (Central Standard Time),858602.5,B,winter,O,r,320,1,16212.600000023842,842389.8999999762,7761,WL,C,3.0
6,26.49399995803833,distr,33506.00004196167,Tue Feb 17 2026 14:40:40 GMT-0600 (Central Standard Time),859221.1999999881,B,winterenter,O,enter,615,1,16831.30000001192,842389.8999999762,7761,WL,C,3.0
6,39.68900012969971,distr,20310.999870300293,Tue Feb 17 2026 14:40:40 GMT-0600 (Central Standard Time),872415.8000000119,B,m,O,m,13176,1,13194.400000035763,859221.3999999762,7761,WL,C,4.0
6,40.687999963760376,distr,19312.000036239624,Tue Feb 17 2026 14:40:40 GMT-0600 (Central Standard Time),873414.5,B,mo,O,o,979,1,14193.100000023842,859221.3999999762,7761,WL,C,4.0
6,41.12100005149841,distr,18878.999948501587,Tue Feb 17 2026 14:40:40 GMT-0600 (Central Standard Time),873847.8999999762,B,mot,O,t,415,1,14626.5,859221.3999999762,7761,WL,C,4.0
6,41.32100009918213,distr,18678.99990081787,Tue Feb 17 2026 14:40:40 GMT-0600 (Central Standard Time),874047.6999999881,B,moth,O,h,181,1,14826.300000011921,859221.3999999762,7761,WL,C,4.0
6,41.569000005722046,distr,18430.999994277954,Tue Feb 17 2026 14:40:40 GMT-0600 (Central Standard Time),874296.3000000119,B,mothe,O,e,236,1,15074.900000035763,859221.3999999762,7761,WL,C,4.0
6,41.83800005912781,distr,18161.999940872192,Tue Feb 17 2026 14:40:40 GMT-0600 (Central Standard Time),874564.8000000119,B,mother,O,r,255,1,15343.400000035763,859221.3999999762,7761,WL,C,4.0
6,42.90300011634827,distr,17096.999883651733,Tue Feb 17 2026 14:40:40 GMT-0600 (Central Standard Time),875629.8999999762,B,motherenter,O,enter,1049,1,16408.5,859221.3999999762,7761,WL,C,4.0
6,52.532999992370605,distr,7467.0000076293945,Tue Feb 17 2026 14:40:40 GMT-0600 (Central Standard Time),885259.8999999762,B,t,O,t,9615,1,9629.699999988079,875630.1999999881,7761,WL,C,5.0
6,52.867000102996826,distr,7132.999897003174,Tue Feb 17 2026 14:40:40 GMT-0600 (Central Standard Time),885594.3000000119,B,to,O,o,323,1,9964.100000023842,875630.1999999881,7761,WL,C,5.0
6,53.282999992370605,distr,6717.0000076293945,Tue Feb 17 2026 14:40:40 GMT-0600 (Central Standard Time),886010.3000000119,B,toy,O,y,396,1,10380.100000023842,875630.1999999881,7761,WL,C,5.0
6,54.74900007247925,distr,5250.999927520752,Tue Feb 17 2026 14:40:40 GMT-0600 (Central Standard Time),887475.8999999762,B,toyenter,O,enter,1451,1,11845.699999988079,875630.1999999881,7761,WL,C,5.0
6,60.015000104904175,distr,-15.000104904174805,Tue Feb 17 2026 14:40:40 GMT-0600 (Central Standard Time),892741.6000000238,B,None,O,None,5262,1,5265.5,887476.1000000238,7761,WL,C,6.0
7,10.180999994277954,immed,49819.000005722046,Tue Feb 17 2026 14:40:40 GMT-0600 (Central Standard Time),917150.8999999762,A,b,O,b,10160,1,10180.5,906970.3999999762,7761,WL,C,1.0
7,10.847000122070312,immed,49152.99987792969,Tue Feb 17 2026 14:40:40 GMT-0600 (Central Standard Time),917817.0,A,bo,O,o,649,1,10846.600000023842,906970.3999999762,7761,WL,C,1.0
7,11.413000106811523,immed,48586.99989318848,Tue Feb 17 2026 14:40:40 GMT-0600 (Central Standard Time),918382.8999999762,A,boy,O,y,548,1,11412.5,906970.3999999762,7761,WL,C,1.0
7,12.71399998664856,immed,47286.00001335144,Tue Feb 17 2026 14:40:40 GMT-0600 (Central Standard Time),919683.5,A,boyenter,O,enter,1290,1,12713.100000023842,906970.3999999762,7761,WL,C,1.0
7,13.494999885559082,immed,46505.00011444092,Tue Feb 17 2026 14:40:40 GMT-0600 (Central Standard Time),920465.0,A,s,O,s,768,1,781.3000000119209,919683.6999999881,7761,WL,C,2.0
7,13.878999948501587,immed,46121.00005149841,Tue Feb 17 2026 14:40:40 GMT-0600 (Central Standard Time),920849.3999999762,A,sh,O,h,369,1,1165.699999988079,919683.6999999881,7761,WL,C,2.0
7,14.296000003814697,immed,45703.9999961853,Tue Feb 17 2026 14:40:40 GMT-0600 (Central Standard Time),921265.6000000238,A,sha,O,a,394,1,1581.9000000357628,919683.6999999881,7761,WL,C,2.0
7,15.01200008392334,immed,44987.99991607666,Tue Feb 17 2026 14:40:40 GMT-0600 (Central Standard Time),921981.8999999762,A,shap,O,p,696,1,2298.199999988079,919683.6999999881,7761,WL,C,2.0
7,15.661999940872192,immed,44338.00005912781,Tue Feb 17 2026 14:40:40 GMT-0600 (Central Standard Time),922632.1999999881,A,shape,O,e,637,1,2948.5,919683.6999999881,7761,WL,C,2.0
7,16.627000093460083,immed,43372.99990653992,Tue Feb 17 2026 14:40:40 GMT-0600 (Central Standard Time),923597.3000000119,A,shapeenter,O,enter,957,1,3913.600000023842,919683.6999999881,7761,WL,C,2.0
7,21.24399995803833,immed,38756.00004196167,Tue Feb 17 2026 14:40:40 GMT-0600 (Central Standard Time),928213.8000000119,A,c,O,c,4600,1,4616.300000011921,923597.5,7761,WL,C,3.0
7,21.628999948501587,immed,38371.00005149841,Tue Feb 17 2026 14:40:40 GMT-0600 (Central Standard Time),928598.6999999881,A,ca,O,a,365,1,5001.199999988079,923597.5,7761,WL,C,3.0
7,22.877000093460083,immed,37122.99990653992,Tue Feb 17 2026 14:40:40 GMT-0600 (Central Standard Time),929846.6999999881,A,cam,O,m,1235,1,6249.199999988079,923597.5,7761,WL,C,3.0
7,23.64400005340576,immed,36355.99994659424,Tue Feb 17 2026 14:40:40 GMT-0600 (Central Standard Time),930613.5,A,camp,O,p,762,1,7016.0,923597.5,7761,WL,C,3.0
7,24.058000087738037,immed,35941.99991226196,Tue Feb 17 2026 14:40:40 GMT-0600 (Central Standard Time),931028.3000000119,A,campenter,O,enter,398,1,7430.800000011921,923597.5,7761,WL,C,3.0
7,24.79200005531311,immed,35207.99994468689,Tue Feb 17 2026 14:40:40 GMT-0600 (Central Standard Time),931761.5,A,d,O,d,720,1,733.0,931028.5,7761,WL,C,4.0
7,25.125,immed,34875.0,Tue Feb 17 2026 14:40:40 GMT-0600 (Central Standard Time),932094.6000000238,A,do,O,o,321,1,1066.1000000238419,931028.5,7761,WL,C,4.0
7,25.443000078201294,immed,34556.999921798706,Tue Feb 17 2026 14:40:40 GMT-0600 (Central Standard Time),932413.0,A,doc,O,c,313,1,1384.5,931028.5,7761,WL,C,4.0
7,25.95799994468689,immed,34042.00005531311,Tue Feb 17 2026 14:40:40 GMT-0600 (Central Standard Time),932928.3999999762,A,doct,O,t,496,1,1899.8999999761581,931028.5,7761,WL,C,4.0
7,26.259000062942505,immed,33740.999937057495,Tue Feb 17 2026 14:40:40 GMT-0600 (Central Standard Time),933229.0,A,docto,O,o,295,1,2200.5,931028.5,7761,WL,C,4.0
7,26.526000022888184,immed,33473.99997711182,Tue Feb 17 2026 14:40:40 GMT-0600 (Central Standard Time),933495.3999999762,A,doctor,O,r,257,1,2466.899999976158,931028.5,7761,WL,C,4.0
7,27.408999919891357,immed,32591.000080108643,Tue Feb 17 2026 14:40:40 GMT-0600 (Central Standard Time),934378.6999999881,A,doctorenter,O,enter,877,1,3350.199999988079,931028.5,7761,WL,C,4.0
7,34.67199993133545,immed,25328.00006866455,Tue Feb 17 2026 14:40:40 GMT-0600 (Central Standard Time),941642.3000000119,A,q,O,q,7250,1,7263.300000011921,934379.0,7761,WL,C,5.0
7,35.07200002670288,immed,24927.99997329712,Tue Feb 17 2026 14:40:40 GMT-0600 (Central Standard Time),942042.3000000119,A,qu,O,u,392,1,7663.300000011921,934379.0,7761,WL,C,5.0
7,35.60599994659424,immed,24394.00005340576,Tue Feb 17 2026 14:40:40 GMT-0600 (Central Standard Time),942575.6999999881,A,que,O,e,514,1,8196.699999988079,934379.0,7761,WL,C,5.0
7,35.888999938964844,immed,24111.000061035156,Tue Feb 17 2026 14:40:40 GMT-0600 (Central Standard Time),942858.5,A,quee,O,e,277,1,8479.5,934379.0,7761,WL,C,5.0
7,36.223000049591064,immed,23776.999950408936,Tue Feb 17 2026 14:40:40 GMT-0600 (Central Standard Time),943192.8000000119,A,queen,O,n,314,1,8813.800000011921,934379.0,7761,WL,C,5.0
7,37.4539999961853,immed,22546.000003814697,Tue Feb 17 2026 14:40:40 GMT-0600 (Central Standard Time),944423.8999999762,A,queenenter,O,enter,1219,1,10044.899999976158,934379.0,7761,WL,C,5.0
7,40.520999908447266,immed,19479.000091552734,Tue Feb 17 2026 14:40:40 GMT-0600 (Central Standard Time),947491.1000000238,A,b,O,b,3062,1,3066.900000035763,944424.1999999881,7761,WL,C,6.0
7,40.90400004386902,immed,19095.99995613098,Tue Feb 17 2026 14:40:40 GMT-0600 (Central Standard Time),947874.3000000119,A,bo,O,o,360,1,3450.100000023842,944424.1999999881,7761,WL,C,6.0
7,41.335999965667725,immed,18664.000034332275,Tue Feb 17 2026 14:40:40 GMT-0600 (Central Standard Time),948306.3999999762,A,bod,O,d,419,1,3882.199999988079,944424.1999999881,7761,WL,C,6.0
7,41.7039999961853,immed,18296.000003814697,Tue Feb 17 2026 14:40:40 GMT-0600 (Central Standard Time),948673.6000000238,A,body,O,y,356,1,4249.400000035763,944424.1999999881,7761,WL,C,6.0
7,42.40300011634827,immed,17596.999883651733,Tue Feb 17 2026 14:40:40 GMT-0600 (Central Standard Time),949372.8000000119,A,bodyenter,O,enter,694,1,4948.600000023842,944424.1999999881,7761,WL,C,6.0
7,43.15300011634827,immed,16846.999883651733,Tue Feb 17 2026 14:40:40 GMT-0600 (Central Standard Time),950123.0,A,s,O,s,737,1,749.8999999761581,949373.1000000238,7761,WL,C,7.0
7,43.5699999332428,immed,16430.000066757202,Tue Feb 17 2026 14:40:40 GMT-0600 (Central Standard Time),950539.6000000238,A,sh,O,h,400,1,1166.5,949373.1000000238,7761,WL,C,7.0
7,43.88700008392334,immed,16112.99991607666,Tue Feb 17 2026 14:40:40 GMT-0600 (Central Standard Time),950856.8999999762,A,sha,O,a,306,1,1483.7999999523163,949373.1000000238,7761,WL,C,7.0
7,44.30299997329712,immed,15697.00002670288,Tue Feb 17 2026 14:40:40 GMT-0600 (Central Standard Time),951273.3999999762,A,shap,O,p,404,1,1900.2999999523163,949373.1000000238,7761,WL,C,7.0
7,44.670000076293945,immed,15329.999923706055,Tue Feb 17 2026 14:40:40 GMT-0600 (Central Standard Time),951639.8999999762,A,shape,O,e,351,1,2266.7999999523163,949373.1000000238,7761,WL,C,7.0
7,45.50200009346008,immed,14497.999906539917,Tue Feb 17 2026 14:40:40 GMT-0600 (Central Standard Time),952472.1999999881,A,shapeenter,O,enter,810,1,3099.099999964237,949373.1000000238,7761,WL,C,7.0
7,57.365999937057495,immed,2634.000062942505,Tue Feb 17 2026 14:40:40 GMT-0600 (Central Standard Time),964336.5,A,n,O,n,11847,1,11864.0,952472.5,7761,WL,C,8.0
7,57.73200011253357,immed,2267.9998874664307,Tue Feb 17 2026 14:40:40 GMT-0600 (Central Standard Time),964702.5,A,na,O,a,347,1,12230.0,952472.5,7761,WL,C,8.0
7,58.098999977111816,immed,1901.0000228881836,Tue Feb 17 2026 14:40:40 GMT-0600 (Central Standard Time),965068.5,A,nai,O,i,359,1,12596.0,952472.5,7761,WL,C,8.0
7,58.430999994277954,immed,1569.000005722046,Tue Feb 17 2026 14:40:40 GMT-0600 (Central Standard Time),965401.3999999762,A,nail,O,l,320,1,12928.899999976158,952472.5,7761,WL,C,8.0
7,59.28099989891052,immed,719.0001010894775,Tue Feb 17 2026 14:40:40 GMT-0600 (Central Standard Time),966251.3000000119,A,nailenter,O,enter,835,1,13778.800000011921,952472.5,7761,WL,C,8.0
7,60.013999938964844,immed,-13.99993896484375,Tue Feb 17 2026 14:40:40 GMT-0600 (Central Standard Time),966984.1999999881,A,None,O,None,729,1,732.5999999642372,966251.6000000238,7761,WL,C,9.0
