block_c,block_dur,condition,countdown,datetime,endtime,list,multichar_response,project,response,response_time,session_number,start_end,starttime,subject_id,task,task_vers,trial
,,,,Thu Oct 23 2025 18:44:21 GMT-0500 (Central Daylight Time),,,,I,space,616,3,,,8018,WL,A,
prac,,0,,Thu Oct 23 2025 18:44:21 GMT-0500 (Central Daylight Time),,NA,b,I,b,10889,3,,,8018,WL,A,1.0
prac,,0,,Thu Oct 23 2025 18:44:21 GMT-0500 (Central Daylight Time),,NA,bo,I,o,1130,3,,,8018,WL,A,1.0
prac,,0,,Thu Oct 23 2025 18:44:21 GMT-0500 (Central Daylight Time),,NA,boo,I,o,206,3,,,8018,WL,A,1.0
prac,,0,,Thu Oct 23 2025 18:44:21 GMT-0500 (Central Daylight Time),,NA,boos,I,s,741,3,,,8018,WL,A,1.0
prac,,0,,Thu Oct 23 2025 18:44:21 GMT-0500 (Central Daylight Time),,NA,boost,I,t,496,3,,,8018,WL,A,1.0
prac,,0,,Thu Oct 23 2025 18:44:21 GMT-0500 (Central Daylight Time),,NA,boostenter,I,enter,932,3,,,8018,WL,A,1.0
1,3.3320000171661377,learn,56667.99998283386,Thu Oct 23 2025 18:44:21 GMT-0500 (Central Daylight Time),122446.90000009537,A,r,I,r,3322,3,3331.9000000953674,119115.0,8018,WL,A,1.0
1,3.865000009536743,learn,56134.99999046326,Thu Oct 23 2025 18:44:21 GMT-0500 (Central Daylight Time),122980.0,A,ru,I,u,525,3,3865.0,119115.0,8018,WL,A,1.0
1,4.648000001907349,learn,55351.99999809265,Thu Oct 23 2025 18:44:21 GMT-0500 (Central Daylight Time),123763.09999990463,A,rug,I,g,769,3,4648.099999904633,119115.0,8018,WL,A,1.0
1,6.063999891281128,learn,53936.00010871887,Thu Oct 23 2025 18:44:21 GMT-0500 (Central Daylight Time),125179.30000019073,A,rugenter,I,enter,1409,3,6064.300000190735,119115.0,8018,WL,A,1.0
1,7.230999946594238,learn,52769.00005340576,Thu Oct 23 2025 18:44:21 GMT-0500 (Central Daylight Time),126345.59999990463,A,b,I,b,1154,3,1165.7999997138977,125179.80000019073,8018,WL,A,2.0
1,7.746999979019165,learn,52253.000020980835,Thu Oct 23 2025 18:44:21 GMT-0500 (Central Daylight Time),126862.0,A,bo,I,o,500,3,1682.1999998092651,125179.80000019073,8018,WL,A,2.0
1,7.980000019073486,learn,52019.999980926514,Thu Oct 23 2025 18:44:21 GMT-0500 (Central Daylight Time),127095.40000009537,A,boo,I,o,215,3,1915.5999999046326,125179.80000019073,8018,WL,A,2.0
1,8.614000082015991,learn,51385.99991798401,Thu Oct 23 2025 18:44:21 GMT-0500 (Central Daylight Time),127728.7000002861,A,book,I,k,621,3,2548.9000000953674,125179.80000019073,8018,WL,A,2.0
1,9.44700002670288,learn,50552.99997329712,Thu Oct 23 2025 18:44:21 GMT-0500 (Central Daylight Time),128561.7000002861,A,bookenter,I,enter,819,3,3381.9000000953674,125179.80000019073,8018,WL,A,2.0
1,10.746000051498413,learn,49253.99994850159,Thu Oct 23 2025 18:44:21 GMT-0500 (Central Daylight Time),129861.40000009537,A,f,I,f,1284,3,1299.4000000953674,128562.0,8018,WL,A,3.0
1,11.728999853134155,learn,48271.000146865845,Thu Oct 23 2025 18:44:21 GMT-0500 (Central Daylight Time),130844.30000019073,A,fl,I,l,966,3,2282.300000190735,128562.0,8018,WL,A,3.0
1,12.078999996185303,learn,47921.0000038147,Thu Oct 23 2025 18:44:21 GMT-0500 (Central Daylight Time),131194.0,A,flo,I,o,337,3,2632.0,128562.0,8018,WL,A,3.0
1,13.09500002861023,learn,46904.99997138977,Thu Oct 23 2025 18:44:21 GMT-0500 (Central Daylight Time),132210.40000009537,A,flow,I,w,1004,3,3648.4000000953674,128562.0,8018,WL,A,3.0
1,13.378999948501587,learn,46621.00005149841,Thu Oct 23 2025 18:44:21 GMT-0500 (Central Daylight Time),132493.59999990463,A,flowe,I,e,266,3,3931.5999999046326,128562.0,8018,WL,A,3.0
1,13.911999940872192,learn,46088.00005912781,Thu Oct 23 2025 18:44:21 GMT-0500 (Central Daylight Time),133026.80000019073,A,flower,I,r,528,3,4464.800000190735,128562.0,8018,WL,A,3.0
1,15.210999965667725,learn,44789.000034332275,Thu Oct 23 2025 18:44:21 GMT-0500 (Central Daylight Time),134326.40000009537,A,flowerenter,I,enter,1282,3,5764.400000095367,128562.0,8018,WL,A,3.0
1,16.694000005722046,learn,43305.999994277954,Thu Oct 23 2025 18:44:21 GMT-0500 (Central Daylight Time),135809.5,A,m,I,m,1462,3,1482.7999997138977,134326.7000002861,8018,WL,A,4.0
1,17.310999870300293,learn,42689.00012969971,Thu Oct 23 2025 18:44:21 GMT-0500 (Central Daylight Time),136425.80000019073,A,me,I,e,604,3,2099.0999999046326,134326.7000002861,8018,WL,A,4.0
1,17.74399995803833,learn,42256.00004196167,Thu Oct 23 2025 18:44:21 GMT-0500 (Central Daylight Time),136858.90000009537,A,mea,I,a,419,3,2532.199999809265,134326.7000002861,8018,WL,A,4.0
1,18.177000045776367,learn,41822.99995422363,Thu Oct 23 2025 18:44:21 GMT-0500 (Central Daylight Time),137292.2000002861,A,mead,I,d,426,3,2965.5,134326.7000002861,8018,WL,A,4.0
1,19.026999950408936,learn,40973.000049591064,Thu Oct 23 2025 18:44:21 GMT-0500 (Central Daylight Time),138142.09999990463,A,meado,I,o,832,3,3815.3999996185303,134326.7000002861,8018,WL,A,4.0
1,19.64299988746643,learn,40357.00011253357,Thu Oct 23 2025 18:44:21 GMT-0500 (Central Daylight Time),138758.40000009537,A,meadow,I,w,606,3,4431.699999809265,134326.7000002861,8018,WL,A,4.0
1,21.259000062942505,learn,38740.999937057495,Thu Oct 23 2025 18:44:21 GMT-0500 (Central Daylight Time),140374.59999990463,A,meadowenter,I,enter,1607,3,6047.89999961853,134326.7000002861,8018,WL,A,4.0
1,23.04200005531311,learn,36957.99994468689,Thu Oct 23 2025 18:44:21 GMT-0500 (Central Daylight Time),142157.5,A,g,I,g,1768,3,1782.5999999046326,140374.90000009537,8018,WL,A,5.0
1,23.691999912261963,learn,36308.00008773804,Thu Oct 23 2025 18:44:21 GMT-0500 (Central Daylight Time),142807.30000019073,A,go,I,o,631,3,2432.4000000953674,140374.90000009537,8018,WL,A,5.0
1,24.108999967575073,learn,35891.00003242493,Thu Oct 23 2025 18:44:21 GMT-0500 (Central Daylight Time),143224.2000002861,A,gol,I,l,406,3,2849.300000190735,140374.90000009537,8018,WL,A,5.0
1,25.407999992370605,learn,34592.000007629395,Thu Oct 23 2025 18:44:21 GMT-0500 (Central Daylight Time),144523.09999990463,A,gold,I,d,1292,3,4148.199999809265,140374.90000009537,8018,WL,A,5.0
1,27.124000072479248,learn,32875.99992752075,Thu Oct 23 2025 18:44:21 GMT-0500 (Central Daylight Time),146239.40000009537,A,goldenter,I,enter,1706,3,5864.5,140374.90000009537,8018,WL,A,5.0
1,28.091000080108643,learn,31908.999919891357,Thu Oct 23 2025 18:44:21 GMT-0500 (Central Daylight Time),147205.90000009537,A,h,I,h,949,3,966.1999998092651,146239.7000002861,8018,WL,A,6.0
1,28.723999977111816,learn,31276.000022888184,Thu Oct 23 2025 18:44:21 GMT-0500 (Central Daylight Time),147838.90000009537,A,ha,I,a,623,3,1599.1999998092651,146239.7000002861,8018,WL,A,6.0
1,29.174000024795532,learn,30825.999975204468,Thu Oct 23 2025 18:44:21 GMT-0500 (Central Daylight Time),148288.7000002861,A,har,I,r,438,3,2049.0,146239.7000002861,8018,WL,A,6.0
1,30.072999954223633,learn,29927.000045776367,Thu Oct 23 2025 18:44:21 GMT-0500 (Central Daylight Time),149188.5,A,harp,I,p,884,3,2948.7999997138977,146239.7000002861,8018,WL,A,6.0
1,31.622999906539917,learn,28377.000093460083,Thu Oct 23 2025 18:44:21 GMT-0500 (Central Daylight Time),150738.0,A,harpenter,I,enter,1528,3,4498.299999713898,146239.7000002861,8018,WL,A,6.0
1,38.6710000038147,learn,21328.999996185303,Thu Oct 23 2025 18:44:21 GMT-0500 (Central Daylight Time),157785.80000019073,A,r,I,r,7036,3,7047.5,150738.30000019073,8018,WL,A,7.0
1,38.98699998855591,learn,21013.00001144409,Thu Oct 23 2025 18:44:21 GMT-0500 (Central Daylight Time),158102.40000009537,A,ra,I,a,297,3,7364.099999904633,150738.30000019073,8018,WL,A,7.0
1,39.38700008392334,learn,20612.99991607666,Thu Oct 23 2025 18:44:21 GMT-0500 (Central Daylight Time),158502.30000019073,A,rat,I,t,389,3,7764.0,150738.30000019073,8018,WL,A,7.0
1,39.55399990081787,learn,20446.00009918213,Thu Oct 23 2025 18:44:21 GMT-0500 (Central Daylight Time),158668.80000019073,A,ratt,I,t,150,3,7930.5,150738.30000019073,8018,WL,A,7.0
1,40.36999988555908,learn,19630.000114440918,Thu Oct 23 2025 18:44:21 GMT-0500 (Central Daylight Time),159485.09999990463,A,rattl,I,l,809,3,8746.799999713898,150738.30000019073,8018,WL,A,7.0
1,40.98699998855591,learn,19013.00001144409,Thu Oct 23 2025 18:44:21 GMT-0500 (Central Daylight Time),160101.59999990463,A,rattle,I,e,608,3,9363.299999713898,150738.30000019073,8018,WL,A,7.0
1,42.569000005722046,learn,17430.999994277954,Thu Oct 23 2025 18:44:21 GMT-0500 (Central Daylight Time),161684.5,A,rattleenter,I,enter,1576,3,10946.199999809265,150738.30000019073,8018,WL,A,7.0
1,46.28500008583069,learn,13714.999914169312,Thu Oct 23 2025 18:44:21 GMT-0500 (Central Daylight Time),165400.0,A,b,I,b,3696,3,3715.0999999046326,161684.90000009537,8018,WL,A,8.0
1,46.83500003814697,learn,13164.999961853027,Thu Oct 23 2025 18:44:21 GMT-0500 (Central Daylight Time),165949.80000019073,A,bo,I,o,541,3,4264.900000095367,161684.90000009537,8018,WL,A,8.0
1,47.01799988746643,learn,12982.00011253357,Thu Oct 23 2025 18:44:21 GMT-0500 (Central Daylight Time),166133.2000002861,A,boo,I,o,168,3,4448.300000190735,161684.90000009537,8018,WL,A,8.0
1,47.568000078201294,learn,12431.999921798706,Thu Oct 23 2025 18:44:21 GMT-0500 (Central Daylight Time),166682.90000009537,A,boos,I,s,544,3,4998.0,161684.90000009537,8018,WL,A,8.0
1,48.01799988746643,learn,11982.00011253357,Thu Oct 23 2025 18:44:21 GMT-0500 (Central Daylight Time),167132.80000019073,A,boost,I,t,443,3,5447.900000095367,161684.90000009537,8018,WL,A,8.0
1,49.53500008583069,learn,10464.999914169312,Thu Oct 23 2025 18:44:21 GMT-0500 (Central Daylight Time),168650.30000019073,A,boostenter,I,enter,1512,3,6965.400000095367,161684.90000009537,8018,WL,A,8.0
1,57.14800000190735,learn,2851.9999980926514,Thu Oct 23 2025 18:44:21 GMT-0500 (Central Daylight Time),176263.40000009537,A,c,I,c,7602,3,7612.699999809265,168650.7000002861,8018,WL,A,9.0
1,57.681999921798706,learn,2318.000078201294,Thu Oct 23 2025 18:44:21 GMT-0500 (Central Daylight Time),176796.90000009537,A,ch,I,h,517,3,8146.199999809265,168650.7000002861,8018,WL,A,9.0
1,58.06500005722046,learn,1934.999942779541,Thu Oct 23 2025 18:44:21 GMT-0500 (Central Daylight Time),177179.80000019073,A,chi,I,i,368,3,8529.099999904633,168650.7000002861,8018,WL,A,9.0
1,58.84599995613098,learn,1154.0000438690186,Thu Oct 23 2025 18:44:21 GMT-0500 (Central Daylight Time),177962.7000002861,A,chim,I,m,769,3,9312.0,168650.7000002861,8018,WL,A,9.0
1,59.19700002670288,learn,802.9999732971191,Thu Oct 23 2025 18:44:21 GMT-0500 (Central Daylight Time),178312.80000019073,A,chimn,I,n,331,3,9662.099999904633,168650.7000002861,8018,WL,A,9.0
1,59.730000019073486,learn,269.9999809265137,Thu Oct 23 2025 18:44:21 GMT-0500 (Central Daylight Time),178846.09999990463,A,chimne,I,e,525,3,10195.39999961853,168650.7000002861,8018,WL,A,9.0
1,60.01300001144409,learn,-13.000011444091797,Thu Oct 23 2025 18:44:21 GMT-0500 (Central Daylight Time),179129.2000002861,A,chimneNone,I,None,278,3,10478.5,168650.7000002861,8018,WL,A,9.0
2,1.9490001201629639,learn,58050.999879837036,Thu Oct 23 2025 18:44:21 GMT-0500 (Central Daylight Time),249390.40000009537,A,b,I,b,1934,3,1949.3000001907349,247441.09999990463,8018,WL,A,1.0
2,2.4160001277923584,learn,57583.99987220764,Thu Oct 23 2025 18:44:21 GMT-0500 (Central Daylight Time),249856.90000009537,A,bu,I,u,455,3,2415.800000190735,247441.09999990463,8018,WL,A,1.0
2,2.865000009536743,learn,57134.99999046326,Thu Oct 23 2025 18:44:21 GMT-0500 (Central Daylight Time),250306.59999990463,A,but,I,t,429,3,2865.5,247441.09999990463,8018,WL,A,1.0
2,3.0329999923706055,learn,56967.000007629395,Thu Oct 23 2025 18:44:21 GMT-0500 (Central Daylight Time),250473.80000019073,A,butt,I,t,147,3,3032.7000002861023,247441.09999990463,8018,WL,A,1.0
2,3.682000160217285,learn,56317.999839782715,Thu Oct 23 2025 18:44:21 GMT-0500 (Central Daylight Time),251123.30000019073,A,butto,I,o,636,3,3682.2000002861023,247441.09999990463,8018,WL,A,1.0
2,4.2820000648498535,learn,55717.99993515015,Thu Oct 23 2025 18:44:21 GMT-0500 (Central Daylight Time),251722.80000019073,A,button,I,n,594,3,4281.700000286102,247441.09999990463,8018,WL,A,1.0
2,5.265000104904175,learn,54734.999895095825,Thu Oct 23 2025 18:44:21 GMT-0500 (Central Daylight Time),252705.90000009537,A,buttonenter,I,enter,963,3,5264.800000190735,247441.09999990463,8018,WL,A,1.0
2,5.88100004196167,learn,54118.99995803833,Thu Oct 23 2025 18:44:21 GMT-0500 (Central Daylight Time),253322.5,A,l,I,l,605,3,616.4000000953674,252706.09999990463,8018,WL,A,2.0
2,6.180999994277954,learn,53819.000005722046,Thu Oct 23 2025 18:44:21 GMT-0500 (Central Daylight Time),253622.30000019073,A,lo,I,o,290,3,916.2000002861023,252706.09999990463,8018,WL,A,2.0
2,6.680999994277954,learn,53319.000005722046,Thu Oct 23 2025 18:44:21 GMT-0500 (Central Daylight Time),254122.2000002861,A,log,I,g,487,3,1416.1000003814697,252706.09999990463,8018,WL,A,2.0
2,7.447000026702881,learn,52552.99997329712,Thu Oct 23 2025 18:44:21 GMT-0500 (Central Daylight Time),254888.59999990463,A,logenter,I,enter,747,3,2182.5,252706.09999990463,8018,WL,A,2.0
2,8.246999979019165,learn,51753.000020980835,Thu Oct 23 2025 18:44:21 GMT-0500 (Central Daylight Time),255688.40000009537,A,k,I,k,789,3,799.5999999046326,254888.80000019073,8018,WL,A,3.0
2,8.86300015449524,learn,51136.99984550476,Thu Oct 23 2025 18:44:21 GMT-0500 (Central Daylight Time),256304.80000019073,A,ke,I,e,605,3,1416.0,254888.80000019073,8018,WL,A,3.0
2,9.547000169754028,learn,50452.99983024597,Thu Oct 23 2025 18:44:21 GMT-0500 (Central Daylight Time),256987.90000009537,A,key,I,y,676,3,2099.0999999046326,254888.80000019073,8018,WL,A,3.0
2,10.646000146865845,learn,49353.999853134155,Thu Oct 23 2025 18:44:21 GMT-0500 (Central Daylight Time),258087.59999990463,A,keyenter,I,enter,1090,3,3198.7999997138977,254888.80000019073,8018,WL,A,3.0
2,11.496000051498413,learn,48503.99994850159,Thu Oct 23 2025 18:44:21 GMT-0500 (Central Daylight Time),258937.40000009537,A,s,I,s,830,3,849.5,258087.90000009537,8018,WL,A,4.0
2,11.813000202178955,learn,48186.999797821045,Thu Oct 23 2025 18:44:21 GMT-0500 (Central Daylight Time),259253.90000009537,A,sa,I,a,308,3,1166.0,258087.90000009537,8018,WL,A,4.0
2,12.34600019454956,learn,47653.99980545044,Thu Oct 23 2025 18:44:21 GMT-0500 (Central Daylight Time),259787.2000002861,A,sal,I,l,519,3,1699.3000001907349,258087.90000009537,8018,WL,A,4.0
2,13.078999996185303,learn,46921.0000038147,Thu Oct 23 2025 18:44:21 GMT-0500 (Central Daylight Time),260520.2000002861,A,salt,I,t,714,3,2432.300000190735,258087.90000009537,8018,WL,A,4.0
2,14.062000036239624,learn,45937.999963760376,Thu Oct 23 2025 18:44:21 GMT-0500 (Central Daylight Time),261503.30000019073,A,saltenter,I,enter,973,3,3415.4000000953674,258087.90000009537,8018,WL,A,4.0
2,14.778000116348267,learn,45221.99988365173,Thu Oct 23 2025 18:44:21 GMT-0500 (Central Daylight Time),262219.59999990463,A,f,I,f,710,3,716.0,261503.59999990463,8018,WL,A,5.0
2,15.361999988555908,learn,44638.00001144409,Thu Oct 23 2025 18:44:21 GMT-0500 (Central Daylight Time),262803.2000002861,A,fi,I,i,563,3,1299.6000003814697,261503.59999990463,8018,WL,A,5.0
2,15.76200008392334,learn,44237.99991607666,Thu Oct 23 2025 18:44:21 GMT-0500 (Central Daylight Time),263202.90000009537,A,fin,I,n,386,3,1699.3000001907349,261503.59999990463,8018,WL,A,5.0
2,16.128000020980835,learn,43871.999979019165,Thu Oct 23 2025 18:44:21 GMT-0500 (Central Daylight Time),263569.2000002861,A,fing,I,g,354,3,2065.6000003814697,261503.59999990463,8018,WL,A,5.0
2,16.478000164031982,learn,43521.99983596802,Thu Oct 23 2025 18:44:21 GMT-0500 (Central Daylight Time),263919.2000002861,A,finge,I,e,332,3,2415.6000003814697,261503.59999990463,8018,WL,A,5.0
2,16.728000164031982,learn,43271.99983596802,Thu Oct 23 2025 18:44:21 GMT-0500 (Central Daylight Time),264169.2000002861,A,finger,I,r,238,3,2665.6000003814697,261503.59999990463,8018,WL,A,5.0
2,17.41100001335144,learn,42588.99998664856,Thu Oct 23 2025 18:44:21 GMT-0500 (Central Daylight Time),264852.09999990463,A,fingerenter,I,enter,668,3,3348.5,261503.59999990463,8018,WL,A,5.0
2,18.07800006866455,learn,41921.99993133545,Thu Oct 23 2025 18:44:21 GMT-0500 (Central Daylight Time),265519.7000002861,A,g,I,g,649,3,667.4000000953674,264852.30000019073,8018,WL,A,6.0
2,18.610000133514404,learn,41389.999866485596,Thu Oct 23 2025 18:44:21 GMT-0500 (Central Daylight Time),266051.7000002861,A,go,I,o,517,3,1199.4000000953674,264852.30000019073,8018,WL,A,6.0
2,18.927000045776367,learn,41072.99995422363,Thu Oct 23 2025 18:44:21 GMT-0500 (Central Daylight Time),266368.40000009537,A,gol,I,l,306,3,1516.0999999046326,264852.30000019073,8018,WL,A,6.0
2,19.49400019645691,learn,40505.99980354309,Thu Oct 23 2025 18:44:21 GMT-0500 (Central Daylight Time),266934.90000009537,A,gold,I,d,549,3,2082.5999999046326,264852.30000019073,8018,WL,A,6.0
2,20.177000045776367,learn,39822.99995422363,Thu Oct 23 2025 18:44:21 GMT-0500 (Central Daylight Time),267618.0,A,goldenter,I,enter,662,3,2765.699999809265,264852.30000019073,8018,WL,A,6.0
2,20.843000173568726,learn,39156.999826431274,Thu Oct 23 2025 18:44:21 GMT-0500 (Central Daylight Time),268284.5,A,t,I,t,652,3,666.0,267618.5,8018,WL,A,7.0
2,21.110000133514404,learn,38889.999866485596,Thu Oct 23 2025 18:44:21 GMT-0500 (Central Daylight Time),268550.90000009537,A,tr,I,r,257,3,932.4000000953674,267618.5,8018,WL,A,7.0
2,21.526000022888184,learn,38473.99997711182,Thu Oct 23 2025 18:44:21 GMT-0500 (Central Daylight Time),268967.40000009537,A,tra,I,a,406,3,1348.9000000953674,267618.5,8018,WL,A,7.0
2,21.943000078201294,learn,38056.999921798706,Thu Oct 23 2025 18:44:21 GMT-0500 (Central Daylight Time),269383.90000009537,A,trai,I,i,406,3,1765.4000000953674,267618.5,8018,WL,A,7.0
2,22.45900011062622,learn,37540.99988937378,Thu Oct 23 2025 18:44:21 GMT-0500 (Central Daylight Time),269900.59999990463,A,train,I,n,509,3,2282.0999999046326,267618.5,8018,WL,A,7.0
2,23.642000198364258,learn,36357.99980163574,Thu Oct 23 2025 18:44:21 GMT-0500 (Central Daylight Time),271083.59999990463,A,trainenter,I,enter,1169,3,3465.0999999046326,267618.5,8018,WL,A,7.0
2,25.058000087738037,learn,34941.99991226196,Thu Oct 23 2025 18:44:21 GMT-0500 (Central Daylight Time),272499.59999990463,A,b,I,b,1410,3,1415.6999998092651,271083.90000009537,8018,WL,A,8.0
2,25.60800004005432,learn,34391.99995994568,Thu Oct 23 2025 18:44:21 GMT-0500 (Central Daylight Time),273049.59999990463,A,bo,I,o,529,3,1965.6999998092651,271083.90000009537,8018,WL,A,8.0
2,25.758000135421753,learn,34241.99986457825,Thu Oct 23 2025 18:44:21 GMT-0500 (Central Daylight Time),273199.5,A,boo,I,o,140,3,2115.5999999046326,271083.90000009537,8018,WL,A,8.0
2,26.308000087738037,learn,33691.99991226196,Thu Oct 23 2025 18:44:21 GMT-0500 (Central Daylight Time),273749.40000009537,A,book,I,k,542,3,2665.5,271083.90000009537,8018,WL,A,8.0
2,27.424000024795532,learn,32575.999975204468,Thu Oct 23 2025 18:44:21 GMT-0500 (Central Daylight Time),274865.80000019073,A,bookenter,I,enter,1096,3,3781.9000000953674,271083.90000009537,8018,WL,A,8.0
2,28.94099998474121,learn,31059.00001525879,Thu Oct 23 2025 18:44:21 GMT-0500 (Central Daylight Time),276381.90000009537,A,r,I,r,1508,3,1515.9000000953674,274866.0,8018,WL,A,9.0
2,29.473999977111816,learn,30526.000022888184,Thu Oct 23 2025 18:44:21 GMT-0500 (Central Daylight Time),276914.90000009537,A,ru,I,u,519,3,2048.9000000953674,274866.0,8018,WL,A,9.0
2,29.907000064849854,learn,30092.999935150146,Thu Oct 23 2025 18:44:21 GMT-0500 (Central Daylight Time),277348.40000009537,A,rug,I,g,419,3,2482.4000000953674,274866.0,8018,WL,A,9.0
2,30.77300000190735,learn,29226.99999809265,Thu Oct 23 2025 18:44:21 GMT-0500 (Central Daylight Time),278214.5,A,rugenter,I,enter,857,3,3348.5,274866.0,8018,WL,A,9.0
2,31.856000185012817,learn,28143.999814987183,Thu Oct 23 2025 18:44:21 GMT-0500 (Central Daylight Time),279297.59999990463,A,f,I,f,1071,3,1082.8999996185303,278214.7000002861,8018,WL,A,10.0
2,32.49000000953674,learn,27509.999990463257,Thu Oct 23 2025 18:44:21 GMT-0500 (Central Daylight Time),279930.80000019073,A,fl,I,l,629,3,1716.0999999046326,278214.7000002861,8018,WL,A,10.0
2,32.85600018501282,learn,27143.999814987183,Thu Oct 23 2025 18:44:21 GMT-0500 (Central Daylight Time),280297.40000009537,A,flo,I,o,346,3,2082.699999809265,278214.7000002861,8018,WL,A,10.0
2,33.555999994277954,learn,26444.000005722046,Thu Oct 23 2025 18:44:21 GMT-0500 (Central Daylight Time),280997.0,A,flow,I,w,692,3,2782.2999997138977,278214.7000002861,8018,WL,A,10.0
2,33.97200012207031,learn,26027.999877929688,Thu Oct 23 2025 18:44:21 GMT-0500 (Central Daylight Time),281413.7000002861,A,flowe,I,e,400,3,3199.0,278214.7000002861,8018,WL,A,10.0
2,34.38900017738342,learn,25610.999822616577,Thu Oct 23 2025 18:44:21 GMT-0500 (Central Daylight Time),281830.30000019073,A,flower,I,r,400,3,3615.5999999046326,278214.7000002861,8018,WL,A,10.0
2,35.97200012207031,learn,24027.999877929688,Thu Oct 23 2025 18:44:21 GMT-0500 (Central Daylight Time),283413.0,A,flowerenter,I,enter,1576,3,5198.299999713898,278214.7000002861,8018,WL,A,10.0
2,37.08800005912781,learn,22911.999940872192,Thu Oct 23 2025 18:44:21 GMT-0500 (Central Daylight Time),284529.30000019073,A,c,I,c,1096,3,1116.0999999046326,283413.2000002861,8018,WL,A,11.0
2,37.58800005912781,learn,22411.999940872192,Thu Oct 23 2025 18:44:21 GMT-0500 (Central Daylight Time),285029.09999990463,A,ch,I,h,492,3,1615.8999996185303,283413.2000002861,8018,WL,A,11.0
2,37.90499997138977,learn,22095.00002861023,Thu Oct 23 2025 18:44:21 GMT-0500 (Central Daylight Time),285345.80000019073,A,chi,I,i,296,3,1932.5999999046326,283413.2000002861,8018,WL,A,11.0
2,38.62100005149841,learn,21378.999948501587,Thu Oct 23 2025 18:44:21 GMT-0500 (Central Daylight Time),286062.30000019073,A,chim,I,m,707,3,2649.0999999046326,283413.2000002861,8018,WL,A,11.0
2,39.098999977111816,learn,20901.000022888184,Thu Oct 23 2025 18:44:21 GMT-0500 (Central Daylight Time),286540.80000019073,A,chimn,I,n,473,3,3127.5999999046326,283413.2000002861,8018,WL,A,11.0
2,39.7039999961853,learn,20296.000003814697,Thu Oct 23 2025 18:44:21 GMT-0500 (Central Daylight Time),287145.09999990463,A,chimne,I,e,592,3,3731.8999996185303,283413.2000002861,8018,WL,A,11.0
2,40.587000131607056,learn,19412.999868392944,Thu Oct 23 2025 18:44:21 GMT-0500 (Central Daylight Time),288028.09999990463,A,chimney,I,y,868,3,4614.89999961853,283413.2000002861,8018,WL,A,11.0
2,41.78600001335144,learn,18213.99998664856,Thu Oct 23 2025 18:44:21 GMT-0500 (Central Daylight Time),289227.7000002861,A,chimneyenter,I,enter,1193,3,5814.5,283413.2000002861,8018,WL,A,11.0
2,43.76900005340576,learn,16230.999946594238,Thu Oct 23 2025 18:44:21 GMT-0500 (Central Daylight Time),291210.59999990463,A,m,I,m,1970,3,1982.5999999046326,289228.0,8018,WL,A,12.0
2,44.38600015640259,learn,15613.999843597412,Thu Oct 23 2025 18:44:21 GMT-0500 (Central Daylight Time),291827.0,A,me,I,e,602,3,2599.0,289228.0,8018,WL,A,12.0
2,44.63600015640259,learn,15363.999843597412,Thu Oct 23 2025 18:44:21 GMT-0500 (Central Daylight Time),292076.80000019073,A,mea,I,a,242,3,2848.800000190735,289228.0,8018,WL,A,12.0
2,45.069000005722046,learn,14930.999994277954,Thu Oct 23 2025 18:44:21 GMT-0500 (Central Daylight Time),292510.09999990463,A,mead,I,d,425,3,3282.0999999046326,289228.0,8018,WL,A,12.0
2,45.7020001411438,learn,14297.999858856201,Thu Oct 23 2025 18:44:21 GMT-0500 (Central Daylight Time),293143.40000009537,A,meado,I,o,623,3,3915.4000000953674,289228.0,8018,WL,A,12.0
2,46.35199999809265,learn,13648.000001907349,Thu Oct 23 2025 18:44:21 GMT-0500 (Central Daylight Time),293793.2000002861,A,meadow,I,w,630,3,4565.200000286102,289228.0,8018,WL,A,12.0
2,47.70099997520447,learn,12299.000024795532,Thu Oct 23 2025 18:44:21 GMT-0500 (Central Daylight Time),295142.7000002861,A,meadowenter,I,enter,1332,3,5914.700000286102,289228.0,8018,WL,A,12.0
2,48.95099997520447,learn,11049.000024795532,Thu Oct 23 2025 18:44:21 GMT-0500 (Central Daylight Time),296392.09999990463,A,k,I,k,1238,3,1249.0999999046326,295143.0,8018,WL,A,13.0
2,49.551000118255615,learn,10448.999881744385,Thu Oct 23 2025 18:44:21 GMT-0500 (Central Daylight Time),296992.0,A,ke,I,e,581,3,1849.0,295143.0,8018,WL,A,13.0
2,50.08400011062622,learn,9915.99988937378,Thu Oct 23 2025 18:44:21 GMT-0500 (Central Daylight Time),297525.30000019073,A,key,I,y,526,3,2382.300000190735,295143.0,8018,WL,A,13.0
2,51.032999992370605,learn,8967.000007629395,Thu Oct 23 2025 18:44:21 GMT-0500 (Central Daylight Time),298474.90000009537,A,keyenter,I,enter,936,3,3331.9000000953674,295143.0,8018,WL,A,13.0
2,56.7810001373291,learn,3218.9998626708984,Thu Oct 23 2025 18:44:21 GMT-0500 (Central Daylight Time),304223.09999990463,A,r,I,r,5730,3,5747.89999961853,298475.2000002861,8018,WL,A,14.0
2,56.998000144958496,learn,3001.999855041504,Thu Oct 23 2025 18:44:21 GMT-0500 (Central Daylight Time),304439.59999990463,A,ra,I,a,204,3,5964.39999961853,298475.2000002861,8018,WL,A,14.0
2,57.348000049591064,learn,2651.9999504089355,Thu Oct 23 2025 18:44:21 GMT-0500 (Central Daylight Time),304789.90000009537,A,rat,I,t,334,3,6314.699999809265,298475.2000002861,8018,WL,A,14.0
2,57.51400017738342,learn,2485.999822616577,Thu Oct 23 2025 18:44:21 GMT-0500 (Central Daylight Time),304956.30000019073,A,ratt,I,t,159,3,6481.099999904633,298475.2000002861,8018,WL,A,14.0
2,58.51400017738342,learn,1485.9998226165771,Thu Oct 23 2025 18:44:21 GMT-0500 (Central Daylight Time),305955.80000019073,A,rattl,I,l,993,3,7480.599999904633,298475.2000002861,8018,WL,A,14.0
2,59.04700016975403,learn,952.9998302459717,Thu Oct 23 2025 18:44:21 GMT-0500 (Central Daylight Time),306489.0,A,rattle,I,e,514,3,8013.799999713898,298475.2000002861,8018,WL,A,14.0
2,59.69700002670288,learn,302.99997329711914,Thu Oct 23 2025 18:44:21 GMT-0500 (Central Daylight Time),307138.90000009537,A,rattleenter,I,enter,636,3,8663.699999809265,298475.2000002861,8018,WL,A,14.0
2,60.01400017738342,learn,-14.000177383422852,Thu Oct 23 2025 18:44:21 GMT-0500 (Central Daylight Time),307455.5,A,None,I,None,311,3,316.2999997138977,307139.2000002861,8018,WL,A,15.0
3,0.7330000400543213,learn,59266.99995994568,Thu Oct 23 2025 18:44:21 GMT-0500 (Central Daylight Time),385164.59999990463,A,b,I,b,718,3,733.1999998092651,384431.40000009537,8018,WL,A,1.0
3,1.2829999923706055,learn,58717.000007629395,Thu Oct 23 2025 18:44:21 GMT-0500 (Central Daylight Time),385714.2000002861,A,bu,I,u,536,3,1282.8000001907349,384431.40000009537,8018,WL,A,1.0
3,1.7160000801086426,learn,58283.99991989136,Thu Oct 23 2025 18:44:21 GMT-0500 (Central Daylight Time),386147.2000002861,A,but,I,t,427,3,1715.8000001907349,384431.40000009537,8018,WL,A,1.0
3,1.8829998970031738,learn,58117.000102996826,Thu Oct 23 2025 18:44:21 GMT-0500 (Central Daylight Time),386314.09999990463,A,butt,I,t,154,3,1882.6999998092651,384431.40000009537,8018,WL,A,1.0
3,2.6489999294281006,learn,57351.0000705719,Thu Oct 23 2025 18:44:21 GMT-0500 (Central Daylight Time),387080.5,A,butto,I,o,747,3,2649.0999999046326,384431.40000009537,8018,WL,A,1.0
3,3.5989999771118164,learn,56401.00002288818,Thu Oct 23 2025 18:44:21 GMT-0500 (Central Daylight Time),388030.2000002861,A,button,I,n,941,3,3598.800000190735,384431.40000009537,8018,WL,A,1.0
3,4.5980000495910645,learn,55401.999950408936,Thu Oct 23 2025 18:44:21 GMT-0500 (Central Daylight Time),389029.80000019073,A,buttonenter,I,enter,991,3,4598.400000095367,384431.40000009537,8018,WL,A,1.0
3,5.315000057220459,learn,54684.99994277954,Thu Oct 23 2025 18:44:21 GMT-0500 (Central Daylight Time),389746.30000019073,A,c,I,c,696,3,716.3000001907349,389030.0,8018,WL,A,2.0
3,5.79800009727478,learn,54201.99990272522,Thu Oct 23 2025 18:44:21 GMT-0500 (Central Daylight Time),390229.40000009537,A,ch,I,h,467,3,1199.4000000953674,389030.0,8018,WL,A,2.0
3,6.13100004196167,learn,53868.99995803833,Thu Oct 23 2025 18:44:21 GMT-0500 (Central Daylight Time),390562.7000002861,A,chi,I,i,328,3,1532.7000002861023,389030.0,8018,WL,A,2.0
3,6.565000057220459,learn,53434.99994277954,Thu Oct 23 2025 18:44:21 GMT-0500 (Central Daylight Time),390995.90000009537,A,chim,I,m,419,3,1965.9000000953674,389030.0,8018,WL,A,2.0
3,6.930999994277954,learn,53069.000005722046,Thu Oct 23 2025 18:44:21 GMT-0500 (Central Daylight Time),391362.59999990463,A,chimn,I,n,362,3,2332.5999999046326,389030.0,8018,WL,A,2.0
3,7.513999938964844,learn,52486.000061035156,Thu Oct 23 2025 18:44:21 GMT-0500 (Central Daylight Time),391945.59999990463,A,chimne,I,e,562,3,2915.5999999046326,389030.0,8018,WL,A,2.0
3,8.13100004196167,learn,51868.99995803833,Thu Oct 23 2025 18:44:21 GMT-0500 (Central Daylight Time),392562.0,A,chimney,I,y,604,3,3532.0,389030.0,8018,WL,A,2.0
3,9.180000066757202,learn,50819.9999332428,Thu Oct 23 2025 18:44:21 GMT-0500 (Central Daylight Time),393611.7000002861,A,chimneyenter,I,enter,1043,3,4581.700000286102,389030.0,8018,WL,A,2.0
3,10.11299991607666,learn,49887.00008392334,Thu Oct 23 2025 18:44:21 GMT-0500 (Central Daylight Time),394544.7000002861,A,l,I,l,914,3,932.7000002861023,393612.0,8018,WL,A,3.0
3,10.513000011444092,learn,49486.99998855591,Thu Oct 23 2025 18:44:21 GMT-0500 (Central Daylight Time),394944.80000019073,A,lo,I,o,380,3,1332.8000001907349,393612.0,8018,WL,A,3.0
3,11.11299991607666,learn,48887.00008392334,Thu Oct 23 2025 18:44:21 GMT-0500 (Central Daylight Time),395544.59999990463,A,log,I,g,580,3,1932.5999999046326,393612.0,8018,WL,A,3.0
3,11.979000091552734,learn,48020.999908447266,Thu Oct 23 2025 18:44:21 GMT-0500 (Central Daylight Time),396410.80000019073,A,logenter,I,enter,846,3,2798.800000190735,393612.0,8018,WL,A,3.0
3,12.845999956130981,learn,47154.00004386902,Thu Oct 23 2025 18:44:21 GMT-0500 (Central Daylight Time),397277.09999990463,A,k,I,k,851,3,866.0999999046326,396411.0,8018,WL,A,4.0
3,13.461999893188477,learn,46538.00010681152,Thu Oct 23 2025 18:44:21 GMT-0500 (Central Daylight Time),397893.7000002861,A,ke,I,e,600,3,1482.7000002861023,396411.0,8018,WL,A,4.0
3,14.111999988555908,learn,45888.00001144409,Thu Oct 23 2025 18:44:21 GMT-0500 (Central Daylight Time),398543.40000009537,A,key,I,y,632,3,2132.4000000953674,396411.0,8018,WL,A,4.0
3,15.59500002861023,learn,44404.99997138977,Thu Oct 23 2025 18:44:21 GMT-0500 (Central Daylight Time),400026.40000009537,A,keyenter,I,enter,1462,3,3615.4000000953674,396411.0,8018,WL,A,4.0
3,17.028000116348267,learn,42971.99988365173,Thu Oct 23 2025 18:44:21 GMT-0500 (Central Daylight Time),401459.2000002861,A,b,I,b,1418,3,1432.5,400026.7000002861,8018,WL,A,5.0
3,17.528000116348267,learn,42471.99988365173,Thu Oct 23 2025 18:44:21 GMT-0500 (Central Daylight Time),401959.0,A,bo,I,o,482,3,1932.2999997138977,400026.7000002861,8018,WL,A,5.0
3,17.694000005722046,learn,42305.999994277954,Thu Oct 23 2025 18:44:21 GMT-0500 (Central Daylight Time),402125.80000019073,A,boo,I,o,150,3,2099.0999999046326,400026.7000002861,8018,WL,A,5.0
3,18.094000101089478,learn,41905.99989891052,Thu Oct 23 2025 18:44:21 GMT-0500 (Central Daylight Time),402525.59999990463,A,book,I,k,392,3,2498.8999996185303,400026.7000002861,8018,WL,A,5.0
3,19.14400005340576,learn,40855.99994659424,Thu Oct 23 2025 18:44:21 GMT-0500 (Central Daylight Time),403575.2000002861,A,bookenter,I,enter,1031,3,3548.5,400026.7000002861,8018,WL,A,5.0
3,20.15400004386902,learn,39845.99995613098,Thu Oct 23 2025 18:44:21 GMT-0500 (Central Daylight Time),404585.30000019073,A,f,I,f,1005,3,1009.7000002861023,403575.59999990463,8018,WL,A,6.0
3,20.89299988746643,learn,39107.00011253357,Thu Oct 23 2025 18:44:21 GMT-0500 (Central Daylight Time),405324.59999990463,A,fl,I,l,732,3,1749.0,403575.59999990463,8018,WL,A,6.0
3,21.22699999809265,learn,38773.00000190735,Thu Oct 23 2025 18:44:21 GMT-0500 (Central Daylight Time),405657.90000009537,A,flo,I,o,313,3,2082.300000190735,403575.59999990463,8018,WL,A,6.0
3,22.375999927520752,learn,37624.00007247925,Thu Oct 23 2025 18:44:21 GMT-0500 (Central Daylight Time),406807.40000009537,A,flow,I,w,1131,3,3231.800000190735,403575.59999990463,8018,WL,A,6.0
3,22.64299988746643,learn,37357.00011253357,Thu Oct 23 2025 18:44:21 GMT-0500 (Central Daylight Time),407074.2000002861,A,flowe,I,e,246,3,3498.6000003814697,403575.59999990463,8018,WL,A,6.0
3,22.875999927520752,learn,37124.00007247925,Thu Oct 23 2025 18:44:21 GMT-0500 (Central Daylight Time),407307.30000019073,A,flower,I,r,227,3,3731.7000002861023,403575.59999990463,8018,WL,A,6.0
3,23.926000118255615,learn,36073.999881744385,Thu Oct 23 2025 18:44:21 GMT-0500 (Central Daylight Time),408357.2000002861,A,flowerenter,I,enter,1034,3,4781.60000038147,403575.59999990463,8018,WL,A,6.0
3,24.842000007629395,learn,35157.999992370605,Thu Oct 23 2025 18:44:21 GMT-0500 (Central Daylight Time),409273.59999990463,A,r,I,r,904,3,916.0999999046326,408357.5,8018,WL,A,7.0
3,25.358999967575073,learn,34641.00003242493,Thu Oct 23 2025 18:44:21 GMT-0500 (Central Daylight Time),409790.0,A,ru,I,u,508,3,1432.5,408357.5,8018,WL,A,7.0
3,25.808000087738037,learn,34191.99991226196,Thu Oct 23 2025 18:44:21 GMT-0500 (Central Daylight Time),410239.7000002861,A,rug,I,g,440,3,1882.2000002861023,408357.5,8018,WL,A,7.0
3,26.47499990463257,learn,33525.00009536743,Thu Oct 23 2025 18:44:21 GMT-0500 (Central Daylight Time),410906.2000002861,A,rugenter,I,enter,654,3,2548.7000002861023,408357.5,8018,WL,A,7.0
3,27.47499990463257,learn,32525.00009536743,Thu Oct 23 2025 18:44:21 GMT-0500 (Central Daylight Time),411906.0,A,g,I,g,979,3,999.5,410906.5,8018,WL,A,8.0
3,28.04099988937378,learn,31959.00011062622,Thu Oct 23 2025 18:44:21 GMT-0500 (Central Daylight Time),412472.40000009537,A,go,I,o,547,3,1565.9000000953674,410906.5,8018,WL,A,8.0
3,28.407999992370605,learn,31592.000007629395,Thu Oct 23 2025 18:44:21 GMT-0500 (Central Daylight Time),412839.09999990463,A,gol,I,l,357,3,1932.5999999046326,410906.5,8018,WL,A,8.0
3,29.2739999294281,learn,30726.0000705719,Thu Oct 23 2025 18:44:21 GMT-0500 (Central Daylight Time),413705.59999990463,A,gold,I,d,854,3,2799.0999999046326,410906.5,8018,WL,A,8.0
3,30.223999977111816,learn,29776.000022888184,Thu Oct 23 2025 18:44:21 GMT-0500 (Central Daylight Time),414655.09999990463,A,goldenter,I,enter,940,3,3748.5999999046326,410906.5,8018,WL,A,8.0
3,30.957000017166138,learn,29042.999982833862,Thu Oct 23 2025 18:44:21 GMT-0500 (Central Daylight Time),415388.30000019073,A,r,I,r,719,3,733.0,414655.30000019073,8018,WL,A,9.0
3,31.33999991416931,learn,28660.00008583069,Thu Oct 23 2025 18:44:21 GMT-0500 (Central Daylight Time),415771.5,A,ra,I,a,368,3,1116.1999998092651,414655.30000019073,8018,WL,A,9.0
3,31.756999969482422,learn,28243.000030517578,Thu Oct 23 2025 18:44:21 GMT-0500 (Central Daylight Time),416187.90000009537,A,rat,I,t,402,3,1532.5999999046326,414655.30000019073,8018,WL,A,9.0
3,31.907000064849854,learn,28092.999935150146,Thu Oct 23 2025 18:44:21 GMT-0500 (Central Daylight Time),416338.40000009537,A,ratt,I,t,129,3,1683.0999999046326,414655.30000019073,8018,WL,A,9.0
3,32.49000000953674,learn,27509.999990463257,Thu Oct 23 2025 18:44:21 GMT-0500 (Central Daylight Time),416921.09999990463,A,rattl,I,l,571,3,2265.7999997138977,414655.30000019073,8018,WL,A,9.0
3,33.03999996185303,learn,26960.000038146973,Thu Oct 23 2025 18:44:21 GMT-0500 (Central Daylight Time),417470.80000019073,A,rattle,I,e,533,3,2815.5,414655.30000019073,8018,WL,A,9.0
3,34.105000019073486,learn,25894.999980926514,Thu Oct 23 2025 18:44:21 GMT-0500 (Central Daylight Time),418537.09999990463,A,rattleenter,I,enter,1054,3,3881.7999997138977,414655.30000019073,8018,WL,A,9.0
3,39.2039999961853,learn,20796.000003814697,Thu Oct 23 2025 18:44:21 GMT-0500 (Central Daylight Time),423635.59999990463,A,m,I,m,5093,3,5098.299999713898,418537.30000019073,8018,WL,A,10.0
3,39.73699998855591,learn,20263.00001144409,Thu Oct 23 2025 18:44:21 GMT-0500 (Central Daylight Time),424169.0,A,me,I,e,514,3,5631.699999809265,418537.30000019073,8018,WL,A,10.0
3,40.05399990081787,learn,19946.00009918213,Thu Oct 23 2025 18:44:21 GMT-0500 (Central Daylight Time),424485.5,A,mea,I,a,308,3,5948.199999809265,418537.30000019073,8018,WL,A,10.0
3,40.3199999332428,learn,19680.000066757202,Thu Oct 23 2025 18:44:21 GMT-0500 (Central Daylight Time),424752.0,A,mead,I,d,256,3,6214.699999809265,418537.30000019073,8018,WL,A,10.0
3,41.11999988555908,learn,18880.000114440918,Thu Oct 23 2025 18:44:21 GMT-0500 (Central Daylight Time),425551.80000019073,A,meado,I,o,789,3,7014.5,418537.30000019073,8018,WL,A,10.0
3,41.8529999256134,learn,18147.000074386597,Thu Oct 23 2025 18:44:21 GMT-0500 (Central Daylight Time),426284.90000009537,A,meadow,I,w,717,3,7747.599999904633,418537.30000019073,8018,WL,A,10.0
3,43.003000020980835,learn,16996.999979019165,Thu Oct 23 2025 18:44:21 GMT-0500 (Central Daylight Time),427434.80000019073,A,meadowenter,I,enter,1144,3,8897.5,418537.30000019073,8018,WL,A,10.0
3,47.068000078201294,learn,12931.999921798706,Thu Oct 23 2025 18:44:21 GMT-0500 (Central Daylight Time),431499.59999990463,A,s,I,s,4051,3,4064.5999999046326,427435.0,8018,WL,A,11.0
3,47.3510000705719,learn,12648.9999294281,Thu Oct 23 2025 18:44:21 GMT-0500 (Central Daylight Time),431783.0,A,sa,I,a,274,3,4348.0,427435.0,8018,WL,A,11.0
3,48.068000078201294,learn,11931.999921798706,Thu Oct 23 2025 18:44:21 GMT-0500 (Central Daylight Time),432499.7000002861,A,sal,I,l,702,3,5064.700000286102,427435.0,8018,WL,A,11.0
3,48.551000118255615,learn,11448.999881744385,Thu Oct 23 2025 18:44:21 GMT-0500 (Central Daylight Time),432982.7000002861,A,salt,I,t,466,3,5547.700000286102,427435.0,8018,WL,A,11.0
3,49.20199990272522,learn,10798.00009727478,Thu Oct 23 2025 18:44:21 GMT-0500 (Central Daylight Time),433633.7000002861,A,saltenter,I,enter,640,3,6198.700000286102,427435.0,8018,WL,A,11.0
3,50.20300006866455,learn,9796.99993133545,Thu Oct 23 2025 18:44:21 GMT-0500 (Central Daylight Time),434635.2000002861,A,f,I,f,988,3,1001.3000001907349,433633.90000009537,8018,WL,A,12.0
3,50.867000102996826,learn,9132.999897003174,Thu Oct 23 2025 18:44:21 GMT-0500 (Central Daylight Time),435298.59999990463,A,fi,I,i,650,3,1664.6999998092651,433633.90000009537,8018,WL,A,12.0
3,51.31699991226196,learn,8683.000087738037,Thu Oct 23 2025 18:44:21 GMT-0500 (Central Daylight Time),435748.5,A,fin,I,n,436,3,2114.5999999046326,433633.90000009537,8018,WL,A,12.0
3,52.15000009536743,learn,7849.999904632568,Thu Oct 23 2025 18:44:21 GMT-0500 (Central Daylight Time),436581.5,A,fing,I,g,825,3,2947.5999999046326,433633.90000009537,8018,WL,A,12.0
3,52.48300004005432,learn,7516.999959945679,Thu Oct 23 2025 18:44:21 GMT-0500 (Central Daylight Time),436914.7000002861,A,finge,I,e,328,3,3280.800000190735,433633.90000009537,8018,WL,A,12.0
3,52.76600003242493,learn,7233.999967575073,Thu Oct 23 2025 18:44:21 GMT-0500 (Central Daylight Time),437198.0,A,finger,I,r,267,3,3564.0999999046326,433633.90000009537,8018,WL,A,12.0
3,53.73300004005432,learn,6266.999959945679,Thu Oct 23 2025 18:44:21 GMT-0500 (Central Daylight Time),438164.30000019073,A,fingerenter,I,enter,951,3,4530.400000095367,433633.90000009537,8018,WL,A,12.0
3,55.36500000953674,learn,4634.999990463257,Thu Oct 23 2025 18:44:21 GMT-0500 (Central Daylight Time),439797.2000002861,A,a,I,a,1617,3,1632.6000003814697,438164.59999990463,8018,WL,A,13.0
3,55.81500005722046,learn,4184.999942779541,Thu Oct 23 2025 18:44:21 GMT-0500 (Central Daylight Time),440247.2000002861,A,ap,I,p,432,3,2082.6000003814697,438164.59999990463,8018,WL,A,13.0
3,55.98200011253357,learn,4017.9998874664307,Thu Oct 23 2025 18:44:21 GMT-0500 (Central Daylight Time),440413.80000019073,A,app,I,p,150,3,2249.2000002861023,438164.59999990463,8018,WL,A,13.0
3,56.598000049591064,learn,3401.9999504089355,Thu Oct 23 2025 18:44:21 GMT-0500 (Central Daylight Time),441030.09999990463,A,appl,I,l,608,3,2865.5,438164.59999990463,8018,WL,A,13.0
3,57.21499991416931,learn,2785.0000858306885,Thu Oct 23 2025 18:44:21 GMT-0500 (Central Daylight Time),441646.5,A,apple,I,e,607,3,3481.9000000953674,438164.59999990463,8018,WL,A,13.0
3,58.664000034332275,learn,1335.9999656677246,Thu Oct 23 2025 18:44:21 GMT-0500 (Central Daylight Time),443096.09999990463,A,appleenter,I,enter,1440,3,4931.5,438164.59999990463,8018,WL,A,13.0
3,59.69799995422363,learn,302.0000457763672,Thu Oct 23 2025 18:44:21 GMT-0500 (Central Daylight Time),444129.30000019073,A,t,I,t,1021,3,1032.9000000953674,443096.40000009537,8018,WL,A,14.0
3,59.96399998664856,learn,36.00001335144043,Thu Oct 23 2025 18:44:21 GMT-0500 (Central Daylight Time),444395.59999990463,A,tr,I,r,260,3,1299.1999998092651,443096.40000009537,8018,WL,A,14.0
3,60.013999938964844,learn,-13.99993896484375,Thu Oct 23 2025 18:44:21 GMT-0500 (Central Daylight Time),444445.90000009537,A,trNone,I,None,46,3,1349.5,443096.40000009537,8018,WL,A,14.0
4,1.4500000476837158,learn,58549.999952316284,Thu Oct 23 2025 18:44:21 GMT-0500 (Central Daylight Time),515840.09999990463,A,a,I,a,1440,3,1449.2999997138977,514390.80000019073,8018,WL,A,1.0
4,1.9160001277923584,learn,58083.99987220764,Thu Oct 23 2025 18:44:21 GMT-0500 (Central Daylight Time),516306.5,A,ap,I,p,446,3,1915.6999998092651,514390.80000019073,8018,WL,A,1.0
4,2.065999984741211,learn,57934.00001525879,Thu Oct 23 2025 18:44:21 GMT-0500 (Central Daylight Time),516456.5,A,app,I,p,131,3,2065.699999809265,514390.80000019073,8018,WL,A,1.0
4,2.449000120162964,learn,57550.999879837036,Thu Oct 23 2025 18:44:21 GMT-0500 (Central Daylight Time),516839.59999990463,A,appl,I,l,365,3,2448.7999997138977,514390.80000019073,8018,WL,A,1.0
4,2.999000072479248,learn,57000.99992752075,Thu Oct 23 2025 18:44:21 GMT-0500 (Central Daylight Time),517389.5,A,apple,I,e,533,3,2998.699999809265,514390.80000019073,8018,WL,A,1.0
4,4.89900016784668,learn,55100.99983215332,Thu Oct 23 2025 18:44:21 GMT-0500 (Central Daylight Time),519289.0,A,appleb,I,b,1880,3,4898.199999809265,514390.80000019073,8018,WL,A,1.0
4,5.2820000648498535,learn,54717.99993515015,Thu Oct 23 2025 18:44:21 GMT-0500 (Central Daylight Time),519672.2000002861,A,applebu,I,u,372,3,5281.400000095367,514390.80000019073,8018,WL,A,1.0
4,5.648000001907349,learn,54351.99999809265,Thu Oct 23 2025 18:44:21 GMT-0500 (Central Daylight Time),520038.7000002861,A,applebut,I,t,349,3,5647.900000095367,514390.80000019073,8018,WL,A,1.0
4,5.7820000648498535,learn,54217.99993515015,Thu Oct 23 2025 18:44:21 GMT-0500 (Central Daylight Time),520172.09999990463,A,applebutt,I,t,119,3,5781.299999713898,514390.80000019073,8018,WL,A,1.0
4,6.430999994277954,learn,53569.000005722046,Thu Oct 23 2025 18:44:21 GMT-0500 (Central Daylight Time),520821.7000002861,A,applebutto,I,o,633,3,6430.900000095367,514390.80000019073,8018,WL,A,1.0
4,6.8480000495910645,learn,53151.999950408936,Thu Oct 23 2025 18:44:21 GMT-0500 (Central Daylight Time),521238.30000019073,A,applebutton,I,n,400,3,6847.5,514390.80000019073,8018,WL,A,1.0
4,7.648000001907349,learn,52351.99999809265,Thu Oct 23 2025 18:44:21 GMT-0500 (Central Daylight Time),522038.09999990463,A,applebuttonenter,I,enter,783,3,7647.299999713898,514390.80000019073,8018,WL,A,1.0
4,8.331000089645386,learn,51668.999910354614,Thu Oct 23 2025 18:44:21 GMT-0500 (Central Daylight Time),522721.30000019073,A,c,I,c,665,3,683.0,522038.30000019073,8018,WL,A,2.0
4,8.71399998664856,learn,51286.00001335144,Thu Oct 23 2025 18:44:21 GMT-0500 (Central Daylight Time),523104.5,A,ch,I,h,372,3,1066.1999998092651,522038.30000019073,8018,WL,A,2.0
4,9.098000049591064,learn,50901.999950408936,Thu Oct 23 2025 18:44:21 GMT-0500 (Central Daylight Time),523488.7000002861,A,chi,I,i,373,3,1450.4000000953674,522038.30000019073,8018,WL,A,2.0
4,9.547000169754028,learn,50452.99983024597,Thu Oct 23 2025 18:44:21 GMT-0500 (Central Daylight Time),523937.40000009537,A,chim,I,m,437,3,1899.0999999046326,522038.30000019073,8018,WL,A,2.0
4,9.830000162124634,learn,50169.999837875366,Thu Oct 23 2025 18:44:21 GMT-0500 (Central Daylight Time),524220.7000002861,A,chimn,I,n,268,3,2182.4000000953674,522038.30000019073,8018,WL,A,2.0
4,10.23200011253357,learn,49767.99988746643,Thu Oct 23 2025 18:44:21 GMT-0500 (Central Daylight Time),524622.0,A,chimne,I,e,394,3,2583.699999809265,522038.30000019073,8018,WL,A,2.0
4,10.730000019073486,learn,49269.999980926514,Thu Oct 23 2025 18:44:21 GMT-0500 (Central Daylight Time),525120.4000000954,A,chimney,I,y,479,3,3082.0999999046326,522038.30000019073,8018,WL,A,2.0
4,11.730000019073486,learn,48269.999980926514,Thu Oct 23 2025 18:44:21 GMT-0500 (Central Daylight Time),526120.0999999046,A,chimneyenter,I,enter,981,3,4081.7999997138977,522038.30000019073,8018,WL,A,2.0
4,12.496000051498413,learn,47503.99994850159,Thu Oct 23 2025 18:44:21 GMT-0500 (Central Daylight Time),526886.4000000954,A,l,I,l,749,3,766.0999999046326,526120.3000001907,8018,WL,A,3.0
4,12.797000169754028,learn,47202.99983024597,Thu Oct 23 2025 18:44:21 GMT-0500 (Central Daylight Time),527187.0,A,lo,I,o,279,3,1066.6999998092651,526120.3000001907,8018,WL,A,3.0
4,13.378999948501587,learn,46621.00005149841,Thu Oct 23 2025 18:44:21 GMT-0500 (Central Daylight Time),527769.8000001907,A,log,I,g,563,3,1649.5,526120.3000001907,8018,WL,A,3.0
4,14.462000131607056,learn,45537.999868392944,Thu Oct 23 2025 18:44:21 GMT-0500 (Central Daylight Time),528852.5999999046,A,logenter,I,enter,1067,3,2732.2999997138977,526120.3000001907,8018,WL,A,3.0
4,15.312000036239624,learn,44687.999963760376,Thu Oct 23 2025 18:44:21 GMT-0500 (Central Daylight Time),529702.3000001907,A,k,I,k,833,3,849.5,528852.8000001907,8018,WL,A,4.0
4,15.828999996185303,learn,44171.0000038147,Thu Oct 23 2025 18:44:21 GMT-0500 (Central Daylight Time),530218.8000001907,A,ke,I,e,503,3,1366.0,528852.8000001907,8018,WL,A,4.0
4,16.695000171661377,learn,43304.99982833862,Thu Oct 23 2025 18:44:21 GMT-0500 (Central Daylight Time),531085.2000002861,A,key,I,y,858,3,2232.4000000953674,528852.8000001907,8018,WL,A,4.0
4,17.394999980926514,learn,42605.000019073486,Thu Oct 23 2025 18:44:21 GMT-0500 (Central Daylight Time),531785.0999999046,A,keyenter,I,enter,680,3,2932.2999997138977,528852.8000001907,8018,WL,A,4.0
4,18.111000061035156,learn,41888.999938964844,Thu Oct 23 2025 18:44:21 GMT-0500 (Central Daylight Time),532501.5,A,t,I,t,700,3,716.1999998092651,531785.3000001907,8018,WL,A,5.0
4,18.361000061035156,learn,41638.999938964844,Thu Oct 23 2025 18:44:21 GMT-0500 (Central Daylight Time),532751.3000001907,A,tr,I,r,240,3,966.0,531785.3000001907,8018,WL,A,5.0
4,18.861000061035156,learn,41138.999938964844,Thu Oct 23 2025 18:44:21 GMT-0500 (Central Daylight Time),533251.3000001907,A,tra,I,a,486,3,1466.0,531785.3000001907,8018,WL,A,5.0
4,19.194000005722046,learn,40805.999994277954,Thu Oct 23 2025 18:44:21 GMT-0500 (Central Daylight Time),533584.4000000954,A,trai,I,i,322,3,1799.0999999046326,531785.3000001907,8018,WL,A,5.0
4,19.5770001411438,learn,40422.9998588562,Thu Oct 23 2025 18:44:21 GMT-0500 (Central Daylight Time),533967.5999999046,A,train,I,n,365,3,2182.2999997138977,531785.3000001907,8018,WL,A,5.0
4,20.177000045776367,learn,39822.99995422363,Thu Oct 23 2025 18:44:21 GMT-0500 (Central Daylight Time),534567.5,A,trainenter,I,enter,582,3,2782.199999809265,531785.3000001907,8018,WL,A,5.0
4,20.80999994277954,learn,39190.00005722046,Thu Oct 23 2025 18:44:21 GMT-0500 (Central Daylight Time),535200.5999999046,A,b,I,b,622,3,632.8999996185303,534567.7000002861,8018,WL,A,6.0
4,21.259999990463257,learn,38740.00000953674,Thu Oct 23 2025 18:44:21 GMT-0500 (Central Daylight Time),535650.5999999046,A,bo,I,o,444,3,1082.8999996185303,534567.7000002861,8018,WL,A,6.0
4,21.427000045776367,learn,38572.99995422363,Thu Oct 23 2025 18:44:21 GMT-0500 (Central Daylight Time),535817.0,A,boo,I,o,155,3,1249.2999997138977,534567.7000002861,8018,WL,A,6.0
4,21.743000030517578,learn,38256.99996948242,Thu Oct 23 2025 18:44:21 GMT-0500 (Central Daylight Time),536133.5999999046,A,book,I,k,309,3,1565.8999996185303,534567.7000002861,8018,WL,A,6.0
4,22.55999994277954,learn,37440.00005722046,Thu Oct 23 2025 18:44:21 GMT-0500 (Central Daylight Time),536950.0999999046,A,bookenter,I,enter,800,3,2382.3999996185303,534567.7000002861,8018,WL,A,6.0
4,24.575000047683716,learn,35424.999952316284,Thu Oct 23 2025 18:44:21 GMT-0500 (Central Daylight Time),538966.0999999046,A,f,I,f,2007,3,2015.7999997138977,536950.3000001907,8018,WL,A,7.0
4,24.808000087738037,learn,35191.99991226196,Thu Oct 23 2025 18:44:21 GMT-0500 (Central Daylight Time),539199.0999999046,A,fl,I,l,223,3,2248.7999997138977,536950.3000001907,8018,WL,A,7.0
4,25.10800004005432,learn,34891.99995994568,Thu Oct 23 2025 18:44:21 GMT-0500 (Central Daylight Time),539499.2000002861,A,flo,I,o,286,3,2548.9000000953674,536950.3000001907,8018,WL,A,7.0
4,25.692000150680542,learn,34307.99984931946,Thu Oct 23 2025 18:44:21 GMT-0500 (Central Daylight Time),540082.5,A,flow,I,w,570,3,3132.199999809265,536950.3000001907,8018,WL,A,7.0
4,25.89199995994568,learn,34108.00004005432,Thu Oct 23 2025 18:44:21 GMT-0500 (Central Daylight Time),540282.4000000954,A,flowe,I,e,195,3,3332.0999999046326,536950.3000001907,8018,WL,A,7.0
4,26.325000047683716,learn,33674.999952316284,Thu Oct 23 2025 18:44:21 GMT-0500 (Central Daylight Time),540715.4000000954,A,flower,I,r,427,3,3765.0999999046326,536950.3000001907,8018,WL,A,7.0
4,28.19099998474121,learn,31809.00001525879,Thu Oct 23 2025 18:44:21 GMT-0500 (Central Daylight Time),542581.5999999046,A,flowerenter,I,enter,1858,3,5631.299999713898,536950.3000001907,8018,WL,A,7.0
4,29.256999969482422,learn,30743.000030517578,Thu Oct 23 2025 18:44:21 GMT-0500 (Central Daylight Time),543648.0,A,s,I,s,1047,3,1066.0,542582.0,8018,WL,A,8.0
4,29.557000160217285,learn,30442.999839782715,Thu Oct 23 2025 18:44:21 GMT-0500 (Central Daylight Time),543947.8000001907,A,sa,I,a,293,3,1365.8000001907349,542582.0,8018,WL,A,8.0
4,30.307000160217285,learn,29692.999839782715,Thu Oct 23 2025 18:44:21 GMT-0500 (Central Daylight Time),544697.5999999046,A,sal,I,l,738,3,2115.5999999046326,542582.0,8018,WL,A,8.0
4,30.907000064849854,learn,29092.999935150146,Thu Oct 23 2025 18:44:21 GMT-0500 (Central Daylight Time),545297.3000001907,A,salt,I,t,580,3,2715.300000190735,542582.0,8018,WL,A,8.0
4,31.636000156402588,learn,28363.999843597412,Thu Oct 23 2025 18:44:21 GMT-0500 (Central Daylight Time),546026.7000002861,A,saltenter,I,enter,724,3,3444.7000002861023,542582.0,8018,WL,A,8.0
4,32.35599994659424,learn,27644.00005340576,Thu Oct 23 2025 18:44:21 GMT-0500 (Central Daylight Time),546746.9000000954,A,f,I,f,714,3,719.8000001907349,546027.0999999046,8018,WL,A,9.0
4,32.98900008201599,learn,27010.99991798401,Thu Oct 23 2025 18:44:21 GMT-0500 (Central Daylight Time),547380.0999999046,A,fi,I,i,626,3,1353.0,546027.0999999046,8018,WL,A,9.0
4,33.47200012207031,learn,26527.999877929688,Thu Oct 23 2025 18:44:21 GMT-0500 (Central Daylight Time),547863.3000001907,A,fin,I,n,473,3,1836.2000002861023,546027.0999999046,8018,WL,A,9.0
4,34.39100003242493,learn,25608.999967575073,Thu Oct 23 2025 18:44:21 GMT-0500 (Central Daylight Time),548781.3000001907,A,fing,I,g,902,3,2754.2000002861023,546027.0999999046,8018,WL,A,9.0
4,34.75600004196167,learn,25243.99995803833,Thu Oct 23 2025 18:44:21 GMT-0500 (Central Daylight Time),549146.4000000954,A,fingr,I,r,344,3,3119.300000190735,546027.0999999046,8018,WL,A,9.0
4,36.73800015449524,learn,23261.99984550476,Thu Oct 23 2025 18:44:21 GMT-0500 (Central Daylight Time),551129.0,A,fing,I,backspace,1963,3,5101.900000095367,546027.0999999046,8018,WL,A,9.0
4,37.75500011444092,learn,22244.999885559082,Thu Oct 23 2025 18:44:21 GMT-0500 (Central Daylight Time),552145.3000001907,A,finge,I,e,1004,3,6118.200000286102,546027.0999999046,8018,WL,A,9.0
4,38.021000146865845,learn,21978.999853134155,Thu Oct 23 2025 18:44:21 GMT-0500 (Central Daylight Time),552411.9000000954,A,finger,I,r,252,3,6384.800000190735,546027.0999999046,8018,WL,A,9.0
4,39.23699998855591,learn,20763.00001144409,Thu Oct 23 2025 18:44:21 GMT-0500 (Central Daylight Time),553628.0999999046,A,fingerenter,I,enter,1209,3,7601.0,546027.0999999046,8018,WL,A,9.0
4,40.05400013923645,learn,19945.99986076355,Thu Oct 23 2025 18:44:21 GMT-0500 (Central Daylight Time),554444.5,A,m,I,m,802,3,816.1999998092651,553628.3000001907,8018,WL,A,10.0
4,40.50399994850159,learn,19496.000051498413,Thu Oct 23 2025 18:44:21 GMT-0500 (Central Daylight Time),554894.5,A,me,I,e,440,3,1266.1999998092651,553628.3000001907,8018,WL,A,10.0
4,40.80400013923645,learn,19195.99986076355,Thu Oct 23 2025 18:44:21 GMT-0500 (Central Daylight Time),555194.3000001907,A,mea,I,a,287,3,1566.0,553628.3000001907,8018,WL,A,10.0
4,41.104000091552734,learn,18895.999908447266,Thu Oct 23 2025 18:44:21 GMT-0500 (Central Daylight Time),555494.3000001907,A,mead,I,d,283,3,1866.0,553628.3000001907,8018,WL,A,10.0
4,41.769999980926514,learn,18230.000019073486,Thu Oct 23 2025 18:44:21 GMT-0500 (Central Daylight Time),556160.7000002861,A,meado,I,o,647,3,2532.4000000953674,553628.3000001907,8018,WL,A,10.0
4,42.70300006866455,learn,17296.99993133545,Thu Oct 23 2025 18:44:21 GMT-0500 (Central Daylight Time),557093.7000002861,A,meadow,I,w,924,3,3465.4000000953674,553628.3000001907,8018,WL,A,10.0
4,44.13600015640259,learn,15863.999843597412,Thu Oct 23 2025 18:44:21 GMT-0500 (Central Daylight Time),558526.5999999046,A,meadowenter,I,enter,1423,3,4898.299999713898,553628.3000001907,8018,WL,A,10.0
4,45.71900010108948,learn,14280.999898910522,Thu Oct 23 2025 18:44:21 GMT-0500 (Central Daylight Time),560109.5,A,t,I,t,1575,3,1582.5999999046326,558526.9000000954,8018,WL,A,11.0
4,45.9520001411438,learn,14047.999858856201,Thu Oct 23 2025 18:44:21 GMT-0500 (Central Daylight Time),560342.8000001907,A,tr,I,r,216,3,1815.9000000953674,558526.9000000954,8018,WL,A,11.0
4,46.33500003814697,learn,13664.999961853027,Thu Oct 23 2025 18:44:21 GMT-0500 (Central Daylight Time),560725.9000000954,A,tra,I,a,367,3,2199.0,558526.9000000954,8018,WL,A,11.0
4,46.651999950408936,learn,13348.000049591064,Thu Oct 23 2025 18:44:21 GMT-0500 (Central Daylight Time),561042.7000002861,A,trai,I,i,311,3,2515.800000190735,558526.9000000954,8018,WL,A,11.0
4,47.00200009346008,learn,12997.999906539917,Thu Oct 23 2025 18:44:21 GMT-0500 (Central Daylight Time),561392.3000001907,A,train,I,n,339,3,2865.4000000953674,558526.9000000954,8018,WL,A,11.0
4,48.1010000705719,learn,11898.9999294281,Thu Oct 23 2025 18:44:21 GMT-0500 (Central Daylight Time),562492.0999999046,A,trainenter,I,enter,1093,3,3965.199999809265,558526.9000000954,8018,WL,A,11.0
4,55.032999992370605,learn,4967.0000076293945,Thu Oct 23 2025 18:44:21 GMT-0500 (Central Daylight Time),569423.5,A,h,I,h,6914,3,6931.199999809265,562492.3000001907,8018,WL,A,12.0
4,55.39300012588501,learn,4606.99987411499,Thu Oct 23 2025 18:44:21 GMT-0500 (Central Daylight Time),569783.3000001907,A,ha,I,a,354,3,7291.0,562492.3000001907,8018,WL,A,12.0
4,55.91600012779236,learn,4083.9998722076416,Thu Oct 23 2025 18:44:21 GMT-0500 (Central Daylight Time),570306.5999999046,A,har,I,r,502,3,7814.299999713898,562492.3000001907,8018,WL,A,12.0
4,56.74900007247925,learn,3250.999927520752,Thu Oct 23 2025 18:44:21 GMT-0500 (Central Daylight Time),571139.4000000954,A,harp,I,p,818,3,8647.099999904633,562492.3000001907,8018,WL,A,12.0
4,57.46500015258789,learn,2534.9998474121094,Thu Oct 23 2025 18:44:21 GMT-0500 (Central Daylight Time),571855.8000001907,A,harpenter,I,enter,698,3,9363.5,562492.3000001907,8018,WL,A,12.0
4,60.01400017738342,learn,-14.000177383422852,Thu Oct 23 2025 18:44:21 GMT-0500 (Central Daylight Time),574405.0,A,None,I,None,2544,3,2548.9000000953674,571856.0999999046,8018,WL,A,13.0
5,1.2000000476837158,learn,60000.0,Thu Oct 23 2025 18:44:21 GMT-0500 (Central Daylight Time),651447.5999999046,A,b,I,b,1182,3,1199.6999998092651,650247.9000000954,8018,WL,A,1.0
5,1.748999834060669,learn,60000.0,Thu Oct 23 2025 18:44:21 GMT-0500 (Central Daylight Time),651997.3000001907,A,bu,I,u,533,3,1749.4000000953674,650247.9000000954,8018,WL,A,1.0
5,2.182999849319458,learn,60000.0,Thu Oct 23 2025 18:44:21 GMT-0500 (Central Daylight Time),652430.5,A,but,I,t,416,3,2182.5999999046326,650247.9000000954,8018,WL,A,1.0
5,2.315999984741211,learn,60000.0,Thu Oct 23 2025 18:44:21 GMT-0500 (Central Daylight Time),652563.8000001907,A,butt,I,t,127,3,2315.9000000953674,650247.9000000954,8018,WL,A,1.0
5,2.9819998741149902,learn,60000.0,Thu Oct 23 2025 18:44:21 GMT-0500 (Central Daylight Time),653230.4000000954,A,butto,I,o,650,3,2982.5,650247.9000000954,8018,WL,A,1.0
5,3.6489999294281006,learn,60000.0,Thu Oct 23 2025 18:44:21 GMT-0500 (Central Daylight Time),653896.7000002861,A,button,I,n,647,3,3648.800000190735,650247.9000000954,8018,WL,A,1.0
5,4.582000017166138,learn,60000.0,Thu Oct 23 2025 18:44:21 GMT-0500 (Central Daylight Time),654829.7000002861,A,buttonenter,I,enter,925,3,4581.800000190735,650247.9000000954,8018,WL,A,1.0
5,5.197999954223633,learn,60000.0,Thu Oct 23 2025 18:44:21 GMT-0500 (Central Daylight Time),655446.2000002861,A,k,I,k,608,3,616.3000001907349,654829.9000000954,8018,WL,A,2.0
5,5.730999946594238,learn,60000.0,Thu Oct 23 2025 18:44:21 GMT-0500 (Central Daylight Time),655979.3000001907,A,ke,I,e,519,3,1149.4000000953674,654829.9000000954,8018,WL,A,2.0
5,6.197999954223633,learn,60000.0,Thu Oct 23 2025 18:44:21 GMT-0500 (Central Daylight Time),656446.0,A,key,I,y,450,3,1616.0999999046326,654829.9000000954,8018,WL,A,2.0
5,7.0309998989105225,learn,60000.0,Thu Oct 23 2025 18:44:21 GMT-0500 (Central Daylight Time),657279.0,A,keyenter,I,enter,823,3,2449.0999999046326,654829.9000000954,8018,WL,A,2.0
5,8.179999828338623,learn,60000.0,Thu Oct 23 2025 18:44:21 GMT-0500 (Central Daylight Time),658428.5999999046,A,l,I,l,1143,3,1149.3999996185303,657279.2000002861,8018,WL,A,3.0
5,8.52999997138977,learn,60000.0,Thu Oct 23 2025 18:44:21 GMT-0500 (Central Daylight Time),658778.5,A,lo,I,o,345,3,1499.2999997138977,657279.2000002861,8018,WL,A,3.0
5,9.079999923706055,learn,60000.0,Thu Oct 23 2025 18:44:21 GMT-0500 (Central Daylight Time),659328.3000001907,A,log,I,g,539,3,2049.0999999046326,657279.2000002861,8018,WL,A,3.0
5,9.730000019073486,learn,60000.0,Thu Oct 23 2025 18:44:21 GMT-0500 (Central Daylight Time),659978.0999999046,A,logenter,I,enter,629,3,2698.8999996185303,657279.2000002861,8018,WL,A,3.0
5,10.345999956130981,learn,60000.0,Thu Oct 23 2025 18:44:21 GMT-0500 (Central Daylight Time),660594.5999999046,A,c,I,c,612,3,616.1999998092651,659978.4000000954,8018,WL,A,4.0
5,10.746000051498413,learn,60000.0,Thu Oct 23 2025 18:44:21 GMT-0500 (Central Daylight Time),660994.5999999046,A,ch,I,h,395,3,1016.1999998092651,659978.4000000954,8018,WL,A,4.0
5,11.11299991607666,learn,60000.0,Thu Oct 23 2025 18:44:21 GMT-0500 (Central Daylight Time),661360.9000000954,A,chi,I,i,355,3,1382.5,659978.4000000954,8018,WL,A,4.0
5,11.513000011444092,learn,60000.0,Thu Oct 23 2025 18:44:21 GMT-0500 (Central Daylight Time),661760.7000002861,A,chim,I,m,389,3,1782.3000001907349,659978.4000000954,8018,WL,A,4.0
5,11.796000003814697,learn,60000.0,Thu Oct 23 2025 18:44:21 GMT-0500 (Central Daylight Time),662044.0999999046,A,chimn,I,n,277,3,2065.699999809265,659978.4000000954,8018,WL,A,4.0
5,12.26199984550476,learn,60000.0,Thu Oct 23 2025 18:44:21 GMT-0500 (Central Daylight Time),662510.5999999046,A,chimne,I,e,449,3,2532.199999809265,659978.4000000954,8018,WL,A,4.0
5,12.994999885559082,learn,60000.0,Thu Oct 23 2025 18:44:21 GMT-0500 (Central Daylight Time),663243.7000002861,A,chimney,I,y,719,3,3265.300000190735,659978.4000000954,8018,WL,A,4.0
5,14.09500002861023,learn,60000.0,Thu Oct 23 2025 18:44:21 GMT-0500 (Central Daylight Time),664343.5999999046,A,chimneyenter,I,enter,1083,3,4365.199999809265,659978.4000000954,8018,WL,A,4.0
5,15.111000061035156,learn,60000.0,Thu Oct 23 2025 18:44:21 GMT-0500 (Central Daylight Time),665359.7000002861,A,b,I,b,1006,3,1016.0,664343.7000002861,8018,WL,A,5.0
5,15.66100001335144,learn,60000.0,Thu Oct 23 2025 18:44:21 GMT-0500 (Central Daylight Time),665909.4000000954,A,bo,I,o,533,3,1565.6999998092651,664343.7000002861,8018,WL,A,5.0
5,15.827999830245972,learn,60000.0,Thu Oct 23 2025 18:44:21 GMT-0500 (Central Daylight Time),666076.2000002861,A,boo,I,o,160,3,1732.5,664343.7000002861,8018,WL,A,5.0
5,16.378000020980835,learn,60000.0,Thu Oct 23 2025 18:44:21 GMT-0500 (Central Daylight Time),666626.0,A,book,I,k,529,3,2282.2999997138977,664343.7000002861,8018,WL,A,5.0
5,17.276999950408936,learn,60000.0,Thu Oct 23 2025 18:44:21 GMT-0500 (Central Daylight Time),667525.7000002861,A,bookenter,I,enter,892,3,3182.0,664343.7000002861,8018,WL,A,5.0
5,18.543999910354614,learn,60000.0,Thu Oct 23 2025 18:44:21 GMT-0500 (Central Daylight Time),668792.0,A,f,I,f,1248,3,1266.0999999046326,667525.9000000954,8018,WL,A,6.0
5,18.710000038146973,learn,60000.0,Thu Oct 23 2025 18:44:21 GMT-0500 (Central Daylight Time),668958.7000002861,A,fl,I,l,150,3,1432.8000001907349,667525.9000000954,8018,WL,A,6.0
5,19.043999910354614,learn,60000.0,Thu Oct 23 2025 18:44:21 GMT-0500 (Central Daylight Time),669291.8000001907,A,flo,I,o,318,3,1765.9000000953674,667525.9000000954,8018,WL,A,6.0
5,19.460000038146973,learn,60000.0,Thu Oct 23 2025 18:44:21 GMT-0500 (Central Daylight Time),669708.3000001907,A,flow,I,w,410,3,2182.4000000953674,667525.9000000954,8018,WL,A,6.0
5,19.792999982833862,learn,60000.0,Thu Oct 23 2025 18:44:21 GMT-0500 (Central Daylight Time),670041.7000002861,A,flowe,I,e,321,3,2515.800000190735,667525.9000000954,8018,WL,A,6.0
5,20.15999984741211,learn,60000.0,Thu Oct 23 2025 18:44:21 GMT-0500 (Central Daylight Time),670408.0999999046,A,flower,I,r,356,3,2882.199999809265,667525.9000000954,8018,WL,A,6.0
5,21.22599983215332,learn,60000.0,Thu Oct 23 2025 18:44:21 GMT-0500 (Central Daylight Time),671474.4000000954,A,flowerenter,I,enter,1053,3,3948.5,667525.9000000954,8018,WL,A,6.0
5,22.20899987220764,learn,60000.0,Thu Oct 23 2025 18:44:21 GMT-0500 (Central Daylight Time),672457.4000000954,A,t,I,t,971,3,982.6999998092651,671474.7000002861,8018,WL,A,7.0
5,22.45899987220764,learn,60000.0,Thu Oct 23 2025 18:44:21 GMT-0500 (Central Daylight Time),672707.4000000954,A,tr,I,r,244,3,1232.6999998092651,671474.7000002861,8018,WL,A,7.0
5,22.908999919891357,learn,60000.0,Thu Oct 23 2025 18:44:21 GMT-0500 (Central Daylight Time),673157.3000001907,A,tra,I,a,441,3,1682.5999999046326,671474.7000002861,8018,WL,A,7.0
5,23.243000030517578,learn,60000.0,Thu Oct 23 2025 18:44:21 GMT-0500 (Central Daylight Time),673491.7000002861,A,trai,I,i,328,3,2017.0,671474.7000002861,8018,WL,A,7.0
5,23.691999912261963,learn,60000.0,Thu Oct 23 2025 18:44:21 GMT-0500 (Central Daylight Time),673940.3000001907,A,train,I,n,433,3,2465.5999999046326,671474.7000002861,8018,WL,A,7.0
5,25.075000047683716,learn,60000.0,Thu Oct 23 2025 18:44:21 GMT-0500 (Central Daylight Time),675323.2000002861,A,trainenter,I,enter,1377,3,3848.5,671474.7000002861,8018,WL,A,7.0
5,26.04099988937378,learn,60000.0,Thu Oct 23 2025 18:44:21 GMT-0500 (Central Daylight Time),676289.5999999046,A,h,I,h,946,3,966.1999998092651,675323.4000000954,8018,WL,A,8.0
5,26.307999849319458,learn,60000.0,Thu Oct 23 2025 18:44:21 GMT-0500 (Central Daylight Time),676556.2000002861,A,ha,I,a,252,3,1232.8000001907349,675323.4000000954,8018,WL,A,8.0
5,26.79099988937378,learn,60000.0,Thu Oct 23 2025 18:44:21 GMT-0500 (Central Daylight Time),677039.5,A,har,I,r,465,3,1716.0999999046326,675323.4000000954,8018,WL,A,8.0
5,27.473999977111816,learn,60000.0,Thu Oct 23 2025 18:44:21 GMT-0500 (Central Daylight Time),677722.5999999046,A,harp,I,p,670,3,2399.199999809265,675323.4000000954,8018,WL,A,8.0
5,28.756999969482422,learn,60000.0,Thu Oct 23 2025 18:44:21 GMT-0500 (Central Daylight Time),679005.5999999046,A,harpenter,I,enter,1267,3,3682.199999809265,675323.4000000954,8018,WL,A,8.0
5,34.789000034332275,learn,60000.0,Thu Oct 23 2025 18:44:21 GMT-0500 (Central Daylight Time),685036.9000000954,A,r,I,r,6024,3,6031.099999904633,679005.8000001907,8018,WL,A,9.0
5,35.30499982833862,learn,60000.0,Thu Oct 23 2025 18:44:21 GMT-0500 (Central Daylight Time),685553.4000000954,A,ru,I,u,496,3,6547.599999904633,679005.8000001907,8018,WL,A,9.0
5,35.82200002670288,learn,60000.0,Thu Oct 23 2025 18:44:21 GMT-0500 (Central Daylight Time),686069.8000001907,A,rug,I,g,500,3,7064.0,679005.8000001907,8018,WL,A,9.0
5,36.40499997138977,learn,60000.0,Thu Oct 23 2025 18:44:21 GMT-0500 (Central Daylight Time),686653.0999999046,A,rugenter,I,enter,576,3,7647.299999713898,679005.8000001907,8018,WL,A,9.0
5,37.187999963760376,learn,60000.0,Thu Oct 23 2025 18:44:21 GMT-0500 (Central Daylight Time),687436.3000001907,A,g,I,g,768,3,782.9000000953674,686653.4000000954,8018,WL,A,10.0
5,37.72099995613098,learn,60000.0,Thu Oct 23 2025 18:44:21 GMT-0500 (Central Daylight Time),687969.3000001907,A,go,I,o,513,3,1315.9000000953674,686653.4000000954,8018,WL,A,10.0
5,38.00399994850159,learn,60000.0,Thu Oct 23 2025 18:44:21 GMT-0500 (Central Daylight Time),688252.4000000954,A,gol,I,l,276,3,1599.0,686653.4000000954,8018,WL,A,10.0
5,38.603999853134155,learn,60000.0,Thu Oct 23 2025 18:44:21 GMT-0500 (Central Daylight Time),688852.3000001907,A,gold,I,d,593,3,2198.9000000953674,686653.4000000954,8018,WL,A,10.0
5,39.65400004386902,learn,60000.0,Thu Oct 23 2025 18:44:21 GMT-0500 (Central Daylight Time),689901.9000000954,A,goldenter,I,enter,1033,3,3248.5,686653.4000000954,8018,WL,A,10.0
5,41.5699999332428,learn,60000.0,Thu Oct 23 2025 18:44:21 GMT-0500 (Central Daylight Time),691818.2000002861,A,m,I,m,1896,3,1916.1000003814697,689902.0999999046,8018,WL,A,11.0
5,42.0699999332428,learn,60000.0,Thu Oct 23 2025 18:44:21 GMT-0500 (Central Daylight Time),692318.2000002861,A,me,I,e,484,3,2416.1000003814697,689902.0999999046,8018,WL,A,11.0
5,42.40299987792969,learn,60000.0,Thu Oct 23 2025 18:44:21 GMT-0500 (Central Daylight Time),692651.7000002861,A,mea,I,a,319,3,2749.6000003814697,689902.0999999046,8018,WL,A,11.0
5,42.70299983024597,learn,60000.0,Thu Oct 23 2025 18:44:21 GMT-0500 (Central Daylight Time),692951.3000001907,A,mead,I,d,282,3,3049.2000002861023,689902.0999999046,8018,WL,A,11.0
5,43.4689998626709,learn,60000.0,Thu Oct 23 2025 18:44:21 GMT-0500 (Central Daylight Time),693717.5,A,meado,I,o,750,3,3815.4000000953674,689902.0999999046,8018,WL,A,11.0
5,44.069000005722046,learn,60000.0,Thu Oct 23 2025 18:44:21 GMT-0500 (Central Daylight Time),694317.4000000954,A,meadow,I,w,592,3,4415.300000190735,689902.0999999046,8018,WL,A,11.0
5,45.251999855041504,learn,60000.0,Thu Oct 23 2025 18:44:21 GMT-0500 (Central Daylight Time),695500.3000001907,A,meadowenter,I,enter,1177,3,5598.200000286102,689902.0999999046,8018,WL,A,11.0
5,47.60099983215332,learn,60000.0,Thu Oct 23 2025 18:44:21 GMT-0500 (Central Daylight Time),697849.5999999046,A,t,I,t,2329,3,2349.0,695500.5999999046,8018,WL,A,12.0
5,47.93400001525879,learn,60000.0,Thu Oct 23 2025 18:44:21 GMT-0500 (Central Daylight Time),698182.7000002861,A,tr,I,r,316,3,2682.1000003814697,695500.5999999046,8018,WL,A,12.0
5,48.26799988746643,learn,60000.0,Thu Oct 23 2025 18:44:21 GMT-0500 (Central Daylight Time),698515.9000000954,A,tra,I,a,319,3,3015.300000190735,695500.5999999046,8018,WL,A,12.0
5,49.16700005531311,learn,60000.0,Thu Oct 23 2025 18:44:21 GMT-0500 (Central Daylight Time),699415.7000002861,A,trai,I,i,890,3,3915.1000003814697,695500.5999999046,8018,WL,A,12.0
5,49.60099983215332,learn,60000.0,Thu Oct 23 2025 18:44:21 GMT-0500 (Central Daylight Time),699848.9000000954,A,train,I,n,414,3,4348.300000190735,695500.5999999046,8018,WL,A,12.0
5,50.700000047683716,learn,60000.0,Thu Oct 23 2025 18:44:21 GMT-0500 (Central Daylight Time),700948.7000002861,A,trainenter,I,enter,1085,3,5448.10000038147,695500.5999999046,8018,WL,A,12.0
5,54.81599998474121,learn,60000.0,Thu Oct 23 2025 18:44:21 GMT-0500 (Central Daylight Time),705064.0999999046,A,s,I,s,4096,3,4115.099999904633,700949.0,8018,WL,A,13.0
5,55.03200006484985,learn,60000.0,Thu Oct 23 2025 18:44:21 GMT-0500 (Central Daylight Time),705280.5999999046,A,sa,I,a,205,3,4331.599999904633,700949.0,8018,WL,A,13.0
5,55.764999866485596,learn,60000.0,Thu Oct 23 2025 18:44:21 GMT-0500 (Central Daylight Time),706013.7000002861,A,sal,I,l,726,3,5064.700000286102,700949.0,8018,WL,A,13.0
5,56.348000049591064,learn,60000.0,Thu Oct 23 2025 18:44:21 GMT-0500 (Central Daylight Time),706596.7000002861,A,salt,I,t,576,3,5647.700000286102,700949.0,8018,WL,A,13.0
5,57.11500000953674,learn,60000.0,Thu Oct 23 2025 18:44:21 GMT-0500 (Central Daylight Time),707363.3000001907,A,saltenter,I,enter,761,3,6414.300000190735,700949.0,8018,WL,A,13.0
5,58.33099985122681,learn,60000.0,Thu Oct 23 2025 18:44:21 GMT-0500 (Central Daylight Time),708579.5,A,f,I,f,1202,3,1216.0,707363.5,8018,WL,A,14.0
5,58.930999994277954,learn,60000.0,Thu Oct 23 2025 18:44:21 GMT-0500 (Central Daylight Time),709179.3000001907,A,fi,I,i,594,3,1815.8000001907349,707363.5,8018,WL,A,14.0
5,59.33099985122681,learn,60000.0,Thu Oct 23 2025 18:44:21 GMT-0500 (Central Daylight Time),709579.0999999046,A,fin,I,n,386,3,2215.5999999046326,707363.5,8018,WL,A,14.0
5,59.81399989128113,learn,60000.0,Thu Oct 23 2025 18:44:21 GMT-0500 (Central Daylight Time),710062.5,A,fing,I,g,474,3,2699.0,707363.5,8018,WL,A,14.0
5,60.13100004196167,learn,60000.0,Thu Oct 23 2025 18:44:21 GMT-0500 (Central Daylight Time),710378.9000000954,A,finge,I,e,303,3,3015.4000000953674,707363.5,8018,WL,A,14.0
6,41.103999853134155,distr,18896.000146865845,Thu Oct 23 2025 18:44:21 GMT-0500 (Central Daylight Time),830941.2000002861,B,c,I,c,41097,3,41103.7000002861,789837.5,8018,WL,A,1.0
6,41.687000036239624,distr,18312.999963760376,Thu Oct 23 2025 18:44:21 GMT-0500 (Central Daylight Time),831524.3000001907,B,co,I,o,575,3,41686.800000190735,789837.5,8018,WL,A,1.0
6,42.1029999256134,distr,17897.000074386597,Thu Oct 23 2025 18:44:21 GMT-0500 (Central Daylight Time),831940.8000001907,B,coa,I,a,401,3,42103.300000190735,789837.5,8018,WL,A,1.0
6,42.68599987030029,distr,17314.000129699707,Thu Oct 23 2025 18:44:21 GMT-0500 (Central Daylight Time),832524.0999999046,B,coat,I,t,568,3,42686.59999990463,789837.5,8018,WL,A,1.0
6,43.986000061035156,distr,16013.999938964844,Thu Oct 23 2025 18:44:21 GMT-0500 (Central Daylight Time),833823.5999999046,B,coatenter,I,enter,1289,3,43986.09999990463,789837.5,8018,WL,A,1.0
6,60.013999938964844,distr,-13.99993896484375,Thu Oct 23 2025 18:44:21 GMT-0500 (Central Daylight Time),849851.9000000954,B,None,I,None,16024,3,16027.800000190735,833824.0999999046,8018,WL,A,2.0
7,1.683000087738037,immed,58316.99991226196,Thu Oct 23 2025 18:44:21 GMT-0500 (Central Daylight Time),872594.7000002861,A,b,I,b,1678,3,1682.7000002861023,870912.0,8018,WL,A,1.0
7,2.199000120162964,immed,57800.999879837036,Thu Oct 23 2025 18:44:21 GMT-0500 (Central Daylight Time),873111.2000002861,A,bo,I,o,498,3,2199.2000002861023,870912.0,8018,WL,A,1.0
7,2.366000175476074,immed,57633.999824523926,Thu Oct 23 2025 18:44:21 GMT-0500 (Central Daylight Time),873277.8000001907,A,boo,I,o,158,3,2365.800000190735,870912.0,8018,WL,A,1.0
7,2.7820000648498535,immed,57217.99993515015,Thu Oct 23 2025 18:44:21 GMT-0500 (Central Daylight Time),873694.3000001907,A,book,I,k,400,3,2782.300000190735,870912.0,8018,WL,A,1.0
7,4.115000009536743,immed,55884.99999046326,Thu Oct 23 2025 18:44:21 GMT-0500 (Central Daylight Time),875027.2000002861,A,bookenter,I,enter,1327,3,4115.200000286102,870912.0,8018,WL,A,1.0
7,5.64300012588501,immed,54356.99987411499,Thu Oct 23 2025 18:44:21 GMT-0500 (Central Daylight Time),876555.0999999046,A,f,I,f,1523,3,1527.5,875027.5999999046,8018,WL,A,2.0
7,6.281000137329102,immed,53718.9998626709,Thu Oct 23 2025 18:44:21 GMT-0500 (Central Daylight Time),877193.2000002861,A,fl,I,l,618,3,2165.6000003814697,875027.5999999046,8018,WL,A,2.0
7,6.5980000495910645,immed,53401.999950408936,Thu Oct 23 2025 18:44:21 GMT-0500 (Central Daylight Time),877509.8000001907,A,flo,I,o,308,3,2482.2000002861023,875027.5999999046,8018,WL,A,2.0
7,7.114000082015991,immed,52885.99991798401,Thu Oct 23 2025 18:44:21 GMT-0500 (Central Daylight Time),878026.2000002861,A,flow,I,w,504,3,2998.6000003814697,875027.5999999046,8018,WL,A,2.0
7,7.498000144958496,immed,52501.999855041504,Thu Oct 23 2025 18:44:21 GMT-0500 (Central Daylight Time),878409.7000002861,A,flowe,I,e,363,3,3382.1000003814697,875027.5999999046,8018,WL,A,2.0
7,7.96399998664856,immed,52036.00001335144,Thu Oct 23 2025 18:44:21 GMT-0500 (Central Daylight Time),878875.9000000954,A,flower,I,r,452,3,3848.300000190735,875027.5999999046,8018,WL,A,2.0
7,9.397000074386597,immed,50602.9999256134,Thu Oct 23 2025 18:44:21 GMT-0500 (Central Daylight Time),880309.0,A,flowerenter,I,enter,1426,3,5281.400000095367,875027.5999999046,8018,WL,A,2.0
7,10.36300015449524,immed,49636.99984550476,Thu Oct 23 2025 18:44:21 GMT-0500 (Central Daylight Time),881275.4000000954,A,t,I,t,952,3,966.1999998092651,880309.2000002861,8018,WL,A,3.0
7,10.630000114440918,immed,49369.99988555908,Thu Oct 23 2025 18:44:21 GMT-0500 (Central Daylight Time),881541.8000001907,A,tr,I,r,258,3,1232.5999999046326,880309.2000002861,8018,WL,A,3.0
7,10.963000059127808,immed,49036.99994087219,Thu Oct 23 2025 18:44:21 GMT-0500 (Central Daylight Time),881875.2000002861,A,tra,I,a,328,3,1566.0,880309.2000002861,8018,WL,A,3.0
7,11.413000106811523,immed,48586.99989318848,Thu Oct 23 2025 18:44:21 GMT-0500 (Central Daylight Time),882325.0,A,trai,I,i,433,3,2015.7999997138977,880309.2000002861,8018,WL,A,3.0
7,11.796000003814697,immed,48203.9999961853,Thu Oct 23 2025 18:44:21 GMT-0500 (Central Daylight Time),882708.2000002861,A,train,I,n,376,3,2399.0,880309.2000002861,8018,WL,A,3.0
7,13.046000003814697,immed,46953.9999961853,Thu Oct 23 2025 18:44:21 GMT-0500 (Central Daylight Time),883957.8000001907,A,trainenter,I,enter,1241,3,3648.5999999046326,880309.2000002861,8018,WL,A,3.0
7,14.162000179290771,immed,45837.99982070923,Thu Oct 23 2025 18:44:21 GMT-0500 (Central Daylight Time),885074.0999999046,A,r,I,r,1096,3,1116.0999999046326,883958.0,8018,WL,A,4.0
7,14.779000043869019,immed,45220.99995613098,Thu Oct 23 2025 18:44:21 GMT-0500 (Central Daylight Time),885690.5999999046,A,ru,I,u,603,3,1732.5999999046326,883958.0,8018,WL,A,4.0
7,15.278000116348267,immed,44721.99988365173,Thu Oct 23 2025 18:44:21 GMT-0500 (Central Daylight Time),886190.4000000954,A,rug,I,g,483,3,2232.4000000953674,883958.0,8018,WL,A,4.0
7,16.028000116348267,immed,43971.99988365173,Thu Oct 23 2025 18:44:21 GMT-0500 (Central Daylight Time),886940.2000002861,A,rugenter,I,enter,743,3,2982.2000002861023,883958.0,8018,WL,A,4.0
7,16.99500012397766,immed,43004.99987602234,Thu Oct 23 2025 18:44:21 GMT-0500 (Central Daylight Time),887906.4000000954,A,g,I,g,954,3,966.0999999046326,886940.3000001907,8018,WL,A,5.0
7,17.545000076293945,immed,42454.999923706055,Thu Oct 23 2025 18:44:21 GMT-0500 (Central Daylight Time),888456.4000000954,A,go,I,o,531,3,1516.0999999046326,886940.3000001907,8018,WL,A,5.0
7,17.844000101089478,immed,42155.99989891052,Thu Oct 23 2025 18:44:21 GMT-0500 (Central Daylight Time),888756.5,A,gol,I,l,293,3,1816.1999998092651,886940.3000001907,8018,WL,A,5.0
7,18.47699999809265,immed,41523.00000190735,Thu Oct 23 2025 18:44:21 GMT-0500 (Central Daylight Time),889389.3000001907,A,gold,I,d,625,3,2449.0,886940.3000001907,8018,WL,A,5.0
7,19.460999965667725,immed,40539.000034332275,Thu Oct 23 2025 18:44:21 GMT-0500 (Central Daylight Time),890372.5,A,goldenter,I,enter,968,3,3432.199999809265,886940.3000001907,8018,WL,A,5.0
7,21.210000038146973,immed,38789.99996185303,Thu Oct 23 2025 18:44:21 GMT-0500 (Central Daylight Time),892121.8000001907,A,c,I,c,1729,3,1749.0999999046326,890372.7000002861,8018,WL,A,6.0
7,21.610000133514404,immed,38389.999866485596,Thu Oct 23 2025 18:44:21 GMT-0500 (Central Daylight Time),892521.7000002861,A,ch,I,h,379,3,2149.0,890372.7000002861,8018,WL,A,6.0
7,22.009999990463257,immed,37990.00000953674,Thu Oct 23 2025 18:44:21 GMT-0500 (Central Daylight Time),892921.5,A,chi,I,i,388,3,2548.7999997138977,890372.7000002861,8018,WL,A,6.0
7,22.493000030517578,immed,37506.99996948242,Thu Oct 23 2025 18:44:21 GMT-0500 (Central Daylight Time),893404.7000002861,A,chim,I,m,468,3,3032.0,890372.7000002861,8018,WL,A,6.0
7,22.80900001525879,immed,37190.99998474121,Thu Oct 23 2025 18:44:21 GMT-0500 (Central Daylight Time),893721.4000000954,A,chimn,I,n,305,3,3348.699999809265,890372.7000002861,8018,WL,A,6.0
7,23.343000173568726,immed,36656.999826431274,Thu Oct 23 2025 18:44:21 GMT-0500 (Central Daylight Time),894254.7000002861,A,chimne,I,e,516,3,3882.0,890372.7000002861,8018,WL,A,6.0
7,23.80900001525879,immed,36190.99998474121,Thu Oct 23 2025 18:44:21 GMT-0500 (Central Daylight Time),894720.9000000954,A,chimney,I,y,455,3,4348.199999809265,890372.7000002861,8018,WL,A,6.0
7,24.858999967575073,immed,35141.00003242493,Thu Oct 23 2025 18:44:21 GMT-0500 (Central Daylight Time),895770.9000000954,A,chimneyenter,I,enter,1029,3,5398.199999809265,890372.7000002861,8018,WL,A,6.0
7,25.592000007629395,immed,34407.999992370605,Thu Oct 23 2025 18:44:21 GMT-0500 (Central Daylight Time),896503.8000001907,A,l,I,l,723,3,732.7000002861023,895771.0999999046,8018,WL,A,7.0
7,25.89199995994568,immed,34108.00004005432,Thu Oct 23 2025 18:44:21 GMT-0500 (Central Daylight Time),896803.8000001907,A,lo,I,o,294,3,1032.7000002861023,895771.0999999046,8018,WL,A,7.0
7,27.008000135421753,immed,32991.99986457825,Thu Oct 23 2025 18:44:21 GMT-0500 (Central Daylight Time),897920.0,A,log,I,g,1097,3,2148.9000000953674,895771.0999999046,8018,WL,A,7.0
7,27.69099998474121,immed,32309.00001525879,Thu Oct 23 2025 18:44:21 GMT-0500 (Central Daylight Time),898603.0999999046,A,logenter,I,enter,669,3,2832.0,895771.0999999046,8018,WL,A,7.0
7,28.308000087738037,immed,31691.999912261963,Thu Oct 23 2025 18:44:21 GMT-0500 (Central Daylight Time),899219.5999999046,A,r,I,r,602,3,616.2999997138977,898603.3000001907,8018,WL,A,8.0
7,28.591000080108643,immed,31408.999919891357,Thu Oct 23 2025 18:44:21 GMT-0500 (Central Daylight Time),899503.0,A,ra,I,a,274,3,899.6999998092651,898603.3000001907,8018,WL,A,8.0
7,29.05400013923645,immed,30945.99986076355,Thu Oct 23 2025 18:44:21 GMT-0500 (Central Daylight Time),899965.7000002861,A,rat,I,t,457,3,1362.4000000953674,898603.3000001907,8018,WL,A,8.0
7,29.2020001411438,immed,30797.9998588562,Thu Oct 23 2025 18:44:21 GMT-0500 (Central Daylight Time),900113.5999999046,A,ratt,I,t,142,3,1510.2999997138977,898603.3000001907,8018,WL,A,8.0
7,29.841000080108643,immed,30158.999919891357,Thu Oct 23 2025 18:44:21 GMT-0500 (Central Daylight Time),900752.5999999046,A,rattl,I,l,618,3,2149.2999997138977,898603.3000001907,8018,WL,A,8.0
7,30.490000009536743,immed,29509.999990463257,Thu Oct 23 2025 18:44:21 GMT-0500 (Central Daylight Time),901402.4000000954,A,rattle,I,e,645,3,2799.0999999046326,898603.3000001907,8018,WL,A,8.0
7,32.140000104904175,immed,27859.999895095825,Thu Oct 23 2025 18:44:21 GMT-0500 (Central Daylight Time),903051.7000002861,A,rattleenter,I,enter,1643,3,4448.400000095367,898603.3000001907,8018,WL,A,8.0
7,33.02300000190735,immed,26976.99999809265,Thu Oct 23 2025 18:44:21 GMT-0500 (Central Daylight Time),903934.7000002861,A,k,I,k,865,3,882.8000001907349,903051.9000000954,8018,WL,A,9.0
7,33.52300000190735,immed,26476.99999809265,Thu Oct 23 2025 18:44:21 GMT-0500 (Central Daylight Time),904434.5,A,ke,I,e,480,3,1382.5999999046326,903051.9000000954,8018,WL,A,9.0
7,34.32300019264221,immed,25676.999807357788,Thu Oct 23 2025 18:44:21 GMT-0500 (Central Daylight Time),905234.5,A,key,I,y,795,3,2182.5999999046326,903051.9000000954,8018,WL,A,9.0
7,35.83899998664856,immed,24161.00001335144,Thu Oct 23 2025 18:44:21 GMT-0500 (Central Daylight Time),906750.5999999046,A,keyenter,I,enter,1507,3,3698.699999809265,903051.9000000954,8018,WL,A,9.0
7,43.736000061035156,immed,16263.999938964844,Thu Oct 23 2025 18:44:21 GMT-0500 (Central Daylight Time),914648.4000000954,A,h,I,h,7879,3,7897.5,906750.9000000954,8018,WL,A,10.0
7,44.03600001335144,immed,15963.99998664856,Thu Oct 23 2025 18:44:21 GMT-0500 (Central Daylight Time),914948.0,A,ha,I,a,284,3,8197.099999904633,906750.9000000954,8018,WL,A,10.0
7,44.65300011634827,immed,15346.999883651733,Thu Oct 23 2025 18:44:21 GMT-0500 (Central Daylight Time),915564.5999999046,A,har,I,r,602,3,8813.699999809265,906750.9000000954,8018,WL,A,10.0
7,45.18600010871887,immed,14813.999891281128,Thu Oct 23 2025 18:44:21 GMT-0500 (Central Daylight Time),916097.5999999046,A,harp,I,p,521,3,9346.699999809265,906750.9000000954,8018,WL,A,10.0
7,46.36900019645691,immed,13630.99980354309,Thu Oct 23 2025 18:44:21 GMT-0500 (Central Daylight Time),917280.5,A,harpenter,I,enter,1172,3,10529.599999904633,906750.9000000954,8018,WL,A,10.0
7,58.39800000190735,immed,1601.9999980926514,Thu Oct 23 2025 18:44:21 GMT-0500 (Central Daylight Time),929310.0999999046,A,b,I,b,12013,3,12029.39999961853,917280.7000002861,8018,WL,A,11.0
7,58.7810001373291,immed,1218.9998626708984,Thu Oct 23 2025 18:44:21 GMT-0500 (Central Daylight Time),929693.4000000954,A,bu,I,u,375,3,12412.699999809265,917280.7000002861,8018,WL,A,11.0
7,59.164000034332275,immed,835.9999656677246,Thu Oct 23 2025 18:44:21 GMT-0500 (Central Daylight Time),930076.5,A,but,I,t,368,3,12795.799999713898,917280.7000002861,8018,WL,A,11.0
7,59.31500005722046,immed,684.999942779541,Thu Oct 23 2025 18:44:21 GMT-0500 (Central Daylight Time),930226.5999999046,A,butt,I,t,130,3,12945.89999961853,917280.7000002861,8018,WL,A,11.0
7,59.914000034332275,immed,85.99996566772461,Thu Oct 23 2025 18:44:21 GMT-0500 (Central Daylight Time),930826.5,A,butto,I,o,587,3,13545.799999713898,917280.7000002861,8018,WL,A,11.0
7,60.01400017738342,immed,-14.000177383422852,Thu Oct 23 2025 18:44:21 GMT-0500 (Central Daylight Time),930926.4000000954,A,buttoNone,I,None,95,3,13645.699999809265,917280.7000002861,8018,WL,A,11.0
