block_c,block_dur,condition,countdown,datetime,endtime,list,multichar_response,project,response,response_time,session_number,start_end,starttime,subject_id,task,task_vers,trial
,,,,Tue May 20 2025 18:54:48 GMT-0500 (Central Daylight Time),,,,I,space,414,2,,,8018,WL,C,
prac,,0,,Tue May 20 2025 18:54:48 GMT-0500 (Central Daylight Time),,NA,b,I,b,10731,2,,,8018,WL,C,1.0
prac,,0,,Tue May 20 2025 18:54:48 GMT-0500 (Central Daylight Time),,NA,bo,I,o,1186,2,,,8018,WL,C,1.0
prac,,0,,Tue May 20 2025 18:54:48 GMT-0500 (Central Daylight Time),,NA,boo,I,o,196,2,,,8018,WL,C,1.0
prac,,0,,Tue May 20 2025 18:54:48 GMT-0500 (Central Daylight Time),,NA,boos,I,s,747,2,,,8018,WL,C,1.0
prac,,0,,Tue May 20 2025 18:54:48 GMT-0500 (Central Daylight Time),,NA,boost,I,t,605,2,,,8018,WL,C,1.0
prac,,0,,Tue May 20 2025 18:54:48 GMT-0500 (Central Daylight Time),,NA,boostenter,I,enter,1117,2,,,8018,WL,C,1.0
1,1.8990001678466797,learn,58100.99983215332,Tue May 20 2025 18:54:48 GMT-0500 (Central Daylight Time),146162.29999995232,A,b,I,b,1894,2,1899.0999999046326,144263.20000004768,8018,WL,C,1.0
1,2.4160001277923584,learn,57583.99987220764,Tue May 20 2025 18:54:48 GMT-0500 (Central Daylight Time),146679.0,A,bo,I,o,506,2,2415.7999999523163,144263.20000004768,8018,WL,C,1.0
1,3.365000009536743,learn,56634.99999046326,Tue May 20 2025 18:54:48 GMT-0500 (Central Daylight Time),147628.39999997616,A,boy,I,y,933,2,3365.1999999284744,144263.20000004768,8018,WL,C,1.0
1,4.698000192642212,learn,55301.99980735779,Tue May 20 2025 18:54:48 GMT-0500 (Central Daylight Time),148961.29999995232,A,boyenter,I,enter,1311,2,4698.099999904633,144263.20000004768,8018,WL,C,1.0
1,6.147000074386597,learn,53852.9999256134,Tue May 20 2025 18:54:48 GMT-0500 (Central Daylight Time),150410.60000002384,A,t,I,t,1443,2,1448.8000000715256,148961.79999995232,8018,WL,C,2.0
1,6.764000177383423,learn,53235.99982261658,Tue May 20 2025 18:54:48 GMT-0500 (Central Daylight Time),151027.29999995232,A,to,I,o,610,2,2065.5,148961.79999995232,8018,WL,C,2.0
1,7.414000034332275,learn,52585.999965667725,Tue May 20 2025 18:54:48 GMT-0500 (Central Daylight Time),151677.20000004768,A,tow,I,w,633,2,2715.4000000953674,148961.79999995232,8018,WL,C,2.0
1,7.664000034332275,learn,52335.999965667725,Tue May 20 2025 18:54:48 GMT-0500 (Central Daylight Time),151927.20000004768,A,towe,I,e,239,2,2965.4000000953674,148961.79999995232,8018,WL,C,2.0
1,8.047000169754028,learn,51952.99983024597,Tue May 20 2025 18:54:48 GMT-0500 (Central Daylight Time),152310.20000004768,A,tower,I,r,374,2,3348.4000000953674,148961.79999995232,8018,WL,C,2.0
1,9.080000162124634,learn,50919.999837875366,Tue May 20 2025 18:54:48 GMT-0500 (Central Daylight Time),153343.20000004768,A,towerenter,I,enter,1023,2,4381.400000095367,148961.79999995232,8018,WL,C,2.0
1,10.013000011444092,learn,49986.99998855591,Tue May 20 2025 18:54:48 GMT-0500 (Central Daylight Time),154276.29999995232,A,w,I,w,925,2,932.6999999284744,153343.60000002384,8018,WL,C,3.0
1,10.396000146865845,learn,49603.999853134155,Tue May 20 2025 18:54:48 GMT-0500 (Central Daylight Time),154659.29999995232,A,wh,I,h,376,2,1315.6999999284744,153343.60000002384,8018,WL,C,3.0
1,10.86300015449524,learn,49136.99984550476,Tue May 20 2025 18:54:48 GMT-0500 (Central Daylight Time),155125.79999995232,A,whe,I,e,457,2,1782.1999999284744,153343.60000002384,8018,WL,C,3.0
1,11.279000043869019,learn,48720.99995613098,Tue May 20 2025 18:54:48 GMT-0500 (Central Daylight Time),155542.60000002384,A,whea,I,a,407,2,2199.0,153343.60000002384,8018,WL,C,3.0
1,11.879000186920166,learn,48120.999813079834,Tue May 20 2025 18:54:48 GMT-0500 (Central Daylight Time),156142.29999995232,A,wheat,I,t,590,2,2798.6999999284744,153343.60000002384,8018,WL,C,3.0
1,12.84600019454956,learn,47153.99980545044,Tue May 20 2025 18:54:48 GMT-0500 (Central Daylight Time),157108.79999995232,A,wheatenter,I,enter,950,2,3765.1999999284744,153343.60000002384,8018,WL,C,3.0
1,13.662000179290771,learn,46337.99982070923,Tue May 20 2025 18:54:48 GMT-0500 (Central Daylight Time),157925.20000004768,A,s,I,s,800,2,816.1000000238419,157109.10000002384,8018,WL,C,4.0
1,14.062000036239624,learn,45937.999963760376,Tue May 20 2025 18:54:48 GMT-0500 (Central Daylight Time),158325.20000004768,A,sh,I,h,383,2,1216.1000000238419,157109.10000002384,8018,WL,C,4.0
1,14.59500002861023,learn,45404.99997138977,Tue May 20 2025 18:54:48 GMT-0500 (Central Daylight Time),158858.5,A,sho,I,o,512,2,1749.3999999761581,157109.10000002384,8018,WL,C,4.0
1,15.162000179290771,learn,44837.99982070923,Tue May 20 2025 18:54:48 GMT-0500 (Central Daylight Time),159424.79999995232,A,shor,I,r,547,2,2315.6999999284744,157109.10000002384,8018,WL,C,4.0
1,15.545000076293945,learn,44454.999923706055,Tue May 20 2025 18:54:48 GMT-0500 (Central Daylight Time),159808.0,A,shore,I,e,364,2,2698.899999976158,157109.10000002384,8018,WL,C,4.0
1,16.628000020980835,learn,43371.999979019165,Tue May 20 2025 18:54:48 GMT-0500 (Central Daylight Time),160891.10000002384,A,shoreenter,I,enter,1069,2,3782.0,157109.10000002384,8018,WL,C,4.0
1,17.41100001335144,learn,42588.99998664856,Tue May 20 2025 18:54:48 GMT-0500 (Central Daylight Time),161674.10000002384,A,b,I,b,777,2,782.6000000238419,160891.5,8018,WL,C,5.0
1,17.861000061035156,learn,42138.999938964844,Tue May 20 2025 18:54:48 GMT-0500 (Central Daylight Time),162123.89999997616,A,bo,I,o,435,2,1232.3999999761581,160891.5,8018,WL,C,5.0
1,18.594000101089478,learn,41405.99989891052,Tue May 20 2025 18:54:48 GMT-0500 (Central Daylight Time),162856.89999997616,A,bod,I,d,712,2,1965.3999999761581,160891.5,8018,WL,C,5.0
1,19.3270001411438,learn,40672.9998588562,Tue May 20 2025 18:54:48 GMT-0500 (Central Daylight Time),163590.0,A,body,I,y,724,2,2698.5,160891.5,8018,WL,C,5.0
1,20.66000008583069,learn,39339.99991416931,Tue May 20 2025 18:54:48 GMT-0500 (Central Daylight Time),164922.89999997616,A,bodyenter,I,enter,1319,2,4031.399999976158,160891.5,8018,WL,C,5.0
1,27.124000072479248,learn,32875.99992752075,Tue May 20 2025 18:54:48 GMT-0500 (Central Daylight Time),171387.60000002384,A,s,I,s,6449,2,6464.300000071526,164923.29999995232,8018,WL,C,6.0
1,27.591000080108643,learn,32408.999919891357,Tue May 20 2025 18:54:48 GMT-0500 (Central Daylight Time),171854.10000002384,A,su,I,u,449,2,6930.800000071526,164923.29999995232,8018,WL,C,6.0
1,28.10700011253357,learn,31892.99988746643,Tue May 20 2025 18:54:48 GMT-0500 (Central Daylight Time),172370.5,A,sug,I,g,511,2,7447.200000047684,164923.29999995232,8018,WL,C,6.0
1,28.457000017166138,learn,31542.999982833862,Tue May 20 2025 18:54:48 GMT-0500 (Central Daylight Time),172720.70000004768,A,suga,I,a,331,2,7797.400000095367,164923.29999995232,8018,WL,C,6.0
1,28.77400016784668,learn,31225.99983215332,Tue May 20 2025 18:54:48 GMT-0500 (Central Daylight Time),173037.10000002384,A,sugar,I,r,308,2,8113.800000071526,164923.29999995232,8018,WL,C,6.0
1,29.92300009727478,learn,30076.99990272522,Tue May 20 2025 18:54:48 GMT-0500 (Central Daylight Time),174186.5,A,sugarenter,I,enter,1144,2,9263.200000047684,164923.29999995232,8018,WL,C,6.0
1,33.40500020980835,learn,26594.99979019165,Tue May 20 2025 18:54:48 GMT-0500 (Central Daylight Time),177669.0,A,w,I,w,3475,2,3482.2000000476837,174186.79999995232,8018,WL,C,7.0
1,33.72200012207031,learn,26277.999877929688,Tue May 20 2025 18:54:48 GMT-0500 (Central Daylight Time),177986.39999997616,A,wh,I,h,311,2,3799.600000023842,174186.79999995232,8018,WL,C,7.0
1,34.13800001144409,learn,25861.99998855591,Tue May 20 2025 18:54:48 GMT-0500 (Central Daylight Time),178402.10000002384,A,whe,I,e,394,2,4215.300000071526,174186.79999995232,8018,WL,C,7.0
1,34.604000091552734,learn,25395.999908447266,Tue May 20 2025 18:54:48 GMT-0500 (Central Daylight Time),178868.5,A,whea,I,a,459,2,4681.700000047684,174186.79999995232,8018,WL,C,7.0
1,34.98800015449524,learn,25011.99984550476,Tue May 20 2025 18:54:48 GMT-0500 (Central Daylight Time),179251.89999997616,A,wheat,I,t,377,2,5065.100000023842,174186.79999995232,8018,WL,C,7.0
1,35.88700008392334,learn,24112.99991607666,Tue May 20 2025 18:54:48 GMT-0500 (Central Daylight Time),180151.60000002384,A,wheatenter,I,enter,889,2,5964.800000071526,174186.79999995232,8018,WL,C,7.0
1,38.087000131607056,learn,21912.999868392944,Tue May 20 2025 18:54:48 GMT-0500 (Central Daylight Time),182351.0,A,c,I,c,2181,2,2199.100000023842,180151.89999997616,8018,WL,C,8.0
1,38.37000012397766,learn,21629.99987602234,Tue May 20 2025 18:54:48 GMT-0500 (Central Daylight Time),182634.20000004768,A,co,I,o,262,2,2482.3000000715256,180151.89999997616,8018,WL,C,8.0
1,38.85300016403198,learn,21146.999835968018,Tue May 20 2025 18:54:48 GMT-0500 (Central Daylight Time),183117.29999995232,A,cor,I,r,475,2,2965.399999976158,180151.89999997616,8018,WL,C,8.0
1,39.30299997329712,learn,20697.00002670288,Tue May 20 2025 18:54:48 GMT-0500 (Central Daylight Time),183567.10000002384,A,corn,I,n,440,2,3415.2000000476837,180151.89999997616,8018,WL,C,8.0
1,39.97000002861023,learn,20029.99997138977,Tue May 20 2025 18:54:48 GMT-0500 (Central Daylight Time),184233.70000004768,A,cornenter,I,enter,646,2,4081.8000000715256,180151.89999997616,8018,WL,C,8.0
1,49.532999992370605,learn,10467.000007629395,Tue May 20 2025 18:54:48 GMT-0500 (Central Daylight Time),193797.10000002384,A,c,I,c,9547,2,9562.899999976158,184234.20000004768,8018,WL,C,9.0
1,53.182000160217285,learn,6817.999839782715,Tue May 20 2025 18:54:48 GMT-0500 (Central Daylight Time),197446.10000002384,A,,I,backspace,3640,2,13211.899999976158,184234.20000004768,8018,WL,C,9.0
1,56.38100004196167,learn,3618.99995803833,Tue May 20 2025 18:54:48 GMT-0500 (Central Daylight Time),200645.0,A,n,I,n,3183,2,16410.799999952316,184234.20000004768,8018,WL,C,9.0
1,56.71399998664856,learn,3286.0000133514404,Tue May 20 2025 18:54:48 GMT-0500 (Central Daylight Time),200978.29999995232,A,na,I,a,320,2,16744.099999904633,184234.20000004768,8018,WL,C,9.0
1,57.29700016975403,learn,2702.9998302459717,Tue May 20 2025 18:54:48 GMT-0500 (Central Daylight Time),201561.5,A,nai,I,i,571,2,17327.299999952316,184234.20000004768,8018,WL,C,9.0
1,57.84700012207031,learn,2152.9998779296875,Tue May 20 2025 18:54:48 GMT-0500 (Central Daylight Time),202111.29999995232,A,nail,I,l,532,2,17877.099999904633,184234.20000004768,8018,WL,C,9.0
1,58.996999979019165,learn,1003.000020980835,Tue May 20 2025 18:54:48 GMT-0500 (Central Daylight Time),203261.0,A,nailenter,I,enter,1134,2,19026.799999952316,184234.20000004768,8018,WL,C,9.0
1,60.01300001144409,learn,-13.000011444091797,Tue May 20 2025 18:54:48 GMT-0500 (Central Daylight Time),204277.29999995232,A,None,I,None,1011,2,1015.8999999761581,203261.39999997616,8018,WL,C,10.0
2,1.4500000476837158,learn,58549.999952316284,Tue May 20 2025 18:54:48 GMT-0500 (Central Daylight Time),287384.7000000477,A,t,I,t,1431,2,1449.4000000953674,285935.2999999523,8018,WL,C,1.0
2,2.1660001277923584,learn,57833.99987220764,Tue May 20 2025 18:54:48 GMT-0500 (Central Daylight Time),288100.7999999523,A,to,I,o,700,2,2165.5,285935.2999999523,8018,WL,C,1.0
2,2.949000120162964,learn,57050.999879837036,Tue May 20 2025 18:54:48 GMT-0500 (Central Daylight Time),288883.89999997616,A,tow,I,w,768,2,2948.600000023842,285935.2999999523,8018,WL,C,1.0
2,3.2160000801086426,learn,56783.99991989136,Tue May 20 2025 18:54:48 GMT-0500 (Central Daylight Time),289150.7999999523,A,towe,I,e,249,2,3215.5,285935.2999999523,8018,WL,C,1.0
2,3.5989999771118164,learn,56401.00002288818,Tue May 20 2025 18:54:48 GMT-0500 (Central Daylight Time),289533.89999997616,A,tower,I,r,375,2,3598.600000023842,285935.2999999523,8018,WL,C,1.0
2,5.181999921798706,learn,54818.000078201294,Tue May 20 2025 18:54:48 GMT-0500 (Central Daylight Time),291116.7000000477,A,towerenter,I,enter,1568,2,5181.400000095367,285935.2999999523,8018,WL,C,1.0
2,10.19700002670288,learn,49802.99997329712,Tue May 20 2025 18:54:48 GMT-0500 (Central Daylight Time),296131.7999999523,A,q,I,q,5001,2,5014.799999952316,291117.0,8018,WL,C,2.0
2,10.578999996185303,learn,49421.0000038147,Tue May 20 2025 18:54:48 GMT-0500 (Central Daylight Time),296514.7000000477,A,qu,I,u,378,2,5397.700000047684,291117.0,8018,WL,C,2.0
2,11.128999948501587,learn,48871.00005149841,Tue May 20 2025 18:54:48 GMT-0500 (Central Daylight Time),297064.7000000477,A,que,I,e,539,2,5947.700000047684,291117.0,8018,WL,C,2.0
2,11.345999956130981,learn,48654.00004386902,Tue May 20 2025 18:54:48 GMT-0500 (Central Daylight Time),297281.5,A,quee,I,e,196,2,6164.5,291117.0,8018,WL,C,2.0
2,12.196000099182129,learn,47803.99990081787,Tue May 20 2025 18:54:48 GMT-0500 (Central Daylight Time),298131.2999999523,A,queen,I,n,836,2,7014.299999952316,291117.0,8018,WL,C,2.0
2,13.245000123977661,learn,46754.99987602234,Tue May 20 2025 18:54:48 GMT-0500 (Central Daylight Time),299180.89999997616,A,queenenter,I,enter,1034,2,8063.899999976158,291117.0,8018,WL,C,2.0
2,13.92799997329712,learn,46072.00002670288,Tue May 20 2025 18:54:48 GMT-0500 (Central Daylight Time),299863.89999997616,A,s,I,s,664,2,682.6999999284744,299181.2000000477,8018,WL,C,3.0
2,14.34500002861023,learn,45654.99997138977,Tue May 20 2025 18:54:48 GMT-0500 (Central Daylight Time),300280.7999999523,A,su,I,u,405,2,1099.5999999046326,299181.2000000477,8018,WL,C,3.0
2,14.811000108718872,learn,45188.99989128113,Tue May 20 2025 18:54:48 GMT-0500 (Central Daylight Time),300746.7999999523,A,sug,I,g,461,2,1565.5999999046326,299181.2000000477,8018,WL,C,3.0
2,15.09500002861023,learn,44904.99997138977,Tue May 20 2025 18:54:48 GMT-0500 (Central Daylight Time),301030.2000000477,A,suga,I,a,267,2,1849.0,299181.2000000477,8018,WL,C,3.0
2,15.495000123977661,learn,44504.99987602234,Tue May 20 2025 18:54:48 GMT-0500 (Central Daylight Time),301430.2000000477,A,sugar,I,r,391,2,2249.0,299181.2000000477,8018,WL,C,3.0
2,16.57800006866455,learn,43421.99993133545,Tue May 20 2025 18:54:48 GMT-0500 (Central Daylight Time),302513.89999997616,A,sugarenter,I,enter,1079,2,3332.6999999284744,299181.2000000477,8018,WL,C,3.0
2,17.39400005340576,learn,42605.99994659424,Tue May 20 2025 18:54:48 GMT-0500 (Central Daylight Time),303329.89999997616,A,c,I,c,802,2,815.6000000238419,302514.2999999523,8018,WL,C,4.0
2,17.74399995803833,learn,42256.00004196167,Tue May 20 2025 18:54:48 GMT-0500 (Central Daylight Time),303679.39999997616,A,co,I,o,331,2,1165.1000000238419,302514.2999999523,8018,WL,C,4.0
2,18.22699999809265,learn,41773.00000190735,Tue May 20 2025 18:54:48 GMT-0500 (Central Daylight Time),304162.5,A,cor,I,r,478,2,1648.2000000476837,302514.2999999523,8018,WL,C,4.0
2,19.042999982833862,learn,40957.00001716614,Tue May 20 2025 18:54:48 GMT-0500 (Central Daylight Time),304978.7999999523,A,corn,I,n,811,2,2464.5,302514.2999999523,8018,WL,C,4.0
2,20.193000078201294,learn,39806.999921798706,Tue May 20 2025 18:54:48 GMT-0500 (Central Daylight Time),306128.7999999523,A,cornenter,I,enter,1139,2,3614.5,302514.2999999523,8018,WL,C,4.0
2,20.993000030517578,learn,39006.99996948242,Tue May 20 2025 18:54:48 GMT-0500 (Central Daylight Time),306928.5,A,b,I,b,781,2,799.5,306129.0,8018,WL,C,5.0
2,21.572999954223633,learn,38427.00004577637,Tue May 20 2025 18:54:48 GMT-0500 (Central Daylight Time),307508.10000002384,A,bo,I,o,575,2,1379.1000000238419,306129.0,8018,WL,C,5.0
2,22.042999982833862,learn,37957.00001716614,Tue May 20 2025 18:54:48 GMT-0500 (Central Daylight Time),307978.2000000477,A,boy,I,y,449,2,1849.2000000476837,306129.0,8018,WL,C,5.0
2,22.79200005531311,learn,37207.99994468689,Tue May 20 2025 18:54:48 GMT-0500 (Central Daylight Time),308728.0,A,boyenter,I,enter,739,2,2599.0,306129.0,8018,WL,C,5.0
2,23.757999897003174,learn,36242.000102996826,Tue May 20 2025 18:54:48 GMT-0500 (Central Daylight Time),309694.10000002384,A,d,I,d,957,2,965.8000000715256,308728.2999999523,8018,WL,C,6.0
2,24.05900001525879,learn,35940.99998474121,Tue May 20 2025 18:54:48 GMT-0500 (Central Daylight Time),309994.2000000477,A,do,I,o,295,2,1265.9000000953674,308728.2999999523,8018,WL,C,6.0
2,24.592000007629395,learn,35407.999992370605,Tue May 20 2025 18:54:48 GMT-0500 (Central Daylight Time),310527.2000000477,A,doc,I,c,523,2,1798.9000000953674,308728.2999999523,8018,WL,C,6.0
2,25.075000047683716,learn,34924.999952316284,Tue May 20 2025 18:54:48 GMT-0500 (Central Daylight Time),311010.2999999523,A,doct,I,t,478,2,2282.0,308728.2999999523,8018,WL,C,6.0
2,25.674000024795532,learn,34325.99997520447,Tue May 20 2025 18:54:48 GMT-0500 (Central Daylight Time),311610.0,A,docto,I,o,587,2,2881.7000000476837,308728.2999999523,8018,WL,C,6.0
2,26.341000080108643,learn,33658.99991989136,Tue May 20 2025 18:54:48 GMT-0500 (Central Daylight Time),312276.7999999523,A,doctor,I,r,659,2,3548.5,308728.2999999523,8018,WL,C,6.0
2,27.907000064849854,learn,32092.999935150146,Tue May 20 2025 18:54:48 GMT-0500 (Central Daylight Time),313842.7000000477,A,doctorenter,I,enter,1560,2,5114.400000095367,308728.2999999523,8018,WL,C,6.0
2,28.957000017166138,learn,31042.999982833862,Tue May 20 2025 18:54:48 GMT-0500 (Central Daylight Time),314892.7000000477,A,n,I,n,1035,2,1049.7000000476837,313843.0,8018,WL,C,7.0
2,29.33999991416931,learn,30660.00008583069,Tue May 20 2025 18:54:48 GMT-0500 (Central Daylight Time),315275.7000000477,A,na,I,a,369,2,1432.7000000476837,313843.0,8018,WL,C,7.0
2,29.740000009536743,learn,30259.999990463257,Tue May 20 2025 18:54:48 GMT-0500 (Central Daylight Time),315675.7999999523,A,nai,I,i,386,2,1832.7999999523163,313843.0,8018,WL,C,7.0
2,30.306999921798706,learn,29693.000078201294,Tue May 20 2025 18:54:48 GMT-0500 (Central Daylight Time),316242.2999999523,A,nail,I,l,545,2,2399.2999999523163,313843.0,8018,WL,C,7.0
2,31.572999954223633,learn,28427.000045776367,Tue May 20 2025 18:54:48 GMT-0500 (Central Daylight Time),317508.2000000477,A,nailenter,I,enter,1259,2,3665.2000000476837,313843.0,8018,WL,C,7.0
2,32.40599989891052,learn,27594.000101089478,Tue May 20 2025 18:54:48 GMT-0500 (Central Daylight Time),318341.5,A,c,I,c,817,2,833.0,317508.5,8018,WL,C,8.0
2,32.75600004196167,learn,27243.99995803833,Tue May 20 2025 18:54:48 GMT-0500 (Central Daylight Time),318691.39999997616,A,ca,I,a,343,2,1182.8999999761581,317508.5,8018,WL,C,8.0
2,34.0220000743866,learn,25977.999925613403,Tue May 20 2025 18:54:48 GMT-0500 (Central Daylight Time),319958.0,A,cam,I,m,1249,2,2449.5,317508.5,8018,WL,C,8.0
2,34.539000034332275,learn,25460.999965667725,Tue May 20 2025 18:54:48 GMT-0500 (Central Daylight Time),320474.39999997616,A,camp,I,p,495,2,2965.899999976158,317508.5,8018,WL,C,8.0
2,35.954999923706055,learn,24045.000076293945,Tue May 20 2025 18:54:48 GMT-0500 (Central Daylight Time),321890.5,A,campenter,I,enter,1395,2,4382.0,317508.5,8018,WL,C,8.0
2,36.87100005149841,learn,23128.999948501587,Tue May 20 2025 18:54:48 GMT-0500 (Central Daylight Time),322806.89999997616,A,s,I,s,899,2,916.0,321890.89999997616,8018,WL,C,9.0
2,37.22099995613098,learn,22779.00004386902,Tue May 20 2025 18:54:48 GMT-0500 (Central Daylight Time),323156.60000002384,A,sh,I,h,343,2,1265.7000000476837,321890.89999997616,8018,WL,C,9.0
2,37.770999908447266,learn,22229.000091552734,Tue May 20 2025 18:54:48 GMT-0500 (Central Daylight Time),323706.5,A,sho,I,o,537,2,1815.6000000238419,321890.89999997616,8018,WL,C,9.0
2,38.72099995613098,learn,21279.00004386902,Tue May 20 2025 18:54:48 GMT-0500 (Central Daylight Time),324656.2999999523,A,shor,I,r,939,2,2765.399999976158,321890.89999997616,8018,WL,C,9.0
2,39.03699994087219,learn,20963.000059127808,Tue May 20 2025 18:54:48 GMT-0500 (Central Daylight Time),324972.89999997616,A,shore,I,e,301,2,3082.0,321890.89999997616,8018,WL,C,9.0
2,40.503000020980835,learn,19496.999979019165,Tue May 20 2025 18:54:48 GMT-0500 (Central Daylight Time),326439.0,A,shoreenter,I,enter,1448,2,4548.100000023842,321890.89999997616,8018,WL,C,9.0
2,45.31100010871887,learn,14688.999891281128,Tue May 20 2025 18:54:48 GMT-0500 (Central Daylight Time),331246.7999999523,A,l,I,l,4656,2,4807.599999904633,326439.2000000477,8018,WL,C,10.0
2,45.63499999046326,learn,14365.000009536743,Tue May 20 2025 18:54:48 GMT-0500 (Central Daylight Time),331570.5,A,le,I,e,318,2,5131.299999952316,326439.2000000477,8018,WL,C,10.0
2,46.13499999046326,learn,13865.000009536743,Tue May 20 2025 18:54:48 GMT-0500 (Central Daylight Time),332070.60000002384,A,let,I,t,491,2,5631.399999976158,326439.2000000477,8018,WL,C,10.0
2,46.33500003814697,learn,13664.999961853027,Tue May 20 2025 18:54:48 GMT-0500 (Central Daylight Time),332270.7000000477,A,lett,I,t,183,2,5831.5,326439.2000000477,8018,WL,C,10.0
2,46.78500008583069,learn,13214.999914169312,Tue May 20 2025 18:54:48 GMT-0500 (Central Daylight Time),332720.2999999523,A,lette,I,e,439,2,6281.099999904633,326439.2000000477,8018,WL,C,10.0
2,47.051000118255615,learn,12948.999881744385,Tue May 20 2025 18:54:48 GMT-0500 (Central Daylight Time),332987.0,A,letter,I,r,253,2,6547.799999952316,326439.2000000477,8018,WL,C,10.0
2,48.651000022888184,learn,11348.999977111816,Tue May 20 2025 18:54:48 GMT-0500 (Central Daylight Time),334586.2999999523,A,letterenter,I,enter,1594,2,8147.099999904633,326439.2000000477,8018,WL,C,10.0
2,50.15000009536743,learn,9849.999904632568,Tue May 20 2025 18:54:48 GMT-0500 (Central Daylight Time),336086.0,A,f,I,f,1483,2,1499.2999999523163,334586.7000000477,8018,WL,C,11.0
2,50.634000062942505,learn,9365.999937057495,Tue May 20 2025 18:54:48 GMT-0500 (Central Daylight Time),336569.2000000477,A,fl,I,l,471,2,1982.5,334586.7000000477,8018,WL,C,11.0
2,51.049999952316284,learn,8950.000047683716,Tue May 20 2025 18:54:48 GMT-0500 (Central Daylight Time),336985.60000002384,A,fla,I,a,395,2,2398.899999976158,334586.7000000477,8018,WL,C,11.0
2,51.450000047683716,learn,8549.999952316284,Tue May 20 2025 18:54:48 GMT-0500 (Central Daylight Time),337385.60000002384,A,flag,I,g,388,2,2798.899999976158,334586.7000000477,8018,WL,C,11.0
2,52.34999990463257,learn,7650.000095367432,Tue May 20 2025 18:54:48 GMT-0500 (Central Daylight Time),338285.2999999523,A,flagenter,I,enter,884,2,3698.5999999046326,334586.7000000477,8018,WL,C,11.0
2,55.3989999294281,learn,4601.000070571899,Tue May 20 2025 18:54:48 GMT-0500 (Central Daylight Time),341334.2999999523,A,b,I,b,3040,2,3048.6999999284744,338285.60000002384,8018,WL,C,12.0
2,55.848999977111816,learn,4151.000022888184,Tue May 20 2025 18:54:48 GMT-0500 (Central Daylight Time),341784.2000000477,A,bo,I,o,439,2,3498.600000023842,338285.60000002384,8018,WL,C,12.0
2,56.46499991416931,learn,3535.0000858306885,Tue May 20 2025 18:54:48 GMT-0500 (Central Daylight Time),342400.7999999523,A,bod,I,d,605,2,4115.199999928474,338285.60000002384,8018,WL,C,12.0
2,57.06500005722046,learn,2934.999942779541,Tue May 20 2025 18:54:48 GMT-0500 (Central Daylight Time),343000.2999999523,A,body,I,y,580,2,4714.699999928474,338285.60000002384,8018,WL,C,12.0
2,57.91499996185303,learn,2085.0000381469727,Tue May 20 2025 18:54:48 GMT-0500 (Central Daylight Time),343850.2000000477,A,bodyenter,I,enter,845,2,5564.600000023842,338285.60000002384,8018,WL,C,12.0
2,60.013999938964844,learn,-13.99993896484375,Tue May 20 2025 18:54:48 GMT-0500 (Central Daylight Time),345949.5,A,None,I,None,2094,2,2099.0,343850.5,8018,WL,C,13.0
3,1.2989997863769531,learn,58701.00021362305,Tue May 20 2025 18:54:48 GMT-0500 (Central Daylight Time),417810.39999997616,A,t,I,t,1279,2,1299.3999999761581,416511.0,8018,WL,C,1.0
3,1.9149999618530273,learn,58085.00003814697,Tue May 20 2025 18:54:48 GMT-0500 (Central Daylight Time),418426.7000000477,A,to,I,o,610,2,1915.7000000476837,416511.0,8018,WL,C,1.0
3,2.56499981880188,learn,57435.00018119812,Tue May 20 2025 18:54:48 GMT-0500 (Central Daylight Time),419076.5,A,tow,I,w,643,2,2565.5,416511.0,8018,WL,C,1.0
3,2.798999786376953,learn,57201.00021362305,Tue May 20 2025 18:54:48 GMT-0500 (Central Daylight Time),419310.10000002384,A,towe,I,e,216,2,2799.100000023842,416511.0,8018,WL,C,1.0
3,3.2319998741149902,learn,56768.00012588501,Tue May 20 2025 18:54:48 GMT-0500 (Central Daylight Time),419743.0,A,tower,I,r,423,2,3232.0,416511.0,8018,WL,C,1.0
3,4.014999866485596,learn,55985.000133514404,Tue May 20 2025 18:54:48 GMT-0500 (Central Daylight Time),420526.2999999523,A,towerenter,I,enter,774,2,4015.2999999523163,416511.0,8018,WL,C,1.0
3,5.247999906539917,learn,54752.00009346008,Tue May 20 2025 18:54:48 GMT-0500 (Central Daylight Time),421759.0,A,w,I,w,1215,2,1232.5,420526.5,8018,WL,C,2.0
3,5.630999803543091,learn,54369.00019645691,Tue May 20 2025 18:54:48 GMT-0500 (Central Daylight Time),422142.0,A,wh,I,h,374,2,1615.5,420526.5,8018,WL,C,2.0
3,6.0309998989105225,learn,53969.00010108948,Tue May 20 2025 18:54:48 GMT-0500 (Central Daylight Time),422542.2000000477,A,whe,I,e,391,2,2015.7000000476837,420526.5,8018,WL,C,2.0
3,6.513999938964844,learn,53486.000061035156,Tue May 20 2025 18:54:48 GMT-0500 (Central Daylight Time),423025.0,A,whea,I,a,462,2,2498.5,420526.5,8018,WL,C,2.0
3,6.896999835968018,learn,53103.00016403198,Tue May 20 2025 18:54:48 GMT-0500 (Central Daylight Time),423408.60000002384,A,wheat,I,t,372,2,2882.100000023842,420526.5,8018,WL,C,2.0
3,7.946999788284302,learn,52053.0002117157,Tue May 20 2025 18:54:48 GMT-0500 (Central Daylight Time),424458.2999999523,A,wheatenter,I,enter,1029,2,3931.7999999523163,420526.5,8018,WL,C,2.0
3,8.679999828338623,learn,51320.00017166138,Tue May 20 2025 18:54:48 GMT-0500 (Central Daylight Time),425191.39999997616,A,q,I,q,715,2,732.8999999761581,424458.5,8018,WL,C,3.0
3,9.129999876022339,learn,50870.00012397766,Tue May 20 2025 18:54:48 GMT-0500 (Central Daylight Time),425641.60000002384,A,qu,I,u,445,2,1183.1000000238419,424458.5,8018,WL,C,3.0
3,9.662999868392944,learn,50337.000131607056,Tue May 20 2025 18:54:48 GMT-0500 (Central Daylight Time),426174.39999997616,A,que,I,e,516,2,1715.8999999761581,424458.5,8018,WL,C,3.0
3,9.846999883651733,learn,50153.00011634827,Tue May 20 2025 18:54:48 GMT-0500 (Central Daylight Time),426357.7000000477,A,quee,I,e,175,2,1899.2000000476837,424458.5,8018,WL,C,3.0
3,10.662999868392944,learn,49337.000131607056,Tue May 20 2025 18:54:48 GMT-0500 (Central Daylight Time),427174.2999999523,A,queen,I,n,808,2,2715.7999999523163,424458.5,8018,WL,C,3.0
3,11.86299991607666,learn,48137.00008392334,Tue May 20 2025 18:54:48 GMT-0500 (Central Daylight Time),428373.7999999523,A,queenenter,I,enter,1183,2,3915.2999999523163,424458.5,8018,WL,C,3.0
3,12.895999908447266,learn,47104.000091552734,Tue May 20 2025 18:54:48 GMT-0500 (Central Daylight Time),429406.89999997616,A,b,I,b,1023,2,1032.6999999284744,428374.2000000477,8018,WL,C,4.0
3,13.461999893188477,learn,46538.00010681152,Tue May 20 2025 18:54:48 GMT-0500 (Central Daylight Time),429973.2000000477,A,bo,I,o,558,2,1599.0,428374.2000000477,8018,WL,C,4.0
3,14.044999837875366,learn,45955.000162124634,Tue May 20 2025 18:54:48 GMT-0500 (Central Daylight Time),430556.2000000477,A,boy,I,y,576,2,2182.0,428374.2000000477,8018,WL,C,4.0
3,14.861999988555908,learn,45138.00001144409,Tue May 20 2025 18:54:48 GMT-0500 (Central Daylight Time),431372.7999999523,A,boyenter,I,enter,801,2,2998.5999999046326,428374.2000000477,8018,WL,C,4.0
3,15.777999877929688,learn,44222.00012207031,Tue May 20 2025 18:54:48 GMT-0500 (Central Daylight Time),432289.10000002384,A,d,I,d,897,2,916.0,431373.10000002384,8018,WL,C,5.0
3,16.111999988555908,learn,43888.00001144409,Tue May 20 2025 18:54:48 GMT-0500 (Central Daylight Time),432623.5,A,do,I,o,316,2,1250.3999999761581,431373.10000002384,8018,WL,C,5.0
3,16.694000005722046,learn,43305.999994277954,Tue May 20 2025 18:54:48 GMT-0500 (Central Daylight Time),433205.60000002384,A,doc,I,c,566,2,1832.5,431373.10000002384,8018,WL,C,5.0
3,17.0939998626709,learn,42906.0001373291,Tue May 20 2025 18:54:48 GMT-0500 (Central Daylight Time),433605.39999997616,A,doct,I,t,384,2,2232.2999999523163,431373.10000002384,8018,WL,C,5.0
3,17.643999814987183,learn,42356.00018501282,Tue May 20 2025 18:54:48 GMT-0500 (Central Daylight Time),434155.10000002384,A,docto,I,o,536,2,2782.0,431373.10000002384,8018,WL,C,5.0
3,18.0939998626709,learn,41906.0001373291,Tue May 20 2025 18:54:48 GMT-0500 (Central Daylight Time),434605.10000002384,A,doctor,I,r,434,2,3232.0,431373.10000002384,8018,WL,C,5.0
3,19.15999984741211,learn,40840.00015258789,Tue May 20 2025 18:54:48 GMT-0500 (Central Daylight Time),435671.39999997616,A,doctorenter,I,enter,1048,2,4298.299999952316,431373.10000002384,8018,WL,C,5.0
3,20.026999950408936,learn,39973.000049591064,Tue May 20 2025 18:54:48 GMT-0500 (Central Daylight Time),436537.89999997616,A,n,I,n,846,2,866.1999999284744,435671.7000000477,8018,WL,C,6.0
3,20.376999855041504,learn,39623.000144958496,Tue May 20 2025 18:54:48 GMT-0500 (Central Daylight Time),436888.0,A,na,I,a,340,2,1216.2999999523163,435671.7000000477,8018,WL,C,6.0
3,20.759999990463257,learn,39240.00000953674,Tue May 20 2025 18:54:48 GMT-0500 (Central Daylight Time),437270.89999997616,A,nai,I,i,365,2,1599.1999999284744,435671.7000000477,8018,WL,C,6.0
3,21.242999792099,learn,38757.000207901,Tue May 20 2025 18:54:48 GMT-0500 (Central Daylight Time),437753.89999997616,A,nail,I,l,463,2,2082.1999999284744,435671.7000000477,8018,WL,C,6.0
3,21.942999839782715,learn,38057.000160217285,Tue May 20 2025 18:54:48 GMT-0500 (Central Daylight Time),438453.89999997616,A,nailenter,I,enter,692,2,2782.1999999284744,435671.7000000477,8018,WL,C,6.0
3,22.925999879837036,learn,37074.000120162964,Tue May 20 2025 18:54:48 GMT-0500 (Central Daylight Time),439437.0,A,l,I,l,975,2,982.7999999523163,438454.2000000477,8018,WL,C,7.0
3,23.408999919891357,learn,36591.00008010864,Tue May 20 2025 18:54:48 GMT-0500 (Central Daylight Time),439920.0,A,le,I,e,472,2,1465.7999999523163,438454.2000000477,8018,WL,C,7.0
3,23.89199995994568,learn,36108.00004005432,Tue May 20 2025 18:54:48 GMT-0500 (Central Daylight Time),440403.39999997616,A,let,I,t,469,2,1949.1999999284744,438454.2000000477,8018,WL,C,7.0
3,24.074999809265137,learn,35925.00019073486,Tue May 20 2025 18:54:48 GMT-0500 (Central Daylight Time),440586.2000000477,A,lett,I,t,178,2,2132.0,438454.2000000477,8018,WL,C,7.0
3,24.441999912261963,learn,35558.00008773804,Tue May 20 2025 18:54:48 GMT-0500 (Central Daylight Time),440953.2999999523,A,lette,I,e,347,2,2499.0999999046326,438454.2000000477,8018,WL,C,7.0
3,24.758999824523926,learn,35241.000175476074,Tue May 20 2025 18:54:48 GMT-0500 (Central Daylight Time),441269.7000000477,A,letter,I,r,300,2,2815.5,438454.2000000477,8018,WL,C,7.0
3,25.574999809265137,learn,34425.00019073486,Tue May 20 2025 18:54:48 GMT-0500 (Central Daylight Time),442086.2000000477,A,letterenter,I,enter,807,2,3632.0,438454.2000000477,8018,WL,C,7.0
3,26.507999897003174,learn,33492.000102996826,Tue May 20 2025 18:54:48 GMT-0500 (Central Daylight Time),443018.89999997616,A,c,I,c,927,2,932.2999999523163,442086.60000002384,8018,WL,C,8.0
3,26.857999801635742,learn,33142.00019836426,Tue May 20 2025 18:54:48 GMT-0500 (Central Daylight Time),443369.2999999523,A,ca,I,a,339,2,1282.6999999284744,442086.60000002384,8018,WL,C,8.0
3,31.822999954223633,learn,28177.000045776367,Tue May 20 2025 18:54:48 GMT-0500 (Central Daylight Time),448334.2000000477,A,cam,I,m,4948,2,6247.600000023842,442086.60000002384,8018,WL,C,8.0
3,32.25599980354309,learn,27744.00019645691,Tue May 20 2025 18:54:48 GMT-0500 (Central Daylight Time),448767.2999999523,A,camp,I,p,415,2,6680.699999928474,442086.60000002384,8018,WL,C,8.0
3,33.47199988365173,learn,26528.000116348267,Tue May 20 2025 18:54:48 GMT-0500 (Central Daylight Time),449983.60000002384,A,campenter,I,enter,1198,2,7897.0,442086.60000002384,8018,WL,C,8.0
3,34.27199983596802,learn,25728.000164031982,Tue May 20 2025 18:54:48 GMT-0500 (Central Daylight Time),450783.2999999523,A,c,I,c,782,2,799.5,449983.7999999523,8018,WL,C,9.0
3,34.72199988365173,learn,25278.000116348267,Tue May 20 2025 18:54:48 GMT-0500 (Central Daylight Time),451233.10000002384,A,co,I,o,430,2,1249.3000000715256,449983.7999999523,8018,WL,C,9.0
3,35.371999979019165,learn,24628.000020980835,Tue May 20 2025 18:54:48 GMT-0500 (Central Daylight Time),451883.0,A,cor,I,r,636,2,1899.2000000476837,449983.7999999523,8018,WL,C,9.0
3,36.25499987602234,learn,23745.00012397766,Tue May 20 2025 18:54:48 GMT-0500 (Central Daylight Time),452766.10000002384,A,corn,I,n,866,2,2782.3000000715256,449983.7999999523,8018,WL,C,9.0
3,36.80499982833862,learn,23195.000171661377,Tue May 20 2025 18:54:48 GMT-0500 (Central Daylight Time),453315.89999997616,A,cornenter,I,enter,536,2,3332.100000023842,449983.7999999523,8018,WL,C,9.0
3,37.47099995613098,learn,22529.00004386902,Tue May 20 2025 18:54:48 GMT-0500 (Central Daylight Time),453982.2999999523,A,c,I,c,649,2,666.0,453316.2999999523,8018,WL,C,10.0
3,37.88800001144409,learn,22111.99998855591,Tue May 20 2025 18:54:48 GMT-0500 (Central Daylight Time),454399.0,A,ca,I,a,407,2,1082.7000000476837,453316.2999999523,8018,WL,C,10.0
3,38.287999868392944,learn,21712.000131607056,Tue May 20 2025 18:54:48 GMT-0500 (Central Daylight Time),454798.89999997616,A,cat,I,t,390,2,1482.6000000238419,453316.2999999523,8018,WL,C,10.0
3,38.48799991607666,learn,21512.00008392334,Tue May 20 2025 18:54:48 GMT-0500 (Central Daylight Time),454998.7000000477,A,catt,I,t,191,2,1682.4000000953674,453316.2999999523,8018,WL,C,10.0
3,39.53699994087219,learn,20463.000059127808,Tue May 20 2025 18:54:48 GMT-0500 (Central Daylight Time),456048.39999997616,A,cattl,I,l,1038,2,2732.100000023842,453316.2999999523,8018,WL,C,10.0
3,40.05399990081787,learn,19946.00009918213,Tue May 20 2025 18:54:48 GMT-0500 (Central Daylight Time),456565.0,A,cattle,I,e,509,2,3248.7000000476837,453316.2999999523,8018,WL,C,10.0
3,41.55299997329712,learn,18447.00002670288,Tue May 20 2025 18:54:48 GMT-0500 (Central Daylight Time),458064.39999997616,A,cattleenter,I,enter,1489,2,4748.100000023842,453316.2999999523,8018,WL,C,10.0
3,42.90299987792969,learn,17097.000122070312,Tue May 20 2025 18:54:48 GMT-0500 (Central Daylight Time),459414.0,A,n,I,n,1333,2,1349.2999999523163,458064.7000000477,8018,WL,C,11.0
3,43.20299983024597,learn,16797.00016975403,Tue May 20 2025 18:54:48 GMT-0500 (Central Daylight Time),459714.2000000477,A,na,I,a,295,2,1649.5,458064.7000000477,8018,WL,C,11.0
3,43.70299983024597,learn,16297.000169754028,Tue May 20 2025 18:54:48 GMT-0500 (Central Daylight Time),460213.89999997616,A,nai,I,i,483,2,2149.1999999284744,458064.7000000477,8018,WL,C,11.0
3,43.98599982261658,learn,16014.000177383423,Tue May 20 2025 18:54:48 GMT-0500 (Central Daylight Time),460496.7999999523,A,nail,I,l,264,2,2432.0999999046326,458064.7000000477,8018,WL,C,11.0
3,45.18499994277954,learn,14815.000057220459,Tue May 20 2025 18:54:48 GMT-0500 (Central Daylight Time),461696.60000002384,A,nailenter,I,enter,1181,2,3631.899999976158,458064.7000000477,8018,WL,C,11.0
3,46.45199990272522,learn,13548.00009727478,Tue May 20 2025 18:54:48 GMT-0500 (Central Daylight Time),462963.0,A,b,I,b,1253,2,1266.1000000238419,461696.89999997616,8018,WL,C,12.0
3,46.91799998283386,learn,13082.000017166138,Tue May 20 2025 18:54:48 GMT-0500 (Central Daylight Time),463429.39999997616,A,bo,I,o,451,2,1732.5,461696.89999997616,8018,WL,C,12.0
3,47.550999879837036,learn,12449.000120162964,Tue May 20 2025 18:54:48 GMT-0500 (Central Daylight Time),464062.39999997616,A,bod,I,d,616,2,2365.5,461696.89999997616,8018,WL,C,12.0
3,48.400999784469604,learn,11599.000215530396,Tue May 20 2025 18:54:48 GMT-0500 (Central Daylight Time),464912.10000002384,A,body,I,y,831,2,3215.2000000476837,461696.89999997616,8018,WL,C,12.0
3,49.58399987220764,learn,10416.000127792358,Tue May 20 2025 18:54:48 GMT-0500 (Central Daylight Time),466095.10000002384,A,bodyenter,I,enter,1165,2,4398.200000047684,461696.89999997616,8018,WL,C,12.0
3,50.967000007629395,learn,9032.999992370605,Tue May 20 2025 18:54:48 GMT-0500 (Central Daylight Time),467478.10000002384,A,f,I,f,1366,2,1382.7000000476837,466095.39999997616,8018,WL,C,13.0
3,51.68299984931946,learn,8317.000150680542,Tue May 20 2025 18:54:48 GMT-0500 (Central Daylight Time),468194.5,A,fl,I,l,703,2,2099.100000023842,466095.39999997616,8018,WL,C,13.0
3,52.08299994468689,learn,7917.00005531311,Tue May 20 2025 18:54:48 GMT-0500 (Central Daylight Time),468594.2999999523,A,fla,I,a,395,2,2498.899999976158,466095.39999997616,8018,WL,C,13.0
3,52.632999897003174,learn,7367.000102996826,Tue May 20 2025 18:54:48 GMT-0500 (Central Daylight Time),469144.2000000477,A,flag,I,g,539,2,3048.8000000715256,466095.39999997616,8018,WL,C,13.0
3,53.99899983406067,learn,6001.000165939331,Tue May 20 2025 18:54:48 GMT-0500 (Central Daylight Time),470510.39999997616,A,flagenter,I,enter,1357,2,4415.0,466095.39999997616,8018,WL,C,13.0
3,60.01300001144409,learn,-13.000011444091797,Tue May 20 2025 18:54:48 GMT-0500 (Central Daylight Time),476525.2000000477,A,None,I,None,6010,2,6014.300000071526,470510.89999997616,8018,WL,C,14.0
4,1.3999998569488525,learn,58600.00014305115,Tue May 20 2025 18:54:48 GMT-0500 (Central Daylight Time),552768.2000000477,A,t,I,t,1382,2,1399.5,551368.7000000477,8018,WL,C,1.0
4,1.9830000400543213,learn,58016.99995994568,Tue May 20 2025 18:54:48 GMT-0500 (Central Daylight Time),553351.7000000477,A,to,I,o,573,2,1983.0,551368.7000000477,8018,WL,C,1.0
4,2.616999864578247,learn,57383.00013542175,Tue May 20 2025 18:54:48 GMT-0500 (Central Daylight Time),553985.5,A,tow,I,w,614,2,2616.7999999523163,551368.7000000477,8018,WL,C,1.0
4,2.8329999446868896,learn,57167.00005531311,Tue May 20 2025 18:54:48 GMT-0500 (Central Daylight Time),554201.1000000238,A,towe,I,e,196,2,2832.399999976158,551368.7000000477,8018,WL,C,1.0
4,3.2660000324249268,learn,56733.99996757507,Tue May 20 2025 18:54:48 GMT-0500 (Central Daylight Time),554634.1000000238,A,tower,I,r,412,2,3265.399999976158,551368.7000000477,8018,WL,C,1.0
4,4.497999906539917,learn,55502.00009346008,Tue May 20 2025 18:54:48 GMT-0500 (Central Daylight Time),555867.0,A,towerenter,I,enter,1219,2,4498.299999952316,551368.7000000477,8018,WL,C,1.0
4,5.7149999141693115,learn,54285.00008583069,Tue May 20 2025 18:54:48 GMT-0500 (Central Daylight Time),557083.3999999762,A,w,I,w,1210,2,1216.0,555867.3999999762,8018,WL,C,2.0
4,6.080999851226807,learn,53919.00014877319,Tue May 20 2025 18:54:48 GMT-0500 (Central Daylight Time),557450.0,A,wh,I,h,346,2,1582.6000000238419,555867.3999999762,8018,WL,C,2.0
4,6.497999906539917,learn,53502.00009346008,Tue May 20 2025 18:54:48 GMT-0500 (Central Daylight Time),557866.3999999762,A,whe,I,e,403,2,1999.0,555867.3999999762,8018,WL,C,2.0
4,6.863999843597412,learn,53136.00015640259,Tue May 20 2025 18:54:48 GMT-0500 (Central Daylight Time),558232.8999999762,A,whea,I,a,347,2,2365.5,555867.3999999762,8018,WL,C,2.0
4,7.263999938964844,learn,52736.000061035156,Tue May 20 2025 18:54:48 GMT-0500 (Central Daylight Time),558632.7999999523,A,wheat,I,t,389,2,2765.399999976158,555867.3999999762,8018,WL,C,2.0
4,8.313999891281128,learn,51686.00010871887,Tue May 20 2025 18:54:48 GMT-0500 (Central Daylight Time),559682.5,A,wheatenter,I,enter,1044,2,3815.100000023842,555867.3999999762,8018,WL,C,2.0
4,9.080999851226807,learn,50919.00014877319,Tue May 20 2025 18:54:48 GMT-0500 (Central Daylight Time),560449.7999999523,A,q,I,q,763,2,767.0999999046326,559682.7000000477,8018,WL,C,3.0
4,9.513000011444092,learn,50486.99998855591,Tue May 20 2025 18:54:48 GMT-0500 (Central Daylight Time),560882.0,A,qu,I,u,420,2,1199.2999999523163,559682.7000000477,8018,WL,C,3.0
4,9.996999979019165,learn,50003.000020980835,Tue May 20 2025 18:54:48 GMT-0500 (Central Daylight Time),561365.2999999523,A,que,I,e,467,2,1682.5999999046326,559682.7000000477,8018,WL,C,3.0
4,10.180000066757202,learn,49819.9999332428,Tue May 20 2025 18:54:48 GMT-0500 (Central Daylight Time),561548.6000000238,A,quee,I,e,176,2,1865.8999999761581,559682.7000000477,8018,WL,C,3.0
4,10.996000051498413,learn,49003.99994850159,Tue May 20 2025 18:54:48 GMT-0500 (Central Daylight Time),562365.0,A,queen,I,n,801,2,2682.2999999523163,559682.7000000477,8018,WL,C,3.0
4,11.796000003814697,learn,48203.9999961853,Tue May 20 2025 18:54:48 GMT-0500 (Central Daylight Time),563164.8999999762,A,queenenter,I,enter,784,2,3482.1999999284744,559682.7000000477,8018,WL,C,3.0
4,12.828999996185303,learn,47171.0000038147,Tue May 20 2025 18:54:48 GMT-0500 (Central Daylight Time),564197.7999999523,A,s,I,s,1016,2,1032.5999999046326,563165.2000000477,8018,WL,C,4.0
4,13.645999908447266,learn,46354.000091552734,Tue May 20 2025 18:54:48 GMT-0500 (Central Daylight Time),565014.2000000477,A,su,I,u,800,2,1849.0,563165.2000000477,8018,WL,C,4.0
4,14.294999837875366,learn,45705.000162124634,Tue May 20 2025 18:54:48 GMT-0500 (Central Daylight Time),565664.0,A,sug,I,g,639,2,2498.7999999523163,563165.2000000477,8018,WL,C,4.0
4,14.562000036239624,learn,45437.999963760376,Tue May 20 2025 18:54:48 GMT-0500 (Central Daylight Time),565930.7000000477,A,suga,I,a,253,2,2765.5,563165.2000000477,8018,WL,C,4.0
4,14.92799997329712,learn,45072.00002670288,Tue May 20 2025 18:54:48 GMT-0500 (Central Daylight Time),566297.1000000238,A,sugar,I,r,355,2,3131.899999976158,563165.2000000477,8018,WL,C,4.0
4,15.911999940872192,learn,44088.00005912781,Tue May 20 2025 18:54:48 GMT-0500 (Central Daylight Time),567280.1000000238,A,sugarenter,I,enter,972,2,4114.899999976158,563165.2000000477,8018,WL,C,4.0
4,16.57799983024597,learn,43422.00016975403,Tue May 20 2025 18:54:48 GMT-0500 (Central Daylight Time),567946.6000000238,A,h,I,h,653,2,666.1000000238419,567280.5,8018,WL,C,5.0
4,16.944000005722046,learn,43055.999994277954,Tue May 20 2025 18:54:48 GMT-0500 (Central Daylight Time),568313.1000000238,A,ho,I,o,347,2,1032.6000000238419,567280.5,8018,WL,C,5.0
4,17.74399995803833,learn,42256.00004196167,Tue May 20 2025 18:54:48 GMT-0500 (Central Daylight Time),569112.8999999762,A,hom,I,m,779,2,1832.3999999761581,567280.5,8018,WL,C,5.0
4,18.22699999809265,learn,41773.00000190735,Tue May 20 2025 18:54:48 GMT-0500 (Central Daylight Time),569596.1000000238,A,home,I,e,468,2,2315.600000023842,567280.5,8018,WL,C,5.0
4,19.009999990463257,learn,40990.00000953674,Tue May 20 2025 18:54:48 GMT-0500 (Central Daylight Time),570378.8999999762,A,homeenter,I,enter,777,2,3098.399999976158,567280.5,8018,WL,C,5.0
4,19.72699999809265,learn,40273.00000190735,Tue May 20 2025 18:54:48 GMT-0500 (Central Daylight Time),571095.7000000477,A,b,I,b,699,2,716.5,570379.2000000477,8018,WL,C,6.0
4,20.30999994277954,learn,39690.00005722046,Tue May 20 2025 18:54:48 GMT-0500 (Central Daylight Time),571678.7999999523,A,bo,I,o,574,2,1299.5999999046326,570379.2000000477,8018,WL,C,6.0
4,20.942999839782715,learn,39057.000160217285,Tue May 20 2025 18:54:48 GMT-0500 (Central Daylight Time),572312.1000000238,A,boy,I,y,623,2,1932.8999999761581,570379.2000000477,8018,WL,C,6.0
4,21.743000030517578,learn,38256.99996948242,Tue May 20 2025 18:54:48 GMT-0500 (Central Daylight Time),573111.5,A,boyenter,I,enter,781,2,2732.2999999523163,570379.2000000477,8018,WL,C,6.0
4,22.526000022888184,learn,37473.99997711182,Tue May 20 2025 18:54:48 GMT-0500 (Central Daylight Time),573894.8999999762,A,d,I,d,766,2,783.0,573111.8999999762,8018,WL,C,7.0
4,22.842000007629395,learn,37157.999992370605,Tue May 20 2025 18:54:48 GMT-0500 (Central Daylight Time),574211.0,A,do,I,o,310,2,1099.1000000238419,573111.8999999762,8018,WL,C,7.0
4,23.509000062942505,learn,36490.999937057495,Tue May 20 2025 18:54:48 GMT-0500 (Central Daylight Time),574877.8999999762,A,doc,I,c,650,2,1766.0,573111.8999999762,8018,WL,C,7.0
4,23.875999927520752,learn,36124.00007247925,Tue May 20 2025 18:54:48 GMT-0500 (Central Daylight Time),575244.3999999762,A,doct,I,t,352,2,2132.5,573111.8999999762,8018,WL,C,7.0
4,24.47599983215332,learn,35524.00016784668,Tue May 20 2025 18:54:48 GMT-0500 (Central Daylight Time),575844.0,A,docto,I,o,593,2,2732.100000023842,573111.8999999762,8018,WL,C,7.0
4,25.108999967575073,learn,34891.00003242493,Tue May 20 2025 18:54:48 GMT-0500 (Central Daylight Time),576477.2000000477,A,doctor,I,r,617,2,3365.3000000715256,573111.8999999762,8018,WL,C,7.0
4,26.157999992370605,learn,33842.000007629395,Tue May 20 2025 18:54:48 GMT-0500 (Central Daylight Time),577527.0,A,doctorenter,I,enter,1040,2,4415.100000023842,573111.8999999762,8018,WL,C,7.0
4,27.243000030517578,learn,32756.999969482422,Tue May 20 2025 18:54:48 GMT-0500 (Central Daylight Time),578611.2000000477,A,c,I,c,1071,2,1083.9000000953674,577527.2999999523,8018,WL,C,8.0
4,27.575000047683716,learn,32424.999952316284,Tue May 20 2025 18:54:48 GMT-0500 (Central Daylight Time),578943.2000000477,A,ca,I,a,322,2,1415.9000000953674,577527.2999999523,8018,WL,C,8.0
4,28.141000032424927,learn,31858.999967575073,Tue May 20 2025 18:54:48 GMT-0500 (Central Daylight Time),579509.7999999523,A,cam,I,m,550,2,1982.5,577527.2999999523,8018,WL,C,8.0
4,28.573999881744385,learn,31426.000118255615,Tue May 20 2025 18:54:48 GMT-0500 (Central Daylight Time),579942.7000000477,A,camp,I,p,415,2,2415.4000000953674,577527.2999999523,8018,WL,C,8.0
4,29.223999977111816,learn,30776.000022888184,Tue May 20 2025 18:54:48 GMT-0500 (Central Daylight Time),580592.7999999523,A,campenter,I,enter,638,2,3065.5,577527.2999999523,8018,WL,C,8.0
4,29.957000017166138,learn,30042.999982833862,Tue May 20 2025 18:54:48 GMT-0500 (Central Daylight Time),581325.8999999762,A,f,I,f,716,2,732.6999999284744,580593.2000000477,8018,WL,C,9.0
4,30.639999866485596,learn,29360.000133514404,Tue May 20 2025 18:54:48 GMT-0500 (Central Daylight Time),582009.0,A,fl,I,l,663,2,1415.7999999523163,580593.2000000477,8018,WL,C,9.0
4,31.08999991416931,learn,28910.00008583069,Tue May 20 2025 18:54:48 GMT-0500 (Central Daylight Time),582458.7999999523,A,fla,I,a,436,2,1865.5999999046326,580593.2000000477,8018,WL,C,9.0
4,31.69000005722046,learn,28309.99994277954,Tue May 20 2025 18:54:48 GMT-0500 (Central Daylight Time),583058.2999999523,A,flag,I,g,595,2,2465.0999999046326,580593.2000000477,8018,WL,C,9.0
4,32.9229998588562,learn,27077.0001411438,Tue May 20 2025 18:54:48 GMT-0500 (Central Daylight Time),584291.5,A,flagenter,I,enter,1219,2,3698.2999999523163,580593.2000000477,8018,WL,C,9.0
4,33.83899998664856,learn,26161.00001335144,Tue May 20 2025 18:54:48 GMT-0500 (Central Daylight Time),585208.0,A,h,I,h,906,2,916.2000000476837,584291.7999999523,8018,WL,C,10.0
4,34.388999938964844,learn,25611.000061035156,Tue May 20 2025 18:54:48 GMT-0500 (Central Daylight Time),585757.6000000238,A,ho,I,o,534,2,1465.8000000715256,584291.7999999523,8018,WL,C,10.0
4,34.82299995422363,learn,25177.000045776367,Tue May 20 2025 18:54:48 GMT-0500 (Central Daylight Time),586191.2000000477,A,hom,I,m,416,2,1899.4000000953674,584291.7999999523,8018,WL,C,10.0
4,35.42199993133545,learn,24578.00006866455,Tue May 20 2025 18:54:48 GMT-0500 (Central Daylight Time),586790.7000000477,A,home,I,e,590,2,2498.9000000953674,584291.7999999523,8018,WL,C,10.0
4,36.57200002670288,learn,23427.99997329712,Tue May 20 2025 18:54:48 GMT-0500 (Central Daylight Time),587940.5,A,homeenter,I,enter,1143,2,3648.7000000476837,584291.7999999523,8018,WL,C,10.0
4,38.00399994850159,learn,21996.000051498413,Tue May 20 2025 18:54:48 GMT-0500 (Central Daylight Time),589373.1000000238,A,c,I,c,1425,2,1432.3999999761581,587940.7000000477,8018,WL,C,11.0
4,38.50499987602234,learn,21495.00012397766,Tue May 20 2025 18:54:48 GMT-0500 (Central Daylight Time),589873.2000000477,A,co,I,o,488,2,1932.5,587940.7000000477,8018,WL,C,11.0
4,39.00399994850159,learn,20996.000051498413,Tue May 20 2025 18:54:48 GMT-0500 (Central Daylight Time),590372.7000000477,A,cor,I,r,492,2,2432.0,587940.7000000477,8018,WL,C,11.0
4,39.83699989318848,learn,20163.000106811523,Tue May 20 2025 18:54:48 GMT-0500 (Central Daylight Time),591205.8999999762,A,corn,I,n,822,2,3265.1999999284744,587940.7000000477,8018,WL,C,11.0
4,40.437000036239624,learn,19562.999963760376,Tue May 20 2025 18:54:48 GMT-0500 (Central Daylight Time),591805.7999999523,A,cornenter,I,enter,583,2,3865.0999999046326,587940.7000000477,8018,WL,C,11.0
4,41.103999853134155,learn,18896.000146865845,Tue May 20 2025 18:54:48 GMT-0500 (Central Daylight Time),592472.2000000477,A,l,I,l,648,2,666.1000000238419,591806.1000000238,8018,WL,C,12.0
4,41.72000002861023,learn,18279.99997138977,Tue May 20 2025 18:54:48 GMT-0500 (Central Daylight Time),593088.8999999762,A,le,I,e,597,2,1282.7999999523163,591806.1000000238,8018,WL,C,12.0
4,42.253000020980835,learn,17746.999979019165,Tue May 20 2025 18:54:48 GMT-0500 (Central Daylight Time),593621.8999999762,A,let,I,t,517,2,1815.7999999523163,591806.1000000238,8018,WL,C,12.0
4,42.486000061035156,learn,17513.999938964844,Tue May 20 2025 18:54:48 GMT-0500 (Central Daylight Time),593855.1000000238,A,lett,I,t,223,2,2049.0,591806.1000000238,8018,WL,C,12.0
4,42.8529999256134,learn,17147.000074386597,Tue May 20 2025 18:54:48 GMT-0500 (Central Daylight Time),594221.7000000477,A,lette,I,e,358,2,2415.600000023842,591806.1000000238,8018,WL,C,12.0
4,43.15299987792969,learn,16847.000122070312,Tue May 20 2025 18:54:48 GMT-0500 (Central Daylight Time),594521.5,A,letter,I,r,280,2,2715.399999976158,591806.1000000238,8018,WL,C,12.0
4,44.168999910354614,learn,15831.000089645386,Tue May 20 2025 18:54:48 GMT-0500 (Central Daylight Time),595538.0,A,letterenter,I,enter,996,2,3731.899999976158,591806.1000000238,8018,WL,C,12.0
4,47.00099992752075,learn,12999.000072479248,Tue May 20 2025 18:54:48 GMT-0500 (Central Daylight Time),598370.5,A,s,I,s,2820,2,2832.2000000476837,595538.2999999523,8018,WL,C,13.0
4,47.35099983215332,learn,12649.00016784668,Tue May 20 2025 18:54:48 GMT-0500 (Central Daylight Time),598720.2999999523,A,sh,I,h,339,2,3182.0,595538.2999999523,8018,WL,C,13.0
4,47.75099992752075,learn,12249.000072479248,Tue May 20 2025 18:54:48 GMT-0500 (Central Daylight Time),599120.1000000238,A,sho,I,o,389,2,3581.8000000715256,595538.2999999523,8018,WL,C,13.0
4,48.300999879837036,learn,11699.000120162964,Tue May 20 2025 18:54:48 GMT-0500 (Central Daylight Time),599670.1000000238,A,shor,I,r,533,2,4131.800000071526,595538.2999999523,8018,WL,C,13.0
4,48.61699986457825,learn,11383.000135421753,Tue May 20 2025 18:54:48 GMT-0500 (Central Daylight Time),599986.6000000238,A,shore,I,e,295,2,4448.300000071526,595538.2999999523,8018,WL,C,13.0
4,49.51699995994568,learn,10483.000040054321,Tue May 20 2025 18:54:48 GMT-0500 (Central Daylight Time),600886.1000000238,A,shoreenter,I,enter,883,2,5347.800000071526,595538.2999999523,8018,WL,C,13.0
4,52.43299984931946,learn,7567.000150680542,Tue May 20 2025 18:54:48 GMT-0500 (Central Daylight Time),603801.7999999523,A,b,I,b,2895,2,2915.2999999523163,600886.5,8018,WL,C,14.0
4,52.96599984169006,learn,7034.0001583099365,Tue May 20 2025 18:54:48 GMT-0500 (Central Daylight Time),604335.2000000477,A,bo,I,o,523,2,3448.7000000476837,600886.5,8018,WL,C,14.0
4,53.56599998474121,learn,6434.000015258789,Tue May 20 2025 18:54:48 GMT-0500 (Central Daylight Time),604935.1000000238,A,bod,I,d,590,2,4048.600000023842,600886.5,8018,WL,C,14.0
4,53.931999921798706,learn,6068.000078201294,Tue May 20 2025 18:54:48 GMT-0500 (Central Daylight Time),605301.7999999523,A,body,I,y,350,2,4415.299999952316,600886.5,8018,WL,C,14.0
4,54.63199996948242,learn,5368.000030517578,Tue May 20 2025 18:54:48 GMT-0500 (Central Daylight Time),606001.3999999762,A,bodyenter,I,enter,688,2,5114.899999976158,600886.5,8018,WL,C,14.0
4,60.013999938964844,learn,-13.99993896484375,Tue May 20 2025 18:54:48 GMT-0500 (Central Daylight Time),611383.0,A,None,I,None,5376,2,5381.399999976158,606001.6000000238,8018,WL,C,15.0
5,1.2669999599456787,learn,60000.0,Tue May 20 2025 18:54:48 GMT-0500 (Central Daylight Time),682460.8999999762,A,t,I,t,1252,2,1266.6000000238419,681194.2999999523,8018,WL,C,1.0
5,1.9160001277923584,learn,60000.0,Tue May 20 2025 18:54:48 GMT-0500 (Central Daylight Time),683110.6000000238,A,to,I,o,640,2,1916.3000000715256,681194.2999999523,8018,WL,C,1.0
5,2.6660001277923584,learn,60000.0,Tue May 20 2025 18:54:48 GMT-0500 (Central Daylight Time),683860.2999999523,A,tow,I,w,743,2,2666.0,681194.2999999523,8018,WL,C,1.0
5,2.9660000801086426,learn,60000.0,Tue May 20 2025 18:54:48 GMT-0500 (Central Daylight Time),684160.2999999523,A,towe,I,e,289,2,2966.0,681194.2999999523,8018,WL,C,1.0
5,3.443000078201294,learn,60000.0,Tue May 20 2025 18:54:48 GMT-0500 (Central Daylight Time),684636.7000000477,A,tower,I,r,471,2,3442.4000000953674,681194.2999999523,8018,WL,C,1.0
5,4.366000175476074,learn,60000.0,Tue May 20 2025 18:54:48 GMT-0500 (Central Daylight Time),685559.8999999762,A,towerenter,I,enter,904,2,4365.600000023842,681194.2999999523,8018,WL,C,1.0
5,5.315999984741211,learn,60000.0,Tue May 20 2025 18:54:48 GMT-0500 (Central Daylight Time),686509.6000000238,A,w,I,w,934,2,949.3000000715256,685560.2999999523,8018,WL,C,2.0
5,5.664999961853027,learn,60000.0,Tue May 20 2025 18:54:48 GMT-0500 (Central Daylight Time),686859.2000000477,A,wh,I,h,336,2,1298.9000000953674,685560.2999999523,8018,WL,C,2.0
5,6.049000024795532,learn,60000.0,Tue May 20 2025 18:54:48 GMT-0500 (Central Daylight Time),687242.5,A,whe,I,e,362,2,1682.2000000476837,685560.2999999523,8018,WL,C,2.0
5,6.515000104904175,learn,60000.0,Tue May 20 2025 18:54:48 GMT-0500 (Central Daylight Time),687709.1000000238,A,whea,I,a,451,2,2148.8000000715256,685560.2999999523,8018,WL,C,2.0
5,7.0320000648498535,learn,60000.0,Tue May 20 2025 18:54:48 GMT-0500 (Central Daylight Time),688225.6000000238,A,wheat,I,t,504,2,2665.3000000715256,685560.2999999523,8018,WL,C,2.0
5,7.8480000495910645,learn,60000.0,Tue May 20 2025 18:54:48 GMT-0500 (Central Daylight Time),689041.7999999523,A,wheatenter,I,enter,796,2,3481.5,685560.2999999523,8018,WL,C,2.0
5,8.564000129699707,learn,60000.0,Tue May 20 2025 18:54:48 GMT-0500 (Central Daylight Time),689758.3999999762,A,q,I,q,700,2,716.1999999284744,689042.2000000477,8018,WL,C,3.0
5,8.930999994277954,learn,60000.0,Tue May 20 2025 18:54:48 GMT-0500 (Central Daylight Time),690124.7000000477,A,qu,I,u,351,2,1082.5,689042.2000000477,8018,WL,C,3.0
5,9.38100004196167,learn,60000.0,Tue May 20 2025 18:54:48 GMT-0500 (Central Daylight Time),690574.8999999762,A,que,I,e,441,2,1532.6999999284744,689042.2000000477,8018,WL,C,3.0
5,9.63100004196167,learn,60000.0,Tue May 20 2025 18:54:48 GMT-0500 (Central Daylight Time),690824.8999999762,A,quee,I,e,231,2,1782.6999999284744,689042.2000000477,8018,WL,C,3.0
5,10.114000082015991,learn,60000.0,Tue May 20 2025 18:54:48 GMT-0500 (Central Daylight Time),691308.1000000238,A,queen,I,n,476,2,2265.899999976158,689042.2000000477,8018,WL,C,3.0
5,10.680000066757202,learn,60000.0,Tue May 20 2025 18:54:48 GMT-0500 (Central Daylight Time),691874.3999999762,A,queenenter,I,enter,545,2,2832.1999999284744,689042.2000000477,8018,WL,C,3.0
5,11.463000059127808,learn,60000.0,Tue May 20 2025 18:54:48 GMT-0500 (Central Daylight Time),692657.5,A,s,I,s,763,2,782.7000000476837,691874.7999999523,8018,WL,C,4.0
5,12.11300015449524,learn,60000.0,Tue May 20 2025 18:54:48 GMT-0500 (Central Daylight Time),693307.3999999762,A,su,I,u,636,2,1432.6000000238419,691874.7999999523,8018,WL,C,4.0
5,12.580000162124634,learn,60000.0,Tue May 20 2025 18:54:48 GMT-0500 (Central Daylight Time),693774.0,A,sug,I,g,458,2,1899.2000000476837,691874.7999999523,8018,WL,C,4.0
5,12.913000106811523,learn,60000.0,Tue May 20 2025 18:54:48 GMT-0500 (Central Daylight Time),694107.1000000238,A,suga,I,a,319,2,2232.3000000715256,691874.7999999523,8018,WL,C,4.0
5,13.213000059127808,learn,60000.0,Tue May 20 2025 18:54:48 GMT-0500 (Central Daylight Time),694406.7999999523,A,sugar,I,r,290,2,2532.0,691874.7999999523,8018,WL,C,4.0
5,13.963000059127808,learn,60000.0,Tue May 20 2025 18:54:48 GMT-0500 (Central Daylight Time),695156.7999999523,A,sugarenter,I,enter,734,2,3282.0,691874.7999999523,8018,WL,C,4.0
5,14.595999956130981,learn,60000.0,Tue May 20 2025 18:54:48 GMT-0500 (Central Daylight Time),695790.0,A,h,I,h,617,2,633.0,695157.0,8018,WL,C,5.0
5,14.962000131607056,learn,60000.0,Tue May 20 2025 18:54:48 GMT-0500 (Central Daylight Time),696156.2999999523,A,ho,I,o,359,2,999.2999999523163,695157.0,8018,WL,C,5.0
5,15.479000091552734,learn,60000.0,Tue May 20 2025 18:54:48 GMT-0500 (Central Daylight Time),696673.0,A,hom,I,m,505,2,1516.0,695157.0,8018,WL,C,5.0
5,16.01200008392334,learn,60000.0,Tue May 20 2025 18:54:48 GMT-0500 (Central Daylight Time),697206.2000000477,A,home,I,e,517,2,2049.2000000476837,695157.0,8018,WL,C,5.0
5,17.228000164031982,learn,60000.0,Tue May 20 2025 18:54:48 GMT-0500 (Central Daylight Time),698422.2999999523,A,homeenter,I,enter,1199,2,3265.2999999523163,695157.0,8018,WL,C,5.0
5,19.361000061035156,learn,60000.0,Tue May 20 2025 18:54:48 GMT-0500 (Central Daylight Time),700554.8999999762,A,b,I,b,2119,2,2132.2999999523163,698422.6000000238,8018,WL,C,6.0
5,20.094000101089478,learn,60000.0,Tue May 20 2025 18:54:48 GMT-0500 (Central Daylight Time),701288.2000000477,A,bo,I,o,723,2,2865.600000023842,698422.6000000238,8018,WL,C,6.0
5,20.511000156402588,learn,60000.0,Tue May 20 2025 18:54:48 GMT-0500 (Central Daylight Time),701704.7000000477,A,boy,I,y,405,2,3282.100000023842,698422.6000000238,8018,WL,C,6.0
5,21.344000101089478,learn,60000.0,Tue May 20 2025 18:54:48 GMT-0500 (Central Daylight Time),702537.7000000477,A,boyenter,I,enter,813,2,4115.100000023842,698422.6000000238,8018,WL,C,6.0
5,22.47699999809265,learn,60000.0,Tue May 20 2025 18:54:48 GMT-0500 (Central Daylight Time),703670.6000000238,A,d,I,d,1116,2,1132.6000000238419,702538.0,8018,WL,C,7.0
5,23.12600016593933,learn,60000.0,Tue May 20 2025 18:54:48 GMT-0500 (Central Daylight Time),704320.3999999762,A,do,I,o,631,2,1782.3999999761581,702538.0,8018,WL,C,7.0
5,23.759999990463257,learn,60000.0,Tue May 20 2025 18:54:48 GMT-0500 (Central Daylight Time),704953.6000000238,A,doc,I,c,621,2,2415.600000023842,702538.0,8018,WL,C,7.0
5,24.243000030517578,learn,60000.0,Tue May 20 2025 18:54:48 GMT-0500 (Central Daylight Time),705436.7999999523,A,doct,I,t,476,2,2898.7999999523163,702538.0,8018,WL,C,7.0
5,24.743000030517578,learn,60000.0,Tue May 20 2025 18:54:48 GMT-0500 (Central Daylight Time),705936.7000000477,A,docto,I,o,481,2,3398.7000000476837,702538.0,8018,WL,C,7.0
5,25.325999975204468,learn,60000.0,Tue May 20 2025 18:54:48 GMT-0500 (Central Daylight Time),706519.7000000477,A,doctor,I,r,564,2,3981.7000000476837,702538.0,8018,WL,C,7.0
5,26.39199995994568,learn,60000.0,Tue May 20 2025 18:54:48 GMT-0500 (Central Daylight Time),707586.3999999762,A,doctorenter,I,enter,1053,2,5048.399999976158,702538.0,8018,WL,C,7.0
5,27.092000007629395,learn,60000.0,Tue May 20 2025 18:54:48 GMT-0500 (Central Daylight Time),708285.7000000477,A,c,I,c,685,2,699.0,707586.7000000477,8018,WL,C,8.0
5,27.492000102996826,learn,60000.0,Tue May 20 2025 18:54:48 GMT-0500 (Central Daylight Time),708685.8999999762,A,ca,I,a,383,2,1099.1999999284744,707586.7000000477,8018,WL,C,8.0
5,28.092000007629395,learn,60000.0,Tue May 20 2025 18:54:48 GMT-0500 (Central Daylight Time),709285.5,A,cam,I,m,591,2,1698.7999999523163,707586.7000000477,8018,WL,C,8.0
5,28.475000143051147,learn,60000.0,Tue May 20 2025 18:54:48 GMT-0500 (Central Daylight Time),709668.8999999762,A,camp,I,p,376,2,2082.1999999284744,707586.7000000477,8018,WL,C,8.0
5,29.29100012779236,learn,60000.0,Tue May 20 2025 18:54:48 GMT-0500 (Central Daylight Time),710485.1000000238,A,campenter,I,enter,801,2,2898.399999976158,707586.7000000477,8018,WL,C,8.0
5,29.95800018310547,learn,60000.0,Tue May 20 2025 18:54:48 GMT-0500 (Central Daylight Time),711151.7000000477,A,f,I,f,648,2,666.3000000715256,710485.3999999762,8018,WL,C,9.0
5,30.624000072479248,learn,60000.0,Tue May 20 2025 18:54:48 GMT-0500 (Central Daylight Time),711818.3999999762,A,fl,I,l,662,2,1333.0,710485.3999999762,8018,WL,C,9.0
5,31.02400016784668,learn,60000.0,Tue May 20 2025 18:54:48 GMT-0500 (Central Daylight Time),712218.2999999523,A,fla,I,a,379,2,1732.8999999761581,710485.3999999762,8018,WL,C,9.0
5,31.60700011253357,learn,60000.0,Tue May 20 2025 18:54:48 GMT-0500 (Central Daylight Time),712801.1000000238,A,flag,I,g,571,2,2315.7000000476837,710485.3999999762,8018,WL,C,9.0
5,32.65700006484985,learn,60000.0,Tue May 20 2025 18:54:48 GMT-0500 (Central Daylight Time),713850.8999999762,A,flagenter,I,enter,1037,2,3365.5,710485.3999999762,8018,WL,C,9.0
5,33.35700011253357,learn,60000.0,Tue May 20 2025 18:54:48 GMT-0500 (Central Daylight Time),714551.1000000238,A,n,I,n,682,2,699.8999999761581,713851.2000000477,8018,WL,C,10.0
5,33.75600004196167,learn,60000.0,Tue May 20 2025 18:54:48 GMT-0500 (Central Daylight Time),714950.5,A,na,I,a,390,2,1099.2999999523163,713851.2000000477,8018,WL,C,10.0
5,34.206000089645386,learn,60000.0,Tue May 20 2025 18:54:48 GMT-0500 (Central Daylight Time),715400.3999999762,A,nai,I,i,439,2,1549.1999999284744,713851.2000000477,8018,WL,C,10.0
5,34.623000144958496,learn,60000.0,Tue May 20 2025 18:54:48 GMT-0500 (Central Daylight Time),715816.8999999762,A,nail,I,l,397,2,1965.6999999284744,713851.2000000477,8018,WL,C,10.0
5,35.205000162124634,learn,60000.0,Tue May 20 2025 18:54:48 GMT-0500 (Central Daylight Time),716400.1000000238,A,nailenter,I,enter,573,2,2548.899999976158,713851.2000000477,8018,WL,C,10.0
5,36.7720000743866,learn,60000.0,Tue May 20 2025 18:54:48 GMT-0500 (Central Daylight Time),717966.2000000477,A,c,I,c,1558,2,1565.8000000715256,716400.3999999762,8018,WL,C,11.0
5,37.12100005149841,learn,60000.0,Tue May 20 2025 18:54:48 GMT-0500 (Central Daylight Time),718316.2000000477,A,co,I,o,335,2,1915.8000000715256,716400.3999999762,8018,WL,C,11.0
5,37.65400004386902,learn,60000.0,Tue May 20 2025 18:54:48 GMT-0500 (Central Daylight Time),718849.2000000477,A,cor,I,r,513,2,2448.8000000715256,716400.3999999762,8018,WL,C,11.0
5,38.271000146865845,learn,60000.0,Tue May 20 2025 18:54:48 GMT-0500 (Central Daylight Time),719466.1000000238,A,corn,I,n,596,2,3065.7000000476837,716400.3999999762,8018,WL,C,11.0
5,39.271000146865845,learn,60000.0,Tue May 20 2025 18:54:48 GMT-0500 (Central Daylight Time),720465.3999999762,A,cornenter,I,enter,979,2,4065.0,716400.3999999762,8018,WL,C,11.0
5,40.6710000038147,learn,60000.0,Tue May 20 2025 18:54:48 GMT-0500 (Central Daylight Time),721865.1000000238,A,s,I,s,1387,2,1399.3999999761581,720465.7000000477,8018,WL,C,12.0
5,41.104000091552734,learn,60000.0,Tue May 20 2025 18:54:48 GMT-0500 (Central Daylight Time),722298.5,A,sh,I,h,412,2,1832.7999999523163,720465.7000000477,8018,WL,C,12.0
5,41.57000017166138,learn,60000.0,Tue May 20 2025 18:54:48 GMT-0500 (Central Daylight Time),722764.7999999523,A,sho,I,o,451,2,2299.0999999046326,720465.7000000477,8018,WL,C,12.0
5,42.420000076293945,learn,60000.0,Tue May 20 2025 18:54:48 GMT-0500 (Central Daylight Time),723614.6000000238,A,shor,I,r,833,2,3148.899999976158,720465.7000000477,8018,WL,C,12.0
5,42.78600001335144,learn,60000.0,Tue May 20 2025 18:54:48 GMT-0500 (Central Daylight Time),723980.8999999762,A,shore,I,e,359,2,3515.1999999284744,720465.7000000477,8018,WL,C,12.0
5,43.835999965667725,learn,60000.0,Tue May 20 2025 18:54:48 GMT-0500 (Central Daylight Time),725030.5,A,shoreenter,I,enter,1041,2,4564.799999952316,720465.7000000477,8018,WL,C,12.0
5,44.835999965667725,learn,60000.0,Tue May 20 2025 18:54:48 GMT-0500 (Central Daylight Time),726030.3999999762,A,h,I,h,983,2,999.6999999284744,725030.7000000477,8018,WL,C,13.0
5,45.25200009346008,learn,60000.0,Tue May 20 2025 18:54:48 GMT-0500 (Central Daylight Time),726447.0,A,ho,I,o,399,2,1416.2999999523163,725030.7000000477,8018,WL,C,13.0
5,45.819000005722046,learn,60000.0,Tue May 20 2025 18:54:48 GMT-0500 (Central Daylight Time),727013.2999999523,A,hom,I,m,558,2,1982.5999999046326,725030.7000000477,8018,WL,C,13.0
5,46.36800003051758,learn,60000.0,Tue May 20 2025 18:54:48 GMT-0500 (Central Daylight Time),727562.8999999762,A,home,I,e,544,2,2532.1999999284744,725030.7000000477,8018,WL,C,13.0
5,47.68500018119812,learn,60000.0,Tue May 20 2025 18:54:48 GMT-0500 (Central Daylight Time),728879.6000000238,A,homeenter,I,enter,1307,2,3848.899999976158,725030.7000000477,8018,WL,C,13.0
5,49.66700005531311,learn,60000.0,Tue May 20 2025 18:54:48 GMT-0500 (Central Daylight Time),730862.0,A,l,I,l,1966,2,1982.0,728880.0,8018,WL,C,14.0
5,50.28400015830994,learn,60000.0,Tue May 20 2025 18:54:48 GMT-0500 (Central Daylight Time),731478.6000000238,A,le,I,e,600,2,2598.600000023842,728880.0,8018,WL,C,14.0
5,50.65000009536743,learn,60000.0,Tue May 20 2025 18:54:48 GMT-0500 (Central Daylight Time),731845.0,A,let,I,t,351,2,2965.0,728880.0,8018,WL,C,14.0
5,50.85000014305115,learn,60000.0,Tue May 20 2025 18:54:48 GMT-0500 (Central Daylight Time),732044.7999999523,A,lett,I,t,192,2,3164.7999999523163,728880.0,8018,WL,C,14.0
5,51.18400001525879,learn,60000.0,Tue May 20 2025 18:54:48 GMT-0500 (Central Daylight Time),732378.3999999762,A,lette,I,e,321,2,3498.399999976158,728880.0,8018,WL,C,14.0
5,51.5,learn,60000.0,Tue May 20 2025 18:54:48 GMT-0500 (Central Daylight Time),732695.0,A,letter,I,r,307,2,3815.0,728880.0,8018,WL,C,14.0
5,52.450000047683716,learn,60000.0,Tue May 20 2025 18:54:48 GMT-0500 (Central Daylight Time),733644.6000000238,A,letterenter,I,enter,935,2,4764.600000023842,728880.0,8018,WL,C,14.0
5,55.71600008010864,learn,60000.0,Tue May 20 2025 18:54:48 GMT-0500 (Central Daylight Time),736910.2999999523,A,b,I,b,3257,2,3265.2999999523163,733645.0,8018,WL,C,15.0
5,56.14900016784668,learn,60000.0,Tue May 20 2025 18:54:48 GMT-0500 (Central Daylight Time),737343.7000000477,A,bo,I,o,423,2,3698.7000000476837,733645.0,8018,WL,C,15.0
5,57.23200011253357,learn,60000.0,Tue May 20 2025 18:54:48 GMT-0500 (Central Daylight Time),738426.5,A,boy,I,y,1061,2,4781.5,733645.0,8018,WL,C,15.0
5,58.265000104904175,learn,60000.0,Tue May 20 2025 18:54:48 GMT-0500 (Central Daylight Time),739459.3999999762,A,boyenter,I,enter,1019,2,5814.399999976158,733645.0,8018,WL,C,15.0
6,0.9839999675750732,distr,59016.00003242493,Tue May 20 2025 18:54:48 GMT-0500 (Central Daylight Time),811737.0,B,s,I,s,964,2,983.0,810754.0,8018,WL,C,1.0
6,1.4500000476837158,distr,58549.999952316284,Tue May 20 2025 18:54:48 GMT-0500 (Central Daylight Time),812203.0,B,sk,I,k,460,2,1449.0,810754.0,8018,WL,C,1.0
6,2.0169999599456787,distr,57983.00004005432,Tue May 20 2025 18:54:48 GMT-0500 (Central Daylight Time),812769.7999999523,B,sky,I,y,555,2,2015.7999999523163,810754.0,8018,WL,C,1.0
6,3.065999984741211,distr,56934.00001525879,Tue May 20 2025 18:54:48 GMT-0500 (Central Daylight Time),813819.5,B,skyenter,I,enter,1036,2,3065.5,810754.0,8018,WL,C,1.0
6,3.9830000400543213,distr,56016.99995994568,Tue May 20 2025 18:54:48 GMT-0500 (Central Daylight Time),814735.8999999762,B,d,I,d,898,2,916.1000000238419,813819.7999999523,8018,WL,C,2.0
6,4.266000032424927,distr,55733.99996757507,Tue May 20 2025 18:54:48 GMT-0500 (Central Daylight Time),815019.0,B,do,I,o,269,2,1199.2000000476837,813819.7999999523,8018,WL,C,2.0
6,4.681999921798706,distr,55318.000078201294,Tue May 20 2025 18:54:48 GMT-0500 (Central Daylight Time),815435.6000000238,B,dol,I,l,402,2,1615.8000000715256,813819.7999999523,8018,WL,C,2.0
6,4.898999929428101,distr,55101.0000705719,Tue May 20 2025 18:54:48 GMT-0500 (Central Daylight Time),815652.2999999523,B,doll,I,l,202,2,1832.5,813819.7999999523,8018,WL,C,2.0
6,5.299000024795532,distr,54700.99997520447,Tue May 20 2025 18:54:48 GMT-0500 (Central Daylight Time),816052.0,B,dolla,I,a,385,2,2232.2000000476837,813819.7999999523,8018,WL,C,2.0
6,5.749000072479248,distr,54250.99992752075,Tue May 20 2025 18:54:48 GMT-0500 (Central Daylight Time),816502.1000000238,B,dollar,I,r,441,2,2682.3000000715256,813819.7999999523,8018,WL,C,2.0
6,6.7149999141693115,distr,53285.00008583069,Tue May 20 2025 18:54:48 GMT-0500 (Central Daylight Time),817468.2000000477,B,dollarenter,I,enter,951,2,3648.4000000953674,813819.7999999523,8018,WL,C,2.0
6,7.664999961853027,distr,52335.00003814697,Tue May 20 2025 18:54:48 GMT-0500 (Central Daylight Time),818418.2999999523,B,m,I,m,929,2,949.7999999523163,817468.5,8018,WL,C,3.0
6,8.014999866485596,distr,51985.000133514404,Tue May 20 2025 18:54:48 GMT-0500 (Central Daylight Time),818768.0,B,mo,I,o,331,2,1299.5,817468.5,8018,WL,C,3.0
6,8.38100004196167,distr,51618.99995803833,Tue May 20 2025 18:54:48 GMT-0500 (Central Daylight Time),819134.3999999762,B,mon,I,n,358,2,1665.8999999761581,817468.5,8018,WL,C,3.0
6,8.947999954223633,distr,51052.00004577637,Tue May 20 2025 18:54:48 GMT-0500 (Central Daylight Time),819701.2000000477,B,mone,I,e,559,2,2232.7000000476837,817468.5,8018,WL,C,3.0
6,9.496999979019165,distr,50503.000020980835,Tue May 20 2025 18:54:48 GMT-0500 (Central Daylight Time),820250.6000000238,B,money,I,y,528,2,2782.100000023842,817468.5,8018,WL,C,3.0
6,10.96399998664856,distr,49036.00001335144,Tue May 20 2025 18:54:48 GMT-0500 (Central Daylight Time),821717.1000000238,B,moneyenter,I,enter,1451,2,4248.600000023842,817468.5,8018,WL,C,3.0
6,13.02999997138977,distr,46970.00002861023,Tue May 20 2025 18:54:48 GMT-0500 (Central Daylight Time),823782.8999999762,B,f,I,f,2057,2,2065.5,821717.3999999762,8018,WL,C,4.0
6,13.77999997138977,distr,46220.00002861023,Tue May 20 2025 18:54:48 GMT-0500 (Central Daylight Time),824532.8999999762,B,fo,I,o,734,2,2815.5,821717.3999999762,8018,WL,C,4.0
6,14.312999963760376,distr,45687.000036239624,Tue May 20 2025 18:54:48 GMT-0500 (Central Daylight Time),825066.1000000238,B,for,I,r,520,2,3348.7000000476837,821717.3999999762,8018,WL,C,4.0
6,14.645999908447266,distr,45354.000091552734,Tue May 20 2025 18:54:48 GMT-0500 (Central Daylight Time),825399.1000000238,B,fore,I,e,315,2,3681.7000000476837,821717.3999999762,8018,WL,C,4.0
6,14.979000091552734,distr,45020.999908447266,Tue May 20 2025 18:54:48 GMT-0500 (Central Daylight Time),825732.3999999762,B,fores,I,s,326,2,4015.0,821717.3999999762,8018,WL,C,4.0
6,15.411999940872192,distr,44588.00005912781,Tue May 20 2025 18:54:48 GMT-0500 (Central Daylight Time),826165.2999999523,B,forest,I,t,417,2,4447.899999976158,821717.3999999762,8018,WL,C,4.0
6,16.479000091552734,distr,43520.999908447266,Tue May 20 2025 18:54:48 GMT-0500 (Central Daylight Time),827232.2000000477,B,forestenter,I,enter,1057,2,5514.800000071526,821717.3999999762,8018,WL,C,4.0
6,17.111999988555908,distr,42888.00001144409,Tue May 20 2025 18:54:48 GMT-0500 (Central Daylight Time),827865.2000000477,B,p,I,p,613,2,632.6000000238419,827232.6000000238,8018,WL,C,5.0
6,17.42799997329712,distr,42572.00002670288,Tue May 20 2025 18:54:48 GMT-0500 (Central Daylight Time),828181.6000000238,B,pl,I,l,308,2,949.0,827232.6000000238,8018,WL,C,5.0
6,17.878000020980835,distr,42121.999979019165,Tue May 20 2025 18:54:48 GMT-0500 (Central Daylight Time),828631.5,B,pla,I,a,432,2,1398.8999999761581,827232.6000000238,8018,WL,C,5.0
6,18.32800006866455,distr,41671.99993133545,Tue May 20 2025 18:54:48 GMT-0500 (Central Daylight Time),829081.2999999523,B,plan,I,n,438,2,1848.6999999284744,827232.6000000238,8018,WL,C,5.0
6,18.894999980926514,distr,41105.000019073486,Tue May 20 2025 18:54:48 GMT-0500 (Central Daylight Time),829648.1000000238,B,plant,I,t,548,2,2415.5,827232.6000000238,8018,WL,C,5.0
6,20.26099991798401,distr,39739.00008201599,Tue May 20 2025 18:54:48 GMT-0500 (Central Daylight Time),831014.2999999523,B,plantenter,I,enter,1357,2,3781.6999999284744,827232.6000000238,8018,WL,C,5.0
6,21.22699999809265,distr,38773.00000190735,Tue May 20 2025 18:54:48 GMT-0500 (Central Daylight Time),831980.3999999762,B,d,I,d,951,2,965.8999999761581,831014.5,8018,WL,C,6.0
6,21.5939998626709,distr,38406.0001373291,Tue May 20 2025 18:54:48 GMT-0500 (Central Daylight Time),832347.1000000238,B,di,I,i,353,2,1332.6000000238419,831014.5,8018,WL,C,6.0
6,21.960000038146973,distr,38039.99996185303,Tue May 20 2025 18:54:48 GMT-0500 (Central Daylight Time),832713.6000000238,B,dia,I,a,354,2,1699.1000000238419,831014.5,8018,WL,C,6.0
6,22.55999994277954,distr,37440.00005722046,Tue May 20 2025 18:54:48 GMT-0500 (Central Daylight Time),833313.3999999762,B,diam,I,m,580,2,2298.899999976158,831014.5,8018,WL,C,6.0
6,22.927000045776367,distr,37072.99995422363,Tue May 20 2025 18:54:48 GMT-0500 (Central Daylight Time),833680.0,B,diamo,I,o,356,2,2665.5,831014.5,8018,WL,C,6.0
6,23.259999990463257,distr,36740.00000953674,Tue May 20 2025 18:54:48 GMT-0500 (Central Daylight Time),834013.2000000477,B,diamon,I,n,326,2,2998.7000000476837,831014.5,8018,WL,C,6.0
6,24.042999982833862,distr,35957.00001716614,Tue May 20 2025 18:54:48 GMT-0500 (Central Daylight Time),834796.2000000477,B,diamond,I,d,768,2,3781.7000000476837,831014.5,8018,WL,C,6.0
6,25.408999919891357,distr,34591.00008010864,Tue May 20 2025 18:54:48 GMT-0500 (Central Daylight Time),836162.7000000477,B,diamondenter,I,enter,1345,2,5148.200000047684,831014.5,8018,WL,C,6.0
6,28.223999977111816,distr,31776.000022888184,Tue May 20 2025 18:54:48 GMT-0500 (Central Daylight Time),838978.2999999523,B,t,I,t,2811,2,2815.1999999284744,836163.1000000238,8018,WL,C,7.0
6,28.558000087738037,distr,31441.999912261963,Tue May 20 2025 18:54:48 GMT-0500 (Central Daylight Time),839311.5,B,tr,I,r,323,2,3148.399999976158,836163.1000000238,8018,WL,C,7.0
6,28.874000072479248,distr,31125.999927520752,Tue May 20 2025 18:54:48 GMT-0500 (Central Daylight Time),839628.1000000238,B,tre,I,e,310,2,3465.0,836163.1000000238,8018,WL,C,7.0
6,29.073999881744385,distr,30926.000118255615,Tue May 20 2025 18:54:48 GMT-0500 (Central Daylight Time),839828.0,B,tree,I,e,193,2,3664.899999976158,836163.1000000238,8018,WL,C,7.0
6,29.957000017166138,distr,30042.999982833862,Tue May 20 2025 18:54:48 GMT-0500 (Central Daylight Time),840711.0,B,treeenter,I,enter,873,2,4547.899999976158,836163.1000000238,8018,WL,C,7.0
6,34.90599989891052,distr,25094.000101089478,Tue May 20 2025 18:54:48 GMT-0500 (Central Daylight Time),845659.5,B,h,I,h,4934,2,4948.100000023842,840711.3999999762,8018,WL,C,8.0
6,35.22199988365173,distr,24778.000116348267,Tue May 20 2025 18:54:48 GMT-0500 (Central Daylight Time),845975.8999999762,B,ha,I,a,298,2,5264.5,840711.3999999762,8018,WL,C,8.0
6,36.105000019073486,distr,23894.999980926514,Tue May 20 2025 18:54:48 GMT-0500 (Central Daylight Time),846859.0,B,hal,I,l,877,2,6147.600000023842,840711.3999999762,8018,WL,C,8.0
6,36.32200002670288,distr,23677.99997329712,Tue May 20 2025 18:54:48 GMT-0500 (Central Daylight Time),847075.7999999523,B,hall,I,l,203,2,6364.399999976158,840711.3999999762,8018,WL,C,8.0
6,37.270999908447266,distr,22729.000091552734,Tue May 20 2025 18:54:48 GMT-0500 (Central Daylight Time),848025.2999999523,B,hallenter,I,enter,930,2,7313.899999976158,840711.3999999762,8018,WL,C,8.0
6,40.32099986076355,distr,19679.00013923645,Tue May 20 2025 18:54:48 GMT-0500 (Central Daylight Time),851074.5,B,h,I,h,3036,2,3048.899999976158,848025.6000000238,8018,WL,C,9.0
6,40.687000036239624,distr,19312.999963760376,Tue May 20 2025 18:54:48 GMT-0500 (Central Daylight Time),851441.2000000477,B,ho,I,o,355,2,3415.600000023842,848025.6000000238,8018,WL,C,9.0
6,41.187000036239624,distr,18812.999963760376,Tue May 20 2025 18:54:48 GMT-0500 (Central Daylight Time),851940.5,B,hot,I,t,484,2,3914.899999976158,848025.6000000238,8018,WL,C,9.0
6,41.519999980926514,distr,18480.000019073486,Tue May 20 2025 18:54:48 GMT-0500 (Central Daylight Time),852274.2000000477,B,hote,I,e,313,2,4248.600000023842,848025.6000000238,8018,WL,C,9.0
6,42.13700008392334,distr,17862.99991607666,Tue May 20 2025 18:54:48 GMT-0500 (Central Daylight Time),852890.6000000238,B,hotel,I,l,611,2,4865.0,848025.6000000238,8018,WL,C,9.0
6,42.97000002861023,distr,17029.99997138977,Tue May 20 2025 18:54:48 GMT-0500 (Central Daylight Time),853723.6000000238,B,hotelenter,I,enter,827,2,5698.0,848025.6000000238,8018,WL,C,9.0
6,60.014999866485596,distr,-14.999866485595703,Tue May 20 2025 18:54:48 GMT-0500 (Central Daylight Time),870768.5,B,None,I,None,17040,2,17044.600000023842,853723.8999999762,8018,WL,C,10.0
7,7.13100004196167,immed,52868.99995803833,Tue May 20 2025 18:54:48 GMT-0500 (Central Daylight Time),880932.0,A,t,I,t,7117,2,7131.200000047684,873800.7999999523,8018,WL,C,1.0
7,7.513999938964844,immed,52486.000061035156,Tue May 20 2025 18:54:48 GMT-0500 (Central Daylight Time),881315.1000000238,A,to,I,o,369,2,7514.300000071526,873800.7999999523,8018,WL,C,1.0
7,8.114000082015991,immed,51885.99991798401,Tue May 20 2025 18:54:48 GMT-0500 (Central Daylight Time),881914.6000000238,A,tow,I,w,594,2,8113.800000071526,873800.7999999523,8018,WL,C,1.0
7,8.430999994277954,immed,51569.000005722046,Tue May 20 2025 18:54:48 GMT-0500 (Central Daylight Time),882231.3999999762,A,towe,I,e,307,2,8430.600000023842,873800.7999999523,8018,WL,C,1.0
7,8.930000066757202,immed,51069.9999332428,Tue May 20 2025 18:54:48 GMT-0500 (Central Daylight Time),882731.2000000477,A,tower,I,r,486,2,8930.400000095367,873800.7999999523,8018,WL,C,1.0
7,10.27999997138977,immed,49720.00002861023,Tue May 20 2025 18:54:48 GMT-0500 (Central Daylight Time),884080.8999999762,A,towerenter,I,enter,1330,2,10280.100000023842,873800.7999999523,8018,WL,C,1.0
7,11.763000011444092,immed,48236.99998855591,Tue May 20 2025 18:54:48 GMT-0500 (Central Daylight Time),885563.7000000477,A,w,I,w,1476,2,1482.5,884081.2000000477,8018,WL,C,2.0
7,12.17900013923645,immed,47820.99986076355,Tue May 20 2025 18:54:48 GMT-0500 (Central Daylight Time),885980.1000000238,A,wh,I,h,402,2,1898.8999999761581,884081.2000000477,8018,WL,C,2.0
7,12.578999996185303,immed,47421.0000038147,Tue May 20 2025 18:54:48 GMT-0500 (Central Daylight Time),886380.1000000238,A,whe,I,e,385,2,2298.899999976158,884081.2000000477,8018,WL,C,2.0
7,12.796000003814697,immed,47203.9999961853,Tue May 20 2025 18:54:48 GMT-0500 (Central Daylight Time),886596.7000000477,A,whea,I,a,209,2,2515.5,884081.2000000477,8018,WL,C,2.0
7,13.128999948501587,immed,46871.00005149841,Tue May 20 2025 18:54:48 GMT-0500 (Central Daylight Time),886930.0,A,wheat,I,t,329,2,2848.7999999523163,884081.2000000477,8018,WL,C,2.0
7,14.078999996185303,immed,45921.0000038147,Tue May 20 2025 18:54:48 GMT-0500 (Central Daylight Time),887879.6000000238,A,wheatenter,I,enter,940,2,3798.399999976158,884081.2000000477,8018,WL,C,2.0
7,14.646000146865845,immed,45353.999853134155,Tue May 20 2025 18:54:48 GMT-0500 (Central Daylight Time),888447.2999999523,A,q,I,q,550,2,567.5,887879.7999999523,8018,WL,C,3.0
7,15.01200008392334,immed,44987.99991607666,Tue May 20 2025 18:54:48 GMT-0500 (Central Daylight Time),888812.7000000477,A,qu,I,u,358,2,932.9000000953674,887879.7999999523,8018,WL,C,3.0
7,15.42799997329712,immed,44572.00002670288,Tue May 20 2025 18:54:48 GMT-0500 (Central Daylight Time),889229.2000000477,A,que,I,e,409,2,1349.4000000953674,887879.7999999523,8018,WL,C,3.0
7,15.59500002861023,immed,44404.99997138977,Tue May 20 2025 18:54:48 GMT-0500 (Central Daylight Time),889395.7999999523,A,quee,I,e,152,2,1516.0,887879.7999999523,8018,WL,C,3.0
7,16.261000156402588,immed,43738.99984359741,Tue May 20 2025 18:54:48 GMT-0500 (Central Daylight Time),890062.2999999523,A,queen,I,n,658,2,2182.5,887879.7999999523,8018,WL,C,3.0
7,16.82800006866455,immed,43171.99993133545,Tue May 20 2025 18:54:48 GMT-0500 (Central Daylight Time),890628.7999999523,A,queenenter,I,enter,551,2,2749.0,887879.7999999523,8018,WL,C,3.0
7,17.57800006866455,immed,42421.99993133545,Tue May 20 2025 18:54:48 GMT-0500 (Central Daylight Time),891378.5,A,s,I,s,737,2,749.2999999523163,890629.2000000477,8018,WL,C,4.0
7,17.960999965667725,immed,42039.000034332275,Tue May 20 2025 18:54:48 GMT-0500 (Central Daylight Time),891761.5,A,su,I,u,371,2,1132.2999999523163,890629.2000000477,8018,WL,C,4.0
7,18.55999994277954,immed,41440.00005722046,Tue May 20 2025 18:54:48 GMT-0500 (Central Daylight Time),892361.2000000477,A,sug,I,g,580,2,1732.0,890629.2000000477,8018,WL,C,4.0
7,18.89400005340576,immed,41105.99994659424,Tue May 20 2025 18:54:48 GMT-0500 (Central Daylight Time),892694.7000000477,A,suga,I,a,316,2,2065.5,890629.2000000477,8018,WL,C,4.0
7,19.30999994277954,immed,40690.00005722046,Tue May 20 2025 18:54:48 GMT-0500 (Central Daylight Time),893111.2000000477,A,sugar,I,r,406,2,2482.0,890629.2000000477,8018,WL,C,4.0
7,20.292999982833862,immed,39707.00001716614,Tue May 20 2025 18:54:48 GMT-0500 (Central Daylight Time),894094.2999999523,A,sugarenter,I,enter,966,2,3465.0999999046326,890629.2000000477,8018,WL,C,4.0
7,21.80900001525879,immed,38190.99998474121,Tue May 20 2025 18:54:48 GMT-0500 (Central Daylight Time),895610.3999999762,A,b,I,b,1502,2,1515.7999999523163,894094.6000000238,8018,WL,C,5.0
7,22.16000008583069,immed,37839.99991416931,Tue May 20 2025 18:54:48 GMT-0500 (Central Daylight Time),895960.6000000238,A,bo,I,o,339,2,1866.0,894094.6000000238,8018,WL,C,5.0
7,22.9520001411438,immed,37047.9998588562,Tue May 20 2025 18:54:48 GMT-0500 (Central Daylight Time),896753.7000000477,A,boy,I,y,788,2,2659.100000023842,894094.6000000238,8018,WL,C,5.0
7,23.54100012779236,immed,36458.99987220764,Tue May 20 2025 18:54:48 GMT-0500 (Central Daylight Time),897342.7999999523,A,boyenter,I,enter,571,2,3248.1999999284744,894094.6000000238,8018,WL,C,5.0
7,24.29100012779236,immed,35708.99987220764,Tue May 20 2025 18:54:48 GMT-0500 (Central Daylight Time),898092.7999999523,A,d,I,d,743,2,749.6999999284744,897343.1000000238,8018,WL,C,6.0
7,24.591000080108643,immed,35408.99991989136,Tue May 20 2025 18:54:48 GMT-0500 (Central Daylight Time),898392.7000000477,A,do,I,o,280,2,1049.6000000238419,897343.1000000238,8018,WL,C,6.0
7,25.10800004005432,immed,34891.99995994568,Tue May 20 2025 18:54:48 GMT-0500 (Central Daylight Time),898909.2000000477,A,doc,I,c,508,2,1566.1000000238419,897343.1000000238,8018,WL,C,6.0
7,25.490999937057495,immed,34509.000062942505,Tue May 20 2025 18:54:48 GMT-0500 (Central Daylight Time),899292.2999999523,A,doct,I,t,368,2,1949.1999999284744,897343.1000000238,8018,WL,C,6.0
7,26.091000080108643,immed,33908.99991989136,Tue May 20 2025 18:54:48 GMT-0500 (Central Daylight Time),899892.1000000238,A,docto,I,o,593,2,2549.0,897343.1000000238,8018,WL,C,6.0
7,26.59000015258789,immed,33409.99984741211,Tue May 20 2025 18:54:48 GMT-0500 (Central Daylight Time),900392.0,A,doctor,I,r,480,2,3048.899999976158,897343.1000000238,8018,WL,C,6.0
7,27.457000017166138,immed,32542.999982833862,Tue May 20 2025 18:54:48 GMT-0500 (Central Daylight Time),901258.3999999762,A,doctorenter,I,enter,861,2,3915.2999999523163,897343.1000000238,8018,WL,C,6.0
7,28.35599994659424,immed,31644.00005340576,Tue May 20 2025 18:54:48 GMT-0500 (Central Daylight Time),902158.0,A,c,I,c,883,2,899.3999999761581,901258.6000000238,8018,WL,C,7.0
7,28.67300009727478,immed,31326.99990272522,Tue May 20 2025 18:54:48 GMT-0500 (Central Daylight Time),902474.7999999523,A,ca,I,a,311,2,1216.1999999284744,901258.6000000238,8018,WL,C,7.0
7,29.77300000190735,immed,30226.99999809265,Tue May 20 2025 18:54:48 GMT-0500 (Central Daylight Time),903574.2999999523,A,cam,I,m,1091,2,2315.6999999284744,901258.6000000238,8018,WL,C,7.0
7,30.138999938964844,immed,29861.000061035156,Tue May 20 2025 18:54:48 GMT-0500 (Central Daylight Time),903940.7999999523,A,camp,I,p,359,2,2682.1999999284744,901258.6000000238,8018,WL,C,7.0
7,30.706000089645386,immed,29293.999910354614,Tue May 20 2025 18:54:48 GMT-0500 (Central Daylight Time),904507.5,A,campenter,I,enter,560,2,3248.899999976158,901258.6000000238,8018,WL,C,7.0
7,31.871999979019165,immed,28128.000020980835,Tue May 20 2025 18:54:48 GMT-0500 (Central Daylight Time),905673.7000000477,A,c,I,c,1154,2,1166.0,904507.7000000477,8018,WL,C,8.0
7,32.33899998664856,immed,27661.00001335144,Tue May 20 2025 18:54:48 GMT-0500 (Central Daylight Time),906140.0,A,co,I,o,460,2,1632.2999999523163,904507.7000000477,8018,WL,C,8.0
7,32.78800010681152,immed,27211.999893188477,Tue May 20 2025 18:54:48 GMT-0500 (Central Daylight Time),906589.8999999762,A,cor,I,r,441,2,2082.1999999284744,904507.7000000477,8018,WL,C,8.0
7,33.605000019073486,immed,26394.999980926514,Tue May 20 2025 18:54:48 GMT-0500 (Central Daylight Time),907406.6000000238,A,corn,I,n,799,2,2898.899999976158,904507.7000000477,8018,WL,C,8.0
7,34.687999963760376,immed,25312.000036239624,Tue May 20 2025 18:54:48 GMT-0500 (Central Daylight Time),908489.5,A,cornenter,I,enter,1062,2,3981.7999999523163,904507.7000000477,8018,WL,C,8.0
7,35.33800005912781,immed,24661.999940872192,Tue May 20 2025 18:54:48 GMT-0500 (Central Daylight Time),909139.3999999762,A,n,I,n,635,2,649.7999999523163,908489.6000000238,8018,WL,C,9.0
7,35.65400004386902,immed,24345.99995613098,Tue May 20 2025 18:54:48 GMT-0500 (Central Daylight Time),909455.7999999523,A,na,I,a,306,2,966.1999999284744,908489.6000000238,8018,WL,C,9.0
7,36.00399994850159,immed,23996.000051498413,Tue May 20 2025 18:54:48 GMT-0500 (Central Daylight Time),909805.7000000477,A,nai,I,i,334,2,1316.1000000238419,908489.6000000238,8018,WL,C,9.0
7,36.37100005149841,immed,23628.999948501587,Tue May 20 2025 18:54:48 GMT-0500 (Central Daylight Time),910172.5,A,nail,I,l,351,2,1682.8999999761581,908489.6000000238,8018,WL,C,9.0
7,37.47000002861023,immed,22529.99997138977,Tue May 20 2025 18:54:48 GMT-0500 (Central Daylight Time),911271.8999999762,A,nailenter,I,enter,1080,2,2782.2999999523163,908489.6000000238,8018,WL,C,9.0
7,39.97000002861023,immed,20029.99997138977,Tue May 20 2025 18:54:48 GMT-0500 (Central Daylight Time),913771.3999999762,A,s,I,s,2486,2,2499.1999999284744,911272.2000000477,8018,WL,C,10.0
7,40.35300016403198,immed,19646.999835968018,Tue May 20 2025 18:54:48 GMT-0500 (Central Daylight Time),914154.7999999523,A,sh,I,h,370,2,2882.5999999046326,911272.2000000477,8018,WL,C,10.0
7,40.753000020980835,immed,19246.999979019165,Tue May 20 2025 18:54:48 GMT-0500 (Central Daylight Time),914554.5,A,sho,I,o,395,2,3282.2999999523163,911272.2000000477,8018,WL,C,10.0
7,41.16900014877319,immed,18830.999851226807,Tue May 20 2025 18:54:48 GMT-0500 (Central Daylight Time),914970.8999999762,A,shor,I,r,411,2,3698.6999999284744,911272.2000000477,8018,WL,C,10.0
7,41.36899995803833,immed,18631.00004196167,Tue May 20 2025 18:54:48 GMT-0500 (Central Daylight Time),915170.8999999762,A,shore,I,e,195,2,3898.6999999284744,911272.2000000477,8018,WL,C,10.0
7,42.10300016403198,immed,17896.999835968018,Tue May 20 2025 18:54:48 GMT-0500 (Central Daylight Time),915904.2999999523,A,shoreenter,I,enter,714,2,4632.099999904633,911272.2000000477,8018,WL,C,10.0
7,44.71900010108948,immed,15280.999898910522,Tue May 20 2025 18:54:48 GMT-0500 (Central Daylight Time),918520.1000000238,A,f,I,f,2605,2,2615.5,915904.6000000238,8018,WL,C,11.0
7,45.28500008583069,immed,14714.999914169312,Tue May 20 2025 18:54:48 GMT-0500 (Central Daylight Time),919086.6000000238,A,fl,I,l,557,2,3182.0,915904.6000000238,8018,WL,C,11.0
7,45.7020001411438,immed,14297.999858856201,Tue May 20 2025 18:54:48 GMT-0500 (Central Daylight Time),919503.1000000238,A,fla,I,a,407,2,3598.5,915904.6000000238,8018,WL,C,11.0
7,46.365999937057495,immed,13634.000062942505,Tue May 20 2025 18:54:48 GMT-0500 (Central Daylight Time),920167.7000000477,A,flag,I,g,660,2,4263.100000023842,915904.6000000238,8018,WL,C,11.0
7,46.818000078201294,immed,13181.999921798706,Tue May 20 2025 18:54:48 GMT-0500 (Central Daylight Time),920619.1000000238,A,flagenter,I,enter,445,2,4714.5,915904.6000000238,8018,WL,C,11.0
7,47.50100016593933,immed,12498.999834060669,Tue May 20 2025 18:54:48 GMT-0500 (Central Daylight Time),921302.3999999762,A,h,I,h,667,2,683.0,920619.3999999762,8018,WL,C,12.0
7,47.91799998283386,immed,12082.000017166138,Tue May 20 2025 18:54:48 GMT-0500 (Central Daylight Time),921719.2000000477,A,ho,I,o,407,2,1099.8000000715256,920619.3999999762,8018,WL,C,12.0
7,48.33400011062622,immed,11665.99988937378,Tue May 20 2025 18:54:48 GMT-0500 (Central Daylight Time),922135.5,A,hom,I,m,406,2,1516.1000000238419,920619.3999999762,8018,WL,C,12.0
7,48.78400015830994,immed,11215.999841690063,Tue May 20 2025 18:54:48 GMT-0500 (Central Daylight Time),922585.2999999523,A,home,I,e,430,2,1965.8999999761581,920619.3999999762,8018,WL,C,12.0
7,49.66700005531311,immed,10332.99994468689,Tue May 20 2025 18:54:48 GMT-0500 (Central Daylight Time),923468.3999999762,A,homeenter,I,enter,867,2,2849.0,920619.3999999762,8018,WL,C,12.0
7,60.013999938964844,immed,-13.99993896484375,Tue May 20 2025 18:54:48 GMT-0500 (Central Daylight Time),933815.2000000477,A,None,I,None,10342,2,10346.5,923468.7000000477,8018,WL,C,13.0
