Number,acc_sum,block,block_c,block_cond,con_img,correct,correct_response,datetime,endtime,jitter,project,response,response_time,row_sel,session_number,start_end,starttime,subject_id,task,task_vers,trial
8,0,prac,1,A,circle.png,0,m,Thu Mar 12 2026 13:37:17 GMT-0500 (Central Daylight Time),72132.20000004768,1600,O,None,1510,7,1,3894.0,68238.20000004768,7768,NTS,A,1
9,1,prac,1,A,circle.png,1,m,Thu Mar 12 2026 13:37:17 GMT-0500 (Central Daylight Time),74480.60000014305,1500,O,m,33,8,1,2322.600000143051,72158.0,7768,NTS,A,2
2,2,prac,1,A,circle.png,1,z,Thu Mar 12 2026 13:37:17 GMT-0500 (Central Daylight Time),78363.60000014305,2000,O,z,1098,2,1,3870.4000000953674,74493.20000004768,7768,NTS,A,3
7,3,prac,1,A,circle.png,1,m,Thu Mar 12 2026 13:37:17 GMT-0500 (Central Daylight Time),81695.60000014305,1700,O,m,815,6,1,3301.9000000953674,78393.70000004768,7768,NTS,A,4
4,4,prac,1,A,circle.png,1,z,Thu Mar 12 2026 13:37:17 GMT-0500 (Central Daylight Time),84561.30000019073,1400,O,z,658,4,1,2837.100000143051,81724.20000004768,7768,NTS,A,5
6,5,prac,1,A,circle.png,1,m,Thu Mar 12 2026 13:37:17 GMT-0500 (Central Daylight Time),88126.20000004768,1900,O,m,835,5,1,3533.0,84593.20000004768,7768,NTS,A,6
3,6,prac,1,A,circle.png,1,z,Thu Mar 12 2026 13:37:17 GMT-0500 (Central Daylight Time),90709.30000019073,1200,O,z,596,3,1,2569.5,88139.80000019073,7768,NTS,A,7
2,7,prac,1,A,circle.png,1,z,Thu Mar 12 2026 13:37:17 GMT-0500 (Central Daylight Time),94108.10000014305,2000,O,z,597,2,1,3377.100000143051,90731.0,7768,NTS,A,8
8,8,prac,1,A,circle.png,1,m,Thu Mar 12 2026 13:37:17 GMT-0500 (Central Daylight Time),97123.80000019073,1600,O,m,605,7,1,2989.5,94134.30000019073,7768,NTS,A,9
4,9,prac,1,A,circle.png,1,z,Thu Mar 12 2026 13:37:17 GMT-0500 (Central Daylight Time),100006.20000004768,1400,O,z,679,4,1,2859.7999999523163,97146.40000009537,7768,NTS,A,10
6,10,prac,1,A,circle.png,1,m,Thu Mar 12 2026 13:37:17 GMT-0500 (Central Daylight Time),103521.70000004768,1900,O,m,799,5,1,3493.5,100028.20000004768,7768,NTS,A,11
1,11,prac,1,A,circle.png,1,z,Thu Mar 12 2026 13:37:17 GMT-0500 (Central Daylight Time),105920.60000014305,1000,O,z,583,1,1,2380.7999999523163,103539.80000019073,7768,NTS,A,12
7,0,prac,1,B,triangle.png,0,z,Thu Mar 12 2026 13:37:17 GMT-0500 (Central Daylight Time),141259.20000004768,2000,O,None,1515,6,1,4288.799999952316,136970.40000009537,7768,NTS,A,1
9,1,prac,1,B,triangle.png,1,z,Thu Mar 12 2026 13:37:17 GMT-0500 (Central Daylight Time),144274.20000004768,1400,O,z,797,8,1,2981.0999999046326,141293.10000014305,7768,NTS,A,2
8,2,prac,1,B,triangle.png,1,m,Thu Mar 12 2026 13:37:17 GMT-0500 (Central Daylight Time),146757.10000014305,1200,O,m,498,7,1,2473.7999999523163,144283.30000019073,7768,NTS,A,3
4,2,prac,1,B,triangle.png,0,m,Thu Mar 12 2026 13:37:17 GMT-0500 (Central Daylight Time),149789.30000019073,1500,O,z,746,4,1,3021.800000190735,146767.5,7768,NTS,A,4
2,3,prac,1,B,triangle.png,1,m,Thu Mar 12 2026 13:37:17 GMT-0500 (Central Daylight Time),153404.90000009537,1700,O,m,1130,2,1,3605.5999999046326,149799.30000019073,7768,NTS,A,5
8,4,prac,1,B,triangle.png,1,m,Thu Mar 12 2026 13:37:17 GMT-0500 (Central Daylight Time),156153.90000009537,1200,O,m,742,7,1,2731.0,153422.90000009537,7768,NTS,A,6
7,5,prac,1,B,triangle.png,1,z,Thu Mar 12 2026 13:37:17 GMT-0500 (Central Daylight Time),159602.90000009537,2000,O,z,666,6,1,3437.9000000953674,156165.0,7768,NTS,A,7
4,6,prac,1,B,triangle.png,1,m,Thu Mar 12 2026 13:37:17 GMT-0500 (Central Daylight Time),162702.30000019073,1500,O,m,802,4,1,3088.9000000953674,159613.40000009537,7768,NTS,A,8
2,7,prac,1,B,triangle.png,1,m,Thu Mar 12 2026 13:37:17 GMT-0500 (Central Daylight Time),166117.90000009537,1700,O,m,905,2,1,3391.7000000476837,162726.20000004768,7768,NTS,A,9
6,8,prac,1,B,triangle.png,1,m,Thu Mar 12 2026 13:37:17 GMT-0500 (Central Daylight Time),168550.5,1000,O,m,628,5,1,2406.699999809265,166143.80000019073,7768,NTS,A,10
1,9,prac,1,B,triangle.png,1,z,Thu Mar 12 2026 13:37:17 GMT-0500 (Central Daylight Time),172032.60000014305,1900,O,z,770,1,1,3457.100000143051,168575.5,7768,NTS,A,11
3,10,prac,1,B,triangle.png,1,z,Thu Mar 12 2026 13:37:17 GMT-0500 (Central Daylight Time),175231.40000009537,1600,O,z,795,3,1,3175.7000000476837,172055.70000004768,7768,NTS,A,12
3,1,test,1,A,circle.png,1,z,Thu Mar 12 2026 13:37:17 GMT-0500 (Central Daylight Time),200156.80000019073,1200,O,z,764,3,1,1991.3000001907349,198165.5,7768,NTS,A,1
6,2,test,1,A,circle.png,1,m,Thu Mar 12 2026 13:37:17 GMT-0500 (Central Daylight Time),202688.40000009537,1900,O,m,593,5,1,2511.5,200176.90000009537,7768,NTS,A,2
2,3,test,1,A,circle.png,1,z,Thu Mar 12 2026 13:37:17 GMT-0500 (Central Daylight Time),205337.70000004768,2000,O,z,625,2,1,2641.5999999046326,202696.10000014305,7768,NTS,A,3
9,4,test,1,A,circle.png,1,m,Thu Mar 12 2026 13:37:17 GMT-0500 (Central Daylight Time),207520.90000009537,1500,O,m,661,8,1,2176.0,205344.90000009537,7768,NTS,A,4
7,5,test,1,A,circle.png,1,m,Thu Mar 12 2026 13:37:17 GMT-0500 (Central Daylight Time),210036.80000019073,1700,O,m,766,6,1,2496.0,207540.80000019073,7768,NTS,A,5
9,6,test,1,A,circle.png,1,m,Thu Mar 12 2026 13:37:17 GMT-0500 (Central Daylight Time),212269.40000009537,1500,O,m,688,8,1,2214.0999999046326,210055.30000019073,7768,NTS,A,6
7,7,test,1,A,circle.png,1,m,Thu Mar 12 2026 13:37:17 GMT-0500 (Central Daylight Time),214568.30000019073,1700,O,m,561,6,1,2279.100000143051,212289.20000004768,7768,NTS,A,7
9,8,test,1,A,circle.png,1,m,Thu Mar 12 2026 13:37:17 GMT-0500 (Central Daylight Time),216684.80000019073,1500,O,m,579,8,1,2098.4000000953674,214586.40000009537,7768,NTS,A,8
6,9,test,1,A,circle.png,1,m,Thu Mar 12 2026 13:37:17 GMT-0500 (Central Daylight Time),219183.30000019073,1900,O,m,562,5,1,2479.9000000953674,216703.40000009537,7768,NTS,A,9
3,10,test,1,A,circle.png,1,z,Thu Mar 12 2026 13:37:17 GMT-0500 (Central Daylight Time),221165.90000009537,1200,O,z,746,3,1,1963.2999999523163,219202.60000014305,7768,NTS,A,10
6,11,test,1,A,circle.png,1,m,Thu Mar 12 2026 13:37:17 GMT-0500 (Central Daylight Time),223715.40000009537,1900,O,m,616,5,1,2539.5999999046326,221175.80000019073,7768,NTS,A,11
2,12,test,1,A,circle.png,1,z,Thu Mar 12 2026 13:37:17 GMT-0500 (Central Daylight Time),226498.0,2000,O,z,742,2,1,2764.699999809265,223733.30000019073,7768,NTS,A,12
8,13,test,1,A,circle.png,1,m,Thu Mar 12 2026 13:37:17 GMT-0500 (Central Daylight Time),229130.40000009537,1600,O,m,993,7,1,2613.7000000476837,226516.70000004768,7768,NTS,A,13
3,14,test,1,A,circle.png,1,z,Thu Mar 12 2026 13:37:17 GMT-0500 (Central Daylight Time),231279.70000004768,1200,O,z,910,3,1,2131.7999999523163,229147.90000009537,7768,NTS,A,14
7,15,test,1,A,circle.png,1,m,Thu Mar 12 2026 13:37:17 GMT-0500 (Central Daylight Time),234144.90000009537,1700,O,m,1117,6,1,2846.7999999523163,231298.10000014305,7768,NTS,A,15
8,16,test,1,A,circle.png,1,m,Thu Mar 12 2026 13:37:17 GMT-0500 (Central Daylight Time),236427.5,1600,O,m,662,7,1,2275.5999999046326,234151.90000009537,7768,NTS,A,16
1,17,test,1,A,circle.png,1,z,Thu Mar 12 2026 13:37:17 GMT-0500 (Central Daylight Time),238227.20000004768,1000,O,z,766,1,1,1790.8999998569489,236436.30000019073,7768,NTS,A,17
2,17,test,1,A,circle.png,0,z,Thu Mar 12 2026 13:37:17 GMT-0500 (Central Daylight Time),241759.10000014305,2000,O,None,1514,2,1,3520.600000143051,238238.5,7768,NTS,A,18
2,18,test,1,A,circle.png,1,z,Thu Mar 12 2026 13:37:17 GMT-0500 (Central Daylight Time),244558.5,2000,O,z,779,2,1,2792.199999809265,241766.30000019073,7768,NTS,A,19
4,19,test,1,A,circle.png,1,z,Thu Mar 12 2026 13:37:17 GMT-0500 (Central Daylight Time),246841.10000014305,1400,O,z,843,4,1,2261.5,244579.60000014305,7768,NTS,A,20
4,20,test,1,A,circle.png,1,z,Thu Mar 12 2026 13:37:17 GMT-0500 (Central Daylight Time),248823.90000009537,1400,O,z,537,4,1,1967.9000000953674,246856.0,7768,NTS,A,21
9,21,test,1,A,circle.png,1,m,Thu Mar 12 2026 13:37:17 GMT-0500 (Central Daylight Time),250906.40000009537,1500,O,m,543,8,1,2064.7999999523163,248841.60000014305,7768,NTS,A,22
1,22,test,1,A,circle.png,1,z,Thu Mar 12 2026 13:37:17 GMT-0500 (Central Daylight Time),252638.60000014305,1000,O,z,694,1,1,1715.1000001430511,250923.5,7768,NTS,A,23
4,23,test,1,A,circle.png,1,z,Thu Mar 12 2026 13:37:17 GMT-0500 (Central Daylight Time),254805.40000009537,1400,O,z,748,4,1,2162.2999999523163,252643.10000014305,7768,NTS,A,24
9,1,test,1,B,triangle.png,1,z,Thu Mar 12 2026 13:37:17 GMT-0500 (Central Daylight Time),269917.10000014305,1400,O,z,983,8,1,2416.0,267501.10000014305,7768,NTS,A,1
1,2,test,1,B,triangle.png,1,z,Thu Mar 12 2026 13:37:17 GMT-0500 (Central Daylight Time),271949.40000009537,1400,O,z,599,9,1,2013.9000000953674,269935.5,7768,NTS,A,2
7,3,test,1,B,triangle.png,1,z,Thu Mar 12 2026 13:37:17 GMT-0500 (Central Daylight Time),274181.5,1600,O,z,597,14,1,2207.699999809265,271973.80000019073,7768,NTS,A,3
9,4,test,1,B,triangle.png,1,z,Thu Mar 12 2026 13:37:17 GMT-0500 (Central Daylight Time),276698.10000014305,1900,O,z,595,16,1,2511.7000000476837,274186.40000009537,7768,NTS,A,4
2,5,test,1,B,triangle.png,1,m,Thu Mar 12 2026 13:37:17 GMT-0500 (Central Daylight Time),278430.2000000477,1200,O,m,495,10,1,1712.7999999523163,276717.40000009537,7768,NTS,A,5
6,6,test,1,B,triangle.png,1,m,Thu Mar 12 2026 13:37:17 GMT-0500 (Central Daylight Time),280447.0,1500,O,m,489,13,1,2011.3999998569489,278435.60000014305,7768,NTS,A,6
3,7,test,1,B,triangle.png,1,z,Thu Mar 12 2026 13:37:17 GMT-0500 (Central Daylight Time),282796.0,1600,O,z,708,3,1,2329.699999809265,280466.30000019073,7768,NTS,A,7
1,8,test,1,B,triangle.png,1,z,Thu Mar 12 2026 13:37:17 GMT-0500 (Central Daylight Time),285378.7000000477,1900,O,z,634,1,1,2564.5999999046326,282814.10000014305,7768,NTS,A,8
1,9,test,1,B,triangle.png,1,z,Thu Mar 12 2026 13:37:17 GMT-0500 (Central Daylight Time),287794.60000014305,1900,O,z,469,1,1,2396.2000000476837,285398.40000009537,7768,NTS,A,9
6,10,test,1,B,triangle.png,1,m,Thu Mar 12 2026 13:37:17 GMT-0500 (Central Daylight Time),289743.90000009537,1000,O,m,905,5,1,1930.4000000953674,287813.5,7768,NTS,A,10
1,11,test,1,B,triangle.png,1,z,Thu Mar 12 2026 13:37:17 GMT-0500 (Central Daylight Time),291876.60000014305,1400,O,z,692,9,1,2115.7000000476837,289760.90000009537,7768,NTS,A,11
6,12,test,1,B,triangle.png,1,m,Thu Mar 12 2026 13:37:17 GMT-0500 (Central Daylight Time),294175.0,1500,O,m,761,13,1,2280.199999809265,291894.80000019073,7768,NTS,A,12
4,13,test,1,B,triangle.png,1,m,Thu Mar 12 2026 13:37:17 GMT-0500 (Central Daylight Time),295808.60000014305,1000,O,m,604,12,1,1628.2999999523163,294180.30000019073,7768,NTS,A,13
3,14,test,1,B,triangle.png,1,z,Thu Mar 12 2026 13:37:17 GMT-0500 (Central Daylight Time),298224.5,1600,O,z,779,3,1,2398.0,295826.5,7768,NTS,A,14
3,15,test,1,B,triangle.png,1,z,Thu Mar 12 2026 13:37:17 GMT-0500 (Central Daylight Time),301006.2000000477,2000,O,z,738,11,1,2762.2999999523163,298243.90000009537,7768,NTS,A,15
7,16,test,1,B,triangle.png,1,z,Thu Mar 12 2026 13:37:17 GMT-0500 (Central Daylight Time),303288.90000009537,1600,O,z,653,14,1,2277.9000000953674,301011.0,7768,NTS,A,16
8,17,test,1,B,triangle.png,1,m,Thu Mar 12 2026 13:37:17 GMT-0500 (Central Daylight Time),305054.80000019073,1200,O,m,538,7,1,1758.4000000953674,303296.40000009537,7768,NTS,A,17
2,18,test,1,B,triangle.png,1,m,Thu Mar 12 2026 13:37:17 GMT-0500 (Central Daylight Time),307037.40000009537,1200,O,m,762,10,1,1977.2000000476837,305060.2000000477,7768,NTS,A,18
8,19,test,1,B,triangle.png,1,m,Thu Mar 12 2026 13:37:17 GMT-0500 (Central Daylight Time),309337.5,1700,O,m,578,15,1,2292.699999809265,307044.80000019073,7768,NTS,A,19
2,20,test,1,B,triangle.png,1,m,Thu Mar 12 2026 13:37:17 GMT-0500 (Central Daylight Time),311653.30000019073,1700,O,m,574,2,1,2297.0,309356.30000019073,7768,NTS,A,20
4,21,test,1,B,triangle.png,1,m,Thu Mar 12 2026 13:37:17 GMT-0500 (Central Daylight Time),313736.2000000477,1500,O,m,538,4,1,2063.0,311673.2000000477,7768,NTS,A,21
3,22,test,1,B,triangle.png,1,z,Thu Mar 12 2026 13:37:17 GMT-0500 (Central Daylight Time),316318.5,2000,O,z,539,11,1,2562.5999999046326,313755.90000009537,7768,NTS,A,22
7,23,test,1,B,triangle.png,1,z,Thu Mar 12 2026 13:37:17 GMT-0500 (Central Daylight Time),319284.0,2000,O,z,925,6,1,2948.399999856949,316335.60000014305,7768,NTS,A,23
7,24,test,1,B,triangle.png,1,z,Thu Mar 12 2026 13:37:17 GMT-0500 (Central Daylight Time),321900.0,2000,O,z,568,6,1,2598.5,319301.5,7768,NTS,A,24
3,0,prac,1,C,triangle.png,0,z,Thu Mar 12 2026 13:37:17 GMT-0500 (Central Daylight Time),384562.80000019073,1500,O,None,1514,3,1,3794.600000143051,380768.2000000477,7768,NTS,A,1
8,1,prac,1,C,triangle.png,1,m,Thu Mar 12 2026 13:37:17 GMT-0500 (Central Daylight Time),387745.0,1400,O,m,967,7,1,3155.0,384590.0,7768,NTS,A,2
4,2,prac,1,C,circle.png,1,z,Thu Mar 12 2026 13:37:17 GMT-0500 (Central Daylight Time),390594.2000000477,1000,O,z,1042,4,1,2822.899999856949,387771.30000019073,7768,NTS,A,3
1,3,prac,1,C,circle.png,1,z,Thu Mar 12 2026 13:37:17 GMT-0500 (Central Daylight Time),394059.90000009537,1700,O,z,966,1,1,3441.0,390618.90000009537,7768,NTS,A,4
9,4,prac,1,C,circle.png,1,m,Thu Mar 12 2026 13:37:17 GMT-0500 (Central Daylight Time),397791.80000019073,1900,O,m,1020,8,1,3706.7000000476837,394085.10000014305,7768,NTS,A,5
2,4,prac,1,C,triangle.png,0,m,Thu Mar 12 2026 13:37:17 GMT-0500 (Central Daylight Time),401707.0,1600,O,None,1515,2,1,3890.5,397816.5,7768,NTS,A,6
6,5,prac,1,C,circle.png,1,m,Thu Mar 12 2026 13:37:17 GMT-0500 (Central Daylight Time),405672.40000009537,2000,O,m,1152,5,1,3938.5999999046326,401733.80000019073,7768,NTS,A,7
6,6,prac,1,C,circle.png,1,m,Thu Mar 12 2026 13:37:17 GMT-0500 (Central Daylight Time),409138.2000000477,2000,O,m,650,5,1,3441.899999856949,405696.30000019073,7768,NTS,A,8
2,7,prac,1,C,triangle.png,1,m,Thu Mar 12 2026 13:37:17 GMT-0500 (Central Daylight Time),412770.2000000477,1600,O,m,1226,2,1,3606.0999999046326,409164.10000014305,7768,NTS,A,9
9,7,prac,1,C,circle.png,0,m,Thu Mar 12 2026 13:37:17 GMT-0500 (Central Daylight Time),416985.10000014305,1900,O,None,1514,8,1,4189.900000095367,412795.2000000477,7768,NTS,A,10
7,7,prac,1,C,triangle.png,0,z,Thu Mar 12 2026 13:37:17 GMT-0500 (Central Daylight Time),420400.90000009537,1200,O,m,1410,6,1,3393.2000000476837,417007.7000000477,7768,NTS,A,11
8,8,prac,1,C,triangle.png,1,m,Thu Mar 12 2026 13:37:17 GMT-0500 (Central Daylight Time),423482.80000019073,1400,O,m,875,7,1,3057.300000190735,420425.5,7768,NTS,A,12
4,0,prac,2,C,circle.png,0,z,Thu Mar 12 2026 13:37:17 GMT-0500 (Central Daylight Time),429414.60000014305,1000,O,None,1516,4,1,3292.0,426122.60000014305,7768,NTS,A,1
6,1,prac,2,C,circle.png,1,m,Thu Mar 12 2026 13:37:17 GMT-0500 (Central Daylight Time),432913.40000009537,2000,O,m,686,5,1,3473.2000000476837,429440.2000000477,7768,NTS,A,2
9,2,prac,2,C,circle.png,1,m,Thu Mar 12 2026 13:37:17 GMT-0500 (Central Daylight Time),436345.2000000477,1900,O,m,726,8,1,3409.5,432935.7000000477,7768,NTS,A,3
2,3,prac,2,C,triangle.png,1,m,Thu Mar 12 2026 13:37:17 GMT-0500 (Central Daylight Time),439678.0,1600,O,m,946,2,1,3322.7999999523163,436355.2000000477,7768,NTS,A,4
9,4,prac,2,C,circle.png,1,m,Thu Mar 12 2026 13:37:17 GMT-0500 (Central Daylight Time),443126.80000019073,1900,O,m,744,8,1,3423.9000000953674,439702.90000009537,7768,NTS,A,5
8,4,prac,2,C,triangle.png,0,m,Thu Mar 12 2026 13:37:17 GMT-0500 (Central Daylight Time),446675.60000014305,1400,O,z,1349,7,1,3522.4000000953674,443153.2000000477,7768,NTS,A,6
3,5,prac,2,C,triangle.png,1,z,Thu Mar 12 2026 13:37:17 GMT-0500 (Central Daylight Time),449858.2000000477,1500,O,z,868,3,1,3158.399999856949,446699.80000019073,7768,NTS,A,7
6,6,prac,2,C,circle.png,1,m,Thu Mar 12 2026 13:37:17 GMT-0500 (Central Daylight Time),453373.40000009537,2000,O,m,714,5,1,3489.5999999046326,449883.80000019073,7768,NTS,A,8
2,7,prac,2,C,triangle.png,1,m,Thu Mar 12 2026 13:37:17 GMT-0500 (Central Daylight Time),457055.7000000477,1600,O,m,1276,2,1,3660.2000000476837,453395.5,7768,NTS,A,9
3,8,prac,2,C,triangle.png,1,z,Thu Mar 12 2026 13:37:17 GMT-0500 (Central Daylight Time),460104.7000000477,1500,O,z,737,3,1,3023.899999856949,457080.80000019073,7768,NTS,A,10
1,8,prac,2,C,circle.png,0,z,Thu Mar 12 2026 13:37:17 GMT-0500 (Central Daylight Time),463786.60000014305,1700,O,m,1166,1,1,3655.600000143051,460131.0,7768,NTS,A,11
7,8,prac,2,C,triangle.png,0,z,Thu Mar 12 2026 13:37:17 GMT-0500 (Central Daylight Time),466802.2000000477,1200,O,m,1009,6,1,2995.7000000476837,463806.5,7768,NTS,A,12
6,1,test,1,C,circle.png,1,m,Thu Mar 12 2026 13:37:17 GMT-0500 (Central Daylight Time),495909.60000014305,1900,O,m,619,5,1,2548.2999999523163,493361.30000019073,7768,NTS,A,1
7,2,test,1,C,triangle.png,1,z,Thu Mar 12 2026 13:37:17 GMT-0500 (Central Daylight Time),498625.2000000477,1700,O,z,970,6,1,2694.7000000476837,495930.5,7768,NTS,A,2
6,3,test,1,C,circle.png,1,m,Thu Mar 12 2026 13:37:17 GMT-0500 (Central Daylight Time),501441.0,1900,O,m,872,21,1,2796.0,498645.0,7768,NTS,A,3
1,4,test,1,C,triangle.png,1,z,Thu Mar 12 2026 13:37:17 GMT-0500 (Central Daylight Time),504140.0,1900,O,z,751,17,1,2680.0,501460.0,7768,NTS,A,4
4,5,test,1,C,triangle.png,1,m,Thu Mar 12 2026 13:37:17 GMT-0500 (Central Daylight Time),506522.7000000477,1500,O,m,835,12,1,2364.5999999046326,504158.10000014305,7768,NTS,A,5
8,6,test,1,C,circle.png,1,m,Thu Mar 12 2026 13:37:17 GMT-0500 (Central Daylight Time),508538.10000014305,1200,O,m,768,15,1,1996.1000001430511,506542.0,7768,NTS,A,6
3,7,test,1,C,circle.png,1,z,Thu Mar 12 2026 13:37:17 GMT-0500 (Central Daylight Time),511187.80000019073,1600,O,z,1017,19,1,2642.600000143051,508545.2000000477,7768,NTS,A,7
2,7,test,1,C,circle.png,0,z,Thu Mar 12 2026 13:37:17 GMT-0500 (Central Daylight Time),514053.80000019073,1700,O,m,1118,10,1,2848.4000000953674,511205.40000009537,7768,NTS,A,8
2,8,test,1,C,circle.png,1,z,Thu Mar 12 2026 13:37:17 GMT-0500 (Central Daylight Time),516519.10000014305,1700,O,z,722,18,1,2445.5,514073.60000014305,7768,NTS,A,9
3,8,test,1,C,triangle.png,0,z,Thu Mar 12 2026 13:37:17 GMT-0500 (Central Daylight Time),519268.30000019073,1200,O,None,1515,3,1,2729.100000143051,516539.2000000477,7768,NTS,A,10
1,9,test,1,C,triangle.png,1,z,Thu Mar 12 2026 13:37:17 GMT-0500 (Central Daylight Time),521850.90000009537,1900,O,z,652,9,1,2570.4000000953674,519280.5,7768,NTS,A,11
4,9,test,1,C,circle.png,0,z,Thu Mar 12 2026 13:37:17 GMT-0500 (Central Daylight Time),524133.0,1400,O,m,839,4,1,2262.5999999046326,521870.40000009537,7768,NTS,A,12
6,9,test,1,C,triangle.png,0,m,Thu Mar 12 2026 13:37:17 GMT-0500 (Central Daylight Time),526265.7000000477,1000,O,z,1093,13,1,2113.5,524152.2000000477,7768,NTS,A,13
9,9,test,1,C,circle.png,0,m,Thu Mar 12 2026 13:37:17 GMT-0500 (Central Daylight Time),529081.8000001907,1500,O,z,1271,24,1,2797.4000000953674,526284.4000000954,7768,NTS,A,14
7,9,test,1,C,circle.png,0,m,Thu Mar 12 2026 13:37:17 GMT-0500 (Central Daylight Time),532630.9000000954,2000,O,None,1517,14,1,3534.4000000953674,529096.5,7768,NTS,A,15
8,9,test,1,C,triangle.png,0,m,Thu Mar 12 2026 13:37:17 GMT-0500 (Central Daylight Time),535263.2000000477,1600,O,z,989,23,1,2613.2999999523163,532649.9000000954,7768,NTS,A,16
8,10,test,1,C,triangle.png,1,m,Thu Mar 12 2026 13:37:17 GMT-0500 (Central Daylight Time),537613.0,1600,O,m,717,7,1,2331.199999809265,535281.8000001907,7768,NTS,A,17
3,10,test,1,C,circle.png,0,z,Thu Mar 12 2026 13:37:17 GMT-0500 (Central Daylight Time),540760.8000001907,1600,O,None,1515,11,1,3128.0,537632.8000001907,7768,NTS,A,18
9,10,test,1,C,triangle.png,0,z,Thu Mar 12 2026 13:37:17 GMT-0500 (Central Daylight Time),543693.8000001907,1400,O,None,1516,16,1,2925.600000143051,540768.2000000477,7768,NTS,A,19
4,11,test,1,C,triangle.png,1,m,Thu Mar 12 2026 13:37:17 GMT-0500 (Central Daylight Time),546176.0,1500,O,m,937,20,1,2463.0,543713.0,7768,NTS,A,20
9,12,test,1,C,circle.png,1,m,Thu Mar 12 2026 13:37:17 GMT-0500 (Central Daylight Time),548991.5,1500,O,m,1279,8,1,2797.7999999523163,546193.7000000477,7768,NTS,A,21
2,13,test,1,C,triangle.png,1,m,Thu Mar 12 2026 13:37:17 GMT-0500 (Central Daylight Time),552474.3000001907,2000,O,m,1453,2,1,3470.9000000953674,549003.4000000954,7768,NTS,A,22
1,14,test,1,C,circle.png,1,z,Thu Mar 12 2026 13:37:17 GMT-0500 (Central Daylight Time),554823.5,1000,O,z,1306,1,1,2328.2999999523163,552495.2000000477,7768,NTS,A,23
7,15,test,1,C,triangle.png,1,z,Thu Mar 12 2026 13:37:17 GMT-0500 (Central Daylight Time),557722.5,1700,O,z,1160,22,1,2879.399999856949,554843.100000143,7768,NTS,A,24
8,1,test,2,C,triangle.png,1,m,Thu Mar 12 2026 13:37:17 GMT-0500 (Central Daylight Time),603307.9000000954,1600,O,m,1042,7,1,2665.0,600642.9000000954,7768,NTS,A,1
4,2,test,2,C,triangle.png,1,m,Thu Mar 12 2026 13:37:17 GMT-0500 (Central Daylight Time),605640.2000000477,1500,O,m,788,20,1,2313.7999999523163,603326.4000000954,7768,NTS,A,2
8,3,test,2,C,circle.png,1,m,Thu Mar 12 2026 13:37:17 GMT-0500 (Central Daylight Time),607755.4000000954,1200,O,m,898,23,1,2104.7000000476837,605650.7000000477,7768,NTS,A,3
2,4,test,2,C,circle.png,1,z,Thu Mar 12 2026 13:37:17 GMT-0500 (Central Daylight Time),610138.4000000954,1700,O,z,661,18,1,2377.4000000953674,607761.0,7768,NTS,A,4
7,4,test,2,C,triangle.png,0,z,Thu Mar 12 2026 13:37:17 GMT-0500 (Central Daylight Time),613203.600000143,1700,O,m,1349,6,1,3052.0,610151.600000143,7768,NTS,A,5
9,5,test,2,C,circle.png,1,m,Thu Mar 12 2026 13:37:17 GMT-0500 (Central Daylight Time),615770.100000143,1500,O,m,1036,8,1,2558.600000143051,613211.5,7768,NTS,A,6
4,5,test,2,C,circle.png,0,z,Thu Mar 12 2026 13:37:17 GMT-0500 (Central Daylight Time),618452.600000143,1400,O,m,1241,4,1,2663.7000000476837,615788.9000000954,7768,NTS,A,7
4,6,test,2,C,triangle.png,1,m,Thu Mar 12 2026 13:37:17 GMT-0500 (Central Daylight Time),621101.2000000477,1500,O,m,1106,12,1,2627.0999999046326,618474.100000143,7768,NTS,A,8
6,7,test,2,C,circle.png,1,m,Thu Mar 12 2026 13:37:17 GMT-0500 (Central Daylight Time),624017.5,1900,O,m,987,5,1,2907.199999809265,621110.3000001907,7768,NTS,A,9
1,8,test,2,C,triangle.png,1,z,Thu Mar 12 2026 13:37:17 GMT-0500 (Central Daylight Time),626982.9000000954,1900,O,z,1030,9,1,2947.5,624035.4000000954,7768,NTS,A,10
9,9,test,2,C,triangle.png,1,z,Thu Mar 12 2026 13:37:17 GMT-0500 (Central Daylight Time),629448.9000000954,1400,O,z,1028,24,1,2446.5999999046326,627002.3000001907,7768,NTS,A,11
1,10,test,2,C,circle.png,1,z,Thu Mar 12 2026 13:37:17 GMT-0500 (Central Daylight Time),631215.100000143,1000,O,z,723,1,1,1746.2999999523163,629468.8000001907,7768,NTS,A,12
6,10,test,2,C,triangle.png,0,m,Thu Mar 12 2026 13:37:17 GMT-0500 (Central Daylight Time),633681.0,1000,O,z,1420,21,1,2445.7999999523163,631235.2000000477,7768,NTS,A,13
2,11,test,2,C,triangle.png,1,m,Thu Mar 12 2026 13:37:17 GMT-0500 (Central Daylight Time),636962.9000000954,2000,O,m,1235,2,1,3261.0,633701.9000000954,7768,NTS,A,14
7,11,test,2,C,circle.png,0,m,Thu Mar 12 2026 13:37:17 GMT-0500 (Central Daylight Time),640495.2000000477,2000,O,None,1514,22,1,3522.0,636973.2000000477,7768,NTS,A,15
6,11,test,2,C,triangle.png,0,m,Thu Mar 12 2026 13:37:17 GMT-0500 (Central Daylight Time),643027.600000143,1000,O,None,1515,13,1,2519.2999999523163,640508.3000001907,7768,NTS,A,16
1,12,test,2,C,triangle.png,1,z,Thu Mar 12 2026 13:37:17 GMT-0500 (Central Daylight Time),646077.0,1900,O,z,1116,17,1,3029.5999999046326,643047.4000000954,7768,NTS,A,17
3,13,test,2,C,circle.png,1,z,Thu Mar 12 2026 13:37:17 GMT-0500 (Central Daylight Time),649008.5,1600,O,z,1294,11,1,2908.7999999523163,646099.7000000477,7768,NTS,A,18
7,13,test,2,C,circle.png,0,m,Thu Mar 12 2026 13:37:17 GMT-0500 (Central Daylight Time),652258.0,2000,O,z,1227,14,1,3238.5999999046326,649019.4000000954,7768,NTS,A,19
3,14,test,2,C,circle.png,1,z,Thu Mar 12 2026 13:37:17 GMT-0500 (Central Daylight Time),655123.9000000954,1600,O,z,1226,19,1,2845.9000000953674,652278.0,7768,NTS,A,20
3,15,test,2,C,triangle.png,1,z,Thu Mar 12 2026 13:37:17 GMT-0500 (Central Daylight Time),657456.100000143,1200,O,z,1095,3,1,2312.5,655143.600000143,7768,NTS,A,21
8,16,test,2,C,circle.png,1,m,Thu Mar 12 2026 13:37:17 GMT-0500 (Central Daylight Time),659556.0,1200,O,m,869,15,1,2088.2999999523163,657467.7000000477,7768,NTS,A,22
2,17,test,2,C,circle.png,1,z,Thu Mar 12 2026 13:37:17 GMT-0500 (Central Daylight Time),662687.8000001907,1700,O,z,1396,10,1,3112.4000000953674,659575.4000000954,7768,NTS,A,23
9,17,test,2,C,triangle.png,0,z,Thu Mar 12 2026 13:37:17 GMT-0500 (Central Daylight Time),665636.5,1400,O,None,1514,16,1,2931.7999999523163,662704.7000000477,7768,NTS,A,24
9,1,test,3,C,circle.png,1,m,Thu Mar 12 2026 13:37:17 GMT-0500 (Central Daylight Time),697660.100000143,1500,O,m,992,24,1,2515.2000000476837,695144.9000000954,7768,NTS,A,1
4,2,test,3,C,circle.png,1,z,Thu Mar 12 2026 13:37:17 GMT-0500 (Central Daylight Time),699992.5,1400,O,z,895,20,1,2311.199999809265,697681.3000001907,7768,NTS,A,2
1,3,test,3,C,triangle.png,1,z,Thu Mar 12 2026 13:37:17 GMT-0500 (Central Daylight Time),702724.9000000954,1900,O,z,791,9,1,2712.7999999523163,700012.100000143,7768,NTS,A,3
7,4,test,3,C,triangle.png,1,z,Thu Mar 12 2026 13:37:17 GMT-0500 (Central Daylight Time),705324.100000143,1700,O,z,859,6,1,2578.7000000476837,702745.4000000954,7768,NTS,A,4
8,5,test,3,C,triangle.png,1,m,Thu Mar 12 2026 13:37:17 GMT-0500 (Central Daylight Time),707773.2000000477,1600,O,m,808,7,1,2430.399999856949,705342.8000001907,7768,NTS,A,5
3,6,test,3,C,circle.png,1,z,Thu Mar 12 2026 13:37:17 GMT-0500 (Central Daylight Time),710888.9000000954,1600,O,z,1470,11,1,3097.0,707791.9000000954,7768,NTS,A,6
2,7,test,3,C,circle.png,1,z,Thu Mar 12 2026 13:37:17 GMT-0500 (Central Daylight Time),713820.8000001907,1700,O,z,1190,10,1,2913.100000143051,710907.7000000477,7768,NTS,A,7
4,8,test,3,C,circle.png,1,z,Thu Mar 12 2026 13:37:17 GMT-0500 (Central Daylight Time),716203.5,1400,O,z,949,4,1,2376.2999999523163,713827.2000000477,7768,NTS,A,8
8,9,test,3,C,triangle.png,1,m,Thu Mar 12 2026 13:37:17 GMT-0500 (Central Daylight Time),719202.3000001907,1600,O,m,1374,23,1,2993.100000143051,716209.2000000477,7768,NTS,A,9
7,10,test,3,C,triangle.png,1,z,Thu Mar 12 2026 13:37:17 GMT-0500 (Central Daylight Time),722052.100000143,1700,O,z,1126,22,1,2842.2000000476837,719209.9000000954,7768,NTS,A,10
3,11,test,3,C,triangle.png,1,z,Thu Mar 12 2026 13:37:17 GMT-0500 (Central Daylight Time),724000.600000143,1200,O,z,699,19,1,1929.9000000953674,722070.7000000477,7768,NTS,A,11
6,12,test,3,C,circle.png,1,m,Thu Mar 12 2026 13:37:17 GMT-0500 (Central Daylight Time),727366.4000000954,1900,O,m,1447,21,1,3357.7000000476837,724008.7000000477,7768,NTS,A,12
9,12,test,3,C,circle.png,0,m,Thu Mar 12 2026 13:37:17 GMT-0500 (Central Daylight Time),730099.2000000477,1500,O,z,1194,8,1,2713.5,727385.7000000477,7768,NTS,A,13
1,13,test,3,C,circle.png,1,z,Thu Mar 12 2026 13:37:17 GMT-0500 (Central Daylight Time),732398.4000000954,1000,O,z,1256,17,1,2280.0999999046326,730118.3000001907,7768,NTS,A,14
7,14,test,3,C,circle.png,1,m,Thu Mar 12 2026 13:37:17 GMT-0500 (Central Daylight Time),735880.0,2000,O,m,1436,14,1,3462.899999856949,732417.100000143,7768,NTS,A,15
2,14,test,3,C,triangle.png,0,m,Thu Mar 12 2026 13:37:17 GMT-0500 (Central Daylight Time),739329.600000143,2000,O,z,1420,2,1,3442.100000143051,735887.5,7768,NTS,A,16
6,15,test,3,C,triangle.png,1,m,Thu Mar 12 2026 13:37:17 GMT-0500 (Central Daylight Time),741395.600000143,1000,O,m,1026,13,1,2047.6000001430511,739348.0,7768,NTS,A,17
3,16,test,3,C,triangle.png,1,z,Thu Mar 12 2026 13:37:17 GMT-0500 (Central Daylight Time),743445.2000000477,1200,O,z,816,3,1,2028.5,741416.7000000477,7768,NTS,A,18
8,17,test,3,C,circle.png,1,m,Thu Mar 12 2026 13:37:17 GMT-0500 (Central Daylight Time),746110.4000000954,1200,O,m,1431,15,1,2646.2000000476837,743464.2000000477,7768,NTS,A,19
6,18,test,3,C,circle.png,1,m,Thu Mar 12 2026 13:37:17 GMT-0500 (Central Daylight Time),748808.9000000954,1900,O,m,759,5,1,2680.7999999523163,746128.100000143,7768,NTS,A,20
4,19,test,3,C,triangle.png,1,m,Thu Mar 12 2026 13:37:17 GMT-0500 (Central Daylight Time),751325.600000143,1500,O,m,983,12,1,2511.4000000953674,748814.2000000477,7768,NTS,A,21
1,20,test,3,C,circle.png,1,z,Thu Mar 12 2026 13:37:17 GMT-0500 (Central Daylight Time),753724.9000000954,1000,O,z,1358,1,1,2379.7000000476837,751345.2000000477,7768,NTS,A,22
2,20,test,3,C,triangle.png,0,m,Thu Mar 12 2026 13:37:17 GMT-0500 (Central Daylight Time),757273.5,2000,O,None,1515,18,1,3528.7999999523163,753744.7000000477,7768,NTS,A,23
9,20,test,3,C,triangle.png,0,z,Thu Mar 12 2026 13:37:17 GMT-0500 (Central Daylight Time),759789.4000000954,1400,O,m,1066,16,1,2496.2999999523163,757293.100000143,7768,NTS,A,24
1,0,test,4,C,circle.png,0,z,Thu Mar 12 2026 13:37:17 GMT-0500 (Central Daylight Time),770651.9000000954,1000,O,None,1515,17,1,2530.4000000953674,768121.5,7768,NTS,A,1
3,1,test,4,C,triangle.png,1,z,Thu Mar 12 2026 13:37:17 GMT-0500 (Central Daylight Time),772868.600000143,1200,O,z,992,19,1,2208.7000000476837,770659.9000000954,7768,NTS,A,2
7,2,test,4,C,triangle.png,1,z,Thu Mar 12 2026 13:37:17 GMT-0500 (Central Daylight Time),776034.0,1700,O,z,1418,22,1,3146.5,772887.5,7768,NTS,A,3
7,3,test,4,C,circle.png,1,m,Thu Mar 12 2026 13:37:17 GMT-0500 (Central Daylight Time),779000.0,2000,O,m,922,14,1,2950.899999856949,776049.100000143,7768,NTS,A,4
9,4,test,4,C,circle.png,1,m,Thu Mar 12 2026 13:37:17 GMT-0500 (Central Daylight Time),781614.9000000954,1500,O,m,1071,8,1,2595.7000000476837,779019.2000000477,7768,NTS,A,5
4,4,test,4,C,triangle.png,0,m,Thu Mar 12 2026 13:37:17 GMT-0500 (Central Daylight Time),784647.9000000954,1500,O,None,1516,12,1,3021.5,781626.4000000954,7768,NTS,A,6
8,5,test,4,C,triangle.png,1,m,Thu Mar 12 2026 13:37:17 GMT-0500 (Central Daylight Time),787596.7000000477,1600,O,m,1301,23,1,2930.2999999523163,784666.4000000954,7768,NTS,A,7
1,6,test,4,C,triangle.png,1,z,Thu Mar 12 2026 13:37:17 GMT-0500 (Central Daylight Time),790895.600000143,1900,O,z,1364,9,1,3280.2000000476837,787615.4000000954,7768,NTS,A,8
2,7,test,4,C,circle.png,1,z,Thu Mar 12 2026 13:37:17 GMT-0500 (Central Daylight Time),793644.8000001907,1700,O,z,1001,10,1,2730.2000000476837,790914.600000143,7768,NTS,A,9
6,8,test,4,C,circle.png,1,m,Thu Mar 12 2026 13:37:17 GMT-0500 (Central Daylight Time),796476.7000000477,1900,O,m,913,21,1,2819.0,793657.7000000477,7768,NTS,A,10
4,9,test,4,C,circle.png,1,z,Thu Mar 12 2026 13:37:17 GMT-0500 (Central Daylight Time),799009.7000000477,1400,O,z,1102,20,1,2526.5,796483.2000000477,7768,NTS,A,11
9,10,test,4,C,circle.png,1,m,Thu Mar 12 2026 13:37:17 GMT-0500 (Central Daylight Time),801458.4000000954,1500,O,m,909,24,1,2433.0999999046326,799025.3000001907,7768,NTS,A,12
1,11,test,4,C,circle.png,1,z,Thu Mar 12 2026 13:37:17 GMT-0500 (Central Daylight Time),803624.2000000477,1000,O,z,1136,1,1,2159.399999856949,801464.8000001907,7768,NTS,A,13
6,12,test,4,C,circle.png,1,m,Thu Mar 12 2026 13:37:17 GMT-0500 (Central Daylight Time),806423.600000143,1900,O,m,871,5,1,2793.5,803630.100000143,7768,NTS,A,14
7,13,test,4,C,triangle.png,1,z,Thu Mar 12 2026 13:37:17 GMT-0500 (Central Daylight Time),808923.100000143,1700,O,z,775,6,1,2492.0,806431.100000143,7768,NTS,A,15
6,14,test,4,C,triangle.png,1,m,Thu Mar 12 2026 13:37:17 GMT-0500 (Central Daylight Time),810938.600000143,1000,O,m,984,13,1,2004.2999999523163,808934.3000001907,7768,NTS,A,16
4,15,test,4,C,circle.png,1,z,Thu Mar 12 2026 13:37:17 GMT-0500 (Central Daylight Time),813488.600000143,1400,O,z,1122,4,1,2545.4000000953674,810943.2000000477,7768,NTS,A,17
8,16,test,4,C,circle.png,1,m,Thu Mar 12 2026 13:37:17 GMT-0500 (Central Daylight Time),815487.3000001907,1200,O,m,762,15,1,1979.2000000476837,813508.100000143,7768,NTS,A,18
8,16,test,4,C,triangle.png,0,m,Thu Mar 12 2026 13:37:17 GMT-0500 (Central Daylight Time),818603.600000143,1600,O,None,1501,7,1,3108.9000000953674,815494.7000000477,7768,NTS,A,19
3,17,test,4,C,circle.png,1,z,Thu Mar 12 2026 13:37:17 GMT-0500 (Central Daylight Time),821435.8000001907,1600,O,z,1192,11,1,2814.0,818621.8000001907,7768,NTS,A,20
2,18,test,4,C,triangle.png,1,m,Thu Mar 12 2026 13:37:17 GMT-0500 (Central Daylight Time),824717.9000000954,2000,O,m,1248,2,1,3263.0999999046326,821454.8000001907,7768,NTS,A,21
9,18,test,4,C,triangle.png,0,z,Thu Mar 12 2026 13:37:17 GMT-0500 (Central Daylight Time),826967.2000000477,1400,O,m,806,16,1,2230.5,824736.7000000477,7768,NTS,A,22
2,18,test,4,C,triangle.png,0,m,Thu Mar 12 2026 13:37:17 GMT-0500 (Central Daylight Time),829866.5,2000,O,z,852,18,1,2880.199999809265,826986.3000001907,7768,NTS,A,23
3,19,test,4,C,triangle.png,1,z,Thu Mar 12 2026 13:37:17 GMT-0500 (Central Daylight Time),831882.5,1200,O,z,770,3,1,1993.5,829889.0,7768,NTS,A,24
