acc_sum,block,block_c,block_cond,con_img,correct,correct_response,datetime,endtime,face,jitter,line,project,response,response_time,row_sel,session_number,start_end,starttime,subject_id,task,task_vers,trial
1,prac,1,A,haborder.png,1,z,Tue Jun 09 2026 16:18:03 GMT-0400 (Eastern Daylight Time),267723.8000000119,CFD-BF-002-018-A.jpg,1200,solid,I,z,1202,6,2,3200.100000023842,264523.6999999881,9059,ATS,C,1
2,prac,1,A,haborder.png,1,z,Tue Jun 09 2026 16:18:03 GMT-0400 (Eastern Daylight Time),270890.1999999881,CFD-WF-037-016-A.jpg,1600,solid,I,z,768,10,2,6366.5,264523.6999999881,9059,ATS,C,2
3,prac,1,A,haborder.png,1,z,Tue Jun 09 2026 16:18:03 GMT-0400 (Eastern Daylight Time),273390.40000003576,CFD-WF-023-013-A.jpg,1000,solid,I,z,713,12,2,8866.700000047684,264523.6999999881,9059,ATS,C,3
4,prac,1,A,haborder.png,1,z,Tue Jun 09 2026 16:18:03 GMT-0400 (Eastern Daylight Time),276457.0,CFD-BM-043-014-A.jpg,1600,solid,I,z,669,2,2,11933.300000011921,264523.6999999881,9059,ATS,C,4
5,prac,1,A,haborder.png,1,m,Tue Jun 09 2026 16:18:03 GMT-0400 (Eastern Daylight Time),279707.0,CFD-WM-035-036-HC.jpg,1700,solid,I,m,750,9,2,15183.300000011921,264523.6999999881,9059,ATS,C,5
6,prac,1,A,haborder.png,1,z,Tue Jun 09 2026 16:18:03 GMT-0400 (Eastern Daylight Time),283123.6999999881,CFD-WM-036-018-A.jpg,1900,solid,I,z,725,8,2,18600.0,264523.6999999881,9059,ATS,C,6
7,prac,1,A,haborder.png,1,m,Tue Jun 09 2026 16:18:03 GMT-0400 (Eastern Daylight Time),286556.6999999881,CFD-BM-022-004-HC.jpg,1500,solid,I,m,1133,3,2,22033.0,264523.6999999881,9059,ATS,C,7
8,prac,1,A,haborder.png,1,z,Tue Jun 09 2026 16:18:03 GMT-0400 (Eastern Daylight Time),289040.3000000119,CFD-BF-031-020-A.jpg,1000,solid,I,z,696,4,2,24516.600000023842,264523.6999999881,9059,ATS,C,8
9,prac,1,A,haborder.png,1,m,Tue Jun 09 2026 16:18:03 GMT-0400 (Eastern Daylight Time),292006.90000003576,CFD-WM-028-005-HC.jpg,1400,solid,I,m,772,7,2,27483.200000047684,264523.6999999881,9059,ATS,C,9
10,prac,1,A,haborder.png,1,m,Tue Jun 09 2026 16:18:03 GMT-0400 (Eastern Daylight Time),295090.3000000119,CFD-WF-013-009-HC.jpg,1500,solid,I,m,794,11,2,30566.600000023842,264523.6999999881,9059,ATS,C,10
11,prac,1,A,haborder.png,1,m,Tue Jun 09 2026 16:18:03 GMT-0400 (Eastern Daylight Time),298790.40000003576,CFD-BF-019-004-HC.jpg,2000,solid,I,m,905,5,2,34266.700000047684,264523.6999999881,9059,ATS,C,11
12,prac,1,A,haborder.png,1,m,Tue Jun 09 2026 16:18:03 GMT-0400 (Eastern Daylight Time),301990.1999999881,CFD-BM-034-035-HC.jpg,1700,solid,I,m,705,1,2,37466.5,264523.6999999881,9059,ATS,C,12
1,prac,1,B,mfborder.png,1,m,Tue Jun 09 2026 16:18:03 GMT-0400 (Eastern Daylight Time),334723.60000002384,CFD-WM-035-036-HC.jpg,1600,10,I,m,1241,dash,2,3633.400000035763,331090.1999999881,9059,ATS,C,1
2,prac,1,B,mfborder.png,1,z,Tue Jun 09 2026 16:18:03 GMT-0400 (Eastern Daylight Time),338523.5,CFD-WF-001-010-HC.jpg,1900,8,I,z,1098,dash,2,7433.300000011921,331090.1999999881,9059,ATS,C,2
3,prac,1,B,mfborder.png,1,z,Tue Jun 09 2026 16:18:03 GMT-0400 (Eastern Daylight Time),340873.5,CFD-WF-013-009-HC.jpg,1000,12,I,z,553,dash,2,9783.300000011921,331090.1999999881,9059,ATS,C,3
4,prac,1,B,mfborder.png,1,z,Tue Jun 09 2026 16:18:03 GMT-0400 (Eastern Daylight Time),343506.90000003576,CFD-BF-031-020-A.jpg,1000,4,I,z,844,dash,2,12416.700000047684,331090.1999999881,9059,ATS,C,4
5,prac,1,B,mfborder.png,1,z,Tue Jun 09 2026 16:18:03 GMT-0400 (Eastern Daylight Time),346473.5,CFD-BF-042-031-HC.jpg,1500,3,I,z,668,dash,2,15383.300000011921,331090.1999999881,9059,ATS,C,5
6,prac,1,B,mfborder.png,1,m,Tue Jun 09 2026 16:18:03 GMT-0400 (Eastern Daylight Time),349673.40000003576,CFD-WM-036-018-A.jpg,1700,9,I,m,702,dash,2,18583.200000047684,331090.1999999881,9059,ATS,C,6
7,prac,1,B,mfborder.png,1,m,Tue Jun 09 2026 16:18:03 GMT-0400 (Eastern Daylight Time),352956.90000003576,CFD-BM-043-014-A.jpg,2000,5,I,m,483,dash,2,21866.700000047684,331090.1999999881,9059,ATS,C,7
8,prac,1,B,mfborder.png,1,m,Tue Jun 09 2026 16:18:03 GMT-0400 (Eastern Daylight Time),355806.8000000119,CFD-BM-021-026-A.jpg,1600,2,I,m,463,dash,2,24716.600000023842,331090.1999999881,9059,ATS,C,8
9,prac,1,B,mfborder.png,1,z,Tue Jun 09 2026 16:18:03 GMT-0400 (Eastern Daylight Time),358790.1999999881,CFD-WF-037-016-A.jpg,1500,11,I,z,688,dash,2,27700.0,331090.1999999881,9059,ATS,C,9
10,prac,1,B,mfborder.png,1,m,Tue Jun 09 2026 16:18:03 GMT-0400 (Eastern Daylight Time),361706.90000003576,CFD-WM-034-040-A.jpg,1200,6,I,m,917,dash,2,30616.700000047684,331090.1999999881,9059,ATS,C,10
11,prac,1,B,mfborder.png,1,m,Tue Jun 09 2026 16:18:03 GMT-0400 (Eastern Daylight Time),364790.10000002384,CFD-BM-022-004-HC.jpg,1700,1,I,m,588,dash,2,33699.90000003576,331090.1999999881,9059,ATS,C,11
12,prac,1,B,mfborder.png,1,z,Tue Jun 09 2026 16:18:03 GMT-0400 (Eastern Daylight Time),367756.90000003576,CFD-BF-019-004-HC.jpg,1400,7,I,z,749,dash,2,36666.700000047684,331090.1999999881,9059,ATS,C,12
1,test,1,A,haborder.png,1,z,Tue Jun 09 2026 16:18:03 GMT-0400 (Eastern Daylight Time),407573.0,CFD-BF-031-020-A.jpg,1000,solid,I,z,708,4,2,1733.0,405840.0,9059,ATS,C,1
2,test,1,A,haborder.png,1,z,Tue Jun 09 2026 16:18:03 GMT-0400 (Eastern Daylight Time),409356.5,CFD-BF-002-018-A.jpg,1200,solid,I,z,550,6,2,3516.5,405840.0,9059,ATS,C,2
3,test,1,A,haborder.png,1,z,Tue Jun 09 2026 16:18:03 GMT-0400 (Eastern Daylight Time),411139.90000003576,CFD-WF-023-013-A.jpg,1000,solid,I,z,760,12,2,5299.900000035763,405840.0,9059,ATS,C,3
4,test,1,A,haborder.png,1,m,Tue Jun 09 2026 16:18:03 GMT-0400 (Eastern Daylight Time),413223.1999999881,CFD-WM-028-005-HC.jpg,1400,solid,I,m,656,7,2,7383.199999988079,405840.0,9059,ATS,C,4
5,test,1,A,haborder.png,1,z,Tue Jun 09 2026 16:18:03 GMT-0400 (Eastern Daylight Time),414939.8000000119,CFD-BF-031-020-A.jpg,1000,solid,I,z,684,4,2,9099.800000011921,405840.0,9059,ATS,C,5
5,test,1,A,haborder.png,0,m,Tue Jun 09 2026 16:18:03 GMT-0400 (Eastern Daylight Time),418473.40000003576,CFD-BF-019-004-HC.jpg,2000,solid,I,None,1516,5,2,12633.400000035763,405840.0,9059,ATS,C,6
6,test,1,A,haborder.png,1,m,Tue Jun 09 2026 16:18:03 GMT-0400 (Eastern Daylight Time),420623.10000002384,CFD-BM-022-004-HC.jpg,1500,solid,I,m,630,3,2,14783.100000023842,405840.0,9059,ATS,C,7
7,test,1,A,haborder.png,1,z,Tue Jun 09 2026 16:18:03 GMT-0400 (Eastern Daylight Time),423423.10000002384,CFD-BM-043-014-A.jpg,1600,solid,I,z,1181,2,2,17583.100000023842,405840.0,9059,ATS,C,8
8,test,1,A,haborder.png,1,m,Tue Jun 09 2026 16:18:03 GMT-0400 (Eastern Daylight Time),426039.8000000119,CFD-BM-034-035-HC.jpg,1700,solid,I,m,888,1,2,20199.80000001192,405840.0,9059,ATS,C,9
9,test,1,A,haborder.png,1,m,Tue Jun 09 2026 16:18:03 GMT-0400 (Eastern Daylight Time),428339.90000003576,CFD-WF-013-009-HC.jpg,1500,solid,I,m,776,11,2,22499.900000035763,405840.0,9059,ATS,C,10
10,test,1,A,haborder.png,1,z,Tue Jun 09 2026 16:18:03 GMT-0400 (Eastern Daylight Time),430973.3000000119,CFD-WM-036-018-A.jpg,1900,solid,I,z,701,8,2,25133.30000001192,405840.0,9059,ATS,C,11
11,test,1,A,haborder.png,1,m,Tue Jun 09 2026 16:18:03 GMT-0400 (Eastern Daylight Time),433206.5,CFD-WF-013-009-HC.jpg,1500,solid,I,m,706,11,2,27366.5,405840.0,9059,ATS,C,12
12,test,1,A,haborder.png,1,z,Tue Jun 09 2026 16:18:03 GMT-0400 (Eastern Daylight Time),435139.90000003576,CFD-BF-002-018-A.jpg,1200,solid,I,z,709,6,2,29299.900000035763,405840.0,9059,ATS,C,13
13,test,1,A,haborder.png,1,m,Tue Jun 09 2026 16:18:03 GMT-0400 (Eastern Daylight Time),438406.5,CFD-BF-019-004-HC.jpg,2000,solid,I,m,1240,5,2,32566.5,405840.0,9059,ATS,C,14
14,test,1,A,haborder.png,1,m,Tue Jun 09 2026 16:18:03 GMT-0400 (Eastern Daylight Time),440789.90000003576,CFD-BM-034-035-HC.jpg,1700,solid,I,m,657,1,2,34949.90000003576,405840.0,9059,ATS,C,15
15,test,1,A,haborder.png,1,m,Tue Jun 09 2026 16:18:03 GMT-0400 (Eastern Daylight Time),442856.5,CFD-WM-028-005-HC.jpg,1400,solid,I,m,639,7,2,37016.5,405840.0,9059,ATS,C,16
16,test,1,A,haborder.png,1,z,Tue Jun 09 2026 16:18:03 GMT-0400 (Eastern Daylight Time),445223.1999999881,CFD-BM-043-014-A.jpg,1600,solid,I,z,739,2,2,39383.19999998808,405840.0,9059,ATS,C,17
17,test,1,A,haborder.png,1,z,Tue Jun 09 2026 16:18:03 GMT-0400 (Eastern Daylight Time),447673.1999999881,CFD-WF-037-016-A.jpg,1600,solid,I,z,820,10,2,41833.19999998808,405840.0,9059,ATS,C,18
18,test,1,A,haborder.png,1,m,Tue Jun 09 2026 16:18:03 GMT-0400 (Eastern Daylight Time),450523.10000002384,CFD-WM-035-036-HC.jpg,1700,solid,I,m,1118,9,2,44683.10000002384,405840.0,9059,ATS,C,19
19,test,1,A,haborder.png,1,z,Tue Jun 09 2026 16:18:03 GMT-0400 (Eastern Daylight Time),453189.6999999881,CFD-WM-036-018-A.jpg,1900,solid,I,z,742,8,2,47349.69999998808,405840.0,9059,ATS,C,20
20,test,1,A,haborder.png,1,z,Tue Jun 09 2026 16:18:03 GMT-0400 (Eastern Daylight Time),455439.5,CFD-WF-037-016-A.jpg,1600,solid,I,z,630,10,2,49599.5,405840.0,9059,ATS,C,21
21,test,1,A,haborder.png,1,m,Tue Jun 09 2026 16:18:03 GMT-0400 (Eastern Daylight Time),457673.1999999881,CFD-BM-022-004-HC.jpg,1500,solid,I,m,704,3,2,51833.19999998808,405840.0,9059,ATS,C,22
22,test,1,A,haborder.png,1,m,Tue Jun 09 2026 16:18:03 GMT-0400 (Eastern Daylight Time),460089.8000000119,CFD-WM-035-036-HC.jpg,1700,solid,I,m,686,9,2,54249.80000001192,405840.0,9059,ATS,C,23
23,test,1,A,haborder.png,1,z,Tue Jun 09 2026 16:18:03 GMT-0400 (Eastern Daylight Time),461873.10000002384,CFD-WF-023-013-A.jpg,1000,solid,I,z,762,12,2,56033.10000002384,405840.0,9059,ATS,C,24
1,test,1,B,mfborder.png,1,z,Tue Jun 09 2026 16:18:03 GMT-0400 (Eastern Daylight Time),481089.8000000119,CFD-WF-013-009-HC.jpg,1000,dash,I,z,544,12,2,1566.8999999761581,479522.90000003576,9059,ATS,C,1
2,test,1,B,mfborder.png,1,z,Tue Jun 09 2026 16:18:03 GMT-0400 (Eastern Daylight Time),483173.0,CFD-BF-019-004-HC.jpg,1400,dash,I,z,658,7,2,3650.099999964237,479522.90000003576,9059,ATS,C,2
3,test,1,B,mfborder.png,1,m,Tue Jun 09 2026 16:18:03 GMT-0400 (Eastern Daylight Time),485456.40000003576,CFD-BM-021-026-A.jpg,1600,dash,I,m,662,2,2,5933.5,479522.90000003576,9059,ATS,C,3
4,test,1,B,mfborder.png,1,m,Tue Jun 09 2026 16:18:03 GMT-0400 (Eastern Daylight Time),487156.5,CFD-WM-034-040-A.jpg,1200,dash,I,m,475,6,2,7633.599999964237,479522.90000003576,9059,ATS,C,4
5,test,1,B,mfborder.png,1,m,Tue Jun 09 2026 16:18:03 GMT-0400 (Eastern Daylight Time),489456.5,CFD-BM-022-004-HC.jpg,1700,dash,I,m,579,1,2,9933.599999964237,479522.90000003576,9059,ATS,C,5
6,test,1,B,mfborder.png,1,z,Tue Jun 09 2026 16:18:03 GMT-0400 (Eastern Daylight Time),491822.90000003576,CFD-WF-037-016-A.jpg,1500,dash,I,z,847,11,2,12300.0,479522.90000003576,9059,ATS,C,6
7,test,1,B,mfborder.png,1,m,Tue Jun 09 2026 16:18:03 GMT-0400 (Eastern Daylight Time),494239.6999999881,CFD-BM-022-004-HC.jpg,1700,dash,I,m,696,1,2,14716.799999952316,479522.90000003576,9059,ATS,C,7
8,test,1,B,mfborder.png,1,z,Tue Jun 09 2026 16:18:03 GMT-0400 (Eastern Daylight Time),496956.40000003576,CFD-WF-001-010-HC.jpg,1900,dash,I,z,784,8,2,17433.5,479522.90000003576,9059,ATS,C,8
9,test,1,B,mfborder.png,1,z,Tue Jun 09 2026 16:18:03 GMT-0400 (Eastern Daylight Time),499073.10000002384,CFD-BF-042-031-HC.jpg,1500,dash,I,z,595,3,2,19550.19999998808,479522.90000003576,9059,ATS,C,9
10,test,1,B,mfborder.png,1,z,Tue Jun 09 2026 16:18:03 GMT-0400 (Eastern Daylight Time),501556.40000003576,CFD-WF-001-010-HC.jpg,1900,dash,I,z,558,8,2,22033.5,479522.90000003576,9059,ATS,C,10
11,test,1,B,mfborder.png,1,z,Tue Jun 09 2026 16:18:03 GMT-0400 (Eastern Daylight Time),503439.60000002384,CFD-BF-031-020-A.jpg,1000,dash,I,z,864,4,2,23916.69999998808,479522.90000003576,9059,ATS,C,11
12,test,1,B,mfborder.png,1,m,Tue Jun 09 2026 16:18:03 GMT-0400 (Eastern Daylight Time),505673.0,CFD-WM-035-036-HC.jpg,1600,dash,I,m,604,10,2,26150.099999964237,479522.90000003576,9059,ATS,C,12
13,test,1,B,mfborder.png,1,m,Tue Jun 09 2026 16:18:03 GMT-0400 (Eastern Daylight Time),507939.6999999881,CFD-WM-036-018-A.jpg,1700,dash,I,m,542,9,2,28416.799999952316,479522.90000003576,9059,ATS,C,13
14,test,1,B,mfborder.png,1,m,Tue Jun 09 2026 16:18:03 GMT-0400 (Eastern Daylight Time),510523.10000002384,CFD-BM-043-014-A.jpg,2000,dash,I,m,552,5,2,31000.19999998808,479522.90000003576,9059,ATS,C,14
15,test,1,B,mfborder.png,1,m,Tue Jun 09 2026 16:18:03 GMT-0400 (Eastern Daylight Time),512656.1999999881,CFD-WM-035-036-HC.jpg,1600,dash,I,m,513,10,2,33133.299999952316,479522.90000003576,9059,ATS,C,15
16,test,1,B,mfborder.png,1,z,Tue Jun 09 2026 16:18:03 GMT-0400 (Eastern Daylight Time),514423.10000002384,CFD-WF-013-009-HC.jpg,1000,dash,I,z,739,12,2,34900.19999998808,479522.90000003576,9059,ATS,C,16
17,test,1,B,mfborder.png,1,z,Tue Jun 09 2026 16:18:03 GMT-0400 (Eastern Daylight Time),516439.6999999881,CFD-BF-019-004-HC.jpg,1400,dash,I,z,588,7,2,36916.799999952316,479522.90000003576,9059,ATS,C,17
18,test,1,B,mfborder.png,1,z,Tue Jun 09 2026 16:18:03 GMT-0400 (Eastern Daylight Time),518039.8000000119,CFD-BF-031-020-A.jpg,1000,dash,I,z,572,4,2,38516.89999997616,479522.90000003576,9059,ATS,C,18
19,test,1,B,mfborder.png,1,m,Tue Jun 09 2026 16:18:03 GMT-0400 (Eastern Daylight Time),520373.0,CFD-WM-036-018-A.jpg,1700,dash,I,m,608,9,2,40850.09999996424,479522.90000003576,9059,ATS,C,19
20,test,1,B,mfborder.png,1,m,Tue Jun 09 2026 16:18:03 GMT-0400 (Eastern Daylight Time),522106.40000003576,CFD-WM-034-040-A.jpg,1200,dash,I,m,502,6,2,42583.5,479522.90000003576,9059,ATS,C,20
21,test,1,B,mfborder.png,1,m,Tue Jun 09 2026 16:18:03 GMT-0400 (Eastern Daylight Time),524590.0,CFD-BM-043-014-A.jpg,2000,dash,I,m,465,5,2,45067.09999996424,479522.90000003576,9059,ATS,C,21
22,test,1,B,mfborder.png,1,z,Tue Jun 09 2026 16:18:03 GMT-0400 (Eastern Daylight Time),526906.4000000358,CFD-BF-042-031-HC.jpg,1500,dash,I,z,786,3,2,47383.5,479522.90000003576,9059,ATS,C,22
23,test,1,B,mfborder.png,1,z,Tue Jun 09 2026 16:18:03 GMT-0400 (Eastern Daylight Time),529073.0,CFD-WF-037-016-A.jpg,1500,dash,I,z,645,11,2,49550.09999996424,479522.90000003576,9059,ATS,C,23
24,test,1,B,mfborder.png,1,m,Tue Jun 09 2026 16:18:03 GMT-0400 (Eastern Daylight Time),531389.6999999881,CFD-BM-021-026-A.jpg,1600,dash,I,m,683,2,2,51866.799999952316,479522.90000003576,9059,ATS,C,24
0,prac,1,C,haborder.png,0,m,Tue Jun 09 2026 16:18:03 GMT-0400 (Eastern Daylight Time),569489.9000000358,CFD-WM-028-005-HC.jpg,1000,dash,I,None,1516,2,2,3300.0,566189.9000000358,9059,ATS,C,1
0,prac,1,C,mfborder.png,0,m,Tue Jun 09 2026 16:18:03 GMT-0400 (Eastern Daylight Time),573789.6999999881,CFD-BM-034-035-HC.jpg,2000,solid,I,None,1516,2,2,7599.799999952316,566189.9000000358,9059,ATS,C,2
0,prac,1,C,mfborder.png,0,m,Tue Jun 09 2026 16:18:03 GMT-0400 (Eastern Daylight Time),576906.4000000358,CFD-WM-036-018-A.jpg,1700,solid,I,z,618,2,2,10716.5,566189.9000000358,9059,ATS,C,3
1,prac,1,C,haborder.png,1,m,Tue Jun 09 2026 16:18:03 GMT-0400 (Eastern Daylight Time),580206.5,CFD-BM-022-004-HC.jpg,1500,solid,I,m,1013,2,2,14016.599999964237,566189.9000000358,9059,ATS,C,4
2,prac,1,C,haborder.png,1,z,Tue Jun 09 2026 16:18:03 GMT-0400 (Eastern Daylight Time),583806.4000000358,CFD-BF-031-020-A.jpg,1900,dash,I,z,913,2,2,17616.5,566189.9000000358,9059,ATS,C,5
3,prac,1,C,haborder.png,1,z,Tue Jun 09 2026 16:18:03 GMT-0400 (Eastern Daylight Time),586906.4000000358,CFD-WF-037-016-A.jpg,1600,dash,I,z,701,2,2,20716.5,566189.9000000358,9059,ATS,C,6
3,prac,1,C,mfborder.png,0,z,Tue Jun 09 2026 16:18:03 GMT-0400 (Eastern Daylight Time),589706.4000000358,CFD-BF-019-004-HC.jpg,1000,dash,I,m,1001,2,2,23516.5,566189.9000000358,9059,ATS,C,7
4,prac,1,C,mfborder.png,1,z,Tue Jun 09 2026 16:18:03 GMT-0400 (Eastern Daylight Time),593439.8000000119,CFD-WF-013-009-HC.jpg,1600,dash,I,z,1345,2,2,27249.899999976158,566189.9000000358,9059,ATS,C,8
4,prac,1,C,mfborder.png,0,m,Tue Jun 09 2026 16:18:03 GMT-0400 (Eastern Daylight Time),596156.3000000119,CFD-BM-043-014-A.jpg,1200,dash,I,z,732,2,2,29966.399999976158,566189.9000000358,9059,ATS,C,9
4,prac,1,C,mfborder.png,0,z,Tue Jun 09 2026 16:18:03 GMT-0400 (Eastern Daylight Time),599789.6999999881,CFD-WF-023-013-A.jpg,1500,solid,I,m,1348,2,2,33599.799999952316,566189.9000000358,9059,ATS,C,10
5,prac,1,C,haborder.png,1,z,Tue Jun 09 2026 16:18:03 GMT-0400 (Eastern Daylight Time),603089.6999999881,CFD-BF-002-018-A.jpg,1700,solid,I,z,810,2,2,36899.799999952316,566189.9000000358,9059,ATS,C,11
5,prac,1,C,haborder.png,0,m,Tue Jun 09 2026 16:18:03 GMT-0400 (Eastern Daylight Time),605823.0,CFD-WM-028-005-HC.jpg,1400,solid,I,z,546,2,2,39633.09999996424,566189.9000000358,9059,ATS,C,12
1,prac,2,C,mfborder.png,1,z,Tue Jun 09 2026 16:18:03 GMT-0400 (Eastern Daylight Time),633073.0,CFD-WF-023-013-A.jpg,1500,solid,I,z,1011,2,2,66883.09999996424,566189.9000000358,9059,ATS,C,1
2,prac,2,C,mfborder.png,1,m,Tue Jun 09 2026 16:18:03 GMT-0400 (Eastern Daylight Time),636489.6999999881,CFD-WM-036-018-A.jpg,1700,solid,I,m,919,2,2,70299.79999995232,566189.9000000358,9059,ATS,C,2
2,prac,2,C,haborder.png,0,m,Tue Jun 09 2026 16:18:03 GMT-0400 (Eastern Daylight Time),639139.6000000238,CFD-WM-028-005-HC.jpg,1000,dash,I,z,858,2,2,72949.69999998808,566189.9000000358,9059,ATS,C,3
2,prac,2,C,mfborder.png,0,m,Tue Jun 09 2026 16:18:03 GMT-0400 (Eastern Daylight Time),642372.9000000358,CFD-BM-043-014-A.jpg,1200,dash,I,z,1240,2,2,76183.0,566189.9000000358,9059,ATS,C,4
3,prac,2,C,haborder.png,1,z,Tue Jun 09 2026 16:18:03 GMT-0400 (Eastern Daylight Time),645939.6000000238,CFD-BF-031-020-A.jpg,1900,dash,I,z,875,2,2,79749.69999998808,566189.9000000358,9059,ATS,C,5
4,prac,2,C,mfborder.png,1,z,Tue Jun 09 2026 16:18:03 GMT-0400 (Eastern Daylight Time),648973.1000000238,CFD-BF-019-004-HC.jpg,1000,dash,I,z,1248,2,2,82783.19999998808,566189.9000000358,9059,ATS,C,6
5,prac,2,C,haborder.png,1,z,Tue Jun 09 2026 16:18:03 GMT-0400 (Eastern Daylight Time),652239.6000000238,CFD-BF-002-018-A.jpg,1700,solid,I,z,779,2,2,86049.69999998808,566189.9000000358,9059,ATS,C,7
6,prac,2,C,haborder.png,1,m,Tue Jun 09 2026 16:18:03 GMT-0400 (Eastern Daylight Time),655889.6000000238,CFD-BM-022-004-HC.jpg,1500,solid,I,m,1360,2,2,89699.69999998808,566189.9000000358,9059,ATS,C,8
7,prac,2,C,haborder.png,1,m,Tue Jun 09 2026 16:18:03 GMT-0400 (Eastern Daylight Time),658973.0,CFD-WM-028-005-HC.jpg,1400,solid,I,m,898,2,2,92783.09999996424,566189.9000000358,9059,ATS,C,9
8,prac,2,C,mfborder.png,1,z,Tue Jun 09 2026 16:18:03 GMT-0400 (Eastern Daylight Time),662206.0,CFD-WF-013-009-HC.jpg,1600,dash,I,z,847,2,2,96016.09999996424,566189.9000000358,9059,ATS,C,10
8,prac,2,C,haborder.png,0,z,Tue Jun 09 2026 16:18:03 GMT-0400 (Eastern Daylight Time),666106.1000000238,CFD-WF-037-016-A.jpg,1600,dash,I,None,1516,2,2,99916.19999998808,566189.9000000358,9059,ATS,C,11
9,prac,2,C,mfborder.png,1,m,Tue Jun 09 2026 16:18:03 GMT-0400 (Eastern Daylight Time),669973.0,CFD-BM-034-035-HC.jpg,2000,solid,I,m,1074,2,2,103783.09999996424,566189.9000000358,9059,ATS,C,12
1,test,1,C,mfborder.png,1,z,Tue Jun 09 2026 16:18:03 GMT-0400 (Eastern Daylight Time),691339.6000000238,CFD-BF-042-031-HC.jpg,1700,dash,I,z,685,1,2,2417.100000023842,688922.5,9059,ATS,C,1
1,test,1,C,haborder.png,0,m,Tue Jun 09 2026 16:18:03 GMT-0400 (Eastern Daylight Time),694006.1999999881,CFD-BF-019-004-HC.jpg,1600,solid,I,z,1040,10,2,5083.699999988079,688922.5,9059,ATS,C,2
1,test,1,C,haborder.png,0,m,Tue Jun 09 2026 16:18:03 GMT-0400 (Eastern Daylight Time),696205.8000000119,CFD-WF-013-009-HC.jpg,1000,solid,I,z,1182,12,2,7283.300000011921,688922.5,9059,ATS,C,3
1,test,1,C,mfborder.png,0,z,Tue Jun 09 2026 16:18:03 GMT-0400 (Eastern Daylight Time),699239.5,CFD-WF-037-016-A.jpg,1500,dash,I,None,1516,3,2,10317.0,688922.5,9059,ATS,C,4
1,test,1,C,mfborder.png,0,m,Tue Jun 09 2026 16:18:03 GMT-0400 (Eastern Daylight Time),701972.8000000119,CFD-BM-022-004-HC.jpg,1200,dash,I,None,1516,6,2,13050.300000011921,688922.5,9059,ATS,C,5
1,test,1,C,haborder.png,0,z,Tue Jun 09 2026 16:18:03 GMT-0400 (Eastern Daylight Time),705406.3000000119,CFD-BM-043-014-A.jpg,1900,solid,I,None,1516,8,2,16483.80000001192,688922.5,9059,ATS,C,6
1,test,1,C,mfborder.png,0,m,Tue Jun 09 2026 16:18:03 GMT-0400 (Eastern Daylight Time),707939.5,CFD-WM-035-036-HC.jpg,1000,dash,I,None,1516,4,2,19017.0,688922.5,9059,ATS,C,7
2,test,1,C,mfborder.png,1,z,Tue Jun 09 2026 16:18:03 GMT-0400 (Eastern Daylight Time),710556.1000000238,CFD-BF-042-031-HC.jpg,1700,dash,I,z,884,1,2,21633.600000023842,688922.5,9059,ATS,C,8
2,test,1,C,haborder.png,0,m,Tue Jun 09 2026 16:18:03 GMT-0400 (Eastern Daylight Time),712905.5,CFD-WF-001-010-HC.jpg,1500,solid,I,z,819,11,2,23983.0,688922.5,9059,ATS,C,9
2,test,1,C,mfborder.png,0,m,Tue Jun 09 2026 16:18:03 GMT-0400 (Eastern Daylight Time),715439.5,CFD-WM-035-036-HC.jpg,1000,dash,I,None,1516,4,2,26517.0,688922.5,9059,ATS,C,10
3,test,1,C,mfborder.png,1,z,Tue Jun 09 2026 16:18:03 GMT-0400 (Eastern Daylight Time),718022.6999999881,CFD-BF-031-020-A.jpg,1600,dash,I,z,956,2,2,29100.19999998808,688922.5,9059,ATS,C,11
4,test,1,C,haborder.png,1,m,Tue Jun 09 2026 16:18:03 GMT-0400 (Eastern Daylight Time),719989.5,CFD-WF-013-009-HC.jpg,1000,solid,I,m,941,12,2,31067.0,688922.5,9059,ATS,C,12
4,test,1,C,haborder.png,0,z,Tue Jun 09 2026 16:18:03 GMT-0400 (Eastern Daylight Time),722839.4000000358,CFD-WM-036-018-A.jpg,1400,solid,I,m,1422,7,2,33916.90000003576,688922.5,9059,ATS,C,13
5,test,1,C,mfborder.png,1,m,Tue Jun 09 2026 16:18:03 GMT-0400 (Eastern Daylight Time),726256.0,CFD-WM-034-040-A.jpg,2000,dash,I,m,1396,5,2,37333.5,688922.5,9059,ATS,C,14
5,test,1,C,mfborder.png,0,z,Tue Jun 09 2026 16:18:03 GMT-0400 (Eastern Daylight Time),729022.6000000238,CFD-BF-031-020-A.jpg,1600,dash,I,m,1148,2,2,40100.10000002384,688922.5,9059,ATS,C,15
6,test,1,C,mfborder.png,1,m,Tue Jun 09 2026 16:18:03 GMT-0400 (Eastern Daylight Time),731656.1000000238,CFD-BM-022-004-HC.jpg,1200,dash,I,m,1405,6,2,42733.60000002384,688922.5,9059,ATS,C,16
6,test,1,C,haborder.png,0,m,Tue Jun 09 2026 16:18:03 GMT-0400 (Eastern Daylight Time),734739.4000000358,CFD-BF-019-004-HC.jpg,1600,solid,I,z,1460,10,2,45816.90000003576,688922.5,9059,ATS,C,17
7,test,1,C,mfborder.png,1,z,Tue Jun 09 2026 16:18:03 GMT-0400 (Eastern Daylight Time),737656.1000000238,CFD-WF-037-016-A.jpg,1500,dash,I,z,1388,3,2,48733.60000002384,688922.5,9059,ATS,C,18
7,test,1,C,haborder.png,0,z,Tue Jun 09 2026 16:18:03 GMT-0400 (Eastern Daylight Time),740589.6000000238,CFD-BM-021-026-A.jpg,1700,solid,I,m,1199,9,2,51667.10000002384,688922.5,9059,ATS,C,19
7,test,1,C,haborder.png,0,z,Tue Jun 09 2026 16:18:03 GMT-0400 (Eastern Daylight Time),742639.1000000238,CFD-WM-036-018-A.jpg,1400,solid,I,m,630,7,2,53716.60000002384,688922.5,9059,ATS,C,20
8,test,1,C,mfborder.png,1,m,Tue Jun 09 2026 16:18:03 GMT-0400 (Eastern Daylight Time),745956.0,CFD-WM-034-040-A.jpg,2000,dash,I,m,1292,5,2,57033.5,688922.5,9059,ATS,C,21
8,test,1,C,haborder.png,0,m,Tue Jun 09 2026 16:18:03 GMT-0400 (Eastern Daylight Time),748689.3000000119,CFD-WF-001-010-HC.jpg,1500,solid,I,z,1212,11,2,59766.80000001192,688922.5,9059,ATS,C,22
8,test,1,C,haborder.png,0,z,Tue Jun 09 2026 16:18:03 GMT-0400 (Eastern Daylight Time),751355.9000000358,CFD-BM-021-026-A.jpg,1700,solid,I,m,934,9,2,62433.40000003576,688922.5,9059,ATS,C,23
9,test,1,C,haborder.png,1,z,Tue Jun 09 2026 16:18:03 GMT-0400 (Eastern Daylight Time),754755.9000000358,CFD-BM-043-014-A.jpg,1900,solid,I,z,1476,8,2,65833.40000003576,688922.5,9059,ATS,C,24
1,test,2,C,haborder.png,1,m,Tue Jun 09 2026 16:18:03 GMT-0400 (Eastern Daylight Time),786389.5,CFD-WM-028-005-HC.jpg,1500,solid,I,m,741,11,2,2266.699999988079,784122.8000000119,9059,ATS,C,1
1,test,2,C,haborder.png,0,z,Tue Jun 09 2026 16:18:03 GMT-0400 (Eastern Daylight Time),789822.6999999881,CFD-BF-002-018-A.jpg,1900,solid,I,None,1515,8,2,5699.899999976158,784122.8000000119,9059,ATS,C,2
2,test,2,C,mfborder.png,1,z,Tue Jun 09 2026 16:18:03 GMT-0400 (Eastern Daylight Time),792872.6000000238,CFD-WF-023-013-A.jpg,1600,dash,I,z,1421,2,2,8749.800000011921,784122.8000000119,9059,ATS,C,3
3,test,2,C,mfborder.png,1,z,Tue Jun 09 2026 16:18:03 GMT-0400 (Eastern Daylight Time),795222.6000000238,CFD-BF-019-004-HC.jpg,1500,dash,I,z,823,3,2,11099.800000011921,784122.8000000119,9059,ATS,C,4
4,test,2,C,mfborder.png,1,m,Tue Jun 09 2026 16:18:03 GMT-0400 (Eastern Daylight Time),797222.6000000238,CFD-BM-034-035-HC.jpg,1000,dash,I,m,973,4,2,13099.800000011921,784122.8000000119,9059,ATS,C,5
5,test,2,C,haborder.png,1,m,Tue Jun 09 2026 16:18:03 GMT-0400 (Eastern Daylight Time),800056.1000000238,CFD-BM-022-004-HC.jpg,1600,solid,I,m,1205,10,2,15933.300000011921,784122.8000000119,9059,ATS,C,6
6,test,2,C,mfborder.png,1,z,Tue Jun 09 2026 16:18:03 GMT-0400 (Eastern Daylight Time),803039.1999999881,CFD-BF-019-004-HC.jpg,1500,dash,I,z,1464,3,2,18916.399999976158,784122.8000000119,9059,ATS,C,7
7,test,2,C,haborder.png,1,z,Tue Jun 09 2026 16:18:03 GMT-0400 (Eastern Daylight Time),805455.9000000358,CFD-BF-031-020-A.jpg,1400,solid,I,z,996,7,2,21333.100000023842,784122.8000000119,9059,ATS,C,8
7,test,2,C,mfborder.png,0,m,Tue Jun 09 2026 16:18:03 GMT-0400 (Eastern Daylight Time),807989.3000000119,CFD-BM-034-035-HC.jpg,1000,dash,I,None,1516,4,2,23866.5,784122.8000000119,9059,ATS,C,9
8,test,2,C,haborder.png,1,m,Tue Jun 09 2026 16:18:03 GMT-0400 (Eastern Daylight Time),809972.6000000238,CFD-WM-028-005-HC.jpg,1000,solid,I,m,958,12,2,25849.80000001192,784122.8000000119,9059,ATS,C,10
9,test,2,C,mfborder.png,1,z,Tue Jun 09 2026 16:18:03 GMT-0400 (Eastern Daylight Time),812772.6000000238,CFD-WF-023-013-A.jpg,1600,dash,I,z,1175,2,2,28649.80000001192,784122.8000000119,9059,ATS,C,11
9,test,2,C,mfborder.png,0,m,Tue Jun 09 2026 16:18:03 GMT-0400 (Eastern Daylight Time),815972.6000000238,CFD-BM-043-014-A.jpg,2000,dash,I,z,1175,5,2,31849.80000001192,784122.8000000119,9059,ATS,C,12
10,test,2,C,mfborder.png,1,m,Tue Jun 09 2026 16:18:03 GMT-0400 (Eastern Daylight Time),819472.5,CFD-BM-043-014-A.jpg,2000,dash,I,m,1479,5,2,35349.69999998808,784122.8000000119,9059,ATS,C,13
11,test,2,C,haborder.png,1,z,Tue Jun 09 2026 16:18:03 GMT-0400 (Eastern Daylight Time),821822.4000000358,CFD-BF-031-020-A.jpg,1400,solid,I,z,931,7,2,37699.60000002384,784122.8000000119,9059,ATS,C,14
11,test,2,C,haborder.png,0,z,Tue Jun 09 2026 16:18:03 GMT-0400 (Eastern Daylight Time),825055.9000000358,CFD-WF-037-016-A.jpg,1700,solid,I,None,1516,9,2,40933.10000002384,784122.8000000119,9059,ATS,C,15
12,test,2,C,haborder.png,1,m,Tue Jun 09 2026 16:18:03 GMT-0400 (Eastern Daylight Time),826972.6000000238,CFD-WM-028-005-HC.jpg,1000,solid,I,m,884,12,2,42849.80000001192,784122.8000000119,9059,ATS,C,16
13,test,2,C,mfborder.png,1,z,Tue Jun 09 2026 16:18:03 GMT-0400 (Eastern Daylight Time),829722.5,CFD-WF-013-009-HC.jpg,1700,dash,I,z,1019,1,2,45599.69999998808,784122.8000000119,9059,ATS,C,17
14,test,2,C,mfborder.png,1,m,Tue Jun 09 2026 16:18:03 GMT-0400 (Eastern Daylight Time),831706.0,CFD-WM-036-018-A.jpg,1200,dash,I,m,753,6,2,47583.19999998808,784122.8000000119,9059,ATS,C,18
14,test,2,C,haborder.png,0,m,Tue Jun 09 2026 16:18:03 GMT-0400 (Eastern Daylight Time),834839.3000000119,CFD-BM-022-004-HC.jpg,1600,solid,I,None,1516,10,2,50716.5,784122.8000000119,9059,ATS,C,19
15,test,2,C,haborder.png,1,z,Tue Jun 09 2026 16:18:03 GMT-0400 (Eastern Daylight Time),837922.5,CFD-WF-037-016-A.jpg,1700,solid,I,z,1360,9,2,53799.69999998808,784122.8000000119,9059,ATS,C,20
16,test,2,C,haborder.png,1,m,Tue Jun 09 2026 16:18:03 GMT-0400 (Eastern Daylight Time),840272.4000000358,CFD-WM-028-005-HC.jpg,1500,solid,I,m,829,11,2,56149.60000002384,784122.8000000119,9059,ATS,C,21
17,test,2,C,haborder.png,1,z,Tue Jun 09 2026 16:18:03 GMT-0400 (Eastern Daylight Time),842905.9000000358,CFD-BF-002-018-A.jpg,1900,solid,I,z,703,8,2,58783.10000002384,784122.8000000119,9059,ATS,C,22
18,test,2,C,mfborder.png,1,z,Tue Jun 09 2026 16:18:03 GMT-0400 (Eastern Daylight Time),845872.4000000358,CFD-WF-013-009-HC.jpg,1700,dash,I,z,1246,1,2,61749.60000002384,784122.8000000119,9059,ATS,C,23
19,test,2,C,mfborder.png,1,m,Tue Jun 09 2026 16:18:03 GMT-0400 (Eastern Daylight Time),847905.9000000358,CFD-WM-036-018-A.jpg,1200,dash,I,m,811,6,2,63783.10000002384,784122.8000000119,9059,ATS,C,24
0,test,3,C,haborder.png,0,m,Tue Jun 09 2026 16:18:03 GMT-0400 (Eastern Daylight Time),860539.4000000358,CFD-WF-013-009-HC.jpg,1000,solid,I,z,935,12,2,1966.7000000476837,858572.6999999881,9059,ATS,C,1
0,test,3,C,haborder.png,0,z,Tue Jun 09 2026 16:18:03 GMT-0400 (Eastern Daylight Time),863155.9000000358,CFD-BM-021-026-A.jpg,1700,solid,I,m,892,9,2,4583.200000047684,858572.6999999881,9059,ATS,C,2
0,test,3,C,haborder.png,0,z,Tue Jun 09 2026 16:18:03 GMT-0400 (Eastern Daylight Time),865722.6000000238,CFD-WM-036-018-A.jpg,1400,solid,I,m,1136,7,2,7149.900000035763,858572.6999999881,9059,ATS,C,3
0,test,3,C,haborder.png,0,m,Tue Jun 09 2026 16:18:03 GMT-0400 (Eastern Daylight Time),867539.1999999881,CFD-WF-013-009-HC.jpg,1000,solid,I,z,793,12,2,8966.5,858572.6999999881,9059,ATS,C,4
1,test,3,C,mfborder.png,1,m,Tue Jun 09 2026 16:18:03 GMT-0400 (Eastern Daylight Time),869572.5,CFD-WM-035-036-HC.jpg,1000,dash,I,m,1009,4,2,10999.800000011921,858572.6999999881,9059,ATS,C,5
2,test,3,C,mfborder.png,1,z,Tue Jun 09 2026 16:18:03 GMT-0400 (Eastern Daylight Time),871955.9000000358,CFD-BF-031-020-A.jpg,1600,dash,I,z,759,2,2,13383.200000047684,858572.6999999881,9059,ATS,C,6
2,test,3,C,haborder.png,0,m,Tue Jun 09 2026 16:18:03 GMT-0400 (Eastern Daylight Time),874739.3000000119,CFD-BF-019-004-HC.jpg,1600,solid,I,z,1160,10,2,16166.600000023842,858572.6999999881,9059,ATS,C,7
3,test,3,C,mfborder.png,1,m,Tue Jun 09 2026 16:18:03 GMT-0400 (Eastern Daylight Time),877589.1999999881,CFD-WM-034-040-A.jpg,2000,dash,I,m,824,5,2,19016.5,858572.6999999881,9059,ATS,C,8
3,test,3,C,mfborder.png,0,z,Tue Jun 09 2026 16:18:03 GMT-0400 (Eastern Daylight Time),880222.3000000119,CFD-WF-037-016-A.jpg,1500,dash,I,m,1115,3,2,21649.600000023842,858572.6999999881,9059,ATS,C,9
3,test,3,C,mfborder.png,0,m,Tue Jun 09 2026 16:18:03 GMT-0400 (Eastern Daylight Time),882756.1000000238,CFD-WM-035-036-HC.jpg,1000,dash,I,None,1516,4,2,24183.400000035763,858572.6999999881,9059,ATS,C,10
4,test,3,C,mfborder.png,1,m,Tue Jun 09 2026 16:18:03 GMT-0400 (Eastern Daylight Time),884689.1999999881,CFD-BM-022-004-HC.jpg,1200,dash,I,m,712,6,2,26116.5,858572.6999999881,9059,ATS,C,11
4,test,3,C,mfborder.png,0,z,Tue Jun 09 2026 16:18:03 GMT-0400 (Eastern Daylight Time),887205.9000000358,CFD-BF-042-031-HC.jpg,1700,dash,I,m,791,1,2,28633.200000047684,858572.6999999881,9059,ATS,C,12
4,test,3,C,haborder.png,0,z,Tue Jun 09 2026 16:18:03 GMT-0400 (Eastern Daylight Time),890639.3000000119,CFD-BM-043-014-A.jpg,1900,solid,I,None,1516,8,2,32066.600000023842,858572.6999999881,9059,ATS,C,13
5,test,3,C,mfborder.png,1,m,Tue Jun 09 2026 16:18:03 GMT-0400 (Eastern Daylight Time),892655.8000000119,CFD-BM-022-004-HC.jpg,1200,dash,I,m,797,6,2,34083.10000002384,858572.6999999881,9059,ATS,C,14
5,test,3,C,mfborder.png,0,z,Tue Jun 09 2026 16:18:03 GMT-0400 (Eastern Daylight Time),895789.1999999881,CFD-BF-031-020-A.jpg,1600,dash,I,None,1516,2,2,37216.5,858572.6999999881,9059,ATS,C,15
5,test,3,C,haborder.png,0,m,Tue Jun 09 2026 16:18:03 GMT-0400 (Eastern Daylight Time),898372.5,CFD-BF-019-004-HC.jpg,1600,solid,I,z,959,10,2,39799.80000001192,858572.6999999881,9059,ATS,C,16
6,test,3,C,mfborder.png,1,z,Tue Jun 09 2026 16:18:03 GMT-0400 (Eastern Daylight Time),901022.1999999881,CFD-BF-042-031-HC.jpg,1700,dash,I,z,931,1,2,42449.5,858572.6999999881,9059,ATS,C,17
6,test,3,C,haborder.png,0,m,Tue Jun 09 2026 16:18:03 GMT-0400 (Eastern Daylight Time),903739.3000000119,CFD-WF-001-010-HC.jpg,1500,solid,I,z,1184,11,2,45166.60000002384,858572.6999999881,9059,ATS,C,18
6,test,3,C,haborder.png,0,z,Tue Jun 09 2026 16:18:03 GMT-0400 (Eastern Daylight Time),906122.5,CFD-WM-036-018-A.jpg,1400,solid,I,m,953,7,2,47549.80000001192,858572.6999999881,9059,ATS,C,19
6,test,3,C,haborder.png,0,z,Tue Jun 09 2026 16:18:03 GMT-0400 (Eastern Daylight Time),908522.5,CFD-BM-021-026-A.jpg,1700,solid,I,m,669,9,2,49949.80000001192,858572.6999999881,9059,ATS,C,20
7,test,3,C,haborder.png,1,m,Tue Jun 09 2026 16:18:03 GMT-0400 (Eastern Daylight Time),911405.5,CFD-WF-001-010-HC.jpg,1500,solid,I,m,1365,11,2,52832.80000001192,858572.6999999881,9059,ATS,C,21
7,test,3,C,haborder.png,0,z,Tue Jun 09 2026 16:18:03 GMT-0400 (Eastern Daylight Time),914839.1999999881,CFD-BM-043-014-A.jpg,1900,solid,I,None,1516,8,2,56266.5,858572.6999999881,9059,ATS,C,22
8,test,3,C,mfborder.png,1,z,Tue Jun 09 2026 16:18:03 GMT-0400 (Eastern Daylight Time),917355.8000000119,CFD-WF-037-016-A.jpg,1500,dash,I,z,984,3,2,58783.10000002384,858572.6999999881,9059,ATS,C,23
9,test,3,C,mfborder.png,1,m,Tue Jun 09 2026 16:18:03 GMT-0400 (Eastern Daylight Time),920189.1000000238,CFD-WM-034-040-A.jpg,2000,dash,I,m,800,5,2,61616.40000003576,858572.6999999881,9059,ATS,C,24
1,test,4,C,haborder.png,1,z,Tue Jun 09 2026 16:18:03 GMT-0400 (Eastern Daylight Time),930289.3000000119,CFD-BF-002-018-A.jpg,1900,solid,I,z,762,8,2,2683.300000011921,927606.0,9059,ATS,C,1
2,test,4,C,mfborder.png,1,m,Tue Jun 09 2026 16:18:03 GMT-0400 (Eastern Daylight Time),932339.1000000238,CFD-BM-034-035-HC.jpg,1000,dash,I,m,1027,4,2,4733.100000023842,927606.0,9059,ATS,C,2
3,test,4,C,mfborder.png,1,z,Tue Jun 09 2026 16:18:03 GMT-0400 (Eastern Daylight Time),934589.1999999881,CFD-BF-019-004-HC.jpg,1500,dash,I,z,733,3,2,6983.199999988079,927606.0,9059,ATS,C,3
4,test,4,C,mfborder.png,1,m,Tue Jun 09 2026 16:18:03 GMT-0400 (Eastern Daylight Time),937455.6999999881,CFD-BM-043-014-A.jpg,2000,dash,I,m,847,5,2,9849.699999988079,927606.0,9059,ATS,C,4
5,test,4,C,mfborder.png,1,m,Tue Jun 09 2026 16:18:03 GMT-0400 (Eastern Daylight Time),939222.4000000358,CFD-WM-036-018-A.jpg,1200,dash,I,m,540,6,2,11616.400000035763,927606.0,9059,ATS,C,5
6,test,4,C,mfborder.png,1,z,Tue Jun 09 2026 16:18:03 GMT-0400 (Eastern Daylight Time),941605.8000000119,CFD-WF-023-013-A.jpg,1600,dash,I,z,757,2,2,13999.800000011921,927606.0,9059,ATS,C,6
7,test,4,C,mfborder.png,1,z,Tue Jun 09 2026 16:18:03 GMT-0400 (Eastern Daylight Time),944138.6000000238,CFD-BF-019-004-HC.jpg,1500,dash,I,z,1001,3,2,16532.600000023842,927606.0,9059,ATS,C,7
8,test,4,C,mfborder.png,1,m,Tue Jun 09 2026 16:18:03 GMT-0400 (Eastern Daylight Time),946972.4000000358,CFD-BM-043-014-A.jpg,2000,dash,I,m,801,5,2,19366.400000035763,927606.0,9059,ATS,C,8
8,test,4,C,haborder.png,0,m,Tue Jun 09 2026 16:18:03 GMT-0400 (Eastern Daylight Time),949505.8000000119,CFD-WM-028-005-HC.jpg,1000,solid,I,None,1516,12,2,21899.80000001192,927606.0,9059,ATS,C,9
9,test,4,C,mfborder.png,1,m,Tue Jun 09 2026 16:18:03 GMT-0400 (Eastern Daylight Time),951489.0,CFD-BM-034-035-HC.jpg,1000,dash,I,m,962,4,2,23883.0,927606.0,9059,ATS,C,10
10,test,4,C,haborder.png,1,z,Tue Jun 09 2026 16:18:03 GMT-0400 (Eastern Daylight Time),954289.1000000238,CFD-WF-037-016-A.jpg,1700,solid,I,z,1079,9,2,26683.100000023842,927606.0,9059,ATS,C,11
11,test,4,C,haborder.png,1,m,Tue Jun 09 2026 16:18:03 GMT-0400 (Eastern Daylight Time),956522.4000000358,CFD-WM-028-005-HC.jpg,1500,solid,I,m,703,11,2,28916.400000035763,927606.0,9059,ATS,C,12
12,test,4,C,mfborder.png,1,m,Tue Jun 09 2026 16:18:03 GMT-0400 (Eastern Daylight Time),958572.4000000358,CFD-WM-036-018-A.jpg,1200,dash,I,m,816,6,2,30966.400000035763,927606.0,9059,ATS,C,13
13,test,4,C,haborder.png,1,z,Tue Jun 09 2026 16:18:03 GMT-0400 (Eastern Daylight Time),961389.4000000358,CFD-WF-037-016-A.jpg,1700,solid,I,z,1099,9,2,33783.40000003576,927606.0,9059,ATS,C,14
14,test,4,C,haborder.png,1,m,Tue Jun 09 2026 16:18:03 GMT-0400 (Eastern Daylight Time),963305.6999999881,CFD-WM-028-005-HC.jpg,1000,solid,I,m,887,12,2,35699.69999998808,927606.0,9059,ATS,C,15
15,test,4,C,haborder.png,1,z,Tue Jun 09 2026 16:18:03 GMT-0400 (Eastern Daylight Time),965872.3000000119,CFD-BF-002-018-A.jpg,1900,solid,I,z,646,8,2,38266.30000001192,927606.0,9059,ATS,C,16
16,test,4,C,mfborder.png,1,z,Tue Jun 09 2026 16:18:03 GMT-0400 (Eastern Daylight Time),968505.6999999881,CFD-WF-013-009-HC.jpg,1700,dash,I,z,903,1,2,40899.69999998808,927606.0,9059,ATS,C,17
17,test,4,C,mfborder.png,1,z,Tue Jun 09 2026 16:18:03 GMT-0400 (Eastern Daylight Time),970772.4000000358,CFD-WF-013-009-HC.jpg,1700,dash,I,z,542,1,2,43166.40000003576,927606.0,9059,ATS,C,18
18,test,4,C,mfborder.png,1,z,Tue Jun 09 2026 16:18:03 GMT-0400 (Eastern Daylight Time),973022.1999999881,CFD-WF-023-013-A.jpg,1600,dash,I,z,631,2,2,45416.19999998808,927606.0,9059,ATS,C,19
19,test,4,C,haborder.png,1,m,Tue Jun 09 2026 16:18:03 GMT-0400 (Eastern Daylight Time),975422.1000000238,CFD-WM-028-005-HC.jpg,1500,solid,I,m,881,11,2,47816.10000002384,927606.0,9059,ATS,C,20
20,test,4,C,haborder.png,1,m,Tue Jun 09 2026 16:18:03 GMT-0400 (Eastern Daylight Time),977772.4000000358,CFD-BM-022-004-HC.jpg,1600,solid,I,m,717,10,2,50166.40000003576,927606.0,9059,ATS,C,21
21,test,4,C,haborder.png,1,z,Tue Jun 09 2026 16:18:03 GMT-0400 (Eastern Daylight Time),980138.6999999881,CFD-BF-031-020-A.jpg,1400,solid,I,z,935,7,2,52532.69999998808,927606.0,9059,ATS,C,22
22,test,4,C,haborder.png,1,z,Tue Jun 09 2026 16:18:03 GMT-0400 (Eastern Daylight Time),982189.0,CFD-BF-031-020-A.jpg,1400,solid,I,z,617,7,2,54583.0,927606.0,9059,ATS,C,23
23,test,4,C,haborder.png,1,m,Tue Jun 09 2026 16:18:03 GMT-0400 (Eastern Daylight Time),984839.1000000238,CFD-BM-022-004-HC.jpg,1600,solid,I,m,1023,10,2,57233.10000002384,927606.0,9059,ATS,C,24
