acc_sum,block,block_c,block_cond,con_img,correct,correct_response,datetime,endtime,face,jitter,line,project,response,response_time,row_sel,session_number,start_end,starttime,subject_id,task,task_vers,trial
1,prac,1,A,haborder.png,1,z,Thu Mar 19 2026 15:02:18 GMT-0400 (Eastern Daylight Time),72423.19999992847,CFD-WM-013-015-A.jpg,1900,solid,I,z,945,8,1,3633.6999999284744,68789.5,9059,ATS,A,1
2,prac,1,A,haborder.png,1,m,Thu Mar 19 2026 15:02:18 GMT-0400 (Eastern Daylight Time),76456.19999992847,CFD-BF-028-020-HC.jpg,2000,solid,I,m,1236,5,1,7666.699999928474,68789.5,9059,ATS,A,2
3,prac,1,A,haborder.png,1,m,Thu Mar 19 2026 15:02:18 GMT-0400 (Eastern Daylight Time),79873.79999995232,CFD-BM-017-052-HC.jpg,1700,solid,I,m,919,1,1,11084.299999952316,68789.5,9059,ATS,A,3
4,prac,1,A,haborder.png,1,z,Thu Mar 19 2026 15:02:18 GMT-0400 (Eastern Daylight Time),83090.69999992847,CFD-WF-003-014-A.jpg,1600,solid,I,z,817,10,1,14301.199999928474,68789.5,9059,ATS,A,4
4,prac,1,A,haborder.png,0,m,Thu Mar 19 2026 15:02:18 GMT-0400 (Eastern Daylight Time),86006.19999992847,CFD-WF-017-016-HC.jpg,1500,solid,I,z,629,11,1,17216.699999928474,68789.5,9059,ATS,A,5
5,prac,1,A,haborder.png,1,z,Thu Mar 19 2026 15:02:18 GMT-0400 (Eastern Daylight Time),89389.59999990463,CFD-BM-005-010-A.jpg,1600,solid,I,z,987,2,1,20600.099999904633,68789.5,9059,ATS,A,6
6,prac,1,A,haborder.png,1,m,Thu Mar 19 2026 15:02:18 GMT-0400 (Eastern Daylight Time),92707.89999997616,CFD-WM-006-013-HC.jpg,1700,solid,I,m,841,9,1,23918.399999976158,68789.5,9059,ATS,A,7
6,prac,1,A,haborder.png,0,z,Thu Mar 19 2026 15:02:18 GMT-0400 (Eastern Daylight Time),95489.5,CFD-BF-039-039-A.jpg,1200,solid,I,m,783,6,1,26700.0,68789.5,9059,ATS,A,8
7,prac,1,A,haborder.png,1,m,Thu Mar 19 2026 15:02:18 GMT-0400 (Eastern Daylight Time),99024.0,CFD-WM-004-005-HC.jpg,1400,solid,I,m,1345,7,1,30234.5,68789.5,9059,ATS,A,9
8,prac,1,A,haborder.png,1,z,Thu Mar 19 2026 15:02:18 GMT-0400 (Eastern Daylight Time),101756.59999990463,CFD-WF-019-015-A.jpg,1000,solid,I,z,949,12,1,32967.09999990463,68789.5,9059,ATS,A,10
9,prac,1,A,haborder.png,1,z,Thu Mar 19 2026 15:02:18 GMT-0400 (Eastern Daylight Time),104607.09999990463,CFD-BF-023-013-A.jpg,1000,solid,I,z,1054,4,1,35817.59999990463,68789.5,9059,ATS,A,11
10,prac,1,A,haborder.png,1,m,Thu Mar 19 2026 15:02:18 GMT-0400 (Eastern Daylight Time),107890.0,CFD-BM-029-026-HC.jpg,1500,solid,I,m,984,3,1,39100.5,68789.5,9059,ATS,A,12
1,prac,1,B,mfborder.png,1,m,Thu Mar 19 2026 15:02:18 GMT-0400 (Eastern Daylight Time),139723.89999997616,CFD-BM-029-026-HC.jpg,1700,dash,I,m,665,1,1,3133.399999976158,136590.5,9059,ATS,A,1
2,prac,1,B,mfborder.png,1,m,Thu Mar 19 2026 15:02:18 GMT-0400 (Eastern Daylight Time),142772.79999995232,CFD-BM-010-019-A.jpg,1600,dash,I,m,655,2,1,6182.299999952316,136590.5,9059,ATS,A,2
3,prac,1,B,mfborder.png,1,z,Thu Mar 19 2026 15:02:18 GMT-0400 (Eastern Daylight Time),145090.79999995232,CFD-WF-017-016-HC.jpg,1000,dash,I,z,534,12,1,8500.299999952316,136590.5,9059,ATS,A,3
4,prac,1,B,mfborder.png,1,z,Thu Mar 19 2026 15:02:18 GMT-0400 (Eastern Daylight Time),148356.89999997616,CFD-WF-002-008-HC.jpg,1900,dash,I,z,573,8,1,11766.399999976158,136590.5,9059,ATS,A,4
4,prac,1,B,mfborder.png,0,z,Thu Mar 19 2026 15:02:18 GMT-0400 (Eastern Daylight Time),150923.5,CFD-BF-023-013-A.jpg,1000,dash,I,m,772,4,1,14333.0,136590.5,9059,ATS,A,5
4,prac,1,B,mfborder.png,0,m,Thu Mar 19 2026 15:02:18 GMT-0400 (Eastern Daylight Time),154823.5,CFD-WM-006-013-HC.jpg,1600,dash,I,None,1515,10,1,18233.0,136590.5,9059,ATS,A,6
5,prac,1,B,mfborder.png,1,m,Thu Mar 19 2026 15:02:18 GMT-0400 (Eastern Daylight Time),158473.69999992847,CFD-WM-013-015-A.jpg,1700,dash,I,m,1152,9,1,21883.199999928474,136590.5,9059,ATS,A,7
6,prac,1,B,mfborder.png,1,m,Thu Mar 19 2026 15:02:18 GMT-0400 (Eastern Daylight Time),161007.19999992847,CFD-WM-019-013-A.jpg,1200,dash,I,m,545,6,1,24416.699999928474,136590.5,9059,ATS,A,8
7,prac,1,B,mfborder.png,1,z,Thu Mar 19 2026 15:02:18 GMT-0400 (Eastern Daylight Time),164540.19999992847,CFD-WF-003-014-A.jpg,1500,dash,I,z,1240,11,1,27949.699999928474,136590.5,9059,ATS,A,9
8,prac,1,B,mfborder.png,1,z,Thu Mar 19 2026 15:02:18 GMT-0400 (Eastern Daylight Time),167357.0,CFD-BF-028-020-HC.jpg,1400,dash,I,z,632,7,1,30766.5,136590.5,9059,ATS,A,10
9,prac,1,B,mfborder.png,1,m,Thu Mar 19 2026 15:02:18 GMT-0400 (Eastern Daylight Time),170656.79999995232,CFD-BM-005-010-A.jpg,2000,dash,I,m,510,5,1,34066.299999952316,136590.5,9059,ATS,A,11
10,prac,1,B,mfborder.png,1,z,Thu Mar 19 2026 15:02:18 GMT-0400 (Eastern Daylight Time),173790.39999997616,CFD-BF-010-005-HC.jpg,1500,dash,I,z,838,3,1,37199.89999997616,136590.5,9059,ATS,A,12
1,test,1,A,haborder.png,1,m,Thu Mar 19 2026 15:02:18 GMT-0400 (Eastern Daylight Time),199473.0,CFD-BF-028-020-HC.jpg,2000,solid,I,m,728,5,1,2749.3000000715256,196723.69999992847,9059,ATS,A,1
2,test,1,A,haborder.png,1,z,Thu Mar 19 2026 15:02:18 GMT-0400 (Eastern Daylight Time),201323.59999990463,CFD-BF-023-013-A.jpg,1000,solid,I,z,826,4,1,4599.899999976158,196723.69999992847,9059,ATS,A,2
3,test,1,A,haborder.png,1,m,Thu Mar 19 2026 15:02:18 GMT-0400 (Eastern Daylight Time),203673.19999992847,CFD-BM-029-026-HC.jpg,1500,solid,I,m,829,3,1,6949.5,196723.69999992847,9059,ATS,A,3
4,test,1,A,haborder.png,1,z,Thu Mar 19 2026 15:02:18 GMT-0400 (Eastern Daylight Time),206040.5,CFD-BM-005-010-A.jpg,1600,solid,I,z,737,2,1,9316.800000071526,196723.69999992847,9059,ATS,A,4
5,test,1,A,haborder.png,1,m,Thu Mar 19 2026 15:02:18 GMT-0400 (Eastern Daylight Time),209057.19999992847,CFD-BM-029-026-HC.jpg,1500,solid,I,m,1487,3,1,12333.5,196723.69999992847,9059,ATS,A,5
6,test,1,A,haborder.png,1,z,Thu Mar 19 2026 15:02:18 GMT-0400 (Eastern Daylight Time),211690.29999995232,CFD-WF-003-014-A.jpg,1600,solid,I,z,1010,10,1,14966.600000023842,196723.69999992847,9059,ATS,A,6
7,test,1,A,haborder.png,1,m,Thu Mar 19 2026 15:02:18 GMT-0400 (Eastern Daylight Time),214607.69999992847,CFD-WF-017-016-HC.jpg,1500,solid,I,m,1388,11,1,17884.0,196723.69999992847,9059,ATS,A,7
8,test,1,A,haborder.png,1,z,Thu Mar 19 2026 15:02:18 GMT-0400 (Eastern Daylight Time),217240.29999995232,CFD-WM-013-015-A.jpg,1900,solid,I,z,714,8,1,20516.600000023842,196723.69999992847,9059,ATS,A,8
9,test,1,A,haborder.png,1,z,Thu Mar 19 2026 15:02:18 GMT-0400 (Eastern Daylight Time),219622.79999995232,CFD-BF-039-039-A.jpg,1200,solid,I,z,1162,6,1,22899.100000023842,196723.69999992847,9059,ATS,A,9
10,test,1,A,haborder.png,1,m,Thu Mar 19 2026 15:02:18 GMT-0400 (Eastern Daylight Time),222556.39999997616,CFD-BF-028-020-HC.jpg,2000,solid,I,m,900,5,1,25832.700000047684,196723.69999992847,9059,ATS,A,10
11,test,1,A,haborder.png,1,z,Thu Mar 19 2026 15:02:18 GMT-0400 (Eastern Daylight Time),225006.5,CFD-BM-005-010-A.jpg,1600,solid,I,z,822,2,1,28282.800000071526,196723.69999992847,9059,ATS,A,11
12,test,1,A,haborder.png,1,m,Thu Mar 19 2026 15:02:18 GMT-0400 (Eastern Daylight Time),227507.19999992847,CFD-WM-006-013-HC.jpg,1700,solid,I,m,769,9,1,30783.5,196723.69999992847,9059,ATS,A,12
13,test,1,A,haborder.png,1,m,Thu Mar 19 2026 15:02:18 GMT-0400 (Eastern Daylight Time),229740.09999990463,CFD-WM-004-005-HC.jpg,1400,solid,I,m,810,7,1,33016.39999997616,196723.69999992847,9059,ATS,A,13
14,test,1,A,haborder.png,1,z,Thu Mar 19 2026 15:02:18 GMT-0400 (Eastern Daylight Time),231841.19999992847,CFD-WF-019-015-A.jpg,1000,solid,I,z,1080,12,1,35117.5,196723.69999992847,9059,ATS,A,14
15,test,1,A,haborder.png,1,m,Thu Mar 19 2026 15:02:18 GMT-0400 (Eastern Daylight Time),234257.5,CFD-WF-017-016-HC.jpg,1500,solid,I,m,897,11,1,37533.800000071526,196723.69999992847,9059,ATS,A,15
15,test,1,A,haborder.png,0,z,Thu Mar 19 2026 15:02:18 GMT-0400 (Eastern Daylight Time),236791.19999992847,CFD-WF-019-015-A.jpg,1000,solid,I,None,1517,12,1,40067.5,196723.69999992847,9059,ATS,A,16
16,test,1,A,haborder.png,1,z,Thu Mar 19 2026 15:02:18 GMT-0400 (Eastern Daylight Time),239490.59999990463,CFD-WM-013-015-A.jpg,1900,solid,I,z,778,8,1,42766.89999997616,196723.69999992847,9059,ATS,A,17
17,test,1,A,haborder.png,1,m,Thu Mar 19 2026 15:02:18 GMT-0400 (Eastern Daylight Time),242189.5,CFD-BM-017-052-HC.jpg,1700,solid,I,m,980,1,1,45465.800000071526,196723.69999992847,9059,ATS,A,18
18,test,1,A,haborder.png,1,z,Thu Mar 19 2026 15:02:18 GMT-0400 (Eastern Daylight Time),243991.29999995232,CFD-BF-023-013-A.jpg,1000,solid,I,z,774,4,1,47267.60000002384,196723.69999992847,9059,ATS,A,19
19,test,1,A,haborder.png,1,m,Thu Mar 19 2026 15:02:18 GMT-0400 (Eastern Daylight Time),246240.29999995232,CFD-WM-004-005-HC.jpg,1400,solid,I,m,829,7,1,49516.60000002384,196723.69999992847,9059,ATS,A,20
20,test,1,A,haborder.png,1,m,Thu Mar 19 2026 15:02:18 GMT-0400 (Eastern Daylight Time),248840.69999992847,CFD-BM-017-052-HC.jpg,1700,solid,I,m,877,1,1,52117.0,196723.69999992847,9059,ATS,A,21
21,test,1,A,haborder.png,1,m,Thu Mar 19 2026 15:02:18 GMT-0400 (Eastern Daylight Time),251191.0,CFD-WM-006-013-HC.jpg,1700,solid,I,m,632,9,1,54467.300000071526,196723.69999992847,9059,ATS,A,22
22,test,1,A,haborder.png,1,z,Thu Mar 19 2026 15:02:18 GMT-0400 (Eastern Daylight Time),253572.59999990463,CFD-WF-003-014-A.jpg,1600,solid,I,z,765,10,1,56848.89999997616,196723.69999992847,9059,ATS,A,23
23,test,1,A,haborder.png,1,z,Thu Mar 19 2026 15:02:18 GMT-0400 (Eastern Daylight Time),255656.29999995232,CFD-BF-039-039-A.jpg,1200,solid,I,z,861,6,1,58932.60000002384,196723.69999992847,9059,ATS,A,24
1,test,1,B,mfborder.png,1,z,Thu Mar 19 2026 15:02:18 GMT-0400 (Eastern Daylight Time),270189.6999999285,CFD-BF-023-013-A.jpg,1000,dash,I,z,591,4,1,1616.6999999284744,268573.0,9059,ATS,A,1
2,test,1,B,mfborder.png,1,m,Thu Mar 19 2026 15:02:18 GMT-0400 (Eastern Daylight Time),272723.6999999285,CFD-BM-029-026-HC.jpg,1700,dash,I,m,810,1,1,4150.699999928474,268573.0,9059,ATS,A,2
3,test,1,B,mfborder.png,1,z,Thu Mar 19 2026 15:02:18 GMT-0400 (Eastern Daylight Time),274856.0,CFD-WF-003-014-A.jpg,1500,dash,I,z,612,11,1,6283.0,268573.0,9059,ATS,A,3
4,test,1,B,mfborder.png,1,m,Thu Mar 19 2026 15:02:18 GMT-0400 (Eastern Daylight Time),277173.2999999523,CFD-WM-013-015-A.jpg,1700,dash,I,m,592,9,1,8600.299999952316,268573.0,9059,ATS,A,4
5,test,1,B,mfborder.png,1,z,Thu Mar 19 2026 15:02:18 GMT-0400 (Eastern Daylight Time),278807.0,CFD-WF-017-016-HC.jpg,1000,dash,I,z,607,12,1,10234.0,268573.0,9059,ATS,A,5
6,test,1,B,mfborder.png,1,z,Thu Mar 19 2026 15:02:18 GMT-0400 (Eastern Daylight Time),280889.59999990463,CFD-WF-003-014-A.jpg,1500,dash,I,z,560,11,1,12316.599999904633,268573.0,9059,ATS,A,6
7,test,1,B,mfborder.png,1,z,Thu Mar 19 2026 15:02:18 GMT-0400 (Eastern Daylight Time),282439.59999990463,CFD-BF-023-013-A.jpg,1000,dash,I,z,521,4,1,13866.599999904633,268573.0,9059,ATS,A,7
8,test,1,B,mfborder.png,1,m,Thu Mar 19 2026 15:02:18 GMT-0400 (Eastern Daylight Time),284657.2999999523,CFD-BM-029-026-HC.jpg,1700,dash,I,m,497,1,1,16084.299999952316,268573.0,9059,ATS,A,8
9,test,1,B,mfborder.png,1,z,Thu Mar 19 2026 15:02:18 GMT-0400 (Eastern Daylight Time),286806.39999997616,CFD-BF-010-005-HC.jpg,1500,dash,I,z,630,3,1,18233.399999976158,268573.0,9059,ATS,A,9
10,test,1,B,mfborder.png,1,m,Thu Mar 19 2026 15:02:18 GMT-0400 (Eastern Daylight Time),289306.59999990463,CFD-BM-010-019-A.jpg,1600,dash,I,m,877,2,1,20733.599999904633,268573.0,9059,ATS,A,10
11,test,1,B,mfborder.png,1,z,Thu Mar 19 2026 15:02:18 GMT-0400 (Eastern Daylight Time),291406.7999999523,CFD-BF-028-020-HC.jpg,1400,dash,I,z,680,7,1,22833.799999952316,268573.0,9059,ATS,A,11
12,test,1,B,mfborder.png,1,m,Thu Mar 19 2026 15:02:18 GMT-0400 (Eastern Daylight Time),294390.09999990463,CFD-WM-006-013-HC.jpg,1600,dash,I,m,1366,10,1,25817.099999904633,268573.0,9059,ATS,A,12
13,test,1,B,mfborder.png,1,z,Thu Mar 19 2026 15:02:18 GMT-0400 (Eastern Daylight Time),296123.39999997616,CFD-WF-017-016-HC.jpg,1000,dash,I,z,702,12,1,27550.399999976158,268573.0,9059,ATS,A,13
14,test,1,B,mfborder.png,1,z,Thu Mar 19 2026 15:02:18 GMT-0400 (Eastern Daylight Time),298456.09999990463,CFD-BF-010-005-HC.jpg,1500,dash,I,z,812,3,1,29883.099999904633,268573.0,9059,ATS,A,14
15,test,1,B,mfborder.png,1,z,Thu Mar 19 2026 15:02:18 GMT-0400 (Eastern Daylight Time),300473.7999999523,CFD-BF-028-020-HC.jpg,1400,dash,I,z,594,7,1,31900.799999952316,268573.0,9059,ATS,A,15
16,test,1,B,mfborder.png,1,m,Thu Mar 19 2026 15:02:18 GMT-0400 (Eastern Daylight Time),302956.5,CFD-BM-010-019-A.jpg,1600,dash,I,m,849,2,1,34383.5,268573.0,9059,ATS,A,16
17,test,1,B,mfborder.png,1,m,Thu Mar 19 2026 15:02:18 GMT-0400 (Eastern Daylight Time),305656.6999999285,CFD-BM-005-010-A.jpg,2000,dash,I,m,679,5,1,37083.699999928474,268573.0,9059,ATS,A,17
18,test,1,B,mfborder.png,1,z,Thu Mar 19 2026 15:02:18 GMT-0400 (Eastern Daylight Time),308256.2999999523,CFD-WF-002-008-HC.jpg,1900,dash,I,z,678,8,1,39683.299999952316,268573.0,9059,ATS,A,18
19,test,1,B,mfborder.png,1,m,Thu Mar 19 2026 15:02:18 GMT-0400 (Eastern Daylight Time),310557.0,CFD-WM-006-013-HC.jpg,1600,dash,I,m,666,10,1,41984.0,268573.0,9059,ATS,A,19
20,test,1,B,mfborder.png,1,m,Thu Mar 19 2026 15:02:18 GMT-0400 (Eastern Daylight Time),313191.39999997616,CFD-BM-005-010-A.jpg,2000,dash,I,m,608,5,1,44618.39999997616,268573.0,9059,ATS,A,20
21,test,1,B,mfborder.png,1,z,Thu Mar 19 2026 15:02:18 GMT-0400 (Eastern Daylight Time),315840.6999999285,CFD-WF-002-008-HC.jpg,1900,dash,I,z,729,8,1,47267.699999928474,268573.0,9059,ATS,A,21
22,test,1,B,mfborder.png,1,m,Thu Mar 19 2026 15:02:18 GMT-0400 (Eastern Daylight Time),317939.7999999523,CFD-WM-019-013-A.jpg,1200,dash,I,m,867,6,1,49366.799999952316,268573.0,9059,ATS,A,22
23,test,1,B,mfborder.png,1,m,Thu Mar 19 2026 15:02:18 GMT-0400 (Eastern Daylight Time),320306.39999997616,CFD-WM-013-015-A.jpg,1700,dash,I,m,642,9,1,51733.39999997616,268573.0,9059,ATS,A,23
24,test,1,B,mfborder.png,1,m,Thu Mar 19 2026 15:02:18 GMT-0400 (Eastern Daylight Time),322107.1999999285,CFD-WM-019-013-A.jpg,1200,dash,I,m,578,6,1,53534.199999928474,268573.0,9059,ATS,A,24
0,prac,1,C,haborder.png,0,m,Thu Mar 19 2026 15:02:18 GMT-0400 (Eastern Daylight Time),364706.59999990463,CFD-WM-004-005-HC.jpg,1000,dash,I,None,1516,11,1,3299.899999976158,361406.6999999285,9059,ATS,A,1
1,prac,1,C,mfborder.png,1,z,Thu Mar 19 2026 15:02:18 GMT-0400 (Eastern Daylight Time),367407.39999997616,CFD-BF-028-020-HC.jpg,1000,dash,I,z,913,3,1,6000.700000047684,361406.6999999285,9059,ATS,A,2
2,prac,1,C,haborder.png,1,z,Thu Mar 19 2026 15:02:18 GMT-0400 (Eastern Daylight Time),371307.1999999285,CFD-BF-023-013-A.jpg,1900,dash,I,z,1217,7,1,9900.5,361406.6999999285,9059,ATS,A,3
3,prac,1,C,mfborder.png,1,z,Thu Mar 19 2026 15:02:18 GMT-0400 (Eastern Daylight Time),374223.7999999523,CFD-WF-019-015-A.jpg,1500,solid,I,z,644,2,1,12817.100000023842,361406.6999999285,9059,ATS,A,4
4,prac,1,C,haborder.png,1,m,Thu Mar 19 2026 15:02:18 GMT-0400 (Eastern Daylight Time),377191.1999999285,CFD-BM-029-026-HC.jpg,1500,solid,I,m,680,10,1,15784.5,361406.6999999285,9059,ATS,A,5
5,prac,1,C,mfborder.png,1,m,Thu Mar 19 2026 15:02:18 GMT-0400 (Eastern Daylight Time),380273.1999999285,CFD-BM-005-010-A.jpg,1200,dash,I,m,1084,5,1,18866.5,361406.6999999285,9059,ATS,A,6
6,prac,1,C,haborder.png,1,m,Thu Mar 19 2026 15:02:18 GMT-0400 (Eastern Daylight Time),383073.6999999285,CFD-WM-004-005-HC.jpg,1400,solid,I,m,602,12,1,21667.0,361406.6999999285,9059,ATS,A,7
7,prac,1,C,haborder.png,1,z,Thu Mar 19 2026 15:02:18 GMT-0400 (Eastern Daylight Time),386189.7999999523,CFD-WF-003-014-A.jpg,1600,dash,I,z,730,9,1,24783.100000023842,361406.6999999285,9059,ATS,A,8
8,prac,1,C,haborder.png,1,z,Thu Mar 19 2026 15:02:18 GMT-0400 (Eastern Daylight Time),389557.0,CFD-BF-039-039-A.jpg,1700,solid,I,z,873,8,1,28150.300000071526,361406.6999999285,9059,ATS,A,9
9,prac,1,C,mfborder.png,1,z,Thu Mar 19 2026 15:02:18 GMT-0400 (Eastern Daylight Time),392641.0,CFD-WF-017-016-HC.jpg,1600,dash,I,z,685,1,1,31234.300000071526,361406.6999999285,9059,ATS,A,10
9,prac,1,C,mfborder.png,0,m,Thu Mar 19 2026 15:02:18 GMT-0400 (Eastern Daylight Time),395673.39999997616,CFD-WM-013-015-A.jpg,1700,solid,I,z,542,6,1,34266.700000047684,361406.6999999285,9059,ATS,A,11
10,prac,1,C,mfborder.png,1,m,Thu Mar 19 2026 15:02:18 GMT-0400 (Eastern Daylight Time),399474.5,CFD-BM-017-052-HC.jpg,2000,solid,I,m,1009,4,1,38067.800000071526,361406.6999999285,9059,ATS,A,12
1,test,1,C,mfborder.png,1,z,Thu Mar 19 2026 15:02:18 GMT-0400 (Eastern Daylight Time),410156.89999997616,CFD-WF-003-014-A.jpg,1500,dash,I,z,766,3,1,2300.2000000476837,407856.6999999285,9059,ATS,A,1
2,test,1,C,mfborder.png,1,z,Thu Mar 19 2026 15:02:18 GMT-0400 (Eastern Daylight Time),412591.09999990463,CFD-BF-023-013-A.jpg,1600,dash,I,z,813,2,1,4734.399999976158,407856.6999999285,9059,ATS,A,2
3,test,1,C,mfborder.png,1,z,Thu Mar 19 2026 15:02:18 GMT-0400 (Eastern Daylight Time),414973.09999990463,CFD-BF-010-005-HC.jpg,1700,dash,I,z,657,1,1,7116.399999976158,407856.6999999285,9059,ATS,A,3
4,test,1,C,mfborder.png,1,m,Thu Mar 19 2026 15:02:18 GMT-0400 (Eastern Daylight Time),416790.09999990463,CFD-WM-006-013-HC.jpg,1000,dash,I,m,790,4,1,8933.399999976158,407856.6999999285,9059,ATS,A,4
5,test,1,C,mfborder.png,1,z,Thu Mar 19 2026 15:02:18 GMT-0400 (Eastern Daylight Time),419156.5,CFD-BF-023-013-A.jpg,1600,dash,I,z,741,2,1,11299.800000071526,407856.6999999285,9059,ATS,A,5
5,test,1,C,haborder.png,0,z,Thu Mar 19 2026 15:02:18 GMT-0400 (Eastern Daylight Time),421389.7999999523,CFD-WM-013-015-A.jpg,1400,solid,I,m,806,7,1,13533.100000023842,407856.6999999285,9059,ATS,A,6
5,test,1,C,haborder.png,0,m,Thu Mar 19 2026 15:02:18 GMT-0400 (Eastern Daylight Time),423107.0,CFD-WF-017-016-HC.jpg,1000,solid,I,z,683,12,1,15250.300000071526,407856.6999999285,9059,ATS,A,7
5,test,1,C,haborder.png,0,m,Thu Mar 19 2026 15:02:18 GMT-0400 (Eastern Daylight Time),425173.09999990463,CFD-WF-002-008-HC.jpg,1500,solid,I,z,540,11,1,17316.399999976158,407856.6999999285,9059,ATS,A,8
5,test,1,C,haborder.png,0,m,Thu Mar 19 2026 15:02:18 GMT-0400 (Eastern Daylight Time),427324.1999999285,CFD-BF-028-020-HC.jpg,1600,solid,I,z,525,10,1,19467.5,407856.6999999285,9059,ATS,A,9
5,test,1,C,haborder.png,0,z,Thu Mar 19 2026 15:02:18 GMT-0400 (Eastern Daylight Time),430024.0,CFD-BM-005-010-A.jpg,1900,solid,I,m,772,8,1,22167.300000071526,407856.6999999285,9059,ATS,A,10
5,test,1,C,haborder.png,0,m,Thu Mar 19 2026 15:02:18 GMT-0400 (Eastern Daylight Time),432473.2999999523,CFD-BF-028-020-HC.jpg,1600,solid,I,z,828,10,1,24616.600000023842,407856.6999999285,9059,ATS,A,11
6,test,1,C,mfborder.png,1,m,Thu Mar 19 2026 15:02:18 GMT-0400 (Eastern Daylight Time),435189.6999999285,CFD-WM-019-013-A.jpg,2000,dash,I,m,696,5,1,27333.0,407856.6999999285,9059,ATS,A,12
7,test,1,C,mfborder.png,1,m,Thu Mar 19 2026 15:02:18 GMT-0400 (Eastern Daylight Time),436940.0,CFD-WM-006-013-HC.jpg,1000,dash,I,m,733,4,1,29083.300000071526,407856.6999999285,9059,ATS,A,13
7,test,1,C,haborder.png,0,z,Thu Mar 19 2026 15:02:18 GMT-0400 (Eastern Daylight Time),439489.89999997616,CFD-BM-010-019-A.jpg,1700,solid,I,m,827,9,1,31633.200000047684,407856.6999999285,9059,ATS,A,14
8,test,1,C,mfborder.png,1,m,Thu Mar 19 2026 15:02:18 GMT-0400 (Eastern Daylight Time),442507.2999999523,CFD-WM-019-013-A.jpg,2000,dash,I,m,984,5,1,34650.60000002384,407856.6999999285,9059,ATS,A,15
8,test,1,C,haborder.png,0,z,Thu Mar 19 2026 15:02:18 GMT-0400 (Eastern Daylight Time),445023.09999990463,CFD-BM-005-010-A.jpg,1900,solid,I,m,595,8,1,37166.39999997616,407856.6999999285,9059,ATS,A,16
8,test,1,C,haborder.png,0,m,Thu Mar 19 2026 15:02:18 GMT-0400 (Eastern Daylight Time),446706.7999999523,CFD-WF-017-016-HC.jpg,1000,solid,I,z,659,12,1,38850.10000002384,407856.6999999285,9059,ATS,A,17
9,test,1,C,mfborder.png,1,z,Thu Mar 19 2026 15:02:18 GMT-0400 (Eastern Daylight Time),449456.59999990463,CFD-BF-010-005-HC.jpg,1700,dash,I,z,1020,1,1,41599.89999997616,407856.6999999285,9059,ATS,A,18
10,test,1,C,mfborder.png,1,m,Thu Mar 19 2026 15:02:18 GMT-0400 (Eastern Daylight Time),451858.89999997616,CFD-BM-029-026-HC.jpg,1200,dash,I,m,1178,6,1,44002.200000047684,407856.6999999285,9059,ATS,A,19
11,test,1,C,mfborder.png,1,z,Thu Mar 19 2026 15:02:18 GMT-0400 (Eastern Daylight Time),454574.1999999285,CFD-WF-003-014-A.jpg,1500,dash,I,z,1192,3,1,46717.5,407856.6999999285,9059,ATS,A,20
11,test,1,C,haborder.png,0,z,Thu Mar 19 2026 15:02:18 GMT-0400 (Eastern Daylight Time),456656.39999997616,CFD-WM-013-015-A.jpg,1400,solid,I,m,662,7,1,48799.700000047684,407856.6999999285,9059,ATS,A,21
11,test,1,C,haborder.png,0,z,Thu Mar 19 2026 15:02:18 GMT-0400 (Eastern Daylight Time),459173.89999997616,CFD-BM-010-019-A.jpg,1700,solid,I,m,783,9,1,51317.200000047684,407856.6999999285,9059,ATS,A,22
12,test,1,C,mfborder.png,1,m,Thu Mar 19 2026 15:02:18 GMT-0400 (Eastern Daylight Time),461357.0,CFD-BM-029-026-HC.jpg,1200,dash,I,m,949,6,1,53500.300000071526,407856.6999999285,9059,ATS,A,23
12,test,1,C,haborder.png,0,m,Thu Mar 19 2026 15:02:18 GMT-0400 (Eastern Daylight Time),463740.39999997616,CFD-WF-002-008-HC.jpg,1500,solid,I,z,850,11,1,55883.700000047684,407856.6999999285,9059,ATS,A,24
1,test,2,C,haborder.png,1,m,Thu Mar 19 2026 15:02:18 GMT-0400 (Eastern Daylight Time),477740.09999990463,CFD-WM-004-005-HC.jpg,1500,solid,I,m,750,11,1,2282.899999976158,475457.1999999285,9059,ATS,A,1
2,test,2,C,haborder.png,1,m,Thu Mar 19 2026 15:02:18 GMT-0400 (Eastern Daylight Time),479607.1999999285,CFD-WM-004-005-HC.jpg,1000,solid,I,m,839,12,1,4150.0,475457.1999999285,9059,ATS,A,2
3,test,2,C,haborder.png,1,m,Thu Mar 19 2026 15:02:18 GMT-0400 (Eastern Daylight Time),481757.5,CFD-WM-004-005-HC.jpg,1500,solid,I,m,616,11,1,6300.300000071526,475457.1999999285,9059,ATS,A,3
4,test,2,C,haborder.png,1,z,Thu Mar 19 2026 15:02:18 GMT-0400 (Eastern Daylight Time),484240.09999990463,CFD-WF-003-014-A.jpg,1700,solid,I,z,754,9,1,8782.899999976158,475457.1999999285,9059,ATS,A,4
5,test,2,C,mfborder.png,1,m,Thu Mar 19 2026 15:02:18 GMT-0400 (Eastern Daylight Time),487306.6999999285,CFD-BM-005-010-A.jpg,2000,dash,I,m,1035,5,1,11849.5,475457.1999999285,9059,ATS,A,5
6,test,2,C,haborder.png,1,m,Thu Mar 19 2026 15:02:18 GMT-0400 (Eastern Daylight Time),489640.6999999285,CFD-BM-029-026-HC.jpg,1600,solid,I,m,712,10,1,14183.5,475457.1999999285,9059,ATS,A,6
7,test,2,C,mfborder.png,1,z,Thu Mar 19 2026 15:02:18 GMT-0400 (Eastern Daylight Time),491890.09999990463,CFD-BF-028-020-HC.jpg,1500,dash,I,z,719,3,1,16432.899999976158,475457.1999999285,9059,ATS,A,7
8,test,2,C,mfborder.png,1,m,Thu Mar 19 2026 15:02:18 GMT-0400 (Eastern Daylight Time),493940.09999990463,CFD-WM-013-015-A.jpg,1200,dash,I,m,826,6,1,18482.899999976158,475457.1999999285,9059,ATS,A,8
9,test,2,C,mfborder.png,1,z,Thu Mar 19 2026 15:02:18 GMT-0400 (Eastern Daylight Time),496656.2999999523,CFD-WF-017-016-HC.jpg,1700,dash,I,z,987,1,1,21199.100000023842,475457.1999999285,9059,ATS,A,9
10,test,2,C,mfborder.png,1,m,Thu Mar 19 2026 15:02:18 GMT-0400 (Eastern Daylight Time),498757.7999999523,CFD-WM-013-015-A.jpg,1200,dash,I,m,874,6,1,23300.600000023842,475457.1999999285,9059,ATS,A,10
11,test,2,C,mfborder.png,1,z,Thu Mar 19 2026 15:02:18 GMT-0400 (Eastern Daylight Time),501606.5,CFD-BF-028-020-HC.jpg,1500,dash,I,z,1330,3,1,26149.300000071526,475457.1999999285,9059,ATS,A,11
12,test,2,C,haborder.png,1,z,Thu Mar 19 2026 15:02:18 GMT-0400 (Eastern Daylight Time),503940.59999990463,CFD-WF-003-014-A.jpg,1700,solid,I,z,601,9,1,28483.399999976158,475457.1999999285,9059,ATS,A,12
13,test,2,C,mfborder.png,1,m,Thu Mar 19 2026 15:02:18 GMT-0400 (Eastern Daylight Time),505807.09999990463,CFD-BM-017-052-HC.jpg,1000,dash,I,m,841,4,1,30349.899999976158,475457.1999999285,9059,ATS,A,13
14,test,2,C,mfborder.png,1,z,Thu Mar 19 2026 15:02:18 GMT-0400 (Eastern Daylight Time),508189.6999999285,CFD-WF-019-015-A.jpg,1600,dash,I,z,764,2,1,32732.5,475457.1999999285,9059,ATS,A,14
15,test,2,C,mfborder.png,1,m,Thu Mar 19 2026 15:02:18 GMT-0400 (Eastern Daylight Time),510224.2999999523,CFD-BM-017-052-HC.jpg,1000,dash,I,m,1013,4,1,34767.10000002384,475457.1999999285,9059,ATS,A,15
16,test,2,C,haborder.png,1,z,Thu Mar 19 2026 15:02:18 GMT-0400 (Eastern Daylight Time),513023.09999990463,CFD-BF-039-039-A.jpg,1900,solid,I,z,879,8,1,37565.89999997616,475457.1999999285,9059,ATS,A,16
17,test,2,C,mfborder.png,1,z,Thu Mar 19 2026 15:02:18 GMT-0400 (Eastern Daylight Time),515323.89999997616,CFD-WF-017-016-HC.jpg,1700,dash,I,z,577,1,1,39866.700000047684,475457.1999999285,9059,ATS,A,17
18,test,2,C,haborder.png,1,z,Thu Mar 19 2026 15:02:18 GMT-0400 (Eastern Daylight Time),517324.5,CFD-BF-023-013-A.jpg,1400,solid,I,z,568,7,1,41867.300000071526,475457.1999999285,9059,ATS,A,18
19,test,2,C,haborder.png,1,z,Thu Mar 19 2026 15:02:18 GMT-0400 (Eastern Daylight Time),519357.2999999523,CFD-BF-023-013-A.jpg,1400,solid,I,z,608,7,1,43900.10000002384,475457.1999999285,9059,ATS,A,19
20,test,2,C,haborder.png,1,m,Thu Mar 19 2026 15:02:18 GMT-0400 (Eastern Daylight Time),521124.59999990463,CFD-WM-004-005-HC.jpg,1000,solid,I,m,734,12,1,45667.39999997616,475457.1999999285,9059,ATS,A,20
21,test,2,C,haborder.png,1,m,Thu Mar 19 2026 15:02:18 GMT-0400 (Eastern Daylight Time),523340.89999997616,CFD-BM-029-026-HC.jpg,1600,solid,I,m,592,10,1,47883.700000047684,475457.1999999285,9059,ATS,A,21
22,test,2,C,mfborder.png,1,m,Thu Mar 19 2026 15:02:18 GMT-0400 (Eastern Daylight Time),526373.2999999523,CFD-BM-005-010-A.jpg,2000,dash,I,m,1006,5,1,50916.10000002384,475457.1999999285,9059,ATS,A,22
23,test,2,C,mfborder.png,1,z,Thu Mar 19 2026 15:02:18 GMT-0400 (Eastern Daylight Time),528873.0999999046,CFD-WF-019-015-A.jpg,1600,dash,I,z,868,2,1,53415.89999997616,475457.1999999285,9059,ATS,A,23
24,test,2,C,haborder.png,1,z,Thu Mar 19 2026 15:02:18 GMT-0400 (Eastern Daylight Time),531457.0999999046,CFD-BF-039-039-A.jpg,1900,solid,I,z,653,8,1,55999.89999997616,475457.1999999285,9059,ATS,A,24
1,test,3,C,mfborder.png,1,z,Thu Mar 19 2026 15:02:18 GMT-0400 (Eastern Daylight Time),539723.6999999285,CFD-BF-023-013-A.jpg,1600,dash,I,z,650,2,1,2283.0,537440.6999999285,9059,ATS,A,1
1,test,3,C,haborder.png,0,m,Thu Mar 19 2026 15:02:18 GMT-0400 (Eastern Daylight Time),542074.0999999046,CFD-BF-028-020-HC.jpg,1600,solid,I,z,719,10,1,4633.399999976158,537440.6999999285,9059,ATS,A,2
2,test,3,C,mfborder.png,1,m,Thu Mar 19 2026 15:02:18 GMT-0400 (Eastern Daylight Time),544473.6999999285,CFD-WM-006-013-HC.jpg,1000,dash,I,m,1378,4,1,7033.0,537440.6999999285,9059,ATS,A,3
3,test,3,C,mfborder.png,1,m,Thu Mar 19 2026 15:02:18 GMT-0400 (Eastern Daylight Time),547073.5999999046,CFD-WM-019-013-A.jpg,2000,dash,I,m,575,5,1,9632.899999976158,537440.6999999285,9059,ATS,A,4
3,test,3,C,haborder.png,0,z,Thu Mar 19 2026 15:02:18 GMT-0400 (Eastern Daylight Time),548990.2999999523,CFD-WM-013-015-A.jpg,1400,solid,I,m,489,7,1,11549.600000023842,537440.6999999285,9059,ATS,A,5
4,test,3,C,mfborder.png,1,z,Thu Mar 19 2026 15:02:18 GMT-0400 (Eastern Daylight Time),551306.6999999285,CFD-BF-010-005-HC.jpg,1700,dash,I,z,592,1,1,13866.0,537440.6999999285,9059,ATS,A,6
5,test,3,C,mfborder.png,1,m,Thu Mar 19 2026 15:02:18 GMT-0400 (Eastern Daylight Time),554073.2999999523,CFD-WM-019-013-A.jpg,2000,dash,I,m,736,5,1,16632.600000023842,537440.6999999285,9059,ATS,A,7
6,test,3,C,mfborder.png,1,m,Thu Mar 19 2026 15:02:18 GMT-0400 (Eastern Daylight Time),555824.0999999046,CFD-WM-006-013-HC.jpg,1000,dash,I,m,729,4,1,18383.399999976158,537440.6999999285,9059,ATS,A,8
6,test,3,C,haborder.png,0,m,Thu Mar 19 2026 15:02:18 GMT-0400 (Eastern Daylight Time),558006.6999999285,CFD-WF-002-008-HC.jpg,1500,solid,I,z,664,11,1,20566.0,537440.6999999285,9059,ATS,A,9
6,test,3,C,haborder.png,0,z,Thu Mar 19 2026 15:02:18 GMT-0400 (Eastern Daylight Time),560590.6999999285,CFD-BM-005-010-A.jpg,1900,solid,I,m,656,8,1,23150.0,537440.6999999285,9059,ATS,A,10
7,test,3,C,mfborder.png,1,m,Thu Mar 19 2026 15:02:18 GMT-0400 (Eastern Daylight Time),562524.2999999523,CFD-BM-029-026-HC.jpg,1200,dash,I,m,716,6,1,25083.600000023842,537440.6999999285,9059,ATS,A,11
7,test,3,C,haborder.png,0,z,Thu Mar 19 2026 15:02:18 GMT-0400 (Eastern Daylight Time),564506.7999999523,CFD-WM-013-015-A.jpg,1400,solid,I,m,559,7,1,27066.100000023842,537440.6999999285,9059,ATS,A,12
7,test,3,C,haborder.png,0,m,Thu Mar 19 2026 15:02:18 GMT-0400 (Eastern Daylight Time),566306.5,CFD-WF-017-016-HC.jpg,1000,solid,I,z,776,12,1,28865.800000071526,537440.6999999285,9059,ATS,A,13
7,test,3,C,haborder.png,0,m,Thu Mar 19 2026 15:02:18 GMT-0400 (Eastern Daylight Time),567873.5999999046,CFD-WF-017-016-HC.jpg,1000,solid,I,z,544,12,1,30432.899999976158,537440.6999999285,9059,ATS,A,14
8,test,3,C,mfborder.png,1,z,Thu Mar 19 2026 15:02:18 GMT-0400 (Eastern Daylight Time),569957.3999999762,CFD-WF-003-014-A.jpg,1500,dash,I,z,551,3,1,32516.700000047684,537440.6999999285,9059,ATS,A,15
8,test,3,C,haborder.png,0,z,Thu Mar 19 2026 15:02:18 GMT-0400 (Eastern Daylight Time),572173.7999999523,CFD-BM-010-019-A.jpg,1700,solid,I,m,497,9,1,34733.10000002384,537440.6999999285,9059,ATS,A,16
9,test,3,C,mfborder.png,1,m,Thu Mar 19 2026 15:02:18 GMT-0400 (Eastern Daylight Time),573990.0999999046,CFD-BM-029-026-HC.jpg,1200,dash,I,m,596,6,1,36549.39999997616,537440.6999999285,9059,ATS,A,17
10,test,3,C,mfborder.png,1,z,Thu Mar 19 2026 15:02:18 GMT-0400 (Eastern Daylight Time),576274.0999999046,CFD-BF-023-013-A.jpg,1600,dash,I,z,663,2,1,38833.39999997616,537440.6999999285,9059,ATS,A,18
11,test,3,C,mfborder.png,1,z,Thu Mar 19 2026 15:02:18 GMT-0400 (Eastern Daylight Time),578773.5999999046,CFD-BF-010-005-HC.jpg,1700,dash,I,z,781,1,1,41332.89999997616,537440.6999999285,9059,ATS,A,19
11,test,3,C,haborder.png,0,m,Thu Mar 19 2026 15:02:18 GMT-0400 (Eastern Daylight Time),580956.5,CFD-WF-002-008-HC.jpg,1500,solid,I,z,665,11,1,43515.800000071526,537440.6999999285,9059,ATS,A,20
11,test,3,C,haborder.png,0,z,Thu Mar 19 2026 15:02:18 GMT-0400 (Eastern Daylight Time),583491.0999999046,CFD-BM-005-010-A.jpg,1900,solid,I,m,604,8,1,46050.39999997616,537440.6999999285,9059,ATS,A,21
11,test,3,C,haborder.png,0,m,Thu Mar 19 2026 15:02:18 GMT-0400 (Eastern Daylight Time),586007.1999999285,CFD-BF-028-020-HC.jpg,1600,solid,I,z,888,10,1,48566.5,537440.6999999285,9059,ATS,A,22
12,test,3,C,mfborder.png,1,z,Thu Mar 19 2026 15:02:18 GMT-0400 (Eastern Daylight Time),588123.2999999523,CFD-WF-003-014-A.jpg,1500,dash,I,z,591,3,1,50682.60000002384,537440.6999999285,9059,ATS,A,23
12,test,3,C,haborder.png,0,z,Thu Mar 19 2026 15:02:18 GMT-0400 (Eastern Daylight Time),590741.0999999046,CFD-BM-010-019-A.jpg,1700,solid,I,m,899,9,1,53300.39999997616,537440.6999999285,9059,ATS,A,24
1,test,4,C,haborder.png,1,z,Thu Mar 19 2026 15:02:18 GMT-0400 (Eastern Daylight Time),595457.7999999523,CFD-BF-023-013-A.jpg,1400,solid,I,z,812,7,1,2234.5,593223.2999999523,9059,ATS,A,1
2,test,4,C,haborder.png,1,z,Thu Mar 19 2026 15:02:18 GMT-0400 (Eastern Daylight Time),598123.8999999762,CFD-BF-039-039-A.jpg,1900,solid,I,z,734,8,1,4900.600000023842,593223.2999999523,9059,ATS,A,2
3,test,4,C,mfborder.png,1,m,Thu Mar 19 2026 15:02:18 GMT-0400 (Eastern Daylight Time),600373.2999999523,CFD-BM-017-052-HC.jpg,1000,dash,I,m,1232,4,1,7150.0,593223.2999999523,9059,ATS,A,3
4,test,4,C,haborder.png,1,m,Thu Mar 19 2026 15:02:18 GMT-0400 (Eastern Daylight Time),602807.5999999046,CFD-WM-004-005-HC.jpg,1500,solid,I,m,906,11,1,9584.299999952316,593223.2999999523,9059,ATS,A,4
5,test,4,C,mfborder.png,1,z,Thu Mar 19 2026 15:02:18 GMT-0400 (Eastern Daylight Time),605923.7999999523,CFD-WF-019-015-A.jpg,1600,dash,I,z,1484,2,1,12700.5,593223.2999999523,9059,ATS,A,5
6,test,4,C,mfborder.png,1,m,Thu Mar 19 2026 15:02:18 GMT-0400 (Eastern Daylight Time),608540.2999999523,CFD-BM-005-010-A.jpg,2000,dash,I,m,599,5,1,15317.0,593223.2999999523,9059,ATS,A,6
7,test,4,C,haborder.png,1,m,Thu Mar 19 2026 15:02:18 GMT-0400 (Eastern Daylight Time),611140.0999999046,CFD-BM-029-026-HC.jpg,1600,solid,I,m,967,10,1,17916.799999952316,593223.2999999523,9059,ATS,A,7
8,test,4,C,mfborder.png,1,m,Thu Mar 19 2026 15:02:18 GMT-0400 (Eastern Daylight Time),613290.0,CFD-WM-013-015-A.jpg,1200,dash,I,m,926,6,1,20066.700000047684,593223.2999999523,9059,ATS,A,8
9,test,4,C,haborder.png,1,m,Thu Mar 19 2026 15:02:18 GMT-0400 (Eastern Daylight Time),615490.8999999762,CFD-BM-029-026-HC.jpg,1600,solid,I,m,579,10,1,22267.600000023842,593223.2999999523,9059,ATS,A,9
10,test,4,C,haborder.png,1,z,Thu Mar 19 2026 15:02:18 GMT-0400 (Eastern Daylight Time),617806.5999999046,CFD-WF-003-014-A.jpg,1700,solid,I,z,596,9,1,24583.299999952316,593223.2999999523,9059,ATS,A,10
11,test,4,C,mfborder.png,1,z,Thu Mar 19 2026 15:02:18 GMT-0400 (Eastern Daylight Time),620007.1999999285,CFD-WF-019-015-A.jpg,1600,dash,I,z,572,2,1,26783.899999976158,593223.2999999523,9059,ATS,A,11
12,test,4,C,mfborder.png,1,z,Thu Mar 19 2026 15:02:18 GMT-0400 (Eastern Daylight Time),622306.5999999046,CFD-WF-017-016-HC.jpg,1700,dash,I,z,567,1,1,29083.299999952316,593223.2999999523,9059,ATS,A,12
13,test,4,C,haborder.png,1,m,Thu Mar 19 2026 15:02:18 GMT-0400 (Eastern Daylight Time),624024.7999999523,CFD-WM-004-005-HC.jpg,1000,solid,I,m,695,12,1,30801.5,593223.2999999523,9059,ATS,A,13
14,test,4,C,mfborder.png,1,m,Thu Mar 19 2026 15:02:18 GMT-0400 (Eastern Daylight Time),625956.6999999285,CFD-WM-013-015-A.jpg,1200,dash,I,m,714,6,1,32733.399999976158,593223.2999999523,9059,ATS,A,14
15,test,4,C,haborder.png,1,z,Thu Mar 19 2026 15:02:18 GMT-0400 (Eastern Daylight Time),628340.1999999285,CFD-WF-003-014-A.jpg,1700,solid,I,z,658,9,1,35116.89999997616,593223.2999999523,9059,ATS,A,15
16,test,4,C,mfborder.png,1,z,Thu Mar 19 2026 15:02:18 GMT-0400 (Eastern Daylight Time),630540.0999999046,CFD-BF-028-020-HC.jpg,1500,dash,I,z,667,3,1,37316.799999952316,593223.2999999523,9059,ATS,A,16
17,test,4,C,mfborder.png,1,m,Thu Mar 19 2026 15:02:18 GMT-0400 (Eastern Daylight Time),632340.1999999285,CFD-BM-017-052-HC.jpg,1000,dash,I,m,767,4,1,39116.89999997616,593223.2999999523,9059,ATS,A,17
18,test,4,C,haborder.png,1,z,Thu Mar 19 2026 15:02:18 GMT-0400 (Eastern Daylight Time),634989.8999999762,CFD-BF-039-039-A.jpg,1900,solid,I,z,722,8,1,41766.60000002384,593223.2999999523,9059,ATS,A,18
19,test,4,C,mfborder.png,1,z,Thu Mar 19 2026 15:02:18 GMT-0400 (Eastern Daylight Time),637191.2999999523,CFD-BF-028-020-HC.jpg,1500,dash,I,z,672,3,1,43968.0,593223.2999999523,9059,ATS,A,19
20,test,4,C,mfborder.png,1,m,Thu Mar 19 2026 15:02:18 GMT-0400 (Eastern Daylight Time),639890.0999999046,CFD-BM-005-010-A.jpg,2000,dash,I,m,678,5,1,46666.799999952316,593223.2999999523,9059,ATS,A,20
21,test,4,C,haborder.png,1,m,Thu Mar 19 2026 15:02:18 GMT-0400 (Eastern Daylight Time),642090.0999999046,CFD-WM-004-005-HC.jpg,1500,solid,I,m,668,11,1,48866.799999952316,593223.2999999523,9059,ATS,A,21
22,test,4,C,mfborder.png,1,z,Thu Mar 19 2026 15:02:18 GMT-0400 (Eastern Daylight Time),644457.1999999285,CFD-WF-017-016-HC.jpg,1700,dash,I,z,646,1,1,51233.89999997616,593223.2999999523,9059,ATS,A,22
23,test,4,C,haborder.png,1,m,Thu Mar 19 2026 15:02:18 GMT-0400 (Eastern Daylight Time),646157.5999999046,CFD-WM-004-005-HC.jpg,1000,solid,I,m,682,12,1,52934.299999952316,593223.2999999523,9059,ATS,A,23
24,test,4,C,haborder.png,1,z,Thu Mar 19 2026 15:02:18 GMT-0400 (Eastern Daylight Time),648306.5,CFD-BF-023-013-A.jpg,1400,solid,I,z,725,7,1,55083.200000047684,593223.2999999523,9059,ATS,A,24
