block_c,block_dur,condition,countdown,datetime,endtime,list,multichar_response,project,response,response_time,session_number,start_end,starttime,subject_id,task,task_vers,trial
,,,,Wed Dec 03 2025 16:29:48 GMT-0600 (Central Standard Time),,,,O,space,1771,1,,,7250,WL,B,
prac,,0,,Wed Dec 03 2025 16:29:48 GMT-0600 (Central Standard Time),,NA,b,O,b,7730,1,,,7250,WL,B,1.0
prac,,0,,Wed Dec 03 2025 16:29:48 GMT-0600 (Central Standard Time),,NA,bo,O,o,393,1,,,7250,WL,B,1.0
prac,,0,,Wed Dec 03 2025 16:29:48 GMT-0600 (Central Standard Time),,NA,boo,O,o,161,1,,,7250,WL,B,1.0
prac,,0,,Wed Dec 03 2025 16:29:48 GMT-0600 (Central Standard Time),,NA,boos,O,s,180,1,,,7250,WL,B,1.0
prac,,0,,Wed Dec 03 2025 16:29:48 GMT-0600 (Central Standard Time),,NA,boost,O,t,321,1,,,7250,WL,B,1.0
prac,,0,,Wed Dec 03 2025 16:29:48 GMT-0600 (Central Standard Time),,NA,boostenter,O,enter,252,1,,,7250,WL,B,1.0
1,0.817000150680542,learn,59182.99984931946,Wed Dec 03 2025 16:29:48 GMT-0600 (Central Standard Time),138298.0,A,s,O,s,796,1,817.0,137481.0,7250,WL,B,1.0
1,0.9840002059936523,learn,59015.99979400635,Wed Dec 03 2025 16:29:48 GMT-0600 (Central Standard Time),138464.20000001788,A,st,O,t,147,1,983.2000000178814,137481.0,7250,WL,B,1.0
1,1.2010002136230469,learn,58798.99978637695,Wed Dec 03 2025 16:29:48 GMT-0600 (Central Standard Time),138681.5,A,str,O,r,196,1,1200.5,137481.0,7250,WL,B,1.0
1,1.2660000324249268,learn,58733.99996757507,Wed Dec 03 2025 16:29:48 GMT-0600 (Central Standard Time),138746.10000002384,A,stre,O,e,57,1,1265.1000000238419,137481.0,7250,WL,B,1.0
1,1.4500000476837158,learn,58549.999952316284,Wed Dec 03 2025 16:29:48 GMT-0600 (Central Standard Time),138931.0,A,stree,O,e,180,1,1450.0,137481.0,7250,WL,B,1.0
1,1.5830001831054688,learn,58416.99981689453,Wed Dec 03 2025 16:29:48 GMT-0600 (Central Standard Time),139063.60000002384,A,street,O,t,120,1,1582.6000000238419,137481.0,7250,WL,B,1.0
1,1.8350000381469727,learn,58164.99996185303,Wed Dec 03 2025 16:29:48 GMT-0600 (Central Standard Time),139315.90000000596,A,streetenter,O,enter,236,1,1834.9000000059605,137481.0,7250,WL,B,1.0
1,2.817000150680542,learn,57182.99984931946,Wed Dec 03 2025 16:29:48 GMT-0600 (Central Standard Time),140297.5,A,g,O,g,966,1,981.1999999880791,139316.30000001192,7250,WL,B,2.0
1,2.9830000400543213,learn,57016.99995994568,Wed Dec 03 2025 16:29:48 GMT-0600 (Central Standard Time),140463.0,A,gr,O,r,153,1,1146.699999988079,139316.30000001192,7250,WL,B,2.0
1,3.0830001831054688,learn,56916.99981689453,Wed Dec 03 2025 16:29:48 GMT-0600 (Central Standard Time),140563.30000001192,A,gra,O,a,83,1,1247.0,139316.30000001192,7250,WL,B,2.0
1,3.2660000324249268,learn,56733.99996757507,Wed Dec 03 2025 16:29:48 GMT-0600 (Central Standard Time),140746.90000000596,A,gras,O,s,168,1,1430.5999999940395,139316.30000001192,7250,WL,B,2.0
1,3.450000047683716,learn,56549.999952316284,Wed Dec 03 2025 16:29:48 GMT-0600 (Central Standard Time),140930.10000002384,A,grass,O,s,163,1,1613.800000011921,139316.30000001192,7250,WL,B,2.0
1,3.6500000953674316,learn,56349.99990463257,Wed Dec 03 2025 16:29:48 GMT-0600 (Central Standard Time),141130.10000002384,A,grassenter,O,enter,177,1,1813.800000011921,139316.30000001192,7250,WL,B,2.0
1,6.64900016784668,learn,53350.99983215332,Wed Dec 03 2025 16:29:48 GMT-0600 (Central Standard Time),144129.80000001192,A,c,O,c,2977,1,2999.4000000059605,141130.40000000596,7250,WL,B,3.0
1,6.797000169754028,learn,53202.99983024597,Wed Dec 03 2025 16:29:48 GMT-0600 (Central Standard Time),144277.70000001788,A,ca,O,a,129,1,3147.300000011921,141130.40000000596,7250,WL,B,3.0
1,6.933000087738037,learn,53066.99991226196,Wed Dec 03 2025 16:29:48 GMT-0600 (Central Standard Time),144413.5,A,cab,O,b,125,1,3283.0999999940395,141130.40000000596,7250,WL,B,3.0
1,7.132000207901001,learn,52867.999792099,Wed Dec 03 2025 16:29:48 GMT-0600 (Central Standard Time),144612.40000000596,A,cabi,O,i,189,1,3482.0,141130.40000000596,7250,WL,B,3.0
1,7.231000185012817,learn,52768.99981498718,Wed Dec 03 2025 16:29:48 GMT-0600 (Central Standard Time),144711.60000002384,A,cabin,O,n,80,1,3581.2000000178814,141130.40000000596,7250,WL,B,3.0
1,7.54800009727478,learn,52451.99990272522,Wed Dec 03 2025 16:29:48 GMT-0600 (Central Standard Time),145029.0,A,cabinenter,O,enter,298,1,3898.5999999940395,141130.40000000596,7250,WL,B,3.0
1,11.396000146865845,learn,48603.999853134155,Wed Dec 03 2025 16:29:48 GMT-0600 (Central Standard Time),148876.5,A,w,O,w,3830,1,3847.2999999821186,145029.20000001788,7250,WL,B,4.0
1,11.480000019073486,learn,48519.999980926514,Wed Dec 03 2025 16:29:48 GMT-0600 (Central Standard Time),148960.30000001192,A,wo,O,o,70,1,3931.0999999940395,145029.20000001788,7250,WL,B,4.0
1,11.61300015449524,learn,48386.99984550476,Wed Dec 03 2025 16:29:48 GMT-0600 (Central Standard Time),149093.5,A,woo,O,o,112,1,4064.2999999821186,145029.20000001788,7250,WL,B,4.0
1,11.730000019073486,learn,48269.999980926514,Wed Dec 03 2025 16:29:48 GMT-0600 (Central Standard Time),149210.60000002384,A,wood,O,d,110,1,4181.4000000059605,145029.20000001788,7250,WL,B,4.0
1,11.847000122070312,learn,48152.99987792969,Wed Dec 03 2025 16:29:48 GMT-0600 (Central Standard Time),149327.60000002384,A,woods,O,s,111,1,4298.4000000059605,145029.20000001788,7250,WL,B,4.0
1,11.996999979019165,learn,48003.000020980835,Wed Dec 03 2025 16:29:48 GMT-0600 (Central Standard Time),149477.60000002384,A,woodsenter,O,enter,134,1,4448.4000000059605,145029.20000001788,7250,WL,B,4.0
1,23.609000205993652,learn,36390.99979400635,Wed Dec 03 2025 16:29:48 GMT-0600 (Central Standard Time),161089.5,A,b,O,b,11599,1,11611.699999988079,149477.80000001192,7250,WL,B,5.0
1,23.792999982833862,learn,36207.00001716614,Wed Dec 03 2025 16:29:48 GMT-0600 (Central Standard Time),161274.20000001788,A,be,O,e,169,1,11796.40000000596,149477.80000001192,7250,WL,B,5.0
1,24.091000080108643,learn,35908.99991989136,Wed Dec 03 2025 16:29:48 GMT-0600 (Central Standard Time),161572.0,A,bel,O,l,277,1,12094.199999988079,149477.80000001192,7250,WL,B,5.0
1,24.259999990463257,learn,35740.00000953674,Wed Dec 03 2025 16:29:48 GMT-0600 (Central Standard Time),161740.40000000596,A,bell,O,l,152,1,12262.59999999404,149477.80000001192,7250,WL,B,5.0
1,24.70800018310547,learn,35291.99981689453,Wed Dec 03 2025 16:29:48 GMT-0600 (Central Standard Time),162189.20000001788,A,bellenter,O,enter,430,1,12711.40000000596,149477.80000001192,7250,WL,B,5.0
1,38.587000131607056,learn,21412.999868392944,Wed Dec 03 2025 16:29:48 GMT-0600 (Central Standard Time),176068.30000001192,A,p,O,p,13862,1,13878.699999988079,162189.60000002384,7250,WL,B,6.0
1,38.75600004196167,learn,21243.99995803833,Wed Dec 03 2025 16:29:48 GMT-0600 (Central Standard Time),176236.5,A,pi,O,i,160,1,14046.899999976158,162189.60000002384,7250,WL,B,6.0
1,38.90500020980835,learn,21094.99979019165,Wed Dec 03 2025 16:29:48 GMT-0600 (Central Standard Time),176385.40000000596,A,pip,O,p,134,1,14195.799999982119,162189.60000002384,7250,WL,B,6.0
1,39.28800010681152,learn,20711.999893188477,Wed Dec 03 2025 16:29:48 GMT-0600 (Central Standard Time),176768.60000002384,A,pipe,O,e,363,1,14579.0,162189.60000002384,7250,WL,B,6.0
1,39.6710000038147,learn,20328.999996185303,Wed Dec 03 2025 16:29:48 GMT-0600 (Central Standard Time),177151.5,A,pipeenter,O,enter,370,1,14961.899999976158,162189.60000002384,7250,WL,B,6.0
1,60.01400017738342,learn,-14.000177383422852,Wed Dec 03 2025 16:29:48 GMT-0600 (Central Standard Time),197495.0,A,None,O,None,20339,1,20343.19999998808,177151.80000001192,7250,WL,B,7.0
2,0.681999921798706,learn,59318.000078201294,Wed Dec 03 2025 16:29:48 GMT-0600 (Central Standard Time),282651.7000000179,A,w,O,w,667,1,682.5,281969.2000000179,7250,WL,B,1.0
2,0.7979998588562012,learn,59202.0001411438,Wed Dec 03 2025 16:29:48 GMT-0600 (Central Standard Time),282767.60000002384,A,wi,O,i,102,1,798.4000000059605,281969.2000000179,7250,WL,B,1.0
2,1.181999921798706,learn,58818.000078201294,Wed Dec 03 2025 16:29:48 GMT-0600 (Central Standard Time),283151.40000000596,A,wif,O,f,372,1,1182.199999988079,281969.2000000179,7250,WL,B,1.0
2,1.3320000171661377,learn,58667.99998283386,Wed Dec 03 2025 16:29:48 GMT-0600 (Central Standard Time),283301.60000002384,A,wife,O,e,140,1,1332.4000000059605,281969.2000000179,7250,WL,B,1.0
2,1.5839998722076416,learn,58416.00012779236,Wed Dec 03 2025 16:29:48 GMT-0600 (Central Standard Time),283553.3000000119,A,wifeenter,O,enter,237,1,1584.0999999940395,281969.2000000179,7250,WL,B,1.0
2,2.0809998512268066,learn,57919.00014877319,Wed Dec 03 2025 16:29:48 GMT-0600 (Central Standard Time),284050.5,A,s,O,s,493,1,497.0,283553.5,7250,WL,B,2.0
2,2.5149998664855957,learn,57485.000133514404,Wed Dec 03 2025 16:29:48 GMT-0600 (Central Standard Time),284484.0,A,st,O,t,425,1,930.5,283553.5,7250,WL,B,2.0
2,2.697000026702881,learn,57302.99997329712,Wed Dec 03 2025 16:29:48 GMT-0600 (Central Standard Time),284666.60000002384,A,str,O,r,174,1,1113.1000000238419,283553.5,7250,WL,B,2.0
2,2.7639999389648438,learn,57236.000061035156,Wed Dec 03 2025 16:29:48 GMT-0600 (Central Standard Time),284733.2000000179,A,stre,O,e,48,1,1179.7000000178814,283553.5,7250,WL,B,2.0
2,2.931999921798706,learn,57068.000078201294,Wed Dec 03 2025 16:29:48 GMT-0600 (Central Standard Time),284901.60000002384,A,stree,O,e,148,1,1348.1000000238419,283553.5,7250,WL,B,2.0
2,3.046999931335449,learn,56953.00006866455,Wed Dec 03 2025 16:29:48 GMT-0600 (Central Standard Time),285016.7000000179,A,street,O,t,101,1,1463.2000000178814,283553.5,7250,WL,B,2.0
2,3.3309998512268066,learn,56669.00014877319,Wed Dec 03 2025 16:29:48 GMT-0600 (Central Standard Time),285300.7000000179,A,streetenter,O,enter,275,1,1747.2000000178814,283553.5,7250,WL,B,2.0
2,3.7319998741149902,learn,56268.00012588501,Wed Dec 03 2025 16:29:48 GMT-0600 (Central Standard Time),285701.10000002384,A,g,O,g,384,1,400.2000000178814,285300.90000000596,7250,WL,B,3.0
2,3.8999998569488525,learn,56100.00014305115,Wed Dec 03 2025 16:29:48 GMT-0600 (Central Standard Time),285869.3000000119,A,gr,O,r,158,1,568.4000000059605,285300.90000000596,7250,WL,B,3.0
2,4.0309998989105225,learn,55969.00010108948,Wed Dec 03 2025 16:29:48 GMT-0600 (Central Standard Time),286000.40000000596,A,gra,O,a,118,1,699.5,285300.90000000596,7250,WL,B,3.0
2,4.197999954223633,learn,55802.00004577637,Wed Dec 03 2025 16:29:48 GMT-0600 (Central Standard Time),286167.8000000119,A,gras,O,s,156,1,866.9000000059605,285300.90000000596,7250,WL,B,3.0
2,4.382999897003174,learn,55617.000102996826,Wed Dec 03 2025 16:29:48 GMT-0600 (Central Standard Time),286352.60000002384,A,grass,O,s,171,1,1051.7000000178814,285300.90000000596,7250,WL,B,3.0
2,4.697000026702881,learn,55302.99997329712,Wed Dec 03 2025 16:29:48 GMT-0600 (Central Standard Time),286666.10000002384,A,grassenter,O,enter,300,1,1365.2000000178814,285300.90000000596,7250,WL,B,3.0
2,6.296000003814697,learn,53703.9999961853,Wed Dec 03 2025 16:29:48 GMT-0600 (Central Standard Time),288265.60000002384,A,d,O,d,1585,1,1599.2000000178814,286666.40000000596,7250,WL,B,4.0
2,6.414999961853027,learn,53585.00003814697,Wed Dec 03 2025 16:29:48 GMT-0600 (Central Standard Time),288384.0,A,do,O,o,98,1,1717.5999999940395,286666.40000000596,7250,WL,B,4.0
2,6.546999931335449,learn,53453.00006866455,Wed Dec 03 2025 16:29:48 GMT-0600 (Central Standard Time),288516.2000000179,A,doo,O,o,113,1,1849.800000011921,286666.40000000596,7250,WL,B,4.0
2,6.678999900817871,learn,53321.00009918213,Wed Dec 03 2025 16:29:48 GMT-0600 (Central Standard Time),288648.40000000596,A,door,O,r,118,1,1982.0,286666.40000000596,7250,WL,B,4.0
2,6.996999979019165,learn,53003.000020980835,Wed Dec 03 2025 16:29:48 GMT-0600 (Central Standard Time),288966.10000002384,A,doorenter,O,enter,300,1,2299.7000000178814,286666.40000000596,7250,WL,B,4.0
2,7.562000036239624,learn,52437.999963760376,Wed Dec 03 2025 16:29:48 GMT-0600 (Central Standard Time),289531.3000000119,A,c,O,c,549,1,565.0,288966.3000000119,7250,WL,B,5.0
2,7.763000011444092,learn,52236.99998855591,Wed Dec 03 2025 16:29:48 GMT-0600 (Central Standard Time),289732.0,A,ca,O,a,193,1,765.6999999880791,288966.3000000119,7250,WL,B,5.0
2,7.963000059127808,learn,52036.99994087219,Wed Dec 03 2025 16:29:48 GMT-0600 (Central Standard Time),289932.2000000179,A,cab,O,b,184,1,965.9000000059605,288966.3000000119,7250,WL,B,5.0
2,8.162999868392944,learn,51837.000131607056,Wed Dec 03 2025 16:29:48 GMT-0600 (Central Standard Time),290132.5,A,cabi,O,i,184,1,1166.199999988079,288966.3000000119,7250,WL,B,5.0
2,8.263000011444092,learn,51736.99998855591,Wed Dec 03 2025 16:29:48 GMT-0600 (Central Standard Time),290232.60000002384,A,cabin,O,n,87,1,1266.300000011921,288966.3000000119,7250,WL,B,5.0
2,8.644999980926514,learn,51355.000019073486,Wed Dec 03 2025 16:29:48 GMT-0600 (Central Standard Time),290614.7000000179,A,cabinenter,O,enter,362,1,1648.4000000059605,288966.3000000119,7250,WL,B,5.0
2,8.929999828338623,learn,51070.00017166138,Wed Dec 03 2025 16:29:48 GMT-0600 (Central Standard Time),290899.10000002384,A,l,O,l,279,1,284.10000002384186,290615.0,7250,WL,B,6.0
2,9.062999963760376,learn,50937.000036239624,Wed Dec 03 2025 16:29:48 GMT-0600 (Central Standard Time),291031.8000000119,A,la,O,a,120,1,416.80000001192093,290615.0,7250,WL,B,6.0
2,9.19700002670288,learn,50802.99997329712,Wed Dec 03 2025 16:29:48 GMT-0600 (Central Standard Time),291166.60000002384,A,lak,O,k,114,1,551.6000000238419,290615.0,7250,WL,B,6.0
2,9.329999923706055,learn,50670.000076293945,Wed Dec 03 2025 16:29:48 GMT-0600 (Central Standard Time),291299.2000000179,A,lake,O,e,117,1,684.2000000178814,290615.0,7250,WL,B,6.0
2,9.61299991607666,learn,50387.00008392334,Wed Dec 03 2025 16:29:48 GMT-0600 (Central Standard Time),291582.2000000179,A,lakeenter,O,enter,264,1,967.2000000178814,290615.0,7250,WL,B,6.0
2,10.895999908447266,learn,49104.000091552734,Wed Dec 03 2025 16:29:48 GMT-0600 (Central Standard Time),292865.3000000119,A,a,O,a,1263,1,1282.9000000059605,291582.40000000596,7250,WL,B,7.0
2,10.977999925613403,learn,49022.0000743866,Wed Dec 03 2025 16:29:48 GMT-0600 (Central Standard Time),292946.90000000596,A,ar,O,r,74,1,1364.5,291582.40000000596,7250,WL,B,7.0
2,11.16100001335144,learn,48838.99998664856,Wed Dec 03 2025 16:29:48 GMT-0600 (Central Standard Time),293130.5,A,arm,O,m,167,1,1548.0999999940395,291582.40000000596,7250,WL,B,7.0
2,11.46399998664856,learn,48536.00001335144,Wed Dec 03 2025 16:29:48 GMT-0600 (Central Standard Time),293433.0,A,armenter,O,enter,297,1,1850.5999999940395,291582.40000000596,7250,WL,B,7.0
2,12.213000059127808,learn,47786.99994087219,Wed Dec 03 2025 16:29:48 GMT-0600 (Central Standard Time),294181.90000000596,A,p,O,p,738,1,748.6999999880791,293433.2000000179,7250,WL,B,8.0
2,12.327999830245972,learn,47672.00016975403,Wed Dec 03 2025 16:29:48 GMT-0600 (Central Standard Time),294297.7000000179,A,pi,O,i,95,1,864.5,293433.2000000179,7250,WL,B,8.0
2,12.461999893188477,learn,47538.00010681152,Wed Dec 03 2025 16:29:48 GMT-0600 (Central Standard Time),294431.3000000119,A,pip,O,p,113,1,998.0999999940395,293433.2000000179,7250,WL,B,8.0
2,12.67799997329712,learn,47322.00002670288,Wed Dec 03 2025 16:29:48 GMT-0600 (Central Standard Time),294647.60000002384,A,pipe,O,e,197,1,1214.4000000059605,293433.2000000179,7250,WL,B,8.0
2,12.944999933242798,learn,47055.0000667572,Wed Dec 03 2025 16:29:48 GMT-0600 (Central Standard Time),294914.7000000179,A,pipeenter,O,enter,263,1,1481.5,293433.2000000179,7250,WL,B,8.0
2,32.52300000190735,learn,27476.99999809265,Wed Dec 03 2025 16:29:48 GMT-0600 (Central Standard Time),314492.40000000596,A,a,O,a,19561,1,19577.40000000596,294915.0,7250,WL,B,9.0
2,32.65499997138977,learn,27345.00002861023,Wed Dec 03 2025 16:29:48 GMT-0600 (Central Standard Time),314624.10000002384,A,ar,O,r,111,1,19709.100000023842,294915.0,7250,WL,B,9.0
2,32.770999908447266,learn,27229.000091552734,Wed Dec 03 2025 16:29:48 GMT-0600 (Central Standard Time),314740.60000002384,A,arm,O,m,104,1,19825.600000023842,294915.0,7250,WL,B,9.0
2,33.105000019073486,learn,26894.999980926514,Wed Dec 03 2025 16:29:48 GMT-0600 (Central Standard Time),315073.8000000119,A,armenter,O,enter,328,1,20158.80000001192,294915.0,7250,WL,B,9.0
2,37.33800005912781,learn,22661.999940872192,Wed Dec 03 2025 16:29:48 GMT-0600 (Central Standard Time),319307.0,A,w,O,w,4220,1,4233.0,315074.0,7250,WL,B,10.0
2,37.38599991798401,learn,22614.00008201599,Wed Dec 03 2025 16:29:48 GMT-0600 (Central Standard Time),319354.90000000596,A,wi,O,i,30,1,4280.9000000059605,315074.0,7250,WL,B,10.0
2,37.48799991607666,learn,22512.00008392334,Wed Dec 03 2025 16:29:48 GMT-0600 (Central Standard Time),319457.3000000119,A,win,O,n,81,1,4383.300000011921,315074.0,7250,WL,B,10.0
2,37.63800001144409,learn,22361.99998855591,Wed Dec 03 2025 16:29:48 GMT-0600 (Central Standard Time),319606.90000000596,A,wind,O,d,130,1,4532.9000000059605,315074.0,7250,WL,B,10.0
2,37.72000002861023,learn,22279.99997138977,Wed Dec 03 2025 16:29:48 GMT-0600 (Central Standard Time),319689.5,A,windo,O,o,62,1,4615.5,315074.0,7250,WL,B,10.0
2,38.15499997138977,learn,21845.00002861023,Wed Dec 03 2025 16:29:48 GMT-0600 (Central Standard Time),320124.60000002384,A,window,O,w,427,1,5050.600000023842,315074.0,7250,WL,B,10.0
2,38.38699984550476,learn,21613.00015449524,Wed Dec 03 2025 16:29:48 GMT-0600 (Central Standard Time),320356.2000000179,A,windowenter,O,enter,213,1,5282.200000017881,315074.0,7250,WL,B,10.0
2,40.38499999046326,learn,19615.000009536743,Wed Dec 03 2025 16:29:48 GMT-0600 (Central Standard Time),322354.60000002384,A,d,O,d,1983,1,1998.1000000238419,320356.5,7250,WL,B,11.0
2,40.49000000953674,learn,19509.999990463257,Wed Dec 03 2025 16:29:48 GMT-0600 (Central Standard Time),322459.40000000596,A,do,O,o,87,1,2102.9000000059605,320356.5,7250,WL,B,11.0
2,40.65299987792969,learn,19347.000122070312,Wed Dec 03 2025 16:29:48 GMT-0600 (Central Standard Time),322621.90000000596,A,doo,O,o,144,1,2265.4000000059605,320356.5,7250,WL,B,11.0
2,40.736000061035156,learn,19263.999938964844,Wed Dec 03 2025 16:29:48 GMT-0600 (Central Standard Time),322705.7000000179,A,door,O,r,67,1,2349.2000000178814,320356.5,7250,WL,B,11.0
2,40.88599991798401,learn,19114.00008201599,Wed Dec 03 2025 16:29:48 GMT-0600 (Central Standard Time),322855.2000000179,A,doorenter,O,enter,136,1,2498.7000000178814,320356.5,7250,WL,B,11.0
2,60.013999938964844,learn,-13.99993896484375,Wed Dec 03 2025 16:29:48 GMT-0600 (Central Standard Time),341983.5,A,None,O,None,19123,1,19128.0,322855.5,7250,WL,B,12.0
3,0.46700000762939453,learn,59532.999992370605,Wed Dec 03 2025 16:29:48 GMT-0600 (Central Standard Time),410594.0,A,s,O,s,452,1,467.0,410127.0,7250,WL,B,1.0
3,0.6330001354217529,learn,59366.99986457825,Wed Dec 03 2025 16:29:48 GMT-0600 (Central Standard Time),410760.0,A,st,O,t,154,1,633.0,410127.0,7250,WL,B,1.0
3,0.7850000858306885,learn,59214.99991416931,Wed Dec 03 2025 16:29:48 GMT-0600 (Central Standard Time),410911.60000002384,A,str,O,r,131,1,784.6000000238419,410127.0,7250,WL,B,1.0
3,0.8330001831054688,learn,59166.99981689453,Wed Dec 03 2025 16:29:48 GMT-0600 (Central Standard Time),410959.8000000119,A,stre,O,e,45,1,832.8000000119209,410127.0,7250,WL,B,1.0
3,0.9840002059936523,learn,59015.99979400635,Wed Dec 03 2025 16:29:48 GMT-0600 (Central Standard Time),411110.5,A,stree,O,e,141,1,983.5,410127.0,7250,WL,B,1.0
3,1.1670000553131104,learn,58832.99994468689,Wed Dec 03 2025 16:29:48 GMT-0600 (Central Standard Time),411293.5,A,street,O,t,172,1,1166.5,410127.0,7250,WL,B,1.0
3,1.5500001907348633,learn,58449.99980926514,Wed Dec 03 2025 16:29:48 GMT-0600 (Central Standard Time),411676.60000002384,A,streetenter,O,enter,373,1,1549.6000000238419,410127.0,7250,WL,B,1.0
3,1.8000001907348633,learn,58199.99980926514,Wed Dec 03 2025 16:29:48 GMT-0600 (Central Standard Time),411927.2000000179,A,g,O,g,233,1,250.40000000596046,411676.8000000119,7250,WL,B,2.0
3,1.9670000076293945,learn,58032.999992370605,Wed Dec 03 2025 16:29:48 GMT-0600 (Central Standard Time),412093.3000000119,A,gr,O,r,148,1,416.5,411676.8000000119,7250,WL,B,2.0
3,2.0330002307891846,learn,57966.999769210815,Wed Dec 03 2025 16:29:48 GMT-0600 (Central Standard Time),412159.7000000179,A,gra,O,a,45,1,482.90000000596046,411676.8000000119,7250,WL,B,2.0
3,2.2330000400543213,learn,57766.99995994568,Wed Dec 03 2025 16:29:48 GMT-0600 (Central Standard Time),412360.10000002384,A,gras,O,s,179,1,683.3000000119209,411676.8000000119,7250,WL,B,2.0
3,2.3990001678466797,learn,57600.99983215332,Wed Dec 03 2025 16:29:48 GMT-0600 (Central Standard Time),412525.90000000596,A,grass,O,s,155,1,849.0999999940395,411676.8000000119,7250,WL,B,2.0
3,2.617000102996826,learn,57382.999897003174,Wed Dec 03 2025 16:29:48 GMT-0600 (Central Standard Time),412743.7000000179,A,grassenter,O,enter,205,1,1066.9000000059605,411676.8000000119,7250,WL,B,2.0
3,3.749000072479248,learn,56250.99992752075,Wed Dec 03 2025 16:29:48 GMT-0600 (Central Standard Time),413875.5,A,w,O,w,1124,1,1131.5999999940395,412743.90000000596,7250,WL,B,3.0
3,3.815000057220459,learn,56184.99994277954,Wed Dec 03 2025 16:29:48 GMT-0600 (Central Standard Time),413941.5,A,wi,O,i,55,1,1197.5999999940395,412743.90000000596,7250,WL,B,3.0
3,3.949000120162964,learn,56050.999879837036,Wed Dec 03 2025 16:29:48 GMT-0600 (Central Standard Time),414075.40000000596,A,wif,O,f,117,1,1331.5,412743.90000000596,7250,WL,B,3.0
3,4.049000024795532,learn,55950.99997520447,Wed Dec 03 2025 16:29:48 GMT-0600 (Central Standard Time),414176.0,A,wife,O,e,82,1,1432.0999999940395,412743.90000000596,7250,WL,B,3.0
3,4.198000192642212,learn,55801.99980735779,Wed Dec 03 2025 16:29:48 GMT-0600 (Central Standard Time),414324.8000000119,A,wifeenter,O,enter,130,1,1580.9000000059605,412743.90000000596,7250,WL,B,3.0
3,4.499000072479248,learn,55500.99992752075,Wed Dec 03 2025 16:29:48 GMT-0600 (Central Standard Time),414625.5,A,a,O,a,286,1,300.5,414325.0,7250,WL,B,4.0
3,4.5990002155303955,learn,55400.999784469604,Wed Dec 03 2025 16:29:48 GMT-0600 (Central Standard Time),414725.8000000119,A,ar,O,r,88,1,400.80000001192093,414325.0,7250,WL,B,4.0
3,4.700000047683716,learn,55299.999952316284,Wed Dec 03 2025 16:29:48 GMT-0600 (Central Standard Time),414826.3000000119,A,are,O,e,87,1,501.30000001192093,414325.0,7250,WL,B,4.0
3,4.773000001907349,learn,55226.99999809265,Wed Dec 03 2025 16:29:48 GMT-0600 (Central Standard Time),414900.0,A,arem,O,m,62,1,575.0,414325.0,7250,WL,B,4.0
3,5.332000017166138,learn,54667.99998283386,Wed Dec 03 2025 16:29:48 GMT-0600 (Central Standard Time),415458.3000000119,A,are,O,backspace,544,1,1133.300000011921,414325.0,7250,WL,B,4.0
3,5.466000080108643,learn,54533.99991989136,Wed Dec 03 2025 16:29:48 GMT-0600 (Central Standard Time),415592.60000002384,A,ar,O,backspace,122,1,1267.6000000238419,414325.0,7250,WL,B,4.0
3,6.5320000648498535,learn,53467.99993515015,Wed Dec 03 2025 16:29:48 GMT-0600 (Central Standard Time),416658.7000000179,A,arm,O,m,1052,1,2333.7000000178814,414325.0,7250,WL,B,4.0
3,6.8490002155303955,learn,53150.999784469604,Wed Dec 03 2025 16:29:48 GMT-0600 (Central Standard Time),416975.3000000119,A,armenter,O,enter,296,1,2650.300000011921,414325.0,7250,WL,B,4.0
3,7.1650002002716064,learn,52834.99979972839,Wed Dec 03 2025 16:29:48 GMT-0600 (Central Standard Time),417292.0,A,c,O,c,310,1,316.39999997615814,416975.60000002384,7250,WL,B,5.0
3,7.29800009727478,learn,52701.99990272522,Wed Dec 03 2025 16:29:48 GMT-0600 (Central Standard Time),417424.7000000179,A,ca,O,a,112,1,449.09999999403954,416975.60000002384,7250,WL,B,5.0
3,7.465000152587891,learn,52534.99984741211,Wed Dec 03 2025 16:29:48 GMT-0600 (Central Standard Time),417591.8000000119,A,cab,O,b,146,1,616.1999999880791,416975.60000002384,7250,WL,B,5.0
3,7.6650002002716064,learn,52334.99979972839,Wed Dec 03 2025 16:29:48 GMT-0600 (Central Standard Time),417791.8000000119,A,cabi,O,i,182,1,816.1999999880791,416975.60000002384,7250,WL,B,5.0
3,7.715000152587891,learn,52284.99984741211,Wed Dec 03 2025 16:29:48 GMT-0600 (Central Standard Time),417841.60000002384,A,cabin,O,n,29,1,866.0,416975.60000002384,7250,WL,B,5.0
3,8.081000089645386,learn,51918.999910354614,Wed Dec 03 2025 16:29:48 GMT-0600 (Central Standard Time),418208.2000000179,A,cabinenter,O,enter,355,1,1232.5999999940395,416975.60000002384,7250,WL,B,5.0
3,8.415000200271606,learn,51584.99979972839,Wed Dec 03 2025 16:29:48 GMT-0600 (Central Standard Time),418541.90000000596,A,l,O,l,315,1,333.40000000596046,418208.5,7250,WL,B,6.0
3,8.600000143051147,learn,51399.99985694885,Wed Dec 03 2025 16:29:48 GMT-0600 (Central Standard Time),418727.10000002384,A,la,O,a,166,1,518.6000000238419,418208.5,7250,WL,B,6.0
3,8.73200011253357,learn,51267.99988746643,Wed Dec 03 2025 16:29:48 GMT-0600 (Central Standard Time),418858.60000002384,A,lak,O,k,125,1,650.1000000238419,418208.5,7250,WL,B,6.0
3,8.882000207901001,learn,51117.999792099,Wed Dec 03 2025 16:29:48 GMT-0600 (Central Standard Time),419008.60000002384,A,lake,O,e,128,1,800.1000000238419,418208.5,7250,WL,B,6.0
3,9.397000074386597,learn,50602.9999256134,Wed Dec 03 2025 16:29:48 GMT-0600 (Central Standard Time),419523.5,A,lakeenter,O,enter,506,1,1315.0,418208.5,7250,WL,B,6.0
3,10.434000015258789,learn,49565.99998474121,Wed Dec 03 2025 16:29:48 GMT-0600 (Central Standard Time),420560.40000000596,A,d,O,d,1017,1,1036.5999999940395,419523.8000000119,7250,WL,B,7.0
3,10.514000177383423,learn,49485.99982261658,Wed Dec 03 2025 16:29:48 GMT-0600 (Central Standard Time),420640.7000000179,A,do,O,o,68,1,1116.9000000059605,419523.8000000119,7250,WL,B,7.0
3,10.647000074386597,learn,49352.9999256134,Wed Dec 03 2025 16:29:48 GMT-0600 (Central Standard Time),420773.8000000119,A,doo,O,o,113,1,1250.0,419523.8000000119,7250,WL,B,7.0
3,10.730000019073486,learn,49269.999980926514,Wed Dec 03 2025 16:29:48 GMT-0600 (Central Standard Time),420856.8000000119,A,door,O,r,67,1,1333.0,419523.8000000119,7250,WL,B,7.0
3,11.331000089645386,learn,48668.999910354614,Wed Dec 03 2025 16:29:48 GMT-0600 (Central Standard Time),421457.5,A,doorenter,O,enter,582,1,1933.699999988079,419523.8000000119,7250,WL,B,7.0
3,11.69700002670288,learn,48302.99997329712,Wed Dec 03 2025 16:29:48 GMT-0600 (Central Standard Time),421823.3000000119,A,w,O,w,353,1,365.59999999403954,421457.7000000179,7250,WL,B,8.0
3,11.746000051498413,learn,48253.99994850159,Wed Dec 03 2025 16:29:48 GMT-0600 (Central Standard Time),421872.5,A,wi,O,i,35,1,414.7999999821186,421457.7000000179,7250,WL,B,8.0
3,11.84600019454956,learn,48153.99980545044,Wed Dec 03 2025 16:29:48 GMT-0600 (Central Standard Time),421973.0,A,win,O,n,84,1,515.2999999821186,421457.7000000179,7250,WL,B,8.0
3,11.996000051498413,learn,48003.99994850159,Wed Dec 03 2025 16:29:48 GMT-0600 (Central Standard Time),422122.7000000179,A,winf,O,f,141,1,665.0,421457.7000000179,7250,WL,B,8.0
3,12.53000020980835,learn,47469.99979019165,Wed Dec 03 2025 16:29:48 GMT-0600 (Central Standard Time),422657.0,A,win,O,backspace,521,1,1199.2999999821186,421457.7000000179,7250,WL,B,8.0
3,12.629000186920166,learn,47370.999813079834,Wed Dec 03 2025 16:29:48 GMT-0600 (Central Standard Time),422755.60000002384,A,wind,O,d,90,1,1297.9000000059605,421457.7000000179,7250,WL,B,8.0
3,12.763000011444092,learn,47236.99998855591,Wed Dec 03 2025 16:29:48 GMT-0600 (Central Standard Time),422889.8000000119,A,windo,O,o,113,1,1432.0999999940395,421457.7000000179,7250,WL,B,8.0
3,12.86300015449524,learn,47136.99984550476,Wed Dec 03 2025 16:29:48 GMT-0600 (Central Standard Time),422989.60000002384,A,window,O,w,82,1,1531.9000000059605,421457.7000000179,7250,WL,B,8.0
3,13.148000001907349,learn,46851.99999809265,Wed Dec 03 2025 16:29:48 GMT-0600 (Central Standard Time),423275.0,A,windowenter,O,enter,261,1,1817.2999999821186,421457.7000000179,7250,WL,B,8.0
3,16.445000171661377,learn,43554.99982833862,Wed Dec 03 2025 16:29:48 GMT-0600 (Central Standard Time),426572.3000000119,A,p,O,p,3282,1,3297.0999999940395,423275.2000000179,7250,WL,B,9.0
3,16.545000076293945,learn,43454.999923706055,Wed Dec 03 2025 16:29:48 GMT-0600 (Central Standard Time),426672.2000000179,A,pi,O,i,88,1,3397.0,423275.2000000179,7250,WL,B,9.0
3,16.663000106811523,learn,43336.99989318848,Wed Dec 03 2025 16:29:48 GMT-0600 (Central Standard Time),426789.40000000596,A,pip,O,p,98,1,3514.199999988079,423275.2000000179,7250,WL,B,9.0
3,16.91100001335144,learn,43088.99998664856,Wed Dec 03 2025 16:29:48 GMT-0600 (Central Standard Time),427038.0,A,pipe,O,e,237,1,3762.7999999821186,423275.2000000179,7250,WL,B,9.0
3,17.16100001335144,learn,42838.99998664856,Wed Dec 03 2025 16:29:48 GMT-0600 (Central Standard Time),427287.90000000596,A,pipeenter,O,enter,238,1,4012.699999988079,423275.2000000179,7250,WL,B,9.0
3,22.56000018119812,learn,37439.99981880188,Wed Dec 03 2025 16:29:48 GMT-0600 (Central Standard Time),432686.90000000596,A,a,O,a,5380,1,5398.699999988079,427288.2000000179,7250,WL,B,10.0
3,22.693000078201294,learn,37306.999921798706,Wed Dec 03 2025 16:29:48 GMT-0600 (Central Standard Time),432819.90000000596,A,ar,O,r,114,1,5531.699999988079,427288.2000000179,7250,WL,B,10.0
3,22.844000101089478,learn,37155.99989891052,Wed Dec 03 2025 16:29:48 GMT-0600 (Central Standard Time),432970.5,A,arm,O,m,134,1,5682.299999982119,427288.2000000179,7250,WL,B,10.0
3,23.276000022888184,learn,36723.99997711182,Wed Dec 03 2025 16:29:48 GMT-0600 (Central Standard Time),433403.10000002384,A,armenter,O,enter,424,1,6114.9000000059605,427288.2000000179,7250,WL,B,10.0
3,29.44100022315979,learn,30558.99977684021,Wed Dec 03 2025 16:29:48 GMT-0600 (Central Standard Time),439568.0,A,s,O,s,6145,1,6164.699999988079,433403.3000000119,7250,WL,B,11.0
3,29.575000047683716,learn,30424.999952316284,Wed Dec 03 2025 16:29:48 GMT-0600 (Central Standard Time),439701.90000000596,A,st,O,t,111,1,6298.5999999940395,433403.3000000119,7250,WL,B,11.0
3,29.676000118255615,learn,30323.999881744385,Wed Dec 03 2025 16:29:48 GMT-0600 (Central Standard Time),439802.3000000119,A,sta,O,a,84,1,6399.0,433403.3000000119,7250,WL,B,11.0
3,29.77500009536743,learn,30224.99990463257,Wed Dec 03 2025 16:29:48 GMT-0600 (Central Standard Time),439901.7000000179,A,star,O,r,90,1,6498.4000000059605,433403.3000000119,7250,WL,B,11.0
3,30.20800018310547,learn,29791.99981689453,Wed Dec 03 2025 16:29:48 GMT-0600 (Central Standard Time),440334.5,A,starenter,O,enter,414,1,6931.199999988079,433403.3000000119,7250,WL,B,11.0
3,60.015000104904175,learn,-15.000104904174805,Wed Dec 03 2025 16:29:48 GMT-0600 (Central Standard Time),470142.2000000179,A,None,O,None,29802,1,29807.40000000596,440334.8000000119,7250,WL,B,12.0
4,0.36700010299682617,learn,59632.999897003174,Wed Dec 03 2025 16:29:48 GMT-0600 (Central Standard Time),537437.400000006,A,s,O,s,351,1,367.19999998807907,537070.2000000179,7250,WL,B,1.0
4,0.5169999599456787,learn,59483.00004005432,Wed Dec 03 2025 16:29:48 GMT-0600 (Central Standard Time),537586.7000000179,A,st,O,t,134,1,516.5,537070.2000000179,7250,WL,B,1.0
4,0.6830000877380371,learn,59316.99991226196,Wed Dec 03 2025 16:29:48 GMT-0600 (Central Standard Time),537753.6000000238,A,str,O,r,143,1,683.4000000059605,537070.2000000179,7250,WL,B,1.0
4,1.067000150680542,learn,58932.99984931946,Wed Dec 03 2025 16:29:48 GMT-0600 (Central Standard Time),538137.0,A,stre,O,e,370,1,1066.7999999821186,537070.2000000179,7250,WL,B,1.0
4,1.2330000400543213,learn,58766.99995994568,Wed Dec 03 2025 16:29:48 GMT-0600 (Central Standard Time),538303.1000000238,A,stree,O,e,155,1,1232.9000000059605,537070.2000000179,7250,WL,B,1.0
4,1.3659999370574951,learn,58634.000062942505,Wed Dec 03 2025 16:29:48 GMT-0600 (Central Standard Time),538435.8000000119,A,street,O,t,124,1,1365.5999999940395,537070.2000000179,7250,WL,B,1.0
4,1.6489999294281006,learn,58351.0000705719,Wed Dec 03 2025 16:29:48 GMT-0600 (Central Standard Time),538719.400000006,A,streetenter,O,enter,271,1,1649.199999988079,537070.2000000179,7250,WL,B,1.0
4,1.8340001106262207,learn,58165.99988937378,Wed Dec 03 2025 16:29:48 GMT-0600 (Central Standard Time),538903.900000006,A,g,O,g,165,1,184.2999999821186,538719.6000000238,7250,WL,B,2.0
4,2.0329999923706055,learn,57967.000007629395,Wed Dec 03 2025 16:29:48 GMT-0600 (Central Standard Time),539103.3000000119,A,gr,O,r,187,1,383.69999998807907,538719.6000000238,7250,WL,B,2.0
4,2.133000135421753,learn,57866.99986457825,Wed Dec 03 2025 16:29:48 GMT-0600 (Central Standard Time),539203.2000000179,A,gra,O,a,84,1,483.59999999403954,538719.6000000238,7250,WL,B,2.0
4,2.315999984741211,learn,57684.00001525879,Wed Dec 03 2025 16:29:48 GMT-0600 (Central Standard Time),539386.400000006,A,graa,O,a,166,1,666.7999999821186,538719.6000000238,7250,WL,B,2.0
4,2.9170000553131104,learn,57082.99994468689,Wed Dec 03 2025 16:29:48 GMT-0600 (Central Standard Time),539987.6000000238,A,gra,O,backspace,581,1,1268.0,538719.6000000238,7250,WL,B,2.0
4,3.3489999771118164,learn,56651.00002288818,Wed Dec 03 2025 16:29:48 GMT-0600 (Central Standard Time),540418.900000006,A,gras,O,s,408,1,1699.2999999821186,538719.6000000238,7250,WL,B,2.0
4,3.515000104904175,learn,56484.999895095825,Wed Dec 03 2025 16:29:48 GMT-0600 (Central Standard Time),540584.900000006,A,grass,O,s,152,1,1865.2999999821186,538719.6000000238,7250,WL,B,2.0
4,4.115000009536743,learn,55884.99999046326,Wed Dec 03 2025 16:29:48 GMT-0600 (Central Standard Time),541185.5,A,grassenter,O,enter,581,1,2465.899999976158,538719.6000000238,7250,WL,B,2.0
4,4.398000001907349,learn,55601.99999809265,Wed Dec 03 2025 16:29:48 GMT-0600 (Central Standard Time),541468.0,A,d,O,d,265,1,282.19999998807907,541185.8000000119,7250,WL,B,3.0
4,4.46399998664856,learn,55536.00001335144,Wed Dec 03 2025 16:29:48 GMT-0600 (Central Standard Time),541534.5,A,do,O,o,47,1,348.69999998807907,541185.8000000119,7250,WL,B,3.0
4,4.617000102996826,learn,55382.999897003174,Wed Dec 03 2025 16:29:48 GMT-0600 (Central Standard Time),541687.1000000238,A,doo,O,o,134,1,501.30000001192093,541185.8000000119,7250,WL,B,3.0
4,4.765000104904175,learn,55234.999895095825,Wed Dec 03 2025 16:29:48 GMT-0600 (Central Standard Time),541834.8000000119,A,door,O,r,140,1,649.0,541185.8000000119,7250,WL,B,3.0
4,5.183000087738037,learn,54816.99991226196,Wed Dec 03 2025 16:29:48 GMT-0600 (Central Standard Time),542253.3000000119,A,doorenter,O,enter,408,1,1067.5,541185.8000000119,7250,WL,B,3.0
4,6.296999931335449,learn,53703.00006866455,Wed Dec 03 2025 16:29:48 GMT-0600 (Central Standard Time),543367.6000000238,A,w,O,w,1102,1,1114.0,542253.6000000238,7250,WL,B,4.0
4,6.398000001907349,learn,53601.99999809265,Wed Dec 03 2025 16:29:48 GMT-0600 (Central Standard Time),543468.0,A,wi,O,i,84,1,1214.3999999761581,542253.6000000238,7250,WL,B,4.0
4,6.498000144958496,learn,53501.999855041504,Wed Dec 03 2025 16:29:48 GMT-0600 (Central Standard Time),543568.400000006,A,wif,O,f,78,1,1314.7999999821186,542253.6000000238,7250,WL,B,4.0
4,6.581000089645386,learn,53418.999910354614,Wed Dec 03 2025 16:29:48 GMT-0600 (Central Standard Time),543651.3000000119,A,wife,O,e,74,1,1397.699999988079,542253.6000000238,7250,WL,B,4.0
4,6.763999938964844,learn,53236.000061035156,Wed Dec 03 2025 16:29:48 GMT-0600 (Central Standard Time),543834.400000006,A,wifeenter,O,enter,174,1,1580.7999999821186,542253.6000000238,7250,WL,B,4.0
4,7.148999929428101,learn,52851.0000705719,Wed Dec 03 2025 16:29:48 GMT-0600 (Central Standard Time),544219.3000000119,A,p,O,p,371,1,384.69999998807907,543834.6000000238,7250,WL,B,5.0
4,7.314000129699707,learn,52685.99987030029,Wed Dec 03 2025 16:29:48 GMT-0600 (Central Standard Time),544383.900000006,A,pi,O,i,151,1,549.2999999821186,543834.6000000238,7250,WL,B,5.0
4,7.865000009536743,learn,52134.99999046326,Wed Dec 03 2025 16:29:48 GMT-0600 (Central Standard Time),544935.7000000179,A,pip,O,p,533,1,1101.0999999940395,543834.6000000238,7250,WL,B,5.0
4,8.5,learn,51500.0,Wed Dec 03 2025 16:29:48 GMT-0600 (Central Standard Time),545570.1000000238,A,pipe,O,e,627,1,1735.5,543834.6000000238,7250,WL,B,5.0
4,8.630000114440918,learn,51369.99988555908,Wed Dec 03 2025 16:29:48 GMT-0600 (Central Standard Time),545700.6000000238,A,pipeenter,O,enter,123,1,1866.0,543834.6000000238,7250,WL,B,5.0
4,8.916000127792358,learn,51083.99987220764,Wed Dec 03 2025 16:29:48 GMT-0600 (Central Standard Time),545986.3000000119,A,p,O,p,281,1,285.5,545700.8000000119,7250,WL,B,6.0
4,9.013000011444092,learn,50986.99998855591,Wed Dec 03 2025 16:29:48 GMT-0600 (Central Standard Time),546083.400000006,A,pu,O,u,89,1,382.59999999403954,545700.8000000119,7250,WL,B,6.0
4,9.496999979019165,learn,50503.000020980835,Wed Dec 03 2025 16:29:48 GMT-0600 (Central Standard Time),546567.8000000119,A,pup,O,p,467,1,867.0,545700.8000000119,7250,WL,B,6.0
4,9.69700002670288,learn,50302.99997329712,Wed Dec 03 2025 16:29:48 GMT-0600 (Central Standard Time),546766.900000006,A,pupi,O,i,189,1,1066.0999999940395,545700.8000000119,7250,WL,B,6.0
4,9.931999921798706,learn,50068.000078201294,Wed Dec 03 2025 16:29:48 GMT-0600 (Central Standard Time),547002.400000006,A,pupil,O,l,213,1,1301.5999999940395,545700.8000000119,7250,WL,B,6.0
4,10.248000144958496,learn,49751.999855041504,Wed Dec 03 2025 16:29:48 GMT-0600 (Central Standard Time),547318.1000000238,A,pupilenter,O,enter,296,1,1617.300000011921,545700.8000000119,7250,WL,B,6.0
4,10.61300015449524,learn,49386.99984550476,Wed Dec 03 2025 16:29:48 GMT-0600 (Central Standard Time),547683.7000000179,A,l,O,l,349,1,365.30000001192093,547318.400000006,7250,WL,B,7.0
4,10.746999979019165,learn,49253.000020980835,Wed Dec 03 2025 16:29:48 GMT-0600 (Central Standard Time),547816.900000006,A,la,O,a,118,1,498.5,547318.400000006,7250,WL,B,7.0
4,10.880000114440918,learn,49119.99988555908,Wed Dec 03 2025 16:29:48 GMT-0600 (Central Standard Time),547949.8000000119,A,lak,O,k,121,1,631.4000000059605,547318.400000006,7250,WL,B,7.0
4,11.013999938964844,learn,48986.000061035156,Wed Dec 03 2025 16:29:48 GMT-0600 (Central Standard Time),548083.8000000119,A,lake,O,e,117,1,765.4000000059605,547318.400000006,7250,WL,B,7.0
4,11.246000051498413,learn,48753.99994850159,Wed Dec 03 2025 16:29:48 GMT-0600 (Central Standard Time),548316.400000006,A,lakeenter,O,enter,224,1,998.0,547318.400000006,7250,WL,B,7.0
4,11.582000017166138,learn,48417.99998283386,Wed Dec 03 2025 16:29:48 GMT-0600 (Central Standard Time),548652.5,A,c,O,c,319,1,335.89999997615814,548316.6000000238,7250,WL,B,8.0
4,11.73200011253357,learn,48267.99988746643,Wed Dec 03 2025 16:29:48 GMT-0600 (Central Standard Time),548802.5,A,ca,O,a,135,1,485.89999997615814,548316.6000000238,7250,WL,B,8.0
4,11.930000066757202,learn,48069.9999332428,Wed Dec 03 2025 16:29:48 GMT-0600 (Central Standard Time),548999.900000006,A,cab,O,b,176,1,683.2999999821186,548316.6000000238,7250,WL,B,8.0
4,12.078999996185303,learn,47921.0000038147,Wed Dec 03 2025 16:29:48 GMT-0600 (Central Standard Time),549149.6000000238,A,cabi,O,i,140,1,833.0,548316.6000000238,7250,WL,B,8.0
4,12.180000066757202,learn,47819.9999332428,Wed Dec 03 2025 16:29:48 GMT-0600 (Central Standard Time),549250.400000006,A,cabin,O,n,79,1,933.7999999821186,548316.6000000238,7250,WL,B,8.0
4,12.546000003814697,learn,47453.9999961853,Wed Dec 03 2025 16:29:48 GMT-0600 (Central Standard Time),549616.6000000238,A,cabinenter,O,enter,352,1,1300.0,548316.6000000238,7250,WL,B,8.0
4,14.779000043869019,learn,45220.99995613098,Wed Dec 03 2025 16:29:48 GMT-0600 (Central Standard Time),551848.7000000179,A,s,O,s,2219,1,2231.9000000059605,549616.8000000119,7250,WL,B,9.0
4,14.894999980926514,learn,45105.000019073486,Wed Dec 03 2025 16:29:48 GMT-0600 (Central Standard Time),551965.2000000179,A,st,O,t,101,1,2348.4000000059605,549616.8000000119,7250,WL,B,9.0
4,14.995000123977661,learn,45004.99987602234,Wed Dec 03 2025 16:29:48 GMT-0600 (Central Standard Time),552065.5,A,sta,O,a,87,1,2448.699999988079,549616.8000000119,7250,WL,B,9.0
4,15.077000141143799,learn,44922.9998588562,Wed Dec 03 2025 16:29:48 GMT-0600 (Central Standard Time),552147.6000000238,A,star,O,r,75,1,2530.800000011921,549616.8000000119,7250,WL,B,9.0
4,15.529000043869019,learn,44470.99995613098,Wed Dec 03 2025 16:29:48 GMT-0600 (Central Standard Time),552598.8000000119,A,starenter,O,enter,432,1,2982.0,549616.8000000119,7250,WL,B,9.0
4,20.776999950408936,learn,39223.000049591064,Wed Dec 03 2025 16:29:48 GMT-0600 (Central Standard Time),557846.7000000179,A,a,O,a,5238,1,5247.700000017881,552599.0,7250,WL,B,10.0
4,20.875999927520752,learn,39124.00007247925,Wed Dec 03 2025 16:29:48 GMT-0600 (Central Standard Time),557946.6000000238,A,ar,O,r,92,1,5347.600000023842,552599.0,7250,WL,B,10.0
4,21.042999982833862,learn,38957.00001716614,Wed Dec 03 2025 16:29:48 GMT-0600 (Central Standard Time),558113.400000006,A,arm,O,m,144,1,5514.4000000059605,552599.0,7250,WL,B,10.0
4,21.66100001335144,learn,38338.99998664856,Wed Dec 03 2025 16:29:48 GMT-0600 (Central Standard Time),558730.7000000179,A,armenter,O,enter,611,1,6131.700000017881,552599.0,7250,WL,B,10.0
4,22.526000022888184,learn,37473.99997711182,Wed Dec 03 2025 16:29:48 GMT-0600 (Central Standard Time),559596.1000000238,A,s,O,s,856,1,865.1000000238419,558731.0,7250,WL,B,11.0
4,22.575000047683716,learn,37424.999952316284,Wed Dec 03 2025 16:29:48 GMT-0600 (Central Standard Time),559645.0,A,sk,O,k,28,1,914.0,558731.0,7250,WL,B,11.0
4,22.759000062942505,learn,37240.999937057495,Wed Dec 03 2025 16:29:48 GMT-0600 (Central Standard Time),559829.2000000179,A,ski,O,i,174,1,1098.2000000178814,558731.0,7250,WL,B,11.0
4,22.825000047683716,learn,37174.999952316284,Wed Dec 03 2025 16:29:48 GMT-0600 (Central Standard Time),559895.7000000179,A,skin,O,n,53,1,1164.7000000178814,558731.0,7250,WL,B,11.0
4,23.092999935150146,learn,36907.00006484985,Wed Dec 03 2025 16:29:48 GMT-0600 (Central Standard Time),560163.0,A,skinenter,O,enter,258,1,1432.0,558731.0,7250,WL,B,11.0
4,27.325000047683716,learn,32674.999952316284,Wed Dec 03 2025 16:29:48 GMT-0600 (Central Standard Time),564394.900000006,A,d,O,d,4228,1,4231.5999999940395,560163.3000000119,7250,WL,B,12.0
4,27.442000150680542,learn,32557.999849319458,Wed Dec 03 2025 16:29:48 GMT-0600 (Central Standard Time),564511.900000006,A,do,O,o,102,1,4348.5999999940395,560163.3000000119,7250,WL,B,12.0
4,27.574000120162964,learn,32425.999879837036,Wed Dec 03 2025 16:29:48 GMT-0600 (Central Standard Time),564643.7000000179,A,doo,O,o,123,1,4480.4000000059605,560163.3000000119,7250,WL,B,12.0
4,27.676000118255615,learn,32323.999881744385,Wed Dec 03 2025 16:29:48 GMT-0600 (Central Standard Time),564745.8000000119,A,door,O,r,88,1,4582.5,560163.3000000119,7250,WL,B,12.0
4,27.907000064849854,learn,32092.999935150146,Wed Dec 03 2025 16:29:48 GMT-0600 (Central Standard Time),564977.0,A,doorenter,O,enter,214,1,4813.699999988079,560163.3000000119,7250,WL,B,12.0
4,29.308000087738037,learn,30691.999912261963,Wed Dec 03 2025 16:29:48 GMT-0600 (Central Standard Time),566378.0,A,w,O,w,1386,1,1400.7999999821186,564977.2000000179,7250,WL,B,13.0
4,29.32200002670288,learn,30677.99997329712,Wed Dec 03 2025 16:29:48 GMT-0600 (Central Standard Time),566392.3000000119,A,wi,O,i,8,1,1415.0999999940395,564977.2000000179,7250,WL,B,13.0
4,29.424000024795532,learn,30575.999975204468,Wed Dec 03 2025 16:29:48 GMT-0600 (Central Standard Time),566494.5,A,win,O,n,92,1,1517.2999999821186,564977.2000000179,7250,WL,B,13.0
4,29.508000135421753,learn,30491.999864578247,Wed Dec 03 2025 16:29:48 GMT-0600 (Central Standard Time),566578.3000000119,A,wind,O,d,68,1,1601.0999999940395,564977.2000000179,7250,WL,B,13.0
4,29.657999992370605,learn,30342.000007629395,Wed Dec 03 2025 16:29:48 GMT-0600 (Central Standard Time),566727.8000000119,A,windo,O,o,136,1,1750.5999999940395,564977.2000000179,7250,WL,B,13.0
4,30.006999969482422,learn,29993.000030517578,Wed Dec 03 2025 16:29:48 GMT-0600 (Central Standard Time),567077.5,A,windoenter,O,enter,339,1,2100.2999999821186,564977.2000000179,7250,WL,B,13.0
4,48.20099997520447,learn,11799.000024795532,Wed Dec 03 2025 16:29:48 GMT-0600 (Central Standard Time),585271.6000000238,A,w,O,w,18181,1,18193.80000001192,567077.8000000119,7250,WL,B,14.0
4,48.33400011062622,learn,11665.99988937378,Wed Dec 03 2025 16:29:48 GMT-0600 (Central Standard Time),585404.900000006,A,wo,O,o,125,1,18327.09999999404,567077.8000000119,7250,WL,B,14.0
4,48.532999992370605,learn,11467.000007629395,Wed Dec 03 2025 16:29:48 GMT-0600 (Central Standard Time),585603.3000000119,A,wom,O,m,181,1,18525.5,567077.8000000119,7250,WL,B,14.0
4,48.901000022888184,learn,11098.999977111816,Wed Dec 03 2025 16:29:48 GMT-0600 (Central Standard Time),585971.5,A,woma,O,a,361,1,18893.69999998808,567077.8000000119,7250,WL,B,14.0
4,49.03500008583069,learn,10964.999914169312,Wed Dec 03 2025 16:29:48 GMT-0600 (Central Standard Time),586105.400000006,A,woman,O,n,120,1,19027.59999999404,567077.8000000119,7250,WL,B,14.0
4,50.28399991989136,learn,9716.000080108643,Wed Dec 03 2025 16:29:48 GMT-0600 (Central Standard Time),587354.900000006,A,womanenter,O,enter,1230,1,20277.09999999404,567077.8000000119,7250,WL,B,14.0
4,60.015000104904175,learn,-15.000104904174805,Wed Dec 03 2025 16:29:48 GMT-0600 (Central Standard Time),597085.400000006,A,None,O,None,9725,1,9730.299999982119,587355.1000000238,7250,WL,B,15.0
5,0.23399996757507324,learn,60000.0,Wed Dec 03 2025 16:29:48 GMT-0600 (Central Standard Time),669645.3000000119,A,f,O,f,227,1,233.5,669411.8000000119,7250,WL,B,1.0
5,0.3510000705718994,learn,60000.0,Wed Dec 03 2025 16:29:48 GMT-0600 (Central Standard Time),669762.3000000119,A,fi,O,i,99,1,350.5,669411.8000000119,7250,WL,B,1.0
5,0.4159998893737793,learn,60000.0,Wed Dec 03 2025 16:29:48 GMT-0600 (Central Standard Time),669827.2000000179,A,fir,O,r,47,1,415.40000000596046,669411.8000000119,7250,WL,B,1.0
5,0.6159999370574951,learn,60000.0,Wed Dec 03 2025 16:29:48 GMT-0600 (Central Standard Time),670028.1000000238,A,fire,O,e,195,1,616.3000000119209,669411.8000000119,7250,WL,B,1.0
5,0.997999906539917,learn,60000.0,Wed Dec 03 2025 16:29:48 GMT-0600 (Central Standard Time),670410.0,A,fireenter,O,enter,374,1,998.1999999880791,669411.8000000119,7250,WL,B,1.0
5,1.2839999198913574,learn,60000.0,Wed Dec 03 2025 16:29:48 GMT-0600 (Central Standard Time),670696.0,A,c,O,c,273,1,285.69999998807907,670410.3000000119,7250,WL,B,2.0
5,1.3829998970031738,learn,60000.0,Wed Dec 03 2025 16:29:48 GMT-0600 (Central Standard Time),670794.3000000119,A,cl,O,l,89,1,384.0,670410.3000000119,7250,WL,B,2.0
5,1.565999984741211,learn,60000.0,Wed Dec 03 2025 16:29:48 GMT-0600 (Central Standard Time),670977.2000000179,A,clo,O,o,174,1,566.9000000059605,670410.3000000119,7250,WL,B,2.0
5,1.9830000400543213,learn,60000.0,Wed Dec 03 2025 16:29:48 GMT-0600 (Central Standard Time),671394.400000006,A,cloc,O,c,404,1,984.0999999940395,670410.3000000119,7250,WL,B,2.0
5,2.0989999771118164,learn,60000.0,Wed Dec 03 2025 16:29:48 GMT-0600 (Central Standard Time),671510.7000000179,A,clock,O,k,98,1,1100.4000000059605,670410.3000000119,7250,WL,B,2.0
5,2.3329999446868896,learn,60000.0,Wed Dec 03 2025 16:29:48 GMT-0600 (Central Standard Time),671744.2000000179,A,clockenter,O,enter,213,1,1333.9000000059605,670410.3000000119,7250,WL,B,2.0
5,2.565999984741211,learn,60000.0,Wed Dec 03 2025 16:29:48 GMT-0600 (Central Standard Time),671977.1000000238,A,s,O,s,213,1,232.7000000178814,671744.400000006,7250,WL,B,3.0
5,2.682999849319458,learn,60000.0,Wed Dec 03 2025 16:29:48 GMT-0600 (Central Standard Time),672094.3000000119,A,st,O,t,102,1,349.90000000596046,671744.400000006,7250,WL,B,3.0
5,2.8489999771118164,learn,60000.0,Wed Dec 03 2025 16:29:48 GMT-0600 (Central Standard Time),672260.3000000119,A,str,O,r,148,1,515.9000000059605,671744.400000006,7250,WL,B,3.0
5,2.88100004196167,learn,60000.0,Wed Dec 03 2025 16:29:48 GMT-0600 (Central Standard Time),672292.5,A,stre,O,e,19,1,548.0999999940395,671744.400000006,7250,WL,B,3.0
5,3.065000057220459,learn,60000.0,Wed Dec 03 2025 16:29:48 GMT-0600 (Central Standard Time),672476.7000000179,A,stree,O,e,168,1,732.3000000119209,671744.400000006,7250,WL,B,3.0
5,3.1480000019073486,learn,60000.0,Wed Dec 03 2025 16:29:48 GMT-0600 (Central Standard Time),672560.0,A,street,O,t,62,1,815.5999999940395,671744.400000006,7250,WL,B,3.0
5,3.4489998817443848,learn,60000.0,Wed Dec 03 2025 16:29:48 GMT-0600 (Central Standard Time),672860.6000000238,A,streetenter,O,enter,291,1,1116.2000000178814,671744.400000006,7250,WL,B,3.0
5,3.7839999198913574,learn,60000.0,Wed Dec 03 2025 16:29:48 GMT-0600 (Central Standard Time),673195.400000006,A,g,O,g,313,1,334.59999999403954,672860.8000000119,7250,WL,B,4.0
5,3.9809999465942383,learn,60000.0,Wed Dec 03 2025 16:29:48 GMT-0600 (Central Standard Time),673393.0,A,gr,O,r,180,1,532.1999999880791,672860.8000000119,7250,WL,B,4.0
5,4.046999931335449,learn,60000.0,Wed Dec 03 2025 16:29:48 GMT-0600 (Central Standard Time),673459.0,A,gre,O,e,51,1,598.1999999880791,672860.8000000119,7250,WL,B,4.0
5,4.13100004196167,learn,60000.0,Wed Dec 03 2025 16:29:48 GMT-0600 (Central Standard Time),673542.3000000119,A,grea,O,a,69,1,681.5,672860.8000000119,7250,WL,B,4.0
5,4.2820000648498535,learn,60000.0,Wed Dec 03 2025 16:29:48 GMT-0600 (Central Standard Time),673693.8000000119,A,greas,O,s,142,1,833.0,672860.8000000119,7250,WL,B,4.0
5,4.431999921798706,learn,60000.0,Wed Dec 03 2025 16:29:48 GMT-0600 (Central Standard Time),673843.5,A,greass,O,s,132,1,982.6999999880791,672860.8000000119,7250,WL,B,4.0
5,5.0980000495910645,learn,60000.0,Wed Dec 03 2025 16:29:48 GMT-0600 (Central Standard Time),674509.5,A,greas,O,backspace,648,1,1648.699999988079,672860.8000000119,7250,WL,B,4.0
5,5.21399998664856,learn,60000.0,Wed Dec 03 2025 16:29:48 GMT-0600 (Central Standard Time),674625.3000000119,A,grea,O,backspace,101,1,1764.5,672860.8000000119,7250,WL,B,4.0
5,5.365999937057495,learn,60000.0,Wed Dec 03 2025 16:29:48 GMT-0600 (Central Standard Time),674777.900000006,A,gre,O,backspace,139,1,1917.0999999940395,672860.8000000119,7250,WL,B,4.0
5,5.697999954223633,learn,60000.0,Wed Dec 03 2025 16:29:48 GMT-0600 (Central Standard Time),675109.1000000238,A,grea,O,a,310,1,2248.300000011921,672860.8000000119,7250,WL,B,4.0
5,6.132999897003174,learn,60000.0,Wed Dec 03 2025 16:29:48 GMT-0600 (Central Standard Time),675544.1000000238,A,gre,O,backspace,415,1,2683.300000011921,672860.8000000119,7250,WL,B,4.0
5,6.263999938964844,learn,60000.0,Wed Dec 03 2025 16:29:48 GMT-0600 (Central Standard Time),675675.1000000238,A,gr,O,backspace,115,1,2814.300000011921,672860.8000000119,7250,WL,B,4.0
5,6.363999843597412,learn,60000.0,Wed Dec 03 2025 16:29:48 GMT-0600 (Central Standard Time),675775.3000000119,A,gra,O,a,83,1,2914.5,672860.8000000119,7250,WL,B,4.0
5,6.546999931335449,learn,60000.0,Wed Dec 03 2025 16:29:48 GMT-0600 (Central Standard Time),675958.900000006,A,gras,O,s,171,1,3098.0999999940395,672860.8000000119,7250,WL,B,4.0
5,6.713000059127808,learn,60000.0,Wed Dec 03 2025 16:29:48 GMT-0600 (Central Standard Time),676125.1000000238,A,grass,O,s,152,1,3264.300000011921,672860.8000000119,7250,WL,B,4.0
5,6.866999864578247,learn,60000.0,Wed Dec 03 2025 16:29:48 GMT-0600 (Central Standard Time),676278.3000000119,A,grassenter,O,enter,141,1,3417.5,672860.8000000119,7250,WL,B,4.0
5,7.2149999141693115,learn,60000.0,Wed Dec 03 2025 16:29:48 GMT-0600 (Central Standard Time),676626.400000006,A,d,O,d,336,1,347.7999999821186,676278.6000000238,7250,WL,B,5.0
5,7.397000074386597,learn,60000.0,Wed Dec 03 2025 16:29:48 GMT-0600 (Central Standard Time),676808.7000000179,A,do,O,o,161,1,530.0999999940395,676278.6000000238,7250,WL,B,5.0
5,7.5309998989105225,learn,60000.0,Wed Dec 03 2025 16:29:48 GMT-0600 (Central Standard Time),676942.6000000238,A,doo,O,o,123,1,664.0,676278.6000000238,7250,WL,B,5.0
5,7.664999961853027,learn,60000.0,Wed Dec 03 2025 16:29:48 GMT-0600 (Central Standard Time),677076.400000006,A,door,O,r,112,1,797.7999999821186,676278.6000000238,7250,WL,B,5.0
5,7.930000066757202,learn,60000.0,Wed Dec 03 2025 16:29:48 GMT-0600 (Central Standard Time),677341.2000000179,A,doorenter,O,enter,255,1,1062.5999999940395,676278.6000000238,7250,WL,B,5.0
5,8.516000032424927,learn,60000.0,Wed Dec 03 2025 16:29:48 GMT-0600 (Central Standard Time),677927.400000006,A,w,O,w,563,1,586.0,677341.400000006,7250,WL,B,6.0
5,8.579999923706055,learn,60000.0,Wed Dec 03 2025 16:29:48 GMT-0600 (Central Standard Time),677991.3000000119,A,wi,O,i,51,1,649.9000000059605,677341.400000006,7250,WL,B,6.0
5,8.680000066757202,learn,60000.0,Wed Dec 03 2025 16:29:48 GMT-0600 (Central Standard Time),678091.900000006,A,win,O,n,89,1,750.5,677341.400000006,7250,WL,B,6.0
5,8.763999938964844,learn,60000.0,Wed Dec 03 2025 16:29:48 GMT-0600 (Central Standard Time),678175.7000000179,A,wind,O,d,73,1,834.3000000119209,677341.400000006,7250,WL,B,6.0
5,8.897000074386597,learn,60000.0,Wed Dec 03 2025 16:29:48 GMT-0600 (Central Standard Time),678308.3000000119,A,windo,O,o,124,1,966.9000000059605,677341.400000006,7250,WL,B,6.0
5,9.346999883651733,learn,60000.0,Wed Dec 03 2025 16:29:48 GMT-0600 (Central Standard Time),678758.7000000179,A,window,O,w,438,1,1417.300000011921,677341.400000006,7250,WL,B,6.0
5,9.562999963760376,learn,60000.0,Wed Dec 03 2025 16:29:48 GMT-0600 (Central Standard Time),678974.2000000179,A,windowenter,O,enter,204,1,1632.800000011921,677341.400000006,7250,WL,B,6.0
5,9.86299991607666,learn,60000.0,Wed Dec 03 2025 16:29:48 GMT-0600 (Central Standard Time),679275.1000000238,A,s,O,s,285,1,300.7000000178814,678974.400000006,7250,WL,B,7.0
5,9.94599986076355,learn,60000.0,Wed Dec 03 2025 16:29:48 GMT-0600 (Central Standard Time),679357.900000006,A,sk,O,k,71,1,383.5,678974.400000006,7250,WL,B,7.0
5,10.113999843597412,learn,60000.0,Wed Dec 03 2025 16:29:48 GMT-0600 (Central Standard Time),679525.1000000238,A,ski,O,i,157,1,550.7000000178814,678974.400000006,7250,WL,B,7.0
5,10.213000059127808,learn,60000.0,Wed Dec 03 2025 16:29:48 GMT-0600 (Central Standard Time),679624.400000006,A,skin,O,n,87,1,650.0,678974.400000006,7250,WL,B,7.0
5,10.464999914169312,learn,60000.0,Wed Dec 03 2025 16:29:48 GMT-0600 (Central Standard Time),679876.3000000119,A,skinenter,O,enter,235,1,901.9000000059605,678974.400000006,7250,WL,B,7.0
5,10.728999853134155,learn,60000.0,Wed Dec 03 2025 16:29:48 GMT-0600 (Central Standard Time),680140.900000006,A,w,O,w,255,1,264.40000000596046,679876.5,7250,WL,B,8.0
5,10.828999996185303,learn,60000.0,Wed Dec 03 2025 16:29:48 GMT-0600 (Central Standard Time),680240.400000006,A,wi,O,i,78,1,363.90000000596046,679876.5,7250,WL,B,8.0
5,10.947999954223633,learn,60000.0,Wed Dec 03 2025 16:29:48 GMT-0600 (Central Standard Time),680359.2000000179,A,wif,O,f,106,1,482.7000000178814,679876.5,7250,WL,B,8.0
5,11.032000064849854,learn,60000.0,Wed Dec 03 2025 16:29:48 GMT-0600 (Central Standard Time),680443.7000000179,A,wife,O,e,65,1,567.2000000178814,679876.5,7250,WL,B,8.0
5,11.246000051498413,learn,60000.0,Wed Dec 03 2025 16:29:48 GMT-0600 (Central Standard Time),680657.900000006,A,wifeenter,O,enter,194,1,781.4000000059605,679876.5,7250,WL,B,8.0
5,11.698999881744385,learn,60000.0,Wed Dec 03 2025 16:29:48 GMT-0600 (Central Standard Time),681110.3000000119,A,p,O,p,433,1,452.0,680658.3000000119,7250,WL,B,9.0
5,11.828999996185303,learn,60000.0,Wed Dec 03 2025 16:29:48 GMT-0600 (Central Standard Time),681240.5,A,pu,O,u,114,1,582.1999999880791,680658.3000000119,7250,WL,B,9.0
5,11.94700002670288,learn,60000.0,Wed Dec 03 2025 16:29:48 GMT-0600 (Central Standard Time),681358.8000000119,A,pup,O,p,107,1,700.5,680658.3000000119,7250,WL,B,9.0
5,12.412999868392944,learn,60000.0,Wed Dec 03 2025 16:29:48 GMT-0600 (Central Standard Time),681824.3000000119,A,pupi,O,i,445,1,1166.0,680658.3000000119,7250,WL,B,9.0
5,12.562999963760376,learn,60000.0,Wed Dec 03 2025 16:29:48 GMT-0600 (Central Standard Time),681974.900000006,A,pupil,O,l,128,1,1316.5999999940395,680658.3000000119,7250,WL,B,9.0
5,12.812000036239624,learn,60000.0,Wed Dec 03 2025 16:29:48 GMT-0600 (Central Standard Time),682223.1000000238,A,pupilenter,O,enter,228,1,1564.800000011921,680658.3000000119,7250,WL,B,9.0
5,13.046000003814697,learn,60000.0,Wed Dec 03 2025 16:29:48 GMT-0600 (Central Standard Time),682457.3000000119,A,s,O,s,220,1,233.90000000596046,682223.400000006,7250,WL,B,10.0
5,13.180000066757202,learn,60000.0,Wed Dec 03 2025 16:29:48 GMT-0600 (Central Standard Time),682591.6000000238,A,st,O,t,120,1,368.2000000178814,682223.400000006,7250,WL,B,10.0
5,13.330999851226807,learn,60000.0,Wed Dec 03 2025 16:29:48 GMT-0600 (Central Standard Time),682743.0,A,sta,O,a,132,1,519.5999999940395,682223.400000006,7250,WL,B,10.0
5,13.394999980926514,learn,60000.0,Wed Dec 03 2025 16:29:48 GMT-0600 (Central Standard Time),682806.7000000179,A,star,O,r,44,1,583.3000000119209,682223.400000006,7250,WL,B,10.0
5,13.59500002861023,learn,60000.0,Wed Dec 03 2025 16:29:48 GMT-0600 (Central Standard Time),683006.6000000238,A,start,O,t,187,1,783.2000000178814,682223.400000006,7250,WL,B,10.0
5,14.063999891281128,learn,60000.0,Wed Dec 03 2025 16:29:48 GMT-0600 (Central Standard Time),683475.400000006,A,star,O,backspace,447,1,1252.0,682223.400000006,7250,WL,B,10.0
5,14.328999996185303,learn,60000.0,Wed Dec 03 2025 16:29:48 GMT-0600 (Central Standard Time),683740.2000000179,A,starenter,O,enter,250,1,1516.800000011921,682223.400000006,7250,WL,B,10.0
5,14.67799997329712,learn,60000.0,Wed Dec 03 2025 16:29:48 GMT-0600 (Central Standard Time),684090.0,A,c,O,c,343,1,349.5,683740.5,7250,WL,B,11.0
5,14.744999885559082,learn,60000.0,Wed Dec 03 2025 16:29:48 GMT-0600 (Central Standard Time),684156.7000000179,A,ci,O,i,46,1,416.2000000178814,683740.5,7250,WL,B,11.0
5,14.894999980926514,learn,60000.0,Wed Dec 03 2025 16:29:48 GMT-0600 (Central Standard Time),684306.400000006,A,cit,O,t,142,1,565.9000000059605,683740.5,7250,WL,B,11.0
5,15.01199984550476,learn,60000.0,Wed Dec 03 2025 16:29:48 GMT-0600 (Central Standard Time),684423.8000000119,A,city,O,y,105,1,683.3000000119209,683740.5,7250,WL,B,11.0
5,15.244999885559082,learn,60000.0,Wed Dec 03 2025 16:29:48 GMT-0600 (Central Standard Time),684656.8000000119,A,cityenter,O,enter,219,1,916.3000000119209,683740.5,7250,WL,B,11.0
5,21.692999839782715,learn,60000.0,Wed Dec 03 2025 16:29:48 GMT-0600 (Central Standard Time),691104.6000000238,A,c,O,c,6435,1,6447.5,684657.1000000238,7250,WL,B,12.0
5,21.875999927520752,learn,60000.0,Wed Dec 03 2025 16:29:48 GMT-0600 (Central Standard Time),691287.900000006,A,ca,O,a,176,1,6630.799999982119,684657.1000000238,7250,WL,B,12.0
5,21.97499990463257,learn,60000.0,Wed Dec 03 2025 16:29:48 GMT-0600 (Central Standard Time),691387.0,A,cab,O,b,83,1,6729.899999976158,684657.1000000238,7250,WL,B,12.0
5,22.14199995994568,learn,60000.0,Wed Dec 03 2025 16:29:48 GMT-0600 (Central Standard Time),691554.0,A,cabi,O,i,152,1,6896.899999976158,684657.1000000238,7250,WL,B,12.0
5,22.157999992370605,learn,60000.0,Wed Dec 03 2025 16:29:48 GMT-0600 (Central Standard Time),691569.900000006,A,cabin,O,n,0,1,6912.799999982119,684657.1000000238,7250,WL,B,12.0
5,22.54200005531311,learn,60000.0,Wed Dec 03 2025 16:29:48 GMT-0600 (Central Standard Time),691953.3000000119,A,cabinenter,O,enter,380,1,7296.199999988079,684657.1000000238,7250,WL,B,12.0
5,22.825999975204468,learn,60000.0,Wed Dec 03 2025 16:29:48 GMT-0600 (Central Standard Time),692237.7000000179,A,l,O,l,274,1,284.09999999403954,691953.6000000238,7250,WL,B,13.0
5,23.075000047683716,learn,60000.0,Wed Dec 03 2025 16:29:48 GMT-0600 (Central Standard Time),692486.5,A,la,O,a,236,1,532.8999999761581,691953.6000000238,7250,WL,B,13.0
5,23.174000024795532,learn,60000.0,Wed Dec 03 2025 16:29:48 GMT-0600 (Central Standard Time),692586.3000000119,A,lak,O,k,93,1,632.6999999880791,691953.6000000238,7250,WL,B,13.0
5,23.359999895095825,learn,60000.0,Wed Dec 03 2025 16:29:48 GMT-0600 (Central Standard Time),692772.2000000179,A,lake,O,e,177,1,818.5999999940395,691953.6000000238,7250,WL,B,13.0
5,23.776000022888184,learn,60000.0,Wed Dec 03 2025 16:29:48 GMT-0600 (Central Standard Time),693187.8000000119,A,lakeenter,O,enter,398,1,1234.199999988079,691953.6000000238,7250,WL,B,13.0
5,33.15599989891052,learn,60000.0,Wed Dec 03 2025 16:29:48 GMT-0600 (Central Standard Time),702567.6000000238,A,p,O,p,9367,1,9379.600000023842,693188.0,7250,WL,B,14.0
5,33.28999996185303,learn,60000.0,Wed Dec 03 2025 16:29:48 GMT-0600 (Central Standard Time),702701.7000000179,A,pi,O,i,123,1,9513.700000017881,693188.0,7250,WL,B,14.0
5,33.45700001716614,learn,60000.0,Wed Dec 03 2025 16:29:48 GMT-0600 (Central Standard Time),702868.6000000238,A,pip,O,p,160,1,9680.600000023842,693188.0,7250,WL,B,14.0
5,33.65599989891052,learn,60000.0,Wed Dec 03 2025 16:29:48 GMT-0600 (Central Standard Time),703067.7000000179,A,pipe,O,e,183,1,9879.700000017881,693188.0,7250,WL,B,14.0
5,33.9229998588562,learn,60000.0,Wed Dec 03 2025 16:29:48 GMT-0600 (Central Standard Time),703334.3000000119,A,pipeenter,O,enter,248,1,10146.300000011921,693188.0,7250,WL,B,14.0
5,43.085999965667725,learn,60000.0,Wed Dec 03 2025 16:29:48 GMT-0600 (Central Standard Time),712497.5,A,c,O,c,9158,1,9162.799999982119,703334.7000000179,7250,WL,B,15.0
5,43.38699984550476,learn,60000.0,Wed Dec 03 2025 16:29:48 GMT-0600 (Central Standard Time),712798.7000000179,A,co,O,o,278,1,9464.0,703334.7000000179,7250,WL,B,15.0
5,44.800999879837036,learn,60000.0,Wed Dec 03 2025 16:29:48 GMT-0600 (Central Standard Time),714213.0,A,c,O,backspace,1393,1,10878.299999982119,703334.7000000179,7250,WL,B,15.0
5,45.085999965667725,learn,60000.0,Wed Dec 03 2025 16:29:48 GMT-0600 (Central Standard Time),714497.8000000119,A,cl,O,l,269,1,11163.09999999404,703334.7000000179,7250,WL,B,15.0
5,45.33500003814697,learn,60000.0,Wed Dec 03 2025 16:29:48 GMT-0600 (Central Standard Time),714746.8000000119,A,clo,O,o,233,1,11412.09999999404,703334.7000000179,7250,WL,B,15.0
5,45.501999855041504,learn,60000.0,Wed Dec 03 2025 16:29:48 GMT-0600 (Central Standard Time),714913.8000000119,A,cloc,O,c,141,1,11579.09999999404,703334.7000000179,7250,WL,B,15.0
5,45.63499999046326,learn,60000.0,Wed Dec 03 2025 16:29:48 GMT-0600 (Central Standard Time),715046.7000000179,A,clock,O,k,119,1,11712.0,703334.7000000179,7250,WL,B,15.0
5,45.86800003051758,learn,60000.0,Wed Dec 03 2025 16:29:48 GMT-0600 (Central Standard Time),715279.7000000179,A,clockenter,O,enter,209,1,11945.0,703334.7000000179,7250,WL,B,15.0
6,1.1180000305175781,distr,58881.99996948242,Wed Dec 03 2025 16:29:48 GMT-0600 (Central Standard Time),831727.2000000179,B,c,O,c,1107,1,1118.0999999940395,830609.1000000238,7250,WL,B,1.0
6,1.1319999694824219,distr,58868.00003051758,Wed Dec 03 2025 16:29:48 GMT-0600 (Central Standard Time),831741.5,B,ch,O,h,0,1,1132.3999999761581,830609.1000000238,7250,WL,B,1.0
6,1.2000000476837158,distr,58799.999952316284,Wed Dec 03 2025 16:29:48 GMT-0600 (Central Standard Time),831809.2000000179,B,chi,O,i,51,1,1200.0999999940395,830609.1000000238,7250,WL,B,1.0
6,1.366999864578247,distr,58633.00013542175,Wed Dec 03 2025 16:29:48 GMT-0600 (Central Standard Time),831976.3000000119,B,chil,O,l,148,1,1367.199999988079,830609.1000000238,7250,WL,B,1.0
6,1.5509998798370361,distr,58449.000120162964,Wed Dec 03 2025 16:29:48 GMT-0600 (Central Standard Time),832159.7000000179,B,child,O,d,163,1,1550.5999999940395,830609.1000000238,7250,WL,B,1.0
6,3.0,distr,57000.0,Wed Dec 03 2025 16:29:48 GMT-0600 (Central Standard Time),833608.900000006,B,childenter,O,enter,1429,1,2999.7999999821186,830609.1000000238,7250,WL,B,1.0
6,3.550999879837036,distr,56449.000120162964,Wed Dec 03 2025 16:29:48 GMT-0600 (Central Standard Time),834159.8000000119,B,o,O,o,531,1,550.6999999880791,833609.1000000238,7250,WL,B,2.0
6,3.6499998569488525,distr,56350.00014305115,Wed Dec 03 2025 16:29:48 GMT-0600 (Central Standard Time),834259.0,B,ob,O,b,92,1,649.8999999761581,833609.1000000238,7250,WL,B,2.0
6,3.8499999046325684,distr,56150.00009536743,Wed Dec 03 2025 16:29:48 GMT-0600 (Central Standard Time),834459.3000000119,B,obs,O,s,190,1,850.1999999880791,833609.1000000238,7250,WL,B,2.0
6,3.9659998416900635,distr,56034.00015830994,Wed Dec 03 2025 16:29:48 GMT-0600 (Central Standard Time),834575.5,B,obse,O,e,104,1,966.3999999761581,833609.1000000238,7250,WL,B,2.0
6,4.047999858856201,distr,55952.0001411438,Wed Dec 03 2025 16:29:48 GMT-0600 (Central Standard Time),834657.3000000119,B,obser,O,r,76,1,1048.199999988079,833609.1000000238,7250,WL,B,2.0
6,4.315999984741211,distr,55684.00001525879,Wed Dec 03 2025 16:29:48 GMT-0600 (Central Standard Time),834925.0,B,observ,O,v,259,1,1315.8999999761581,833609.1000000238,7250,WL,B,2.0
6,4.60099983215332,distr,55399.00016784668,Wed Dec 03 2025 16:29:48 GMT-0600 (Central Standard Time),835210.0,B,observc,O,c,262,1,1600.8999999761581,833609.1000000238,7250,WL,B,2.0
6,5.148999929428101,distr,54851.0000705719,Wed Dec 03 2025 16:29:48 GMT-0600 (Central Standard Time),835758.400000006,B,observ,O,backspace,529,1,2149.2999999821186,833609.1000000238,7250,WL,B,2.0
6,5.267999887466431,distr,54732.00011253357,Wed Dec 03 2025 16:29:48 GMT-0600 (Central Standard Time),835876.6000000238,B,observe,O,e,101,1,2267.5,833609.1000000238,7250,WL,B,2.0
6,5.531999826431274,distr,54468.000173568726,Wed Dec 03 2025 16:29:48 GMT-0600 (Central Standard Time),836141.2000000179,B,observeenter,O,enter,253,1,2532.0999999940395,833609.1000000238,7250,WL,B,2.0
6,17.610999822616577,distr,42389.00017738342,Wed Dec 03 2025 16:29:48 GMT-0600 (Central Standard Time),848219.7000000179,B,d,O,d,12069,1,12078.200000017881,836141.5,7250,WL,B,3.0
6,18.661999940872192,distr,41338.00005912781,Wed Dec 03 2025 16:29:48 GMT-0600 (Central Standard Time),849271.1000000238,B,do,O,o,1041,1,13129.600000023842,836141.5,7250,WL,B,3.0
6,19.01199984550476,distr,40988.00015449524,Wed Dec 03 2025 16:29:48 GMT-0600 (Central Standard Time),849620.900000006,B,d,O,backspace,340,1,13479.40000000596,836141.5,7250,WL,B,3.0
6,19.17799997329712,distr,40822.00002670288,Wed Dec 03 2025 16:29:48 GMT-0600 (Central Standard Time),849787.1000000238,B,,O,backspace,149,1,13645.600000023842,836141.5,7250,WL,B,3.0
6,39.30499982833862,distr,20695.000171661377,Wed Dec 03 2025 16:29:48 GMT-0600 (Central Standard Time),869914.400000006,B,s,O,s,20113,1,33772.90000000596,836141.5,7250,WL,B,3.0
6,39.50499987602234,distr,20495.00012397766,Wed Dec 03 2025 16:29:48 GMT-0600 (Central Standard Time),870114.0,B,st,O,t,185,1,33972.5,836141.5,7250,WL,B,3.0
6,39.72099995613098,distr,20279.00004386902,Wed Dec 03 2025 16:29:48 GMT-0600 (Central Standard Time),870329.900000006,B,str,O,r,202,1,34188.40000000596,836141.5,7250,WL,B,3.0
6,39.82099986076355,distr,20179.00013923645,Wed Dec 03 2025 16:29:48 GMT-0600 (Central Standard Time),870430.3000000119,B,stre,O,e,89,1,34288.80000001192,836141.5,7250,WL,B,3.0
6,39.98799991607666,distr,20012.00008392334,Wed Dec 03 2025 16:29:48 GMT-0600 (Central Standard Time),870597.5,B,stree,O,e,148,1,34456.0,836141.5,7250,WL,B,3.0
6,40.08799982070923,distr,19912.00017929077,Wed Dec 03 2025 16:29:48 GMT-0600 (Central Standard Time),870697.3000000119,B,street,O,t,78,1,34555.80000001192,836141.5,7250,WL,B,3.0
6,40.33799982070923,distr,19662.00017929077,Wed Dec 03 2025 16:29:48 GMT-0600 (Central Standard Time),870946.7000000179,B,streetenter,O,enter,242,1,34805.20000001788,836141.5,7250,WL,B,3.0
6,60.01600003242493,distr,-16.000032424926758,Wed Dec 03 2025 16:29:48 GMT-0600 (Central Standard Time),890625.6000000238,B,None,O,None,19673,1,19678.70000001788,870946.900000006,7250,WL,B,4.0
7,0.43400001525878906,immed,59565.99998474121,Wed Dec 03 2025 16:29:48 GMT-0600 (Central Standard Time),894840.7000000179,A,s,O,s,421,1,434.0,894406.7000000179,7250,WL,B,1.0
7,0.6329998970031738,immed,59367.000102996826,Wed Dec 03 2025 16:29:48 GMT-0600 (Central Standard Time),895039.6000000238,A,st,O,t,187,1,632.9000000059605,894406.7000000179,7250,WL,B,1.0
7,0.8670001029968262,immed,59132.999897003174,Wed Dec 03 2025 16:29:48 GMT-0600 (Central Standard Time),895273.3000000119,A,str,O,r,214,1,866.5999999940395,894406.7000000179,7250,WL,B,1.0
7,0.9159998893737793,immed,59084.00011062622,Wed Dec 03 2025 16:29:48 GMT-0600 (Central Standard Time),895322.3000000119,A,stre,O,e,40,1,915.5999999940395,894406.7000000179,7250,WL,B,1.0
7,1.1489999294281006,immed,58851.0000705719,Wed Dec 03 2025 16:29:48 GMT-0600 (Central Standard Time),895555.3000000119,A,stree,O,e,226,1,1148.5999999940395,894406.7000000179,7250,WL,B,1.0
7,1.5989999771118164,immed,58401.00002288818,Wed Dec 03 2025 16:29:48 GMT-0600 (Central Standard Time),896005.6000000238,A,street,O,t,440,1,1598.9000000059605,894406.7000000179,7250,WL,B,1.0
7,1.9000000953674316,immed,58099.99990463257,Wed Dec 03 2025 16:29:48 GMT-0600 (Central Standard Time),896306.0,A,streetenter,O,enter,286,1,1899.2999999821186,894406.7000000179,7250,WL,B,1.0
7,2.132999897003174,immed,57867.000102996826,Wed Dec 03 2025 16:29:48 GMT-0600 (Central Standard Time),896539.3000000119,A,g,O,g,228,1,233.09999999403954,896306.2000000179,7250,WL,B,2.0
7,2.3320000171661377,immed,57667.99998283386,Wed Dec 03 2025 16:29:48 GMT-0600 (Central Standard Time),896738.5,A,gr,O,r,184,1,432.2999999821186,896306.2000000179,7250,WL,B,2.0
7,2.4149999618530273,immed,57585.00003814697,Wed Dec 03 2025 16:29:48 GMT-0600 (Central Standard Time),896821.400000006,A,gra,O,a,74,1,515.1999999880791,896306.2000000179,7250,WL,B,2.0
7,2.615999937057495,immed,57384.000062942505,Wed Dec 03 2025 16:29:48 GMT-0600 (Central Standard Time),897022.5,A,gras,O,s,188,1,716.2999999821186,896306.2000000179,7250,WL,B,2.0
7,2.7820000648498535,immed,57217.99993515015,Wed Dec 03 2025 16:29:48 GMT-0600 (Central Standard Time),897188.6000000238,A,grass,O,s,150,1,882.4000000059605,896306.2000000179,7250,WL,B,2.0
7,3.183000087738037,immed,56816.99991226196,Wed Dec 03 2025 16:29:48 GMT-0600 (Central Standard Time),897589.5,A,grassc,O,c,389,1,1283.2999999821186,896306.2000000179,7250,WL,B,2.0
7,3.6670000553131104,immed,56332.99994468689,Wed Dec 03 2025 16:29:48 GMT-0600 (Central Standard Time),898073.3000000119,A,grass,O,backspace,472,1,1767.0999999940395,896306.2000000179,7250,WL,B,2.0
7,3.931999921798706,immed,56068.000078201294,Wed Dec 03 2025 16:29:48 GMT-0600 (Central Standard Time),898338.5,A,grassenter,O,enter,258,1,2032.2999999821186,896306.2000000179,7250,WL,B,2.0
7,4.315000057220459,immed,55684.99994277954,Wed Dec 03 2025 16:29:48 GMT-0600 (Central Standard Time),898720.900000006,A,c,O,c,368,1,382.09999999403954,898338.8000000119,7250,WL,B,3.0
7,4.398000001907349,immed,55601.99999809265,Wed Dec 03 2025 16:29:48 GMT-0600 (Central Standard Time),898804.400000006,A,cl,O,l,74,1,465.59999999403954,898338.8000000119,7250,WL,B,3.0
7,4.601000070571899,immed,55398.9999294281,Wed Dec 03 2025 16:29:48 GMT-0600 (Central Standard Time),899007.0,A,clo,O,o,192,1,668.1999999880791,898338.8000000119,7250,WL,B,3.0
7,4.733000040054321,immed,55266.99995994568,Wed Dec 03 2025 16:29:48 GMT-0600 (Central Standard Time),899139.3000000119,A,cloc,O,c,127,1,800.5,898338.8000000119,7250,WL,B,3.0
7,4.848999977111816,immed,55151.00002288818,Wed Dec 03 2025 16:29:48 GMT-0600 (Central Standard Time),899255.0,A,clock,O,k,104,1,916.1999999880791,898338.8000000119,7250,WL,B,3.0
7,5.081000089645386,immed,54918.999910354614,Wed Dec 03 2025 16:29:48 GMT-0600 (Central Standard Time),899487.6000000238,A,clockenter,O,enter,219,1,1148.800000011921,898338.8000000119,7250,WL,B,3.0
7,5.265000104904175,immed,54734.999895095825,Wed Dec 03 2025 16:29:48 GMT-0600 (Central Standard Time),899671.8000000119,A,w,O,w,164,1,184.0,899487.8000000119,7250,WL,B,4.0
7,5.365999937057495,immed,54634.000062942505,Wed Dec 03 2025 16:29:48 GMT-0600 (Central Standard Time),899771.900000006,A,wi,O,i,85,1,284.09999999403954,899487.8000000119,7250,WL,B,4.0
7,5.4649999141693115,immed,54535.00008583069,Wed Dec 03 2025 16:29:48 GMT-0600 (Central Standard Time),899871.400000006,A,wif,O,f,78,1,383.59999999403954,899487.8000000119,7250,WL,B,4.0
7,5.54800009727478,immed,54451.99990272522,Wed Dec 03 2025 16:29:48 GMT-0600 (Central Standard Time),899954.3000000119,A,wife,O,e,60,1,466.5,899487.8000000119,7250,WL,B,4.0
7,5.7149999141693115,immed,54285.00008583069,Wed Dec 03 2025 16:29:48 GMT-0600 (Central Standard Time),900121.6000000238,A,wifeenter,O,enter,146,1,633.8000000119209,899487.8000000119,7250,WL,B,4.0
7,6.099999904632568,immed,53900.00009536743,Wed Dec 03 2025 16:29:48 GMT-0600 (Central Standard Time),900506.400000006,A,p,O,p,361,1,384.59999999403954,900121.8000000119,7250,WL,B,5.0
7,6.230999946594238,immed,53769.00005340576,Wed Dec 03 2025 16:29:48 GMT-0600 (Central Standard Time),900637.1000000238,A,pu,O,u,122,1,515.3000000119209,900121.8000000119,7250,WL,B,5.0
7,6.364000082015991,immed,53635.99991798401,Wed Dec 03 2025 16:29:48 GMT-0600 (Central Standard Time),900770.5,A,pup,O,p,119,1,648.6999999880791,900121.8000000119,7250,WL,B,5.0
7,6.848999977111816,immed,53151.00002288818,Wed Dec 03 2025 16:29:48 GMT-0600 (Central Standard Time),901255.3000000119,A,pupi,O,i,465,1,1133.5,900121.8000000119,7250,WL,B,5.0
7,7.065000057220459,immed,52934.99994277954,Wed Dec 03 2025 16:29:48 GMT-0600 (Central Standard Time),901471.0,A,pupil,O,l,196,1,1349.199999988079,900121.8000000119,7250,WL,B,5.0
7,7.414000034332275,immed,52585.999965667725,Wed Dec 03 2025 16:29:48 GMT-0600 (Central Standard Time),901820.3000000119,A,pupilenter,O,enter,331,1,1698.5,900121.8000000119,7250,WL,B,5.0
7,7.733000040054321,immed,52266.99995994568,Wed Dec 03 2025 16:29:48 GMT-0600 (Central Standard Time),902138.7000000179,A,p,O,p,297,1,318.2000000178814,901820.5,7250,WL,B,6.0
7,7.832000017166138,immed,52167.99998283386,Wed Dec 03 2025 16:29:48 GMT-0600 (Central Standard Time),902237.900000006,A,pi,O,i,89,1,417.40000000596046,901820.5,7250,WL,B,6.0
7,7.96399998664856,immed,52036.00001335144,Wed Dec 03 2025 16:29:48 GMT-0600 (Central Standard Time),902370.7000000179,A,pip,O,p,119,1,550.2000000178814,901820.5,7250,WL,B,6.0
7,8.230999946594238,immed,51769.00005340576,Wed Dec 03 2025 16:29:48 GMT-0600 (Central Standard Time),902637.6000000238,A,pipe,O,e,258,1,817.1000000238419,901820.5,7250,WL,B,6.0
7,8.46399998664856,immed,51536.00001335144,Wed Dec 03 2025 16:29:48 GMT-0600 (Central Standard Time),902870.400000006,A,pipeenter,O,enter,221,1,1049.9000000059605,901820.5,7250,WL,B,6.0
7,8.71399998664856,immed,51286.00001335144,Wed Dec 03 2025 16:29:48 GMT-0600 (Central Standard Time),903120.7000000179,A,c,O,c,237,1,250.09999999403954,902870.6000000238,7250,WL,B,7.0
7,8.846999883651733,immed,51153.00011634827,Wed Dec 03 2025 16:29:48 GMT-0600 (Central Standard Time),903253.400000006,A,ca,O,a,124,1,382.7999999821186,902870.6000000238,7250,WL,B,7.0
7,9.114000082015991,immed,50885.99991798401,Wed Dec 03 2025 16:29:48 GMT-0600 (Central Standard Time),903519.900000006,A,cag,O,g,246,1,649.2999999821186,902870.6000000238,7250,WL,B,7.0
7,9.36299991607666,immed,50637.00008392334,Wed Dec 03 2025 16:29:48 GMT-0600 (Central Standard Time),903769.7000000179,A,cagi,O,i,245,1,899.0999999940395,902870.6000000238,7250,WL,B,7.0
7,9.71399998664856,immed,50286.00001335144,Wed Dec 03 2025 16:29:48 GMT-0600 (Central Standard Time),904120.7000000179,A,cag,O,backspace,346,1,1250.0999999940395,902870.6000000238,7250,WL,B,7.0
7,9.864000082015991,immed,50135.99991798401,Wed Dec 03 2025 16:29:48 GMT-0600 (Central Standard Time),904270.2000000179,A,ca,O,backspace,131,1,1399.5999999940395,902870.6000000238,7250,WL,B,7.0
7,10.098000049591064,immed,49901.999950408936,Wed Dec 03 2025 16:29:48 GMT-0600 (Central Standard Time),904503.8000000119,A,cav,O,v,212,1,1633.199999988079,902870.6000000238,7250,WL,B,7.0
7,10.614000082015991,immed,49385.99991798401,Wed Dec 03 2025 16:29:48 GMT-0600 (Central Standard Time),905020.5,A,ca,O,backspace,500,1,2149.899999976158,902870.6000000238,7250,WL,B,7.0
7,10.779000043869019,immed,49220.99995613098,Wed Dec 03 2025 16:29:48 GMT-0600 (Central Standard Time),905185.6000000238,A,cav,O,v,160,1,2315.0,902870.6000000238,7250,WL,B,7.0
7,11.36299991607666,immed,48637.00008392334,Wed Dec 03 2025 16:29:48 GMT-0600 (Central Standard Time),905769.2000000179,A,ca,O,backspace,565,1,2898.5999999940395,902870.6000000238,7250,WL,B,7.0
7,11.630000114440918,immed,48369.99988555908,Wed Dec 03 2025 16:29:48 GMT-0600 (Central Standard Time),906036.1000000238,A,cab,O,b,254,1,3165.5,902870.6000000238,7250,WL,B,7.0
7,11.763999938964844,immed,48236.000061035156,Wed Dec 03 2025 16:29:48 GMT-0600 (Central Standard Time),906170.6000000238,A,cabi,O,i,115,1,3300.0,902870.6000000238,7250,WL,B,7.0
7,11.845999956130981,immed,48154.00004386902,Wed Dec 03 2025 16:29:48 GMT-0600 (Central Standard Time),906252.0,A,cabin,O,n,71,1,3381.399999976158,902870.6000000238,7250,WL,B,7.0
7,12.213000059127808,immed,47786.99994087219,Wed Dec 03 2025 16:29:48 GMT-0600 (Central Standard Time),906619.0,A,cabinenter,O,enter,360,1,3748.399999976158,902870.6000000238,7250,WL,B,7.0
7,12.496999979019165,immed,47503.000020980835,Wed Dec 03 2025 16:29:48 GMT-0600 (Central Standard Time),906902.900000006,A,l,O,l,264,1,283.69999998807907,906619.2000000179,7250,WL,B,8.0
7,12.595999956130981,immed,47404.00004386902,Wed Dec 03 2025 16:29:48 GMT-0600 (Central Standard Time),907001.8000000119,A,la,O,a,93,1,382.59999999403954,906619.2000000179,7250,WL,B,8.0
7,12.746000051498413,immed,47253.99994850159,Wed Dec 03 2025 16:29:48 GMT-0600 (Central Standard Time),907152.6000000238,A,lak,O,k,137,1,533.4000000059605,906619.2000000179,7250,WL,B,8.0
7,12.880000114440918,immed,47119.99988555908,Wed Dec 03 2025 16:29:48 GMT-0600 (Central Standard Time),907286.2000000179,A,lake,O,e,114,1,667.0,906619.2000000179,7250,WL,B,8.0
7,13.145999908447266,immed,46854.000091552734,Wed Dec 03 2025 16:29:48 GMT-0600 (Central Standard Time),907552.0,A,lakeenter,O,enter,254,1,932.7999999821186,906619.2000000179,7250,WL,B,8.0
7,16.161999940872192,immed,43838.00005912781,Wed Dec 03 2025 16:29:48 GMT-0600 (Central Standard Time),910568.0,A,s,O,s,3005,1,3015.699999988079,907552.3000000119,7250,WL,B,9.0
7,16.27999997138977,immed,43720.00002861023,Wed Dec 03 2025 16:29:48 GMT-0600 (Central Standard Time),910686.1000000238,A,st,O,t,105,1,3133.800000011921,907552.3000000119,7250,WL,B,9.0
7,16.378000020980835,immed,43621.999979019165,Wed Dec 03 2025 16:29:48 GMT-0600 (Central Standard Time),910784.400000006,A,sta,O,a,84,1,3232.0999999940395,907552.3000000119,7250,WL,B,9.0
7,16.51200008392334,immed,43487.99991607666,Wed Dec 03 2025 16:29:48 GMT-0600 (Central Standard Time),910917.900000006,A,star,O,r,112,1,3365.5999999940395,907552.3000000119,7250,WL,B,9.0
7,16.92799997329712,immed,43072.00002670288,Wed Dec 03 2025 16:29:48 GMT-0600 (Central Standard Time),911334.5,A,starenter,O,enter,404,1,3782.199999988079,907552.3000000119,7250,WL,B,9.0
7,25.64199995994568,immed,34358.00004005432,Wed Dec 03 2025 16:29:48 GMT-0600 (Central Standard Time),920047.8000000119,A,d,O,d,8693,1,8713.199999988079,911334.6000000238,7250,WL,B,10.0
7,25.823999881744385,immed,34176.000118255615,Wed Dec 03 2025 16:29:48 GMT-0600 (Central Standard Time),920230.400000006,A,do,O,o,161,1,8895.799999982119,911334.6000000238,7250,WL,B,10.0
7,25.94099998474121,immed,34059.00001525879,Wed Dec 03 2025 16:29:48 GMT-0600 (Central Standard Time),920347.400000006,A,doo,O,o,100,1,9012.799999982119,911334.6000000238,7250,WL,B,10.0
7,26.10800004005432,immed,33891.99995994568,Wed Dec 03 2025 16:29:48 GMT-0600 (Central Standard Time),920514.0,A,door,O,r,158,1,9179.399999976158,911334.6000000238,7250,WL,B,10.0
7,26.29099988937378,immed,33709.00011062622,Wed Dec 03 2025 16:29:48 GMT-0600 (Central Standard Time),920697.6000000238,A,doorenter,O,enter,177,1,9363.0,911334.6000000238,7250,WL,B,10.0
7,26.54200005531311,immed,33457.99994468689,Wed Dec 03 2025 16:29:48 GMT-0600 (Central Standard Time),920947.900000006,A,w,O,w,234,1,250.09999999403954,920697.8000000119,7250,WL,B,11.0
7,26.641000032424927,immed,33358.99996757507,Wed Dec 03 2025 16:29:48 GMT-0600 (Central Standard Time),921046.8000000119,A,wi,O,i,77,1,349.0,920697.8000000119,7250,WL,B,11.0
7,26.707000017166138,immed,33292.99998283386,Wed Dec 03 2025 16:29:48 GMT-0600 (Central Standard Time),921113.400000006,A,win,O,n,52,1,415.59999999403954,920697.8000000119,7250,WL,B,11.0
7,27.20799994468689,immed,32792.00005531311,Wed Dec 03 2025 16:29:48 GMT-0600 (Central Standard Time),921613.900000006,A,wind,O,d,490,1,916.0999999940395,920697.8000000119,7250,WL,B,11.0
7,27.29099988937378,immed,32709.00011062622,Wed Dec 03 2025 16:29:48 GMT-0600 (Central Standard Time),921697.3000000119,A,windo,O,o,76,1,999.5,920697.8000000119,7250,WL,B,11.0
7,27.575000047683716,immed,32424.999952316284,Wed Dec 03 2025 16:29:48 GMT-0600 (Central Standard Time),921980.8000000119,A,window,O,w,273,1,1283.0,920697.8000000119,7250,WL,B,11.0
7,27.907000064849854,immed,32092.999935150146,Wed Dec 03 2025 16:29:48 GMT-0600 (Central Standard Time),922313.3000000119,A,windowenter,O,enter,315,1,1615.5,920697.8000000119,7250,WL,B,11.0
7,39.25399994850159,immed,20746.000051498413,Wed Dec 03 2025 16:29:48 GMT-0600 (Central Standard Time),933660.400000006,A,s,O,s,11338,1,11346.90000000596,922313.5,7250,WL,B,12.0
7,39.355000019073486,immed,20644.999980926514,Wed Dec 03 2025 16:29:48 GMT-0600 (Central Standard Time),933761.1000000238,A,sk,O,k,93,1,11447.600000023842,922313.5,7250,WL,B,12.0
7,39.57200002670288,immed,20427.99997329712,Wed Dec 03 2025 16:29:48 GMT-0600 (Central Standard Time),933978.400000006,A,ski,O,i,201,1,11664.90000000596,922313.5,7250,WL,B,12.0
7,39.65300011634827,immed,20346.999883651733,Wed Dec 03 2025 16:29:48 GMT-0600 (Central Standard Time),934059.6000000238,A,skin,O,n,64,1,11746.100000023842,922313.5,7250,WL,B,12.0
7,39.88599991798401,immed,20114.00008201599,Wed Dec 03 2025 16:29:48 GMT-0600 (Central Standard Time),934292.8000000119,A,skinenter,O,enter,214,1,11979.300000011921,922313.5,7250,WL,B,12.0
7,46.967000007629395,immed,13032.999992370605,Wed Dec 03 2025 16:29:48 GMT-0600 (Central Standard Time),941373.400000006,A,c,O,c,7061,1,7080.299999982119,934293.1000000238,7250,WL,B,13.0
7,47.03399991989136,immed,12966.000080108643,Wed Dec 03 2025 16:29:48 GMT-0600 (Central Standard Time),941440.7000000179,A,ci,O,i,62,1,7147.5999999940395,934293.1000000238,7250,WL,B,13.0
7,47.170000076293945,immed,12829.999923706055,Wed Dec 03 2025 16:29:48 GMT-0600 (Central Standard Time),941575.900000006,A,cit,O,t,113,1,7282.799999982119,934293.1000000238,7250,WL,B,13.0
7,47.25200009346008,immed,12747.999906539917,Wed Dec 03 2025 16:29:48 GMT-0600 (Central Standard Time),941657.900000006,A,city,O,y,76,1,7364.799999982119,934293.1000000238,7250,WL,B,13.0
7,47.48699998855591,immed,12513.000011444092,Wed Dec 03 2025 16:29:48 GMT-0600 (Central Standard Time),941893.5,A,cityenter,O,enter,213,1,7600.399999976158,934293.1000000238,7250,WL,B,13.0
7,60.013999938964844,immed,-13.99993896484375,Wed Dec 03 2025 16:29:48 GMT-0600 (Central Standard Time),954420.8000000119,A,None,O,None,12522,1,12527.09999999404,941893.7000000179,7250,WL,B,14.0
