acc_sum,block,block_c,change,condition,correct,correct_response,datetime,endtime,face,project,response,response_time,row_sel,session_number,start_end,starttime,subject_id,task,task_vers,trial
0,prac,1,,1-Back,,,Mon Nov 03 2025 15:38:19 GMT-0600 (Central Standard Time),,093_m_f_n_a.png,I,space,4090,1,1,,,8072,NNB,C,0
1,prac,1,0.0,1-Back,1.0,m,Mon Nov 03 2025 15:38:19 GMT-0600 (Central Standard Time),106535.59999999404,098_y_f_n_a.png,I,m,635,2,1,1459.0,105076.59999999404,8072,NNB,C,1
2,prac,1,1.0,1-Back,1.0,z,Mon Nov 03 2025 15:38:19 GMT-0600 (Central Standard Time),108233.59999999404,098_y_f_n_a.png,I,z,914,3,1,1689.0999999940395,106544.5,8072,NNB,C,2
3,prac,1,0.0,1-Back,1.0,m,Mon Nov 03 2025 15:38:19 GMT-0600 (Central Standard Time),110032.0,059_o_m_n_a.png,I,m,936,4,1,1788.7000000178814,108243.29999998212,8072,NNB,C,3
4,prac,1,0.0,1-Back,1.0,m,Mon Nov 03 2025 15:38:19 GMT-0600 (Central Standard Time),111616.09999999404,092_m_m_n_a.png,I,m,726,5,1,1578.699999988079,110037.40000000596,8072,NNB,C,4
5,prac,1,1.0,1-Back,1.0,z,Mon Nov 03 2025 15:38:19 GMT-0600 (Central Standard Time),112966.19999998808,092_m_m_n_a.png,I,z,563,6,1,1342.2999999821186,111623.90000000596,8072,NNB,C,5
6,prac,1,0.0,1-Back,1.0,m,Mon Nov 03 2025 15:38:19 GMT-0600 (Central Standard Time),114548.90000000596,130_o_f_n_a.png,I,m,721,7,1,1575.2000000178814,112973.69999998808,8072,NNB,C,6
7,prac,1,0.0,1-Back,1.0,m,Mon Nov 03 2025 15:38:19 GMT-0600 (Central Standard Time),116018.5,082_m_m_n_a.png,I,m,627,8,1,1458.7000000178814,114559.79999998212,8072,NNB,C,7
8,prac,1,0.0,1-Back,1.0,m,Mon Nov 03 2025 15:38:19 GMT-0600 (Central Standard Time),117445.29999998212,093_m_f_n_a.png,I,m,649,9,1,1419.5999999940395,116025.69999998808,8072,NNB,C,8
8,prac,1,1.0,1-Back,0.0,z,Mon Nov 03 2025 15:38:19 GMT-0600 (Central Standard Time),119445.90000000596,093_m_f_n_a.png,I,m,1220,10,1,1991.1000000238419,117454.79999998212,8072,NNB,C,9
8,prac,1,0.0,1-Back,0.0,m,Mon Nov 03 2025 15:38:19 GMT-0600 (Central Standard Time),122228.90000000596,059_o_m_n_a.png,I,None,2008,11,1,2774.800000011921,119454.09999999404,8072,NNB,C,10
9,prac,1,0.0,1-Back,1.0,m,Mon Nov 03 2025 15:38:19 GMT-0600 (Central Standard Time),124012.0,028_y_f_n_a.png,I,m,935,12,1,1773.5999999940395,122238.40000000596,8072,NNB,C,11
0,test,1,0.0,1-Back,,,Mon Nov 03 2025 15:38:19 GMT-0600 (Central Standard Time),124012.0,098_y_f_n_a.png,I,space,5964,1,1,1773.5999999940395,122238.40000000596,8072,NNB,C,0
1,test,1,0.0,1-Back,1.0,m,Mon Nov 03 2025 15:38:19 GMT-0600 (Central Standard Time),138657.29999998212,006_m_f_n_a.png,I,m,677,2,1,1693.199999988079,136964.09999999404,8072,NNB,C,1
2,test,1,0.0,1-Back,1.0,m,Mon Nov 03 2025 15:38:19 GMT-0600 (Central Standard Time),140805.79999998212,028_y_f_n_a.png,I,m,1129,3,1,2144.399999976158,138661.40000000596,8072,NNB,C,2
3,test,1,1.0,1-Back,1.0,z,Mon Nov 03 2025 15:38:19 GMT-0600 (Central Standard Time),142489.09999999404,028_y_f_n_a.png,I,z,659,4,1,1679.0999999940395,140810.0,8072,NNB,C,3
4,test,1,0.0,1-Back,1.0,m,Mon Nov 03 2025 15:38:19 GMT-0600 (Central Standard Time),144388.19999998808,006_m_f_n_a.png,I,m,873,5,1,1892.9000000059605,142495.29999998212,8072,NNB,C,4
5,test,1,0.0,1-Back,1.0,m,Mon Nov 03 2025 15:38:19 GMT-0600 (Central Standard Time),146338.69999998808,059_o_m_n_a.png,I,m,928,6,1,1946.4000000059605,144392.29999998212,8072,NNB,C,5
6,test,1,1.0,1-Back,1.0,z,Mon Nov 03 2025 15:38:19 GMT-0600 (Central Standard Time),147938.29999998212,059_o_m_n_a.png,I,z,568,7,1,1592.199999988079,146346.09999999404,8072,NNB,C,6
7,test,1,0.0,1-Back,1.0,m,Mon Nov 03 2025 15:38:19 GMT-0600 (Central Standard Time),149720.09999999404,092_m_m_n_a.png,I,m,753,8,1,1772.199999988079,147947.90000000596,8072,NNB,C,7
8,test,1,0.0,1-Back,1.0,m,Mon Nov 03 2025 15:38:19 GMT-0600 (Central Standard Time),151501.90000000596,130_o_f_n_a.png,I,m,759,9,1,1775.2000000178814,149726.69999998808,8072,NNB,C,8
9,test,1,0.0,1-Back,1.0,m,Mon Nov 03 2025 15:38:19 GMT-0600 (Central Standard Time),153505.79999998212,092_m_m_n_a.png,I,m,971,10,1,1996.699999988079,151509.09999999404,8072,NNB,C,9
10,test,1,0.0,1-Back,1.0,m,Mon Nov 03 2025 15:38:19 GMT-0600 (Central Standard Time),155268.5,057_y_m_n_a.png,I,m,739,11,1,1754.2000000178814,153514.29999998212,8072,NNB,C,10
11,test,1,1.0,1-Back,1.0,z,Mon Nov 03 2025 15:38:19 GMT-0600 (Central Standard Time),156934.69999998808,057_y_m_n_a.png,I,z,638,12,1,1659.5,155275.19999998808,8072,NNB,C,11
12,test,1,0.0,1-Back,1.0,m,Mon Nov 03 2025 15:38:19 GMT-0600 (Central Standard Time),159050.69999998808,030_o_f_n_a.png,I,m,1090,13,1,2107.5999999940395,156943.09999999404,8072,NNB,C,12
13,test,1,1.0,1-Back,1.0,z,Mon Nov 03 2025 15:38:19 GMT-0600 (Central Standard Time),160799.29999998212,030_o_f_n_a.png,I,z,725,14,1,1739.199999988079,159060.09999999404,8072,NNB,C,13
14,test,1,0.0,1-Back,1.0,m,Mon Nov 03 2025 15:38:19 GMT-0600 (Central Standard Time),162832.19999998808,031_y_m_n_a.png,I,m,1009,15,1,2028.7999999821186,160803.40000000596,8072,NNB,C,14
15,test,1,0.0,1-Back,1.0,m,Mon Nov 03 2025 15:38:19 GMT-0600 (Central Standard Time),165499.40000000596,093_m_f_n_a.png,I,m,1641,16,1,2659.600000023842,162839.79999998212,8072,NNB,C,15
16,test,1,0.0,1-Back,1.0,m,Mon Nov 03 2025 15:38:19 GMT-0600 (Central Standard Time),167932.09999999404,146_o_m_n_a.png,I,m,1416,17,1,2423.4000000059605,165508.69999998808,8072,NNB,C,16
17,test,1,0.0,1-Back,1.0,m,Mon Nov 03 2025 15:38:19 GMT-0600 (Central Standard Time),169980.29999998212,093_m_f_n_a.png,I,m,1030,18,1,2042.7999999821186,167937.5,8072,NNB,C,17
0,test,2,0.0,1-Back,,,Mon Nov 03 2025 15:38:19 GMT-0600 (Central Standard Time),169980.29999998212,092_m_m_n_a.png,I,space,2526,1,1,2042.7999999821186,167937.5,8072,NNB,C,0
1,test,2,0.0,1-Back,1.0,m,Mon Nov 03 2025 15:38:19 GMT-0600 (Central Standard Time),176294.79999998212,006_m_f_n_a.png,I,m,739,2,1,1763.199999988079,174531.59999999404,8072,NNB,C,1
2,test,2,1.0,1-Back,1.0,z,Mon Nov 03 2025 15:38:19 GMT-0600 (Central Standard Time),177960.59999999404,006_m_f_n_a.png,I,z,635,3,1,1658.4000000059605,176302.19999998808,8072,NNB,C,2
3,test,2,0.0,1-Back,1.0,m,Mon Nov 03 2025 15:38:19 GMT-0600 (Central Standard Time),180027.59999999404,092_m_m_n_a.png,I,m,1047,4,1,2064.0999999940395,177963.5,8072,NNB,C,3
4,test,2,0.0,1-Back,1.0,m,Mon Nov 03 2025 15:38:19 GMT-0600 (Central Standard Time),181892.90000000596,057_y_m_n_a.png,I,m,838,5,1,1860.5,180032.40000000596,8072,NNB,C,4
5,test,2,0.0,1-Back,1.0,m,Mon Nov 03 2025 15:38:19 GMT-0600 (Central Standard Time),183658.19999998808,098_y_f_n_a.png,I,m,733,6,1,1762.5999999940395,181895.59999999404,8072,NNB,C,5
6,test,2,1.0,1-Back,1.0,z,Mon Nov 03 2025 15:38:19 GMT-0600 (Central Standard Time),185291.69999998808,098_y_f_n_a.png,I,z,607,7,1,1630.7999999821186,183660.90000000596,8072,NNB,C,6
7,test,2,0.0,1-Back,1.0,m,Mon Nov 03 2025 15:38:19 GMT-0600 (Central Standard Time),187276.69999998808,057_y_m_n_a.png,I,m,966,8,1,1982.199999988079,185294.5,8072,NNB,C,7
8,test,2,0.0,1-Back,1.0,m,Mon Nov 03 2025 15:38:19 GMT-0600 (Central Standard Time),189557.90000000596,030_o_f_n_a.png,I,m,1251,9,1,2278.2000000178814,187279.69999998808,8072,NNB,C,8
9,test,2,0.0,1-Back,1.0,m,Mon Nov 03 2025 15:38:19 GMT-0600 (Central Standard Time),191922.90000000596,082_m_m_n_a.png,I,m,1333,10,1,2356.800000011921,189566.09999999404,8072,NNB,C,9
10,test,2,1.0,1-Back,1.0,z,Mon Nov 03 2025 15:38:19 GMT-0600 (Central Standard Time),193604.79999998212,082_m_m_n_a.png,I,z,662,11,1,1678.5,191926.29999998212,8072,NNB,C,10
11,test,2,0.0,1-Back,1.0,m,Mon Nov 03 2025 15:38:19 GMT-0600 (Central Standard Time),195739.5,030_o_f_n_a.png,I,m,1115,12,1,2132.0999999940395,193607.40000000596,8072,NNB,C,11
12,test,2,0.0,1-Back,1.0,m,Mon Nov 03 2025 15:38:19 GMT-0600 (Central Standard Time),197889.29999998212,130_o_f_n_a.png,I,m,1119,13,1,2144.2999999821186,195745.0,8072,NNB,C,12
13,test,2,0.0,1-Back,1.0,m,Mon Nov 03 2025 15:38:19 GMT-0600 (Central Standard Time),199986.19999998808,059_o_m_n_a.png,I,m,1083,14,1,2094.4000000059605,197891.79999998212,8072,NNB,C,13
14,test,2,0.0,1-Back,1.0,m,Mon Nov 03 2025 15:38:19 GMT-0600 (Central Standard Time),202053.40000000596,146_o_m_n_a.png,I,m,1037,15,1,2064.0,199989.40000000596,8072,NNB,C,14
15,test,2,1.0,1-Back,1.0,z,Mon Nov 03 2025 15:38:19 GMT-0600 (Central Standard Time),203952.90000000596,146_o_m_n_a.png,I,z,869,16,1,1893.800000011921,202059.09999999404,8072,NNB,C,15
16,test,2,0.0,1-Back,1.0,m,Mon Nov 03 2025 15:38:19 GMT-0600 (Central Standard Time),205869.29999998212,031_y_m_n_a.png,I,m,889,17,1,1909.699999988079,203959.59999999404,8072,NNB,C,16
17,test,2,1.0,1-Back,1.0,z,Mon Nov 03 2025 15:38:19 GMT-0600 (Central Standard Time),207567.90000000596,031_y_m_n_a.png,I,z,676,18,1,1691.5,205876.40000000596,8072,NNB,C,17
0,test,3,1.0,1-Back,,,Mon Nov 03 2025 15:38:19 GMT-0600 (Central Standard Time),207567.90000000596,028_y_f_n_a.png,I,space,1401,1,1,1691.5,205876.40000000596,8072,NNB,C,0
1,test,3,0.0,1-Back,1.0,m,Mon Nov 03 2025 15:38:19 GMT-0600 (Central Standard Time),212717.29999998212,146_o_m_n_a.png,I,m,622,1,1,1641.699999988079,211075.59999999404,8072,NNB,C,1
2,test,3,1.0,1-Back,1.0,z,Mon Nov 03 2025 15:38:19 GMT-0600 (Central Standard Time),214616.0,146_o_m_n_a.png,I,z,868,1,1,1893.2000000178814,212722.79999998212,8072,NNB,C,2
3,test,3,0.0,1-Back,1.0,m,Mon Nov 03 2025 15:38:19 GMT-0600 (Central Standard Time),216466.69999998808,093_m_f_n_a.png,I,m,826,1,1,1843.199999988079,214623.5,8072,NNB,C,3
4,test,3,1.0,1-Back,1.0,z,Mon Nov 03 2025 15:38:19 GMT-0600 (Central Standard Time),218215.59999999404,093_m_f_n_a.png,I,z,727,1,1,1740.699999988079,216474.90000000596,8072,NNB,C,4
5,test,3,0.0,1-Back,1.0,m,Mon Nov 03 2025 15:38:19 GMT-0600 (Central Standard Time),220397.69999998808,030_o_f_n_a.png,I,m,1161,1,1,2174.9000000059605,218222.79999998212,8072,NNB,C,5
6,test,3,0.0,1-Back,1.0,m,Mon Nov 03 2025 15:38:19 GMT-0600 (Central Standard Time),222380.59999999404,057_y_m_n_a.png,I,m,966,1,1,1975.800000011921,220404.79999998212,8072,NNB,C,6
7,test,3,0.0,1-Back,1.0,m,Mon Nov 03 2025 15:38:19 GMT-0600 (Central Standard Time),224529.69999998808,030_o_f_n_a.png,I,m,1126,1,1,2143.9000000059605,222385.79999998212,8072,NNB,C,7
7,test,3,0.0,1-Back,0.0,m,Mon Nov 03 2025 15:38:19 GMT-0600 (Central Standard Time),226628.0,031_y_m_n_a.png,I,z,1070,1,1,2091.800000011921,224536.19999998808,8072,NNB,C,8
8,test,3,1.0,1-Back,1.0,z,Mon Nov 03 2025 15:38:19 GMT-0600 (Central Standard Time),228461.90000000596,031_y_m_n_a.png,I,z,805,1,1,1828.7000000178814,226633.19999998808,8072,NNB,C,9
9,test,3,0.0,1-Back,1.0,m,Mon Nov 03 2025 15:38:19 GMT-0600 (Central Standard Time),230677.90000000596,006_m_f_n_a.png,I,m,1189,1,1,2208.800000011921,228469.09999999404,8072,NNB,C,10
10,test,3,0.0,1-Back,1.0,m,Mon Nov 03 2025 15:38:19 GMT-0600 (Central Standard Time),232711.29999998212,098_y_f_n_a.png,I,m,1012,1,1,2024.8999999761581,230686.40000000596,8072,NNB,C,11
10,test,3,1.0,1-Back,0.0,z,Mon Nov 03 2025 15:38:19 GMT-0600 (Central Standard Time),235443.09999999404,098_y_f_n_a.png,I,m,1717,1,1,2724.4000000059605,232718.69999998808,8072,NNB,C,12
11,test,3,0.0,1-Back,1.0,m,Mon Nov 03 2025 15:38:19 GMT-0600 (Central Standard Time),238010.0,006_m_f_n_a.png,I,m,1542,1,1,2559.800000011921,235450.19999998808,8072,NNB,C,13
12,test,3,0.0,1-Back,1.0,m,Mon Nov 03 2025 15:38:19 GMT-0600 (Central Standard Time),239974.69999998808,092_m_m_n_a.png,I,m,944,1,1,1957.0,238017.69999998808,8072,NNB,C,14
13,test,3,1.0,1-Back,1.0,z,Mon Nov 03 2025 15:38:19 GMT-0600 (Central Standard Time),241773.90000000596,092_m_m_n_a.png,I,z,771,1,1,1789.7000000178814,239984.19999998808,8072,NNB,C,15
14,test,3,0.0,1-Back,1.0,m,Mon Nov 03 2025 15:38:19 GMT-0600 (Central Standard Time),243989.19999998808,130_o_f_n_a.png,I,m,1195,1,1,2208.0,241781.19999998808,8072,NNB,C,16
15,test,3,1.0,1-Back,1.0,z,Mon Nov 03 2025 15:38:19 GMT-0600 (Central Standard Time),245725.19999998808,130_o_f_n_a.png,I,z,703,1,1,1730.0,243995.19999998808,8072,NNB,C,17
0,test,4,1.0,1-Back,,,Mon Nov 03 2025 15:38:19 GMT-0600 (Central Standard Time),245725.19999998808,093_m_f_n_a.png,I,space,1324,1,1,1730.0,243995.19999998808,8072,NNB,C,0
1,test,4,0.0,1-Back,1.0,m,Mon Nov 03 2025 15:38:19 GMT-0600 (Central Standard Time),251005.29999998212,146_o_m_n_a.png,I,m,837,2,1,1859.0999999940395,249146.19999998808,8072,NNB,C,1
2,test,4,0.0,1-Back,1.0,m,Mon Nov 03 2025 15:38:19 GMT-0600 (Central Standard Time),253104.19999998808,093_m_f_n_a.png,I,m,1073,3,1,2091.2999999821186,251012.90000000596,8072,NNB,C,2
3,test,4,0.0,1-Back,1.0,m,Mon Nov 03 2025 15:38:19 GMT-0600 (Central Standard Time),255355.09999999404,030_o_f_n_a.png,I,m,1219,4,1,2242.5,253112.59999999404,8072,NNB,C,3
4,test,4,1.0,1-Back,1.0,z,Mon Nov 03 2025 15:38:19 GMT-0600 (Central Standard Time),257103.0,030_o_f_n_a.png,I,z,728,5,1,1739.800000011921,255363.19999998808,8072,NNB,C,4
5,test,4,0.0,1-Back,1.0,m,Mon Nov 03 2025 15:38:19 GMT-0600 (Central Standard Time),259118.90000000596,098_y_f_n_a.png,I,m,986,6,1,2007.800000011921,257111.09999999404,8072,NNB,C,5
6,test,4,0.0,1-Back,1.0,m,Mon Nov 03 2025 15:38:19 GMT-0600 (Central Standard Time),261237.5,057_y_m_n_a.png,I,m,1084,7,1,2110.0,259127.5,8072,NNB,C,6
7,test,4,1.0,1-Back,1.0,z,Mon Nov 03 2025 15:38:19 GMT-0600 (Central Standard Time),263084.2999999821,057_y_m_n_a.png,I,z,822,8,1,1837.5,261246.79999998212,8072,NNB,C,7
8,test,4,0.0,1-Back,1.0,m,Mon Nov 03 2025 15:38:19 GMT-0600 (Central Standard Time),265385.2999999821,098_y_f_n_a.png,I,m,1268,9,1,2294.5999999940395,263090.6999999881,8072,NNB,C,8
9,test,4,0.0,1-Back,1.0,m,Mon Nov 03 2025 15:38:19 GMT-0600 (Central Standard Time),267585.2999999821,082_m_m_n_a.png,I,m,1179,10,1,2193.2999999821186,265392.0,8072,NNB,C,9
10,test,4,1.0,1-Back,1.0,z,Mon Nov 03 2025 15:38:19 GMT-0600 (Central Standard Time),269414.90000000596,082_m_m_n_a.png,I,z,801,11,1,1827.300000011921,267587.59999999404,8072,NNB,C,10
11,test,4,0.0,1-Back,1.0,m,Mon Nov 03 2025 15:38:19 GMT-0600 (Central Standard Time),271382.40000000596,130_o_f_n_a.png,I,m,947,12,1,1961.7000000178814,269420.6999999881,8072,NNB,C,11
12,test,4,0.0,1-Back,1.0,m,Mon Nov 03 2025 15:38:19 GMT-0600 (Central Standard Time),273481.2999999821,059_o_m_n_a.png,I,m,1066,13,1,2095.699999988079,271385.59999999404,8072,NNB,C,12
13,test,4,0.0,1-Back,1.0,m,Mon Nov 03 2025 15:38:19 GMT-0600 (Central Standard Time),275813.7999999821,130_o_f_n_a.png,I,m,1300,14,1,2324.0,273489.7999999821,8072,NNB,C,13
14,test,4,0.0,1-Back,1.0,m,Mon Nov 03 2025 15:38:19 GMT-0600 (Central Standard Time),277895.59999999404,028_y_f_n_a.png,I,m,1060,15,1,2074.5999999940395,275821.0,8072,NNB,C,14
15,test,4,1.0,1-Back,1.0,z,Mon Nov 03 2025 15:38:19 GMT-0600 (Central Standard Time),279613.6999999881,028_y_f_n_a.png,I,z,698,16,1,1712.5,277901.1999999881,8072,NNB,C,15
16,test,4,0.0,1-Back,1.0,m,Mon Nov 03 2025 15:38:19 GMT-0600 (Central Standard Time),281644.90000000596,006_m_f_n_a.png,I,m,1005,17,1,2023.4000000059605,279621.5,8072,NNB,C,16
17,test,4,1.0,1-Back,1.0,z,Mon Nov 03 2025 15:38:19 GMT-0600 (Central Standard Time),283294.6999999881,006_m_f_n_a.png,I,z,622,18,1,1644.2999999821186,281650.40000000596,8072,NNB,C,17
0,test,5,1.0,1-Back,,,Mon Nov 03 2025 15:38:19 GMT-0600 (Central Standard Time),283294.6999999881,059_o_m_n_a.png,I,space,1355,1,1,1644.2999999821186,281650.40000000596,8072,NNB,C,0
1,test,5,1.0,1-Back,1.0,z,Mon Nov 03 2025 15:38:19 GMT-0600 (Central Standard Time),288309.2999999821,059_o_m_n_a.png,I,z,606,2,1,1625.199999988079,286684.09999999404,8072,NNB,C,1
2,test,5,0.0,1-Back,1.0,m,Mon Nov 03 2025 15:38:19 GMT-0600 (Central Standard Time),290442.6999999881,098_y_f_n_a.png,I,m,1108,3,1,2126.0,288316.6999999881,8072,NNB,C,2
3,test,5,0.0,1-Back,1.0,m,Mon Nov 03 2025 15:38:19 GMT-0600 (Central Standard Time),292441.0,057_y_m_n_a.png,I,m,976,4,1,1992.0999999940395,290448.90000000596,8072,NNB,C,3
4,test,5,0.0,1-Back,1.0,m,Mon Nov 03 2025 15:38:19 GMT-0600 (Central Standard Time),294491.40000000596,098_y_f_n_a.png,I,m,1024,5,1,2041.7000000178814,292449.6999999881,8072,NNB,C,4
5,test,5,0.0,1-Back,1.0,m,Mon Nov 03 2025 15:38:19 GMT-0600 (Central Standard Time),296556.90000000596,092_m_m_n_a.png,I,m,1038,6,1,2059.4000000059605,294497.5,8072,NNB,C,5
6,test,5,1.0,1-Back,1.0,z,Mon Nov 03 2025 15:38:19 GMT-0600 (Central Standard Time),298388.6999999881,092_m_m_n_a.png,I,z,800,7,1,1824.9000000059605,296563.7999999821,8072,NNB,C,6
7,test,5,0.0,1-Back,1.0,m,Mon Nov 03 2025 15:38:19 GMT-0600 (Central Standard Time),300255.40000000596,028_y_f_n_a.png,I,m,835,8,1,1860.5,298394.90000000596,8072,NNB,C,7
8,test,5,0.0,1-Back,1.0,m,Mon Nov 03 2025 15:38:19 GMT-0600 (Central Standard Time),302204.90000000596,031_y_m_n_a.png,I,m,921,9,1,1947.0,300257.90000000596,8072,NNB,C,8
9,test,5,0.0,1-Back,1.0,m,Mon Nov 03 2025 15:38:19 GMT-0600 (Central Standard Time),304286.40000000596,028_y_f_n_a.png,I,m,1052,10,1,2074.5,302211.90000000596,8072,NNB,C,9
10,test,5,0.0,1-Back,1.0,m,Mon Nov 03 2025 15:38:19 GMT-0600 (Central Standard Time),306270.5,130_o_f_n_a.png,I,m,953,11,1,1978.0,304292.5,8072,NNB,C,10
11,test,5,1.0,1-Back,1.0,z,Mon Nov 03 2025 15:38:19 GMT-0600 (Central Standard Time),308003.59999999404,130_o_f_n_a.png,I,z,708,12,1,1726.5999999940395,306277.0,8072,NNB,C,11
12,test,5,0.0,1-Back,1.0,m,Mon Nov 03 2025 15:38:19 GMT-0600 (Central Standard Time),309935.09999999404,146_o_m_n_a.png,I,m,899,13,1,1925.9000000059605,308009.1999999881,8072,NNB,C,12
13,test,5,0.0,1-Back,1.0,m,Mon Nov 03 2025 15:38:19 GMT-0600 (Central Standard Time),311885.1999999881,093_m_f_n_a.png,I,m,922,14,1,1943.4000000059605,309941.7999999821,8072,NNB,C,13
14,test,5,1.0,1-Back,1.0,z,Mon Nov 03 2025 15:38:19 GMT-0600 (Central Standard Time),313635.0,093_m_f_n_a.png,I,z,733,15,1,1742.800000011921,311892.1999999881,8072,NNB,C,14
15,test,5,0.0,1-Back,1.0,m,Mon Nov 03 2025 15:38:19 GMT-0600 (Central Standard Time),315436.40000000596,146_o_m_n_a.png,I,m,776,16,1,1797.5,313638.90000000596,8072,NNB,C,15
16,test,5,0.0,1-Back,1.0,m,Mon Nov 03 2025 15:38:19 GMT-0600 (Central Standard Time),317283.5,006_m_f_n_a.png,I,m,822,17,1,1842.300000011921,315441.1999999881,8072,NNB,C,16
17,test,5,0.0,1-Back,1.0,m,Mon Nov 03 2025 15:38:19 GMT-0600 (Central Standard Time),319249.1999999881,082_m_m_n_a.png,I,m,940,18,1,1959.2999999821186,317289.90000000596,8072,NNB,C,17
0,prac,1,0.0,2-Back,,,Mon Nov 03 2025 15:38:19 GMT-0600 (Central Standard Time),319249.1999999881,031_y_m_n_a.png,I,space,4375,1,1,1959.2999999821186,317289.90000000596,8072,NNB,C,0
0,prac,1,0.0,2-Back,,,Mon Nov 03 2025 15:38:19 GMT-0600 (Central Standard Time),319249.1999999881,006_m_f_n_a.png,I,space,4375,2,1,1959.2999999821186,317289.90000000596,8072,NNB,C,0
0,prac,1,1.0,2-Back,0.0,m,Mon Nov 03 2025 15:38:19 GMT-0600 (Central Standard Time),402123.0,146_o_m_n_a.png,I,None,2011,3,1,2854.0,399269.0,8072,NNB,C,1
0,prac,1,0.0,2-Back,0.0,m,Mon Nov 03 2025 15:38:19 GMT-0600 (Central Standard Time),405005.40000000596,130_o_f_n_a.png,I,None,2013,4,1,2874.300000011921,402131.09999999404,8072,NNB,C,2
1,prac,1,0.0,2-Back,1.0,z,Mon Nov 03 2025 15:38:19 GMT-0600 (Central Standard Time),406557.59999999404,146_o_m_n_a.png,I,z,779,5,1,1542.199999988079,405015.40000000596,8072,NNB,C,3
1,prac,1,1.0,2-Back,0.0,z,Mon Nov 03 2025 15:38:19 GMT-0600 (Central Standard Time),409337.6999999881,130_o_f_n_a.png,I,None,2007,6,1,2770.699999988079,406567.0,8072,NNB,C,4
1,prac,1,0.0,2-Back,0.0,m,Mon Nov 03 2025 15:38:19 GMT-0600 (Central Standard Time),411170.5,082_m_m_n_a.png,I,z,987,7,1,1824.4000000059605,409346.09999999404,8072,NNB,C,5
2,prac,1,0.0,2-Back,1.0,m,Mon Nov 03 2025 15:38:19 GMT-0600 (Central Standard Time),413022.09999999404,059_o_m_n_a.png,I,m,1003,8,1,1842.9000000059605,411179.1999999881,8072,NNB,C,6
2,prac,1,0.0,2-Back,0.0,m,Mon Nov 03 2025 15:38:19 GMT-0600 (Central Standard Time),414771.1999999881,028_y_f_n_a.png,I,z,889,9,1,1742.199999988079,413029.0,8072,NNB,C,7
2,prac,1,1.0,2-Back,0.0,z,Mon Nov 03 2025 15:38:19 GMT-0600 (Central Standard Time),417535.7999999821,059_o_m_n_a.png,I,None,2005,10,1,2756.2999999821186,414779.5,8072,NNB,C,8
3,prac,1,0.0,2-Back,1.0,m,Mon Nov 03 2025 15:38:19 GMT-0600 (Central Standard Time),419168.59999999404,098_y_f_n_a.png,I,m,791,11,1,1624.4000000059605,417544.1999999881,8072,NNB,C,9
4,prac,1,0.0,2-Back,1.0,m,Mon Nov 03 2025 15:38:19 GMT-0600 (Central Standard Time),421884.09999999404,082_m_m_n_a.png,I,m,1952,12,1,2706.5999999940395,419177.5,8072,NNB,C,10
0,prac,2,0.0,2-Back,,,Mon Nov 03 2025 15:38:19 GMT-0600 (Central Standard Time),421884.09999999404,031_y_m_n_a.png,I,a,3995,1,1,2706.5999999940395,419177.5,8072,NNB,C,0
0,prac,2,0.0,2-Back,,,Mon Nov 03 2025 15:38:19 GMT-0600 (Central Standard Time),421884.09999999404,006_m_f_n_a.png,I,a,3995,2,1,2706.5999999940395,419177.5,8072,NNB,C,0
1,prac,2,1.0,2-Back,1.0,m,Mon Nov 03 2025 15:38:19 GMT-0600 (Central Standard Time),432480.5,146_o_m_n_a.png,I,m,540,3,1,1391.5,431089.0,8072,NNB,C,1
2,prac,2,0.0,2-Back,1.0,m,Mon Nov 03 2025 15:38:19 GMT-0600 (Central Standard Time),434113.0,130_o_f_n_a.png,I,m,772,4,1,1623.0,432490.0,8072,NNB,C,2
3,prac,2,0.0,2-Back,1.0,z,Mon Nov 03 2025 15:38:19 GMT-0600 (Central Standard Time),435497.59999999404,146_o_m_n_a.png,I,z,593,5,1,1374.5999999940395,434123.0,8072,NNB,C,3
4,prac,2,1.0,2-Back,1.0,z,Mon Nov 03 2025 15:38:19 GMT-0600 (Central Standard Time),437278.7999999821,130_o_f_n_a.png,I,z,991,6,1,1772.2999999821186,435506.5,8072,NNB,C,4
5,prac,2,0.0,2-Back,1.0,m,Mon Nov 03 2025 15:38:19 GMT-0600 (Central Standard Time),438911.2999999821,082_m_m_n_a.png,I,m,849,7,1,1622.7999999821186,437288.5,8072,NNB,C,5
6,prac,2,0.0,2-Back,1.0,m,Mon Nov 03 2025 15:38:19 GMT-0600 (Central Standard Time),440695.59999999404,059_o_m_n_a.png,I,m,921,8,1,1775.5999999940395,438920.0,8072,NNB,C,6
7,prac,2,0.0,2-Back,1.0,m,Mon Nov 03 2025 15:38:19 GMT-0600 (Central Standard Time),442577.40000000596,028_y_f_n_a.png,I,m,1027,9,1,1874.0,440703.40000000596,8072,NNB,C,7
8,prac,2,1.0,2-Back,1.0,z,Mon Nov 03 2025 15:38:19 GMT-0600 (Central Standard Time),445227.09999999404,059_o_m_n_a.png,I,z,1879,10,1,2640.699999988079,442586.40000000596,8072,NNB,C,8
9,prac,2,0.0,2-Back,1.0,m,Mon Nov 03 2025 15:38:19 GMT-0600 (Central Standard Time),447126.1999999881,098_y_f_n_a.png,I,m,1043,11,1,1889.699999988079,445236.5,8072,NNB,C,9
9,prac,2,0.0,2-Back,0.0,m,Mon Nov 03 2025 15:38:19 GMT-0600 (Central Standard Time),448659.1999999881,082_m_m_n_a.png,I,z,756,12,1,1524.199999988079,447135.0,8072,NNB,C,10
0,test,1,0.0,2-Back,,,Mon Nov 03 2025 15:38:19 GMT-0600 (Central Standard Time),448659.1999999881,057_y_m_n_a.png,I,space,6660,1,1,1524.199999988079,447135.0,8072,NNB,C,0
0,test,1,0.0,2-Back,,,Mon Nov 03 2025 15:38:19 GMT-0600 (Central Standard Time),448659.1999999881,057_y_m_n_a.png,I,space,6660,2,1,1524.199999988079,447135.0,8072,NNB,C,0
1,test,1,0.0,2-Back,1.0,m,Mon Nov 03 2025 15:38:19 GMT-0600 (Central Standard Time),470201.59999999404,130_o_f_n_a.png,I,m,409,3,1,1423.4000000059605,468778.1999999881,8072,NNB,C,1
2,test,1,0.0,2-Back,1.0,m,Mon Nov 03 2025 15:38:19 GMT-0600 (Central Standard Time),472317.09999999404,092_m_m_n_a.png,I,m,1088,4,1,2108.800000011921,470208.2999999821,8072,NNB,C,2
3,test,1,1.0,2-Back,1.0,z,Mon Nov 03 2025 15:38:19 GMT-0600 (Central Standard Time),474016.7999999821,130_o_f_n_a.png,I,z,668,5,1,1693.0999999940395,472323.6999999881,8072,NNB,C,3
4,test,1,0.0,2-Back,1.0,m,Mon Nov 03 2025 15:38:19 GMT-0600 (Central Standard Time),475765.5,098_y_f_n_a.png,I,m,729,6,1,1742.9000000059605,474022.59999999404,8072,NNB,C,4
4,test,1,0.0,2-Back,0.0,m,Mon Nov 03 2025 15:38:19 GMT-0600 (Central Standard Time),477634.90000000596,092_m_m_n_a.png,I,z,852,7,1,1863.1000000238419,475771.7999999821,8072,NNB,C,5
5,test,1,1.0,2-Back,1.0,z,Mon Nov 03 2025 15:38:19 GMT-0600 (Central Standard Time),479652.1999999881,098_y_f_n_a.png,I,z,1002,8,1,2010.699999988079,477641.5,8072,NNB,C,6
6,test,1,0.0,2-Back,1.0,m,Mon Nov 03 2025 15:38:19 GMT-0600 (Central Standard Time),482030.5,031_y_m_n_a.png,I,m,1353,9,1,2374.5,479656.0,8072,NNB,C,7
6,test,1,0.0,2-Back,0.0,m,Mon Nov 03 2025 15:38:19 GMT-0600 (Central Standard Time),483997.7999999821,030_o_f_n_a.png,I,z,947,10,1,1960.2999999821186,482037.5,8072,NNB,C,8
6,test,1,1.0,2-Back,0.0,z,Mon Nov 03 2025 15:38:19 GMT-0600 (Central Standard Time),486262.90000000596,031_y_m_n_a.png,I,m,1236,11,1,2256.7000000178814,484006.1999999881,8072,NNB,C,9
6,test,1,0.0,2-Back,0.0,m,Mon Nov 03 2025 15:38:19 GMT-0600 (Central Standard Time),489295.40000000596,006_m_f_n_a.png,I,None,2015,12,1,3025.300000011921,486270.09999999404,8072,NNB,C,10
7,test,1,0.0,2-Back,1.0,m,Mon Nov 03 2025 15:38:19 GMT-0600 (Central Standard Time),491462.1999999881,006_m_f_n_a.png,I,m,1141,13,1,2155.7999999821186,489306.40000000596,8072,NNB,C,11
7,test,1,0.0,2-Back,0.0,m,Mon Nov 03 2025 15:38:19 GMT-0600 (Central Standard Time),493676.7999999821,146_o_m_n_a.png,I,z,1195,14,1,2207.0,491469.7999999821,8072,NNB,C,12
8,test,1,0.0,2-Back,1.0,m,Mon Nov 03 2025 15:38:19 GMT-0600 (Central Standard Time),495959.6999999881,030_o_f_n_a.png,I,m,1253,15,1,2273.9000000059605,493685.7999999821,8072,NNB,C,13
8,test,1,1.0,2-Back,0.0,z,Mon Nov 03 2025 15:38:19 GMT-0600 (Central Standard Time),498992.09999999404,146_o_m_n_a.png,I,None,2015,16,1,3025.800000011921,495966.2999999821,8072,NNB,C,14
9,test,1,0.0,2-Back,1.0,m,Mon Nov 03 2025 15:38:19 GMT-0600 (Central Standard Time),501075.1999999881,093_m_f_n_a.png,I,m,1050,17,1,2077.5,498997.6999999881,8072,NNB,C,15
9,test,1,0.0,2-Back,0.0,m,Mon Nov 03 2025 15:38:19 GMT-0600 (Central Standard Time),503074.1999999881,082_m_m_n_a.png,I,z,973,18,1,1992.0999999940395,501082.09999999404,8072,NNB,C,16
0,test,2,0.0,2-Back,,,Mon Nov 03 2025 15:38:19 GMT-0600 (Central Standard Time),503074.1999999881,082_m_m_n_a.png,I,space,2265,1,1,1992.0999999940395,501082.09999999404,8072,NNB,C,0
0,test,2,0.0,2-Back,,,Mon Nov 03 2025 15:38:19 GMT-0600 (Central Standard Time),503074.1999999881,028_y_f_n_a.png,I,space,2265,2,1,1992.0999999940395,501082.09999999404,8072,NNB,C,0
1,test,2,1.0,2-Back,1.0,z,Mon Nov 03 2025 15:38:19 GMT-0600 (Central Standard Time),512154.6999999881,082_m_m_n_a.png,I,z,667,3,1,1691.7999999821186,510462.90000000596,8072,NNB,C,1
2,test,2,0.0,2-Back,1.0,m,Mon Nov 03 2025 15:38:19 GMT-0600 (Central Standard Time),514021.09999999404,093_m_f_n_a.png,I,m,837,4,1,1859.699999988079,512161.40000000596,8072,NNB,C,2
2,test,2,0.0,2-Back,0.0,m,Mon Nov 03 2025 15:38:19 GMT-0600 (Central Standard Time),516136.90000000596,028_y_f_n_a.png,I,z,1094,5,1,2109.0,514027.90000000596,8072,NNB,C,3
2,test,2,0.0,2-Back,0.0,m,Mon Nov 03 2025 15:38:19 GMT-0600 (Central Standard Time),517985.7999999821,146_o_m_n_a.png,I,z,824,6,1,1842.199999988079,516143.59999999404,8072,NNB,C,4
2,test,2,0.0,2-Back,0.0,m,Mon Nov 03 2025 15:38:19 GMT-0600 (Central Standard Time),520368.1999999881,098_y_f_n_a.png,I,z,1359,7,1,2373.699999988079,517994.5,8072,NNB,C,5
2,test,2,1.0,2-Back,0.0,z,Mon Nov 03 2025 15:38:19 GMT-0600 (Central Standard Time),522384.40000000596,146_o_m_n_a.png,I,m,984,8,1,2008.0,520376.40000000596,8072,NNB,C,6
3,test,2,0.0,2-Back,1.0,m,Mon Nov 03 2025 15:38:19 GMT-0600 (Central Standard Time),524667.099999994,031_y_m_n_a.png,I,m,1265,9,1,2275.199999988079,522391.90000000596,8072,NNB,C,7
4,test,2,0.0,2-Back,1.0,m,Mon Nov 03 2025 15:38:19 GMT-0600 (Central Standard Time),526882.900000006,031_y_m_n_a.png,I,m,1189,10,1,2208.9000000059605,524674.0,8072,NNB,C,8
5,test,2,0.0,2-Back,1.0,m,Mon Nov 03 2025 15:38:19 GMT-0600 (Central Standard Time),529581.099999994,006_m_f_n_a.png,I,m,1678,11,1,2695.199999988079,526885.900000006,8072,NNB,C,9
5,test,2,0.0,2-Back,0.0,m,Mon Nov 03 2025 15:38:19 GMT-0600 (Central Standard Time),532048.7999999821,028_y_f_n_a.png,I,z,1441,12,1,2462.699999988079,529586.099999994,8072,NNB,C,10
6,test,2,1.0,2-Back,1.0,z,Mon Nov 03 2025 15:38:19 GMT-0600 (Central Standard Time),533898.599999994,006_m_f_n_a.png,I,z,833,13,1,1843.199999988079,532055.400000006,8072,NNB,C,11
7,test,2,0.0,2-Back,1.0,m,Mon Nov 03 2025 15:38:19 GMT-0600 (Central Standard Time),535664.400000006,059_o_m_n_a.png,I,m,735,14,1,1757.7000000178814,533906.6999999881,8072,NNB,C,12
8,test,2,0.0,2-Back,1.0,m,Mon Nov 03 2025 15:38:19 GMT-0600 (Central Standard Time),538046.0,059_o_m_n_a.png,I,m,1354,15,1,2374.7000000178814,535671.2999999821,8072,NNB,C,13
8,test,2,0.0,2-Back,0.0,m,Mon Nov 03 2025 15:38:19 GMT-0600 (Central Standard Time),540163.6999999881,030_o_f_n_a.png,I,z,1084,16,1,2111.5,538052.1999999881,8072,NNB,C,14
9,test,2,0.0,2-Back,1.0,m,Mon Nov 03 2025 15:38:19 GMT-0600 (Central Standard Time),542361.900000006,092_m_m_n_a.png,I,m,1166,17,1,2192.0,540169.900000006,8072,NNB,C,15
9,test,2,1.0,2-Back,0.0,z,Mon Nov 03 2025 15:38:19 GMT-0600 (Central Standard Time),545395.099999994,030_o_f_n_a.png,I,None,2015,18,1,3026.5999999940395,542368.5,8072,NNB,C,16
0,test,3,1.0,2-Back,,,Mon Nov 03 2025 15:38:19 GMT-0600 (Central Standard Time),545395.099999994,057_y_m_n_a.png,I,space,1815,1,1,3026.5999999940395,542368.5,8072,NNB,C,0
0,test,3,1.0,2-Back,,,Mon Nov 03 2025 15:38:19 GMT-0600 (Central Standard Time),545395.099999994,057_y_m_n_a.png,I,space,1815,2,1,3026.5999999940395,542368.5,8072,NNB,C,0
1,test,3,0.0,2-Back,1.0,m,Mon Nov 03 2025 15:38:19 GMT-0600 (Central Standard Time),553974.599999994,030_o_f_n_a.png,I,m,604,3,1,1623.800000011921,552350.7999999821,8072,NNB,C,1
2,test,3,0.0,2-Back,1.0,m,Mon Nov 03 2025 15:38:19 GMT-0600 (Central Standard Time),555840.099999994,082_m_m_n_a.png,I,m,841,4,1,1858.9000000059605,553981.1999999881,8072,NNB,C,2
2,test,3,1.0,2-Back,0.0,z,Mon Nov 03 2025 15:38:19 GMT-0600 (Central Standard Time),558490.599999994,030_o_f_n_a.png,I,m,1616,5,1,2647.800000011921,555842.7999999821,8072,NNB,C,3
3,test,3,0.0,2-Back,1.0,m,Mon Nov 03 2025 15:38:19 GMT-0600 (Central Standard Time),560572.599999994,031_y_m_n_a.png,I,m,1064,6,1,2074.0,558498.599999994,8072,NNB,C,4
3,test,3,0.0,2-Back,0.0,m,Mon Nov 03 2025 15:38:19 GMT-0600 (Central Standard Time),562238.7999999821,082_m_m_n_a.png,I,z,646,7,1,1660.699999988079,560578.099999994,8072,NNB,C,5
4,test,3,1.0,2-Back,1.0,z,Mon Nov 03 2025 15:38:19 GMT-0600 (Central Standard Time),564955.599999994,031_y_m_n_a.png,I,z,1683,8,1,2711.0999999940395,562244.5,8072,NNB,C,6
5,test,3,0.0,2-Back,1.0,m,Mon Nov 03 2025 15:38:19 GMT-0600 (Central Standard Time),567103.7999999821,028_y_f_n_a.png,I,m,1128,9,1,2139.0,564964.7999999821,8072,NNB,C,7
6,test,3,0.0,2-Back,1.0,m,Mon Nov 03 2025 15:38:19 GMT-0600 (Central Standard Time),569186.6999999881,092_m_m_n_a.png,I,m,1057,10,1,2075.9000000059605,567110.7999999821,8072,NNB,C,8
6,test,3,1.0,2-Back,0.0,z,Mon Nov 03 2025 15:38:19 GMT-0600 (Central Standard Time),571386.0,028_y_f_n_a.png,I,m,1166,11,1,2193.4000000059605,569192.599999994,8072,NNB,C,9
6,test,3,1.0,2-Back,0.0,z,Mon Nov 03 2025 15:38:19 GMT-0600 (Central Standard Time),573319.099999994,092_m_m_n_a.png,I,m,912,12,1,1926.199999988079,571392.900000006,8072,NNB,C,10
6,test,3,0.0,2-Back,0.0,m,Mon Nov 03 2025 15:38:19 GMT-0600 (Central Standard Time),575001.7999999821,030_o_f_n_a.png,I,z,650,13,1,1677.0999999940395,573324.6999999881,8072,NNB,C,11
7,test,3,0.0,2-Back,1.0,m,Mon Nov 03 2025 15:38:19 GMT-0600 (Central Standard Time),577501.900000006,093_m_f_n_a.png,I,m,1472,14,1,2491.5,575010.400000006,8072,NNB,C,12
7,test,3,0.0,2-Back,0.0,m,Mon Nov 03 2025 15:38:19 GMT-0600 (Central Standard Time),580234.400000006,146_o_m_n_a.png,I,z,1717,15,1,2727.2000000178814,577507.1999999881,8072,NNB,C,13
8,test,3,1.0,2-Back,1.0,z,Mon Nov 03 2025 15:38:19 GMT-0600 (Central Standard Time),582149.1999999881,093_m_f_n_a.png,I,z,898,16,1,1909.0999999940395,580240.099999994,8072,NNB,C,14
9,test,3,0.0,2-Back,1.0,m,Mon Nov 03 2025 15:38:19 GMT-0600 (Central Standard Time),584148.5,130_o_f_n_a.png,I,m,972,17,1,1989.300000011921,582159.1999999881,8072,NNB,C,15
10,test,3,0.0,2-Back,1.0,m,Mon Nov 03 2025 15:38:19 GMT-0600 (Central Standard Time),586415.099999994,130_o_f_n_a.png,I,m,1246,18,1,2259.5999999940395,584155.5,8072,NNB,C,16
0,test,4,0.0,2-Back,,,Mon Nov 03 2025 15:38:19 GMT-0600 (Central Standard Time),586415.099999994,059_o_m_n_a.png,I,space,1290,1,1,2259.5999999940395,584155.5,8072,NNB,C,0
0,test,4,0.0,2-Back,,,Mon Nov 03 2025 15:38:19 GMT-0600 (Central Standard Time),586415.099999994,098_y_f_n_a.png,I,space,1290,2,1,2259.5999999940395,584155.5,8072,NNB,C,0
1,test,4,1.0,2-Back,1.0,z,Mon Nov 03 2025 15:38:19 GMT-0600 (Central Standard Time),594578.2999999821,059_o_m_n_a.png,I,z,649,3,1,1675.7999999821186,592902.5,8072,NNB,C,1
2,test,4,1.0,2-Back,1.0,z,Mon Nov 03 2025 15:38:19 GMT-0600 (Central Standard Time),596528.400000006,098_y_f_n_a.png,I,z,929,4,1,1943.2000000178814,594585.1999999881,8072,NNB,C,2
3,test,4,0.0,2-Back,1.0,m,Mon Nov 03 2025 15:38:19 GMT-0600 (Central Standard Time),598266.5,030_o_f_n_a.png,I,m,713,5,1,1731.9000000059605,596534.599999994,8072,NNB,C,3
4,test,4,0.0,2-Back,1.0,m,Mon Nov 03 2025 15:38:19 GMT-0600 (Central Standard Time),600393.7999999821,030_o_f_n_a.png,I,m,1100,6,1,2123.7999999821186,598270.0,8072,NNB,C,4
5,test,4,0.0,2-Back,1.0,m,Mon Nov 03 2025 15:38:19 GMT-0600 (Central Standard Time),602776.2999999821,006_m_f_n_a.png,I,m,1353,7,1,2378.2999999821186,600398.0,8072,NNB,C,5
6,test,4,0.0,2-Back,1.0,m,Mon Nov 03 2025 15:38:19 GMT-0600 (Central Standard Time),604696.0,031_y_m_n_a.png,I,m,888,8,1,1912.5,602783.5,8072,NNB,C,6
7,test,4,1.0,2-Back,1.0,z,Mon Nov 03 2025 15:38:19 GMT-0600 (Central Standard Time),607327.0,006_m_f_n_a.png,I,z,1604,9,1,2623.5,604703.5,8072,NNB,C,7
8,test,4,0.0,2-Back,1.0,m,Mon Nov 03 2025 15:38:19 GMT-0600 (Central Standard Time),610073.6999999881,092_m_m_n_a.png,I,m,1717,10,1,2744.0999999940395,607329.599999994,8072,NNB,C,8
8,test,4,0.0,2-Back,0.0,m,Mon Nov 03 2025 15:38:19 GMT-0600 (Central Standard Time),611957.099999994,031_y_m_n_a.png,I,z,866,11,1,1876.5,610080.599999994,8072,NNB,C,9
8,test,4,0.0,2-Back,0.0,m,Mon Nov 03 2025 15:38:19 GMT-0600 (Central Standard Time),614188.5,130_o_f_n_a.png,I,z,1206,12,1,2227.5999999940395,611960.900000006,8072,NNB,C,10
9,test,4,0.0,2-Back,1.0,m,Mon Nov 03 2025 15:38:19 GMT-0600 (Central Standard Time),616755.1999999881,057_y_m_n_a.png,I,m,1540,13,1,2560.5,614194.6999999881,8072,NNB,C,11
9,test,4,1.0,2-Back,0.0,z,Mon Nov 03 2025 15:38:19 GMT-0600 (Central Standard Time),619772.599999994,130_o_f_n_a.png,I,None,2002,14,1,3011.699999988079,616760.900000006,8072,NNB,C,12
9,test,4,1.0,2-Back,0.0,z,Mon Nov 03 2025 15:38:19 GMT-0600 (Central Standard Time),622352.900000006,057_y_m_n_a.png,I,m,1551,15,1,2574.0,619778.900000006,8072,NNB,C,13
10,test,4,0.0,2-Back,1.0,m,Mon Nov 03 2025 15:38:19 GMT-0600 (Central Standard Time),624502.099999994,082_m_m_n_a.png,I,m,1130,16,1,2143.199999988079,622358.900000006,8072,NNB,C,14
11,test,4,0.0,2-Back,1.0,m,Mon Nov 03 2025 15:38:19 GMT-0600 (Central Standard Time),627269.400000006,093_m_f_n_a.png,I,m,1748,17,1,2759.800000011921,624509.599999994,8072,NNB,C,15
12,test,4,1.0,2-Back,1.0,z,Mon Nov 03 2025 15:38:19 GMT-0600 (Central Standard Time),628983.7999999821,082_m_m_n_a.png,I,z,686,18,1,1707.2999999821186,627276.5,8072,NNB,C,16
0,test,5,1.0,2-Back,,,Mon Nov 03 2025 15:38:19 GMT-0600 (Central Standard Time),628983.7999999821,057_y_m_n_a.png,I,space,1474,1,1,1707.2999999821186,627276.5,8072,NNB,C,0
0,test,5,1.0,2-Back,,,Mon Nov 03 2025 15:38:19 GMT-0600 (Central Standard Time),628983.7999999821,093_m_f_n_a.png,I,space,1474,2,1,1707.2999999821186,627276.5,8072,NNB,C,0
1,test,5,1.0,2-Back,1.0,z,Mon Nov 03 2025 15:38:19 GMT-0600 (Central Standard Time),637115.6999999881,057_y_m_n_a.png,I,z,581,3,1,1591.199999988079,635524.5,8072,NNB,C,1
2,test,5,1.0,2-Back,1.0,z,Mon Nov 03 2025 15:38:19 GMT-0600 (Central Standard Time),638981.099999994,093_m_f_n_a.png,I,z,837,4,1,1859.4000000059605,637121.6999999881,8072,NNB,C,2
3,test,5,0.0,2-Back,1.0,m,Mon Nov 03 2025 15:38:19 GMT-0600 (Central Standard Time),640718.0,130_o_f_n_a.png,I,m,691,5,1,1733.9000000059605,638984.099999994,8072,NNB,C,3
3,test,5,0.0,2-Back,0.0,m,Mon Nov 03 2025 15:38:19 GMT-0600 (Central Standard Time),642181.0,057_y_m_n_a.png,I,z,450,6,1,1460.0999999940395,640720.900000006,8072,NNB,C,4
4,test,5,0.0,2-Back,1.0,m,Mon Nov 03 2025 15:38:19 GMT-0600 (Central Standard Time),643779.400000006,028_y_f_n_a.png,I,m,583,7,1,1591.5,642187.900000006,8072,NNB,C,5
4,test,5,0.0,2-Back,0.0,m,Mon Nov 03 2025 15:38:19 GMT-0600 (Central Standard Time),645561.0,130_o_f_n_a.png,I,z,759,8,1,1773.800000011921,643787.1999999881,8072,NNB,C,6
5,test,5,1.0,2-Back,1.0,z,Mon Nov 03 2025 15:38:19 GMT-0600 (Central Standard Time),647161.599999994,028_y_f_n_a.png,I,z,566,9,1,1593.9000000059605,645567.6999999881,8072,NNB,C,7
6,test,5,0.0,2-Back,1.0,m,Mon Nov 03 2025 15:38:19 GMT-0600 (Central Standard Time),649494.400000006,146_o_m_n_a.png,I,m,1303,10,1,2326.4000000059605,647168.0,8072,NNB,C,8
7,test,5,0.0,2-Back,1.0,m,Mon Nov 03 2025 15:38:19 GMT-0600 (Central Standard Time),652228.099999994,006_m_f_n_a.png,I,m,1718,11,1,2729.0999999940395,649499.0,8072,NNB,C,9
7,test,5,0.0,2-Back,0.0,m,Mon Nov 03 2025 15:38:19 GMT-0600 (Central Standard Time),654661.400000006,092_m_m_n_a.png,I,z,1399,12,1,2426.300000011921,652235.099999994,8072,NNB,C,10
8,test,5,0.0,2-Back,1.0,m,Mon Nov 03 2025 15:38:19 GMT-0600 (Central Standard Time),656576.6999999881,146_o_m_n_a.png,I,m,885,13,1,1908.699999988079,654668.0,8072,NNB,C,11
8,test,5,1.0,2-Back,0.0,z,Mon Nov 03 2025 15:38:19 GMT-0600 (Central Standard Time),659057.2999999821,092_m_m_n_a.png,I,m,1449,14,1,2474.399999976158,656582.900000006,8072,NNB,C,12
8,test,5,0.0,2-Back,0.0,m,Mon Nov 03 2025 15:38:19 GMT-0600 (Central Standard Time),660707.5,098_y_f_n_a.png,I,z,624,15,1,1643.7000000178814,659063.7999999821,8072,NNB,C,13
9,test,5,0.0,2-Back,1.0,m,Mon Nov 03 2025 15:38:19 GMT-0600 (Central Standard Time),663706.7999999821,059_o_m_n_a.png,I,m,1967,16,1,2995.0,660711.7999999821,8072,NNB,C,14
9,test,5,0.0,2-Back,0.0,m,Mon Nov 03 2025 15:38:19 GMT-0600 (Central Standard Time),666741.2999999821,006_m_f_n_a.png,I,None,2018,17,1,3028.399999976158,663712.900000006,8072,NNB,C,15
10,test,5,1.0,2-Back,1.0,z,Mon Nov 03 2025 15:38:19 GMT-0600 (Central Standard Time),669621.1999999881,059_o_m_n_a.png,I,z,1861,18,1,2874.0999999940395,666747.099999994,8072,NNB,C,16
