acc_sum,block,block_c,condition,correct,correct_response,datetime,endtime,flanker,jitter,project,response,response_test_buffer_response,response_test_target_response,response_time,response_time_test_buffer_response,response_time_test_target_response,row_sel,session_number,start_end,starttime,subject_id,target,task,task_vers,time_test_buffer,time_test_buffer_response,time_test_constants,time_test_flanker,time_test_jitter,time_test_logger,time_test_target,time_test_target_response,time_test_variables,trial
1,prac,1,inc,1,m,Thu Jun 04 2026 14:29:13 GMT-0500 (Central Daylight Time),171752.70000004768,elated,900,I,m,,,913,,,6,1,3110.2999999523163,168642.40000009537,8116,napkin,AF,B,,,,,,,,,,1
2,prac,1,inc,1,z,Thu Jun 04 2026 14:29:13 GMT-0500 (Central Daylight Time),174985.0,napkin,1100,I,z,,,841,,,12,1,3226.899999976158,171758.10000002384,8116,friend,AF,B,,,,,,,,,,2
3,prac,1,con,1,z,Thu Jun 04 2026 14:29:13 GMT-0500 (Central Daylight Time),178050.5,elated,800,I,z,,,962,,,9,1,3060.5999999046326,174989.90000009537,8116,elated,AF,B,,,,,,,,,,3
4,prac,1,inc,1,m,Thu Jun 04 2026 14:29:13 GMT-0500 (Central Daylight Time),181316.30000007153,brutal,1100,I,m,,,850,,,8,1,3259.899999976158,178056.40000009537,8116,window,AF,B,,,,,,,,,,4
5,prac,1,inc,1,m,Thu Jun 04 2026 14:29:13 GMT-0500 (Central Daylight Time),184181.90000009537,kind,900,I,m,,,649,,,2,1,2859.9000000953674,181322.0,8116,rock,AF,B,,,,,,,,,,5
6,prac,1,inc,1,z,Thu Jun 04 2026 14:29:13 GMT-0500 (Central Daylight Time),188230.80000007153,window,1100,I,z,,,1648,,,16,1,4043.8000000715256,184187.0,8116,temper,AF,B,,,,,,,,,,6
7,prac,1,con,1,z,Thu Jun 04 2026 14:29:13 GMT-0500 (Central Daylight Time),191396.60000002384,love,1000,I,z,,,876,,,11,1,3160.399999976158,188236.20000004768,8116,love,AF,B,,,,,,,,,,7
8,prac,1,inc,1,m,Thu Jun 04 2026 14:29:13 GMT-0500 (Central Daylight Time),194562.30000007153,hate,1100,I,m,,,753,,,4,1,3161.3000000715256,191401.0,8116,film,AF,B,,,,,,,,,,8
9,prac,1,con,1,m,Thu Jun 04 2026 14:29:13 GMT-0500 (Central Daylight Time),198061.0,bell,1000,I,m,,,1192,,,3,1,3494.0999999046326,194566.90000009537,8116,bell,AF,B,,,,,,,,,,9
10,prac,1,con,1,m,Thu Jun 04 2026 14:29:13 GMT-0500 (Central Daylight Time),200993.60000002384,jacket,800,I,m,,,828,,,5,1,2927.600000023842,198066.0,8116,jacket,AF,B,,,,,,,,,,10
11,prac,1,con,1,z,Thu Jun 04 2026 14:29:13 GMT-0500 (Central Daylight Time),203909.20000004768,rage,1000,I,z,,,600,,,15,1,2910.7999999523163,200998.40000009537,8116,rage,AF,B,,,,,,,,,,11
12,prac,1,inc,1,z,Thu Jun 04 2026 14:29:13 GMT-0500 (Central Daylight Time),206941.5,rock,900,I,z,,,825,,,10,1,3027.0999999046326,203914.40000009537,8116,kind,AF,B,,,,,,,,,,12
13,prac,1,con,1,z,Thu Jun 04 2026 14:29:13 GMT-0500 (Central Daylight Time),209824.10000002384,brutal,800,I,z,,,772,,,13,1,2878.100000023842,206946.0,8116,brutal,AF,B,,,,,,,,,,13
14,prac,1,con,1,m,Thu Jun 04 2026 14:29:13 GMT-0500 (Central Daylight Time),213023.10000002384,remote,1000,I,m,,,891,,,7,1,3194.899999976158,209828.20000004768,8116,remote,AF,B,,,,,,,,,,14
15,prac,1,con,1,m,Thu Jun 04 2026 14:29:13 GMT-0500 (Central Daylight Time),216238.60000002384,step,800,I,m,,,1108,,,1,1,3211.0,213027.60000002384,8116,step,AF,B,,,,,,,,,,15
16,prac,1,inc,1,z,Thu Jun 04 2026 14:29:13 GMT-0500 (Central Daylight Time),219371.10000002384,film,900,I,z,,,927,,,14,1,3128.0,216243.10000002384,8116,hate,AF,B,,,,,,,,,,16
1,test,1,inc,1,z,Thu Jun 04 2026 14:29:13 GMT-0500 (Central Daylight Time),229534.5,napkin,900,I,z,z,None,784,584.0,200.0,30,1,2229.0999999046326,227305.40000009537,8116,friend,AF,B,225774,225774,224144,225058,224145,226374,225574,225574,226373,1
2,test,1,inc,1,z,Thu Jun 04 2026 14:29:13 GMT-0500 (Central Daylight Time),232001.40000009537,jacket,800,I,z,z,None,1130,915.0,215.0,29,1,2462.0,229539.40000009537,8116,friend,AF,B,227923,227923,226378,227190,226379,228840,227708,227708,228840,2
3,test,1,inc,1,z,Thu Jun 04 2026 14:29:13 GMT-0500 (Central Daylight Time),234483.10000002384,bell,1000,I,z,z,None,939,738.0,201.0,15,1,2477.1999999284744,232005.90000009537,8116,kind,AF,B,230573,230573,228845,229856,228845,231322,230372,230372,231322,3
4,test,1,inc,1,z,Thu Jun 04 2026 14:29:13 GMT-0500 (Central Daylight Time),236782.20000004768,film,1100,I,z,z,None,651,451.0,200.0,16,1,2294.7999999523163,234487.40000009537,8116,kind,AF,B,233155,233155,231326,232439,231327,233621,232955,232955,233621,4
5,test,1,con,1,m,Thu Jun 04 2026 14:29:13 GMT-0500 (Central Daylight Time),238831.70000004768,step,1000,I,m,m,None,501,301.0,200.0,67,1,2045.2999999523163,236786.40000009537,8116,step,AF,B,235354,235354,233625,234638,233626,235671,235154,235154,235671,5
6,test,1,inc,1,z,Thu Jun 04 2026 14:29:13 GMT-0500 (Central Daylight Time),241180.80000007153,film,1100,I,z,z,None,701,502.0,199.0,24,1,2345.0,238835.80000007153,8116,love,AF,B,237504,237504,235675,236787,235675,238020,237304,237304,238020,6
7,test,1,inc,1,z,Thu Jun 04 2026 14:29:13 GMT-0500 (Central Daylight Time),243247.10000002384,jacket,800,I,z,z,None,726,526.0,200.0,61,1,2062.1999999284744,241184.90000009537,8116,temper,AF,B,239553,239553,238024,238836,238024,240086,239353,239353,240086,7
8,test,1,con,1,m,Thu Jun 04 2026 14:29:13 GMT-0500 (Central Daylight Time),245329.5,rock,900,I,m,m,None,548,347.0,201.0,74,1,2077.399999976158,243252.10000002384,8116,rock,AF,B,241819,241819,240091,241002,240091,242169,241618,241618,242169,8
9,test,1,inc,1,z,Thu Jun 04 2026 14:29:13 GMT-0500 (Central Daylight Time),247478.80000007153,rock,900,I,z,z,None,699,500.0,199.0,22,1,2145.100000023842,245333.70000004768,8116,love,AF,B,243801,243802,242173,243085,242173,244318,243602,243602,244318,9
10,test,1,con,1,m,Thu Jun 04 2026 14:29:13 GMT-0500 (Central Daylight Time),249462.70000004768,napkin,800,I,m,m,None,635,435.0,200.0,105,1,1979.7000000476837,247483.0,8116,napkin,AF,B,245851,245851,244322,245135,244322,246302,245651,245651,246302,10
11,test,1,con,1,m,Thu Jun 04 2026 14:29:13 GMT-0500 (Central Daylight Time),251927.40000009537,bell,1000,I,m,m,None,924,725.0,199.0,83,1,2459.8000000715256,249467.60000002384,8116,bell,AF,B,248034,248034,246307,247317,246307,248766,247834,247834,248766,11
12,test,1,inc,1,m,Thu Jun 04 2026 14:29:13 GMT-0500 (Central Daylight Time),254243.20000004768,friend,1100,I,m,m,None,678,479.0,199.0,104,1,2311.2000000476837,251932.0,8116,jacket,AF,B,250600,250600,248771,249883,248771,251082,250400,250400,251082,12
13,test,1,con,1,m,Thu Jun 04 2026 14:29:13 GMT-0500 (Central Daylight Time),256559.30000007153,jacket,1000,I,m,m,None,773,574.0,199.0,99,1,2312.100000023842,254247.20000004768,8116,jacket,AF,B,252816,252816,251086,252099,251087,253398,252616,252616,253398,13
14,test,1,inc,1,z,Thu Jun 04 2026 14:29:13 GMT-0500 (Central Daylight Time),258742.0,bell,1000,I,z,z,None,644,444.0,200.0,23,1,2178.5,256563.5,8116,love,AF,B,255131,255131,253403,254415,253403,255581,254931,254931,255581,14
15,test,1,inc,1,z,Thu Jun 04 2026 14:29:13 GMT-0500 (Central Daylight Time),261007.80000007153,rock,900,I,z,z,None,832,632.0,200.0,46,1,2261.600000023842,258746.20000004768,8116,hate,AF,B,257214,257214,255585,256499,255585,257847,257014,257014,257847,15
16,test,1,inc,1,m,Thu Jun 04 2026 14:29:13 GMT-0500 (Central Daylight Time),263174.0,temper,1000,I,m,m,None,626,426.0,200.0,103,1,2162.0999999046326,261011.90000009537,8116,jacket,AF,B,259580,259580,257851,258864,257851,260013,259380,259380,260013,16
17,test,1,con,1,m,Thu Jun 04 2026 14:29:13 GMT-0500 (Central Daylight Time),265439.90000009537,jacket,1100,I,m,m,None,625,425.0,200.0,100,1,2261.3000000715256,263178.60000002384,8116,jacket,AF,B,261846,261846,260018,261129,260018,262279,261646,261646,262279,17
18,test,1,inc,1,m,Thu Jun 04 2026 14:29:13 GMT-0500 (Central Daylight Time),267705.90000009537,kind,900,I,m,m,None,830,630.0,200.0,70,1,2261.7000000476837,265444.2000000477,8116,step,AF,B,263912,263912,262283,263195,262284,264545,263712,263712,264545,18
19,test,1,con,1,z,Thu Jun 04 2026 14:29:13 GMT-0500 (Central Daylight Time),270088.2000000477,rage,1000,I,z,z,None,848,648.0,200.0,51,1,2377.7000000476837,267710.5,8116,rage,AF,B,266278,266278,264550,265561,264550,266927,266078,266078,266927,19
20,test,1,inc,1,m,Thu Jun 04 2026 14:29:13 GMT-0500 (Central Daylight Time),272655.2000000477,hate,1100,I,m,m,None,927,727.0,200.0,88,1,2563.100000023842,270092.10000002384,8116,bell,AF,B,268760,268760,266931,268044,266931,269494,268560,268560,269494,20
21,test,1,inc,1,m,Thu Jun 04 2026 14:29:13 GMT-0500 (Central Daylight Time),274853.7000000477,love,1000,I,m,m,None,660,460.0,200.0,71,1,2194.5,272659.2000000477,8116,step,AF,B,271227,271227,269498,270510,269499,271693,271026,271026,271693,21
22,test,1,con,1,z,Thu Jun 04 2026 14:29:13 GMT-0500 (Central Daylight Time),277203.0,love,1100,I,z,z,None,703,504.0,199.0,20,1,2343.5999999046326,274859.40000009537,8116,love,AF,B,273526,273526,271698,272809,271699,274042,273326,273326,274042,22
23,test,1,inc,1,m,Thu Jun 04 2026 14:29:13 GMT-0500 (Central Daylight Time),279285.7000000477,kind,900,I,m,m,None,643,443.0,200.0,86,1,2078.0,277207.7000000477,8116,bell,AF,B,275675,275675,274047,274959,274047,276125,275475,275475,276125,23
24,test,1,con,1,m,Thu Jun 04 2026 14:29:13 GMT-0500 (Central Daylight Time),282217.8000000715,remote,800,I,m,m,None,1596,1397.0,199.0,113,1,2927.899999976158,279289.90000009537,8116,remote,AF,B,277658,277658,276129,276941,276129,279057,277458,277458,279057,24
25,test,1,inc,1,m,Thu Jun 04 2026 14:29:13 GMT-0500 (Central Daylight Time),284417.0,brutal,900,I,m,m,None,765,565.0,200.0,102,1,2195.0,282222.0,8116,jacket,AF,B,280690,280690,279061,279974,279061,281256,280490,280490,281256,25
26,test,1,con,1,z,Thu Jun 04 2026 14:29:13 GMT-0500 (Central Daylight Time),286699.90000009537,kind,1100,I,z,z,None,636,437.0,199.0,12,1,2278.600000023842,284421.3000000715,8116,kind,AF,B,283089,283089,281260,282373,281261,283539,282889,282890,283539,26
27,test,1,con,1,m,Thu Jun 04 2026 14:29:13 GMT-0500 (Central Daylight Time),288916.0,window,800,I,m,m,None,871,671.0,200.0,121,1,2211.399999976158,286704.60000002384,8116,window,AF,B,285072,285072,283544,284356,283544,285755,284872,284872,285755,27
28,test,1,inc,1,m,Thu Jun 04 2026 14:29:13 GMT-0500 (Central Daylight Time),291648.0,hate,1100,I,m,m,None,1113,897.0,216.0,80,1,2727.6999999284744,288920.3000000715,8116,rock,AF,B,287589,287589,285759,286871,285760,288487,287373,287373,288487,28
29,test,1,con,1,z,Thu Jun 04 2026 14:29:13 GMT-0500 (Central Daylight Time),294264.10000002384,love,1000,I,z,z,None,1074,875.0,199.0,19,1,2612.100000023842,291652.0,8116,love,AF,B,290220,290220,288491,289504,288491,291103,290021,290021,291103,29
30,test,1,con,1,m,Thu Jun 04 2026 14:29:13 GMT-0500 (Central Daylight Time),296313.40000009537,film,1000,I,m,m,None,506,306.0,200.0,91,1,2045.1000000238419,294268.3000000715,8116,film,AF,B,292836,292836,291107,292120,291108,293153,292636,292636,293152,30
31,test,1,inc,1,m,Thu Jun 04 2026 14:29:13 GMT-0500 (Central Daylight Time),298712.5,hate,1100,I,m,m,None,763,564.0,199.0,96,1,2394.6999999284744,296317.8000000715,8116,film,AF,B,294986,294986,293157,294269,293157,295552,294786,294786,295551,31
32,test,1,inc,1,m,Thu Jun 04 2026 14:29:13 GMT-0500 (Central Daylight Time),301278.8000000715,temper,1000,I,m,m,None,1017,817.0,200.0,119,1,2561.600000023842,298717.2000000477,8116,remote,AF,B,297285,297285,295556,296568,295557,298118,297085,297085,298118,32
33,test,1,con,1,z,Thu Jun 04 2026 14:29:13 GMT-0500 (Central Daylight Time),303711.2000000477,hate,1000,I,z,z,None,882,683.0,199.0,43,1,2428.399999976158,301282.8000000715,8116,hate,AF,B,299851,299851,298122,299134,298122,300550,299651,299651,300550,33
34,test,1,con,1,z,Thu Jun 04 2026 14:29:13 GMT-0500 (Central Daylight Time),306827.10000002384,temper,800,I,z,z,None,1779,1578.0,201.0,57,1,3111.399999976158,303715.7000000477,8116,temper,AF,B,302084,302085,300555,301367,300555,303666,301883,301883,303666,34
35,test,1,inc,1,z,Thu Jun 04 2026 14:29:13 GMT-0500 (Central Daylight Time),309192.8000000715,film,1100,I,z,z,None,731,531.0,200.0,48,1,2361.7000000476837,306831.10000002384,8116,hate,AF,B,305499,305499,303670,304783,303670,306032,305299,305299,306032,35
36,test,1,inc,1,z,Thu Jun 04 2026 14:29:13 GMT-0500 (Central Daylight Time),311625.0,film,1100,I,z,z,None,798,598.0,200.0,56,1,2427.7999999523163,309197.2000000477,8116,rage,AF,B,307865,307865,306036,307148,306037,308464,307665,307665,308464,36
37,test,1,inc,1,m,Thu Jun 04 2026 14:29:13 GMT-0500 (Central Daylight Time),313807.90000009537,kind,900,I,m,m,None,740,541.0,199.0,94,1,2178.8000000715256,311629.10000002384,8116,film,AF,B,310098,310098,308468,309381,308468,310647,309898,309898,310647,37
38,test,1,con,1,z,Thu Jun 04 2026 14:29:13 GMT-0500 (Central Daylight Time),316058.3000000715,brutal,800,I,z,z,None,915,715.0,200.0,33,1,2246.3000000715256,313812.0,8116,brutal,AF,B,312180,312180,310651,311464,310651,312897,311980,311980,312897,38
39,test,1,inc,1,m,Thu Jun 04 2026 14:29:13 GMT-0500 (Central Daylight Time),318389.7000000477,brutal,900,I,m,m,None,883,684.0,199.0,126,1,2327.2999999523163,316062.40000009537,8116,window,AF,B,314529,314530,312901,313813,312902,315229,314330,314330,315229,39
40,test,1,inc,1,z,Thu Jun 04 2026 14:29:13 GMT-0500 (Central Daylight Time),321073.40000009537,step,800,I,z,z,None,1348,1148.0,200.0,13,1,2679.3000000715256,318394.10000002384,8116,kind,AF,B,316762,316762,315233,316046,315233,317913,316562,316562,317912,40
41,test,1,inc,1,z,Thu Jun 04 2026 14:29:13 GMT-0500 (Central Daylight Time),323138.7000000477,step,800,I,z,z,None,721,522.0,199.0,21,1,2060.7999999523163,321077.90000009537,8116,love,AF,B,319445,319445,317917,318729,317917,319978,319245,319245,319978,41
42,test,1,inc,1,z,Thu Jun 04 2026 14:29:13 GMT-0500 (Central Daylight Time),325271.2000000477,step,800,I,z,z,None,782,567.0,215.0,53,1,2128.2000000476837,323143.0,8116,rage,AF,B,321527,321527,319982,320794,319982,322110,321312,321312,322110,42
43,test,1,inc,1,m,Thu Jun 04 2026 14:29:13 GMT-0500 (Central Daylight Time),327420.5,rage,800,I,m,m,None,812,612.0,200.0,93,1,2145.1999999284744,325275.3000000715,8116,film,AF,B,323643,323643,322114,322927,322115,324260,323443,323443,324260,43
44,test,1,inc,1,z,Thu Jun 04 2026 14:29:13 GMT-0500 (Central Daylight Time),330469.40000009537,window,1100,I,z,z,None,1408,1209.0,199.0,64,1,3044.9000000953674,327424.5,8116,temper,AF,B,326093,326093,324264,325376,324264,327308,325893,325893,327308,44
45,test,1,inc,1,m,Thu Jun 04 2026 14:29:13 GMT-0500 (Central Daylight Time),332753.10000002384,friend,1100,I,m,m,None,632,433.0,199.0,112,1,2279.5,330473.60000002384,8116,napkin,AF,B,329142,329142,327313,328425,327313,329592,328942,328942,329592,45
46,test,1,inc,1,m,Thu Jun 04 2026 14:29:13 GMT-0500 (Central Daylight Time),335051.3000000715,love,1000,I,m,m,None,762,562.0,200.0,95,1,2293.5,332757.8000000715,8116,film,AF,B,331324,331324,329597,330609,329597,331890,331124,331124,331890,46
47,test,1,inc,1,m,Thu Jun 04 2026 14:29:13 GMT-0500 (Central Daylight Time),337434.0,hate,1100,I,m,m,None,738,538.0,200.0,72,1,2378.399999976158,335055.60000002384,8116,step,AF,B,333724,333724,331895,333007,331895,334273,333523,333523,334273,47
48,test,1,con,1,z,Thu Jun 04 2026 14:29:13 GMT-0500 (Central Daylight Time),339566.60000002384,elated,800,I,z,z,None,791,477.0,314.0,1,1,2128.6999999284744,337437.90000009537,8116,elated,AF,B,335921,335921,334277,335089,334277,336406,335606,335606,336406,48
49,test,1,inc,1,m,Thu Jun 04 2026 14:29:13 GMT-0500 (Central Daylight Time),341632.7000000477,rage,800,I,m,m,None,722,523.0,199.0,77,1,2062.2000000476837,339570.5,8116,rock,AF,B,337939,337939,336409,337222,336410,338472,337739,337739,338472,49
50,test,1,con,1,z,Thu Jun 04 2026 14:29:13 GMT-0500 (Central Daylight Time),343648.40000009537,kind,1000,I,z,z,None,480,281.0,199.0,11,1,2011.6000000238419,341636.8000000715,8116,kind,AF,B,340205,340205,338476,339488,338476,340487,340005,340005,340487,50
51,test,1,inc,1,z,Thu Jun 04 2026 14:29:13 GMT-0500 (Central Daylight Time),346448.10000002384,napkin,900,I,z,z,None,1366,1166.0,200.0,6,1,2795.2999999523163,343652.8000000715,8116,elated,AF,B,342121,342121,340492,341405,340492,343287,341921,341921,343287,51
52,test,1,con,1,m,Thu Jun 04 2026 14:29:13 GMT-0500 (Central Daylight Time),348580.60000002384,window,900,I,m,m,None,694,494.0,200.0,122,1,2128.600000023842,346452.0,8116,window,AF,B,344920,344920,343291,344203,343291,345420,344720,344720,345420,52
53,test,1,con,1,m,Thu Jun 04 2026 14:29:13 GMT-0500 (Central Daylight Time),350979.8000000715,window,1000,I,m,m,None,860,661.0,199.0,123,1,2395.100000023842,348584.7000000477,8116,window,AF,B,347153,347153,345424,346436,345424,347819,346953,346953,347819,53
54,test,1,con,1,m,Thu Jun 04 2026 14:29:13 GMT-0500 (Central Daylight Time),353545.60000002384,film,1100,I,m,m,None,930,730.0,200.0,92,1,2561.6999999284744,350983.90000009537,8116,film,AF,B,349652,349652,347823,348935,347823,350385,349452,349452,350385,54
55,test,1,con,1,z,Thu Jun 04 2026 14:29:13 GMT-0500 (Central Daylight Time),356028.0,rage,1100,I,z,z,None,844,645.0,199.0,52,1,2478.0999999046326,353549.90000009537,8116,rage,AF,B,352218,352218,350389,351501,350389,352867,352017,352018,352867,55
56,test,1,inc,1,z,Thu Jun 04 2026 14:29:13 GMT-0500 (Central Daylight Time),358627.60000002384,bell,1000,I,z,z,None,1054,854.0,200.0,47,1,2595.0,356032.60000002384,8116,hate,AF,B,354600,354600,352872,353884,352872,355467,354400,354400,355467,56
57,test,1,inc,1,z,Thu Jun 04 2026 14:29:13 GMT-0500 (Central Daylight Time),360993.10000002384,remote,1000,I,z,z,None,830,631.0,199.0,31,1,2361.1999999284744,358631.90000009537,8116,friend,AF,B,357200,357200,355471,356483,355471,357832,357000,357000,357832,57
58,test,1,con,1,z,Thu Jun 04 2026 14:29:13 GMT-0500 (Central Daylight Time),363742.7000000477,love,900,I,z,z,None,1310,1097.0,213.0,18,1,2745.7999999523163,360996.90000009537,8116,love,AF,B,359478,359478,357836,358749,357836,360582,359265,359265,360582,58
59,test,1,con,1,z,Thu Jun 04 2026 14:29:13 GMT-0500 (Central Daylight Time),366224.8000000715,friend,1100,I,z,z,None,847,647.0,200.0,28,1,2477.5,363747.3000000715,8116,friend,AF,B,362415,362415,360586,361698,360587,363064,362214,362214,363064,59
60,test,1,inc,1,z,Thu Jun 04 2026 14:29:13 GMT-0500 (Central Daylight Time),368690.8000000715,jacket,800,I,z,z,None,1129,929.0,200.0,37,1,2461.8000000715256,366229.0,8116,brutal,AF,B,364597,364597,363068,363881,363068,365530,364397,364397,365530,60
61,test,1,inc,1,z,Thu Jun 04 2026 14:29:13 GMT-0500 (Central Daylight Time),370907.0,rock,900,I,z,z,None,772,572.0,200.0,14,1,2212.0999999046326,368694.90000009537,8116,kind,AF,B,367163,367163,365534,366447,365534,367746,366963,366963,367746,61
62,test,1,con,1,z,Thu Jun 04 2026 14:29:13 GMT-0500 (Central Daylight Time),372823.3000000715,kind,800,I,z,z,None,567,367.0,200.0,9,1,1911.8999999761581,370911.40000009537,8116,kind,AF,B,369279,369279,367750,368563,367751,369662,369079,369079,369662,62
63,test,1,inc,1,z,Thu Jun 04 2026 14:29:13 GMT-0500 (Central Daylight Time),375205.5,bell,1000,I,z,z,None,836,636.0,200.0,55,1,2377.899999976158,372827.60000002384,8116,rage,AF,B,371395,371395,369667,370678,369667,372045,371195,371195,372045,63
64,test,1,con,1,m,Thu Jun 04 2026 14:29:13 GMT-0500 (Central Daylight Time),377487.8000000715,napkin,1000,I,m,m,None,748,549.0,199.0,107,1,2278.2000000476837,375209.60000002384,8116,napkin,AF,B,373777,373777,372049,373061,372049,374327,373578,373578,374327,64
65,test,1,inc,1,m,Thu Jun 04 2026 14:29:13 GMT-0500 (Central Daylight Time),380070.8000000715,temper,1000,I,m,m,None,1042,842.0,200.0,111,1,2578.3000000715256,377492.5,8116,napkin,AF,B,376060,376060,374332,375344,374332,376910,375860,375860,376910,65
66,test,1,con,1,z,Thu Jun 04 2026 14:29:13 GMT-0500 (Central Daylight Time),382186.60000002384,elated,1000,I,z,z,None,579,380.0,199.0,3,1,2111.7999999523163,380074.8000000715,8116,elated,AF,B,378643,378643,376914,377926,376914,379026,378443,378443,379026,66
67,test,1,con,1,z,Thu Jun 04 2026 14:29:13 GMT-0500 (Central Daylight Time),384085.90000009537,love,800,I,z,z,None,576,377.0,199.0,17,1,1895.2000000476837,382190.7000000477,8116,love,AF,B,380542,380542,379030,379842,379030,380925,380343,380343,380925,67
68,test,1,con,1,m,Thu Jun 04 2026 14:29:13 GMT-0500 (Central Daylight Time),386752.10000002384,napkin,1100,I,m,m,None,1018,818.0,200.0,108,1,2662.100000023842,384090.0,8116,napkin,AF,B,382758,382758,380929,382042,380929,383591,382558,382558,383591,68
69,test,1,con,1,m,Thu Jun 04 2026 14:29:13 GMT-0500 (Central Daylight Time),388567.90000009537,napkin,900,I,m,m,None,383,183.0,200.0,106,1,1811.7000000476837,386756.2000000477,8116,napkin,AF,B,385224,385224,383595,384508,383596,385407,385024,385024,385407,69
70,test,1,inc,1,z,Thu Jun 04 2026 14:29:13 GMT-0500 (Central Daylight Time),390800.7000000477,remote,1000,I,z,z,None,691,491.0,200.0,7,1,2228.600000023842,388572.10000002384,8116,elated,AF,B,387140,387140,385411,386423,385411,387640,386940,386940,387640,70
71,test,1,con,1,m,Thu Jun 04 2026 14:29:13 GMT-0500 (Central Daylight Time),393816.40000009537,bell,800,I,m,m,None,1673,1473.0,200.0,81,1,3011.3000000715256,390805.10000002384,8116,bell,AF,B,389173,389173,387644,388456,387644,390655,388973,388973,390655,71
72,test,1,con,1,m,Thu Jun 04 2026 14:29:13 GMT-0500 (Central Daylight Time),395715.7000000477,bell,900,I,m,m,None,462,263.0,199.0,82,1,1895.0,393820.7000000477,8116,bell,AF,B,392288,392288,390660,391572,390660,392555,392089,392089,392555,72
73,test,1,inc,1,m,Thu Jun 04 2026 14:29:13 GMT-0500 (Central Daylight Time),397665.10000002384,elated,800,I,m,m,None,607,407.0,200.0,101,1,1945.2999999523163,395719.8000000715,8116,jacket,AF,B,394088,394088,392559,393371,392559,394504,393888,393888,394504,73
74,test,1,inc,1,z,Thu Jun 04 2026 14:29:13 GMT-0500 (Central Daylight Time),399748.0,rock,900,I,z,z,None,637,438.0,199.0,54,1,2079.0999999046326,397668.90000009537,8116,rage,AF,B,396137,396137,394508,395421,394508,396587,395938,395938,396587,74
75,test,1,inc,1,m,Thu Jun 04 2026 14:29:13 GMT-0500 (Central Daylight Time),402180.90000009537,temper,1000,I,m,m,None,895,695.0,200.0,127,1,2428.600000023842,399752.3000000715,8116,window,AF,B,398320,398320,396591,397603,396592,399020,398120,398120,399020,75
76,test,1,con,1,m,Thu Jun 04 2026 14:29:13 GMT-0500 (Central Daylight Time),404179.8000000715,jacket,800,I,m,m,None,653,454.0,199.0,97,1,1993.8999999761581,402185.90000009537,8116,jacket,AF,B,400553,400553,399025,399836,399025,401019,400353,400353,401019,76
77,test,1,con,1,z,Thu Jun 04 2026 14:29:13 GMT-0500 (Central Daylight Time),406479.10000002384,temper,900,I,z,z,None,858,658.0,200.0,58,1,2295.0,404184.10000002384,8116,temper,AF,B,402652,402652,401023,401935,401023,403318,402452,402452,403318,77
78,test,1,con,1,m,Thu Jun 04 2026 14:29:13 GMT-0500 (Central Daylight Time),408878.40000009537,window,1100,I,m,m,None,768,569.0,199.0,124,1,2395.3000000715256,406483.10000002384,8116,window,AF,B,405134,405134,403322,404434,403322,405718,404935,404935,405717,78
79,test,1,con,1,z,Thu Jun 04 2026 14:29:13 GMT-0500 (Central Daylight Time),411844.0,hate,900,I,z,z,None,1403,1203.0,200.0,42,1,2961.2999999523163,408882.7000000477,8116,hate,AF,B,407467,407467,405722,406761,405722,408683,407267,407267,408683,79
80,test,1,inc,1,m,Thu Jun 04 2026 14:29:13 GMT-0500 (Central Daylight Time),414359.90000009537,friend,1100,I,m,m,None,867,667.0,200.0,128,1,2511.7000000476837,411848.2000000477,8116,window,AF,B,410516,410516,408687,409799,408687,411199,410316,410316,411199,80
81,test,1,inc,1,z,Thu Jun 04 2026 14:29:13 GMT-0500 (Central Daylight Time),416675.7000000477,napkin,900,I,z,z,None,871,671.0,200.0,38,1,2311.899999976158,414363.8000000715,8116,brutal,AF,B,412832,412832,411203,412116,411203,413515,412632,412632,413515,81
82,test,1,inc,1,m,Thu Jun 04 2026 14:29:13 GMT-0500 (Central Daylight Time),418741.8000000715,brutal,900,I,m,m,None,617,418.0,199.0,110,1,2062.0,416679.8000000715,8116,napkin,AF,B,415148,415148,413519,414432,413519,415581,414949,414949,415581,82
83,test,1,con,1,m,Thu Jun 04 2026 14:29:13 GMT-0500 (Central Daylight Time),421357.7000000477,film,800,I,m,m,None,1268,1069.0,199.0,89,1,2612.0,418745.7000000477,8116,film,AF,B,417114,417114,415585,416398,415585,418197,416915,416915,418197,83
84,test,1,inc,1,z,Thu Jun 04 2026 14:29:13 GMT-0500 (Central Daylight Time),423590.40000009537,remote,1000,I,z,z,None,693,494.0,199.0,63,1,2228.4000000953674,421362.0,8116,temper,AF,B,419930,419930,418201,419213,418201,420429,419730,419730,420429,84
85,test,1,inc,1,z,Thu Jun 04 2026 14:29:13 GMT-0500 (Central Daylight Time),425706.40000009537,napkin,900,I,z,z,None,680,480.0,200.0,62,1,2111.9000000953674,423594.5,8116,temper,AF,B,422063,422063,420434,421346,420434,422545,421862,421862,422545,85
86,test,1,con,1,z,Thu Jun 04 2026 14:29:13 GMT-0500 (Central Daylight Time),428189.10000002384,brutal,1100,I,z,z,None,837,637.0,200.0,36,1,2478.2999999523163,425710.8000000715,8116,brutal,AF,B,424378,424378,422550,423662,422550,425028,424178,424178,425028,86
87,test,1,con,1,m,Thu Jun 04 2026 14:29:13 GMT-0500 (Central Daylight Time),430321.5,rock,800,I,m,m,None,797,597.0,200.0,73,1,2128.5,428193.0,8116,rock,AF,B,426561,426561,425032,425845,425032,427161,426361,426361,427161,87
88,test,1,inc,1,m,Thu Jun 04 2026 14:29:13 GMT-0500 (Central Daylight Time),432853.7000000477,love,1000,I,m,m,None,983,784.0,199.0,87,1,2527.899999976158,430325.8000000715,8116,bell,AF,B,428894,428894,427165,428177,427165,429693,428694,428694,429693,88
89,test,1,con,1,m,Thu Jun 04 2026 14:29:13 GMT-0500 (Central Daylight Time),435020.10000002384,jacket,900,I,m,m,None,720,520.0,200.0,98,1,2162.600000023842,432857.5,8116,jacket,AF,B,431326,431326,429697,430610,429697,431859,431126,431126,431859,89
90,test,1,con,1,z,Thu Jun 04 2026 14:29:13 GMT-0500 (Central Daylight Time),437519.10000002384,brutal,900,I,z,z,None,1050,850.0,200.0,34,1,2494.6999999284744,435024.40000009537,8116,brutal,AF,B,433492,433492,431863,432776,431864,434358,433292,433292,434358,90
91,test,1,con,1,z,Thu Jun 04 2026 14:29:13 GMT-0500 (Central Daylight Time),439702.0,kind,900,I,z,z,None,760,560.0,200.0,10,1,2178.6999999284744,437523.3000000715,8116,kind,AF,B,435975,435975,434362,435274,434363,436541,435775,435775,436541,91
92,test,1,inc,1,z,Thu Jun 04 2026 14:29:13 GMT-0500 (Central Daylight Time),442434.40000009537,window,1100,I,z,z,None,1088,889.0,199.0,32,1,2728.3000000715256,439706.10000002384,8116,friend,AF,B,438374,438374,436545,437658,436545,439273,438174,438174,439273,92
93,test,1,con,1,m,Thu Jun 04 2026 14:29:13 GMT-0500 (Central Daylight Time),444683.8000000715,film,900,I,m,m,None,812,612.0,200.0,90,1,2245.7000000476837,442438.10000002384,8116,film,AF,B,440907,440907,439277,440190,439277,441523,440706,440706,441523,93
94,test,1,con,1,z,Thu Jun 04 2026 14:29:13 GMT-0500 (Central Daylight Time),446966.3000000715,elated,1100,I,z,z,None,633,434.0,199.0,4,1,2278.7000000476837,444687.60000002384,8116,elated,AF,B,443356,443356,441527,442639,441527,443805,443156,443156,443805,94
95,test,1,con,1,z,Thu Jun 04 2026 14:29:13 GMT-0500 (Central Daylight Time),449049.10000002384,friend,1000,I,z,z,None,540,341.0,199.0,27,1,2078.899999976158,446970.2000000477,8116,friend,AF,B,445538,445538,443809,444822,443810,445888,445339,445339,445888,95
96,test,1,inc,1,z,Thu Jun 04 2026 14:29:13 GMT-0500 (Central Daylight Time),451348.2000000477,step,800,I,z,z,None,954,754.0,200.0,45,1,2294.2999999523163,449053.90000009537,8116,hate,AF,B,447421,447421,445893,446705,445893,448187,447221,447221,448187,96
97,test,1,con,1,m,Thu Jun 04 2026 14:29:13 GMT-0500 (Central Daylight Time),453547.60000002384,remote,1100,I,m,m,None,554,354.0,200.0,116,1,2195.399999976158,451352.2000000477,8116,remote,AF,B,450020,450020,448191,449304,448191,450387,449820,449820,450387,97
98,test,1,con,1,z,Thu Jun 04 2026 14:29:13 GMT-0500 (Central Daylight Time),456246.8000000715,brutal,1000,I,z,z,None,1158,959.0,199.0,35,1,2695.2000000476837,453551.60000002384,8116,brutal,AF,B,452120,452120,450391,451403,450391,453086,451920,451920,453086,98
99,test,1,con,1,m,Thu Jun 04 2026 14:29:13 GMT-0500 (Central Daylight Time),458496.10000002384,rock,1000,I,m,m,None,707,508.0,199.0,75,1,2245.2999999523163,456250.8000000715,8116,rock,AF,B,454819,454819,453090,454102,453090,455335,454619,454619,455335,99
100,test,1,con,1,m,Thu Jun 04 2026 14:29:13 GMT-0500 (Central Daylight Time),460795.40000009537,remote,1000,I,m,m,None,763,563.0,200.0,115,1,2295.0,458500.40000009537,8116,remote,AF,B,457068,457068,455339,456352,455340,457634,456868,456868,457634,100
101,test,1,con,1,m,Thu Jun 04 2026 14:29:13 GMT-0500 (Central Daylight Time),463277.90000009537,step,1100,I,m,m,None,844,644.0,200.0,68,1,2478.600000023842,460799.3000000715,8116,step,AF,B,459467,459467,457638,458751,457638,460117,459267,459267,460117,101
102,test,1,inc,1,m,Thu Jun 04 2026 14:29:13 GMT-0500 (Central Daylight Time),465328.40000009537,rage,800,I,m,m,None,708,509.0,199.0,69,1,2046.4000000953674,463282.0,8116,step,AF,B,461650,461650,460121,460934,460121,462167,461451,461451,462167,102
103,test,1,con,1,m,Thu Jun 04 2026 14:29:13 GMT-0500 (Central Daylight Time),467293.10000002384,step,900,I,m,m,None,520,320.0,200.0,66,1,1961.0,465332.10000002384,8116,step,AF,B,463799,463799,462171,463083,462171,464132,463599,463599,464132,103
104,test,1,con,1,z,Thu Jun 04 2026 14:29:13 GMT-0500 (Central Daylight Time),469659.0,hate,1100,I,z,z,None,730,530.0,200.0,44,1,2361.6999999284744,467297.3000000715,8116,hate,AF,B,465965,465965,464136,465249,464137,466498,465765,465765,466498,104
105,test,1,inc,1,m,Thu Jun 04 2026 14:29:13 GMT-0500 (Central Daylight Time),471758.7000000477,elated,800,I,m,m,None,750,551.0,199.0,125,1,2095.600000023842,469663.10000002384,8116,window,AF,B,468031,468031,466502,467315,466502,468598,467832,467832,468598,105
106,test,1,con,1,z,Thu Jun 04 2026 14:29:13 GMT-0500 (Central Daylight Time),474391.10000002384,temper,1000,I,z,z,None,1091,892.0,199.0,59,1,2628.1999999284744,471762.90000009537,8116,temper,AF,B,470331,470331,468602,469614,468602,471230,470131,470131,471230,106
107,test,1,inc,1,z,Thu Jun 04 2026 14:29:13 GMT-0500 (Central Daylight Time),476773.8000000715,window,1100,I,z,z,None,735,535.0,200.0,8,1,2378.600000023842,474395.2000000477,8116,elated,AF,B,473063,473063,471234,472346,471235,473613,472863,472863,473613,107
108,test,1,con,1,m,Thu Jun 04 2026 14:29:13 GMT-0500 (Central Daylight Time),479072.90000009537,remote,900,I,m,m,None,856,657.0,199.0,114,1,2295.3000000715256,476777.60000002384,8116,remote,AF,B,475246,475246,473617,474529,473617,475912,475046,475046,475912,108
109,test,1,con,1,z,Thu Jun 04 2026 14:29:13 GMT-0500 (Central Daylight Time),482371.90000009537,temper,1100,I,z,z,None,1667,1453.0,214.0,60,1,3294.8000000715256,479077.10000002384,8116,temper,AF,B,477745,477745,475916,477028,475916,479211,477531,477531,479211,109
110,test,1,con,1,m,Thu Jun 04 2026 14:29:13 GMT-0500 (Central Daylight Time),484237.90000009537,step,800,I,m,m,None,527,327.0,200.0,65,1,1861.5,482376.40000009537,8116,step,AF,B,480744,480744,479215,480027,479216,481077,480544,480544,481077,110
111,test,1,inc,1,m,Thu Jun 04 2026 14:29:13 GMT-0500 (Central Daylight Time),486287.40000009537,rage,800,I,m,m,None,708,507.0,201.0,85,1,2045.1000000238419,484242.3000000715,8116,bell,AF,B,482611,482611,481081,481894,481082,483126,482410,482410,483126,111
112,test,1,inc,1,m,Thu Jun 04 2026 14:29:13 GMT-0500 (Central Daylight Time),488536.5,love,1000,I,m,m,None,707,507.0,200.0,79,1,2244.399999976158,486292.10000002384,8116,rock,AF,B,484859,484859,483131,484143,483131,485376,484659,484659,485376,112
113,test,1,con,1,m,Thu Jun 04 2026 14:29:13 GMT-0500 (Central Daylight Time),491202.5,bell,1100,I,m,m,None,1020,821.0,199.0,84,1,2661.899999976158,488540.60000002384,8116,bell,AF,B,487209,487209,485380,486492,485380,488042,487008,487009,488042,113
114,test,1,inc,1,z,Thu Jun 04 2026 14:29:13 GMT-0500 (Central Daylight Time),493218.5,jacket,800,I,z,z,None,671,472.0,199.0,5,1,2011.2999999523163,491207.2000000477,8116,elated,AF,B,489574,489574,488046,488858,488046,490058,489375,489375,490058,114
115,test,1,inc,1,z,Thu Jun 04 2026 14:29:13 GMT-0500 (Central Daylight Time),495568.8000000715,remote,1000,I,z,z,None,815,616.0,199.0,39,1,2346.399999976158,493222.40000009537,8116,brutal,AF,B,491790,491790,490061,491074,490062,492408,491591,491591,492408,115
116,test,1,inc,1,m,Thu Jun 04 2026 14:29:13 GMT-0500 (Central Daylight Time),497550.60000002384,elated,800,I,m,m,None,633,434.0,199.0,109,1,1977.7999999523163,495572.8000000715,8116,napkin,AF,B,493940,493940,492412,493223,492412,494390,493740,493740,494390,116
117,test,1,con,1,z,Thu Jun 04 2026 14:29:13 GMT-0500 (Central Daylight Time),499749.8000000715,elated,900,I,z,z,None,759,560.0,199.0,2,1,2195.3000000715256,497554.5,8116,elated,AF,B,496023,496023,494394,495306,494394,496589,495823,495823,496589,117
118,test,1,con,1,z,Thu Jun 04 2026 14:29:13 GMT-0500 (Central Daylight Time),501699.10000002384,friend,900,I,z,z,None,529,330.0,199.0,26,1,1945.1999999284744,499753.90000009537,8116,friend,AF,B,498205,498205,496593,497505,496593,498538,498006,498006,498538,118
119,test,1,con,1,z,Thu Jun 04 2026 14:29:13 GMT-0500 (Central Daylight Time),503548.60000002384,rage,800,I,z,z,None,504,304.0,200.0,49,1,1845.1999999284744,501703.40000009537,8116,rage,AF,B,500071,500071,498542,499356,498543,500388,499871,499871,500388,119
120,test,1,con,1,z,Thu Jun 04 2026 14:29:13 GMT-0500 (Central Daylight Time),505731.10000002384,rage,900,I,z,z,None,737,538.0,199.0,50,1,2178.1999999284744,503552.90000009537,8116,rage,AF,B,502021,502021,500392,501304,500392,502570,501821,501821,502570,120
121,test,1,inc,1,m,Thu Jun 04 2026 14:29:13 GMT-0500 (Central Daylight Time),507997.0,friend,1100,I,m,m,None,628,428.0,200.0,120,1,2262.1999999284744,505734.8000000715,8116,remote,AF,B,504403,504403,502574,503687,502574,504836,504203,504203,504836,121
122,test,1,inc,1,m,Thu Jun 04 2026 14:29:13 GMT-0500 (Central Daylight Time),510346.40000009537,kind,900,I,m,m,None,905,705.0,200.0,78,1,2345.100000023842,508001.3000000715,8116,rock,AF,B,506469,506469,504840,505753,504841,507185,506269,506269,507185,122
123,test,1,con,1,z,Thu Jun 04 2026 14:29:13 GMT-0500 (Central Daylight Time),512895.5,hate,800,I,z,z,None,1206,1007.0,199.0,41,1,2545.0,510350.5,8116,hate,AF,B,508719,508719,507190,508002,507190,509735,508519,508519,509735,123
124,test,1,con,1,m,Thu Jun 04 2026 14:29:13 GMT-0500 (Central Daylight Time),515261.40000009537,rock,1100,I,m,m,None,726,527.0,199.0,76,1,2361.600000023842,512899.8000000715,8116,rock,AF,B,511568,511568,509739,510851,509739,512100,511368,511368,512100,124
125,test,1,inc,1,m,Thu Jun 04 2026 14:29:13 GMT-0500 (Central Daylight Time),517277.60000002384,elated,800,I,m,m,None,675,476.0,199.0,117,1,2012.2999999523163,515265.3000000715,8116,remote,AF,B,513634,513634,512104,512917,512105,514117,513434,513434,514117,125
126,test,1,inc,1,m,Thu Jun 04 2026 14:29:13 GMT-0500 (Central Daylight Time),520126.5,brutal,900,I,m,m,None,1399,1200.0,199.0,118,1,2844.7999999523163,517281.7000000477,8116,remote,AF,B,515750,515750,514121,515033,514121,516966,515550,515550,516966,126
127,test,1,con,1,z,Thu Jun 04 2026 14:29:13 GMT-0500 (Central Daylight Time),521976.2000000477,friend,800,I,z,z,None,507,308.0,199.0,25,1,1846.0,520130.2000000477,8116,friend,AF,B,518499,518499,516969,517782,516969,518815,518299,518299,518815,127
128,test,1,inc,1,z,Thu Jun 04 2026 14:29:13 GMT-0500 (Central Daylight Time),524325.5,window,1100,I,z,z,None,709,510.0,199.0,40,1,2345.5,521980.0,8116,brutal,AF,B,520648,520648,518819,519932,518819,521165,520449,520449,521165,128
