acc_sum,block,block_c,condition,correct,correct_response,datetime,endtime,flanker,jitter,project,response,response_test_buffer_response,response_test_target_response,response_time,response_time_test_buffer_response,response_time_test_target_response,row_sel,session_number,start_end,starttime,subject_id,target,task,task_vers,time_test_buffer,time_test_buffer_response,time_test_constants,time_test_flanker,time_test_jitter,time_test_logger,time_test_target,time_test_target_response,time_test_variables,trial
1,prac,1,con,1,m,Fri Aug 08 2025 13:36:10 GMT-0500 (Central Daylight Time),115808.80000019073,remote,1000,O,m,,,584,,,7,1,2896.5,112912.30000019073,7183,remote,AF,B,,,,,,,,,,1
2,prac,1,inc,1,z,Fri Aug 08 2025 13:36:10 GMT-0500 (Central Daylight Time),118605.5,film,900,O,z,,,587,,,14,1,2792.5,115813.0,7183,hate,AF,B,,,,,,,,,,2
3,prac,1,con,1,z,Fri Aug 08 2025 13:36:10 GMT-0500 (Central Daylight Time),121472.90000009537,love,1000,O,z,,,560,,,11,1,2864.0999999046326,118608.80000019073,7183,love,AF,B,,,,,,,,,,3
4,prac,1,inc,1,m,Fri Aug 08 2025 13:36:10 GMT-0500 (Central Daylight Time),124437.90000009537,brutal,1100,O,m,,,576,,,8,1,2961.2999999523163,121476.60000014305,7183,window,AF,B,,,,,,,,,,4
5,prac,1,con,1,m,Fri Aug 08 2025 13:36:10 GMT-0500 (Central Daylight Time),127171.30000019073,step,800,O,m,,,623,,,1,1,2729.800000190735,124441.5,7183,step,AF,B,,,,,,,,,,5
6,prac,1,con,1,z,Fri Aug 08 2025 13:36:10 GMT-0500 (Central Daylight Time),129670.10000014305,elated,800,O,z,,,396,,,9,1,2495.5,127174.60000014305,7183,elated,AF,B,,,,,,,,,,6
7,prac,1,con,1,z,Fri Aug 08 2025 13:36:10 GMT-0500 (Central Daylight Time),132585.30000019073,brutal,800,O,z,,,823,,,13,1,2911.5,129673.80000019073,7183,brutal,AF,B,,,,,,,,,,7
8,prac,1,inc,1,m,Fri Aug 08 2025 13:36:10 GMT-0500 (Central Daylight Time),135384.70000004768,kind,900,O,m,,,592,,,2,1,2796.0999999046326,132588.60000014305,7183,rock,AF,B,,,,,,,,,,8
9,prac,1,con,1,z,Fri Aug 08 2025 13:36:10 GMT-0500 (Central Daylight Time),138101.0,rage,1000,O,z,,,413,,,15,1,2712.399999856949,135388.60000014305,7183,rage,AF,B,,,,,,,,,,9
10,prac,1,inc,1,m,Fri Aug 08 2025 13:36:10 GMT-0500 (Central Daylight Time),141032.5,hate,1100,O,m,,,525,,,4,1,2927.899999856949,138104.60000014305,7183,film,AF,B,,,,,,,,,,10
11,prac,1,inc,1,m,Fri Aug 08 2025 13:36:10 GMT-0500 (Central Daylight Time),143765.20000004768,elated,900,O,m,,,529,,,6,1,2729.0999999046326,141036.10000014305,7183,napkin,AF,B,,,,,,,,,,11
12,prac,1,inc,1,z,Fri Aug 08 2025 13:36:10 GMT-0500 (Central Daylight Time),146714.0,rock,900,O,z,,,740,,,10,1,2945.7999999523163,143768.20000004768,7183,kind,AF,B,,,,,,,,,,12
13,prac,1,inc,1,z,Fri Aug 08 2025 13:36:10 GMT-0500 (Central Daylight Time),149797.40000009537,window,1100,O,z,,,677,,,16,1,3080.0999999046326,146717.30000019073,7183,temper,AF,B,,,,,,,,,,13
14,prac,1,con,1,m,Fri Aug 08 2025 13:36:10 GMT-0500 (Central Daylight Time),152662.20000004768,bell,1000,O,m,,,561,,,3,1,2861.899999856949,149800.30000019073,7183,bell,AF,B,,,,,,,,,,14
15,prac,1,con,1,m,Fri Aug 08 2025 13:36:10 GMT-0500 (Central Daylight Time),155312.80000019073,jacket,800,O,m,,,535,,,5,1,2647.100000143051,152665.70000004768,7183,jacket,AF,B,,,,,,,,,,15
15,prac,1,inc,0,z,Fri Aug 08 2025 13:36:10 GMT-0500 (Central Daylight Time),158411.90000009537,napkin,1100,O,m,,,701,,,12,1,3095.7999999523163,155316.10000014305,7183,friend,AF,B,,,,,,,,,,16
1,test,1,inc,1,m,Fri Aug 08 2025 13:36:10 GMT-0500 (Central Daylight Time),174405.90000009537,friend,1100,O,m,m,None,563,364.0,199.0,120,1,2195.0,172210.90000009537,7183,remote,AF,B,167739,167739,165911,167023,165911,168106,167540,167540,168106,1
2,test,1,inc,1,m,Fri Aug 08 2025 13:36:10 GMT-0500 (Central Daylight Time),176655.20000004768,hate,1100,O,m,m,None,612,412.0,200.0,88,1,2246.0,174409.20000004768,7183,bell,AF,B,169939,169939,168109,169224,168110,170355,169739,169739,170355,2
3,test,1,inc,1,z,Fri Aug 08 2025 13:36:10 GMT-0500 (Central Daylight Time),178803.80000019073,remote,1000,O,z,z,None,614,414.0,200.0,31,1,2144.4000000953674,176659.40000009537,7183,friend,AF,B,172088,172089,170359,171372,170360,172504,171888,171888,172504,3
4,test,1,con,1,z,Fri Aug 08 2025 13:36:10 GMT-0500 (Central Daylight Time),180904.0,rage,1000,O,z,z,None,552,337.0,215.0,51,1,2097.0999999046326,178806.90000009537,7183,rage,AF,B,174254,174254,172507,173520,172507,174604,174039,174039,174604,4
5,test,1,con,1,m,Fri Aug 08 2025 13:36:10 GMT-0500 (Central Daylight Time),183102.40000009537,rock,1100,O,m,m,None,554,355.0,199.0,76,1,2194.7999999523163,180907.60000014305,7183,rock,AF,B,176436,176436,174608,175720,174608,176802,176236,176237,176802,5
6,test,1,con,1,z,Fri Aug 08 2025 13:36:10 GMT-0500 (Central Daylight Time),185185.80000019073,hate,900,O,z,z,None,643,444.0,199.0,42,1,2080.4000000953674,183105.40000009537,7183,hate,AF,B,178435,178435,176805,177719,176806,178886,178236,178236,178886,6
7,test,1,con,1,m,Fri Aug 08 2025 13:36:10 GMT-0500 (Central Daylight Time),187384.20000004768,step,1100,O,m,m,None,560,361.0,199.0,68,1,2195.2000000476837,185189.0,7183,step,AF,B,180718,180718,178889,180002,178889,181084,180519,180519,181084,7
8,test,1,inc,1,m,Fri Aug 08 2025 13:36:10 GMT-0500 (Central Daylight Time),189367.0,brutal,900,O,m,m,None,544,345.0,199.0,110,1,1979.5999999046326,187387.40000009537,7183,napkin,AF,B,182718,182718,181087,182002,181088,183067,182519,182519,183067,8
9,test,1,inc,1,m,Fri Aug 08 2025 13:36:10 GMT-0500 (Central Daylight Time),191449.80000019073,love,1000,O,m,m,None,535,333.0,202.0,71,1,2079.7000000476837,189370.10000014305,7183,step,AF,B,184802,184802,183070,184084,183070,185150,184600,184600,185150,9
10,test,1,inc,1,z,Fri Aug 08 2025 13:36:10 GMT-0500 (Central Daylight Time),193301.80000019073,rock,900,O,z,z,None,418,219.0,199.0,14,1,1848.3000001907349,191453.5,7183,kind,AF,B,186783,186783,185154,186068,185154,187002,186584,186584,187002,10
11,test,1,con,1,z,Fri Aug 08 2025 13:36:10 GMT-0500 (Central Daylight Time),195698.60000014305,temper,1100,O,z,z,None,748,534.0,214.0,60,1,2391.5,193307.10000014305,7183,temper,AF,B,188849,188849,187007,188116,187007,189399,188634,188634,189399,11
12,test,1,con,1,z,Fri Aug 08 2025 13:36:10 GMT-0500 (Central Daylight Time),197814.30000019073,elated,1100,O,z,z,None,470,270.0,200.0,4,1,2112.7000000476837,195701.60000014305,7183,elated,AF,B,191233,191233,189402,190517,189402,191514,191032,191032,191514,12
13,test,1,con,1,z,Fri Aug 08 2025 13:36:10 GMT-0500 (Central Daylight Time),199981.10000014305,friend,900,O,z,z,None,723,523.0,200.0,26,1,2163.4000000953674,197817.70000004768,7183,friend,AF,B,193148,193148,191518,192431,191518,193681,192948,192948,193681,13
14,test,1,con,1,m,Fri Aug 08 2025 13:36:10 GMT-0500 (Central Daylight Time),201930.10000014305,jacket,1000,O,m,m,None,402,201.0,201.0,99,1,1945.5,199984.60000014305,7183,jacket,AF,B,195414,195414,193685,194698,193685,195630,195213,195213,195630,14
15,test,1,con,1,m,Fri Aug 08 2025 13:36:10 GMT-0500 (Central Daylight Time),204313.40000009537,remote,1000,O,m,m,None,836,635.0,201.0,115,1,2380.0,201933.40000009537,7183,remote,AF,B,197364,197364,195633,196647,195634,198014,197163,197163,198013,15
16,test,1,con,1,z,Fri Aug 08 2025 13:36:10 GMT-0500 (Central Daylight Time),206128.30000019073,rage,800,O,z,z,None,469,270.0,199.0,49,1,1811.6000001430511,204316.70000004768,7183,rage,AF,B,199545,199545,198017,198830,198017,199828,199346,199346,199828,16
17,test,1,inc,1,m,Fri Aug 08 2025 13:36:10 GMT-0500 (Central Daylight Time),208161.90000009537,brutal,900,O,m,m,None,583,384.0,199.0,102,1,2030.0999999046326,206131.80000019073,7183,jacket,AF,B,201463,201463,199832,200746,199832,201862,201263,201263,201862,17
18,test,1,inc,1,m,Fri Aug 08 2025 13:36:10 GMT-0500 (Central Daylight Time),210094.5,elated,800,O,m,m,None,587,388.0,199.0,117,1,1929.6999998092651,208164.80000019073,7183,remote,AF,B,203395,203395,201865,202678,201865,203795,203195,203195,203794,18
19,test,1,con,1,z,Fri Aug 08 2025 13:36:10 GMT-0500 (Central Daylight Time),212027.90000009537,love,1000,O,z,z,None,392,192.0,200.0,19,1,1930.2000000476837,210097.70000004768,7183,love,AF,B,205527,205527,203798,204811,203798,205728,205327,205327,205728,19
20,test,1,con,1,m,Fri Aug 08 2025 13:36:10 GMT-0500 (Central Daylight Time),214025.70000004768,remote,1100,O,m,m,None,359,159.0,200.0,116,1,1994.8999998569489,212030.80000019073,7183,remote,AF,B,207560,207560,205731,206845,205731,207726,207360,207360,207726,20
21,test,1,inc,1,z,Fri Aug 08 2025 13:36:10 GMT-0500 (Central Daylight Time),216291.90000009537,window,1100,O,z,z,None,623,424.0,199.0,32,1,2262.5,214029.40000009537,7183,friend,AF,B,209559,209559,207729,208844,207730,209992,209360,209360,209992,21
22,test,1,inc,1,m,Fri Aug 08 2025 13:36:10 GMT-0500 (Central Daylight Time),218525.30000019073,hate,1100,O,m,m,None,596,394.0,202.0,80,1,2229.9000000953674,216295.40000009537,7183,rock,AF,B,211829,211829,209995,211111,209996,212225,211626,211626,212225,22
23,test,1,con,1,m,Fri Aug 08 2025 13:36:10 GMT-0500 (Central Daylight Time),220407.60000014305,film,900,O,m,m,None,446,245.0,201.0,90,1,1879.0,218528.60000014305,7183,film,AF,B,213858,213858,212229,213141,212229,214108,213657,213657,214108,23
24,test,1,inc,1,m,Fri Aug 08 2025 13:36:10 GMT-0500 (Central Daylight Time),222573.30000019073,temper,1000,O,m,m,None,621,422.0,199.0,127,1,2162.0,220411.30000019073,7183,window,AF,B,215841,215841,214111,215124,214111,216273,215641,215641,216273,24
25,test,1,con,1,m,Fri Aug 08 2025 13:36:10 GMT-0500 (Central Daylight Time),224557.10000014305,bell,800,O,m,m,None,641,439.0,202.0,81,1,1980.6000001430511,222576.5,7183,bell,AF,B,217808,217808,216276,217090,216277,218257,217606,217606,218257,25
26,test,1,con,1,z,Fri Aug 08 2025 13:36:10 GMT-0500 (Central Daylight Time),226438.60000014305,love,900,O,z,z,None,437,222.0,215.0,18,1,1878.5,224560.10000014305,7183,love,AF,B,219905,219905,218260,219174,218260,220139,219690,219690,220139,26
27,test,1,inc,1,m,Fri Aug 08 2025 13:36:10 GMT-0500 (Central Daylight Time),228421.30000019073,brutal,900,O,m,m,None,555,356.0,199.0,118,1,1978.9000000953674,226442.40000009537,7183,remote,AF,B,221755,221755,220142,221055,220143,222121,221556,221556,222121,27
28,test,1,con,1,m,Fri Aug 08 2025 13:36:10 GMT-0500 (Central Daylight Time),230187.90000009537,napkin,800,O,m,m,None,433,232.0,201.0,105,1,1763.0999999046326,228424.80000019073,7183,napkin,AF,B,223656,223656,222125,222938,222125,223888,223455,223455,223888,28
29,test,1,inc,1,z,Fri Aug 08 2025 13:36:10 GMT-0500 (Central Daylight Time),232303.5,window,1100,O,z,z,None,477,278.0,199.0,8,1,2112.899999856949,230190.60000014305,7183,elated,AF,B,225721,225721,223891,225005,223891,226004,225522,225522,226003,29
30,test,1,inc,1,z,Fri Aug 08 2025 13:36:10 GMT-0500 (Central Daylight Time),234386.80000019073,bell,1000,O,z,z,None,556,341.0,215.0,23,1,2080.4000000953674,232306.40000009537,7183,love,AF,B,227738,227738,226006,227021,226007,228087,227522,227522,228087,30
31,test,1,inc,1,z,Fri Aug 08 2025 13:36:10 GMT-0500 (Central Daylight Time),236452.20000004768,film,1100,O,z,z,None,439,240.0,199.0,48,1,2061.899999856949,234390.30000019073,7183,hate,AF,B,229903,229903,228090,229202,228091,230152,229704,229704,230152,31
32,test,1,con,1,m,Fri Aug 08 2025 13:36:10 GMT-0500 (Central Daylight Time),238652.60000014305,film,1100,O,m,m,None,565,364.0,201.0,92,1,2197.600000143051,236455.0,7183,film,AF,B,231987,231987,230155,231270,230155,232353,231785,231785,232353,32
33,test,1,inc,1,m,Fri Aug 08 2025 13:36:10 GMT-0500 (Central Daylight Time),240451.20000004768,rage,800,O,m,m,None,465,250.0,215.0,93,1,1795.5999999046326,238655.60000014305,7183,film,AF,B,233901,233901,232356,233170,232356,234151,233686,233686,234151,33
34,test,1,con,1,m,Fri Aug 08 2025 13:36:10 GMT-0500 (Central Daylight Time),242666.60000014305,bell,1000,O,m,m,None,674,475.0,199.0,83,1,2212.4000000953674,240454.20000004768,7183,bell,AF,B,235884,235884,234154,235168,234154,236367,235684,235684,236367,34
35,test,1,inc,1,z,Fri Aug 08 2025 13:36:10 GMT-0500 (Central Daylight Time),244767.5,bell,1000,O,z,z,None,562,363.0,199.0,47,1,2097.899999856949,242669.60000014305,7183,hate,AF,B,238100,238100,236370,237384,236370,238468,237901,237901,238468,35
36,test,1,inc,1,z,Fri Aug 08 2025 13:36:10 GMT-0500 (Central Daylight Time),246834.60000014305,remote,1000,O,z,z,None,528,327.0,201.0,63,1,2064.4000000953674,244770.20000004768,7183,temper,AF,B,240200,240200,238470,239483,238471,240535,239999,239999,240535,36
37,test,1,con,1,m,Fri Aug 08 2025 13:36:10 GMT-0500 (Central Daylight Time),248947.90000009537,step,1000,O,m,m,None,581,380.0,201.0,67,1,2110.7999999523163,246837.10000014305,7183,step,AF,B,242267,242267,240537,241549,240537,242648,242065,242065,242648,37
38,test,1,inc,1,z,Fri Aug 08 2025 13:36:10 GMT-0500 (Central Daylight Time),250847.80000019073,step,800,O,z,z,None,561,361.0,200.0,21,1,1896.7000000476837,248951.10000014305,7183,love,AF,B,244182,244182,242651,243466,242651,244548,243981,243981,244548,38
39,test,1,inc,1,m,Fri Aug 08 2025 13:36:10 GMT-0500 (Central Daylight Time),252946.80000019073,love,1000,O,m,m,None,548,333.0,215.0,95,1,2096.0,250850.80000019073,7183,film,AF,B,246298,246298,244551,245565,244551,246647,246082,246082,246647,39
40,test,1,con,1,z,Fri Aug 08 2025 13:36:10 GMT-0500 (Central Daylight Time),254962.60000014305,temper,900,O,z,z,None,575,375.0,200.0,58,1,2012.7999999523163,252949.80000019073,7183,temper,AF,B,248280,248280,246650,247565,246650,248663,248080,248080,248663,40
41,test,1,inc,1,z,Fri Aug 08 2025 13:36:10 GMT-0500 (Central Daylight Time),256896.60000014305,step,800,O,z,z,None,594,394.0,200.0,13,1,1930.9000000953674,254965.70000004768,7183,kind,AF,B,250197,250197,248666,249480,248666,250597,249997,249997,250597,41
41,test,1,con,0,z,Fri Aug 08 2025 13:36:10 GMT-0500 (Central Daylight Time),258911.80000019073,brutal,1000,O,m,m,None,486,287.0,199.0,35,1,2012.3000001907349,256899.5,7183,brutal,AF,B,252312,252312,250600,251612,250600,252612,252113,252113,252612,42
42,test,1,con,1,z,Fri Aug 08 2025 13:36:10 GMT-0500 (Central Daylight Time),260878.80000019073,elated,800,O,z,z,None,620,406.0,214.0,1,1,1963.9000000953674,258914.90000009537,7183,elated,AF,B,254161,254161,252615,253431,252615,254579,253947,253947,254579,43
43,test,1,con,1,z,Fri Aug 08 2025 13:36:10 GMT-0500 (Central Daylight Time),262993.7000000477,temper,800,O,z,z,None,775,560.0,215.0,57,1,2112.0999999046326,260881.60000014305,7183,temper,AF,B,256127,256127,254582,255395,254582,256694,255911,255912,256694,44
44,test,1,inc,1,m,Fri Aug 08 2025 13:36:10 GMT-0500 (Central Daylight Time),264926.30000019073,elated,800,O,m,m,None,588,388.0,200.0,101,1,1929.5,262996.80000019073,7183,jacket,AF,B,258227,258227,256697,257511,256697,258626,258027,258027,258626,45
45,test,1,con,1,z,Fri Aug 08 2025 13:36:10 GMT-0500 (Central Daylight Time),267058.80000019073,kind,800,O,z,z,None,783,582.0,201.0,9,1,2128.9000000953674,264929.90000009537,7183,kind,AF,B,260161,260161,258630,259443,258630,260759,259960,259960,260759,46
46,test,1,inc,1,m,Fri Aug 08 2025 13:36:10 GMT-0500 (Central Daylight Time),269074.7000000477,rage,800,O,m,m,None,667,467.0,200.0,69,1,2012.5999999046326,267062.10000014305,7183,step,AF,B,262292,262292,260762,261576,260762,262775,262092,262092,262775,47
47,test,1,con,1,z,Fri Aug 08 2025 13:36:10 GMT-0500 (Central Daylight Time),271057.5,rage,900,O,z,z,None,543,343.0,200.0,50,1,1979.6999998092651,269077.80000019073,7183,rage,AF,B,264408,264408,262778,263693,262778,264758,264208,264208,264758,48
48,test,1,inc,1,m,Fri Aug 08 2025 13:36:10 GMT-0500 (Central Daylight Time),273057.80000019073,kind,900,O,m,m,None,567,367.0,200.0,78,1,1996.8000001907349,271061.0,7183,rock,AF,B,266375,266376,264761,265674,264761,266758,266175,266175,266758,49
49,test,1,inc,1,z,Fri Aug 08 2025 13:36:10 GMT-0500 (Central Daylight Time),275140.0,napkin,900,O,z,z,None,648,448.0,200.0,30,1,2079.0999999046326,273060.90000009537,7183,friend,AF,B,268391,268391,266761,267674,266761,268840,268190,268190,268840,50
50,test,1,con,1,z,Fri Aug 08 2025 13:36:10 GMT-0500 (Central Daylight Time),277139.60000014305,temper,1000,O,z,z,None,465,266.0,199.0,59,1,1996.1000001430511,275143.5,7183,temper,AF,B,270573,270573,268844,269857,268844,270840,270373,270373,270840,51
51,test,1,con,1,m,Fri Aug 08 2025 13:36:10 GMT-0500 (Central Daylight Time),279105.5,rock,800,O,m,m,None,626,427.0,199.0,73,1,1962.6999998092651,277142.80000019073,7183,rock,AF,B,272372,272372,270843,271656,270843,272806,272173,272173,272806,52
52,test,1,con,1,z,Fri Aug 08 2025 13:36:10 GMT-0500 (Central Daylight Time),281388.5,friend,1000,O,z,z,None,740,540.0,200.0,27,1,2279.899999856949,279108.60000014305,7183,friend,AF,B,274539,274539,272809,273823,272809,275089,274338,274339,275089,53
53,test,1,inc,1,m,Fri Aug 08 2025 13:36:10 GMT-0500 (Central Daylight Time),283404.0,friend,1100,O,m,m,None,374,175.0,199.0,128,1,2012.2999999523163,281391.7000000477,7183,window,AF,B,276920,276920,275092,276204,275092,277104,276721,276721,277104,54
54,test,1,inc,1,m,Fri Aug 08 2025 13:36:10 GMT-0500 (Central Daylight Time),285420.80000019073,friend,1100,O,m,m,None,381,166.0,215.0,112,1,2013.9000000953674,283406.90000009537,7183,napkin,AF,B,278938,278938,277107,278220,277107,279121,278722,278722,279121,55
55,test,1,con,1,m,Fri Aug 08 2025 13:36:10 GMT-0500 (Central Daylight Time),287120.5,jacket,800,O,m,m,None,353,153.0,200.0,97,1,1694.6999998092651,285425.80000019073,7183,jacket,AF,B,280654,280654,279126,279936,279126,280821,280453,280453,280821,56
55,test,1,con,0,z,Fri Aug 08 2025 13:36:10 GMT-0500 (Central Daylight Time),289052.5,brutal,800,O,m,m,None,599,400.0,199.0,33,1,1929.1999998092651,287123.30000019073,7183,brutal,AF,B,282352,282352,280823,281637,280824,282753,282153,282153,282753,57
55,test,1,inc,0,m,Fri Aug 08 2025 13:36:10 GMT-0500 (Central Daylight Time),290835.7000000477,elated,800,O,z,z,None,449,250.0,199.0,109,1,1780.3999998569489,289055.30000019073,7183,napkin,AF,B,284286,284286,282755,283570,282756,284536,284086,284086,284536,58
56,test,1,inc,1,z,Fri Aug 08 2025 13:36:10 GMT-0500 (Central Daylight Time),292835.2000000477,jacket,800,O,z,z,None,649,450.0,199.0,5,1,1996.7999999523163,290838.40000009537,7183,elated,AF,B,286069,286069,284538,285353,284539,286535,285869,285869,286535,59
57,test,1,con,1,z,Fri Aug 08 2025 13:36:10 GMT-0500 (Central Daylight Time),294617.7000000477,hate,800,O,z,z,None,436,236.0,200.0,41,1,1779.3999998569489,292838.30000019073,7183,hate,AF,B,288067,288067,286538,287352,286538,288318,287867,287867,288318,60
58,test,1,inc,1,z,Fri Aug 08 2025 13:36:10 GMT-0500 (Central Daylight Time),296566.2000000477,napkin,900,O,z,z,None,504,305.0,199.0,62,1,1945.5,294620.7000000477,7183,temper,AF,B,289950,289950,288321,289234,288321,290266,289750,289750,290266,61
59,test,1,inc,1,m,Fri Aug 08 2025 13:36:10 GMT-0500 (Central Daylight Time),298548.7000000477,brutal,900,O,m,m,None,539,340.0,199.0,126,1,1979.7000000476837,296569.0,7183,window,AF,B,291899,291899,290269,291184,290269,292249,291700,291700,292249,62
60,test,1,inc,1,z,Fri Aug 08 2025 13:36:10 GMT-0500 (Central Daylight Time),300581.5,rock,900,O,z,z,None,596,397.0,199.0,54,1,2029.5,298552.0,7183,rage,AF,B,293882,293882,292252,293165,292252,294282,293683,293683,294282,63
61,test,1,con,1,z,Fri Aug 08 2025 13:36:10 GMT-0500 (Central Daylight Time),302464.80000019073,elated,900,O,z,z,None,444,244.0,200.0,2,1,1880.4000000953674,300584.40000009537,7183,elated,AF,B,295915,295915,294284,295200,294285,296165,295715,295715,296165,64
62,test,1,con,1,m,Fri Aug 08 2025 13:36:10 GMT-0500 (Central Daylight Time),304430.40000009537,window,1000,O,m,m,None,420,221.0,199.0,123,1,1962.7999999523163,302467.60000014305,7183,window,AF,B,297898,297898,296168,297182,296168,298131,297698,297698,298130,65
63,test,1,con,1,m,Fri Aug 08 2025 13:36:10 GMT-0500 (Central Daylight Time),306264.40000009537,napkin,900,O,m,m,None,396,197.0,199.0,106,1,1831.2000000476837,304433.2000000477,7183,napkin,AF,B,299763,299763,298133,299049,298134,299964,299564,299564,299964,66
64,test,1,con,1,m,Fri Aug 08 2025 13:36:10 GMT-0500 (Central Daylight Time),308163.2000000477,step,900,O,m,m,None,459,259.0,200.0,66,1,1895.8999998569489,306267.30000019073,7183,step,AF,B,301596,301596,299967,300880,299968,301863,301396,301396,301863,67
65,test,1,inc,1,m,Fri Aug 08 2025 13:36:10 GMT-0500 (Central Daylight Time),310161.80000019073,kind,900,O,m,m,None,575,375.0,200.0,70,1,1994.8000001907349,308167.0,7183,step,AF,B,303480,303480,301867,302779,301867,303862,303280,303280,303862,68
66,test,1,inc,1,z,Fri Aug 08 2025 13:36:10 GMT-0500 (Central Daylight Time),312077.80000019073,jacket,800,O,z,z,None,579,379.0,200.0,37,1,1913.0,310164.80000019073,7183,brutal,AF,B,305396,305396,303865,304679,303865,305778,305196,305196,305778,69
67,test,1,inc,1,m,Fri Aug 08 2025 13:36:10 GMT-0500 (Central Daylight Time),314110.60000014305,temper,1000,O,m,m,None,495,296.0,199.0,103,1,2029.7999999523163,312080.80000019073,7183,jacket,AF,B,307511,307511,305781,306796,305781,307811,307312,307312,307811,70
68,test,1,con,1,m,Fri Aug 08 2025 13:36:10 GMT-0500 (Central Daylight Time),316046.60000014305,remote,800,O,m,m,None,584,385.0,199.0,113,1,1933.1000001430511,314113.5,7183,remote,AF,B,309344,309344,307814,308628,307814,309747,309144,309144,309747,71
69,test,1,con,1,z,Fri Aug 08 2025 13:36:10 GMT-0500 (Central Daylight Time),318076.2000000477,friend,1100,O,z,z,None,390,190.0,200.0,28,1,2026.7000000476837,316049.5,7183,friend,AF,B,311577,311577,309750,310860,309750,311776,311377,311377,311776,72
70,test,1,inc,1,m,Fri Aug 08 2025 13:36:10 GMT-0500 (Central Daylight Time),320092.0,kind,900,O,m,m,None,574,374.0,200.0,94,1,2012.5,318079.5,7183,film,AF,B,313409,313409,311780,312693,311780,313792,313209,313209,313792,73
71,test,1,con,1,m,Fri Aug 08 2025 13:36:10 GMT-0500 (Central Daylight Time),322041.30000019073,film,800,O,m,m,None,601,402.0,199.0,89,1,1946.0,320095.30000019073,7183,film,AF,B,315325,315325,313795,314610,313795,315741,315126,315126,315741,74
72,test,1,inc,1,z,Fri Aug 08 2025 13:36:10 GMT-0500 (Central Daylight Time),324024.40000009537,bell,1000,O,z,z,None,436,235.0,201.0,55,1,1980.2999999523163,322044.10000014305,7183,rage,AF,B,317476,317476,315744,316758,315744,317724,317274,317274,317724,75
73,test,1,con,1,m,Fri Aug 08 2025 13:36:10 GMT-0500 (Central Daylight Time),325991.0,film,1000,O,m,m,None,444,229.0,215.0,91,1,1963.5,324027.5,7183,film,AF,B,319458,319458,317728,318741,317728,319691,319242,319242,319691,76
74,test,1,inc,1,z,Fri Aug 08 2025 13:36:10 GMT-0500 (Central Daylight Time),328040.40000009537,napkin,900,O,z,z,None,602,387.0,215.0,38,1,2046.7000000476837,325993.7000000477,7183,brutal,AF,B,321340,321340,319694,320607,319694,321740,321125,321125,321740,77
75,test,1,inc,1,m,Fri Aug 08 2025 13:36:10 GMT-0500 (Central Daylight Time),330056.7000000477,rage,800,O,m,m,None,679,478.0,201.0,85,1,2013.0999999046326,328043.60000014305,7183,bell,AF,B,323273,323273,321744,322557,321744,323757,323072,323072,323757,78
76,test,1,con,1,z,Fri Aug 08 2025 13:36:10 GMT-0500 (Central Daylight Time),332189.2000000477,kind,1000,O,z,z,None,597,382.0,215.0,11,1,2129.5,330059.7000000477,7183,kind,AF,B,325505,325505,323760,324772,323760,325889,325290,325290,325889,79
77,test,1,inc,1,m,Fri Aug 08 2025 13:36:10 GMT-0500 (Central Daylight Time),334020.80000019073,elated,800,O,m,m,None,498,298.0,200.0,125,1,1828.6000001430511,332192.2000000477,7183,window,AF,B,327421,327421,325892,326705,325892,327721,327221,327221,327721,80
78,test,1,con,1,m,Fri Aug 08 2025 13:36:10 GMT-0500 (Central Daylight Time),335790.10000014305,window,800,O,m,m,None,426,225.0,201.0,121,1,1766.6000001430511,334023.5,7183,window,AF,B,329255,329255,327724,328537,327724,329490,329054,329054,329490,81
79,test,1,con,1,z,Fri Aug 08 2025 13:36:10 GMT-0500 (Central Daylight Time),338136.7000000477,rage,1100,O,z,z,None,701,502.0,199.0,52,1,2342.0999999046326,335794.60000014305,7183,rage,AF,B,331321,331321,329495,330604,329495,331837,331121,331121,331837,82
80,test,1,con,1,z,Fri Aug 08 2025 13:36:10 GMT-0500 (Central Daylight Time),339869.90000009537,friend,800,O,z,z,None,388,189.0,199.0,25,1,1730.0999999046326,338139.80000019073,7183,friend,AF,B,333369,333370,331840,332653,331840,333570,333170,333170,333570,83
81,test,1,con,1,z,Fri Aug 08 2025 13:36:10 GMT-0500 (Central Daylight Time),341901.7000000477,kind,1100,O,z,z,None,389,188.0,201.0,12,1,2027.7999999523163,339873.90000009537,7183,kind,AF,B,335403,335403,333574,334687,333574,335602,335202,335202,335602,84
81,test,1,inc,0,z,Fri Aug 08 2025 13:36:10 GMT-0500 (Central Daylight Time),343618.10000014305,jacket,800,O,m,m,None,368,168.0,200.0,29,1,1713.1000001430511,341905.0,7183,friend,AF,B,337135,337135,335605,336419,335605,337318,336935,336935,337318,85
82,test,1,con,1,m,Fri Aug 08 2025 13:36:10 GMT-0500 (Central Daylight Time),345384.80000019073,step,800,O,m,m,None,436,237.0,199.0,65,1,1763.6000001430511,343621.2000000477,7183,step,AF,B,338834,338834,337321,338134,337321,339085,338635,338635,339085,86
83,test,1,inc,1,m,Fri Aug 08 2025 13:36:10 GMT-0500 (Central Daylight Time),347484.30000019073,love,1000,O,m,m,None,558,358.0,200.0,79,1,2096.600000143051,345387.7000000477,7183,rock,AF,B,340817,340817,339088,340101,339088,341184,340617,340617,341184,87
84,test,1,con,1,m,Fri Aug 08 2025 13:36:10 GMT-0500 (Central Daylight Time),349532.7000000477,remote,900,O,m,m,None,607,405.0,202.0,114,1,2045.5,347487.2000000477,7183,remote,AF,B,342818,342818,341187,342101,341188,343233,342616,342616,343233,88
85,test,1,inc,1,z,Fri Aug 08 2025 13:36:10 GMT-0500 (Central Daylight Time),351482.80000019073,step,800,O,z,z,None,625,425.0,200.0,53,1,1947.3000001907349,349535.5,7183,rage,AF,B,344750,344750,343236,344049,343236,345183,344550,344550,345183,89
86,test,1,inc,1,m,Fri Aug 08 2025 13:36:10 GMT-0500 (Central Daylight Time),353566.2000000477,temper,1000,O,m,m,None,556,357.0,199.0,119,1,2080.7000000476837,351485.5,7183,remote,AF,B,346899,346899,345186,346199,345186,347266,346700,346700,347266,90
87,test,1,inc,1,z,Fri Aug 08 2025 13:36:10 GMT-0500 (Central Daylight Time),355664.0,bell,1000,O,z,z,None,567,368.0,199.0,15,1,2092.5999999046326,353571.40000009537,7183,kind,AF,B,348983,348983,347271,348282,347272,349364,348783,348783,349364,91
88,test,1,inc,1,z,Fri Aug 08 2025 13:36:10 GMT-0500 (Central Daylight Time),357880.10000014305,film,1100,O,z,z,None,593,394.0,199.0,56,1,2213.0,355667.10000014305,7183,rage,AF,B,351181,351181,349367,350480,349367,351580,350982,350982,351580,92
89,test,1,inc,1,z,Fri Aug 08 2025 13:36:10 GMT-0500 (Central Daylight Time),359996.10000014305,remote,1000,O,z,z,None,586,374.0,212.0,39,1,2113.2000000476837,357882.90000009537,7183,brutal,AF,B,353313,353313,351583,352597,351583,353696,353101,353101,353696,93
90,test,1,inc,1,z,Fri Aug 08 2025 13:36:10 GMT-0500 (Central Daylight Time),361945.2000000477,rock,900,O,z,z,None,509,293.0,216.0,22,1,1946.2000000476837,359999.0,7183,love,AF,B,355346,355346,353699,354613,353699,355645,355130,355130,355645,94
91,test,1,inc,1,m,Fri Aug 08 2025 13:36:10 GMT-0500 (Central Daylight Time),364044.90000009537,temper,1000,O,m,m,None,555,355.0,200.0,111,1,2096.7000000476837,361948.2000000477,7183,napkin,AF,B,357380,357380,355648,356663,355648,357745,357180,357180,357745,95
92,test,1,inc,1,z,Fri Aug 08 2025 13:36:10 GMT-0500 (Central Daylight Time),366027.60000014305,rock,900,O,z,z,None,565,366.0,199.0,46,1,1979.5,364048.10000014305,7183,hate,AF,B,359361,359361,357748,358661,357748,359728,359162,359162,359728,96
93,test,1,inc,1,z,Fri Aug 08 2025 13:36:10 GMT-0500 (Central Daylight Time),368111.2000000477,remote,1000,O,z,z,None,538,337.0,201.0,7,1,2080.7000000476837,366030.5,7183,elated,AF,B,361462,361462,359731,360746,359731,361811,361261,361261,361811,97
94,test,1,con,1,m,Fri Aug 08 2025 13:36:10 GMT-0500 (Central Daylight Time),370230.10000014305,bell,1100,O,m,m,None,503,300.0,203.0,84,1,2115.7999999523163,368114.30000019073,7183,bell,AF,B,363630,363630,361814,362926,361814,363930,363427,363427,363930,98
95,test,1,con,1,m,Fri Aug 08 2025 13:36:10 GMT-0500 (Central Daylight Time),372258.90000009537,window,900,O,m,m,None,599,384.0,215.0,122,1,2023.0,370235.90000009537,7183,window,AF,B,365559,365559,363936,364843,363936,365959,365344,365344,365959,99
96,test,1,con,1,m,Fri Aug 08 2025 13:36:10 GMT-0500 (Central Daylight Time),374359.0,rock,1000,O,m,m,None,553,338.0,215.0,75,1,2097.399999856949,372261.60000014305,7183,rock,AF,B,367709,367709,365962,366979,365962,368059,367494,367494,368059,100
97,test,1,con,1,z,Fri Aug 08 2025 13:36:10 GMT-0500 (Central Daylight Time),376095.30000019073,love,800,O,z,z,None,401,201.0,200.0,17,1,1733.4000000953674,374361.90000009537,7183,love,AF,B,369594,369594,368062,368878,368062,369795,369394,369394,369795,101
98,test,1,con,1,m,Fri Aug 08 2025 13:36:10 GMT-0500 (Central Daylight Time),378158.5,napkin,1000,O,m,m,None,522,321.0,201.0,107,1,2057.0,376101.5,7183,napkin,AF,B,371527,371527,369802,370809,369802,371859,371326,371326,371859,102
99,test,1,con,1,m,Fri Aug 08 2025 13:36:10 GMT-0500 (Central Daylight Time),380076.40000009537,bell,900,O,m,m,None,483,284.0,199.0,82,1,1912.4000000953674,378164.0,7183,bell,AF,B,373492,373492,371864,372777,371864,373776,373293,373293,373776,103
100,test,1,inc,1,m,Fri Aug 08 2025 13:36:10 GMT-0500 (Central Daylight Time),382208.10000014305,friend,1100,O,m,m,None,486,285.0,201.0,104,1,2127.2999999523163,380080.80000019073,7183,jacket,AF,B,375611,375611,373781,374892,373781,375908,375409,375409,375908,104
101,test,1,inc,1,m,Fri Aug 08 2025 13:36:10 GMT-0500 (Central Daylight Time),384125.30000019073,rage,800,O,m,m,None,583,383.0,200.0,77,1,1912.3000001907349,382213.0,7183,rock,AF,B,377442,377442,375913,376726,375913,377825,377242,377242,377825,105
102,test,1,con,1,m,Fri Aug 08 2025 13:36:10 GMT-0500 (Central Daylight Time),386324.2000000477,napkin,1100,O,m,m,None,548,348.0,200.0,108,1,2193.7000000476837,384130.5,7183,napkin,AF,B,379660,379660,377831,378941,377831,380024,379459,379459,380024,106
103,test,1,con,1,z,Fri Aug 08 2025 13:36:10 GMT-0500 (Central Daylight Time),388322.40000009537,elated,1000,O,z,z,None,458,257.0,201.0,3,1,1992.4000000953674,386330.0,7183,elated,AF,B,381759,381759,380030,381041,380030,382022,381557,381557,382022,107
104,test,1,con,1,m,Fri Aug 08 2025 13:36:10 GMT-0500 (Central Daylight Time),390339.7000000477,window,1100,O,m,m,None,375,176.0,199.0,124,1,2013.5999999046326,388326.10000014305,7183,window,AF,B,383857,383857,382026,383140,382026,384040,383656,383657,384040,108
105,test,1,con,1,z,Fri Aug 08 2025 13:36:10 GMT-0500 (Central Daylight Time),392156.7000000477,kind,900,O,z,z,None,383,183.0,200.0,10,1,1812.7000000476837,390344.0,7183,kind,AF,B,385673,385673,384044,384955,384044,385857,385472,385472,385857,109
106,test,1,inc,1,m,Fri Aug 08 2025 13:36:10 GMT-0500 (Central Daylight Time),394353.90000009537,hate,1100,O,m,m,None,561,360.0,201.0,96,1,2192.5,392161.40000009537,7183,film,AF,B,387689,387689,385861,386971,385862,388054,387488,387488,388054,110
106,test,1,con,0,z,Fri Aug 08 2025 13:36:10 GMT-0500 (Central Daylight Time),396420.30000019073,hate,1100,O,m,m,None,424,225.0,199.0,44,1,2062.300000190735,394358.0,7183,hate,AF,B,389888,389888,388058,389171,388058,390120,389688,389688,390120,111
107,test,1,inc,1,m,Fri Aug 08 2025 13:36:10 GMT-0500 (Central Daylight Time),398485.30000019073,love,1000,O,m,m,None,524,323.0,201.0,87,1,2060.4000000953674,396424.90000009537,7183,bell,AF,B,391854,391854,390125,391137,390125,392185,391652,391652,392185,112
108,test,1,inc,1,z,Fri Aug 08 2025 13:36:10 GMT-0500 (Central Daylight Time),400518.2000000477,film,1100,O,z,z,None,387,188.0,199.0,24,1,2027.8999998569489,398490.30000019073,7183,love,AF,B,394020,394020,392190,393304,392191,394218,393820,393820,394218,113
109,test,1,con,1,m,Fri Aug 08 2025 13:36:10 GMT-0500 (Central Daylight Time),402518.5,rock,900,O,m,m,None,555,355.0,200.0,74,1,1996.6999998092651,400521.80000019073,7183,rock,AF,B,395853,395853,394222,395138,394222,396219,395652,395652,396218,114
110,test,1,inc,1,z,Fri Aug 08 2025 13:36:10 GMT-0500 (Central Daylight Time),404367.30000019073,napkin,900,O,z,z,None,412,213.0,199.0,6,1,1843.8000001907349,402523.5,7183,elated,AF,B,397852,397852,396224,397136,396224,398067,397652,397652,398067,115
111,test,1,inc,1,z,Fri Aug 08 2025 13:36:10 GMT-0500 (Central Daylight Time),406201.80000019073,step,800,O,z,z,None,488,288.0,200.0,45,1,1829.8000001907349,404372.0,7183,hate,AF,B,399600,399600,398072,398885,398072,399902,399400,399400,399902,116
111,test,1,con,0,z,Fri Aug 08 2025 13:36:10 GMT-0500 (Central Daylight Time),408299.90000009537,brutal,1100,O,m,m,None,466,266.0,200.0,36,1,2091.7000000476837,406208.2000000477,7183,brutal,AF,B,401734,401734,399908,401016,399909,402000,401534,401534,402000,117
112,test,1,con,1,z,Fri Aug 08 2025 13:36:10 GMT-0500 (Central Daylight Time),410180.7000000477,brutal,900,O,z,z,None,446,230.0,216.0,34,1,1876.7999999523163,408303.90000009537,7183,brutal,AF,B,403634,403634,402004,402916,402004,403881,403417,403417,403881,118
113,test,1,con,1,z,Fri Aug 08 2025 13:36:10 GMT-0500 (Central Daylight Time),412230.5,love,1100,O,z,z,None,414,215.0,199.0,20,1,2043.5,410187.0,7183,love,AF,B,405713,405713,403887,404997,403887,405931,405514,405514,405931,119
114,test,1,inc,1,z,Fri Aug 08 2025 13:36:10 GMT-0500 (Central Daylight Time),414264.2000000477,jacket,800,O,z,z,None,690,486.0,204.0,61,1,2028.3999998569489,412235.80000019073,7183,temper,AF,B,407466,407466,405936,406747,405936,407964,407262,407262,407964,120
115,test,1,inc,1,m,Fri Aug 08 2025 13:36:10 GMT-0500 (Central Daylight Time),416297.0,kind,900,O,m,m,None,587,386.0,201.0,86,1,2028.0,414269.0,7183,bell,AF,B,409598,409598,407969,408881,407969,409997,409396,409396,409997,121
116,test,1,con,1,z,Fri Aug 08 2025 13:36:10 GMT-0500 (Central Daylight Time),418328.40000009537,hate,1000,O,z,z,None,500,301.0,199.0,43,1,2026.5999999046326,416301.80000019073,7183,hate,AF,B,411714,411714,410002,411013,410002,412028,411514,411515,412028,122
117,test,1,inc,1,z,Fri Aug 08 2025 13:36:10 GMT-0500 (Central Daylight Time),420429.30000019073,window,1100,O,z,z,None,466,267.0,199.0,64,1,2098.2000000476837,418331.10000014305,7183,temper,AF,B,413846,413846,412031,413146,412031,414129,413647,413647,414129,123
118,test,1,inc,1,m,Fri Aug 08 2025 13:36:10 GMT-0500 (Central Daylight Time),422543.80000019073,hate,1100,O,m,m,None,469,270.0,199.0,72,1,2109.600000143051,420434.2000000477,7183,step,AF,B,415962,415962,414134,415247,414134,416244,415762,415762,416244,124
119,test,1,inc,1,z,Fri Aug 08 2025 13:36:10 GMT-0500 (Central Daylight Time),424744.80000019073,window,1100,O,z,z,None,562,362.0,200.0,40,1,2195.7000000476837,422549.10000014305,7183,brutal,AF,B,418079,418079,416249,417363,416249,418445,417879,417879,418445,125
120,test,1,con,1,m,Fri Aug 08 2025 13:36:10 GMT-0500 (Central Daylight Time),426593.30000019073,jacket,900,O,m,m,None,411,211.0,200.0,98,1,1843.5,424749.80000019073,7183,jacket,AF,B,420078,420078,418450,419362,418450,420293,419878,419878,420293,126
121,test,1,con,1,m,Fri Aug 08 2025 13:36:10 GMT-0500 (Central Daylight Time),428693.0,jacket,1100,O,m,m,None,456,256.0,200.0,100,1,2095.5,426597.5,7183,jacket,AF,B,422128,422128,420298,421410,420298,422393,421927,421927,422393,127
122,test,1,inc,1,z,Fri Aug 08 2025 13:36:10 GMT-0500 (Central Daylight Time),430910.40000009537,film,1100,O,z,z,None,583,383.0,200.0,16,1,2212.7000000476837,428697.7000000477,7183,kind,AF,B,424227,424227,422398,423509,422398,424610,424027,424027,424610,128
