acc_sum,block,block_c,change,condition,correct,correct_response,datetime,endtime,face,project,response,response_time,row_sel,session_number,start_end,starttime,subject_id,task,task_vers,trial
0,prac,1,,1-Back,,,Mon Oct 06 2025 16:59:54 GMT-0500 (Central Daylight Time),,050_m_f_n_a.png,I,space,3200,1,1,,,8068,NNB,A,0
1,prac,1,0.0,1-Back,1.0,m,Mon Oct 06 2025 16:59:54 GMT-0500 (Central Daylight Time),109653.40000003576,063_y_f_n_a.png,I,m,1364,2,1,2175.800000011921,107477.60000002384,8068,NNB,A,1
1,prac,1,1.0,1-Back,0.0,z,Mon Oct 06 2025 16:59:54 GMT-0500 (Central Daylight Time),112434.10000002384,063_y_f_n_a.png,I,None,2005,3,1,2770.300000011921,109663.80000001192,8068,NNB,A,2
1,prac,1,0.0,1-Back,0.0,m,Mon Oct 06 2025 16:59:54 GMT-0500 (Central Daylight Time),115234.30000001192,053_o_m_n_a.png,I,None,2002,4,1,2787.899999976158,112446.40000003576,8068,NNB,A,3
2,prac,1,0.0,1-Back,1.0,m,Mon Oct 06 2025 16:59:54 GMT-0500 (Central Daylight Time),117867.0,058_m_m_n_a.png,I,m,1827,5,1,2622.0,115245.0,8068,NNB,A,4
2,prac,1,1.0,1-Back,0.0,z,Mon Oct 06 2025 16:59:54 GMT-0500 (Central Daylight Time),120363.5,058_m_m_n_a.png,I,m,1713,6,1,2484.5,117879.0,8068,NNB,A,5
2,prac,1,0.0,1-Back,0.0,m,Mon Oct 06 2025 16:59:54 GMT-0500 (Central Daylight Time),123198.90000003576,047_o_f_n_a.png,I,None,2009,7,1,2824.400000035763,120374.5,8068,NNB,A,6
3,prac,1,0.0,1-Back,1.0,m,Mon Oct 06 2025 16:59:54 GMT-0500 (Central Daylight Time),125248.90000003576,045_m_m_n_a.png,I,m,1269,8,1,2039.9000000357628,123209.0,8068,NNB,A,7
4,prac,1,0.0,1-Back,1.0,m,Mon Oct 06 2025 16:59:54 GMT-0500 (Central Daylight Time),127147.30000001192,050_m_f_n_a.png,I,m,1108,9,1,1886.800000011921,125260.5,8068,NNB,A,8
5,prac,1,1.0,1-Back,1.0,z,Mon Oct 06 2025 16:59:54 GMT-0500 (Central Daylight Time),128763.0,050_m_f_n_a.png,I,z,834,10,1,1605.199999988079,127157.80000001192,8068,NNB,A,9
6,prac,1,0.0,1-Back,1.0,m,Mon Oct 06 2025 16:59:54 GMT-0500 (Central Daylight Time),131296.30000001192,053_o_m_n_a.png,I,m,1757,11,1,2522.199999988079,128774.10000002384,8068,NNB,A,10
7,prac,1,0.0,1-Back,1.0,m,Mon Oct 06 2025 16:59:54 GMT-0500 (Central Daylight Time),133011.5,010_y_f_n_a.png,I,m,880,12,1,1704.300000011921,131307.19999998808,8068,NNB,A,11
0,test,1,0.0,1-Back,,,Mon Oct 06 2025 16:59:54 GMT-0500 (Central Daylight Time),133011.5,063_y_f_n_a.png,I,space,7504,1,1,1704.300000011921,131307.19999998808,8068,NNB,A,0
1,test,1,0.0,1-Back,1.0,m,Mon Oct 06 2025 16:59:54 GMT-0500 (Central Daylight Time),155754.80000001192,043_m_f_n_a.png,I,m,1563,2,1,2571.899999976158,153182.90000003576,8068,NNB,A,1
1,test,1,0.0,1-Back,0.0,m,Mon Oct 06 2025 16:59:54 GMT-0500 (Central Daylight Time),158787.0,010_y_f_n_a.png,I,None,2016,3,1,3023.099999964237,155763.90000003576,8068,NNB,A,2
1,test,1,1.0,1-Back,0.0,z,Mon Oct 06 2025 16:59:54 GMT-0500 (Central Daylight Time),160520.69999998808,010_y_f_n_a.png,I,m,697,4,1,1724.3999999761581,158796.30000001192,8068,NNB,A,3
1,test,1,0.0,1-Back,0.0,m,Mon Oct 06 2025 16:59:54 GMT-0500 (Central Daylight Time),163553.5,043_m_f_n_a.png,I,None,2017,5,1,3022.099999964237,160531.40000003576,8068,NNB,A,4
1,test,1,0.0,1-Back,0.0,m,Mon Oct 06 2025 16:59:54 GMT-0500 (Central Daylight Time),165318.40000003576,053_o_m_n_a.png,I,z,734,6,1,1753.4000000357628,163565.0,8068,NNB,A,5
1,test,1,1.0,1-Back,0.0,z,Mon Oct 06 2025 16:59:54 GMT-0500 (Central Daylight Time),167002.5,053_o_m_n_a.png,I,m,666,7,1,1673.0999999642372,165329.40000003576,8068,NNB,A,6
2,test,1,0.0,1-Back,1.0,m,Mon Oct 06 2025 16:59:54 GMT-0500 (Central Daylight Time),169317.0,058_m_m_n_a.png,I,m,1294,8,1,2305.0,167012.0,8068,NNB,A,7
3,test,1,0.0,1-Back,1.0,m,Mon Oct 06 2025 16:59:54 GMT-0500 (Central Daylight Time),171166.10000002384,047_o_f_n_a.png,I,m,818,9,1,1837.5,169328.60000002384,8068,NNB,A,8
4,test,1,0.0,1-Back,1.0,m,Mon Oct 06 2025 16:59:54 GMT-0500 (Central Daylight Time),173266.19999998808,058_m_m_n_a.png,I,m,1066,10,1,2088.7999999523163,171177.40000003576,8068,NNB,A,9
5,test,1,0.0,1-Back,1.0,m,Mon Oct 06 2025 16:59:54 GMT-0500 (Central Daylight Time),174998.30000001192,041_y_m_n_a.png,I,m,710,11,1,1721.699999988079,173276.60000002384,8068,NNB,A,10
6,test,1,1.0,1-Back,1.0,z,Mon Oct 06 2025 16:59:54 GMT-0500 (Central Daylight Time),177080.90000003576,041_y_m_n_a.png,I,z,1056,12,1,2073.100000023842,175007.80000001192,8068,NNB,A,11
7,test,1,0.0,1-Back,1.0,m,Mon Oct 06 2025 16:59:54 GMT-0500 (Central Daylight Time),179146.40000003576,044_o_f_n_a.png,I,m,1045,13,1,2052.800000011921,177093.60000002384,8068,NNB,A,12
7,test,1,1.0,1-Back,0.0,z,Mon Oct 06 2025 16:59:54 GMT-0500 (Central Daylight Time),181346.40000003576,044_o_f_n_a.png,I,m,1182,14,1,2188.600000023842,179157.80000001192,8068,NNB,A,13
8,test,1,0.0,1-Back,1.0,m,Mon Oct 06 2025 16:59:54 GMT-0500 (Central Daylight Time),183929.80000001192,008_y_m_n_a.png,I,m,1557,15,1,2572.199999988079,181357.60000002384,8068,NNB,A,14
9,test,1,0.0,1-Back,1.0,m,Mon Oct 06 2025 16:59:54 GMT-0500 (Central Daylight Time),186512.40000003576,050_m_f_n_a.png,I,m,1549,16,1,2569.900000035763,183942.5,8068,NNB,A,15
10,test,1,0.0,1-Back,1.0,m,Mon Oct 06 2025 16:59:54 GMT-0500 (Central Daylight Time),188344.5,046_o_m_n_a.png,I,m,807,17,1,1819.8999999761581,186524.60000002384,8068,NNB,A,16
11,test,1,0.0,1-Back,1.0,m,Mon Oct 06 2025 16:59:54 GMT-0500 (Central Daylight Time),190560.0,050_m_f_n_a.png,I,m,1197,18,1,2208.199999988079,188351.80000001192,8068,NNB,A,17
0,test,2,0.0,1-Back,,,Mon Oct 06 2025 16:59:54 GMT-0500 (Central Daylight Time),190560.0,058_m_m_n_a.png,I,space,1590,1,1,2208.199999988079,188351.80000001192,8068,NNB,A,0
1,test,2,0.0,1-Back,1.0,m,Mon Oct 06 2025 16:59:54 GMT-0500 (Central Daylight Time),196391.0,043_m_f_n_a.png,I,m,1191,2,1,2203.5,194187.5,8068,NNB,A,1
2,test,2,1.0,1-Back,1.0,z,Mon Oct 06 2025 16:59:54 GMT-0500 (Central Daylight Time),198290.19999998808,043_m_f_n_a.png,I,z,871,3,1,1888.7999999523163,196401.40000003576,8068,NNB,A,2
3,test,2,0.0,1-Back,1.0,m,Mon Oct 06 2025 16:59:54 GMT-0500 (Central Daylight Time),200623.5,058_m_m_n_a.png,I,m,1310,4,1,2322.0,198301.5,8068,NNB,A,3
4,test,2,0.0,1-Back,1.0,m,Mon Oct 06 2025 16:59:54 GMT-0500 (Central Daylight Time),203538.30000001192,041_y_m_n_a.png,I,m,1886,5,1,2902.199999988079,200636.10000002384,8068,NNB,A,4
5,test,2,0.0,1-Back,1.0,m,Mon Oct 06 2025 16:59:54 GMT-0500 (Central Daylight Time),205355.30000001192,063_y_f_n_a.png,I,m,795,6,1,1810.6000000238419,203544.69999998808,8068,NNB,A,5
6,test,2,1.0,1-Back,1.0,z,Mon Oct 06 2025 16:59:54 GMT-0500 (Central Daylight Time),207338.60000002384,063_y_f_n_a.png,I,z,957,7,1,1972.1000000238419,205366.5,8068,NNB,A,6
7,test,2,0.0,1-Back,1.0,m,Mon Oct 06 2025 16:59:54 GMT-0500 (Central Daylight Time),209437.30000001192,041_y_m_n_a.png,I,m,1068,8,1,2088.0,207349.30000001192,8068,NNB,A,7
8,test,2,0.0,1-Back,1.0,m,Mon Oct 06 2025 16:59:54 GMT-0500 (Central Daylight Time),211320.80000001192,044_o_f_n_a.png,I,m,850,9,1,1875.1000000238419,209445.69999998808,8068,NNB,A,8
9,test,2,0.0,1-Back,1.0,m,Mon Oct 06 2025 16:59:54 GMT-0500 (Central Daylight Time),213152.90000003576,045_m_m_n_a.png,I,m,815,10,1,1820.7000000476837,211332.19999998808,8068,NNB,A,9
10,test,2,1.0,1-Back,1.0,z,Mon Oct 06 2025 16:59:54 GMT-0500 (Central Daylight Time),215417.30000001192,045_m_m_n_a.png,I,z,1237,11,1,2253.300000011921,213164.0,8068,NNB,A,10
11,test,2,0.0,1-Back,1.0,m,Mon Oct 06 2025 16:59:54 GMT-0500 (Central Daylight Time),218334.19999998808,044_o_f_n_a.png,I,m,1892,12,1,2911.099999964237,215423.10000002384,8068,NNB,A,11
12,test,2,0.0,1-Back,1.0,m,Mon Oct 06 2025 16:59:54 GMT-0500 (Central Daylight Time),221100.80000001192,047_o_f_n_a.png,I,m,1737,13,1,2756.899999976158,218343.90000003576,8068,NNB,A,12
13,test,2,0.0,1-Back,1.0,m,Mon Oct 06 2025 16:59:54 GMT-0500 (Central Daylight Time),223198.90000003576,053_o_m_n_a.png,I,m,1075,14,1,2087.7000000476837,221111.19999998808,8068,NNB,A,13
14,test,2,0.0,1-Back,1.0,m,Mon Oct 06 2025 16:59:54 GMT-0500 (Central Daylight Time),225017.69999998808,046_o_m_n_a.png,I,m,801,15,1,1808.5,223209.19999998808,8068,NNB,A,14
15,test,2,1.0,1-Back,1.0,z,Mon Oct 06 2025 16:59:54 GMT-0500 (Central Daylight Time),226899.0,046_o_m_n_a.png,I,z,853,16,1,1872.0,225027.0,8068,NNB,A,15
16,test,2,0.0,1-Back,1.0,m,Mon Oct 06 2025 16:59:54 GMT-0500 (Central Daylight Time),228930.90000003576,008_y_m_n_a.png,I,m,1015,17,1,2023.4000000357628,226907.5,8068,NNB,A,16
17,test,2,1.0,1-Back,1.0,z,Mon Oct 06 2025 16:59:54 GMT-0500 (Central Daylight Time),231148.0,008_y_m_n_a.png,I,z,1199,18,1,2206.800000011921,228941.19999998808,8068,NNB,A,17
0,test,3,1.0,1-Back,,,Mon Oct 06 2025 16:59:54 GMT-0500 (Central Daylight Time),231148.0,010_y_f_n_a.png,I,space,1604,1,1,2206.800000011921,228941.19999998808,8068,NNB,A,0
1,test,3,0.0,1-Back,1.0,m,Mon Oct 06 2025 16:59:54 GMT-0500 (Central Daylight Time),236995.19999998808,046_o_m_n_a.png,I,m,1144,2,1,2155.0,234840.19999998808,8068,NNB,A,1
2,test,3,1.0,1-Back,1.0,z,Mon Oct 06 2025 16:59:54 GMT-0500 (Central Daylight Time),238928.69999998808,046_o_m_n_a.png,I,z,908,3,1,1923.5,237005.19999998808,8068,NNB,A,2
3,test,3,0.0,1-Back,1.0,m,Mon Oct 06 2025 16:59:54 GMT-0500 (Central Daylight Time),241193.90000003576,050_m_f_n_a.png,I,m,1241,4,1,2255.400000035763,238938.5,8068,NNB,A,3
4,test,3,1.0,1-Back,1.0,z,Mon Oct 06 2025 16:59:54 GMT-0500 (Central Daylight Time),243243.60000002384,050_m_f_n_a.png,I,z,1020,5,1,2039.199999988079,241204.40000003576,8068,NNB,A,4
5,test,3,0.0,1-Back,1.0,m,Mon Oct 06 2025 16:59:54 GMT-0500 (Central Daylight Time),245326.30000001192,044_o_f_n_a.png,I,m,1059,6,1,2073.100000023842,243253.19999998808,8068,NNB,A,5
5,test,3,0.0,1-Back,0.0,m,Mon Oct 06 2025 16:59:54 GMT-0500 (Central Daylight Time),248358.69999998808,041_y_m_n_a.png,I,None,2016,7,1,3022.099999964237,245336.60000002384,8068,NNB,A,6
6,test,3,0.0,1-Back,1.0,m,Mon Oct 06 2025 16:59:54 GMT-0500 (Central Daylight Time),250460.60000002384,044_o_f_n_a.png,I,m,1084,8,1,2092.699999988079,248367.90000003576,8068,NNB,A,7
7,test,3,0.0,1-Back,1.0,m,Mon Oct 06 2025 16:59:54 GMT-0500 (Central Daylight Time),252340.10000002384,008_y_m_n_a.png,I,m,862,9,1,1871.6000000238419,250468.5,8068,NNB,A,8
8,test,3,1.0,1-Back,1.0,z,Mon Oct 06 2025 16:59:54 GMT-0500 (Central Daylight Time),254156.40000003576,008_y_m_n_a.png,I,z,794,10,1,1806.2000000476837,252350.19999998808,8068,NNB,A,9
9,test,3,0.0,1-Back,1.0,m,Mon Oct 06 2025 16:59:54 GMT-0500 (Central Daylight Time),256480.0,043_m_f_n_a.png,I,m,1306,11,1,2315.399999976158,254164.60000002384,8068,NNB,A,10
10,test,3,0.0,1-Back,1.0,m,Mon Oct 06 2025 16:59:54 GMT-0500 (Central Daylight Time),258424.0,063_y_f_n_a.png,I,m,918,12,1,1938.0,256486.0,8068,NNB,A,11
11,test,3,1.0,1-Back,1.0,z,Mon Oct 06 2025 16:59:54 GMT-0500 (Central Daylight Time),260287.90000003576,063_y_f_n_a.png,I,z,842,13,1,1854.4000000357628,258433.5,8068,NNB,A,12
12,test,3,0.0,1-Back,1.0,m,Mon Oct 06 2025 16:59:54 GMT-0500 (Central Daylight Time),262170.90000003576,043_m_f_n_a.png,I,m,856,14,1,1872.4000000357628,260298.5,8068,NNB,A,13
12,test,3,0.0,1-Back,0.0,m,Mon Oct 06 2025 16:59:54 GMT-0500 (Central Daylight Time),265186.8000000119,058_m_m_n_a.png,I,None,2001,15,1,3006.699999988079,262180.10000002384,8068,NNB,A,14
13,test,3,1.0,1-Back,1.0,z,Mon Oct 06 2025 16:59:54 GMT-0500 (Central Daylight Time),267136.10000002384,058_m_m_n_a.png,I,z,917,16,1,1938.5,265197.60000002384,8068,NNB,A,15
14,test,3,0.0,1-Back,1.0,m,Mon Oct 06 2025 16:59:54 GMT-0500 (Central Daylight Time),268935.40000003576,047_o_f_n_a.png,I,m,775,17,1,1789.300000011921,267146.10000002384,8068,NNB,A,16
15,test,3,1.0,1-Back,1.0,z,Mon Oct 06 2025 16:59:54 GMT-0500 (Central Daylight Time),271584.60000002384,047_o_f_n_a.png,I,z,1624,18,1,2639.0,268945.60000002384,8068,NNB,A,17
0,test,4,1.0,1-Back,,,Mon Oct 06 2025 16:59:54 GMT-0500 (Central Daylight Time),271584.60000002384,050_m_f_n_a.png,I,space,1582,1,1,2639.0,268945.60000002384,8068,NNB,A,0
1,test,4,0.0,1-Back,1.0,m,Mon Oct 06 2025 16:59:54 GMT-0500 (Central Daylight Time),276916.3000000119,046_o_m_n_a.png,I,m,695,2,1,1705.800000011921,275210.5,8068,NNB,A,1
1,test,4,0.0,1-Back,0.0,m,Mon Oct 06 2025 16:59:54 GMT-0500 (Central Daylight Time),279031.0,050_m_f_n_a.png,I,z,1082,3,1,2104.5,276926.5,8068,NNB,A,2
2,test,4,0.0,1-Back,1.0,m,Mon Oct 06 2025 16:59:54 GMT-0500 (Central Daylight Time),281331.40000003576,044_o_f_n_a.png,I,m,1269,4,1,2290.600000023842,279040.8000000119,8068,NNB,A,3
3,test,4,1.0,1-Back,1.0,z,Mon Oct 06 2025 16:59:54 GMT-0500 (Central Daylight Time),283247.10000002384,044_o_f_n_a.png,I,z,885,5,1,1905.699999988079,281341.40000003576,8068,NNB,A,4
4,test,4,0.0,1-Back,1.0,m,Mon Oct 06 2025 16:59:54 GMT-0500 (Central Daylight Time),285713.90000003576,063_y_f_n_a.png,I,m,1437,6,1,2458.0,283255.90000003576,8068,NNB,A,5
5,test,4,0.0,1-Back,1.0,m,Mon Oct 06 2025 16:59:54 GMT-0500 (Central Daylight Time),287728.6999999881,041_y_m_n_a.png,I,m,989,7,1,2005.8999999761581,285722.8000000119,8068,NNB,A,6
6,test,4,1.0,1-Back,1.0,z,Mon Oct 06 2025 16:59:54 GMT-0500 (Central Daylight Time),289611.8000000119,041_y_m_n_a.png,I,z,862,8,1,1874.5,287737.3000000119,8068,NNB,A,7
7,test,4,0.0,1-Back,1.0,m,Mon Oct 06 2025 16:59:54 GMT-0500 (Central Daylight Time),291727.90000003576,063_y_f_n_a.png,I,m,1098,9,1,2104.5,289623.40000003576,8068,NNB,A,8
8,test,4,0.0,1-Back,1.0,m,Mon Oct 06 2025 16:59:54 GMT-0500 (Central Daylight Time),293744.3000000119,045_m_m_n_a.png,I,m,986,10,1,2004.0,291740.3000000119,8068,NNB,A,9
9,test,4,1.0,1-Back,1.0,z,Mon Oct 06 2025 16:59:54 GMT-0500 (Central Daylight Time),295295.8000000119,045_m_m_n_a.png,I,z,527,11,1,1541.3999999761581,293754.40000003576,8068,NNB,A,10
10,test,4,0.0,1-Back,1.0,m,Mon Oct 06 2025 16:59:54 GMT-0500 (Central Daylight Time),297260.10000002384,047_o_f_n_a.png,I,m,945,12,1,1954.1000000238419,295306.0,8068,NNB,A,11
11,test,4,0.0,1-Back,1.0,m,Mon Oct 06 2025 16:59:54 GMT-0500 (Central Daylight Time),299693.1999999881,053_o_m_n_a.png,I,m,1412,13,1,2421.899999976158,297271.3000000119,8068,NNB,A,12
12,test,4,0.0,1-Back,1.0,m,Mon Oct 06 2025 16:59:54 GMT-0500 (Central Daylight Time),301724.6999999881,047_o_f_n_a.png,I,m,1011,14,1,2021.0,299703.6999999881,8068,NNB,A,13
13,test,4,0.0,1-Back,1.0,m,Mon Oct 06 2025 16:59:54 GMT-0500 (Central Daylight Time),303540.5,010_y_f_n_a.png,I,m,790,15,1,1804.800000011921,301735.6999999881,8068,NNB,A,14
14,test,4,1.0,1-Back,1.0,z,Mon Oct 06 2025 16:59:54 GMT-0500 (Central Daylight Time),305407.0,010_y_f_n_a.png,I,z,843,16,1,1860.8999999761581,303546.10000002384,8068,NNB,A,15
15,test,4,0.0,1-Back,1.0,m,Mon Oct 06 2025 16:59:54 GMT-0500 (Central Daylight Time),307839.90000003576,043_m_f_n_a.png,I,m,1415,17,1,2420.5,305419.40000003576,8068,NNB,A,16
16,test,4,1.0,1-Back,1.0,z,Mon Oct 06 2025 16:59:54 GMT-0500 (Central Daylight Time),309539.0,043_m_f_n_a.png,I,z,680,18,1,1690.3999999761581,307848.60000002384,8068,NNB,A,17
0,test,5,1.0,1-Back,,,Mon Oct 06 2025 16:59:54 GMT-0500 (Central Daylight Time),309539.0,053_o_m_n_a.png,I,space,2164,1,1,1690.3999999761581,307848.60000002384,8068,NNB,A,0
1,test,5,1.0,1-Back,1.0,z,Mon Oct 06 2025 16:59:54 GMT-0500 (Central Daylight Time),315953.40000003576,053_o_m_n_a.png,I,z,1200,2,1,2223.0,313730.40000003576,8068,NNB,A,1
2,test,5,0.0,1-Back,1.0,m,Mon Oct 06 2025 16:59:54 GMT-0500 (Central Daylight Time),318302.0,063_y_f_n_a.png,I,m,1316,3,1,2338.5,315963.5,8068,NNB,A,2
3,test,5,0.0,1-Back,1.0,m,Mon Oct 06 2025 16:59:54 GMT-0500 (Central Daylight Time),320250.90000003576,041_y_m_n_a.png,I,m,929,4,1,1939.300000011921,318311.60000002384,8068,NNB,A,3
4,test,5,0.0,1-Back,1.0,m,Mon Oct 06 2025 16:59:54 GMT-0500 (Central Daylight Time),322501.5,063_y_f_n_a.png,I,m,1219,5,1,2239.300000011921,320262.1999999881,8068,NNB,A,4
5,test,5,0.0,1-Back,1.0,m,Mon Oct 06 2025 16:59:54 GMT-0500 (Central Daylight Time),324300.6999999881,058_m_m_n_a.png,I,m,769,6,1,1789.7999999523163,322510.90000003576,8068,NNB,A,5
6,test,5,1.0,1-Back,1.0,z,Mon Oct 06 2025 16:59:54 GMT-0500 (Central Daylight Time),326050.60000002384,058_m_m_n_a.png,I,z,717,7,1,1739.300000011921,324311.3000000119,8068,NNB,A,6
7,test,5,0.0,1-Back,1.0,m,Mon Oct 06 2025 16:59:54 GMT-0500 (Central Daylight Time),327882.60000002384,010_y_f_n_a.png,I,m,803,8,1,1821.300000011921,326061.3000000119,8068,NNB,A,7
8,test,5,0.0,1-Back,1.0,m,Mon Oct 06 2025 16:59:54 GMT-0500 (Central Daylight Time),329881.8000000119,008_y_m_n_a.png,I,m,981,9,1,1988.199999988079,327893.60000002384,8068,NNB,A,8
9,test,5,0.0,1-Back,1.0,m,Mon Oct 06 2025 16:59:54 GMT-0500 (Central Daylight Time),331964.8000000119,010_y_f_n_a.png,I,m,1060,10,1,2071.100000023842,329893.6999999881,8068,NNB,A,9
10,test,5,0.0,1-Back,1.0,m,Mon Oct 06 2025 16:59:54 GMT-0500 (Central Daylight Time),333731.3000000119,047_o_f_n_a.png,I,m,746,11,1,1757.3999999761581,331973.90000003576,8068,NNB,A,10
11,test,5,1.0,1-Back,1.0,z,Mon Oct 06 2025 16:59:54 GMT-0500 (Central Daylight Time),335213.90000003576,047_o_f_n_a.png,I,z,461,12,1,1472.5,333741.40000003576,8068,NNB,A,11
12,test,5,0.0,1-Back,1.0,m,Mon Oct 06 2025 16:59:54 GMT-0500 (Central Daylight Time),337145.90000003576,046_o_m_n_a.png,I,m,906,13,1,1921.2000000476837,335224.6999999881,8068,NNB,A,12
13,test,5,0.0,1-Back,1.0,m,Mon Oct 06 2025 16:59:54 GMT-0500 (Central Daylight Time),339346.3000000119,050_m_f_n_a.png,I,m,1180,14,1,2189.100000023842,337157.1999999881,8068,NNB,A,13
13,test,5,1.0,1-Back,0.0,z,Mon Oct 06 2025 16:59:54 GMT-0500 (Central Daylight Time),341129.3000000119,050_m_f_n_a.png,I,m,766,15,1,1772.699999988079,339356.60000002384,8068,NNB,A,14
14,test,5,0.0,1-Back,1.0,m,Mon Oct 06 2025 16:59:54 GMT-0500 (Central Daylight Time),343893.5,046_o_m_n_a.png,I,m,1741,16,1,2753.800000011921,341139.6999999881,8068,NNB,A,15
15,test,5,0.0,1-Back,1.0,m,Mon Oct 06 2025 16:59:54 GMT-0500 (Central Daylight Time),345795.90000003576,043_m_f_n_a.png,I,m,869,17,1,1892.300000011921,343903.60000002384,8068,NNB,A,16
16,test,5,0.0,1-Back,1.0,m,Mon Oct 06 2025 16:59:54 GMT-0500 (Central Daylight Time),347543.6999999881,045_m_m_n_a.png,I,m,725,18,1,1735.5,345808.1999999881,8068,NNB,A,17
0,prac,1,0.0,2-Back,,,Mon Oct 06 2025 16:59:54 GMT-0500 (Central Daylight Time),347543.6999999881,008_y_m_n_a.png,I,space,6164,1,1,1735.5,345808.1999999881,8068,NNB,A,0
0,prac,1,0.0,2-Back,,,Mon Oct 06 2025 16:59:54 GMT-0500 (Central Daylight Time),347543.6999999881,043_m_f_n_a.png,I,space,6164,2,1,1735.5,345808.1999999881,8068,NNB,A,0
0,prac,1,1.0,2-Back,0.0,m,Mon Oct 06 2025 16:59:54 GMT-0500 (Central Daylight Time),487648.40000003576,046_o_m_n_a.png,I,z,1130,3,1,1926.4000000357628,485722.0,8068,NNB,A,1
0,prac,1,0.0,2-Back,0.0,m,Mon Oct 06 2025 16:59:54 GMT-0500 (Central Daylight Time),490465.1999999881,047_o_f_n_a.png,I,None,2010,4,1,2809.699999988079,487655.5,8068,NNB,A,2
0,prac,1,0.0,2-Back,0.0,z,Mon Oct 06 2025 16:59:54 GMT-0500 (Central Daylight Time),493098.5,046_o_m_n_a.png,I,m,1867,5,1,2621.899999976158,490476.60000002384,8068,NNB,A,3
0,prac,1,1.0,2-Back,0.0,z,Mon Oct 06 2025 16:59:54 GMT-0500 (Central Daylight Time),495865.10000002384,047_o_f_n_a.png,I,None,2004,6,1,2756.0,493109.10000002384,8068,NNB,A,4
1,prac,1,0.0,2-Back,1.0,m,Mon Oct 06 2025 16:59:54 GMT-0500 (Central Daylight Time),497962.60000002384,045_m_m_n_a.png,I,m,1287,7,1,2087.100000023842,495875.5,8068,NNB,A,5
2,prac,1,0.0,2-Back,1.0,m,Mon Oct 06 2025 16:59:54 GMT-0500 (Central Daylight Time),500328.8000000119,053_o_m_n_a.png,I,m,1556,8,1,2354.600000023842,497974.1999999881,8068,NNB,A,6
3,prac,1,0.0,2-Back,1.0,m,Mon Oct 06 2025 16:59:54 GMT-0500 (Central Daylight Time),502512.8000000119,010_y_f_n_a.png,I,m,1351,9,1,2172.699999988079,500340.10000002384,8068,NNB,A,7
4,prac,1,1.0,2-Back,1.0,z,Mon Oct 06 2025 16:59:54 GMT-0500 (Central Daylight Time),504627.0,053_o_m_n_a.png,I,z,1348,10,1,2103.300000011921,502523.6999999881,8068,NNB,A,8
5,prac,1,0.0,2-Back,1.0,m,Mon Oct 06 2025 16:59:54 GMT-0500 (Central Daylight Time),506843.6999999881,063_y_f_n_a.png,I,m,1397,11,1,2205.0,504638.6999999881,8068,NNB,A,9
5,prac,1,0.0,2-Back,0.0,m,Mon Oct 06 2025 16:59:54 GMT-0500 (Central Daylight Time),508828.10000002384,045_m_m_n_a.png,I,z,1208,12,1,1973.0,506855.10000002384,8068,NNB,A,10
0,prac,2,0.0,2-Back,,,Mon Oct 06 2025 16:59:54 GMT-0500 (Central Daylight Time),508828.10000002384,008_y_m_n_a.png,I,a,3846,1,1,1973.0,506855.10000002384,8068,NNB,A,0
0,prac,2,0.0,2-Back,,,Mon Oct 06 2025 16:59:54 GMT-0500 (Central Daylight Time),508828.10000002384,043_m_f_n_a.png,I,a,3846,2,1,1973.0,506855.10000002384,8068,NNB,A,0
1,prac,2,1.0,2-Back,1.0,m,Mon Oct 06 2025 16:59:54 GMT-0500 (Central Daylight Time),518605.6999999881,046_o_m_n_a.png,I,m,68,3,1,826.5,517779.1999999881,8068,NNB,A,1
2,prac,2,0.0,2-Back,1.0,m,Mon Oct 06 2025 16:59:54 GMT-0500 (Central Daylight Time),521155.10000002384,047_o_f_n_a.png,I,m,1765,4,1,2536.900000035763,518618.1999999881,8068,NNB,A,2
3,prac,2,0.0,2-Back,1.0,z,Mon Oct 06 2025 16:59:54 GMT-0500 (Central Daylight Time),523453.5,046_o_m_n_a.png,I,z,1515,5,1,2287.5,521166.0,8068,NNB,A,3
4,prac,2,1.0,2-Back,1.0,z,Mon Oct 06 2025 16:59:54 GMT-0500 (Central Daylight Time),525722.3000000119,047_o_f_n_a.png,I,z,1494,6,1,2262.600000023842,523459.6999999881,8068,NNB,A,4
5,prac,2,0.0,2-Back,1.0,m,Mon Oct 06 2025 16:59:54 GMT-0500 (Central Daylight Time),527803.4000000358,045_m_m_n_a.png,I,m,1293,7,1,2071.2000000476837,525732.1999999881,8068,NNB,A,5
5,prac,2,0.0,2-Back,0.0,m,Mon Oct 06 2025 16:59:54 GMT-0500 (Central Daylight Time),530584.6999999881,053_o_m_n_a.png,I,None,2004,8,1,2769.899999976158,527814.8000000119,8068,NNB,A,6
6,prac,2,0.0,2-Back,1.0,m,Mon Oct 06 2025 16:59:54 GMT-0500 (Central Daylight Time),532718.1000000238,010_y_f_n_a.png,I,m,1364,9,1,2122.5,530595.6000000238,8068,NNB,A,7
7,prac,2,1.0,2-Back,1.0,z,Mon Oct 06 2025 16:59:54 GMT-0500 (Central Daylight Time),534450.9000000358,053_o_m_n_a.png,I,z,949,10,1,1720.300000011921,532730.6000000238,8068,NNB,A,8
8,prac,2,0.0,2-Back,1.0,m,Mon Oct 06 2025 16:59:54 GMT-0500 (Central Daylight Time),536416.9000000358,063_y_f_n_a.png,I,m,1186,11,1,1955.6000000238419,534461.3000000119,8068,NNB,A,9
9,prac,2,0.0,2-Back,1.0,m,Mon Oct 06 2025 16:59:54 GMT-0500 (Central Daylight Time),538699.1000000238,045_m_m_n_a.png,I,m,1492,12,1,2271.5,536427.6000000238,8068,NNB,A,10
0,test,1,0.0,2-Back,,,Mon Oct 06 2025 16:59:54 GMT-0500 (Central Daylight Time),538699.1000000238,041_y_m_n_a.png,I,space,10626,1,1,2271.5,536427.6000000238,8068,NNB,A,0
0,test,1,0.0,2-Back,,,Mon Oct 06 2025 16:59:54 GMT-0500 (Central Daylight Time),538699.1000000238,041_y_m_n_a.png,I,space,10626,2,1,2271.5,536427.6000000238,8068,NNB,A,0
1,test,1,0.0,2-Back,1.0,m,Mon Oct 06 2025 16:59:54 GMT-0500 (Central Daylight Time),570389.6999999881,047_o_f_n_a.png,I,m,1452,3,1,2470.0,567919.6999999881,8068,NNB,A,1
2,test,1,0.0,2-Back,1.0,m,Mon Oct 06 2025 16:59:54 GMT-0500 (Central Daylight Time),572388.6000000238,058_m_m_n_a.png,I,m,978,4,1,1988.6000000238419,570400.0,8068,NNB,A,2
3,test,1,1.0,2-Back,1.0,z,Mon Oct 06 2025 16:59:54 GMT-0500 (Central Daylight Time),574305.0,047_o_f_n_a.png,I,z,882,5,1,1905.699999988079,572399.3000000119,8068,NNB,A,3
4,test,1,0.0,2-Back,1.0,m,Mon Oct 06 2025 16:59:54 GMT-0500 (Central Daylight Time),576437.1000000238,063_y_f_n_a.png,I,m,1110,6,1,2122.199999988079,574314.9000000358,8068,NNB,A,4
4,test,1,0.0,2-Back,0.0,m,Mon Oct 06 2025 16:59:54 GMT-0500 (Central Daylight Time),578520.6999999881,058_m_m_n_a.png,I,z,1058,7,1,2073.0,576447.6999999881,8068,NNB,A,5
5,test,1,1.0,2-Back,1.0,z,Mon Oct 06 2025 16:59:54 GMT-0500 (Central Daylight Time),580919.6000000238,063_y_f_n_a.png,I,z,1366,8,1,2392.0,578527.6000000238,8068,NNB,A,6
6,test,1,0.0,2-Back,1.0,m,Mon Oct 06 2025 16:59:54 GMT-0500 (Central Daylight Time),583568.8000000119,008_y_m_n_a.png,I,m,1622,9,1,2638.5,580930.3000000119,8068,NNB,A,7
7,test,1,0.0,2-Back,1.0,m,Mon Oct 06 2025 16:59:54 GMT-0500 (Central Daylight Time),585851.1000000238,044_o_f_n_a.png,I,m,1256,10,1,2272.100000023842,583579.0,8068,NNB,A,8
8,test,1,1.0,2-Back,1.0,z,Mon Oct 06 2025 16:59:54 GMT-0500 (Central Daylight Time),588118.0,008_y_m_n_a.png,I,z,1236,11,1,2256.0,585862.0,8068,NNB,A,9
9,test,1,0.0,2-Back,1.0,m,Mon Oct 06 2025 16:59:54 GMT-0500 (Central Daylight Time),590966.6000000238,043_m_f_n_a.png,I,m,1818,12,1,2839.800000011921,588126.8000000119,8068,NNB,A,10
10,test,1,0.0,2-Back,1.0,m,Mon Oct 06 2025 16:59:54 GMT-0500 (Central Daylight Time),593617.3000000119,043_m_f_n_a.png,I,m,1626,13,1,2640.600000023842,590976.6999999881,8068,NNB,A,11
10,test,1,0.0,2-Back,0.0,m,Mon Oct 06 2025 16:59:54 GMT-0500 (Central Daylight Time),596648.4000000358,046_o_m_n_a.png,I,None,2015,14,1,3020.300000011921,593628.1000000238,8068,NNB,A,12
11,test,1,0.0,2-Back,1.0,m,Mon Oct 06 2025 16:59:54 GMT-0500 (Central Daylight Time),598446.6999999881,044_o_f_n_a.png,I,m,776,15,1,1788.3999999761581,596658.3000000119,8068,NNB,A,13
11,test,1,1.0,2-Back,0.0,z,Mon Oct 06 2025 16:59:54 GMT-0500 (Central Daylight Time),600562.8000000119,046_o_m_n_a.png,I,m,1087,16,1,2106.899999976158,598455.9000000358,8068,NNB,A,14
12,test,1,0.0,2-Back,1.0,m,Mon Oct 06 2025 16:59:54 GMT-0500 (Central Daylight Time),602429.3000000119,050_m_f_n_a.png,I,m,844,17,1,1858.0,600571.3000000119,8068,NNB,A,15
13,test,1,0.0,2-Back,1.0,m,Mon Oct 06 2025 16:59:54 GMT-0500 (Central Daylight Time),604179.0,045_m_m_n_a.png,I,m,730,18,1,1739.5999999642372,602439.4000000358,8068,NNB,A,16
0,test,2,0.0,2-Back,,,Mon Oct 06 2025 16:59:54 GMT-0500 (Central Daylight Time),604179.0,045_m_m_n_a.png,I,space,1342,1,1,1739.5999999642372,602439.4000000358,8068,NNB,A,0
0,test,2,0.0,2-Back,,,Mon Oct 06 2025 16:59:54 GMT-0500 (Central Daylight Time),604179.0,010_y_f_n_a.png,I,space,1342,2,1,1739.5999999642372,602439.4000000358,8068,NNB,A,0
1,test,2,1.0,2-Back,1.0,z,Mon Oct 06 2025 16:59:54 GMT-0500 (Central Daylight Time),612909.3000000119,045_m_m_n_a.png,I,z,1253,3,1,2271.0,610638.3000000119,8068,NNB,A,1
2,test,2,0.0,2-Back,1.0,m,Mon Oct 06 2025 16:59:54 GMT-0500 (Central Daylight Time),615108.5,050_m_f_n_a.png,I,m,1170,4,1,2190.699999988079,612917.8000000119,8068,NNB,A,2
2,test,2,0.0,2-Back,0.0,m,Mon Oct 06 2025 16:59:54 GMT-0500 (Central Daylight Time),617425.3000000119,010_y_f_n_a.png,I,z,1292,5,1,2307.899999976158,615117.4000000358,8068,NNB,A,3
3,test,2,0.0,2-Back,1.0,m,Mon Oct 06 2025 16:59:54 GMT-0500 (Central Daylight Time),619590.6999999881,046_o_m_n_a.png,I,m,1144,6,1,2158.099999964237,617432.6000000238,8068,NNB,A,4
4,test,2,0.0,2-Back,1.0,m,Mon Oct 06 2025 16:59:54 GMT-0500 (Central Daylight Time),622407.1000000238,063_y_f_n_a.png,I,m,1786,7,1,2804.5,619602.6000000238,8068,NNB,A,5
5,test,2,1.0,2-Back,1.0,z,Mon Oct 06 2025 16:59:54 GMT-0500 (Central Daylight Time),624822.4000000358,046_o_m_n_a.png,I,z,1386,8,1,2404.600000023842,622417.8000000119,8068,NNB,A,6
6,test,2,0.0,2-Back,1.0,m,Mon Oct 06 2025 16:59:54 GMT-0500 (Central Daylight Time),627337.0,008_y_m_n_a.png,I,m,1488,9,1,2503.899999976158,624833.1000000238,8068,NNB,A,7
6,test,2,0.0,2-Back,0.0,m,Mon Oct 06 2025 16:59:54 GMT-0500 (Central Daylight Time),629955.4000000358,008_y_m_n_a.png,I,z,1599,10,1,2607.800000011921,627347.6000000238,8068,NNB,A,8
7,test,2,0.0,2-Back,1.0,m,Mon Oct 06 2025 16:59:54 GMT-0500 (Central Daylight Time),632669.8000000119,043_m_f_n_a.png,I,m,1694,11,1,2703.600000023842,629966.1999999881,8068,NNB,A,9
7,test,2,0.0,2-Back,0.0,m,Mon Oct 06 2025 16:59:54 GMT-0500 (Central Daylight Time),634953.4000000358,010_y_f_n_a.png,I,z,1266,12,1,2274.2000000476837,632679.1999999881,8068,NNB,A,10
8,test,2,1.0,2-Back,1.0,z,Mon Oct 06 2025 16:59:54 GMT-0500 (Central Daylight Time),637484.6000000238,043_m_f_n_a.png,I,z,1512,13,1,2519.300000011921,634965.3000000119,8068,NNB,A,11
9,test,2,0.0,2-Back,1.0,m,Mon Oct 06 2025 16:59:54 GMT-0500 (Central Daylight Time),639617.1000000238,053_o_m_n_a.png,I,m,1108,14,1,2122.300000011921,637494.8000000119,8068,NNB,A,12
10,test,2,0.0,2-Back,1.0,m,Mon Oct 06 2025 16:59:54 GMT-0500 (Central Daylight Time),641267.6000000238,053_o_m_n_a.png,I,m,616,15,1,1640.800000011921,639626.8000000119,8068,NNB,A,13
10,test,2,0.0,2-Back,0.0,m,Mon Oct 06 2025 16:59:54 GMT-0500 (Central Daylight Time),643799.1999999881,044_o_f_n_a.png,I,z,1502,16,1,2522.0,641277.1999999881,8068,NNB,A,14
10,test,2,0.0,2-Back,0.0,m,Mon Oct 06 2025 16:59:54 GMT-0500 (Central Daylight Time),646833.4000000358,058_m_m_n_a.png,I,None,2016,17,1,3024.400000035763,643809.0,8068,NNB,A,15
11,test,2,1.0,2-Back,1.0,z,Mon Oct 06 2025 16:59:54 GMT-0500 (Central Daylight Time),648913.6999999881,044_o_f_n_a.png,I,z,1062,18,1,2069.599999964237,646844.1000000238,8068,NNB,A,16
0,test,3,1.0,2-Back,,,Mon Oct 06 2025 16:59:54 GMT-0500 (Central Daylight Time),648913.6999999881,041_y_m_n_a.png,I,space,1743,1,1,2069.599999964237,646844.1000000238,8068,NNB,A,0
0,test,3,1.0,2-Back,,,Mon Oct 06 2025 16:59:54 GMT-0500 (Central Daylight Time),648913.6999999881,041_y_m_n_a.png,I,space,1743,2,1,2069.599999964237,646844.1000000238,8068,NNB,A,0
1,test,3,0.0,2-Back,1.0,m,Mon Oct 06 2025 16:59:54 GMT-0500 (Central Daylight Time),658478.6999999881,044_o_f_n_a.png,I,m,1726,3,1,2739.399999976158,655739.3000000119,8068,NNB,A,1
2,test,3,0.0,2-Back,1.0,m,Mon Oct 06 2025 16:59:54 GMT-0500 (Central Daylight Time),661009.9000000358,045_m_m_n_a.png,I,m,1505,4,1,2520.900000035763,658489.0,8068,NNB,A,2
3,test,3,1.0,2-Back,1.0,z,Mon Oct 06 2025 16:59:54 GMT-0500 (Central Daylight Time),663010.6999999881,044_o_f_n_a.png,I,z,973,5,1,1994.199999988079,661016.5,8068,NNB,A,3
4,test,3,0.0,2-Back,1.0,m,Mon Oct 06 2025 16:59:54 GMT-0500 (Central Daylight Time),665213.1000000238,008_y_m_n_a.png,I,m,1175,6,1,2193.900000035763,663019.1999999881,8068,NNB,A,4
4,test,3,0.0,2-Back,0.0,m,Mon Oct 06 2025 16:59:54 GMT-0500 (Central Daylight Time),667274.6000000238,045_m_m_n_a.png,I,z,1030,7,1,2048.699999988079,665225.9000000358,8068,NNB,A,5
5,test,3,1.0,2-Back,1.0,z,Mon Oct 06 2025 16:59:54 GMT-0500 (Central Daylight Time),669824.6000000238,008_y_m_n_a.png,I,z,1515,8,1,2539.400000035763,667285.1999999881,8068,NNB,A,6
6,test,3,0.0,2-Back,1.0,m,Mon Oct 06 2025 16:59:54 GMT-0500 (Central Daylight Time),671840.4000000358,010_y_f_n_a.png,I,m,981,9,1,2005.300000011921,669835.1000000238,8068,NNB,A,7
7,test,3,0.0,2-Back,1.0,m,Mon Oct 06 2025 16:59:54 GMT-0500 (Central Daylight Time),673989.3000000119,058_m_m_n_a.png,I,m,1126,10,1,2136.699999988079,671852.6000000238,8068,NNB,A,8
8,test,3,1.0,2-Back,1.0,z,Mon Oct 06 2025 16:59:54 GMT-0500 (Central Daylight Time),675922.5,010_y_f_n_a.png,I,z,915,11,1,1921.0,674001.5,8068,NNB,A,9
9,test,3,1.0,2-Back,1.0,z,Mon Oct 06 2025 16:59:54 GMT-0500 (Central Daylight Time),678088.1000000238,058_m_m_n_a.png,I,z,1136,12,1,2156.400000035763,675931.6999999881,8068,NNB,A,10
10,test,3,0.0,2-Back,1.0,m,Mon Oct 06 2025 16:59:54 GMT-0500 (Central Daylight Time),680653.8000000119,044_o_f_n_a.png,I,m,1534,13,1,2553.800000011921,678100.0,8068,NNB,A,11
11,test,3,0.0,2-Back,1.0,m,Mon Oct 06 2025 16:59:54 GMT-0500 (Central Daylight Time),682970.6000000238,050_m_f_n_a.png,I,m,1298,14,1,2310.699999988079,680659.9000000358,8068,NNB,A,12
12,test,3,0.0,2-Back,1.0,m,Mon Oct 06 2025 16:59:54 GMT-0500 (Central Daylight Time),685303.1000000238,046_o_m_n_a.png,I,m,1301,15,1,2321.400000035763,682981.6999999881,8068,NNB,A,13
13,test,3,1.0,2-Back,1.0,z,Mon Oct 06 2025 16:59:54 GMT-0500 (Central Daylight Time),687402.1999999881,050_m_f_n_a.png,I,z,1072,16,1,2089.0,685313.1999999881,8068,NNB,A,14
14,test,3,0.0,2-Back,1.0,m,Mon Oct 06 2025 16:59:54 GMT-0500 (Central Daylight Time),689684.9000000358,047_o_f_n_a.png,I,m,1254,17,1,2270.400000035763,687414.5,8068,NNB,A,15
14,test,3,0.0,2-Back,0.0,m,Mon Oct 06 2025 16:59:54 GMT-0500 (Central Daylight Time),691899.9000000358,047_o_f_n_a.png,I,z,1194,18,1,2203.7000000476837,689696.1999999881,8068,NNB,A,16
0,test,4,0.0,2-Back,,,Mon Oct 06 2025 16:59:54 GMT-0500 (Central Daylight Time),691899.9000000358,053_o_m_n_a.png,I,space,1677,1,1,2203.7000000476837,689696.1999999881,8068,NNB,A,0
0,test,4,0.0,2-Back,,,Mon Oct 06 2025 16:59:54 GMT-0500 (Central Daylight Time),691899.9000000358,063_y_f_n_a.png,I,space,1677,2,1,2203.7000000476837,689696.1999999881,8068,NNB,A,0
1,test,4,1.0,2-Back,1.0,z,Mon Oct 06 2025 16:59:54 GMT-0500 (Central Daylight Time),700981.5,053_o_m_n_a.png,I,z,1270,3,1,2288.199999988079,698693.3000000119,8068,NNB,A,1
2,test,4,1.0,2-Back,1.0,z,Mon Oct 06 2025 16:59:54 GMT-0500 (Central Daylight Time),703080.8000000119,063_y_f_n_a.png,I,z,1075,4,1,2088.899999976158,700991.9000000358,8068,NNB,A,2
3,test,4,0.0,2-Back,1.0,m,Mon Oct 06 2025 16:59:54 GMT-0500 (Central Daylight Time),704846.8000000119,044_o_f_n_a.png,I,m,734,5,1,1754.6000000238419,703092.1999999881,8068,NNB,A,3
3,test,4,0.0,2-Back,0.0,m,Mon Oct 06 2025 16:59:54 GMT-0500 (Central Daylight Time),707062.6999999881,044_o_f_n_a.png,I,z,1193,6,1,2204.2999999523163,704858.4000000358,8068,NNB,A,4
3,test,4,0.0,2-Back,0.0,m,Mon Oct 06 2025 16:59:54 GMT-0500 (Central Daylight Time),710095.1000000238,043_m_f_n_a.png,I,None,2016,7,1,3021.900000035763,707073.1999999881,8068,NNB,A,5
4,test,4,0.0,2-Back,1.0,m,Mon Oct 06 2025 16:59:54 GMT-0500 (Central Daylight Time),712260.6000000238,008_y_m_n_a.png,I,m,1146,8,1,2154.699999988079,710105.9000000358,8068,NNB,A,6
5,test,4,1.0,2-Back,1.0,z,Mon Oct 06 2025 16:59:54 GMT-0500 (Central Daylight Time),714093.6000000238,043_m_f_n_a.png,I,z,810,9,1,1823.1000000238419,712270.5,8068,NNB,A,7
6,test,4,0.0,2-Back,1.0,m,Mon Oct 06 2025 16:59:54 GMT-0500 (Central Daylight Time),716425.4000000358,058_m_m_n_a.png,I,m,1305,10,1,2321.300000011921,714104.1000000238,8068,NNB,A,8
6,test,4,0.0,2-Back,0.0,m,Mon Oct 06 2025 16:59:54 GMT-0500 (Central Daylight Time),718809.9000000358,008_y_m_n_a.png,I,z,1367,11,1,2373.100000023842,716436.8000000119,8068,NNB,A,9
6,test,4,0.0,2-Back,0.0,m,Mon Oct 06 2025 16:59:54 GMT-0500 (Central Daylight Time),721524.3000000119,047_o_f_n_a.png,I,z,1687,12,1,2701.800000011921,718822.5,8068,NNB,A,10
6,test,4,0.0,2-Back,0.0,m,Mon Oct 06 2025 16:59:54 GMT-0500 (Central Daylight Time),723706.9000000358,041_y_m_n_a.png,I,z,1162,13,1,2173.400000035763,721533.5,8068,NNB,A,11
7,test,4,1.0,2-Back,1.0,z,Mon Oct 06 2025 16:59:54 GMT-0500 (Central Daylight Time),725972.8000000119,047_o_f_n_a.png,I,z,1243,14,1,2254.0,723718.8000000119,8068,NNB,A,12
8,test,4,1.0,2-Back,1.0,z,Mon Oct 06 2025 16:59:54 GMT-0500 (Central Daylight Time),728489.9000000358,041_y_m_n_a.png,I,z,1490,15,1,2506.100000023842,725983.8000000119,8068,NNB,A,13
9,test,4,0.0,2-Back,1.0,m,Mon Oct 06 2025 16:59:54 GMT-0500 (Central Daylight Time),730672.0,045_m_m_n_a.png,I,m,1150,16,1,2171.599999964237,728500.4000000358,8068,NNB,A,14
10,test,4,0.0,2-Back,1.0,m,Mon Oct 06 2025 16:59:54 GMT-0500 (Central Daylight Time),732856.1000000238,050_m_f_n_a.png,I,m,1160,17,1,2174.0,730682.1000000238,8068,NNB,A,15
11,test,4,1.0,2-Back,1.0,z,Mon Oct 06 2025 16:59:54 GMT-0500 (Central Daylight Time),735037.4000000358,045_m_m_n_a.png,I,z,1153,18,1,2171.600000023842,732865.8000000119,8068,NNB,A,16
0,test,5,1.0,2-Back,,,Mon Oct 06 2025 16:59:54 GMT-0500 (Central Daylight Time),735037.4000000358,041_y_m_n_a.png,I,space,1802,1,1,2171.600000023842,732865.8000000119,8068,NNB,A,0
0,test,5,1.0,2-Back,,,Mon Oct 06 2025 16:59:54 GMT-0500 (Central Daylight Time),735037.4000000358,050_m_f_n_a.png,I,space,1802,2,1,2171.600000023842,732865.8000000119,8068,NNB,A,0
1,test,5,1.0,2-Back,1.0,z,Mon Oct 06 2025 16:59:54 GMT-0500 (Central Daylight Time),744034.6000000238,041_y_m_n_a.png,I,z,1107,3,1,2121.300000011921,741913.3000000119,8068,NNB,A,1
2,test,5,1.0,2-Back,1.0,z,Mon Oct 06 2025 16:59:54 GMT-0500 (Central Daylight Time),746583.1999999881,050_m_f_n_a.png,I,z,1517,4,1,2537.699999988079,744045.5,8068,NNB,A,2
3,test,5,0.0,2-Back,1.0,m,Mon Oct 06 2025 16:59:54 GMT-0500 (Central Daylight Time),748784.6000000238,047_o_f_n_a.png,I,m,1176,5,1,2190.600000023842,746594.0,8068,NNB,A,3
3,test,5,0.0,2-Back,0.0,m,Mon Oct 06 2025 16:59:54 GMT-0500 (Central Daylight Time),751815.9000000358,041_y_m_n_a.png,I,None,2015,6,1,3019.5,748796.4000000358,8068,NNB,A,4
4,test,5,0.0,2-Back,1.0,m,Mon Oct 06 2025 16:59:54 GMT-0500 (Central Daylight Time),754248.0,010_y_f_n_a.png,I,m,1385,7,1,2417.0,751831.0,8068,NNB,A,5
4,test,5,0.0,2-Back,0.0,m,Mon Oct 06 2025 16:59:54 GMT-0500 (Central Daylight Time),756179.6999999881,047_o_f_n_a.png,I,z,913,8,1,1921.0999999642372,754258.6000000238,8068,NNB,A,6
5,test,5,1.0,2-Back,1.0,z,Mon Oct 06 2025 16:59:54 GMT-0500 (Central Daylight Time),758279.5,010_y_f_n_a.png,I,z,1066,9,1,2087.399999976158,756192.1000000238,8068,NNB,A,7
6,test,5,0.0,2-Back,1.0,m,Mon Oct 06 2025 16:59:54 GMT-0500 (Central Daylight Time),760346.3000000119,046_o_m_n_a.png,I,m,1041,10,1,2056.100000023842,758290.1999999881,8068,NNB,A,8
7,test,5,0.0,2-Back,1.0,m,Mon Oct 06 2025 16:59:54 GMT-0500 (Central Daylight Time),762978.0,043_m_f_n_a.png,I,m,1608,11,1,2620.399999976158,760357.6000000238,8068,NNB,A,9
8,test,5,0.0,2-Back,1.0,m,Mon Oct 06 2025 16:59:54 GMT-0500 (Central Daylight Time),765176.9000000358,058_m_m_n_a.png,I,m,1174,12,1,2188.0,762988.9000000358,8068,NNB,A,10
8,test,5,0.0,2-Back,0.0,m,Mon Oct 06 2025 16:59:54 GMT-0500 (Central Daylight Time),767561.0,046_o_m_n_a.png,I,z,1351,13,1,2374.5,765186.5,8068,NNB,A,11
8,test,5,1.0,2-Back,0.0,z,Mon Oct 06 2025 16:59:54 GMT-0500 (Central Daylight Time),770576.0,058_m_m_n_a.png,I,None,2001,14,1,3004.099999964237,767571.9000000358,8068,NNB,A,12
9,test,5,0.0,2-Back,1.0,m,Mon Oct 06 2025 16:59:54 GMT-0500 (Central Daylight Time),772975.1000000238,063_y_f_n_a.png,I,m,1364,15,1,2389.5,770585.6000000238,8068,NNB,A,13
10,test,5,0.0,2-Back,1.0,m,Mon Oct 06 2025 16:59:54 GMT-0500 (Central Daylight Time),774773.9000000358,053_o_m_n_a.png,I,m,768,16,1,1786.300000011921,772987.6000000238,8068,NNB,A,14
11,test,5,0.0,2-Back,1.0,m,Mon Oct 06 2025 16:59:54 GMT-0500 (Central Daylight Time),776556.9000000358,043_m_f_n_a.png,I,m,761,17,1,1770.4000000357628,774786.5,8068,NNB,A,15
12,test,5,1.0,2-Back,1.0,z,Mon Oct 06 2025 16:59:54 GMT-0500 (Central Daylight Time),778390.0,053_o_m_n_a.png,I,z,809,18,1,1822.199999988079,776567.8000000119,8068,NNB,A,16
