acc_sum,block,block_c,change,condition,correct,correct_response,datetime,endtime,face,project,response,response_time,row_sel,session_number,start_end,starttime,subject_id,task,task_vers,trial
0,prac,1,,1-Back,,,Mon Jun 09 2025 09:37:08 GMT-0500 (Central Daylight Time),,093_m_f_n_a.png,O,space,14727,1,1,,,7161,NNB,C,0
1,prac,1,0.0,1-Back,1,m,Mon Jun 09 2025 09:37:08 GMT-0500 (Central Daylight Time),254701.10000002384,098_y_f_n_a.png,O,m,1392,2,1,2240.100000023842,252461.0,7161,NNB,C,1
2,prac,1,1.0,1-Back,1,z,Mon Jun 09 2025 09:37:08 GMT-0500 (Central Daylight Time),257050.19999998808,098_y_f_n_a.png,O,z,1566,3,1,2343.2999999523163,254706.90000003576,7161,NNB,C,2
2,prac,1,0.0,1-Back,0,m,Mon Jun 09 2025 09:37:08 GMT-0500 (Central Daylight Time),259916.0,059_o_m_n_a.png,O,None,2009,4,1,2857.699999988079,257058.30000001192,7161,NNB,C,3
3,prac,1,0.0,1-Back,1,m,Mon Jun 09 2025 09:37:08 GMT-0500 (Central Daylight Time),262381.8000000119,092_m_m_n_a.png,O,m,1608,5,1,2459.899999976158,259921.90000003576,7161,NNB,C,4
4,prac,1,1.0,1-Back,1,z,Mon Jun 09 2025 09:37:08 GMT-0500 (Central Daylight Time),264497.6999999881,092_m_m_n_a.png,O,z,1332,6,1,2108.599999964237,262389.10000002384,7161,NNB,C,5
5,prac,1,0.0,1-Back,1,m,Mon Jun 09 2025 09:37:08 GMT-0500 (Central Daylight Time),266947.0,130_o_f_n_a.png,O,m,1578,7,1,2442.899999976158,264504.10000002384,7161,NNB,C,6
6,prac,1,0.0,1-Back,1,m,Mon Jun 09 2025 09:37:08 GMT-0500 (Central Daylight Time),269013.10000002384,082_m_m_n_a.png,O,m,1201,8,1,2060.0,266953.10000002384,7161,NNB,C,7
7,prac,1,0.0,1-Back,1,m,Mon Jun 09 2025 09:37:08 GMT-0500 (Central Daylight Time),270779.0,093_m_f_n_a.png,O,m,990,9,1,1760.199999988079,269018.8000000119,7161,NNB,C,8
8,prac,1,1.0,1-Back,1,z,Mon Jun 09 2025 09:37:08 GMT-0500 (Central Daylight Time),272311.90000003576,093_m_f_n_a.png,O,z,761,10,1,1525.0,270786.90000003576,7161,NNB,C,9
9,prac,1,0.0,1-Back,1,m,Mon Jun 09 2025 09:37:08 GMT-0500 (Central Daylight Time),273928.1999999881,059_o_m_n_a.png,O,m,841,11,1,1608.7999999523163,272319.40000003576,7161,NNB,C,10
10,prac,1,0.0,1-Back,1,m,Mon Jun 09 2025 09:37:08 GMT-0500 (Central Daylight Time),275594.5,028_y_f_n_a.png,O,m,792,12,1,1660.300000011921,273934.1999999881,7161,NNB,C,11
0,prac,2,0.0,1-Back,,,Mon Jun 09 2025 09:37:08 GMT-0500 (Central Daylight Time),275594.5,093_m_f_n_a.png,O,a,3610,1,1,1660.300000011921,273934.1999999881,7161,NNB,C,0
1,prac,2,0.0,1-Back,1,m,Mon Jun 09 2025 09:37:08 GMT-0500 (Central Daylight Time),283975.0,098_y_f_n_a.png,O,m,875,2,1,1725.8999999761581,282249.10000002384,7161,NNB,C,1
2,prac,2,1.0,1-Back,1,z,Mon Jun 09 2025 09:37:08 GMT-0500 (Central Daylight Time),285508.10000002384,098_y_f_n_a.png,O,z,748,3,1,1527.300000011921,283980.8000000119,7161,NNB,C,2
3,prac,2,0.0,1-Back,1,m,Mon Jun 09 2025 09:37:08 GMT-0500 (Central Daylight Time),287074.0,059_o_m_n_a.png,O,m,803,4,1,1559.5999999642372,285514.40000003576,7161,NNB,C,3
4,prac,2,0.0,1-Back,1,m,Mon Jun 09 2025 09:37:08 GMT-0500 (Central Daylight Time),288923.3000000119,092_m_m_n_a.png,O,m,993,5,1,1843.300000011921,287080.0,7161,NNB,C,4
5,prac,2,1.0,1-Back,1,z,Mon Jun 09 2025 09:37:08 GMT-0500 (Central Daylight Time),290506.40000003576,092_m_m_n_a.png,O,z,798,6,1,1576.0,288930.40000003576,7161,NNB,C,5
6,prac,2,0.0,1-Back,1,m,Mon Jun 09 2025 09:37:08 GMT-0500 (Central Daylight Time),292339.3000000119,130_o_f_n_a.png,O,m,961,7,1,1827.6000000238419,290511.6999999881,7161,NNB,C,6
7,prac,2,0.0,1-Back,1,m,Mon Jun 09 2025 09:37:08 GMT-0500 (Central Daylight Time),294221.8000000119,082_m_m_n_a.png,O,m,1024,8,1,1877.0,292344.8000000119,7161,NNB,C,7
8,prac,2,0.0,1-Back,1,m,Mon Jun 09 2025 09:37:08 GMT-0500 (Central Daylight Time),296071.1999999881,093_m_f_n_a.png,O,m,1068,9,1,1842.2999999523163,294228.90000003576,7161,NNB,C,8
9,prac,2,1.0,1-Back,1,z,Mon Jun 09 2025 09:37:08 GMT-0500 (Central Daylight Time),297570.8000000119,093_m_f_n_a.png,O,z,724,10,1,1494.1000000238419,296076.6999999881,7161,NNB,C,9
10,prac,2,0.0,1-Back,1,m,Mon Jun 09 2025 09:37:08 GMT-0500 (Central Daylight Time),299104.6999999881,059_o_m_n_a.png,O,m,768,11,1,1528.0999999642372,297576.60000002384,7161,NNB,C,10
11,prac,2,0.0,1-Back,1,m,Mon Jun 09 2025 09:37:08 GMT-0500 (Central Daylight Time),301102.90000003576,028_y_f_n_a.png,O,m,1139,12,1,1990.7000000476837,299112.1999999881,7161,NNB,C,11
0,test,1,0.0,1-Back,,,Mon Jun 09 2025 09:37:08 GMT-0500 (Central Daylight Time),301102.90000003576,098_y_f_n_a.png,O,space,13555,1,1,1990.7000000476837,299112.1999999881,7161,NNB,C,0
1,test,1,0.0,1-Back,1,m,Mon Jun 09 2025 09:37:08 GMT-0500 (Central Daylight Time),329077.60000002384,006_m_f_n_a.png,O,m,646,2,1,1661.1000000238419,327416.5,7161,NNB,C,1
2,test,1,0.0,1-Back,1,m,Mon Jun 09 2025 09:37:08 GMT-0500 (Central Daylight Time),331177.0,028_y_f_n_a.png,O,m,1067,3,1,2095.699999988079,329081.3000000119,7161,NNB,C,2
3,test,1,1.0,1-Back,1,z,Mon Jun 09 2025 09:37:08 GMT-0500 (Central Daylight Time),333026.1999999881,028_y_f_n_a.png,O,z,823,4,1,1846.0,331180.1999999881,7161,NNB,C,3
4,test,1,0.0,1-Back,1,m,Mon Jun 09 2025 09:37:08 GMT-0500 (Central Daylight Time),334992.3000000119,006_m_f_n_a.png,O,m,943,5,1,1961.699999988079,333030.60000002384,7161,NNB,C,4
5,test,1,0.0,1-Back,1,m,Mon Jun 09 2025 09:37:08 GMT-0500 (Central Daylight Time),337041.8000000119,059_o_m_n_a.png,O,m,1025,6,1,2046.300000011921,334995.5,7161,NNB,C,5
6,test,1,1.0,1-Back,1,z,Mon Jun 09 2025 09:37:08 GMT-0500 (Central Daylight Time),338791.0,059_o_m_n_a.png,O,z,727,7,1,1745.8999999761581,337045.10000002384,7161,NNB,C,6
7,test,1,0.0,1-Back,1,m,Mon Jun 09 2025 09:37:08 GMT-0500 (Central Daylight Time),340540.5,092_m_m_n_a.png,O,m,721,8,1,1746.199999988079,338794.3000000119,7161,NNB,C,7
8,test,1,0.0,1-Back,1,m,Mon Jun 09 2025 09:37:08 GMT-0500 (Central Daylight Time),342456.6999999881,130_o_f_n_a.png,O,m,892,9,1,1912.3999999761581,340544.3000000119,7161,NNB,C,8
9,test,1,0.0,1-Back,1,m,Mon Jun 09 2025 09:37:08 GMT-0500 (Central Daylight Time),344406.0,092_m_m_n_a.png,O,m,920,10,1,1944.699999988079,342461.3000000119,7161,NNB,C,9
10,test,1,0.0,1-Back,1,m,Mon Jun 09 2025 09:37:08 GMT-0500 (Central Daylight Time),346188.90000003576,057_y_m_n_a.png,O,m,755,11,1,1778.9000000357628,344410.0,7161,NNB,C,10
11,test,1,1.0,1-Back,1,z,Mon Jun 09 2025 09:37:08 GMT-0500 (Central Daylight Time),347921.90000003576,057_y_m_n_a.png,O,z,700,12,1,1729.5,346192.40000003576,7161,NNB,C,11
12,test,1,0.0,1-Back,1,m,Mon Jun 09 2025 09:37:08 GMT-0500 (Central Daylight Time),349787.8000000119,030_o_f_n_a.png,O,m,840,13,1,1862.199999988079,347925.60000002384,7161,NNB,C,12
13,test,1,1.0,1-Back,1,z,Mon Jun 09 2025 09:37:08 GMT-0500 (Central Daylight Time),352003.90000003576,030_o_f_n_a.png,O,z,1189,14,1,2212.300000011921,349791.60000002384,7161,NNB,C,13
14,test,1,0.0,1-Back,1,m,Mon Jun 09 2025 09:37:08 GMT-0500 (Central Daylight Time),353969.60000002384,031_y_m_n_a.png,O,m,932,15,1,1961.800000011921,352007.8000000119,7161,NNB,C,14
15,test,1,0.0,1-Back,1,m,Mon Jun 09 2025 09:37:08 GMT-0500 (Central Daylight Time),356102.5,093_m_f_n_a.png,O,m,1111,16,1,2129.399999976158,353973.10000002384,7161,NNB,C,15
16,test,1,0.0,1-Back,1,m,Mon Jun 09 2025 09:37:08 GMT-0500 (Central Daylight Time),357918.3000000119,146_o_m_n_a.png,O,m,790,17,1,1811.300000011921,356107.0,7161,NNB,C,16
17,test,1,0.0,1-Back,1,m,Mon Jun 09 2025 09:37:08 GMT-0500 (Central Daylight Time),359817.6999999881,093_m_f_n_a.png,O,m,867,18,1,1896.2999999523163,357921.40000003576,7161,NNB,C,17
0,test,2,0.0,1-Back,,,Mon Jun 09 2025 09:37:08 GMT-0500 (Central Daylight Time),359817.6999999881,092_m_m_n_a.png,O,space,1847,1,1,1896.2999999523163,357921.40000003576,7161,NNB,C,0
1,test,2,0.0,1-Back,1,m,Mon Jun 09 2025 09:37:08 GMT-0500 (Central Daylight Time),365599.3000000119,006_m_f_n_a.png,O,m,885,2,1,1911.5,363687.8000000119,7161,NNB,C,1
2,test,2,1.0,1-Back,1,z,Mon Jun 09 2025 09:37:08 GMT-0500 (Central Daylight Time),367348.8000000119,006_m_f_n_a.png,O,z,722,3,1,1745.199999988079,365603.60000002384,7161,NNB,C,2
3,test,2,0.0,1-Back,1,m,Mon Jun 09 2025 09:37:08 GMT-0500 (Central Daylight Time),368948.5,092_m_m_n_a.png,O,m,579,4,1,1596.0,367352.5,7161,NNB,C,3
4,test,2,0.0,1-Back,1,m,Mon Jun 09 2025 09:37:08 GMT-0500 (Central Daylight Time),370780.90000003576,057_y_m_n_a.png,O,m,805,5,1,1827.300000011921,368953.60000002384,7161,NNB,C,4
5,test,2,0.0,1-Back,1,m,Mon Jun 09 2025 09:37:08 GMT-0500 (Central Daylight Time),372514.0,098_y_f_n_a.png,O,m,716,6,1,1728.5999999642372,370785.40000003576,7161,NNB,C,5
6,test,2,1.0,1-Back,1,z,Mon Jun 09 2025 09:37:08 GMT-0500 (Central Daylight Time),374246.6999999881,098_y_f_n_a.png,O,z,702,7,1,1728.3999999761581,372518.3000000119,7161,NNB,C,6
7,test,2,0.0,1-Back,1,m,Mon Jun 09 2025 09:37:08 GMT-0500 (Central Daylight Time),376029.5,057_y_m_n_a.png,O,m,753,8,1,1779.0999999642372,374250.40000003576,7161,NNB,C,7
8,test,2,0.0,1-Back,1,m,Mon Jun 09 2025 09:37:08 GMT-0500 (Central Daylight Time),377828.8000000119,030_o_f_n_a.png,O,m,780,9,1,1796.0,376032.8000000119,7161,NNB,C,8
9,test,2,0.0,1-Back,1,m,Mon Jun 09 2025 09:37:08 GMT-0500 (Central Daylight Time),379578.3000000119,082_m_m_n_a.png,O,m,732,10,1,1746.300000011921,377832.0,7161,NNB,C,9
10,test,2,1.0,1-Back,1,z,Mon Jun 09 2025 09:37:08 GMT-0500 (Central Daylight Time),381361.10000002384,082_m_m_n_a.png,O,z,768,11,1,1778.5,379582.60000002384,7161,NNB,C,10
11,test,2,0.0,1-Back,1,m,Mon Jun 09 2025 09:37:08 GMT-0500 (Central Daylight Time),383110.6999999881,030_o_f_n_a.png,O,m,720,12,1,1745.699999988079,381365.0,7161,NNB,C,11
12,test,2,0.0,1-Back,1,m,Mon Jun 09 2025 09:37:08 GMT-0500 (Central Daylight Time),385126.40000003576,130_o_f_n_a.png,O,m,994,13,1,2012.5,383113.90000003576,7161,NNB,C,12
13,test,2,0.0,1-Back,1,m,Mon Jun 09 2025 09:37:08 GMT-0500 (Central Daylight Time),386942.60000002384,059_o_m_n_a.png,O,m,794,14,1,1811.6000000238419,385131.0,7161,NNB,C,13
14,test,2,0.0,1-Back,1,m,Mon Jun 09 2025 09:37:08 GMT-0500 (Central Daylight Time),388708.8000000119,146_o_m_n_a.png,O,m,737,15,1,1761.8999999761581,386946.90000003576,7161,NNB,C,14
15,test,2,1.0,1-Back,1,z,Mon Jun 09 2025 09:37:08 GMT-0500 (Central Daylight Time),390258.10000002384,146_o_m_n_a.png,O,z,532,16,1,1545.300000011921,388712.8000000119,7161,NNB,C,15
16,test,2,0.0,1-Back,1,m,Mon Jun 09 2025 09:37:08 GMT-0500 (Central Daylight Time),391991.1999999881,031_y_m_n_a.png,O,m,711,17,1,1729.199999988079,390262.0,7161,NNB,C,16
17,test,2,1.0,1-Back,1,z,Mon Jun 09 2025 09:37:08 GMT-0500 (Central Daylight Time),393673.6999999881,031_y_m_n_a.png,O,z,658,18,1,1677.5999999642372,391996.10000002384,7161,NNB,C,17
0,test,3,1.0,1-Back,,,Mon Jun 09 2025 09:37:08 GMT-0500 (Central Daylight Time),393673.6999999881,028_y_f_n_a.png,O,space,1480,1,1,1677.5999999642372,391996.10000002384,7161,NNB,C,0
1,test,3,0.0,1-Back,1,m,Mon Jun 09 2025 09:37:08 GMT-0500 (Central Daylight Time),398889.40000003576,146_o_m_n_a.png,O,m,609,1,1,1628.9000000357628,397260.5,7161,NNB,C,1
2,test,3,1.0,1-Back,1,z,Mon Jun 09 2025 09:37:08 GMT-0500 (Central Daylight Time),400638.5,146_o_m_n_a.png,O,z,728,1,1,1745.0999999642372,398893.40000003576,7161,NNB,C,2
3,test,3,0.0,1-Back,1,m,Mon Jun 09 2025 09:37:08 GMT-0500 (Central Daylight Time),402404.6999999881,093_m_f_n_a.png,O,m,747,1,1,1759.5999999642372,400645.10000002384,7161,NNB,C,3
4,test,3,1.0,1-Back,1,z,Mon Jun 09 2025 09:37:08 GMT-0500 (Central Daylight Time),404303.6999999881,093_m_f_n_a.png,O,z,877,1,1,1895.0,402408.6999999881,7161,NNB,C,4
5,test,3,0.0,1-Back,1,m,Mon Jun 09 2025 09:37:08 GMT-0500 (Central Daylight Time),406136.60000002384,030_o_f_n_a.png,O,m,808,1,1,1828.699999988079,404307.90000003576,7161,NNB,C,5
6,test,3,0.0,1-Back,1,m,Mon Jun 09 2025 09:37:08 GMT-0500 (Central Daylight Time),407952.90000003576,057_y_m_n_a.png,O,m,791,1,1,1812.7000000476837,406140.1999999881,7161,NNB,C,6
7,test,3,0.0,1-Back,1,m,Mon Jun 09 2025 09:37:08 GMT-0500 (Central Daylight Time),410152.10000002384,030_o_f_n_a.png,O,m,1175,1,1,2195.699999988079,407956.40000003576,7161,NNB,C,7
8,test,3,0.0,1-Back,1,m,Mon Jun 09 2025 09:37:08 GMT-0500 (Central Daylight Time),412284.6999999881,031_y_m_n_a.png,O,m,1113,1,1,2128.0,410156.6999999881,7161,NNB,C,8
9,test,3,1.0,1-Back,1,z,Mon Jun 09 2025 09:37:08 GMT-0500 (Central Daylight Time),414500.6999999881,031_y_m_n_a.png,O,z,1195,1,1,2212.699999988079,412288.0,7161,NNB,C,9
10,test,3,0.0,1-Back,1,m,Mon Jun 09 2025 09:37:08 GMT-0500 (Central Daylight Time),416466.8000000119,006_m_f_n_a.png,O,m,940,1,1,1962.1000000238419,414504.6999999881,7161,NNB,C,10
11,test,3,0.0,1-Back,1,m,Mon Jun 09 2025 09:37:08 GMT-0500 (Central Daylight Time),418816.1999999881,098_y_f_n_a.png,O,m,1318,1,1,2344.699999988079,416471.5,7161,NNB,C,11
12,test,3,1.0,1-Back,1,z,Mon Jun 09 2025 09:37:08 GMT-0500 (Central Daylight Time),420615.5,098_y_f_n_a.png,O,z,769,1,1,1795.199999988079,418820.3000000119,7161,NNB,C,12
13,test,3,0.0,1-Back,1,m,Mon Jun 09 2025 09:37:08 GMT-0500 (Central Daylight Time),422314.90000003576,006_m_f_n_a.png,O,m,673,1,1,1696.1000000238419,420618.8000000119,7161,NNB,C,13
14,test,3,0.0,1-Back,1,m,Mon Jun 09 2025 09:37:08 GMT-0500 (Central Daylight Time),424164.40000003576,092_m_m_n_a.png,O,m,830,1,1,1846.300000011921,422318.10000002384,7161,NNB,C,14
15,test,3,1.0,1-Back,1,z,Mon Jun 09 2025 09:37:08 GMT-0500 (Central Daylight Time),426247.10000002384,092_m_m_n_a.png,O,z,1053,1,1,2078.400000035763,424168.6999999881,7161,NNB,C,15
16,test,3,0.0,1-Back,1,m,Mon Jun 09 2025 09:37:08 GMT-0500 (Central Daylight Time),428079.6999999881,130_o_f_n_a.png,O,m,801,1,1,1829.3999999761581,426250.3000000119,7161,NNB,C,16
17,test,3,1.0,1-Back,1,z,Mon Jun 09 2025 09:37:08 GMT-0500 (Central Daylight Time),429912.5,130_o_f_n_a.png,O,z,800,1,1,1828.699999988079,428083.8000000119,7161,NNB,C,17
0,test,4,1.0,1-Back,,,Mon Jun 09 2025 09:37:08 GMT-0500 (Central Daylight Time),429912.5,093_m_f_n_a.png,O,space,6505,1,1,1828.699999988079,428083.8000000119,7161,NNB,C,0
1,test,4,0.0,1-Back,1,m,Mon Jun 09 2025 09:37:08 GMT-0500 (Central Daylight Time),440092.90000003576,146_o_m_n_a.png,O,m,547,2,1,1562.1000000238419,438530.8000000119,7161,NNB,C,1
2,test,4,0.0,1-Back,1,m,Mon Jun 09 2025 09:37:08 GMT-0500 (Central Daylight Time),442442.1999999881,093_m_f_n_a.png,O,m,1316,3,1,2346.399999976158,440095.8000000119,7161,NNB,C,2
3,test,4,0.0,1-Back,1,m,Mon Jun 09 2025 09:37:08 GMT-0500 (Central Daylight Time),444291.10000002384,030_o_f_n_a.png,O,m,831,4,1,1845.6000000238419,442445.5,7161,NNB,C,3
4,test,4,1.0,1-Back,1,z,Mon Jun 09 2025 09:37:08 GMT-0500 (Central Daylight Time),446057.1999999881,030_o_f_n_a.png,O,z,734,5,1,1762.7999999523163,444294.40000003576,7161,NNB,C,4
5,test,4,0.0,1-Back,1,m,Mon Jun 09 2025 09:37:08 GMT-0500 (Central Daylight Time),448173.40000003576,098_y_f_n_a.png,O,m,1096,6,1,2111.5,446061.90000003576,7161,NNB,C,5
6,test,4,0.0,1-Back,1,m,Mon Jun 09 2025 09:37:08 GMT-0500 (Central Daylight Time),449940.6999999881,057_y_m_n_a.png,O,m,747,7,1,1763.8999999761581,448176.8000000119,7161,NNB,C,6
7,test,4,1.0,1-Back,1,z,Mon Jun 09 2025 09:37:08 GMT-0500 (Central Daylight Time),451755.60000002384,057_y_m_n_a.png,O,z,789,8,1,1810.199999988079,449945.40000003576,7161,NNB,C,7
8,test,4,0.0,1-Back,1,m,Mon Jun 09 2025 09:37:08 GMT-0500 (Central Daylight Time),453655.0,098_y_f_n_a.png,O,m,868,9,1,1896.0999999642372,451758.90000003576,7161,NNB,C,8
9,test,4,0.0,1-Back,1,m,Mon Jun 09 2025 09:37:08 GMT-0500 (Central Daylight Time),455488.0,082_m_m_n_a.png,O,m,810,10,1,1829.5,453658.5,7161,NNB,C,9
10,test,4,1.0,1-Back,1,z,Mon Jun 09 2025 09:37:08 GMT-0500 (Central Daylight Time),457353.90000003576,082_m_m_n_a.png,O,z,840,11,1,1862.7000000476837,455491.1999999881,7161,NNB,C,10
11,test,4,0.0,1-Back,1,m,Mon Jun 09 2025 09:37:08 GMT-0500 (Central Daylight Time),459070.3000000119,130_o_f_n_a.png,O,m,695,12,1,1712.8999999761581,457357.40000003576,7161,NNB,C,11
12,test,4,0.0,1-Back,1,m,Mon Jun 09 2025 09:37:08 GMT-0500 (Central Daylight Time),461036.1999999881,059_o_m_n_a.png,O,m,939,13,1,1963.0,459073.1999999881,7161,NNB,C,12
13,test,4,0.0,1-Back,1,m,Mon Jun 09 2025 09:37:08 GMT-0500 (Central Daylight Time),463035.40000003576,130_o_f_n_a.png,O,m,980,14,1,1994.300000011921,461041.10000002384,7161,NNB,C,13
14,test,4,0.0,1-Back,1,m,Mon Jun 09 2025 09:37:08 GMT-0500 (Central Daylight Time),464985.1999999881,028_y_f_n_a.png,O,m,926,15,1,1945.3999999761581,463039.8000000119,7161,NNB,C,14
15,test,4,1.0,1-Back,1,z,Mon Jun 09 2025 09:37:08 GMT-0500 (Central Daylight Time),466701.0,028_y_f_n_a.png,O,z,688,16,1,1712.699999988079,464988.3000000119,7161,NNB,C,15
16,test,4,0.0,1-Back,1,m,Mon Jun 09 2025 09:37:08 GMT-0500 (Central Daylight Time),468466.90000003576,006_m_f_n_a.png,O,m,748,17,1,1762.6000000238419,466704.3000000119,7161,NNB,C,16
17,test,4,1.0,1-Back,1,z,Mon Jun 09 2025 09:37:08 GMT-0500 (Central Daylight Time),470383.5,006_m_f_n_a.png,O,z,894,18,1,1913.699999988079,468469.8000000119,7161,NNB,C,17
0,test,5,1.0,1-Back,,,Mon Jun 09 2025 09:37:08 GMT-0500 (Central Daylight Time),470383.5,059_o_m_n_a.png,O,space,4569,1,1,1913.699999988079,468469.8000000119,7161,NNB,C,0
1,test,5,1.0,1-Back,1,z,Mon Jun 09 2025 09:37:08 GMT-0500 (Central Daylight Time),478847.1999999881,059_o_m_n_a.png,O,z,844,2,1,1861.5,476985.6999999881,7161,NNB,C,1
2,test,5,0.0,1-Back,1,m,Mon Jun 09 2025 09:37:08 GMT-0500 (Central Daylight Time),480646.8000000119,098_y_f_n_a.png,O,m,770,3,1,1796.3999999761581,478850.40000003576,7161,NNB,C,2
3,test,5,0.0,1-Back,1,m,Mon Jun 09 2025 09:37:08 GMT-0500 (Central Daylight Time),482496.1999999881,057_y_m_n_a.png,O,m,826,4,1,1846.199999988079,480650.0,7161,NNB,C,3
4,test,5,0.0,1-Back,1,m,Mon Jun 09 2025 09:37:08 GMT-0500 (Central Daylight Time),484512.1999999881,098_y_f_n_a.png,O,m,993,5,1,2012.8999999761581,482499.3000000119,7161,NNB,C,4
5,test,5,0.0,1-Back,1,m,Mon Jun 09 2025 09:37:08 GMT-0500 (Central Daylight Time),486262.6999999881,092_m_m_n_a.png,O,m,729,6,1,1745.5999999642372,484517.10000002384,7161,NNB,C,5
6,test,5,1.0,1-Back,1,z,Mon Jun 09 2025 09:37:08 GMT-0500 (Central Daylight Time),487994.3000000119,092_m_m_n_a.png,O,z,707,7,1,1728.3999999761581,486265.90000003576,7161,NNB,C,6
7,test,5,0.0,1-Back,1,m,Mon Jun 09 2025 09:37:08 GMT-0500 (Central Daylight Time),489877.3000000119,028_y_f_n_a.png,O,m,855,8,1,1879.699999988079,487997.60000002384,7161,NNB,C,7
8,test,5,0.0,1-Back,1,m,Mon Jun 09 2025 09:37:08 GMT-0500 (Central Daylight Time),491526.90000003576,031_y_m_n_a.png,O,m,620,9,1,1646.7000000476837,489880.1999999881,7161,NNB,C,8
9,test,5,0.0,1-Back,1,m,Mon Jun 09 2025 09:37:08 GMT-0500 (Central Daylight Time),493226.0,028_y_f_n_a.png,O,m,675,10,1,1696.199999988079,491529.8000000119,7161,NNB,C,9
10,test,5,0.0,1-Back,1,m,Mon Jun 09 2025 09:37:08 GMT-0500 (Central Daylight Time),494958.5,130_o_f_n_a.png,O,m,710,11,1,1729.3999999761581,493229.10000002384,7161,NNB,C,10
11,test,5,1.0,1-Back,1,z,Mon Jun 09 2025 09:37:08 GMT-0500 (Central Daylight Time),496625.1999999881,130_o_f_n_a.png,O,z,642,12,1,1662.3999999761581,494962.8000000119,7161,NNB,C,11
12,test,5,0.0,1-Back,1,m,Mon Jun 09 2025 09:37:08 GMT-0500 (Central Daylight Time),498436.10000002384,146_o_m_n_a.png,O,m,647,13,1,1807.800000011921,496628.3000000119,7161,NNB,C,12
13,test,5,0.0,1-Back,1,m,Mon Jun 09 2025 09:37:08 GMT-0500 (Central Daylight Time),500157.3000000119,093_m_f_n_a.png,O,m,688,14,1,1717.300000011921,498440.0,7161,NNB,C,13
14,test,5,1.0,1-Back,1,z,Mon Jun 09 2025 09:37:08 GMT-0500 (Central Daylight Time),501906.6999999881,093_m_f_n_a.png,O,z,724,15,1,1746.199999988079,500160.5,7161,NNB,C,14
15,test,5,0.0,1-Back,1,m,Mon Jun 09 2025 09:37:08 GMT-0500 (Central Daylight Time),503622.8000000119,146_o_m_n_a.png,O,m,694,16,1,1712.8999999761581,501909.90000003576,7161,NNB,C,15
16,test,5,0.0,1-Back,1,m,Mon Jun 09 2025 09:37:08 GMT-0500 (Central Daylight Time),505422.1999999881,006_m_f_n_a.png,O,m,779,17,1,1795.699999988079,503626.5,7161,NNB,C,16
17,test,5,0.0,1-Back,1,m,Mon Jun 09 2025 09:37:08 GMT-0500 (Central Daylight Time),507188.40000003576,082_m_m_n_a.png,O,m,747,18,1,1762.7000000476837,505425.6999999881,7161,NNB,C,17
0,prac,1,0.0,2-Back,,,Mon Jun 09 2025 09:37:08 GMT-0500 (Central Daylight Time),507188.40000003576,031_y_m_n_a.png,O,space,9643,1,1,1762.7000000476837,505425.6999999881,7161,NNB,C,0
0,prac,1,0.0,2-Back,,,Mon Jun 09 2025 09:37:08 GMT-0500 (Central Daylight Time),507188.40000003576,006_m_f_n_a.png,O,space,9643,2,1,1762.7000000476837,505425.6999999881,7161,NNB,C,0
1,prac,1,1.0,2-Back,1,m,Mon Jun 09 2025 09:37:08 GMT-0500 (Central Daylight Time),715506.5,146_o_m_n_a.png,O,m,898,3,1,1760.8999999761581,713745.6000000238,7161,NNB,C,1
2,prac,1,0.0,2-Back,1,m,Mon Jun 09 2025 09:37:08 GMT-0500 (Central Daylight Time),718172.3000000119,130_o_f_n_a.png,O,m,1793,4,1,2659.199999988079,715513.1000000238,7161,NNB,C,2
2,prac,1,0.0,2-Back,0,z,Mon Jun 09 2025 09:37:08 GMT-0500 (Central Daylight Time),720238.6000000238,146_o_m_n_a.png,O,m,1278,5,1,2059.600000023842,718179.0,7161,NNB,C,3
2,prac,1,1.0,2-Back,0,z,Mon Jun 09 2025 09:37:08 GMT-0500 (Central Daylight Time),723020.9000000358,130_o_f_n_a.png,O,None,2010,6,1,2777.5,720243.4000000358,7161,NNB,C,4
2,prac,1,0.0,2-Back,0,m,Mon Jun 09 2025 09:37:08 GMT-0500 (Central Daylight Time),725886.4000000358,082_m_m_n_a.png,O,None,2012,7,1,2859.2000000476837,723027.1999999881,7161,NNB,C,5
2,prac,1,0.0,2-Back,0,m,Mon Jun 09 2025 09:37:08 GMT-0500 (Central Daylight Time),728752.1000000238,059_o_m_n_a.png,O,None,2011,8,1,2859.699999988079,725892.4000000358,7161,NNB,C,6
3,prac,1,0.0,2-Back,1,m,Mon Jun 09 2025 09:37:08 GMT-0500 (Central Daylight Time),730518.6000000238,028_y_f_n_a.png,O,m,908,9,1,1761.0,728757.6000000238,7161,NNB,C,7
4,prac,1,1.0,2-Back,1,z,Mon Jun 09 2025 09:37:08 GMT-0500 (Central Daylight Time),732234.6000000238,059_o_m_n_a.png,O,z,941,10,1,1710.300000011921,730524.3000000119,7161,NNB,C,8
5,prac,1,0.0,2-Back,1,m,Mon Jun 09 2025 09:37:08 GMT-0500 (Central Daylight Time),734011.5,098_y_f_n_a.png,O,m,908,11,1,1771.0999999642372,732240.4000000358,7161,NNB,C,9
6,prac,1,0.0,2-Back,1,m,Mon Jun 09 2025 09:37:08 GMT-0500 (Central Daylight Time),735617.0,082_m_m_n_a.png,O,m,821,12,1,1597.0999999642372,734019.9000000358,7161,NNB,C,10
0,prac,2,0.0,2-Back,,,Mon Jun 09 2025 09:37:08 GMT-0500 (Central Daylight Time),735617.0,031_y_m_n_a.png,O,a,3365,1,1,1597.0999999642372,734019.9000000358,7161,NNB,C,0
0,prac,2,0.0,2-Back,,,Mon Jun 09 2025 09:37:08 GMT-0500 (Central Daylight Time),735617.0,006_m_f_n_a.png,O,a,3365,2,1,1597.0999999642372,734019.9000000358,7161,NNB,C,0
1,prac,2,1.0,2-Back,1,m,Mon Jun 09 2025 09:37:08 GMT-0500 (Central Daylight Time),746013.3000000119,146_o_m_n_a.png,O,m,927,3,1,1792.800000011921,744220.5,7161,NNB,C,1
2,prac,2,0.0,2-Back,1,m,Mon Jun 09 2025 09:37:08 GMT-0500 (Central Daylight Time),748079.6999999881,130_o_f_n_a.png,O,m,1176,4,1,2060.899999976158,746018.8000000119,7161,NNB,C,2
2,prac,2,0.0,2-Back,0,z,Mon Jun 09 2025 09:37:08 GMT-0500 (Central Daylight Time),750128.9000000358,146_o_m_n_a.png,O,m,1268,5,1,2043.7000000476837,748085.1999999881,7161,NNB,C,3
2,prac,2,1.0,2-Back,0,z,Mon Jun 09 2025 09:37:08 GMT-0500 (Central Daylight Time),752111.9000000358,130_o_f_n_a.png,O,m,1195,6,1,1977.7000000476837,750134.1999999881,7161,NNB,C,4
3,prac,2,0.0,2-Back,1,m,Mon Jun 09 2025 09:37:08 GMT-0500 (Central Daylight Time),754794.0,082_m_m_n_a.png,O,m,1899,7,1,2676.0,752118.0,7161,NNB,C,5
4,prac,2,0.0,2-Back,1,m,Mon Jun 09 2025 09:37:08 GMT-0500 (Central Daylight Time),757109.8000000119,059_o_m_n_a.png,O,m,1447,8,1,2310.5,754799.3000000119,7161,NNB,C,6
5,prac,2,0.0,2-Back,1,m,Mon Jun 09 2025 09:37:08 GMT-0500 (Central Daylight Time),759009.4000000358,028_y_f_n_a.png,O,m,1035,9,1,1892.800000011921,757116.6000000238,7161,NNB,C,7
6,prac,2,1.0,2-Back,1,z,Mon Jun 09 2025 09:37:08 GMT-0500 (Central Daylight Time),760725.6000000238,059_o_m_n_a.png,O,z,939,10,1,1710.699999988079,759014.9000000358,7161,NNB,C,8
7,prac,2,0.0,2-Back,1,m,Mon Jun 09 2025 09:37:08 GMT-0500 (Central Daylight Time),762508.6000000238,098_y_f_n_a.png,O,m,921,11,1,1777.6000000238419,760731.0,7161,NNB,C,9
8,prac,2,0.0,2-Back,1,m,Mon Jun 09 2025 09:37:08 GMT-0500 (Central Daylight Time),764524.6000000238,082_m_m_n_a.png,O,m,1240,12,1,2010.9000000357628,762513.6999999881,7161,NNB,C,10
0,test,1,0.0,2-Back,,,Mon Jun 09 2025 09:37:08 GMT-0500 (Central Daylight Time),764524.6000000238,057_y_m_n_a.png,O,space,12078,1,1,2010.9000000357628,762513.6999999881,7161,NNB,C,0
0,test,1,0.0,2-Back,,,Mon Jun 09 2025 09:37:08 GMT-0500 (Central Daylight Time),764524.6000000238,057_y_m_n_a.png,O,space,12078,2,1,2010.9000000357628,762513.6999999881,7161,NNB,C,0
1,test,1,0.0,2-Back,1,m,Mon Jun 09 2025 09:37:08 GMT-0500 (Central Daylight Time),790716.1999999881,130_o_f_n_a.png,O,m,1106,3,1,2128.699999988079,788587.5,7161,NNB,C,1
2,test,1,0.0,2-Back,1,m,Mon Jun 09 2025 09:37:08 GMT-0500 (Central Daylight Time),793050.1000000238,092_m_m_n_a.png,O,m,1317,4,1,2330.600000023842,790719.5,7161,NNB,C,2
3,test,1,1.0,2-Back,1,z,Mon Jun 09 2025 09:37:08 GMT-0500 (Central Daylight Time),794764.9000000358,130_o_f_n_a.png,O,z,688,5,1,1711.6000000238419,793053.3000000119,7161,NNB,C,3
4,test,1,0.0,2-Back,1,m,Mon Jun 09 2025 09:37:08 GMT-0500 (Central Daylight Time),796714.3000000119,098_y_f_n_a.png,O,m,924,6,1,1945.8999999761581,794768.4000000358,7161,NNB,C,4
5,test,1,0.0,2-Back,1,m,Mon Jun 09 2025 09:37:08 GMT-0500 (Central Daylight Time),798813.9000000358,092_m_m_n_a.png,O,m,1071,7,1,2095.7000000476837,796718.1999999881,7161,NNB,C,5
6,test,1,1.0,2-Back,1,z,Mon Jun 09 2025 09:37:08 GMT-0500 (Central Daylight Time),801129.6999999881,098_y_f_n_a.png,O,z,1291,8,1,2312.7999999523163,798816.9000000358,7161,NNB,C,6
7,test,1,0.0,2-Back,1,m,Mon Jun 09 2025 09:37:08 GMT-0500 (Central Daylight Time),803078.8000000119,031_y_m_n_a.png,O,m,927,9,1,1945.8999999761581,801132.9000000358,7161,NNB,C,7
8,test,1,0.0,2-Back,1,m,Mon Jun 09 2025 09:37:08 GMT-0500 (Central Daylight Time),805028.4000000358,030_o_f_n_a.png,O,m,922,10,1,1946.1000000238419,803082.3000000119,7161,NNB,C,8
9,test,1,1.0,2-Back,1,z,Mon Jun 09 2025 09:37:08 GMT-0500 (Central Daylight Time),807044.4000000358,031_y_m_n_a.png,O,z,997,11,1,2012.4000000357628,805032.0,7161,NNB,C,9
10,test,1,0.0,2-Back,1,m,Mon Jun 09 2025 09:37:08 GMT-0500 (Central Daylight Time),808943.9000000358,006_m_f_n_a.png,O,m,869,12,1,1895.800000011921,807048.1000000238,7161,NNB,C,10
11,test,1,0.0,2-Back,1,m,Mon Jun 09 2025 09:37:08 GMT-0500 (Central Daylight Time),811409.6999999881,006_m_f_n_a.png,O,m,1433,13,1,2462.699999988079,808947.0,7161,NNB,C,11
12,test,1,0.0,2-Back,1,m,Mon Jun 09 2025 09:37:08 GMT-0500 (Central Daylight Time),814192.1999999881,146_o_m_n_a.png,O,m,1759,14,1,2779.5,811412.6999999881,7161,NNB,C,12
13,test,1,0.0,2-Back,1,m,Mon Jun 09 2025 09:37:08 GMT-0500 (Central Daylight Time),816141.6999999881,030_o_f_n_a.png,O,m,921,15,1,1945.7999999523163,814195.9000000358,7161,NNB,C,13
14,test,1,1.0,2-Back,1,z,Mon Jun 09 2025 09:37:08 GMT-0500 (Central Daylight Time),818024.3000000119,146_o_m_n_a.png,O,z,852,16,1,1878.699999988079,816145.6000000238,7161,NNB,C,14
15,test,1,0.0,2-Back,1,m,Mon Jun 09 2025 09:37:08 GMT-0500 (Central Daylight Time),819906.9000000358,093_m_f_n_a.png,O,m,864,17,1,1878.4000000357628,818028.5,7161,NNB,C,15
16,test,1,0.0,2-Back,1,m,Mon Jun 09 2025 09:37:08 GMT-0500 (Central Daylight Time),821889.9000000358,082_m_m_n_a.png,O,m,950,18,1,1979.800000011921,819910.1000000238,7161,NNB,C,16
0,test,2,0.0,2-Back,,,Mon Jun 09 2025 09:37:08 GMT-0500 (Central Daylight Time),821889.9000000358,082_m_m_n_a.png,O,space,4951,1,1,1979.800000011921,819910.1000000238,7161,NNB,C,0
0,test,2,0.0,2-Back,,,Mon Jun 09 2025 09:37:08 GMT-0500 (Central Daylight Time),821889.9000000358,028_y_f_n_a.png,O,space,4951,2,1,1979.800000011921,819910.1000000238,7161,NNB,C,0
0,test,2,1.0,2-Back,0,z,Mon Jun 09 2025 09:37:08 GMT-0500 (Central Daylight Time),833586.0,082_m_m_n_a.png,O,m,591,3,1,1612.8999999761581,831973.1000000238,7161,NNB,C,1
0,test,2,0.0,2-Back,0,m,Mon Jun 09 2025 09:37:08 GMT-0500 (Central Daylight Time),836618.6999999881,093_m_f_n_a.png,O,None,2016,4,1,3028.699999988079,833590.0,7161,NNB,C,2
1,test,2,0.0,2-Back,1,m,Mon Jun 09 2025 09:37:08 GMT-0500 (Central Daylight Time),839034.1999999881,028_y_f_n_a.png,O,m,1383,5,1,2412.0,836622.1999999881,7161,NNB,C,3
2,test,2,0.0,2-Back,1,m,Mon Jun 09 2025 09:37:08 GMT-0500 (Central Daylight Time),841217.1000000238,146_o_m_n_a.png,O,m,1159,6,1,2178.800000011921,839038.3000000119,7161,NNB,C,4
3,test,2,0.0,2-Back,1,m,Mon Jun 09 2025 09:37:08 GMT-0500 (Central Daylight Time),843249.6999999881,098_y_f_n_a.png,O,m,1008,7,1,2029.199999988079,841220.5,7161,NNB,C,5
4,test,2,1.0,2-Back,1,z,Mon Jun 09 2025 09:37:08 GMT-0500 (Central Daylight Time),844965.8000000119,146_o_m_n_a.png,O,z,696,8,1,1712.5,843253.3000000119,7161,NNB,C,6
5,test,2,0.0,2-Back,1,m,Mon Jun 09 2025 09:37:08 GMT-0500 (Central Daylight Time),846898.6999999881,031_y_m_n_a.png,O,m,907,9,1,1929.8999999761581,844968.8000000119,7161,NNB,C,7
5,test,2,0.0,2-Back,0,m,Mon Jun 09 2025 09:37:08 GMT-0500 (Central Daylight Time),848931.4000000358,031_y_m_n_a.png,O,z,1007,10,1,2028.6000000238419,846902.8000000119,7161,NNB,C,8
6,test,2,0.0,2-Back,1,m,Mon Jun 09 2025 09:37:08 GMT-0500 (Central Daylight Time),851113.9000000358,006_m_f_n_a.png,O,m,1150,11,1,2179.300000011921,848934.6000000238,7161,NNB,C,9
7,test,2,0.0,2-Back,1,m,Mon Jun 09 2025 09:37:08 GMT-0500 (Central Daylight Time),852996.6999999881,028_y_f_n_a.png,O,m,862,12,1,1879.5,851117.1999999881,7161,NNB,C,10
8,test,2,1.0,2-Back,1,z,Mon Jun 09 2025 09:37:08 GMT-0500 (Central Daylight Time),854812.9000000358,006_m_f_n_a.png,O,z,788,13,1,1812.9000000357628,853000.0,7161,NNB,C,11
9,test,2,0.0,2-Back,1,m,Mon Jun 09 2025 09:37:08 GMT-0500 (Central Daylight Time),856629.0,059_o_m_n_a.png,O,m,796,14,1,1812.699999988079,854816.3000000119,7161,NNB,C,12
9,test,2,0.0,2-Back,0,m,Mon Jun 09 2025 09:37:08 GMT-0500 (Central Daylight Time),859011.4000000358,059_o_m_n_a.png,O,z,1365,15,1,2378.900000035763,856632.5,7161,NNB,C,13
10,test,2,0.0,2-Back,1,m,Mon Jun 09 2025 09:37:08 GMT-0500 (Central Daylight Time),860927.6000000238,030_o_f_n_a.png,O,m,894,16,1,1912.800000011921,859014.8000000119,7161,NNB,C,14
11,test,2,0.0,2-Back,1,m,Mon Jun 09 2025 09:37:08 GMT-0500 (Central Daylight Time),862843.6999999881,092_m_m_n_a.png,O,m,890,17,1,1912.8999999761581,860930.8000000119,7161,NNB,C,15
12,test,2,1.0,2-Back,1,z,Mon Jun 09 2025 09:37:08 GMT-0500 (Central Daylight Time),864709.6999999881,030_o_f_n_a.png,O,z,845,18,1,1861.7999999523163,862847.9000000358,7161,NNB,C,16
0,test,3,1.0,2-Back,,,Mon Jun 09 2025 09:37:08 GMT-0500 (Central Daylight Time),864709.6999999881,057_y_m_n_a.png,O,space,3708,1,1,1861.7999999523163,862847.9000000358,7161,NNB,C,0
0,test,3,1.0,2-Back,,,Mon Jun 09 2025 09:37:08 GMT-0500 (Central Daylight Time),864709.6999999881,057_y_m_n_a.png,O,space,3708,2,1,1861.7999999523163,862847.9000000358,7161,NNB,C,0
1,test,3,0.0,2-Back,1,m,Mon Jun 09 2025 09:37:08 GMT-0500 (Central Daylight Time),875351.1999999881,030_o_f_n_a.png,O,m,631,3,1,1790.0999999642372,873561.1000000238,7161,NNB,C,1
2,test,3,0.0,2-Back,1,m,Mon Jun 09 2025 09:37:08 GMT-0500 (Central Daylight Time),877355.6000000238,082_m_m_n_a.png,O,m,973,4,1,2000.699999988079,875354.9000000358,7161,NNB,C,2
3,test,3,1.0,2-Back,1,z,Mon Jun 09 2025 09:37:08 GMT-0500 (Central Daylight Time),879205.1999999881,030_o_f_n_a.png,O,z,821,5,1,1846.199999988079,877359.0,7161,NNB,C,3
4,test,3,0.0,2-Back,1,m,Mon Jun 09 2025 09:37:08 GMT-0500 (Central Daylight Time),881621.1000000238,031_y_m_n_a.png,O,m,1396,6,1,2412.400000035763,879208.6999999881,7161,NNB,C,4
4,test,3,0.0,2-Back,0,m,Mon Jun 09 2025 09:37:08 GMT-0500 (Central Daylight Time),883853.6999999881,082_m_m_n_a.png,O,z,1211,7,1,2229.099999964237,881624.6000000238,7161,NNB,C,5
5,test,3,1.0,2-Back,1,z,Mon Jun 09 2025 09:37:08 GMT-0500 (Central Daylight Time),886386.3000000119,031_y_m_n_a.png,O,z,1507,8,1,2528.699999988079,883857.6000000238,7161,NNB,C,6
6,test,3,0.0,2-Back,1,m,Mon Jun 09 2025 09:37:08 GMT-0500 (Central Daylight Time),888235.8000000119,028_y_f_n_a.png,O,m,831,9,1,1846.3999999761581,886389.4000000358,7161,NNB,C,7
7,test,3,0.0,2-Back,1,m,Mon Jun 09 2025 09:37:08 GMT-0500 (Central Daylight Time),890351.6999999881,092_m_m_n_a.png,O,m,1094,10,1,2112.399999976158,888239.3000000119,7161,NNB,C,8
8,test,3,1.0,2-Back,1,z,Mon Jun 09 2025 09:37:08 GMT-0500 (Central Daylight Time),892334.3000000119,028_y_f_n_a.png,O,z,954,11,1,1978.8999999761581,890355.4000000358,7161,NNB,C,9
8,test,3,1.0,2-Back,0,z,Mon Jun 09 2025 09:37:08 GMT-0500 (Central Daylight Time),894350.3000000119,092_m_m_n_a.png,O,m,995,12,1,2012.199999988079,892338.1000000238,7161,NNB,C,10
9,test,3,0.0,2-Back,1,m,Mon Jun 09 2025 09:37:08 GMT-0500 (Central Daylight Time),896349.8000000119,030_o_f_n_a.png,O,m,971,13,1,1995.800000011921,894354.0,7161,NNB,C,11
10,test,3,0.0,2-Back,1,m,Mon Jun 09 2025 09:37:08 GMT-0500 (Central Daylight Time),898282.4000000358,093_m_f_n_a.png,O,m,915,14,1,1929.2000000476837,896353.1999999881,7161,NNB,C,12
11,test,3,0.0,2-Back,1,m,Mon Jun 09 2025 09:37:08 GMT-0500 (Central Daylight Time),900232.0,146_o_m_n_a.png,O,m,919,15,1,1946.5999999642372,898285.4000000358,7161,NNB,C,13
11,test,3,1.0,2-Back,0,z,Mon Jun 09 2025 09:37:08 GMT-0500 (Central Daylight Time),903130.9000000358,093_m_f_n_a.png,O,m,1873,16,1,2895.900000035763,900235.0,7161,NNB,C,14
12,test,3,0.0,2-Back,1,m,Mon Jun 09 2025 09:37:08 GMT-0500 (Central Daylight Time),905813.4000000358,130_o_f_n_a.png,O,m,1654,17,1,2678.7000000476837,903134.6999999881,7161,NNB,C,15
13,test,3,0.0,2-Back,1,m,Mon Jun 09 2025 09:37:08 GMT-0500 (Central Daylight Time),908062.6999999881,130_o_f_n_a.png,O,m,1220,18,1,2246.0,905816.6999999881,7161,NNB,C,16
0,test,4,0.0,2-Back,,,Mon Jun 09 2025 09:37:08 GMT-0500 (Central Daylight Time),908062.6999999881,059_o_m_n_a.png,O,space,3755,1,1,2246.0,905816.6999999881,7161,NNB,C,0
0,test,4,0.0,2-Back,,,Mon Jun 09 2025 09:37:08 GMT-0500 (Central Daylight Time),908062.6999999881,098_y_f_n_a.png,O,space,3755,2,1,2246.0,905816.6999999881,7161,NNB,C,0
1,test,4,1.0,2-Back,1,z,Mon Jun 09 2025 09:37:08 GMT-0500 (Central Daylight Time),918959.5,059_o_m_n_a.png,O,z,894,3,1,1911.800000011921,917047.6999999881,7161,NNB,C,1
2,test,4,1.0,2-Back,1,z,Mon Jun 09 2025 09:37:08 GMT-0500 (Central Daylight Time),921208.6999999881,098_y_f_n_a.png,O,z,1218,4,1,2245.5,918963.1999999881,7161,NNB,C,2
3,test,4,0.0,2-Back,1,m,Mon Jun 09 2025 09:37:08 GMT-0500 (Central Daylight Time),923308.0,030_o_f_n_a.png,O,m,1027,5,1,2096.099999964237,921211.9000000358,7161,NNB,C,3
4,test,4,0.0,2-Back,1,m,Mon Jun 09 2025 09:37:08 GMT-0500 (Central Daylight Time),925507.1000000238,030_o_f_n_a.png,O,m,1181,6,1,2195.400000035763,923311.6999999881,7161,NNB,C,4
5,test,4,0.0,2-Back,1,m,Mon Jun 09 2025 09:37:08 GMT-0500 (Central Daylight Time),927806.6999999881,006_m_f_n_a.png,O,m,1270,7,1,2296.599999964237,925510.1000000238,7161,NNB,C,5
6,test,4,0.0,2-Back,1,m,Mon Jun 09 2025 09:37:08 GMT-0500 (Central Daylight Time),929806.1000000238,031_y_m_n_a.png,O,m,978,8,1,1995.9000000357628,927810.1999999881,7161,NNB,C,6
6,test,4,1.0,2-Back,0,z,Mon Jun 09 2025 09:37:08 GMT-0500 (Central Daylight Time),932421.6999999881,006_m_f_n_a.png,O,m,1595,9,1,2612.0,929809.6999999881,7161,NNB,C,7
7,test,4,0.0,2-Back,1,m,Mon Jun 09 2025 09:37:08 GMT-0500 (Central Daylight Time),934554.6000000238,092_m_m_n_a.png,O,m,1101,10,1,2129.900000035763,932424.6999999881,7161,NNB,C,8
7,test,4,0.0,2-Back,0,m,Mon Jun 09 2025 09:37:08 GMT-0500 (Central Daylight Time),936554.0,031_y_m_n_a.png,O,z,966,11,1,1996.300000011921,934557.6999999881,7161,NNB,C,9
8,test,4,0.0,2-Back,1,m,Mon Jun 09 2025 09:37:08 GMT-0500 (Central Daylight Time),938586.6999999881,130_o_f_n_a.png,O,m,1008,12,1,2029.5,936557.1999999881,7161,NNB,C,10
9,test,4,0.0,2-Back,1,m,Mon Jun 09 2025 09:37:08 GMT-0500 (Central Daylight Time),940802.6000000238,057_y_m_n_a.png,O,m,1191,13,1,2212.199999988079,938590.4000000358,7161,NNB,C,11
10,test,4,1.0,2-Back,1,z,Mon Jun 09 2025 09:37:08 GMT-0500 (Central Daylight Time),942935.1999999881,130_o_f_n_a.png,O,z,1110,14,1,2129.5,940805.6999999881,7161,NNB,C,12
10,test,4,1.0,2-Back,0,z,Mon Jun 09 2025 09:37:08 GMT-0500 (Central Daylight Time),945151.1999999881,057_y_m_n_a.png,O,m,1186,15,1,2212.699999988079,942938.5,7161,NNB,C,13
11,test,4,0.0,2-Back,1,m,Mon Jun 09 2025 09:37:08 GMT-0500 (Central Daylight Time),947250.3000000119,082_m_m_n_a.png,O,m,1082,16,1,2095.899999976158,945154.4000000358,7161,NNB,C,14
12,test,4,0.0,2-Back,1,m,Mon Jun 09 2025 09:37:08 GMT-0500 (Central Daylight Time),949233.1000000238,093_m_f_n_a.png,O,m,951,17,1,1979.199999988079,947253.9000000358,7161,NNB,C,15
13,test,4,1.0,2-Back,1,z,Mon Jun 09 2025 09:37:08 GMT-0500 (Central Daylight Time),951649.1000000238,082_m_m_n_a.png,O,z,1392,18,1,2412.100000023842,949237.0,7161,NNB,C,16
0,test,5,1.0,2-Back,,,Mon Jun 09 2025 09:37:08 GMT-0500 (Central Daylight Time),951649.1000000238,057_y_m_n_a.png,O,space,5032,1,1,2412.100000023842,949237.0,7161,NNB,C,0
0,test,5,1.0,2-Back,,,Mon Jun 09 2025 09:37:08 GMT-0500 (Central Daylight Time),951649.1000000238,093_m_f_n_a.png,O,space,5032,2,1,2412.100000023842,949237.0,7161,NNB,C,0
1,test,5,1.0,2-Back,1,z,Mon Jun 09 2025 09:37:08 GMT-0500 (Central Daylight Time),963812.0,057_y_m_n_a.png,O,z,1039,3,1,2061.5,961750.5,7161,NNB,C,1
2,test,5,1.0,2-Back,1,z,Mon Jun 09 2025 09:37:08 GMT-0500 (Central Daylight Time),965728.1000000238,093_m_f_n_a.png,O,z,893,4,1,1912.6000000238419,963815.5,7161,NNB,C,2
3,test,5,0.0,2-Back,1,m,Mon Jun 09 2025 09:37:08 GMT-0500 (Central Daylight Time),967694.0,130_o_f_n_a.png,O,m,937,5,1,1962.3999999761581,965731.6000000238,7161,NNB,C,3
4,test,5,0.0,2-Back,1,m,Mon Jun 09 2025 09:37:08 GMT-0500 (Central Daylight Time),970110.1999999881,057_y_m_n_a.png,O,m,1387,6,1,2413.199999988079,967697.0,7161,NNB,C,4
5,test,5,0.0,2-Back,1,m,Mon Jun 09 2025 09:37:08 GMT-0500 (Central Daylight Time),972176.0,028_y_f_n_a.png,O,m,1043,7,1,2061.800000011921,970114.1999999881,7161,NNB,C,5
5,test,5,0.0,2-Back,0,m,Mon Jun 09 2025 09:37:08 GMT-0500 (Central Daylight Time),974058.6999999881,130_o_f_n_a.png,O,z,857,8,1,1879.5,972179.1999999881,7161,NNB,C,6
6,test,5,1.0,2-Back,1,z,Mon Jun 09 2025 09:37:08 GMT-0500 (Central Daylight Time),976691.1999999881,028_y_f_n_a.png,O,z,1607,9,1,2629.5,974061.6999999881,7161,NNB,C,7
7,test,5,0.0,2-Back,1,m,Mon Jun 09 2025 09:37:08 GMT-0500 (Central Daylight Time),978574.1000000238,146_o_m_n_a.png,O,m,862,10,1,1879.6000000238419,976694.5,7161,NNB,C,8
8,test,5,0.0,2-Back,1,m,Mon Jun 09 2025 09:37:08 GMT-0500 (Central Daylight Time),980673.5,006_m_f_n_a.png,O,m,1075,11,1,2096.300000011921,978577.1999999881,7161,NNB,C,9
9,test,5,0.0,2-Back,1,m,Mon Jun 09 2025 09:37:08 GMT-0500 (Central Daylight Time),982989.3000000119,092_m_m_n_a.png,O,m,1288,12,1,2311.899999976158,980677.4000000358,7161,NNB,C,10
10,test,5,0.0,2-Back,1,m,Mon Jun 09 2025 09:37:08 GMT-0500 (Central Daylight Time),985055.1999999881,146_o_m_n_a.png,O,m,1036,13,1,2062.5,982992.6999999881,7161,NNB,C,11
11,test,5,1.0,2-Back,1,z,Mon Jun 09 2025 09:37:08 GMT-0500 (Central Daylight Time),986988.1000000238,092_m_m_n_a.png,O,z,914,14,1,1929.800000011921,985058.3000000119,7161,NNB,C,12
12,test,5,0.0,2-Back,1,m,Mon Jun 09 2025 09:37:08 GMT-0500 (Central Daylight Time),989004.3000000119,098_y_f_n_a.png,O,m,989,15,1,2012.800000011921,986991.5,7161,NNB,C,13
13,test,5,0.0,2-Back,1,m,Mon Jun 09 2025 09:37:08 GMT-0500 (Central Daylight Time),991069.9000000358,059_o_m_n_a.png,O,m,1037,16,1,2062.2000000476837,989007.6999999881,7161,NNB,C,14
14,test,5,0.0,2-Back,1,m,Mon Jun 09 2025 09:37:08 GMT-0500 (Central Daylight Time),993111.4000000358,006_m_f_n_a.png,O,m,1024,17,1,2037.7000000476837,991073.6999999881,7161,NNB,C,15
15,test,5,1.0,2-Back,1,z,Mon Jun 09 2025 09:37:08 GMT-0500 (Central Daylight Time),995152.0,059_o_m_n_a.png,O,z,1019,18,1,2036.3999999761581,993115.6000000238,7161,NNB,C,16
