acc_sum,block,block_c,change,condition,correct,correct_response,datetime,endtime,face,project,response,response_time,row_sel,session_number,start_end,starttime,subject_id,task,task_vers,trial
0,prac,1,,1-Back,,,Thu Jun 11 2026 14:20:00 GMT-0500 (Central Daylight Time),,124_o_f_d_a.png,I,space,3020,1,2,,,8062,VNB,A,0
1,prac,1,0.0,1-Back,1.0,m,Thu Jun 11 2026 14:20:00 GMT-0500 (Central Daylight Time),127704.0,071_y_f_n_a.png,I,m,1274,2,2,2073.899999856949,125630.10000014305,8062,VNB,A,1
2,prac,1,0.0,1-Back,1.0,m,Thu Jun 11 2026 14:20:00 GMT-0500 (Central Daylight Time),129536.70000004768,165_m_m_h_a.png,I,m,1028,3,2,1828.3999998569489,127708.30000019073,8062,VNB,A,2
3,prac,1,0.0,1-Back,1.0,m,Thu Jun 11 2026 14:20:00 GMT-0500 (Central Daylight Time),131137.5,109_y_m_d_a.png,I,m,775,4,2,1591.6999998092651,129545.80000019073,8062,VNB,A,3
4,prac,1,0.0,1-Back,1.0,m,Thu Jun 11 2026 14:20:00 GMT-0500 (Central Daylight Time),132852.5,124_o_f_n_a.png,I,m,866,5,2,1710.5999999046326,131141.90000009537,8062,VNB,A,4
5,prac,1,1.0,1-Back,1.0,z,Thu Jun 11 2026 14:20:00 GMT-0500 (Central Daylight Time),134485.30000019073,109_y_m_n_a.png,I,z,812,6,2,1624.1000001430511,132861.20000004768,8062,VNB,A,5
6,prac,1,0.0,1-Back,1.0,m,Thu Jun 11 2026 14:20:00 GMT-0500 (Central Daylight Time),136334.60000014305,039_o_m_h_a.png,I,m,1039,7,2,1845.2999999523163,134489.30000019073,8062,VNB,A,6
7,prac,1,0.0,1-Back,1.0,m,Thu Jun 11 2026 14:20:00 GMT-0500 (Central Daylight Time),137884.10000014305,139_m_f_d_a.png,I,m,759,8,2,1540.7999999523163,136343.30000019073,8062,VNB,A,7
8,prac,1,1.0,1-Back,1.0,z,Thu Jun 11 2026 14:20:00 GMT-0500 (Central Daylight Time),139600.80000019073,071_y_f_d_a.png,I,z,919,9,2,1712.4000000953674,137888.40000009537,8062,VNB,A,8
9,prac,1,0.0,1-Back,1.0,m,Thu Jun 11 2026 14:20:00 GMT-0500 (Central Daylight Time),141216.40000009537,165_m_m_n_a.png,I,m,806,10,2,1608.0,139608.40000009537,8062,VNB,A,9
10,prac,1,0.0,1-Back,1.0,m,Thu Jun 11 2026 14:20:00 GMT-0500 (Central Daylight Time),143216.90000009537,124_o_f_h_a.png,I,m,1194,11,2,1996.2000000476837,141220.70000004768,8062,VNB,A,10
11,prac,1,0.0,1-Back,1.0,m,Thu Jun 11 2026 14:20:00 GMT-0500 (Central Daylight Time),144915.20000004768,109_y_m_d_a.png,I,m,920,12,2,1689.8999998569489,143225.30000019073,8062,VNB,A,11
0,test,1,0.0,1-Back,,,Thu Jun 11 2026 14:20:00 GMT-0500 (Central Daylight Time),144915.20000004768,071_y_f_d_a.png,I,space,2244,1,2,1689.8999998569489,143225.30000019073,8062,VNB,A,0
1,test,1,0.0,1-Back,1.0,m,Thu Jun 11 2026 14:20:00 GMT-0500 (Central Daylight Time),156145.0,139_m_f_n_a.png,I,m,858,2,2,1876.3999998569489,154268.60000014305,8062,VNB,A,1
2,test,1,0.0,1-Back,1.0,m,Thu Jun 11 2026 14:20:00 GMT-0500 (Central Daylight Time),157977.80000019073,039_o_m_h_a.png,I,m,799,3,2,1830.0,156147.80000019073,8062,VNB,A,2
3,test,1,1.0,1-Back,1.0,z,Thu Jun 11 2026 14:20:00 GMT-0500 (Central Daylight Time),159777.60000014305,165_m_m_h_a.png,I,z,783,4,2,1797.2000000476837,157980.40000009537,8062,VNB,A,3
4,test,1,0.0,1-Back,1.0,m,Thu Jun 11 2026 14:20:00 GMT-0500 (Central Daylight Time),161526.5,124_o_f_n_a.png,I,m,727,5,2,1746.5,159780.0,8062,VNB,A,4
5,test,1,0.0,1-Back,1.0,m,Thu Jun 11 2026 14:20:00 GMT-0500 (Central Daylight Time),163359.40000009537,109_y_m_d_a.png,I,m,803,6,2,1830.2999999523163,161529.10000014305,8062,VNB,A,5
6,test,1,1.0,1-Back,1.0,z,Thu Jun 11 2026 14:20:00 GMT-0500 (Central Daylight Time),165308.80000019073,139_m_f_d_a.png,I,z,920,7,2,1946.6000001430511,163362.20000004768,8062,VNB,A,6
7,test,1,0.0,1-Back,1.0,m,Thu Jun 11 2026 14:20:00 GMT-0500 (Central Daylight Time),167208.30000019073,071_y_f_h_a.png,I,m,877,8,2,1896.7000000476837,165311.60000014305,8062,VNB,A,7
8,test,1,0.0,1-Back,1.0,m,Thu Jun 11 2026 14:20:00 GMT-0500 (Central Daylight Time),169241.0,039_o_m_n_a.png,I,m,1009,9,2,2030.0,167211.0,8062,VNB,A,8
9,test,1,0.0,1-Back,1.0,m,Thu Jun 11 2026 14:20:00 GMT-0500 (Central Daylight Time),171123.70000004768,109_y_m_h_a.png,I,m,863,10,2,1880.0,169243.70000004768,8062,VNB,A,9
10,test,1,0.0,1-Back,1.0,m,Thu Jun 11 2026 14:20:00 GMT-0500 (Central Daylight Time),173289.40000009537,039_o_m_d_a.png,I,m,1149,11,2,2162.5,171126.90000009537,8062,VNB,A,10
11,test,1,1.0,1-Back,1.0,z,Thu Jun 11 2026 14:20:00 GMT-0500 (Central Daylight Time),175172.10000014305,124_o_f_d_a.png,I,z,856,12,2,1879.7000000476837,173292.40000009537,8062,VNB,A,11
12,test,1,0.0,1-Back,1.0,m,Thu Jun 11 2026 14:20:00 GMT-0500 (Central Daylight Time),176938.10000014305,165_m_m_n_a.png,I,m,748,13,2,1763.4000000953674,175174.70000004768,8062,VNB,A,12
13,test,1,1.0,1-Back,1.0,z,Thu Jun 11 2026 14:20:00 GMT-0500 (Central Daylight Time),178770.90000009537,071_y_f_n_a.png,I,z,815,14,2,1830.0999999046326,176940.80000019073,8062,VNB,A,13
14,test,1,0.0,1-Back,1.0,m,Thu Jun 11 2026 14:20:00 GMT-0500 (Central Daylight Time),180737.20000004768,139_m_f_h_a.png,I,m,942,15,2,1963.7999999523163,178773.40000009537,8062,VNB,A,14
15,test,1,0.0,1-Back,1.0,m,Thu Jun 11 2026 14:20:00 GMT-0500 (Central Daylight Time),182520.10000014305,165_m_m_d_a.png,I,m,760,16,2,1780.2000000476837,180739.90000009537,8062,VNB,A,15
16,test,1,0.0,1-Back,1.0,m,Thu Jun 11 2026 14:20:00 GMT-0500 (Central Daylight Time),184735.90000009537,109_y_m_n_a.png,I,m,1184,17,2,2213.0999999046326,182522.80000019073,8062,VNB,A,16
17,test,1,0.0,1-Back,1.0,m,Thu Jun 11 2026 14:20:00 GMT-0500 (Central Daylight Time),186435.60000014305,124_o_f_h_a.png,I,m,680,18,2,1697.2000000476837,184738.40000009537,8062,VNB,A,17
0,test,2,0.0,1-Back,,,Thu Jun 11 2026 14:20:00 GMT-0500 (Central Daylight Time),186435.60000014305,109_y_m_n_a.png,I,space,1886,1,2,1697.2000000476837,184738.40000009537,8062,VNB,A,0
1,test,2,0.0,1-Back,1.0,m,Thu Jun 11 2026 14:20:00 GMT-0500 (Central Daylight Time),192217.10000014305,071_y_f_h_a.png,I,m,841,2,2,1861.5,190355.60000014305,8062,VNB,A,1
2,test,2,1.0,1-Back,1.0,m,Thu Jun 11 2026 14:20:00 GMT-0500 (Central Daylight Time),193983.20000004768,039_o_m_n_a.png,I,m,742,3,2,1763.3999998569489,192219.80000019073,8062,VNB,A,2
2,test,2,0.0,1-Back,0.0,m,Thu Jun 11 2026 14:20:00 GMT-0500 (Central Daylight Time),195999.20000004768,139_m_f_d_a.png,I,z,985,4,2,2013.3999998569489,193985.80000019073,8062,VNB,A,3
3,test,2,0.0,1-Back,1.0,z,Thu Jun 11 2026 14:20:00 GMT-0500 (Central Daylight Time),197831.80000019073,165_m_m_d_a.png,I,z,801,5,2,1827.6000001430511,196004.20000004768,8062,VNB,A,4
4,test,2,0.0,1-Back,1.0,m,Thu Jun 11 2026 14:20:00 GMT-0500 (Central Daylight Time),199598.0,109_y_m_h_a.png,I,m,736,6,2,1763.3999998569489,197834.60000014305,8062,VNB,A,5
5,test,2,1.0,1-Back,1.0,z,Thu Jun 11 2026 14:20:00 GMT-0500 (Central Daylight Time),201397.40000009537,124_o_f_h_a.png,I,z,771,7,2,1796.7000000476837,199600.70000004768,8062,VNB,A,6
6,test,2,0.0,1-Back,1.0,m,Thu Jun 11 2026 14:20:00 GMT-0500 (Central Daylight Time),203230.20000004768,139_m_f_n_a.png,I,m,810,8,2,1827.0,201403.20000004768,8062,VNB,A,7
7,test,2,0.0,1-Back,1.0,m,Thu Jun 11 2026 14:20:00 GMT-0500 (Central Daylight Time),204913.30000019073,071_y_f_d_a.png,I,m,650,9,2,1680.0,203233.30000019073,8062,VNB,A,8
8,test,2,0.0,1-Back,1.0,m,Thu Jun 11 2026 14:20:00 GMT-0500 (Central Daylight Time),206829.10000014305,165_m_m_n_a.png,I,m,896,10,2,1913.2999999523163,204915.80000019073,8062,VNB,A,9
9,test,2,1.0,1-Back,1.0,m,Thu Jun 11 2026 14:20:00 GMT-0500 (Central Daylight Time),208561.5,139_m_f_h_a.png,I,m,703,11,2,1726.8999998569489,206834.60000014305,8062,VNB,A,10
10,test,2,0.0,1-Back,1.0,z,Thu Jun 11 2026 14:20:00 GMT-0500 (Central Daylight Time),210511.20000004768,039_o_m_h_a.png,I,z,918,12,2,1947.0999999046326,208564.10000014305,8062,VNB,A,11
11,test,2,0.0,1-Back,1.0,m,Thu Jun 11 2026 14:20:00 GMT-0500 (Central Daylight Time),212210.60000014305,109_y_m_d_a.png,I,m,673,13,2,1696.7000000476837,210513.90000009537,8062,VNB,A,12
12,test,2,0.0,1-Back,1.0,m,Thu Jun 11 2026 14:20:00 GMT-0500 (Central Daylight Time),214043.60000014305,124_o_f_n_a.png,I,m,807,14,2,1826.9000000953674,212216.70000004768,8062,VNB,A,13
13,test,2,0.0,1-Back,1.0,z,Thu Jun 11 2026 14:20:00 GMT-0500 (Central Daylight Time),215976.0,071_y_f_n_a.png,I,z,901,15,2,1929.6999998092651,214046.30000019073,8062,VNB,A,14
14,test,2,1.0,1-Back,1.0,m,Thu Jun 11 2026 14:20:00 GMT-0500 (Central Daylight Time),217792.40000009537,165_m_m_h_a.png,I,m,792,16,2,1813.5999999046326,215978.80000019073,8062,VNB,A,15
15,test,2,0.0,1-Back,1.0,m,Thu Jun 11 2026 14:20:00 GMT-0500 (Central Daylight Time),219458.60000014305,124_o_f_d_a.png,I,m,641,17,2,1661.5,217797.10000014305,8062,VNB,A,16
16,test,2,1.0,1-Back,1.0,z,Thu Jun 11 2026 14:20:00 GMT-0500 (Central Daylight Time),221158.0,039_o_m_d_a.png,I,z,671,18,2,1696.8999998569489,219461.10000014305,8062,VNB,A,17
0,test,3,1.0,1-Back,,,Thu Jun 11 2026 14:20:00 GMT-0500 (Central Daylight Time),221158.0,124_o_f_h_a.png,I,space,1219,1,2,1696.8999998569489,219461.10000014305,8062,VNB,A,0
1,test,3,0.0,1-Back,1.0,m,Thu Jun 11 2026 14:20:00 GMT-0500 (Central Daylight Time),226172.90000009537,139_m_f_d_a.png,I,m,705,2,2,1728.2000000476837,224444.70000004768,8062,VNB,A,1
2,test,3,1.0,1-Back,1.0,m,Thu Jun 11 2026 14:20:00 GMT-0500 (Central Daylight Time),227972.40000009537,165_m_m_n_a.png,I,m,779,3,2,1796.7999999523163,226175.60000014305,8062,VNB,A,2
3,test,3,0.0,1-Back,1.0,z,Thu Jun 11 2026 14:20:00 GMT-0500 (Central Daylight Time),229688.5,124_o_f_n_a.png,I,z,692,4,2,1713.2999999523163,227975.20000004768,8062,VNB,A,3
4,test,3,1.0,1-Back,1.0,m,Thu Jun 11 2026 14:20:00 GMT-0500 (Central Daylight Time),231432.40000009537,039_o_m_d_a.png,I,m,648,5,2,1741.0,229691.40000009537,8062,VNB,A,4
5,test,3,0.0,1-Back,1.0,m,Thu Jun 11 2026 14:20:00 GMT-0500 (Central Daylight Time),233187.40000009537,071_y_f_h_a.png,I,m,740,6,2,1752.0,231435.40000009537,8062,VNB,A,5
6,test,3,0.0,1-Back,1.0,z,Thu Jun 11 2026 14:20:00 GMT-0500 (Central Daylight Time),235086.80000019073,109_y_m_h_a.png,I,z,877,7,2,1896.7000000476837,233190.10000014305,8062,VNB,A,6
7,test,3,0.0,1-Back,1.0,m,Thu Jun 11 2026 14:20:00 GMT-0500 (Central Daylight Time),236769.70000004768,139_m_f_n_a.png,I,m,658,8,2,1679.7000000476837,235090.0,8062,VNB,A,7
8,test,3,0.0,1-Back,1.0,m,Thu Jun 11 2026 14:20:00 GMT-0500 (Central Daylight Time),238419.0,071_y_f_d_a.png,I,m,623,9,2,1646.5999999046326,236772.40000009537,8062,VNB,A,8
9,test,3,1.0,1-Back,1.0,m,Thu Jun 11 2026 14:20:00 GMT-0500 (Central Daylight Time),240652.80000019073,039_o_m_n_a.png,I,m,1213,10,2,2231.300000190735,238421.5,8062,VNB,A,9
10,test,3,0.0,1-Back,1.0,m,Thu Jun 11 2026 14:20:00 GMT-0500 (Central Daylight Time),242684.20000004768,165_m_m_h_a.png,I,m,1013,11,2,2028.3999998569489,240655.80000019073,8062,VNB,A,10
10,test,3,0.0,1-Back,0.0,z,Thu Jun 11 2026 14:20:00 GMT-0500 (Central Daylight Time),244634.0,139_m_f_h_a.png,I,m,917,12,2,1947.0999999046326,242686.90000009537,8062,VNB,A,11
11,test,3,1.0,1-Back,1.0,m,Thu Jun 11 2026 14:20:00 GMT-0500 (Central Daylight Time),246316.90000009537,124_o_f_d_a.png,I,m,654,13,2,1680.4000000953674,244636.5,8062,VNB,A,12
12,test,3,0.0,1-Back,1.0,z,Thu Jun 11 2026 14:20:00 GMT-0500 (Central Daylight Time),248266.0,165_m_m_d_a.png,I,z,925,14,2,1946.2999999523163,246319.70000004768,8062,VNB,A,13
13,test,3,0.0,1-Back,1.0,m,Thu Jun 11 2026 14:20:00 GMT-0500 (Central Daylight Time),250098.80000019073,109_y_m_n_a.png,I,m,807,15,2,1828.9000000953674,248269.90000009537,8062,VNB,A,14
14,test,3,1.0,1-Back,1.0,m,Thu Jun 11 2026 14:20:00 GMT-0500 (Central Daylight Time),252048.30000019073,039_o_m_h_a.png,I,m,925,16,2,1946.9000000953674,250101.40000009537,8062,VNB,A,15
15,test,3,0.0,1-Back,1.0,m,Thu Jun 11 2026 14:20:00 GMT-0500 (Central Daylight Time),253847.70000004768,109_y_m_d_a.png,I,m,777,17,2,1796.5999999046326,252051.10000014305,8062,VNB,A,16
16,test,3,1.0,1-Back,1.0,m,Thu Jun 11 2026 14:20:00 GMT-0500 (Central Daylight Time),255880.30000019073,071_y_f_n_a.png,I,m,881,18,2,2029.9000000953674,253850.40000009537,8062,VNB,A,17
0,test,4,1.0,1-Back,,,Thu Jun 11 2026 14:20:00 GMT-0500 (Central Daylight Time),255880.30000019073,165_m_m_d_a.png,I,space,1088,1,2,2029.9000000953674,253850.40000009537,8062,VNB,A,0
1,test,4,0.0,1-Back,1.0,z,Thu Jun 11 2026 14:20:00 GMT-0500 (Central Daylight Time),260995.5,039_o_m_d_a.png,I,z,980,2,2,1994.5,259001.0,8062,VNB,A,1
2,test,4,0.0,1-Back,1.0,m,Thu Jun 11 2026 14:20:00 GMT-0500 (Central Daylight Time),262644.7000000477,109_y_m_h_a.png,I,m,622,3,2,1646.7000000476837,260998.0,8062,VNB,A,2
3,test,4,0.0,1-Back,1.0,m,Thu Jun 11 2026 14:20:00 GMT-0500 (Central Daylight Time),264395.40000009537,139_m_f_n_a.png,I,m,731,4,2,1748.2999999523163,262647.10000014305,8062,VNB,A,3
4,test,4,1.0,1-Back,1.0,m,Thu Jun 11 2026 14:20:00 GMT-0500 (Central Daylight Time),266277.10000014305,124_o_f_h_a.png,I,m,855,5,2,1878.9000000953674,264398.2000000477,8062,VNB,A,4
5,test,4,0.0,1-Back,1.0,m,Thu Jun 11 2026 14:20:00 GMT-0500 (Central Daylight Time),268060.0,165_m_m_n_a.png,I,m,756,6,2,1780.0,266280.0,8062,VNB,A,5
6,test,4,0.0,1-Back,1.0,m,Thu Jun 11 2026 14:20:00 GMT-0500 (Central Daylight Time),269859.60000014305,109_y_m_d_a.png,I,m,773,7,2,1797.2000000476837,268062.40000009537,8062,VNB,A,6
7,test,4,1.0,1-Back,1.0,z,Thu Jun 11 2026 14:20:00 GMT-0500 (Central Daylight Time),271775.2000000477,071_y_f_d_a.png,I,z,894,8,2,1913.0999999046326,269862.10000014305,8062,VNB,A,7
8,test,4,0.0,1-Back,1.0,m,Thu Jun 11 2026 14:20:00 GMT-0500 (Central Daylight Time),273458.10000014305,139_m_f_h_a.png,I,m,657,9,2,1680.1000001430511,271778.0,8062,VNB,A,8
9,test,4,0.0,1-Back,1.0,z,Thu Jun 11 2026 14:20:00 GMT-0500 (Central Daylight Time),275124.2000000477,039_o_m_h_a.png,I,z,646,10,2,1663.2000000476837,273461.0,8062,VNB,A,9
10,test,4,1.0,1-Back,1.0,m,Thu Jun 11 2026 14:20:00 GMT-0500 (Central Daylight Time),276873.5,124_o_f_n_a.png,I,m,732,11,2,1746.0999999046326,275127.40000009537,8062,VNB,A,10
11,test,4,0.0,1-Back,1.0,m,Thu Jun 11 2026 14:20:00 GMT-0500 (Central Daylight Time),278773.30000019073,139_m_f_d_a.png,I,m,872,12,2,1897.4000000953674,276875.90000009537,8062,VNB,A,11
12,test,4,0.0,1-Back,1.0,m,Thu Jun 11 2026 14:20:00 GMT-0500 (Central Daylight Time),280805.80000019073,071_y_f_n_a.png,I,m,1012,13,2,2029.8000001907349,278776.0,8062,VNB,A,12
13,test,4,0.0,1-Back,1.0,m,Thu Jun 11 2026 14:20:00 GMT-0500 (Central Daylight Time),282672.0,124_o_f_d_a.png,I,m,835,14,2,1863.5,280808.5,8062,VNB,A,13
14,test,4,0.0,1-Back,1.0,m,Thu Jun 11 2026 14:20:00 GMT-0500 (Central Daylight Time),284521.60000014305,071_y_f_h_a.png,I,m,826,15,2,1846.9000000953674,282674.7000000477,8062,VNB,A,14
15,test,4,1.0,1-Back,1.0,z,Thu Jun 11 2026 14:20:00 GMT-0500 (Central Daylight Time),286370.7000000477,165_m_m_h_a.png,I,z,832,16,2,1846.5999999046326,284524.10000014305,8062,VNB,A,15
16,test,4,0.0,1-Back,1.0,m,Thu Jun 11 2026 14:20:00 GMT-0500 (Central Daylight Time),288137.0,039_o_m_n_a.png,I,m,734,17,2,1763.6999998092651,286373.30000019073,8062,VNB,A,16
16,test,4,1.0,1-Back,0.0,z,Thu Jun 11 2026 14:20:00 GMT-0500 (Central Daylight Time),290369.80000019073,109_y_m_n_a.png,I,m,1199,18,2,2230.4000000953674,288139.40000009537,8062,VNB,A,17
0,test,5,1.0,1-Back,,,Thu Jun 11 2026 14:20:00 GMT-0500 (Central Daylight Time),290369.80000019073,039_o_m_n_a.png,I,space,1159,1,2,2230.4000000953674,288139.40000009537,8062,VNB,A,0
1,test,5,1.0,1-Back,1.0,m,Thu Jun 11 2026 14:20:00 GMT-0500 (Central Daylight Time),295402.5,124_o_f_h_a.png,I,m,823,2,2,1845.5,293557.0,8062,VNB,A,1
2,test,5,0.0,1-Back,1.0,m,Thu Jun 11 2026 14:20:00 GMT-0500 (Central Daylight Time),297617.2000000477,109_y_m_d_a.png,I,m,1199,3,2,2211.7999999523163,295405.40000009537,8062,VNB,A,2
3,test,5,0.0,1-Back,1.0,z,Thu Jun 11 2026 14:20:00 GMT-0500 (Central Daylight Time),299566.80000019073,039_o_m_d_a.png,I,z,919,4,2,1947.1000001430511,297619.7000000477,8062,VNB,A,3
4,test,5,0.0,1-Back,1.0,m,Thu Jun 11 2026 14:20:00 GMT-0500 (Central Daylight Time),301232.7000000477,139_m_f_h_a.png,I,m,633,5,2,1663.0999999046326,299569.60000014305,8062,VNB,A,4
5,test,5,0.0,1-Back,1.0,m,Thu Jun 11 2026 14:20:00 GMT-0500 (Central Daylight Time),303215.7000000477,071_y_f_n_a.png,I,m,958,6,2,1980.5999999046326,301235.10000014305,8062,VNB,A,5
6,test,5,1.0,1-Back,1.0,z,Thu Jun 11 2026 14:20:00 GMT-0500 (Central Daylight Time),305065.0,124_o_f_n_a.png,I,z,825,7,2,1846.8999998569489,303218.10000014305,8062,VNB,A,6
6,test,5,0.0,1-Back,0.0,m,Thu Jun 11 2026 14:20:00 GMT-0500 (Central Daylight Time),307231.0,139_m_f_d_a.png,I,z,1143,8,2,2163.0999999046326,305067.90000009537,8062,VNB,A,7
7,test,5,0.0,1-Back,1.0,m,Thu Jun 11 2026 14:20:00 GMT-0500 (Central Daylight Time),309230.30000019073,109_y_m_h_a.png,I,m,979,9,2,1996.5,307233.80000019073,8062,VNB,A,8
8,test,5,0.0,1-Back,1.0,m,Thu Jun 11 2026 14:20:00 GMT-0500 (Central Daylight Time),310979.80000019073,071_y_f_d_a.png,I,m,730,10,2,1747.0,309232.80000019073,8062,VNB,A,9
9,test,5,0.0,1-Back,1.0,m,Thu Jun 11 2026 14:20:00 GMT-0500 (Central Daylight Time),313112.5,165_m_m_n_a.png,I,m,1110,11,2,2130.199999809265,310982.30000019073,8062,VNB,A,10
10,test,5,1.0,1-Back,1.0,z,Thu Jun 11 2026 14:20:00 GMT-0500 (Central Daylight Time),315011.7000000477,139_m_f_n_a.png,I,z,881,12,2,1896.5999999046326,313115.10000014305,8062,VNB,A,11
11,test,5,0.0,1-Back,1.0,m,Thu Jun 11 2026 14:20:00 GMT-0500 (Central Daylight Time),316944.90000009537,039_o_m_h_a.png,I,m,909,13,2,1930.7999999523163,315014.10000014305,8062,VNB,A,12
12,test,5,0.0,1-Back,1.0,z,Thu Jun 11 2026 14:20:00 GMT-0500 (Central Daylight Time),318894.0,165_m_m_h_a.png,I,z,929,14,2,1946.2999999523163,316947.7000000477,8062,VNB,A,13
13,test,5,1.0,1-Back,1.0,m,Thu Jun 11 2026 14:20:00 GMT-0500 (Central Daylight Time),320443.40000009537,124_o_f_d_a.png,I,m,531,15,2,1547.0,318896.40000009537,8062,VNB,A,14
14,test,5,0.0,1-Back,1.0,m,Thu Jun 11 2026 14:20:00 GMT-0500 (Central Daylight Time),322276.60000014305,109_y_m_n_a.png,I,m,813,16,2,1830.6000001430511,320446.0,8062,VNB,A,15
15,test,5,0.0,1-Back,1.0,m,Thu Jun 11 2026 14:20:00 GMT-0500 (Central Daylight Time),323992.5,071_y_f_h_a.png,I,m,684,17,2,1713.5999999046326,322278.90000009537,8062,VNB,A,16
16,test,5,0.0,1-Back,1.0,m,Thu Jun 11 2026 14:20:00 GMT-0500 (Central Daylight Time),325702.90000009537,165_m_m_d_a.png,I,m,656,18,2,1708.0,323994.90000009537,8062,VNB,A,17
0,prac,1,0.0,2-Back,,,Thu Jun 11 2026 14:20:00 GMT-0500 (Central Daylight Time),325702.90000009537,139_m_f_n_a.png,I,space,2967,1,2,1708.0,323994.90000009537,8062,VNB,A,0
0,prac,1,0.0,2-Back,,,Thu Jun 11 2026 14:20:00 GMT-0500 (Central Daylight Time),325702.90000009537,124_o_f_h_a.png,I,space,2967,2,2,1708.0,323994.90000009537,8062,VNB,A,0
1,prac,1,0.0,2-Back,1.0,m,Thu Jun 11 2026 14:20:00 GMT-0500 (Central Daylight Time),403334.40000009537,039_o_m_d_a.png,I,m,897,3,2,1694.7000000476837,401639.7000000477,8062,VNB,A,1
2,prac,1,1.0,2-Back,1.0,z,Thu Jun 11 2026 14:20:00 GMT-0500 (Central Daylight Time),405050.40000009537,165_m_m_h_a.png,I,z,904,4,2,1707.2999999523163,403343.10000014305,8062,VNB,A,2
3,prac,1,0.0,2-Back,1.0,m,Thu Jun 11 2026 14:20:00 GMT-0500 (Central Daylight Time),406716.7000000477,071_y_f_n_a.png,I,m,863,5,2,1661.7999999523163,405054.90000009537,8062,VNB,A,3
3,prac,1,1.0,2-Back,0.0,z,Thu Jun 11 2026 14:20:00 GMT-0500 (Central Daylight Time),408499.5,039_o_m_h_a.png,I,m,1001,6,2,1779.1999998092651,406720.30000019073,8062,VNB,A,4
3,prac,1,1.0,2-Back,0.0,z,Thu Jun 11 2026 14:20:00 GMT-0500 (Central Daylight Time),410265.30000019073,109_y_m_n_a.png,I,m,956,7,2,1762.0,408503.30000019073,8062,VNB,A,5
4,prac,1,0.0,2-Back,1.0,m,Thu Jun 11 2026 14:20:00 GMT-0500 (Central Daylight Time),412048.10000014305,139_m_f_d_a.png,I,m,970,8,2,1778.7000000476837,410269.40000009537,8062,VNB,A,6
5,prac,1,0.0,2-Back,1.0,m,Thu Jun 11 2026 14:20:00 GMT-0500 (Central Daylight Time),414297.60000014305,124_o_f_d_a.png,I,m,1414,9,2,2241.0,412056.60000014305,8062,VNB,A,7
6,prac,1,0.0,2-Back,1.0,m,Thu Jun 11 2026 14:20:00 GMT-0500 (Central Daylight Time),415896.90000009537,165_m_m_h_a.png,I,m,812,10,2,1595.4000000953674,414301.5,8062,VNB,A,8
7,prac,1,1.0,2-Back,1.0,z,Thu Jun 11 2026 14:20:00 GMT-0500 (Central Daylight Time),417712.90000009537,071_y_f_d_a.png,I,z,1013,11,2,1812.2000000476837,415900.7000000477,8062,VNB,A,9
8,prac,1,0.0,2-Back,1.0,m,Thu Jun 11 2026 14:20:00 GMT-0500 (Central Daylight Time),419529.10000014305,039_o_m_n_a.png,I,m,1021,12,2,1812.6000001430511,417716.5,8062,VNB,A,10
0,test,1,0.0,2-Back,,,Thu Jun 11 2026 14:20:00 GMT-0500 (Central Daylight Time),419529.10000014305,109_y_m_h_a.png,I,space,2311,1,2,1812.6000001430511,417716.5,8062,VNB,A,0
0,test,1,0.0,2-Back,,,Thu Jun 11 2026 14:20:00 GMT-0500 (Central Daylight Time),419529.10000014305,124_o_f_n_a.png,I,space,2311,2,2,1812.6000001430511,417716.5,8062,VNB,A,0
1,test,1,0.0,2-Back,1.0,z,Thu Jun 11 2026 14:20:00 GMT-0500 (Central Daylight Time),435257.5,039_o_m_h_a.png,I,z,749,3,2,1763.5999999046326,433493.90000009537,8062,VNB,A,1
2,test,1,0.0,2-Back,1.0,m,Thu Jun 11 2026 14:20:00 GMT-0500 (Central Daylight Time),437173.60000014305,139_m_f_d_a.png,I,m,896,4,2,1913.9000000953674,435259.7000000477,8062,VNB,A,2
3,test,1,1.0,2-Back,1.0,m,Thu Jun 11 2026 14:20:00 GMT-0500 (Central Daylight Time),439089.7000000477,109_y_m_n_a.png,I,m,892,5,2,1913.5,437176.2000000477,8062,VNB,A,3
3,test,1,0.0,2-Back,0.0,z,Thu Jun 11 2026 14:20:00 GMT-0500 (Central Daylight Time),441022.60000014305,071_y_f_d_a.png,I,m,904,6,2,1930.5,439092.10000014305,8062,VNB,A,4
4,test,1,0.0,2-Back,1.0,m,Thu Jun 11 2026 14:20:00 GMT-0500 (Central Daylight Time),442955.0,165_m_m_h_a.png,I,m,914,7,2,1930.0999999046326,441024.90000009537,8062,VNB,A,5
5,test,1,1.0,2-Back,1.0,m,Thu Jun 11 2026 14:20:00 GMT-0500 (Central Daylight Time),445204.30000019073,071_y_f_n_a.png,I,m,1221,8,2,2246.300000190735,442958.0,8062,VNB,A,6
6,test,1,0.0,2-Back,1.0,z,Thu Jun 11 2026 14:20:00 GMT-0500 (Central Daylight Time),446936.90000009537,124_o_f_h_a.png,I,z,709,9,2,1730.2000000476837,445206.7000000477,8062,VNB,A,7
7,test,1,0.0,2-Back,1.0,m,Thu Jun 11 2026 14:20:00 GMT-0500 (Central Daylight Time),448919.90000009537,039_o_m_d_a.png,I,m,960,10,2,1980.5,446939.40000009537,8062,VNB,A,8
8,test,1,1.0,2-Back,1.0,m,Thu Jun 11 2026 14:20:00 GMT-0500 (Central Daylight Time),450785.80000019073,165_m_m_d_a.png,I,m,841,11,2,1863.3000001907349,448922.5,8062,VNB,A,9
9,test,1,0.0,2-Back,1.0,m,Thu Jun 11 2026 14:20:00 GMT-0500 (Central Daylight Time),452818.40000009537,139_m_f_n_a.png,I,m,1016,12,2,2030.0,450788.40000009537,8062,VNB,A,10
9,test,1,0.0,2-Back,0.0,m,Thu Jun 11 2026 14:20:00 GMT-0500 (Central Daylight Time),454668.10000014305,071_y_f_h_a.png,I,z,831,13,2,1847.2999999523163,452820.80000019073,8062,VNB,A,11
9,test,1,0.0,2-Back,0.0,z,Thu Jun 11 2026 14:20:00 GMT-0500 (Central Daylight Time),456533.80000019073,165_m_m_n_a.png,I,m,845,14,2,1863.0,454670.80000019073,8062,VNB,A,12
10,test,1,0.0,2-Back,1.0,m,Thu Jun 11 2026 14:20:00 GMT-0500 (Central Daylight Time),458383.30000019073,109_y_m_d_a.png,I,m,825,15,2,1847.2000000476837,456536.10000014305,8062,VNB,A,13
11,test,1,1.0,2-Back,1.0,m,Thu Jun 11 2026 14:20:00 GMT-0500 (Central Daylight Time),460132.7000000477,139_m_f_h_a.png,I,m,729,16,2,1746.7000000476837,458386.0,8062,VNB,A,14
12,test,1,0.0,2-Back,1.0,z,Thu Jun 11 2026 14:20:00 GMT-0500 (Central Daylight Time),461799.0,124_o_f_d_a.png,I,z,644,17,2,1664.0,460135.0,8062,VNB,A,15
13,test,1,0.0,2-Back,1.0,m,Thu Jun 11 2026 14:20:00 GMT-0500 (Central Daylight Time),463798.60000014305,039_o_m_n_a.png,I,m,978,18,2,1997.1000001430511,461801.5,8062,VNB,A,16
0,test,2,0.0,2-Back,,,Thu Jun 11 2026 14:20:00 GMT-0500 (Central Daylight Time),463798.60000014305,165_m_m_h_a.png,I,space,2579,1,2,1997.1000001430511,461801.5,8062,VNB,A,0
0,test,2,0.0,2-Back,,,Thu Jun 11 2026 14:20:00 GMT-0500 (Central Daylight Time),463798.60000014305,071_y_f_n_a.png,I,space,2579,2,2,1997.1000001430511,461801.5,8062,VNB,A,0
1,test,2,1.0,2-Back,1.0,z,Thu Jun 11 2026 14:20:00 GMT-0500 (Central Daylight Time),473345.5,124_o_f_h_a.png,I,z,859,3,2,1880.0999999046326,471465.40000009537,8062,VNB,A,1
2,test,2,0.0,2-Back,1.0,m,Thu Jun 11 2026 14:20:00 GMT-0500 (Central Daylight Time),475595.90000009537,039_o_m_d_a.png,I,m,1231,4,2,2248.0,473347.90000009537,8062,VNB,A,2
3,test,2,0.0,2-Back,1.0,m,Thu Jun 11 2026 14:20:00 GMT-0500 (Central Daylight Time),477777.2000000477,139_m_f_d_a.png,I,m,1166,5,2,2178.5999999046326,475598.60000014305,8062,VNB,A,3
4,test,2,0.0,2-Back,1.0,m,Thu Jun 11 2026 14:20:00 GMT-0500 (Central Daylight Time),480010.0,109_y_m_h_a.png,I,m,1200,6,2,2230.399999856949,477779.60000014305,8062,VNB,A,4
5,test,2,0.0,2-Back,1.0,m,Thu Jun 11 2026 14:20:00 GMT-0500 (Central Daylight Time),482026.0,124_o_f_n_a.png,I,m,991,7,2,2013.5,480012.5,8062,VNB,A,5
5,test,2,1.0,2-Back,0.0,z,Thu Jun 11 2026 14:20:00 GMT-0500 (Central Daylight Time),484191.90000009537,039_o_m_h_a.png,I,m,1134,8,2,2163.5999999046326,482028.30000019073,8062,VNB,A,6
6,test,2,0.0,2-Back,1.0,m,Thu Jun 11 2026 14:20:00 GMT-0500 (Central Daylight Time),486074.5,071_y_f_d_a.png,I,m,865,9,2,1880.0999999046326,484194.40000009537,8062,VNB,A,7
7,test,2,0.0,2-Back,1.0,m,Thu Jun 11 2026 14:20:00 GMT-0500 (Central Daylight Time),487841.10000014305,109_y_m_d_a.png,I,m,734,10,2,1764.2000000476837,486076.90000009537,8062,VNB,A,8
8,test,2,0.0,2-Back,1.0,m,Thu Jun 11 2026 14:20:00 GMT-0500 (Central Daylight Time),489623.90000009537,165_m_m_n_a.png,I,m,752,11,2,1780.2999999523163,487843.60000014305,8062,VNB,A,9
9,test,2,0.0,2-Back,1.0,m,Thu Jun 11 2026 14:20:00 GMT-0500 (Central Daylight Time),491356.40000009537,139_m_f_h_a.png,I,m,664,12,2,1729.9000000953674,489626.5,8062,VNB,A,10
9,test,2,1.0,2-Back,0.0,z,Thu Jun 11 2026 14:20:00 GMT-0500 (Central Daylight Time),493172.80000019073,039_o_m_n_a.png,I,m,788,13,2,1813.9000000953674,491358.90000009537,8062,VNB,A,11
10,test,2,0.0,2-Back,1.0,m,Thu Jun 11 2026 14:20:00 GMT-0500 (Central Daylight Time),494838.90000009537,124_o_f_d_a.png,I,m,645,14,2,1663.5,493175.40000009537,8062,VNB,A,12
11,test,2,0.0,2-Back,1.0,m,Thu Jun 11 2026 14:20:00 GMT-0500 (Central Daylight Time),496671.60000014305,071_y_f_h_a.png,I,m,810,15,2,1830.2000000476837,494841.40000009537,8062,VNB,A,13
11,test,2,0.0,2-Back,0.0,z,Thu Jun 11 2026 14:20:00 GMT-0500 (Central Daylight Time),498353.90000009537,165_m_m_d_a.png,I,m,657,16,2,1679.7000000476837,496674.2000000477,8062,VNB,A,14
12,test,2,0.0,2-Back,1.0,m,Thu Jun 11 2026 14:20:00 GMT-0500 (Central Daylight Time),500170.10000014305,109_y_m_n_a.png,I,m,798,17,2,1813.7999999523163,498356.30000019073,8062,VNB,A,15
12,test,2,1.0,2-Back,0.0,m,Thu Jun 11 2026 14:20:00 GMT-0500 (Central Daylight Time),502436.60000014305,139_m_f_n_a.png,I,z,1239,18,2,2264.5,500172.10000014305,8062,VNB,A,16
0,test,3,1.0,2-Back,,,Thu Jun 11 2026 14:20:00 GMT-0500 (Central Daylight Time),502436.60000014305,039_o_m_n_a.png,I,space,1284,1,2,2264.5,500172.10000014305,8062,VNB,A,0
0,test,3,1.0,2-Back,,,Thu Jun 11 2026 14:20:00 GMT-0500 (Central Daylight Time),502436.60000014305,124_o_f_d_a.png,I,space,1284,2,2,2264.5,500172.10000014305,8062,VNB,A,0
1,test,3,0.0,2-Back,1.0,m,Thu Jun 11 2026 14:20:00 GMT-0500 (Central Daylight Time),510750.5,071_y_f_h_a.png,I,m,936,3,2,1962.3999998569489,508788.10000014305,8062,VNB,A,1
2,test,3,0.0,2-Back,1.0,z,Thu Jun 11 2026 14:20:00 GMT-0500 (Central Daylight Time),512749.90000009537,139_m_f_d_a.png,I,z,970,4,2,1996.7000000476837,510753.2000000477,8062,VNB,A,2
3,test,3,1.0,2-Back,1.0,m,Thu Jun 11 2026 14:20:00 GMT-0500 (Central Daylight Time),514699.2000000477,109_y_m_n_a.png,I,m,922,5,2,1946.7000000476837,512752.5,8062,VNB,A,3
3,test,3,0.0,2-Back,0.0,m,Thu Jun 11 2026 14:20:00 GMT-0500 (Central Daylight Time),516948.7000000477,039_o_m_h_a.png,I,z,1229,6,2,2246.7000000476837,514702.0,8062,VNB,A,4
3,test,3,0.0,2-Back,0.0,z,Thu Jun 11 2026 14:20:00 GMT-0500 (Central Daylight Time),518981.30000019073,071_y_f_n_a.png,I,m,1013,7,2,2030.3000001907349,516951.0,8062,VNB,A,5
4,test,3,1.0,2-Back,1.0,m,Thu Jun 11 2026 14:20:00 GMT-0500 (Central Daylight Time),521047.10000014305,165_m_m_d_a.png,I,m,1036,8,2,2063.4000000953674,518983.7000000477,8062,VNB,A,6
5,test,3,0.0,2-Back,1.0,m,Thu Jun 11 2026 14:20:00 GMT-0500 (Central Daylight Time),523146.2000000477,109_y_m_d_a.png,I,m,1082,9,2,2096.7000000476837,521049.5,8062,VNB,A,7
6,test,3,0.0,2-Back,1.0,m,Thu Jun 11 2026 14:20:00 GMT-0500 (Central Daylight Time),524912.600000143,124_o_f_h_a.png,I,m,743,10,2,1763.7999999523163,523148.80000019073,8062,VNB,A,8
7,test,3,1.0,2-Back,1.0,m,Thu Jun 11 2026 14:20:00 GMT-0500 (Central Daylight Time),526812.100000143,139_m_f_n_a.png,I,m,881,11,2,1897.2000000476837,524914.9000000954,8062,VNB,A,9
7,test,3,1.0,2-Back,0.0,z,Thu Jun 11 2026 14:20:00 GMT-0500 (Central Daylight Time),528811.4000000954,165_m_m_h_a.png,I,m,973,12,2,1994.5,526816.9000000954,8062,VNB,A,10
8,test,3,0.0,2-Back,1.0,m,Thu Jun 11 2026 14:20:00 GMT-0500 (Central Daylight Time),530494.2000000477,071_y_f_d_a.png,I,m,653,13,2,1680.2999999523163,528813.9000000954,8062,VNB,A,11
9,test,3,0.0,2-Back,1.0,m,Thu Jun 11 2026 14:20:00 GMT-0500 (Central Daylight Time),532743.600000143,124_o_f_n_a.png,I,m,1227,14,2,2246.7000000476837,530496.9000000954,8062,VNB,A,12
9,test,3,0.0,2-Back,0.0,z,Thu Jun 11 2026 14:20:00 GMT-0500 (Central Daylight Time),534377.4000000954,039_o_m_d_a.png,I,m,609,15,2,1631.2000000476837,532746.2000000477,8062,VNB,A,13
10,test,3,1.0,2-Back,1.0,m,Thu Jun 11 2026 14:20:00 GMT-0500 (Central Daylight Time),536225.5,139_m_f_h_a.png,I,m,816,16,2,1845.5999999046326,534379.9000000954,8062,VNB,A,14
11,test,3,0.0,2-Back,1.0,m,Thu Jun 11 2026 14:20:00 GMT-0500 (Central Daylight Time),538108.7000000477,165_m_m_n_a.png,I,m,856,17,2,1880.8999998569489,536227.8000001907,8062,VNB,A,15
11,test,3,0.0,2-Back,0.0,z,Thu Jun 11 2026 14:20:00 GMT-0500 (Central Daylight Time),539908.100000143,109_y_m_h_a.png,I,m,780,18,2,1794.7999999523163,538113.3000001907,8062,VNB,A,16
0,test,4,0.0,2-Back,,,Thu Jun 11 2026 14:20:00 GMT-0500 (Central Daylight Time),539908.100000143,139_m_f_n_a.png,I,space,1052,1,2,1794.7999999523163,538113.3000001907,8062,VNB,A,0
0,test,4,0.0,2-Back,,,Thu Jun 11 2026 14:20:00 GMT-0500 (Central Daylight Time),539908.100000143,039_o_m_n_a.png,I,space,1052,2,2,1794.7999999523163,538113.3000001907,8062,VNB,A,0
1,test,4,1.0,2-Back,1.0,m,Thu Jun 11 2026 14:20:00 GMT-0500 (Central Daylight Time),548255.600000143,109_y_m_h_a.png,I,m,1186,3,2,2213.5,546042.100000143,8062,VNB,A,1
1,test,4,1.0,2-Back,0.0,m,Thu Jun 11 2026 14:20:00 GMT-0500 (Central Daylight Time),550138.2000000477,124_o_f_d_a.png,I,z,850,4,2,1880.0999999046326,548258.100000143,8062,VNB,A,2
1,test,4,0.0,2-Back,0.0,z,Thu Jun 11 2026 14:20:00 GMT-0500 (Central Daylight Time),552104.2000000477,039_o_m_h_a.png,I,m,934,5,2,1963.3999998569489,550140.8000001907,8062,VNB,A,3
1,test,4,0.0,2-Back,0.0,m,Thu Jun 11 2026 14:20:00 GMT-0500 (Central Daylight Time),554003.7000000477,165_m_m_n_a.png,I,z,880,6,2,1895.2000000476837,552108.5,8062,VNB,A,4
2,test,4,0.0,2-Back,1.0,m,Thu Jun 11 2026 14:20:00 GMT-0500 (Central Daylight Time),555769.7000000477,139_m_f_d_a.png,I,m,741,7,2,1763.7000000476837,554006.0,8062,VNB,A,5
2,test,4,0.0,2-Back,0.0,z,Thu Jun 11 2026 14:20:00 GMT-0500 (Central Daylight Time),557535.9000000954,071_y_f_n_a.png,I,m,744,8,2,1763.7999999523163,555772.100000143,8062,VNB,A,6
3,test,4,1.0,2-Back,1.0,m,Thu Jun 11 2026 14:20:00 GMT-0500 (Central Daylight Time),559251.9000000954,124_o_f_h_a.png,I,m,697,9,2,1713.0999999046326,557538.8000001907,8062,VNB,A,7
4,test,4,0.0,2-Back,1.0,m,Thu Jun 11 2026 14:20:00 GMT-0500 (Central Daylight Time),560951.3000001907,165_m_m_h_a.png,I,m,668,10,2,1696.9000000953674,559254.4000000954,8062,VNB,A,8
5,test,4,0.0,2-Back,1.0,m,Thu Jun 11 2026 14:20:00 GMT-0500 (Central Daylight Time),562634.3000001907,071_y_f_d_a.png,I,m,657,11,2,1680.5,560953.8000001907,8062,VNB,A,9
6,test,4,0.0,2-Back,1.0,m,Thu Jun 11 2026 14:20:00 GMT-0500 (Central Daylight Time),564317.100000143,109_y_m_n_a.png,I,m,663,12,2,1680.0,562637.100000143,8062,VNB,A,10
6,test,4,0.0,2-Back,0.0,z,Thu Jun 11 2026 14:20:00 GMT-0500 (Central Daylight Time),565983.2000000477,039_o_m_d_a.png,I,m,636,13,2,1663.5999999046326,564319.600000143,8062,VNB,A,11
7,test,4,1.0,2-Back,1.0,m,Thu Jun 11 2026 14:20:00 GMT-0500 (Central Daylight Time),567749.2000000477,139_m_f_h_a.png,I,m,738,14,2,1763.3999998569489,565985.8000001907,8062,VNB,A,12
7,test,4,1.0,2-Back,0.0,m,Thu Jun 11 2026 14:20:00 GMT-0500 (Central Daylight Time),569831.9000000954,071_y_f_h_a.png,I,z,1051,15,2,2079.9000000953674,567752.0,8062,VNB,A,13
8,test,4,0.0,2-Back,1.0,m,Thu Jun 11 2026 14:20:00 GMT-0500 (Central Daylight Time),571698.100000143,124_o_f_n_a.png,I,m,849,16,2,1863.7999999523163,569834.3000001907,8062,VNB,A,14
9,test,4,0.0,2-Back,1.0,m,Thu Jun 11 2026 14:20:00 GMT-0500 (Central Daylight Time),573364.2000000477,109_y_m_d_a.png,I,m,638,17,2,1663.5,571700.7000000477,8062,VNB,A,15
10,test,4,1.0,2-Back,1.0,m,Thu Jun 11 2026 14:20:00 GMT-0500 (Central Daylight Time),575130.2000000477,165_m_m_d_a.png,I,m,740,18,2,1763.3999998569489,573366.8000001907,8062,VNB,A,16
0,test,5,1.0,2-Back,,,Thu Jun 11 2026 14:20:00 GMT-0500 (Central Daylight Time),575130.2000000477,071_y_f_d_a.png,I,space,1023,1,2,1763.3999998569489,573366.8000001907,8062,VNB,A,0
0,test,5,1.0,2-Back,,,Thu Jun 11 2026 14:20:00 GMT-0500 (Central Daylight Time),575130.2000000477,124_o_f_h_a.png,I,space,1023,2,2,1763.3999998569489,573366.8000001907,8062,VNB,A,0
0,test,5,1.0,2-Back,0.0,z,Thu Jun 11 2026 14:20:00 GMT-0500 (Central Daylight Time),582944.4000000954,039_o_m_d_a.png,I,m,660,3,2,1680.0999999046326,581264.3000001907,8062,VNB,A,1
1,test,5,1.0,2-Back,1.0,m,Thu Jun 11 2026 14:20:00 GMT-0500 (Central Daylight Time),584660.600000143,139_m_f_n_a.png,I,m,697,4,2,1713.5,582947.100000143,8062,VNB,A,2
2,test,5,0.0,2-Back,1.0,m,Thu Jun 11 2026 14:20:00 GMT-0500 (Central Daylight Time),586526.7000000477,165_m_m_h_a.png,I,m,837,5,2,1863.7000000476837,584663.0,8062,VNB,A,3
3,test,5,0.0,2-Back,1.0,z,Thu Jun 11 2026 14:20:00 GMT-0500 (Central Daylight Time),588209.2000000477,071_y_f_n_a.png,I,z,650,6,2,1680.0,586529.2000000477,8062,VNB,A,4
4,test,5,0.0,2-Back,1.0,m,Thu Jun 11 2026 14:20:00 GMT-0500 (Central Daylight Time),590391.8000001907,124_o_f_d_a.png,I,m,1151,7,2,2179.7000000476837,588212.100000143,8062,VNB,A,5
5,test,5,0.0,2-Back,1.0,m,Thu Jun 11 2026 14:20:00 GMT-0500 (Central Daylight Time),592141.2000000477,039_o_m_h_a.png,I,m,729,8,2,1747.2000000476837,590394.0,8062,VNB,A,6
5,test,5,1.0,2-Back,0.0,z,Thu Jun 11 2026 14:20:00 GMT-0500 (Central Daylight Time),593907.3000001907,139_m_f_d_a.png,I,m,747,9,2,1763.4000000953674,592143.9000000954,8062,VNB,A,7
6,test,5,0.0,2-Back,1.0,m,Thu Jun 11 2026 14:20:00 GMT-0500 (Central Daylight Time),595707.2000000477,109_y_m_n_a.png,I,m,781,10,2,1797.5999999046326,593909.600000143,8062,VNB,A,8
6,test,5,0.0,2-Back,0.0,m,Thu Jun 11 2026 14:20:00 GMT-0500 (Central Daylight Time),597673.4000000954,165_m_m_n_a.png,I,z,949,11,2,1963.7000000476837,595709.7000000477,8062,VNB,A,9
7,test,5,0.0,2-Back,1.0,m,Thu Jun 11 2026 14:20:00 GMT-0500 (Central Daylight Time),599239.0,071_y_f_h_a.png,I,m,534,12,2,1561.5,597677.5,8062,VNB,A,10
8,test,5,0.0,2-Back,1.0,m,Thu Jun 11 2026 14:20:00 GMT-0500 (Central Daylight Time),601188.600000143,109_y_m_d_a.png,I,m,922,13,2,1946.7000000476837,599241.9000000954,8062,VNB,A,11
8,test,5,1.0,2-Back,0.0,z,Thu Jun 11 2026 14:20:00 GMT-0500 (Central Daylight Time),602771.5,139_m_f_h_a.png,I,m,564,14,2,1580.5999999046326,601190.9000000954,8062,VNB,A,12
8,test,5,0.0,2-Back,0.0,m,Thu Jun 11 2026 14:20:00 GMT-0500 (Central Daylight Time),604654.2000000477,039_o_m_n_a.png,I,z,853,15,2,1880.3999998569489,602773.8000001907,8062,VNB,A,13
9,test,5,0.0,2-Back,1.0,m,Thu Jun 11 2026 14:20:00 GMT-0500 (Central Daylight Time),606487.2000000477,165_m_m_d_a.png,I,m,811,16,2,1830.5,604656.7000000477,8062,VNB,A,14
10,test,5,0.0,2-Back,1.0,z,Thu Jun 11 2026 14:20:00 GMT-0500 (Central Daylight Time),608529.600000143,124_o_f_n_a.png,I,z,1026,17,2,2039.7999999523163,606489.8000001907,8062,VNB,A,15
11,test,5,1.0,2-Back,1.0,m,Thu Jun 11 2026 14:20:00 GMT-0500 (Central Daylight Time),610252.5,109_y_m_h_a.png,I,m,705,18,2,1720.1999998092651,608532.3000001907,8062,VNB,A,16
