acc_sum,block,block_c,block_cond,con_img,correct,correct_response,datetime,endtime,face,jitter,line,project,response,response_time,row_sel,session_number,start_end,starttime,subject_id,task,task_vers,trial
1,prac,1,A,haborder.png,1,m,Thu Nov 13 2025 14:09:25 GMT-0500 (Eastern Standard Time),93690.70000000298,CFD-WF-017-016-HC.jpg,1500,solid,I,m,1251,11,1,3566.8999999910593,90123.80000001192,9030,ATS,A,1
2,prac,1,A,haborder.png,1,z,Thu Nov 13 2025 14:09:25 GMT-0500 (Eastern Standard Time),97307.30000001192,CFD-WM-013-015-A.jpg,1900,solid,I,z,901,8,1,7183.5,90123.80000001192,9030,ATS,A,2
3,prac,1,A,haborder.png,1,m,Thu Nov 13 2025 14:09:25 GMT-0500 (Eastern Standard Time),100257.20000000298,CFD-WM-004-005-HC.jpg,1400,solid,I,m,745,7,1,10133.39999999106,90123.80000001192,9030,ATS,A,3
3,prac,1,A,haborder.png,0,z,Thu Nov 13 2025 14:09:25 GMT-0500 (Eastern Standard Time),102990.30000001192,CFD-BF-023-013-A.jpg,1000,solid,I,m,931,4,1,12866.5,90123.80000001192,9030,ATS,A,4
4,prac,1,A,haborder.png,1,z,Thu Nov 13 2025 14:09:25 GMT-0500 (Eastern Standard Time),105707.20000000298,CFD-WF-019-015-A.jpg,1000,solid,I,z,901,12,1,15583.39999999106,90123.80000001192,9030,ATS,A,5
5,prac,1,A,haborder.png,1,m,Thu Nov 13 2025 14:09:25 GMT-0500 (Eastern Standard Time),109290.40000000596,CFD-BM-029-026-HC.jpg,1500,solid,I,m,1268,3,1,19166.59999999404,90123.80000001192,9030,ATS,A,6
6,prac,1,A,haborder.png,1,z,Thu Nov 13 2025 14:09:25 GMT-0500 (Eastern Standard Time),112507.10000000894,CFD-BM-005-010-A.jpg,1600,solid,I,z,801,2,1,22383.29999999702,90123.80000001192,9030,ATS,A,7
7,prac,1,A,haborder.png,1,z,Thu Nov 13 2025 14:09:25 GMT-0500 (Eastern Standard Time),115840.40000000596,CFD-WF-003-014-A.jpg,1600,solid,I,z,929,10,1,25716.59999999404,90123.80000001192,9030,ATS,A,8
8,prac,1,A,haborder.png,1,m,Thu Nov 13 2025 14:09:25 GMT-0500 (Eastern Standard Time),119623.80000001192,CFD-BF-028-020-HC.jpg,2000,solid,I,m,972,5,1,29500.0,90123.80000001192,9030,ATS,A,9
9,prac,1,A,haborder.png,1,m,Thu Nov 13 2025 14:09:25 GMT-0500 (Eastern Standard Time),123057.10000000894,CFD-WM-006-013-HC.jpg,1700,solid,I,m,929,9,1,32933.29999999702,90123.80000001192,9030,ATS,A,10
10,prac,1,A,haborder.png,1,m,Thu Nov 13 2025 14:09:25 GMT-0500 (Eastern Standard Time),126557.10000000894,CFD-BM-017-052-HC.jpg,1700,solid,I,m,999,1,1,36433.29999999702,90123.80000001192,9030,ATS,A,11
11,prac,1,A,haborder.png,1,z,Thu Nov 13 2025 14:09:25 GMT-0500 (Eastern Standard Time),129373.90000000596,CFD-BF-039-039-A.jpg,1200,solid,I,z,815,6,1,39250.09999999404,90123.80000001192,9030,ATS,A,12
0,prac,1,B,mfborder.png,0,z,Thu Nov 13 2025 14:09:25 GMT-0500 (Eastern Standard Time),168057.0,CFD-BF-010-005-HC.jpg,1500,dash,I,None,1515,3,1,3816.699999988079,164240.30000001192,9030,ATS,A,1
1,prac,1,B,mfborder.png,1,z,Thu Nov 13 2025 14:09:25 GMT-0500 (Eastern Standard Time),171190.30000001192,CFD-BF-028-020-HC.jpg,1400,dash,I,z,923,7,1,6950.0,164240.30000001192,9030,ATS,A,2
2,prac,1,B,mfborder.png,1,m,Thu Nov 13 2025 14:09:25 GMT-0500 (Eastern Standard Time),174506.90000000596,CFD-BM-029-026-HC.jpg,1700,dash,I,m,800,1,1,10266.59999999404,164240.30000001192,9030,ATS,A,3
3,prac,1,B,mfborder.png,1,m,Thu Nov 13 2025 14:09:25 GMT-0500 (Eastern Standard Time),178323.70000000298,CFD-BM-005-010-A.jpg,2000,dash,I,m,992,5,1,14083.39999999106,164240.30000001192,9030,ATS,A,4
4,prac,1,B,mfborder.png,1,z,Thu Nov 13 2025 14:09:25 GMT-0500 (Eastern Standard Time),181807.0,CFD-WF-003-014-A.jpg,1500,dash,I,z,1180,11,1,17566.69999998808,164240.30000001192,9030,ATS,A,5
5,prac,1,B,mfborder.png,1,z,Thu Nov 13 2025 14:09:25 GMT-0500 (Eastern Standard Time),184523.70000000298,CFD-WF-017-016-HC.jpg,1000,dash,I,z,900,12,1,20283.39999999106,164240.30000001192,9030,ATS,A,6
6,prac,1,B,mfborder.png,1,z,Thu Nov 13 2025 14:09:25 GMT-0500 (Eastern Standard Time),188223.60000000894,CFD-WF-002-008-HC.jpg,1900,dash,I,z,996,8,1,23983.29999999702,164240.30000001192,9030,ATS,A,7
7,prac,1,B,mfborder.png,1,z,Thu Nov 13 2025 14:09:25 GMT-0500 (Eastern Standard Time),190973.70000000298,CFD-BF-023-013-A.jpg,1000,dash,I,z,948,4,1,26733.39999999106,164240.30000001192,9030,ATS,A,8
8,prac,1,B,mfborder.png,1,m,Thu Nov 13 2025 14:09:25 GMT-0500 (Eastern Standard Time),194523.80000001192,CFD-WM-013-015-A.jpg,1700,dash,I,m,1033,9,1,30283.5,164240.30000001192,9030,ATS,A,9
9,prac,1,B,mfborder.png,1,m,Thu Nov 13 2025 14:09:25 GMT-0500 (Eastern Standard Time),197790.40000000596,CFD-BM-010-019-A.jpg,1600,dash,I,m,864,2,1,33550.09999999404,164240.30000001192,9030,ATS,A,10
10,prac,1,B,mfborder.png,1,m,Thu Nov 13 2025 14:09:25 GMT-0500 (Eastern Standard Time),201223.70000000298,CFD-WM-006-013-HC.jpg,1600,dash,I,m,1022,10,1,36983.39999999106,164240.30000001192,9030,ATS,A,11
11,prac,1,B,mfborder.png,1,m,Thu Nov 13 2025 14:09:25 GMT-0500 (Eastern Standard Time),204090.20000000298,CFD-WM-019-013-A.jpg,1200,dash,I,m,851,6,1,39849.89999999106,164240.30000001192,9030,ATS,A,12
0,test,1,A,haborder.png,0,z,Thu Nov 13 2025 14:09:25 GMT-0500 (Eastern Standard Time),236223.80000001192,CFD-BF-023-013-A.jpg,1000,solid,I,None,1516,4,1,2550.2000000029802,233673.60000000894,9030,ATS,A,1
1,test,1,A,haborder.png,1,m,Thu Nov 13 2025 14:09:25 GMT-0500 (Eastern Standard Time),238690.10000000894,CFD-WF-017-016-HC.jpg,1500,solid,I,m,945,11,1,5016.5,233673.60000000894,9030,ATS,A,2
1,test,1,A,haborder.png,0,m,Thu Nov 13 2025 14:09:25 GMT-0500 (Eastern Standard Time),241940.30000001192,CFD-BM-017-052-HC.jpg,1700,solid,I,None,1516,1,1,8266.70000000298,233673.60000000894,9030,ATS,A,3
2,test,1,A,haborder.png,1,z,Thu Nov 13 2025 14:09:25 GMT-0500 (Eastern Standard Time),244706.70000000298,CFD-WM-013-015-A.jpg,1900,solid,I,z,844,8,1,11033.09999999404,233673.60000000894,9030,ATS,A,4
3,test,1,A,haborder.png,1,m,Thu Nov 13 2025 14:09:25 GMT-0500 (Eastern Standard Time),247723.40000000596,CFD-BM-029-026-HC.jpg,1500,solid,I,m,1486,3,1,14049.79999999702,233673.60000000894,9030,ATS,A,5
4,test,1,A,haborder.png,1,z,Thu Nov 13 2025 14:09:25 GMT-0500 (Eastern Standard Time),250340.20000000298,CFD-BM-005-010-A.jpg,1600,solid,I,z,993,2,1,16666.59999999404,233673.60000000894,9030,ATS,A,6
5,test,1,A,haborder.png,1,m,Thu Nov 13 2025 14:09:25 GMT-0500 (Eastern Standard Time),253456.80000001192,CFD-BF-028-020-HC.jpg,2000,solid,I,m,1095,5,1,19783.20000000298,233673.60000000894,9030,ATS,A,7
6,test,1,A,haborder.png,1,m,Thu Nov 13 2025 14:09:25 GMT-0500 (Eastern Standard Time),256206.40000000596,CFD-BM-017-052-HC.jpg,1700,solid,I,m,1032,1,1,22532.79999999702,233673.60000000894,9030,ATS,A,8
6,test,1,A,haborder.png,0,z,Thu Nov 13 2025 14:09:25 GMT-0500 (Eastern Standard Time),259340.10000000894,CFD-BM-005-010-A.jpg,1600,solid,I,None,1516,2,1,25666.5,233673.60000000894,9030,ATS,A,9
7,test,1,A,haborder.png,1,z,Thu Nov 13 2025 14:09:25 GMT-0500 (Eastern Standard Time),261523.40000000596,CFD-BF-039-039-A.jpg,1200,solid,I,z,943,6,1,27849.79999999702,233673.60000000894,9030,ATS,A,10
7,test,1,A,haborder.png,0,z,Thu Nov 13 2025 14:09:25 GMT-0500 (Eastern Standard Time),264656.700000003,CFD-WF-003-014-A.jpg,1600,solid,I,None,1516,10,1,30983.09999999404,233673.60000000894,9030,ATS,A,11
8,test,1,A,haborder.png,1,z,Thu Nov 13 2025 14:09:25 GMT-0500 (Eastern Standard Time),267240.10000000894,CFD-WF-003-014-A.jpg,1600,solid,I,z,939,10,1,33566.5,233673.60000000894,9030,ATS,A,12
9,test,1,A,haborder.png,1,z,Thu Nov 13 2025 14:09:25 GMT-0500 (Eastern Standard Time),269173.5,CFD-BF-023-013-A.jpg,1000,solid,I,z,907,4,1,35499.89999999106,233673.60000000894,9030,ATS,A,13
10,test,1,A,haborder.png,1,m,Thu Nov 13 2025 14:09:25 GMT-0500 (Eastern Standard Time),271856.700000003,CFD-WM-006-013-HC.jpg,1700,solid,I,m,962,9,1,38183.09999999404,233673.60000000894,9030,ATS,A,14
11,test,1,A,haborder.png,1,z,Thu Nov 13 2025 14:09:25 GMT-0500 (Eastern Standard Time),274773.40000000596,CFD-WM-013-015-A.jpg,1900,solid,I,z,975,8,1,41099.79999999702,233673.60000000894,9030,ATS,A,15
12,test,1,A,haborder.png,1,m,Thu Nov 13 2025 14:09:25 GMT-0500 (Eastern Standard Time),277106.90000000596,CFD-WF-017-016-HC.jpg,1500,solid,I,m,810,11,1,43433.29999999702,233673.60000000894,9030,ATS,A,16
13,test,1,A,haborder.png,1,z,Thu Nov 13 2025 14:09:25 GMT-0500 (Eastern Standard Time),279056.700000003,CFD-WF-019-015-A.jpg,1000,solid,I,z,929,12,1,45383.09999999404,233673.60000000894,9030,ATS,A,17
14,test,1,A,haborder.png,1,m,Thu Nov 13 2025 14:09:25 GMT-0500 (Eastern Standard Time),282090.10000000894,CFD-BF-028-020-HC.jpg,2000,solid,I,m,1003,5,1,48416.5,233673.60000000894,9030,ATS,A,18
15,test,1,A,haborder.png,1,m,Thu Nov 13 2025 14:09:25 GMT-0500 (Eastern Standard Time),284590.10000000894,CFD-WM-004-005-HC.jpg,1400,solid,I,m,1050,7,1,50916.5,233673.60000000894,9030,ATS,A,19
16,test,1,A,haborder.png,1,z,Thu Nov 13 2025 14:09:25 GMT-0500 (Eastern Standard Time),286556.8000000119,CFD-BF-039-039-A.jpg,1200,solid,I,z,734,6,1,52883.20000000298,233673.60000000894,9030,ATS,A,20
17,test,1,A,haborder.png,1,z,Thu Nov 13 2025 14:09:25 GMT-0500 (Eastern Standard Time),288540.10000000894,CFD-WF-019-015-A.jpg,1000,solid,I,z,934,12,1,54866.5,233673.60000000894,9030,ATS,A,21
18,test,1,A,haborder.png,1,m,Thu Nov 13 2025 14:09:25 GMT-0500 (Eastern Standard Time),291056.60000000894,CFD-WM-004-005-HC.jpg,1400,solid,I,m,1096,7,1,57383.0,233673.60000000894,9030,ATS,A,22
19,test,1,A,haborder.png,1,m,Thu Nov 13 2025 14:09:25 GMT-0500 (Eastern Standard Time),293690.0,CFD-WM-006-013-HC.jpg,1700,solid,I,m,903,9,1,60016.39999999106,233673.60000000894,9030,ATS,A,23
20,test,1,A,haborder.png,1,m,Thu Nov 13 2025 14:09:25 GMT-0500 (Eastern Standard Time),295990.10000000894,CFD-BM-029-026-HC.jpg,1500,solid,I,m,758,3,1,62316.5,233673.60000000894,9030,ATS,A,24
1,test,1,B,mfborder.png,1,z,Thu Nov 13 2025 14:09:25 GMT-0500 (Eastern Standard Time),318256.700000003,CFD-BF-028-020-HC.jpg,1400,dash,I,z,779,7,1,2199.8999999910593,316056.8000000119,9030,ATS,A,1
2,test,1,B,mfborder.png,1,m,Thu Nov 13 2025 14:09:25 GMT-0500 (Eastern Standard Time),320790.10000000894,CFD-WM-013-015-A.jpg,1700,dash,I,m,807,9,1,4733.29999999702,316056.8000000119,9030,ATS,A,2
3,test,1,B,mfborder.png,1,m,Thu Nov 13 2025 14:09:25 GMT-0500 (Eastern Standard Time),323323.3000000119,CFD-BM-005-010-A.jpg,2000,dash,I,m,503,5,1,7266.5,316056.8000000119,9030,ATS,A,3
4,test,1,B,mfborder.png,1,z,Thu Nov 13 2025 14:09:25 GMT-0500 (Eastern Standard Time),325356.700000003,CFD-WF-017-016-HC.jpg,1000,dash,I,z,983,12,1,9299.89999999106,316056.8000000119,9030,ATS,A,4
5,test,1,B,mfborder.png,1,z,Thu Nov 13 2025 14:09:25 GMT-0500 (Eastern Standard Time),327056.700000003,CFD-WF-017-016-HC.jpg,1000,dash,I,z,662,12,1,10999.89999999106,316056.8000000119,9030,ATS,A,5
6,test,1,B,mfborder.png,1,z,Thu Nov 13 2025 14:09:25 GMT-0500 (Eastern Standard Time),329290.0,CFD-WF-003-014-A.jpg,1500,dash,I,z,703,11,1,13233.199999988079,316056.8000000119,9030,ATS,A,6
7,test,1,B,mfborder.png,1,z,Thu Nov 13 2025 14:09:25 GMT-0500 (Eastern Standard Time),331840.0,CFD-BF-010-005-HC.jpg,1500,dash,I,z,1013,3,1,15783.199999988079,316056.8000000119,9030,ATS,A,7
8,test,1,B,mfborder.png,1,z,Thu Nov 13 2025 14:09:25 GMT-0500 (Eastern Standard Time),333906.60000000894,CFD-WF-003-014-A.jpg,1500,dash,I,z,528,11,1,17849.79999999702,316056.8000000119,9030,ATS,A,8
9,test,1,B,mfborder.png,1,z,Thu Nov 13 2025 14:09:25 GMT-0500 (Eastern Standard Time),335790.0,CFD-BF-023-013-A.jpg,1000,dash,I,z,866,4,1,19733.19999998808,316056.8000000119,9030,ATS,A,9
10,test,1,B,mfborder.png,1,m,Thu Nov 13 2025 14:09:25 GMT-0500 (Eastern Standard Time),337706.700000003,CFD-WM-019-013-A.jpg,1200,dash,I,m,669,6,1,21649.89999999106,316056.8000000119,9030,ATS,A,10
11,test,1,B,mfborder.png,1,z,Thu Nov 13 2025 14:09:25 GMT-0500 (Eastern Standard Time),340390.0,CFD-WF-002-008-HC.jpg,1900,dash,I,z,757,8,1,24333.19999998808,316056.8000000119,9030,ATS,A,11
12,test,1,B,mfborder.png,1,m,Thu Nov 13 2025 14:09:25 GMT-0500 (Eastern Standard Time),342523.200000003,CFD-WM-019-013-A.jpg,1200,dash,I,m,885,6,1,26466.39999999106,316056.8000000119,9030,ATS,A,12
13,test,1,B,mfborder.png,1,m,Thu Nov 13 2025 14:09:25 GMT-0500 (Eastern Standard Time),345623.40000000596,CFD-BM-010-019-A.jpg,1600,dash,I,m,1473,2,1,29566.59999999404,316056.8000000119,9030,ATS,A,13
14,test,1,B,mfborder.png,1,z,Thu Nov 13 2025 14:09:25 GMT-0500 (Eastern Standard Time),347823.0,CFD-BF-010-005-HC.jpg,1500,dash,I,z,680,3,1,31766.19999998808,316056.8000000119,9030,ATS,A,14
15,test,1,B,mfborder.png,1,m,Thu Nov 13 2025 14:09:25 GMT-0500 (Eastern Standard Time),350723.3000000119,CFD-BM-010-019-A.jpg,1600,dash,I,m,1260,2,1,34666.5,316056.8000000119,9030,ATS,A,15
16,test,1,B,mfborder.png,1,m,Thu Nov 13 2025 14:09:25 GMT-0500 (Eastern Standard Time),353790.200000003,CFD-WM-013-015-A.jpg,1700,dash,I,m,1348,9,1,37733.39999999106,316056.8000000119,9030,ATS,A,16
17,test,1,B,mfborder.png,1,m,Thu Nov 13 2025 14:09:25 GMT-0500 (Eastern Standard Time),356740.0,CFD-BM-005-010-A.jpg,2000,dash,I,m,926,5,1,40683.19999998808,316056.8000000119,9030,ATS,A,17
17,test,1,B,mfborder.png,0,m,Thu Nov 13 2025 14:09:25 GMT-0500 (Eastern Standard Time),359123.3000000119,CFD-WM-006-013-HC.jpg,1600,dash,I,z,743,10,1,43066.5,316056.8000000119,9030,ATS,A,18
18,test,1,B,mfborder.png,1,z,Thu Nov 13 2025 14:09:25 GMT-0500 (Eastern Standard Time),361423.0,CFD-BF-028-020-HC.jpg,1400,dash,I,z,880,7,1,45366.19999998808,316056.8000000119,9030,ATS,A,19
19,test,1,B,mfborder.png,1,z,Thu Nov 13 2025 14:09:25 GMT-0500 (Eastern Standard Time),363323.3000000119,CFD-BF-023-013-A.jpg,1000,dash,I,z,868,4,1,47266.5,316056.8000000119,9030,ATS,A,20
20,test,1,B,mfborder.png,1,z,Thu Nov 13 2025 14:09:25 GMT-0500 (Eastern Standard Time),366256.700000003,CFD-WF-002-008-HC.jpg,1900,dash,I,z,995,8,1,50199.89999999106,316056.8000000119,9030,ATS,A,21
21,test,1,B,mfborder.png,1,m,Thu Nov 13 2025 14:09:25 GMT-0500 (Eastern Standard Time),368606.40000000596,CFD-WM-006-013-HC.jpg,1600,dash,I,m,732,10,1,52549.59999999404,316056.8000000119,9030,ATS,A,22
22,test,1,B,mfborder.png,1,m,Thu Nov 13 2025 14:09:25 GMT-0500 (Eastern Standard Time),371123.3000000119,CFD-BM-029-026-HC.jpg,1700,dash,I,m,793,1,1,55066.5,316056.8000000119,9030,ATS,A,23
23,test,1,B,mfborder.png,1,m,Thu Nov 13 2025 14:09:25 GMT-0500 (Eastern Standard Time),373640.0,CFD-BM-029-026-HC.jpg,1700,dash,I,m,788,1,1,57583.19999998808,316056.8000000119,9030,ATS,A,24
0,prac,1,C,mfborder.png,0,z,Thu Nov 13 2025 14:09:25 GMT-0500 (Eastern Standard Time),445423.40000000596,CFD-WF-019-015-A.jpg,1500,solid,I,None,1517,2,1,3816.5999999940395,441606.8000000119,9030,ATS,A,1
0,prac,1,C,mfborder.png,0,m,Thu Nov 13 2025 14:09:25 GMT-0500 (Eastern Standard Time),448939.700000003,CFD-BM-005-010-A.jpg,1200,dash,I,None,1516,5,1,7332.899999991059,441606.8000000119,9030,ATS,A,2
0,prac,1,C,haborder.png,0,m,Thu Nov 13 2025 14:09:25 GMT-0500 (Eastern Standard Time),452756.700000003,CFD-BM-029-026-HC.jpg,1500,solid,I,None,1516,10,1,11149.89999999106,441606.8000000119,9030,ATS,A,3
0,prac,1,C,mfborder.png,0,m,Thu Nov 13 2025 14:09:25 GMT-0500 (Eastern Standard Time),456756.700000003,CFD-WM-013-015-A.jpg,1700,solid,I,None,1501,6,1,15149.89999999106,441606.8000000119,9030,ATS,A,4
1,prac,1,C,haborder.png,1,z,Thu Nov 13 2025 14:09:25 GMT-0500 (Eastern Standard Time),460256.60000000894,CFD-BF-039-039-A.jpg,1700,solid,I,z,978,8,1,18649.79999999702,441606.8000000119,9030,ATS,A,5
1,prac,1,C,mfborder.png,0,z,Thu Nov 13 2025 14:09:25 GMT-0500 (Eastern Standard Time),463973.40000000596,CFD-WF-017-016-HC.jpg,1600,dash,I,m,1307,1,1,22366.59999999404,441606.8000000119,9030,ATS,A,6
1,prac,1,C,haborder.png,0,z,Thu Nov 13 2025 14:09:25 GMT-0500 (Eastern Standard Time),468189.90000000596,CFD-BF-023-013-A.jpg,1900,dash,I,None,1516,7,1,26583.09999999404,441606.8000000119,9030,ATS,A,7
1,prac,1,C,haborder.png,0,m,Thu Nov 13 2025 14:09:25 GMT-0500 (Eastern Standard Time),471506.5,CFD-WM-004-005-HC.jpg,1000,dash,I,None,1516,11,1,29899.69999998808,441606.8000000119,9030,ATS,A,8
1,prac,1,C,mfborder.png,0,z,Thu Nov 13 2025 14:09:25 GMT-0500 (Eastern Standard Time),474823.10000000894,CFD-BF-028-020-HC.jpg,1000,dash,I,None,1516,3,1,33216.29999999702,441606.8000000119,9030,ATS,A,9
1,prac,1,C,mfborder.png,0,m,Thu Nov 13 2025 14:09:25 GMT-0500 (Eastern Standard Time),479139.8000000119,CFD-BM-017-052-HC.jpg,2000,solid,I,None,1516,4,1,37533.0,441606.8000000119,9030,ATS,A,10
2,prac,1,C,haborder.png,1,z,Thu Nov 13 2025 14:09:25 GMT-0500 (Eastern Standard Time),482923.3000000119,CFD-WF-003-014-A.jpg,1600,dash,I,z,1367,9,1,41316.5,441606.8000000119,9030,ATS,A,11
3,prac,1,C,haborder.png,1,m,Thu Nov 13 2025 14:09:25 GMT-0500 (Eastern Standard Time),486323.40000000596,CFD-WM-004-005-HC.jpg,1400,solid,I,m,1192,12,1,44716.59999999404,441606.8000000119,9030,ATS,A,12
0,prac,2,C,mfborder.png,0,z,Thu Nov 13 2025 14:09:25 GMT-0500 (Eastern Standard Time),499206.5,CFD-WF-017-016-HC.jpg,1600,dash,I,None,1516,1,1,57599.69999998808,441606.8000000119,9030,ATS,A,1
0,prac,2,C,mfborder.png,0,z,Thu Nov 13 2025 14:09:25 GMT-0500 (Eastern Standard Time),502456.60000000894,CFD-BF-028-020-HC.jpg,1000,dash,I,m,1437,3,1,60849.79999999702,441606.8000000119,9030,ATS,A,2
0,prac,2,C,haborder.png,0,m,Thu Nov 13 2025 14:09:25 GMT-0500 (Eastern Standard Time),506156.40000000596,CFD-WM-004-005-HC.jpg,1400,solid,I,None,1516,12,1,64549.59999999404,441606.8000000119,9030,ATS,A,3
1,prac,2,C,haborder.png,1,z,Thu Nov 13 2025 14:09:25 GMT-0500 (Eastern Standard Time),509440.0,CFD-BF-039-039-A.jpg,1700,solid,I,z,780,8,1,67833.19999998808,441606.8000000119,9030,ATS,A,4
2,prac,2,C,haborder.png,1,z,Thu Nov 13 2025 14:09:25 GMT-0500 (Eastern Standard Time),513606.5,CFD-BF-023-013-A.jpg,1900,dash,I,z,1455,7,1,71999.69999998808,441606.8000000119,9030,ATS,A,5
3,prac,2,C,haborder.png,1,m,Thu Nov 13 2025 14:09:25 GMT-0500 (Eastern Standard Time),516240.0,CFD-WM-004-005-HC.jpg,1000,dash,I,m,829,11,1,74633.19999998808,441606.8000000119,9030,ATS,A,6
4,prac,2,C,mfborder.png,1,z,Thu Nov 13 2025 14:09:25 GMT-0500 (Eastern Standard Time),519656.5,CFD-WF-019-015-A.jpg,1500,solid,I,z,1104,2,1,78049.69999998808,441606.8000000119,9030,ATS,A,7
4,prac,2,C,mfborder.png,0,m,Thu Nov 13 2025 14:09:25 GMT-0500 (Eastern Standard Time),522956.5,CFD-BM-005-010-A.jpg,1200,dash,I,z,1299,5,1,81349.69999998808,441606.8000000119,9030,ATS,A,8
5,prac,2,C,mfborder.png,1,m,Thu Nov 13 2025 14:09:25 GMT-0500 (Eastern Standard Time),526890.0,CFD-BM-017-052-HC.jpg,2000,solid,I,m,1119,4,1,85283.19999998808,441606.8000000119,9030,ATS,A,9
6,prac,2,C,haborder.png,1,z,Thu Nov 13 2025 14:09:25 GMT-0500 (Eastern Standard Time),530406.700000003,CFD-WF-003-014-A.jpg,1600,dash,I,z,1106,9,1,88799.89999999106,441606.8000000119,9030,ATS,A,10
7,prac,2,C,haborder.png,1,m,Thu Nov 13 2025 14:09:25 GMT-0500 (Eastern Standard Time),533806.6000000089,CFD-BM-029-026-HC.jpg,1500,solid,I,m,1097,10,1,92199.79999999702,441606.8000000119,9030,ATS,A,11
8,prac,2,C,mfborder.png,1,m,Thu Nov 13 2025 14:09:25 GMT-0500 (Eastern Standard Time),537689.8000000119,CFD-WM-013-015-A.jpg,1700,solid,I,m,1369,6,1,96083.0,441606.8000000119,9030,ATS,A,12
0,test,1,C,haborder.png,0,m,Thu Nov 13 2025 14:09:25 GMT-0500 (Eastern Standard Time),605323.3000000119,CFD-WF-017-016-HC.jpg,1000,solid,I,None,1516,12,1,2533.5,602789.8000000119,9030,ATS,A,1
1,test,1,C,mfborder.png,1,m,Thu Nov 13 2025 14:09:25 GMT-0500 (Eastern Standard Time),608039.700000003,CFD-BM-029-026-HC.jpg,1200,dash,I,m,1489,6,1,5249.899999991059,602789.8000000119,9030,ATS,A,2
1,test,1,C,mfborder.png,0,z,Thu Nov 13 2025 14:09:25 GMT-0500 (Eastern Standard Time),611073.1000000089,CFD-WF-003-014-A.jpg,1500,dash,I,None,1516,3,1,8283.29999999702,602789.8000000119,9030,ATS,A,3
1,test,1,C,mfborder.png,0,m,Thu Nov 13 2025 14:09:25 GMT-0500 (Eastern Standard Time),614623.0,CFD-WM-019-013-A.jpg,2000,dash,I,None,1516,5,1,11833.199999988079,602789.8000000119,9030,ATS,A,4
2,test,1,C,mfborder.png,1,z,Thu Nov 13 2025 14:09:25 GMT-0500 (Eastern Standard Time),617089.6000000089,CFD-WF-003-014-A.jpg,1500,dash,I,z,945,3,1,14299.79999999702,602789.8000000119,9030,ATS,A,5
2,test,1,C,haborder.png,0,z,Thu Nov 13 2025 14:09:25 GMT-0500 (Eastern Standard Time),620539.8000000119,CFD-BM-005-010-A.jpg,1900,solid,I,None,1517,8,1,17750.0,602789.8000000119,9030,ATS,A,6
2,test,1,C,haborder.png,0,z,Thu Nov 13 2025 14:09:25 GMT-0500 (Eastern Standard Time),623689.700000003,CFD-BM-005-010-A.jpg,1900,solid,I,m,1220,8,1,20899.89999999106,602789.8000000119,9030,ATS,A,7
2,test,1,C,mfborder.png,0,m,Thu Nov 13 2025 14:09:25 GMT-0500 (Eastern Standard Time),626223.200000003,CFD-WM-006-013-HC.jpg,1000,dash,I,None,1516,4,1,23433.39999999106,602789.8000000119,9030,ATS,A,8
2,test,1,C,mfborder.png,0,m,Thu Nov 13 2025 14:09:25 GMT-0500 (Eastern Standard Time),629756.400000006,CFD-WM-019-013-A.jpg,2000,dash,I,None,1516,5,1,26966.59999999404,602789.8000000119,9030,ATS,A,9
2,test,1,C,haborder.png,0,m,Thu Nov 13 2025 14:09:25 GMT-0500 (Eastern Standard Time),632889.700000003,CFD-BF-028-020-HC.jpg,1600,solid,I,None,1516,10,1,30099.89999999106,602789.8000000119,9030,ATS,A,10
2,test,1,C,haborder.png,0,m,Thu Nov 13 2025 14:09:25 GMT-0500 (Eastern Standard Time),635722.900000006,CFD-WF-002-008-HC.jpg,1500,solid,I,z,1285,11,1,32933.09999999404,602789.8000000119,9030,ATS,A,11
2,test,1,C,haborder.png,0,z,Thu Nov 13 2025 14:09:25 GMT-0500 (Eastern Standard Time),638589.6000000089,CFD-WM-013-015-A.jpg,1400,solid,I,m,1434,7,1,35799.79999999702,602789.8000000119,9030,ATS,A,12
2,test,1,C,haborder.png,0,m,Thu Nov 13 2025 14:09:25 GMT-0500 (Eastern Standard Time),641373.0,CFD-BF-028-020-HC.jpg,1600,solid,I,z,1133,10,1,38583.19999998808,602789.8000000119,9030,ATS,A,13
2,test,1,C,mfborder.png,0,z,Thu Nov 13 2025 14:09:25 GMT-0500 (Eastern Standard Time),644589.6000000089,CFD-BF-010-005-HC.jpg,1700,dash,I,m,1499,1,1,41799.79999999702,602789.8000000119,9030,ATS,A,14
2,test,1,C,haborder.png,0,z,Thu Nov 13 2025 14:09:25 GMT-0500 (Eastern Standard Time),647539.900000006,CFD-WM-013-015-A.jpg,1400,solid,I,None,1516,7,1,44750.09999999404,602789.8000000119,9030,ATS,A,15
2,test,1,C,haborder.png,0,m,Thu Nov 13 2025 14:09:25 GMT-0500 (Eastern Standard Time),650073.1000000089,CFD-WF-017-016-HC.jpg,1000,solid,I,None,1516,12,1,47283.29999999702,602789.8000000119,9030,ATS,A,16
3,test,1,C,mfborder.png,1,m,Thu Nov 13 2025 14:09:25 GMT-0500 (Eastern Standard Time),652539.700000003,CFD-WM-006-013-HC.jpg,1000,dash,I,m,1418,4,1,49749.89999999106,602789.8000000119,9030,ATS,A,17
4,test,1,C,mfborder.png,1,z,Thu Nov 13 2025 14:09:25 GMT-0500 (Eastern Standard Time),655556.3000000119,CFD-BF-023-013-A.jpg,1600,dash,I,z,1392,2,1,52766.5,602789.8000000119,9030,ATS,A,18
4,test,1,C,haborder.png,0,m,Thu Nov 13 2025 14:09:25 GMT-0500 (Eastern Standard Time),658289.6000000089,CFD-WF-002-008-HC.jpg,1500,solid,I,z,1212,11,1,55499.79999999702,602789.8000000119,9030,ATS,A,19
4,test,1,C,haborder.png,0,z,Thu Nov 13 2025 14:09:25 GMT-0500 (Eastern Standard Time),661356.200000003,CFD-BM-010-019-A.jpg,1700,solid,I,m,1317,9,1,58566.39999999106,602789.8000000119,9030,ATS,A,20
4,test,1,C,haborder.png,0,z,Thu Nov 13 2025 14:09:25 GMT-0500 (Eastern Standard Time),664156.200000003,CFD-BM-010-019-A.jpg,1700,solid,I,m,1068,9,1,61366.39999999106,602789.8000000119,9030,ATS,A,21
5,test,1,C,mfborder.png,1,z,Thu Nov 13 2025 14:09:25 GMT-0500 (Eastern Standard Time),666839.700000003,CFD-BF-023-013-A.jpg,1600,dash,I,z,1039,2,1,64049.89999999106,602789.8000000119,9030,ATS,A,22
5,test,1,C,mfborder.png,0,m,Thu Nov 13 2025 14:09:25 GMT-0500 (Eastern Standard Time),669584.8000000119,CFD-BM-029-026-HC.jpg,1200,dash,I,None,1516,6,1,66795.0,602789.8000000119,9030,ATS,A,23
5,test,1,C,mfborder.png,0,z,Thu Nov 13 2025 14:09:25 GMT-0500 (Eastern Standard Time),672306.3000000119,CFD-BF-010-005-HC.jpg,1700,dash,I,m,995,1,1,69516.5,602789.8000000119,9030,ATS,A,24
0,test,2,C,haborder.png,0,z,Thu Nov 13 2025 14:09:25 GMT-0500 (Eastern Standard Time),689989.8000000119,CFD-BF-023-013-A.jpg,1400,solid,I,m,1391,7,1,2816.7000000029802,687173.1000000089,9030,ATS,A,1
0,test,2,C,haborder.png,0,m,Thu Nov 13 2025 14:09:25 GMT-0500 (Eastern Standard Time),693022.700000003,CFD-BM-029-026-HC.jpg,1600,solid,I,z,1414,10,1,5849.5999999940395,687173.1000000089,9030,ATS,A,2
0,test,2,C,haborder.png,0,z,Thu Nov 13 2025 14:09:25 GMT-0500 (Eastern Standard Time),696473.1000000089,CFD-BF-039-039-A.jpg,1900,solid,I,None,1516,8,1,9300.0,687173.1000000089,9030,ATS,A,3
1,test,2,C,haborder.png,1,z,Thu Nov 13 2025 14:09:25 GMT-0500 (Eastern Standard Time),699089.6000000089,CFD-WF-003-014-A.jpg,1700,solid,I,z,895,9,1,11916.5,687173.1000000089,9030,ATS,A,4
1,test,2,C,mfborder.png,0,m,Thu Nov 13 2025 14:09:25 GMT-0500 (Eastern Standard Time),701639.6000000089,CFD-BM-017-052-HC.jpg,1000,dash,I,None,1517,4,1,14466.5,687173.1000000089,9030,ATS,A,5
2,test,2,C,mfborder.png,1,z,Thu Nov 13 2025 14:09:25 GMT-0500 (Eastern Standard Time),704339.6000000089,CFD-BF-028-020-HC.jpg,1500,dash,I,z,1160,3,1,17166.5,687173.1000000089,9030,ATS,A,6
2,test,2,C,haborder.png,0,m,Thu Nov 13 2025 14:09:25 GMT-0500 (Eastern Standard Time),707373.0,CFD-WM-004-005-HC.jpg,1500,solid,I,None,1516,11,1,20199.89999999106,687173.1000000089,9030,ATS,A,7
2,test,2,C,mfborder.png,0,m,Thu Nov 13 2025 14:09:25 GMT-0500 (Eastern Standard Time),710906.200000003,CFD-BM-005-010-A.jpg,2000,dash,I,None,1516,5,1,23733.09999999404,687173.1000000089,9030,ATS,A,8
3,test,2,C,mfborder.png,1,m,Thu Nov 13 2025 14:09:25 GMT-0500 (Eastern Standard Time),713039.5,CFD-WM-013-015-A.jpg,1200,dash,I,m,897,6,1,25866.39999999106,687173.1000000089,9030,ATS,A,9
3,test,2,C,haborder.png,0,z,Thu Nov 13 2025 14:09:25 GMT-0500 (Eastern Standard Time),716473.0,CFD-BF-039-039-A.jpg,1900,solid,I,None,1516,8,1,29299.89999999106,687173.1000000089,9030,ATS,A,10
3,test,2,C,haborder.png,0,m,Thu Nov 13 2025 14:09:25 GMT-0500 (Eastern Standard Time),718989.6000000089,CFD-WM-004-005-HC.jpg,1000,solid,I,z,1499,12,1,31816.5,687173.1000000089,9030,ATS,A,11
3,test,2,C,haborder.png,0,m,Thu Nov 13 2025 14:09:25 GMT-0500 (Eastern Standard Time),722039.6000000089,CFD-WM-004-005-HC.jpg,1500,solid,I,None,1515,11,1,34866.5,687173.1000000089,9030,ATS,A,12
3,test,2,C,mfborder.png,0,z,Thu Nov 13 2025 14:09:25 GMT-0500 (Eastern Standard Time),725273.0,CFD-WF-017-016-HC.jpg,1700,dash,I,None,1516,1,1,38099.89999999106,687173.1000000089,9030,ATS,A,13
4,test,2,C,mfborder.png,1,z,Thu Nov 13 2025 14:09:25 GMT-0500 (Eastern Standard Time),727672.900000006,CFD-WF-019-015-A.jpg,1600,dash,I,z,754,2,1,40499.79999999702,687173.1000000089,9030,ATS,A,14
5,test,2,C,haborder.png,1,z,Thu Nov 13 2025 14:09:25 GMT-0500 (Eastern Standard Time),730422.900000006,CFD-WF-003-014-A.jpg,1700,solid,I,z,1023,9,1,43249.79999999702,687173.1000000089,9030,ATS,A,15
6,test,2,C,mfborder.png,1,m,Thu Nov 13 2025 14:09:25 GMT-0500 (Eastern Standard Time),732589.8000000119,CFD-BM-017-052-HC.jpg,1000,dash,I,m,1149,4,1,45416.70000000298,687173.1000000089,9030,ATS,A,16
6,test,2,C,mfborder.png,0,m,Thu Nov 13 2025 14:09:25 GMT-0500 (Eastern Standard Time),735656.1000000089,CFD-BM-005-010-A.jpg,2000,dash,I,z,1022,5,1,48483.0,687173.1000000089,9030,ATS,A,17
7,test,2,C,mfborder.png,1,m,Thu Nov 13 2025 14:09:25 GMT-0500 (Eastern Standard Time),737572.900000006,CFD-WM-013-015-A.jpg,1200,dash,I,m,692,6,1,50399.79999999702,687173.1000000089,9030,ATS,A,18
7,test,2,C,haborder.png,0,m,Thu Nov 13 2025 14:09:25 GMT-0500 (Eastern Standard Time),739306.200000003,CFD-WM-004-005-HC.jpg,1000,solid,I,z,686,12,1,52133.09999999404,687173.1000000089,9030,ATS,A,19
8,test,2,C,haborder.png,1,m,Thu Nov 13 2025 14:09:25 GMT-0500 (Eastern Standard Time),741405.8000000119,CFD-BM-029-026-HC.jpg,1600,solid,I,m,482,10,1,54232.70000000298,687173.1000000089,9030,ATS,A,20
9,test,2,C,mfborder.png,1,z,Thu Nov 13 2025 14:09:25 GMT-0500 (Eastern Standard Time),743772.900000006,CFD-WF-017-016-HC.jpg,1700,dash,I,z,634,1,1,56599.79999999702,687173.1000000089,9030,ATS,A,21
9,test,2,C,mfborder.png,0,z,Thu Nov 13 2025 14:09:25 GMT-0500 (Eastern Standard Time),746872.8000000119,CFD-WF-019-015-A.jpg,1600,dash,I,m,1471,2,1,59699.70000000298,687173.1000000089,9030,ATS,A,22
10,test,2,C,mfborder.png,1,z,Thu Nov 13 2025 14:09:25 GMT-0500 (Eastern Standard Time),749889.5,CFD-BF-028-020-HC.jpg,1500,dash,I,z,1495,3,1,62716.39999999106,687173.1000000089,9030,ATS,A,23
11,test,2,C,haborder.png,1,z,Thu Nov 13 2025 14:09:25 GMT-0500 (Eastern Standard Time),752689.5,CFD-BF-023-013-A.jpg,1400,solid,I,z,1362,7,1,65516.39999999106,687173.1000000089,9030,ATS,A,24
0,test,3,C,mfborder.png,0,m,Thu Nov 13 2025 14:09:25 GMT-0500 (Eastern Standard Time),766506.6000000089,CFD-WM-019-013-A.jpg,2000,dash,I,None,1516,5,1,3533.6000000089407,762973.0,9030,ATS,A,1
1,test,3,C,mfborder.png,1,z,Thu Nov 13 2025 14:09:25 GMT-0500 (Eastern Standard Time),769172.8000000119,CFD-BF-023-013-A.jpg,1600,dash,I,z,1042,2,1,6199.800000011921,762973.0,9030,ATS,A,2
2,test,3,C,mfborder.png,1,z,Thu Nov 13 2025 14:09:25 GMT-0500 (Eastern Standard Time),772289.6000000089,CFD-BF-010-005-HC.jpg,1700,dash,I,z,1362,1,1,9316.60000000894,762973.0,9030,ATS,A,3
2,test,3,C,haborder.png,0,z,Thu Nov 13 2025 14:09:25 GMT-0500 (Eastern Standard Time),775522.900000006,CFD-BM-010-019-A.jpg,1700,solid,I,None,1516,9,1,12549.90000000596,762973.0,9030,ATS,A,4
2,test,3,C,mfborder.png,0,m,Thu Nov 13 2025 14:09:25 GMT-0500 (Eastern Standard Time),778272.8000000119,CFD-BM-029-026-HC.jpg,1200,dash,I,None,1516,6,1,15299.800000011921,762973.0,9030,ATS,A,5
2,test,3,C,haborder.png,0,m,Thu Nov 13 2025 14:09:25 GMT-0500 (Eastern Standard Time),780989.6000000089,CFD-BF-028-020-HC.jpg,1600,solid,I,z,1099,10,1,18016.60000000894,762973.0,9030,ATS,A,6
2,test,3,C,haborder.png,0,m,Thu Nov 13 2025 14:09:25 GMT-0500 (Eastern Standard Time),783322.900000006,CFD-WF-002-008-HC.jpg,1500,solid,I,z,786,11,1,20349.90000000596,762973.0,9030,ATS,A,7
2,test,3,C,haborder.png,0,z,Thu Nov 13 2025 14:09:25 GMT-0500 (Eastern Standard Time),786756.200000003,CFD-BM-005-010-A.jpg,1900,solid,I,None,1516,8,1,23783.20000000298,762973.0,9030,ATS,A,8
2,test,3,C,mfborder.png,0,m,Thu Nov 13 2025 14:09:25 GMT-0500 (Eastern Standard Time),789489.5,CFD-BM-029-026-HC.jpg,1200,dash,I,None,1516,6,1,26516.5,762973.0,9030,ATS,A,9
2,test,3,C,haborder.png,0,z,Thu Nov 13 2025 14:09:25 GMT-0500 (Eastern Standard Time),792739.5,CFD-BM-010-019-A.jpg,1700,solid,I,None,1516,9,1,29766.5,762973.0,9030,ATS,A,10
2,test,3,C,haborder.png,0,z,Thu Nov 13 2025 14:09:25 GMT-0500 (Eastern Standard Time),796172.900000006,CFD-BM-005-010-A.jpg,1900,solid,I,None,1516,8,1,33199.90000000596,762973.0,9030,ATS,A,11
3,test,3,C,mfborder.png,1,z,Thu Nov 13 2025 14:09:25 GMT-0500 (Eastern Standard Time),799122.8000000119,CFD-BF-010-005-HC.jpg,1700,dash,I,z,1227,1,1,36149.80000001192,762973.0,9030,ATS,A,12
3,test,3,C,mfborder.png,0,m,Thu Nov 13 2025 14:09:25 GMT-0500 (Eastern Standard Time),801672.900000006,CFD-WM-006-013-HC.jpg,1000,dash,I,None,1516,4,1,38699.90000000596,762973.0,9030,ATS,A,13
3,test,3,C,mfborder.png,0,z,Thu Nov 13 2025 14:09:25 GMT-0500 (Eastern Standard Time),804806.3000000119,CFD-BF-023-013-A.jpg,1600,dash,I,None,1516,2,1,41833.30000001192,762973.0,9030,ATS,A,14
3,test,3,C,mfborder.png,0,z,Thu Nov 13 2025 14:09:25 GMT-0500 (Eastern Standard Time),807856.1000000089,CFD-WF-003-014-A.jpg,1500,dash,I,None,1516,3,1,44883.10000000894,762973.0,9030,ATS,A,15
3,test,3,C,haborder.png,0,z,Thu Nov 13 2025 14:09:25 GMT-0500 (Eastern Standard Time),810789.5,CFD-WM-013-015-A.jpg,1400,solid,I,None,1516,7,1,47816.5,762973.0,9030,ATS,A,16
3,test,3,C,haborder.png,0,z,Thu Nov 13 2025 14:09:25 GMT-0500 (Eastern Standard Time),813739.6000000089,CFD-WM-013-015-A.jpg,1400,solid,I,None,1516,7,1,50766.60000000894,762973.0,9030,ATS,A,17
3,test,3,C,mfborder.png,0,m,Thu Nov 13 2025 14:09:25 GMT-0500 (Eastern Standard Time),817272.900000006,CFD-WM-019-013-A.jpg,2000,dash,I,None,1517,5,1,54299.90000000596,762973.0,9030,ATS,A,18
3,test,3,C,haborder.png,0,m,Thu Nov 13 2025 14:09:25 GMT-0500 (Eastern Standard Time),819806.200000003,CFD-WF-017-016-HC.jpg,1000,solid,I,None,1516,12,1,56833.20000000298,762973.0,9030,ATS,A,19
3,test,3,C,mfborder.png,0,m,Thu Nov 13 2025 14:09:25 GMT-0500 (Eastern Standard Time),822356.200000003,CFD-WM-006-013-HC.jpg,1000,dash,I,None,1516,4,1,59383.20000000298,762973.0,9030,ATS,A,20
3,test,3,C,haborder.png,0,m,Thu Nov 13 2025 14:09:25 GMT-0500 (Eastern Standard Time),824406.0,CFD-WF-017-016-HC.jpg,1000,solid,I,z,1024,12,1,61433.0,762973.0,9030,ATS,A,21
3,test,3,C,mfborder.png,0,z,Thu Nov 13 2025 14:09:25 GMT-0500 (Eastern Standard Time),827456.200000003,CFD-WF-003-014-A.jpg,1500,dash,I,None,1516,3,1,64483.20000000298,762973.0,9030,ATS,A,22
3,test,3,C,haborder.png,0,m,Thu Nov 13 2025 14:09:25 GMT-0500 (Eastern Standard Time),829805.700000003,CFD-BF-028-020-HC.jpg,1600,solid,I,z,732,10,1,66832.70000000298,762973.0,9030,ATS,A,23
3,test,3,C,haborder.png,0,m,Thu Nov 13 2025 14:09:25 GMT-0500 (Eastern Standard Time),832106.0,CFD-WF-002-008-HC.jpg,1500,solid,I,z,770,11,1,69133.0,762973.0,9030,ATS,A,24
0,test,4,C,haborder.png,0,m,Thu Nov 13 2025 14:09:25 GMT-0500 (Eastern Standard Time),860823.0,CFD-WM-004-005-HC.jpg,1000,solid,I,None,1516,12,1,2533.5,858289.5,9030,ATS,A,1
0,test,4,C,mfborder.png,0,m,Thu Nov 13 2025 14:09:25 GMT-0500 (Eastern Standard Time),863556.200000003,CFD-WM-013-015-A.jpg,1200,dash,I,None,1516,6,1,5266.70000000298,858289.5,9030,ATS,A,2
1,test,4,C,mfborder.png,1,z,Thu Nov 13 2025 14:09:25 GMT-0500 (Eastern Standard Time),866406.200000003,CFD-WF-019-015-A.jpg,1600,dash,I,z,1207,2,1,8116.70000000298,858289.5,9030,ATS,A,3
2,test,4,C,haborder.png,1,z,Thu Nov 13 2025 14:09:25 GMT-0500 (Eastern Standard Time),869322.700000003,CFD-BF-023-013-A.jpg,1400,solid,I,z,1486,7,1,11033.20000000298,858289.5,9030,ATS,A,4
3,test,4,C,haborder.png,1,z,Thu Nov 13 2025 14:09:25 GMT-0500 (Eastern Standard Time),872189.400000006,CFD-BF-023-013-A.jpg,1400,solid,I,z,1416,7,1,13899.90000000596,858289.5,9030,ATS,A,5
3,test,4,C,mfborder.png,0,m,Thu Nov 13 2025 14:09:25 GMT-0500 (Eastern Standard Time),874922.8000000119,CFD-WM-013-015-A.jpg,1200,dash,I,None,1516,6,1,16633.30000001192,858289.5,9030,ATS,A,6
4,test,4,C,mfborder.png,1,z,Thu Nov 13 2025 14:09:25 GMT-0500 (Eastern Standard Time),877672.6000000089,CFD-WF-019-015-A.jpg,1600,dash,I,z,1104,2,1,19383.10000000894,858289.5,9030,ATS,A,7
4,test,4,C,haborder.png,0,m,Thu Nov 13 2025 14:09:25 GMT-0500 (Eastern Standard Time),880806.200000003,CFD-BM-029-026-HC.jpg,1600,solid,I,None,1516,10,1,22516.70000000298,858289.5,9030,ATS,A,8
4,test,4,C,mfborder.png,0,z,Thu Nov 13 2025 14:09:25 GMT-0500 (Eastern Standard Time),883839.400000006,CFD-BF-028-020-HC.jpg,1500,dash,I,None,1516,3,1,25549.90000000596,858289.5,9030,ATS,A,9
4,test,4,C,mfborder.png,0,z,Thu Nov 13 2025 14:09:25 GMT-0500 (Eastern Standard Time),887089.5,CFD-WF-017-016-HC.jpg,1700,dash,I,None,1516,1,1,28800.0,858289.5,9030,ATS,A,10
4,test,4,C,haborder.png,0,m,Thu Nov 13 2025 14:09:25 GMT-0500 (Eastern Standard Time),889922.400000006,CFD-WM-004-005-HC.jpg,1500,solid,I,z,1309,11,1,31632.90000000596,858289.5,9030,ATS,A,11
4,test,4,C,mfborder.png,0,z,Thu Nov 13 2025 14:09:25 GMT-0500 (Eastern Standard Time),892972.8000000119,CFD-BF-028-020-HC.jpg,1500,dash,I,None,1516,3,1,34683.30000001192,858289.5,9030,ATS,A,12
4,test,4,C,haborder.png,0,z,Thu Nov 13 2025 14:09:25 GMT-0500 (Eastern Standard Time),896206.1000000089,CFD-WF-003-014-A.jpg,1700,solid,I,None,1516,9,1,37916.60000000894,858289.5,9030,ATS,A,13
4,test,4,C,haborder.png,0,m,Thu Nov 13 2025 14:09:25 GMT-0500 (Eastern Standard Time),899239.3000000119,CFD-WM-004-005-HC.jpg,1500,solid,I,None,1516,11,1,40949.80000001192,858289.5,9030,ATS,A,14
4,test,4,C,mfborder.png,0,m,Thu Nov 13 2025 14:09:25 GMT-0500 (Eastern Standard Time),902189.1000000089,CFD-BM-005-010-A.jpg,2000,dash,I,z,932,5,1,43899.60000000894,858289.5,9030,ATS,A,15
4,test,4,C,mfborder.png,0,m,Thu Nov 13 2025 14:09:25 GMT-0500 (Eastern Standard Time),904739.400000006,CFD-BM-017-052-HC.jpg,1000,dash,I,None,1516,4,1,46449.90000000596,858289.5,9030,ATS,A,16
4,test,4,C,haborder.png,0,m,Thu Nov 13 2025 14:09:25 GMT-0500 (Eastern Standard Time),907272.700000003,CFD-WM-004-005-HC.jpg,1000,solid,I,None,1516,12,1,48983.20000000298,858289.5,9030,ATS,A,17
5,test,4,C,haborder.png,1,z,Thu Nov 13 2025 14:09:25 GMT-0500 (Eastern Standard Time),910506.1000000089,CFD-BF-039-039-A.jpg,1900,solid,I,z,1286,8,1,52216.60000000894,858289.5,9030,ATS,A,18
5,test,4,C,mfborder.png,0,m,Thu Nov 13 2025 14:09:25 GMT-0500 (Eastern Standard Time),914039.400000006,CFD-BM-005-010-A.jpg,2000,dash,I,None,1516,5,1,55749.90000000596,858289.5,9030,ATS,A,19
5,test,4,C,mfborder.png,0,m,Thu Nov 13 2025 14:09:25 GMT-0500 (Eastern Standard Time),916589.3000000119,CFD-BM-017-052-HC.jpg,1000,dash,I,None,1516,4,1,58299.80000001192,858289.5,9030,ATS,A,20
6,test,4,C,haborder.png,1,z,Thu Nov 13 2025 14:09:25 GMT-0500 (Eastern Standard Time),919472.6000000089,CFD-WF-003-014-A.jpg,1700,solid,I,z,1163,9,1,61183.10000000894,858289.5,9030,ATS,A,21
7,test,4,C,haborder.png,1,z,Thu Nov 13 2025 14:09:25 GMT-0500 (Eastern Standard Time),922572.6000000089,CFD-BF-039-039-A.jpg,1900,solid,I,z,1150,8,1,64283.10000000894,858289.5,9030,ATS,A,22
7,test,4,C,mfborder.png,0,z,Thu Nov 13 2025 14:09:25 GMT-0500 (Eastern Standard Time),925806.200000003,CFD-WF-017-016-HC.jpg,1700,dash,I,None,1516,1,1,67516.70000000298,858289.5,9030,ATS,A,23
7,test,4,C,haborder.png,0,m,Thu Nov 13 2025 14:09:25 GMT-0500 (Eastern Standard Time),928939.400000006,CFD-BM-029-026-HC.jpg,1600,solid,I,None,1516,10,1,70649.90000000596,858289.5,9030,ATS,A,24
