acc_sum,block,block_c,change,condition,correct,correct_response,datetime,endtime,face,project,response,response_time,row_sel,session_number,start_end,starttime,subject_id,task,task_vers,trial
0,prac,1,,1-Back,,,Fri Dec 05 2025 13:56:42 GMT-0600 (Central Standard Time),,012_o_f_d_a.png,O,space,5499,1,1,,,7718,VNB,C,0
1,prac,1,0.0,1-Back,1.0,m,Fri Dec 05 2025 13:56:42 GMT-0600 (Central Standard Time),140789.80000001192,022_y_f_n_a.png,O,m,1245,2,1,2128.199999988079,138661.60000002384,7718,VNB,C,1
1,prac,1,0.0,1-Back,0.0,m,Fri Dec 05 2025 13:56:42 GMT-0600 (Central Standard Time),143591.19999998808,014_m_m_h_a.png,O,z,1956,3,1,2792.599999964237,140798.60000002384,7718,VNB,C,2
2,prac,1,0.0,1-Back,1.0,m,Fri Dec 05 2025 13:56:42 GMT-0600 (Central Standard Time),145943.80000001192,025_y_m_d_a.png,O,m,1513,4,1,2340.800000011921,143603.0,7718,VNB,C,3
3,prac,1,0.0,1-Back,1.0,m,Fri Dec 05 2025 13:56:42 GMT-0600 (Central Standard Time),147987.39999997616,012_o_f_n_a.png,O,m,1184,5,1,2033.5,145953.89999997616,7718,VNB,C,4
4,prac,1,1.0,1-Back,1.0,z,Fri Dec 05 2025 13:56:42 GMT-0600 (Central Standard Time),150170.80000001192,025_y_m_n_a.png,O,z,1318,6,1,2170.600000023842,148000.19999998808,7718,VNB,C,5
5,prac,1,0.0,1-Back,1.0,m,Fri Dec 05 2025 13:56:42 GMT-0600 (Central Standard Time),152336.69999998808,015_o_m_h_a.png,O,m,1295,7,1,2157.5,150179.19999998808,7718,VNB,C,6
6,prac,1,0.0,1-Back,1.0,m,Fri Dec 05 2025 13:56:42 GMT-0600 (Central Standard Time),154703.0,019_m_f_d_a.png,O,m,1489,8,1,2356.199999988079,152346.80000001192,7718,VNB,C,7
7,prac,1,1.0,1-Back,1.0,z,Fri Dec 05 2025 13:56:42 GMT-0600 (Central Standard Time),156835.30000001192,022_y_f_d_a.png,O,z,1254,9,1,2118.699999988079,154716.60000002384,7718,VNB,C,8
8,prac,1,0.0,1-Back,1.0,m,Fri Dec 05 2025 13:56:42 GMT-0600 (Central Standard Time),158671.30000001192,014_m_m_n_a.png,O,m,989,10,1,1825.5,156845.80000001192,7718,VNB,C,9
9,prac,1,0.0,1-Back,1.0,m,Fri Dec 05 2025 13:56:42 GMT-0600 (Central Standard Time),161167.5,012_o_f_h_a.png,O,m,1609,11,1,2482.100000023842,158685.39999997616,7718,VNB,C,10
9,prac,1,0.0,1-Back,0.0,m,Fri Dec 05 2025 13:56:42 GMT-0600 (Central Standard Time),163067.39999997616,025_y_m_d_a.png,O,z,1052,12,1,1888.2999999523163,161179.10000002384,7718,VNB,C,11
0,test,1,0.0,1-Back,,,Fri Dec 05 2025 13:56:42 GMT-0600 (Central Standard Time),163067.39999997616,022_y_f_d_a.png,O,space,4225,1,1,1888.2999999523163,161179.10000002384,7718,VNB,C,0
1,test,1,0.0,1-Back,1.0,m,Fri Dec 05 2025 13:56:42 GMT-0600 (Central Standard Time),180228.0,019_m_f_n_a.png,O,m,857,2,1,1874.8999999761581,178353.10000002384,7718,VNB,C,1
2,test,1,0.0,1-Back,1.0,m,Fri Dec 05 2025 13:56:42 GMT-0600 (Central Standard Time),182761.39999997616,015_o_m_h_a.png,O,m,1501,3,1,2524.7999999523163,180236.60000002384,7718,VNB,C,2
2,test,1,1.0,1-Back,0.0,z,Fri Dec 05 2025 13:56:42 GMT-0600 (Central Standard Time),185793.80000001192,014_m_m_h_a.png,O,None,2016,4,1,3026.0,182767.80000001192,7718,VNB,C,3
3,test,1,0.0,1-Back,1.0,m,Fri Dec 05 2025 13:56:42 GMT-0600 (Central Standard Time),187759.19999998808,012_o_f_n_a.png,O,m,934,5,1,1956.0,185803.19999998808,7718,VNB,C,4
4,test,1,0.0,1-Back,1.0,m,Fri Dec 05 2025 13:56:42 GMT-0600 (Central Standard Time),189957.89999997616,025_y_m_d_a.png,O,m,1168,6,1,2192.7999999523163,187765.10000002384,7718,VNB,C,5
5,test,1,1.0,1-Back,1.0,z,Fri Dec 05 2025 13:56:42 GMT-0600 (Central Standard Time),192172.69999998808,019_m_f_d_a.png,O,z,1194,7,1,2207.599999964237,189965.10000002384,7718,VNB,C,6
6,test,1,0.0,1-Back,1.0,m,Fri Dec 05 2025 13:56:42 GMT-0600 (Central Standard Time),194272.89999997616,022_y_f_h_a.png,O,m,1074,8,1,2094.899999976158,192178.0,7718,VNB,C,7
7,test,1,0.0,1-Back,1.0,m,Fri Dec 05 2025 13:56:42 GMT-0600 (Central Standard Time),196372.10000002384,015_o_m_n_a.png,O,m,1070,9,1,2091.900000035763,194280.19999998808,7718,VNB,C,8
8,test,1,0.0,1-Back,1.0,m,Fri Dec 05 2025 13:56:42 GMT-0600 (Central Standard Time),198505.69999998808,025_y_m_h_a.png,O,m,1108,10,1,2124.599999964237,196381.10000002384,7718,VNB,C,9
9,test,1,0.0,1-Back,1.0,m,Fri Dec 05 2025 13:56:42 GMT-0600 (Central Standard Time),200988.39999997616,015_o_m_d_a.png,O,m,1466,11,1,2476.699999988079,198511.69999998808,7718,VNB,C,10
10,test,1,1.0,1-Back,1.0,z,Fri Dec 05 2025 13:56:42 GMT-0600 (Central Standard Time),203153.69999998808,012_o_f_d_a.png,O,z,1142,12,1,2156.5,200997.19999998808,7718,VNB,C,11
11,test,1,0.0,1-Back,1.0,m,Fri Dec 05 2025 13:56:42 GMT-0600 (Central Standard Time),205236.30000001192,014_m_m_n_a.png,O,m,1062,13,1,2076.100000023842,203160.19999998808,7718,VNB,C,12
11,test,1,1.0,1-Back,0.0,z,Fri Dec 05 2025 13:56:42 GMT-0600 (Central Standard Time),207786.30000001192,022_y_f_n_a.png,O,m,1517,14,1,2546.699999988079,205239.60000002384,7718,VNB,C,13
12,test,1,0.0,1-Back,1.0,m,Fri Dec 05 2025 13:56:42 GMT-0600 (Central Standard Time),209984.69999998808,019_m_f_h_a.png,O,m,1183,15,1,2191.5,207793.19999998808,7718,VNB,C,14
13,test,1,0.0,1-Back,1.0,m,Fri Dec 05 2025 13:56:42 GMT-0600 (Central Standard Time),212534.30000001192,014_m_m_d_a.png,O,m,1520,16,1,2543.199999988079,209991.10000002384,7718,VNB,C,15
14,test,1,0.0,1-Back,1.0,m,Fri Dec 05 2025 13:56:42 GMT-0600 (Central Standard Time),215033.69999998808,025_y_m_n_a.png,O,m,1466,17,1,2490.399999976158,212543.30000001192,7718,VNB,C,16
15,test,1,0.0,1-Back,1.0,m,Fri Dec 05 2025 13:56:42 GMT-0600 (Central Standard Time),217731.30000001192,012_o_f_h_a.png,O,m,1678,18,1,2688.400000035763,215042.89999997616,7718,VNB,C,17
0,test,2,0.0,1-Back,,,Fri Dec 05 2025 13:56:42 GMT-0600 (Central Standard Time),217731.30000001192,025_y_m_n_a.png,O,space,3223,1,1,2688.400000035763,215042.89999997616,7718,VNB,C,0
0,test,2,0.0,1-Back,0.0,m,Fri Dec 05 2025 13:56:42 GMT-0600 (Central Standard Time),226016.39999997616,022_y_f_h_a.png,O,None,2019,2,1,3027.399999976158,222989.0,7718,VNB,C,1
0,test,2,1.0,1-Back,0.0,m,Fri Dec 05 2025 13:56:42 GMT-0600 (Central Standard Time),228446.0,015_o_m_n_a.png,O,z,1411,3,1,2423.399999976158,226022.60000002384,7718,VNB,C,2
1,test,2,0.0,1-Back,1.0,m,Fri Dec 05 2025 13:56:42 GMT-0600 (Central Standard Time),230711.69999998808,019_m_f_d_a.png,O,m,1234,4,1,2259.399999976158,228452.30000001192,7718,VNB,C,3
2,test,2,0.0,1-Back,1.0,z,Fri Dec 05 2025 13:56:42 GMT-0600 (Central Standard Time),232893.60000002384,014_m_m_d_a.png,O,z,1160,5,1,2174.900000035763,230718.69999998808,7718,VNB,C,4
3,test,2,0.0,1-Back,1.0,m,Fri Dec 05 2025 13:56:42 GMT-0600 (Central Standard Time),234795.19999998808,025_y_m_h_a.png,O,m,883,6,1,1893.699999988079,232901.5,7718,VNB,C,5
4,test,2,1.0,1-Back,1.0,z,Fri Dec 05 2025 13:56:42 GMT-0600 (Central Standard Time),237428.39999997616,012_o_f_h_a.png,O,z,1609,7,1,2626.7999999523163,234801.60000002384,7718,VNB,C,6
5,test,2,0.0,1-Back,1.0,m,Fri Dec 05 2025 13:56:42 GMT-0600 (Central Standard Time),239391.39999997616,019_m_f_n_a.png,O,m,934,8,1,1957.5,237433.89999997616,7718,VNB,C,7
6,test,2,0.0,1-Back,1.0,m,Fri Dec 05 2025 13:56:42 GMT-0600 (Central Standard Time),242358.30000001192,022_y_f_d_a.png,O,m,1938,9,1,2958.699999988079,239399.60000002384,7718,VNB,C,8
7,test,2,0.0,1-Back,1.0,m,Fri Dec 05 2025 13:56:42 GMT-0600 (Central Standard Time),244589.30000001192,014_m_m_n_a.png,O,m,1211,10,1,2220.900000035763,242368.39999997616,7718,VNB,C,9
7,test,2,1.0,1-Back,0.0,m,Fri Dec 05 2025 13:56:42 GMT-0600 (Central Standard Time),247405.69999998808,019_m_f_h_a.png,O,z,1794,11,1,2807.5,244598.19999998808,7718,VNB,C,10
8,test,2,0.0,1-Back,1.0,z,Fri Dec 05 2025 13:56:42 GMT-0600 (Central Standard Time),249637.5,015_o_m_h_a.png,O,z,1203,12,1,2222.100000023842,247415.39999997616,7718,VNB,C,11
9,test,2,0.0,1-Back,1.0,m,Fri Dec 05 2025 13:56:42 GMT-0600 (Central Standard Time),251690.80000001192,025_y_m_d_a.png,O,m,1018,13,1,2048.400000035763,249642.39999997616,7718,VNB,C,12
10,test,2,0.0,1-Back,1.0,m,Fri Dec 05 2025 13:56:42 GMT-0600 (Central Standard Time),254188.10000002384,012_o_f_n_a.png,O,m,1473,14,1,2488.600000023842,251699.5,7718,VNB,C,13
10,test,2,0.0,1-Back,0.0,z,Fri Dec 05 2025 13:56:42 GMT-0600 (Central Standard Time),256636.10000002384,022_y_f_n_a.png,O,m,1422,15,1,2440.600000023842,254195.5,7718,VNB,C,14
11,test,2,1.0,1-Back,1.0,m,Fri Dec 05 2025 13:56:42 GMT-0600 (Central Standard Time),259236.69999998808,014_m_m_h_a.png,O,m,1573,16,1,2591.599999964237,256645.10000002384,7718,VNB,C,15
12,test,2,0.0,1-Back,1.0,m,Fri Dec 05 2025 13:56:42 GMT-0600 (Central Standard Time),261818.39999997616,012_o_f_d_a.png,O,m,1557,17,1,2574.199999988079,259244.19999998808,7718,VNB,C,16
13,test,2,1.0,1-Back,1.0,z,Fri Dec 05 2025 13:56:42 GMT-0600 (Central Standard Time),264601.89999997616,015_o_m_d_a.png,O,z,1751,18,1,2774.699999988079,261827.19999998808,7718,VNB,C,17
0,test,3,1.0,1-Back,,,Fri Dec 05 2025 13:56:42 GMT-0600 (Central Standard Time),264601.89999997616,012_o_f_h_a.png,O,space,1582,1,1,2774.699999988079,261827.19999998808,7718,VNB,C,0
1,test,3,0.0,1-Back,1.0,m,Fri Dec 05 2025 13:56:42 GMT-0600 (Central Standard Time),270532.1999999881,019_m_f_d_a.png,O,m,1214,2,1,2217.5,268314.6999999881,7718,VNB,C,1
1,test,3,1.0,1-Back,0.0,m,Fri Dec 05 2025 13:56:42 GMT-0600 (Central Standard Time),273298.5,014_m_m_n_a.png,O,z,1741,3,1,2754.399999976158,270544.10000002384,7718,VNB,C,2
2,test,3,0.0,1-Back,1.0,z,Fri Dec 05 2025 13:56:42 GMT-0600 (Central Standard Time),275547.10000002384,012_o_f_n_a.png,O,z,1231,4,1,2239.300000011921,273307.8000000119,7718,VNB,C,3
3,test,3,1.0,1-Back,1.0,m,Fri Dec 05 2025 13:56:42 GMT-0600 (Central Standard Time),277612.3000000119,015_o_m_d_a.png,O,m,1037,5,1,2055.199999988079,275557.10000002384,7718,VNB,C,4
4,test,3,0.0,1-Back,1.0,m,Fri Dec 05 2025 13:56:42 GMT-0600 (Central Standard Time),280212.0,022_y_f_h_a.png,O,m,1571,6,1,2596.199999988079,277615.8000000119,7718,VNB,C,5
4,test,3,0.0,1-Back,0.0,z,Fri Dec 05 2025 13:56:42 GMT-0600 (Central Standard Time),281995.3000000119,025_y_m_h_a.png,O,m,757,7,1,1772.300000011921,280223.0,7718,VNB,C,6
5,test,3,0.0,1-Back,1.0,m,Fri Dec 05 2025 13:56:42 GMT-0600 (Central Standard Time),284644.1999999881,019_m_f_n_a.png,O,m,1622,8,1,2640.699999988079,282003.5,7718,VNB,C,7
6,test,3,0.0,1-Back,1.0,m,Fri Dec 05 2025 13:56:42 GMT-0600 (Central Standard Time),286860.6999999881,022_y_f_d_a.png,O,m,1171,9,1,2199.300000011921,284661.39999997616,7718,VNB,C,8
7,test,3,1.0,1-Back,1.0,m,Fri Dec 05 2025 13:56:42 GMT-0600 (Central Standard Time),289159.6999999881,015_o_m_n_a.png,O,m,1269,10,1,2287.699999988079,286872.0,7718,VNB,C,9
8,test,3,0.0,1-Back,1.0,m,Fri Dec 05 2025 13:56:42 GMT-0600 (Central Standard Time),292041.8000000119,014_m_m_h_a.png,O,m,1858,11,1,2870.900000035763,289170.89999997616,7718,VNB,C,10
8,test,3,0.0,1-Back,0.0,z,Fri Dec 05 2025 13:56:42 GMT-0600 (Central Standard Time),294507.89999997616,019_m_f_h_a.png,O,m,1439,12,1,2461.699999988079,292046.1999999881,7718,VNB,C,11
9,test,3,1.0,1-Back,1.0,m,Fri Dec 05 2025 13:56:42 GMT-0600 (Central Standard Time),297006.89999997616,012_o_f_d_a.png,O,m,1478,13,1,2486.899999976158,294520.0,7718,VNB,C,12
10,test,3,0.0,1-Back,1.0,z,Fri Dec 05 2025 13:56:42 GMT-0600 (Central Standard Time),299406.10000002384,014_m_m_d_a.png,O,z,1369,14,1,2390.100000023842,297016.0,7718,VNB,C,13
11,test,3,0.0,1-Back,1.0,m,Fri Dec 05 2025 13:56:42 GMT-0600 (Central Standard Time),301306.60000002384,025_y_m_n_a.png,O,m,872,15,1,1893.300000011921,299413.3000000119,7718,VNB,C,14
12,test,3,1.0,1-Back,1.0,m,Fri Dec 05 2025 13:56:42 GMT-0600 (Central Standard Time),303522.60000002384,015_o_m_h_a.png,O,m,1184,16,1,2203.400000035763,301319.1999999881,7718,VNB,C,15
13,test,3,0.0,1-Back,1.0,m,Fri Dec 05 2025 13:56:42 GMT-0600 (Central Standard Time),305787.1999999881,025_y_m_d_a.png,O,m,1247,17,1,2257.5,303529.6999999881,7718,VNB,C,16
13,test,3,1.0,1-Back,0.0,m,Fri Dec 05 2025 13:56:42 GMT-0600 (Central Standard Time),308104.8000000119,022_y_f_n_a.png,O,z,1286,18,1,2307.600000023842,305797.1999999881,7718,VNB,C,17
0,test,4,1.0,1-Back,,,Fri Dec 05 2025 13:56:42 GMT-0600 (Central Standard Time),308104.8000000119,014_m_m_d_a.png,O,space,1367,1,1,2307.600000023842,305797.1999999881,7718,VNB,C,0
1,test,4,0.0,1-Back,1.0,z,Fri Dec 05 2025 13:56:42 GMT-0600 (Central Standard Time),314036.10000002384,015_o_m_d_a.png,O,z,1499,2,1,2524.7000000476837,311511.39999997616,7718,VNB,C,1
2,test,4,0.0,1-Back,1.0,m,Fri Dec 05 2025 13:56:42 GMT-0600 (Central Standard Time),315767.89999997616,025_y_m_h_a.png,O,m,706,3,1,1721.199999988079,314046.6999999881,7718,VNB,C,2
3,test,4,0.0,1-Back,1.0,m,Fri Dec 05 2025 13:56:42 GMT-0600 (Central Standard Time),318217.8000000119,019_m_f_n_a.png,O,m,1416,4,1,2438.0,315779.8000000119,7718,VNB,C,3
4,test,4,1.0,1-Back,1.0,m,Fri Dec 05 2025 13:56:42 GMT-0600 (Central Standard Time),320165.10000002384,012_o_f_h_a.png,O,m,916,5,1,1939.1000000238419,318226.0,7718,VNB,C,4
4,test,4,0.0,1-Back,0.0,m,Fri Dec 05 2025 13:56:42 GMT-0600 (Central Standard Time),322417.10000002384,014_m_m_n_a.png,O,z,1220,6,1,2249.100000023842,320168.0,7718,VNB,C,5
5,test,4,0.0,1-Back,1.0,m,Fri Dec 05 2025 13:56:42 GMT-0600 (Central Standard Time),324598.3000000119,025_y_m_d_a.png,O,m,1160,7,1,2170.300000011921,322428.0,7718,VNB,C,6
5,test,4,1.0,1-Back,0.0,z,Fri Dec 05 2025 13:56:42 GMT-0600 (Central Standard Time),326932.6999999881,022_y_f_d_a.png,O,m,1316,8,1,2327.399999976158,324605.3000000119,7718,VNB,C,7
6,test,4,0.0,1-Back,1.0,m,Fri Dec 05 2025 13:56:42 GMT-0600 (Central Standard Time),329281.89999997616,019_m_f_h_a.png,O,m,1334,9,1,2344.0,326937.89999997616,7718,VNB,C,8
7,test,4,0.0,1-Back,1.0,z,Fri Dec 05 2025 13:56:42 GMT-0600 (Central Standard Time),331664.10000002384,015_o_m_h_a.png,O,z,1353,10,1,2374.0,329290.10000002384,7718,VNB,C,9
8,test,4,1.0,1-Back,1.0,m,Fri Dec 05 2025 13:56:42 GMT-0600 (Central Standard Time),333629.10000002384,012_o_f_n_a.png,O,m,948,11,1,1960.1000000238419,331669.0,7718,VNB,C,10
9,test,4,0.0,1-Back,1.0,m,Fri Dec 05 2025 13:56:42 GMT-0600 (Central Standard Time),335978.6999999881,019_m_f_d_a.png,O,m,1322,12,1,2340.599999964237,333638.10000002384,7718,VNB,C,11
10,test,4,0.0,1-Back,1.0,m,Fri Dec 05 2025 13:56:42 GMT-0600 (Central Standard Time),338113.1999999881,022_y_f_n_a.png,O,m,1110,13,1,2127.0,335986.1999999881,7718,VNB,C,12
11,test,4,0.0,1-Back,1.0,m,Fri Dec 05 2025 13:56:42 GMT-0600 (Central Standard Time),340309.10000002384,012_o_f_d_a.png,O,m,1178,14,1,2184.600000023842,338124.5,7718,VNB,C,13
12,test,4,0.0,1-Back,1.0,m,Fri Dec 05 2025 13:56:42 GMT-0600 (Central Standard Time),342727.0,022_y_f_h_a.png,O,m,1387,15,1,2410.699999988079,340316.3000000119,7718,VNB,C,14
13,test,4,1.0,1-Back,1.0,z,Fri Dec 05 2025 13:56:42 GMT-0600 (Central Standard Time),344741.5,014_m_m_h_a.png,O,z,993,16,1,2009.5,342732.0,7718,VNB,C,15
14,test,4,0.0,1-Back,1.0,m,Fri Dec 05 2025 13:56:42 GMT-0600 (Central Standard Time),346992.0,015_o_m_n_a.png,O,m,1226,17,1,2244.300000011921,344747.6999999881,7718,VNB,C,16
15,test,4,1.0,1-Back,1.0,z,Fri Dec 05 2025 13:56:42 GMT-0600 (Central Standard Time),349190.89999997616,025_y_m_n_a.png,O,z,1177,18,1,2188.699999988079,347002.1999999881,7718,VNB,C,17
0,test,5,1.0,1-Back,,,Fri Dec 05 2025 13:56:42 GMT-0600 (Central Standard Time),349190.89999997616,015_o_m_n_a.png,O,space,1450,1,1,2188.699999988079,347002.1999999881,7718,VNB,C,0
1,test,5,1.0,1-Back,1.0,m,Fri Dec 05 2025 13:56:42 GMT-0600 (Central Standard Time),354856.0,012_o_f_h_a.png,O,m,1153,2,1,2174.199999988079,352681.8000000119,7718,VNB,C,1
2,test,5,0.0,1-Back,1.0,m,Fri Dec 05 2025 13:56:42 GMT-0600 (Central Standard Time),357754.6999999881,025_y_m_d_a.png,O,m,1872,3,1,2891.5,354863.1999999881,7718,VNB,C,2
3,test,5,0.0,1-Back,1.0,z,Fri Dec 05 2025 13:56:42 GMT-0600 (Central Standard Time),359972.3000000119,015_o_m_d_a.png,O,z,1190,4,1,2208.400000035763,357763.89999997616,7718,VNB,C,3
4,test,5,0.0,1-Back,1.0,m,Fri Dec 05 2025 13:56:42 GMT-0600 (Central Standard Time),361921.10000002384,019_m_f_h_a.png,O,m,915,5,1,1941.2000000476837,359979.89999997616,7718,VNB,C,4
4,test,5,0.0,1-Back,0.0,m,Fri Dec 05 2025 13:56:42 GMT-0600 (Central Standard Time),363969.39999997616,022_y_f_n_a.png,O,z,1016,6,1,2039.0999999642372,361930.3000000119,7718,VNB,C,5
5,test,5,1.0,1-Back,1.0,z,Fri Dec 05 2025 13:56:42 GMT-0600 (Central Standard Time),366184.3000000119,012_o_f_n_a.png,O,z,1191,7,1,2205.300000011921,363979.0,7718,VNB,C,6
6,test,5,0.0,1-Back,1.0,m,Fri Dec 05 2025 13:56:42 GMT-0600 (Central Standard Time),368135.60000002384,019_m_f_d_a.png,O,m,927,8,1,1943.1000000238419,366192.5,7718,VNB,C,7
7,test,5,0.0,1-Back,1.0,m,Fri Dec 05 2025 13:56:42 GMT-0600 (Central Standard Time),370283.6999999881,025_y_m_h_a.png,O,m,1132,9,1,2138.599999964237,368145.10000002384,7718,VNB,C,8
8,test,5,0.0,1-Back,1.0,m,Fri Dec 05 2025 13:56:42 GMT-0600 (Central Standard Time),373051.3000000119,022_y_f_d_a.png,O,m,1734,10,1,2762.100000023842,370289.1999999881,7718,VNB,C,9
9,test,5,0.0,1-Back,1.0,m,Fri Dec 05 2025 13:56:42 GMT-0600 (Central Standard Time),375315.6999999881,014_m_m_n_a.png,O,m,1239,11,1,2257.5,373058.1999999881,7718,VNB,C,10
10,test,5,1.0,1-Back,1.0,z,Fri Dec 05 2025 13:56:42 GMT-0600 (Central Standard Time),377548.0,019_m_f_n_a.png,O,z,1213,12,1,2225.600000023842,375322.39999997616,7718,VNB,C,11
11,test,5,0.0,1-Back,1.0,m,Fri Dec 05 2025 13:56:42 GMT-0600 (Central Standard Time),379580.1999999881,015_o_m_h_a.png,O,m,1005,13,1,2024.8999999761581,377555.3000000119,7718,VNB,C,12
12,test,5,0.0,1-Back,1.0,z,Fri Dec 05 2025 13:56:42 GMT-0600 (Central Standard Time),381936.89999997616,014_m_m_h_a.png,O,z,1315,14,1,2347.199999988079,379589.6999999881,7718,VNB,C,13
13,test,5,1.0,1-Back,1.0,m,Fri Dec 05 2025 13:56:42 GMT-0600 (Central Standard Time),383963.39999997616,012_o_f_d_a.png,O,m,1015,15,1,2023.199999988079,381940.1999999881,7718,VNB,C,14
14,test,5,0.0,1-Back,1.0,m,Fri Dec 05 2025 13:56:42 GMT-0600 (Central Standard Time),386178.8000000119,025_y_m_n_a.png,O,m,1182,16,1,2206.800000011921,383972.0,7718,VNB,C,15
15,test,5,0.0,1-Back,1.0,m,Fri Dec 05 2025 13:56:42 GMT-0600 (Central Standard Time),388645.60000002384,022_y_f_h_a.png,O,m,1437,17,1,2457.0,386188.60000002384,7718,VNB,C,16
16,test,5,0.0,1-Back,1.0,m,Fri Dec 05 2025 13:56:42 GMT-0600 (Central Standard Time),391144.0,014_m_m_d_a.png,O,m,1467,18,1,2486.899999976158,388657.10000002384,7718,VNB,C,17
0,prac,1,0.0,2-Back,,,Fri Dec 05 2025 13:56:42 GMT-0600 (Central Standard Time),391144.0,019_m_f_n_a.png,O,space,3871,1,1,2486.899999976158,388657.10000002384,7718,VNB,C,0
0,prac,1,0.0,2-Back,,,Fri Dec 05 2025 13:56:42 GMT-0600 (Central Standard Time),391144.0,012_o_f_h_a.png,O,space,3871,2,1,2486.899999976158,388657.10000002384,7718,VNB,C,0
1,prac,1,0.0,2-Back,1.0,m,Fri Dec 05 2025 13:56:42 GMT-0600 (Central Standard Time),509874.60000002384,015_o_m_d_a.png,O,m,1270,3,1,2140.5,507734.10000002384,7718,VNB,C,1
1,prac,1,1.0,2-Back,0.0,z,Fri Dec 05 2025 13:56:42 GMT-0600 (Central Standard Time),512655.1999999881,014_m_m_h_a.png,O,m,1933,4,1,2769.899999976158,509885.3000000119,7718,VNB,C,2
2,prac,1,0.0,2-Back,1.0,m,Fri Dec 05 2025 13:56:42 GMT-0600 (Central Standard Time),515508.3000000119,022_y_f_n_a.png,O,m,1961,5,1,2839.400000035763,512668.89999997616,7718,VNB,C,3
3,prac,1,1.0,2-Back,1.0,z,Fri Dec 05 2025 13:56:42 GMT-0600 (Central Standard Time),517770.0,015_o_m_h_a.png,O,z,1479,6,1,2256.399999976158,515513.60000002384,7718,VNB,C,4
3,prac,1,1.0,2-Back,0.0,z,Fri Dec 05 2025 13:56:42 GMT-0600 (Central Standard Time),520336.1999999881,025_y_m_n_a.png,O,m,1720,7,1,2560.699999988079,517775.5,7718,VNB,C,5
4,prac,1,0.0,2-Back,1.0,m,Fri Dec 05 2025 13:56:42 GMT-0600 (Central Standard Time),522520.3000000119,019_m_f_d_a.png,O,m,1312,8,1,2172.0,520348.3000000119,7718,VNB,C,6
5,prac,1,0.0,2-Back,1.0,m,Fri Dec 05 2025 13:56:42 GMT-0600 (Central Standard Time),525070.3000000119,012_o_f_d_a.png,O,m,1677,9,1,2540.199999988079,522530.10000002384,7718,VNB,C,7
5,prac,1,0.0,2-Back,0.0,m,Fri Dec 05 2025 13:56:42 GMT-0600 (Central Standard Time),526900.3000000119,014_m_m_h_a.png,O,z,1046,10,1,1816.5,525083.8000000119,7718,VNB,C,8
5,prac,1,1.0,2-Back,0.0,z,Fri Dec 05 2025 13:56:42 GMT-0600 (Central Standard Time),529536.1999999881,022_y_f_d_a.png,O,m,1788,11,1,2623.699999988079,526912.5,7718,VNB,C,9
6,prac,1,0.0,2-Back,1.0,m,Fri Dec 05 2025 13:56:42 GMT-0600 (Central Standard Time),532284.3000000119,015_o_m_n_a.png,O,m,1898,12,1,2738.400000035763,529545.8999999762,7718,VNB,C,10
0,prac,2,0.0,2-Back,,,Fri Dec 05 2025 13:56:42 GMT-0600 (Central Standard Time),532284.3000000119,019_m_f_n_a.png,O,a,5274,1,1,2738.400000035763,529545.8999999762,7718,VNB,C,0
0,prac,2,0.0,2-Back,,,Fri Dec 05 2025 13:56:42 GMT-0600 (Central Standard Time),532284.3000000119,012_o_f_h_a.png,O,a,5274,2,1,2738.400000035763,529545.8999999762,7718,VNB,C,0
1,prac,2,0.0,2-Back,1.0,m,Fri Dec 05 2025 13:56:42 GMT-0600 (Central Standard Time),543878.3000000119,015_o_m_d_a.png,O,m,224,3,1,1090.199999988079,542788.1000000238,7718,VNB,C,1
1,prac,2,1.0,2-Back,0.0,z,Fri Dec 05 2025 13:56:42 GMT-0600 (Central Standard Time),546660.6000000238,014_m_m_h_a.png,O,None,2008,4,1,2773.400000035763,543887.1999999881,7718,VNB,C,2
1,prac,2,0.0,2-Back,0.0,m,Fri Dec 05 2025 13:56:42 GMT-0600 (Central Standard Time),549426.8999999762,022_y_f_n_a.png,O,z,1892,5,1,2754.2999999523163,546672.6000000238,7718,VNB,C,3
1,prac,2,1.0,2-Back,0.0,z,Fri Dec 05 2025 13:56:42 GMT-0600 (Central Standard Time),551825.5,015_o_m_h_a.png,O,m,1538,6,1,2386.899999976158,549438.6000000238,7718,VNB,C,4
2,prac,2,1.0,2-Back,1.0,z,Fri Dec 05 2025 13:56:42 GMT-0600 (Central Standard Time),554609.0,025_y_m_n_a.png,O,z,1918,7,1,2772.699999988079,551836.3000000119,7718,VNB,C,5
3,prac,2,0.0,2-Back,1.0,m,Fri Dec 05 2025 13:56:42 GMT-0600 (Central Standard Time),556690.5,019_m_f_d_a.png,O,m,1202,8,1,2068.899999976158,554621.6000000238,7718,VNB,C,6
3,prac,2,0.0,2-Back,0.0,m,Fri Dec 05 2025 13:56:42 GMT-0600 (Central Standard Time),559124.3000000119,012_o_f_d_a.png,O,z,1565,9,1,2425.199999988079,556699.1000000238,7718,VNB,C,7
4,prac,2,0.0,2-Back,1.0,m,Fri Dec 05 2025 13:56:42 GMT-0600 (Central Standard Time),561223.3999999762,014_m_m_h_a.png,O,m,1304,10,1,2086.699999988079,559136.6999999881,7718,VNB,C,8
4,prac,2,1.0,2-Back,0.0,z,Fri Dec 05 2025 13:56:42 GMT-0600 (Central Standard Time),563589.5,022_y_f_d_a.png,O,m,1489,11,1,2353.899999976158,561235.6000000238,7718,VNB,C,9
5,prac,2,0.0,2-Back,1.0,m,Fri Dec 05 2025 13:56:42 GMT-0600 (Central Standard Time),565872.5,015_o_m_n_a.png,O,m,1399,12,1,2270.600000023842,563601.8999999762,7718,VNB,C,10
0,test,1,0.0,2-Back,,,Fri Dec 05 2025 13:56:42 GMT-0600 (Central Standard Time),565872.5,025_y_m_h_a.png,O,space,9314,1,1,2270.600000023842,563601.8999999762,7718,VNB,C,0
0,test,1,0.0,2-Back,,,Fri Dec 05 2025 13:56:42 GMT-0600 (Central Standard Time),565872.5,012_o_f_n_a.png,O,space,9314,2,1,2270.600000023842,563601.8999999762,7718,VNB,C,0
1,test,1,0.0,2-Back,1.0,z,Fri Dec 05 2025 13:56:42 GMT-0600 (Central Standard Time),589331.6999999881,015_o_m_h_a.png,O,z,1965,3,1,2971.0,586360.6999999881,7718,VNB,C,1
2,test,1,0.0,2-Back,1.0,m,Fri Dec 05 2025 13:56:42 GMT-0600 (Central Standard Time),592063.8000000119,019_m_f_d_a.png,O,m,1701,4,1,2726.300000011921,589337.5,7718,VNB,C,2
3,test,1,1.0,2-Back,1.0,m,Fri Dec 05 2025 13:56:42 GMT-0600 (Central Standard Time),594647.6999999881,025_y_m_n_a.png,O,m,1553,5,1,2574.099999964237,592073.6000000238,7718,VNB,C,3
3,test,1,0.0,2-Back,0.0,z,Fri Dec 05 2025 13:56:42 GMT-0600 (Central Standard Time),597112.1000000238,022_y_f_d_a.png,O,m,1434,6,1,2453.800000011921,594658.3000000119,7718,VNB,C,4
4,test,1,0.0,2-Back,1.0,m,Fri Dec 05 2025 13:56:42 GMT-0600 (Central Standard Time),599343.5,014_m_m_h_a.png,O,m,1208,7,1,2225.800000011921,597117.6999999881,7718,VNB,C,5
5,test,1,1.0,2-Back,1.0,m,Fri Dec 05 2025 13:56:42 GMT-0600 (Central Standard Time),601694.3999999762,022_y_f_n_a.png,O,m,1319,8,1,2342.199999988079,599352.1999999881,7718,VNB,C,6
5,test,1,0.0,2-Back,0.0,z,Fri Dec 05 2025 13:56:42 GMT-0600 (Central Standard Time),604726.1999999881,012_o_f_h_a.png,O,None,2015,9,1,3027.899999976158,601698.3000000119,7718,VNB,C,7
5,test,1,0.0,2-Back,0.0,m,Fri Dec 05 2025 13:56:42 GMT-0600 (Central Standard Time),607758.8000000119,015_o_m_d_a.png,O,None,2015,10,1,3026.199999988079,604732.6000000238,7718,VNB,C,8
6,test,1,1.0,2-Back,1.0,m,Fri Dec 05 2025 13:56:42 GMT-0600 (Central Standard Time),610458.8000000119,014_m_m_d_a.png,O,m,1667,11,1,2689.900000035763,607768.8999999762,7718,VNB,C,9
7,test,1,0.0,2-Back,1.0,m,Fri Dec 05 2025 13:56:42 GMT-0600 (Central Standard Time),612957.6999999881,019_m_f_n_a.png,O,m,1469,12,1,2490.599999964237,610467.1000000238,7718,VNB,C,10
7,test,1,0.0,2-Back,0.0,m,Fri Dec 05 2025 13:56:42 GMT-0600 (Central Standard Time),615975.3999999762,022_y_f_h_a.png,O,None,2002,13,1,3011.199999988079,612964.1999999881,7718,VNB,C,11
7,test,1,0.0,2-Back,0.0,z,Fri Dec 05 2025 13:56:42 GMT-0600 (Central Standard Time),619004.3999999762,014_m_m_n_a.png,O,None,2014,14,1,3019.2999999523163,615985.1000000238,7718,VNB,C,12
8,test,1,0.0,2-Back,1.0,m,Fri Dec 05 2025 13:56:42 GMT-0600 (Central Standard Time),621304.8999999762,025_y_m_d_a.png,O,m,1283,15,1,2291.199999988079,619013.6999999881,7718,VNB,C,13
9,test,1,1.0,2-Back,1.0,m,Fri Dec 05 2025 13:56:42 GMT-0600 (Central Standard Time),624003.1000000238,019_m_f_h_a.png,O,m,1666,16,1,2691.600000023842,621311.5,7718,VNB,C,14
9,test,1,0.0,2-Back,0.0,z,Fri Dec 05 2025 13:56:42 GMT-0600 (Central Standard Time),626852.8000000119,012_o_f_d_a.png,O,m,1832,17,1,2843.199999988079,624009.6000000238,7718,VNB,C,15
10,test,1,0.0,2-Back,1.0,m,Fri Dec 05 2025 13:56:42 GMT-0600 (Central Standard Time),629251.6000000238,015_o_m_n_a.png,O,m,1382,18,1,2389.400000035763,626862.1999999881,7718,VNB,C,16
0,test,2,0.0,2-Back,,,Fri Dec 05 2025 13:56:42 GMT-0600 (Central Standard Time),629251.6000000238,014_m_m_h_a.png,O,space,1324,1,1,2389.400000035763,626862.1999999881,7718,VNB,C,0
0,test,2,0.0,2-Back,,,Fri Dec 05 2025 13:56:42 GMT-0600 (Central Standard Time),629251.6000000238,022_y_f_n_a.png,O,space,1324,2,1,2389.400000035763,626862.1999999881,7718,VNB,C,0
0,test,2,1.0,2-Back,0.0,z,Fri Dec 05 2025 13:56:42 GMT-0600 (Central Standard Time),638815.3000000119,012_o_f_h_a.png,O,None,2015,3,1,3022.800000011921,635792.5,7718,VNB,C,1
1,test,2,0.0,2-Back,1.0,m,Fri Dec 05 2025 13:56:42 GMT-0600 (Central Standard Time),641064.3999999762,015_o_m_d_a.png,O,m,1218,4,1,2239.5,638824.8999999762,7718,VNB,C,2
2,test,2,0.0,2-Back,1.0,m,Fri Dec 05 2025 13:56:42 GMT-0600 (Central Standard Time),643347.5,019_m_f_d_a.png,O,m,1251,5,1,2271.100000023842,641076.3999999762,7718,VNB,C,3
3,test,2,0.0,2-Back,1.0,m,Fri Dec 05 2025 13:56:42 GMT-0600 (Central Standard Time),645546.3000000119,025_y_m_h_a.png,O,m,1173,6,1,2189.300000011921,643357.0,7718,VNB,C,4
4,test,2,0.0,2-Back,1.0,m,Fri Dec 05 2025 13:56:42 GMT-0600 (Central Standard Time),647695.6000000238,012_o_f_n_a.png,O,m,1126,7,1,2137.7000000476837,645557.8999999762,7718,VNB,C,5
4,test,2,1.0,2-Back,0.0,z,Fri Dec 05 2025 13:56:42 GMT-0600 (Central Standard Time),650044.8999999762,015_o_m_h_a.png,O,m,1323,8,1,2336.199999988079,647708.6999999881,7718,VNB,C,6
4,test,2,0.0,2-Back,0.0,m,Fri Dec 05 2025 13:56:42 GMT-0600 (Central Standard Time),653093.8000000119,022_y_f_d_a.png,O,None,2017,9,1,3035.300000011921,650058.5,7718,VNB,C,7
4,test,2,0.0,2-Back,0.0,m,Fri Dec 05 2025 13:56:42 GMT-0600 (Central Standard Time),655943.1999999881,025_y_m_d_a.png,O,z,1827,10,1,2839.899999976158,653103.3000000119,7718,VNB,C,8
5,test,2,0.0,2-Back,1.0,m,Fri Dec 05 2025 13:56:42 GMT-0600 (Central Standard Time),658391.6999999881,014_m_m_n_a.png,O,m,1418,11,1,2438.699999988079,655953.0,7718,VNB,C,9
6,test,2,0.0,2-Back,1.0,m,Fri Dec 05 2025 13:56:42 GMT-0600 (Central Standard Time),660641.1999999881,019_m_f_h_a.png,O,m,1225,12,1,2237.5,658403.6999999881,7718,VNB,C,10
6,test,2,1.0,2-Back,0.0,z,Fri Dec 05 2025 13:56:42 GMT-0600 (Central Standard Time),663008.0,015_o_m_n_a.png,O,m,1341,13,1,2356.399999976158,660651.6000000238,7718,VNB,C,11
7,test,2,0.0,2-Back,1.0,m,Fri Dec 05 2025 13:56:42 GMT-0600 (Central Standard Time),665306.6000000238,012_o_f_d_a.png,O,m,1273,14,1,2292.5,663014.1000000238,7718,VNB,C,12
8,test,2,0.0,2-Back,1.0,m,Fri Dec 05 2025 13:56:42 GMT-0600 (Central Standard Time),667572.5,022_y_f_h_a.png,O,m,1238,15,1,2258.600000023842,665313.8999999762,7718,VNB,C,13
8,test,2,0.0,2-Back,0.0,z,Fri Dec 05 2025 13:56:42 GMT-0600 (Central Standard Time),670221.6000000238,014_m_m_d_a.png,O,m,1628,16,1,2644.2000000476837,667577.3999999762,7718,VNB,C,14
9,test,2,0.0,2-Back,1.0,m,Fri Dec 05 2025 13:56:42 GMT-0600 (Central Standard Time),673038.3000000119,025_y_m_n_a.png,O,m,1787,17,1,2808.600000023842,670229.6999999881,7718,VNB,C,15
9,test,2,1.0,2-Back,0.0,m,Fri Dec 05 2025 13:56:42 GMT-0600 (Central Standard Time),676069.5,019_m_f_n_a.png,O,None,2015,18,1,3022.0,673047.5,7718,VNB,C,16
0,test,3,1.0,2-Back,,,Fri Dec 05 2025 13:56:42 GMT-0600 (Central Standard Time),676069.5,015_o_m_n_a.png,O,space,1499,1,1,3022.0,673047.5,7718,VNB,C,0
0,test,3,1.0,2-Back,,,Fri Dec 05 2025 13:56:42 GMT-0600 (Central Standard Time),676069.5,012_o_f_d_a.png,O,space,1499,2,1,3022.0,673047.5,7718,VNB,C,0
1,test,3,0.0,2-Back,1.0,m,Fri Dec 05 2025 13:56:42 GMT-0600 (Central Standard Time),684816.8999999762,022_y_f_h_a.png,O,m,1166,3,1,2192.199999988079,682624.6999999881,7718,VNB,C,1
1,test,3,0.0,2-Back,0.0,z,Fri Dec 05 2025 13:56:42 GMT-0600 (Central Standard Time),687384.8999999762,019_m_f_d_a.png,O,m,1536,4,1,2561.399999976158,684823.5,7718,VNB,C,2
1,test,3,1.0,2-Back,0.0,m,Fri Dec 05 2025 13:56:42 GMT-0600 (Central Standard Time),690399.1000000238,025_y_m_n_a.png,O,None,2009,5,1,3010.800000011921,687388.3000000119,7718,VNB,C,3
2,test,3,0.0,2-Back,1.0,m,Fri Dec 05 2025 13:56:42 GMT-0600 (Central Standard Time),692646.6999999881,015_o_m_h_a.png,O,m,1225,6,1,2238.099999964237,690408.6000000238,7718,VNB,C,4
2,test,3,0.0,2-Back,0.0,z,Fri Dec 05 2025 13:56:42 GMT-0600 (Central Standard Time),695579.8999999762,022_y_f_n_a.png,O,m,1912,7,1,2923.2999999523163,692656.6000000238,7718,VNB,C,5
3,test,3,1.0,2-Back,1.0,m,Fri Dec 05 2025 13:56:42 GMT-0600 (Central Standard Time),697662.8000000119,014_m_m_d_a.png,O,m,1058,8,1,2074.699999988079,695588.1000000238,7718,VNB,C,6
3,test,3,0.0,2-Back,0.0,m,Fri Dec 05 2025 13:56:42 GMT-0600 (Central Standard Time),700696.0,025_y_m_d_a.png,O,None,2016,9,1,3030.399999976158,697665.6000000238,7718,VNB,C,7
3,test,3,0.0,2-Back,0.0,m,Fri Dec 05 2025 13:56:42 GMT-0600 (Central Standard Time),703712.8000000119,012_o_f_h_a.png,O,None,2001,10,1,3008.5,700704.3000000119,7718,VNB,C,8
4,test,3,1.0,2-Back,1.0,m,Fri Dec 05 2025 13:56:42 GMT-0600 (Central Standard Time),706460.5,019_m_f_n_a.png,O,m,1728,11,1,2738.399999976158,703722.1000000238,7718,VNB,C,9
4,test,3,1.0,2-Back,0.0,z,Fri Dec 05 2025 13:56:42 GMT-0600 (Central Standard Time),708793.0,014_m_m_h_a.png,O,m,1308,12,1,2326.0,706467.0,7718,VNB,C,10
5,test,3,0.0,2-Back,1.0,m,Fri Dec 05 2025 13:56:42 GMT-0600 (Central Standard Time),711394.8000000119,022_y_f_d_a.png,O,m,1574,13,1,2591.600000023842,708803.1999999881,7718,VNB,C,11
5,test,3,0.0,2-Back,0.0,m,Fri Dec 05 2025 13:56:42 GMT-0600 (Central Standard Time),713840.3999999762,012_o_f_n_a.png,O,z,1424,14,1,2441.0,711399.3999999762,7718,VNB,C,12
5,test,3,0.0,2-Back,0.0,z,Fri Dec 05 2025 13:56:42 GMT-0600 (Central Standard Time),715941.3000000119,015_o_m_d_a.png,O,m,1083,15,1,2097.5,713843.8000000119,7718,VNB,C,13
6,test,3,1.0,2-Back,1.0,m,Fri Dec 05 2025 13:56:42 GMT-0600 (Central Standard Time),718257.1999999881,019_m_f_h_a.png,O,m,1292,16,1,2312.699999988079,715944.5,7718,VNB,C,14
7,test,3,0.0,2-Back,1.0,m,Fri Dec 05 2025 13:56:42 GMT-0600 (Central Standard Time),720940.3000000119,014_m_m_n_a.png,O,m,1656,17,1,2674.199999988079,718266.1000000238,7718,VNB,C,15
7,test,3,0.0,2-Back,0.0,z,Fri Dec 05 2025 13:56:42 GMT-0600 (Central Standard Time),723171.1999999881,025_y_m_h_a.png,O,m,1211,18,1,2221.300000011921,720949.8999999762,7718,VNB,C,16
0,test,4,0.0,2-Back,,,Fri Dec 05 2025 13:56:42 GMT-0600 (Central Standard Time),723171.1999999881,019_m_f_n_a.png,O,space,1200,1,1,2221.300000011921,720949.8999999762,7718,VNB,C,0
0,test,4,0.0,2-Back,,,Fri Dec 05 2025 13:56:42 GMT-0600 (Central Standard Time),723171.1999999881,015_o_m_n_a.png,O,space,1200,2,1,2221.300000011921,720949.8999999762,7718,VNB,C,0
1,test,4,1.0,2-Back,1.0,m,Fri Dec 05 2025 13:56:42 GMT-0600 (Central Standard Time),732385.3000000119,025_y_m_h_a.png,O,m,1769,3,1,2791.199999988079,729594.1000000238,7718,VNB,C,1
2,test,4,1.0,2-Back,1.0,m,Fri Dec 05 2025 13:56:42 GMT-0600 (Central Standard Time),734568.1999999881,012_o_f_d_a.png,O,m,1153,4,1,2173.800000011921,732394.3999999762,7718,VNB,C,2
2,test,4,0.0,2-Back,0.0,z,Fri Dec 05 2025 13:56:42 GMT-0600 (Central Standard Time),737600.1999999881,015_o_m_h_a.png,O,None,2014,5,1,3022.199999988079,734578.0,7718,VNB,C,3
3,test,4,0.0,2-Back,1.0,m,Fri Dec 05 2025 13:56:42 GMT-0600 (Central Standard Time),740116.6999999881,014_m_m_n_a.png,O,m,1488,6,1,2505.300000011921,737611.3999999762,7718,VNB,C,4
3,test,4,0.0,2-Back,0.0,m,Fri Dec 05 2025 13:56:42 GMT-0600 (Central Standard Time),743148.6000000238,019_m_f_d_a.png,O,None,2015,7,1,3025.5,740123.1000000238,7718,VNB,C,5
3,test,4,0.0,2-Back,0.0,z,Fri Dec 05 2025 13:56:42 GMT-0600 (Central Standard Time),745547.3999999762,022_y_f_n_a.png,O,m,1371,8,1,2387.199999988079,743160.1999999881,7718,VNB,C,6
4,test,4,1.0,2-Back,1.0,m,Fri Dec 05 2025 13:56:42 GMT-0600 (Central Standard Time),747947.6999999881,012_o_f_h_a.png,O,m,1382,9,1,2392.0,745555.6999999881,7718,VNB,C,7
5,test,4,0.0,2-Back,1.0,m,Fri Dec 05 2025 13:56:42 GMT-0600 (Central Standard Time),750379.6000000238,014_m_m_h_a.png,O,m,1397,10,1,2414.600000023842,747965.0,7718,VNB,C,8
6,test,4,0.0,2-Back,1.0,m,Fri Dec 05 2025 13:56:42 GMT-0600 (Central Standard Time),753178.6999999881,022_y_f_d_a.png,O,m,1781,11,1,2793.399999976158,750385.3000000119,7718,VNB,C,9
6,test,4,0.0,2-Back,0.0,m,Fri Dec 05 2025 13:56:42 GMT-0600 (Central Standard Time),756195.3999999762,025_y_m_n_a.png,O,None,2001,12,1,3010.599999964237,753184.8000000119,7718,VNB,C,10
6,test,4,0.0,2-Back,0.0,z,Fri Dec 05 2025 13:56:42 GMT-0600 (Central Standard Time),758693.3999999762,015_o_m_d_a.png,O,m,1469,13,1,2486.2999999523163,756207.1000000238,7718,VNB,C,11
7,test,4,1.0,2-Back,1.0,m,Fri Dec 05 2025 13:56:42 GMT-0600 (Central Standard Time),761426.0,019_m_f_h_a.png,O,m,1702,14,1,2723.100000023842,758702.8999999762,7718,VNB,C,12
7,test,4,1.0,2-Back,0.0,m,Fri Dec 05 2025 13:56:42 GMT-0600 (Central Standard Time),764026.1000000238,022_y_f_h_a.png,O,z,1567,15,1,2587.400000035763,761438.6999999881,7718,VNB,C,13
8,test,4,0.0,2-Back,1.0,m,Fri Dec 05 2025 13:56:42 GMT-0600 (Central Standard Time),765974.8999999762,012_o_f_n_a.png,O,m,929,16,1,1940.0,764034.8999999762,7718,VNB,C,14
9,test,4,0.0,2-Back,1.0,m,Fri Dec 05 2025 13:56:42 GMT-0600 (Central Standard Time),768172.6999999881,025_y_m_d_a.png,O,m,1167,17,1,2191.300000011921,765981.3999999762,7718,VNB,C,15
10,test,4,1.0,2-Back,1.0,m,Fri Dec 05 2025 13:56:42 GMT-0600 (Central Standard Time),770090.5,014_m_m_d_a.png,O,m,884,18,1,1911.8999999761581,768178.6000000238,7718,VNB,C,16
0,test,5,1.0,2-Back,,,Fri Dec 05 2025 13:56:42 GMT-0600 (Central Standard Time),770090.5,022_y_f_d_a.png,O,space,1383,1,1,1911.8999999761581,768178.6000000238,7718,VNB,C,0
0,test,5,1.0,2-Back,,,Fri Dec 05 2025 13:56:42 GMT-0600 (Central Standard Time),770090.5,012_o_f_h_a.png,O,space,1383,2,1,1911.8999999761581,768178.6000000238,7718,VNB,C,0
0,test,5,1.0,2-Back,0.0,z,Fri Dec 05 2025 13:56:42 GMT-0600 (Central Standard Time),779404.1000000238,015_o_m_d_a.png,O,m,1672,3,1,2694.0,776710.1000000238,7718,VNB,C,1
0,test,5,1.0,2-Back,0.0,m,Fri Dec 05 2025 13:56:42 GMT-0600 (Central Standard Time),782018.6999999881,019_m_f_n_a.png,O,z,1583,4,1,2606.0,779412.6999999881,7718,VNB,C,2
1,test,5,0.0,2-Back,1.0,m,Fri Dec 05 2025 13:56:42 GMT-0600 (Central Standard Time),784585.6999999881,014_m_m_h_a.png,O,m,1542,5,1,2560.199999988079,782025.5,7718,VNB,C,3
2,test,5,0.0,2-Back,1.0,z,Fri Dec 05 2025 13:56:42 GMT-0600 (Central Standard Time),786635.6999999881,022_y_f_n_a.png,O,z,1022,6,1,2039.0999999642372,784596.6000000238,7718,VNB,C,4
3,test,5,0.0,2-Back,1.0,m,Fri Dec 05 2025 13:56:42 GMT-0600 (Central Standard Time),788984.0,012_o_f_d_a.png,O,m,1317,7,1,2344.100000023842,786639.8999999762,7718,VNB,C,5
4,test,5,0.0,2-Back,1.0,m,Fri Dec 05 2025 13:56:42 GMT-0600 (Central Standard Time),791918.5,015_o_m_h_a.png,O,m,1915,8,1,2926.300000011921,788992.1999999881,7718,VNB,C,6
4,test,5,1.0,2-Back,0.0,z,Fri Dec 05 2025 13:56:42 GMT-0600 (Central Standard Time),794298.8999999762,019_m_f_d_a.png,O,m,1355,9,1,2373.199999988079,791925.6999999881,7718,VNB,C,7
4,test,5,0.0,2-Back,0.0,m,Fri Dec 05 2025 13:56:42 GMT-0600 (Central Standard Time),796830.8999999762,025_y_m_n_a.png,O,z,1510,10,1,2522.099999964237,794308.8000000119,7718,VNB,C,8
4,test,5,0.0,2-Back,0.0,m,Fri Dec 05 2025 13:56:42 GMT-0600 (Central Standard Time),799814.1999999881,014_m_m_n_a.png,O,z,1962,11,1,2975.199999988079,796839.0,7718,VNB,C,9
5,test,5,0.0,2-Back,1.0,m,Fri Dec 05 2025 13:56:42 GMT-0600 (Central Standard Time),802529.8999999762,022_y_f_h_a.png,O,m,1684,12,1,2705.899999976158,799824.0,7718,VNB,C,10
6,test,5,0.0,2-Back,1.0,m,Fri Dec 05 2025 13:56:42 GMT-0600 (Central Standard Time),804745.1000000238,025_y_m_d_a.png,O,m,1183,13,1,2204.100000023842,802541.0,7718,VNB,C,11
6,test,5,1.0,2-Back,0.0,z,Fri Dec 05 2025 13:56:42 GMT-0600 (Central Standard Time),807011.6999999881,019_m_f_h_a.png,O,m,1238,14,1,2257.599999964237,804754.1000000238,7718,VNB,C,12
7,test,5,0.0,2-Back,1.0,m,Fri Dec 05 2025 13:56:42 GMT-0600 (Central Standard Time),809329.6000000238,015_o_m_n_a.png,O,m,1293,15,1,2312.5,807017.1000000238,7718,VNB,C,13
8,test,5,0.0,2-Back,1.0,m,Fri Dec 05 2025 13:56:42 GMT-0600 (Central Standard Time),811595.3000000119,014_m_m_d_a.png,O,m,1241,16,1,2255.300000011921,809340.0,7718,VNB,C,14
8,test,5,0.0,2-Back,0.0,z,Fri Dec 05 2025 13:56:42 GMT-0600 (Central Standard Time),813777.1999999881,012_o_f_n_a.png,O,m,1149,17,1,2175.899999976158,811601.3000000119,7718,VNB,C,15
8,test,5,1.0,2-Back,0.0,m,Fri Dec 05 2025 13:56:42 GMT-0600 (Central Standard Time),816809.0,025_y_m_h_a.png,O,None,2017,18,1,3024.800000011921,813784.1999999881,7718,VNB,C,16
