acc_sum,block,block_c,change,condition,correct,correct_response,datetime,endtime,face,project,response,response_time,row_sel,session_number,start_end,starttime,subject_id,task,task_vers,trial
0,prac,1,,1-Back,,,Wed Aug 14 2024 13:58:50 GMT-0500 (Central Daylight Time),,012_o_f_d_a.png,O,space,2976,1,1,,,7008,VNB,C,0
1,prac,1,0.0,1-Back,1,m,Wed Aug 14 2024 13:58:50 GMT-0500 (Central Daylight Time),169929.20000001788,022_y_f_n_a.png,O,m,1471,2,1,2374.0,167555.20000001788,7008,VNB,C,1
2,prac,1,0.0,1-Back,1,m,Wed Aug 14 2024 13:58:50 GMT-0500 (Central Daylight Time),172745.0,014_m_m_h_a.png,O,m,1933,3,1,2810.4000000059605,169934.59999999404,7008,VNB,C,2
3,prac,1,0.0,1-Back,1,m,Wed Aug 14 2024 13:58:50 GMT-0500 (Central Daylight Time),174994.0,025_y_m_d_a.png,O,m,1381,4,1,2243.199999988079,172750.80000001192,7008,VNB,C,3
3,prac,1,0.0,1-Back,0,m,Wed Aug 14 2024 13:58:50 GMT-0500 (Central Daylight Time),177893.30000001192,012_o_f_n_a.png,O,None,2017,5,1,2894.2000000178814,174999.09999999404,7008,VNB,C,4
4,prac,1,1.0,1-Back,1,z,Wed Aug 14 2024 13:58:50 GMT-0500 (Central Daylight Time),180276.0,025_y_m_n_a.png,O,z,1515,6,1,2377.5999999940395,177898.40000000596,7008,VNB,C,5
5,prac,1,0.0,1-Back,1,m,Wed Aug 14 2024 13:58:50 GMT-0500 (Central Daylight Time),182758.30000001192,015_o_m_h_a.png,O,m,1577,7,1,2476.9000000059605,180281.40000000596,7008,VNB,C,6
5,prac,1,0.0,1-Back,0,m,Wed Aug 14 2024 13:58:50 GMT-0500 (Central Daylight Time),185674.0,019_m_f_d_a.png,O,None,2017,8,1,2910.5999999940395,182763.40000000596,7008,VNB,C,7
6,prac,1,1.0,1-Back,1,z,Wed Aug 14 2024 13:58:50 GMT-0500 (Central Daylight Time),187999.59999999404,022_y_f_d_a.png,O,z,1438,9,1,2320.399999976158,185679.20000001788,7008,VNB,C,8
7,prac,1,0.0,1-Back,1,m,Wed Aug 14 2024 13:58:50 GMT-0500 (Central Daylight Time),190239.30000001192,014_m_m_n_a.png,O,m,1331,10,1,2234.0999999940395,188005.20000001788,7008,VNB,C,9
8,prac,1,0.0,1-Back,1,m,Wed Aug 14 2024 13:58:50 GMT-0500 (Central Daylight Time),192472.09999999404,012_o_f_h_a.png,O,m,1332,11,1,2227.699999988079,190244.40000000596,7008,VNB,C,10
9,prac,1,0.0,1-Back,1,m,Wed Aug 14 2024 13:58:50 GMT-0500 (Central Daylight Time),194854.5,025_y_m_d_a.png,O,m,1503,12,1,2377.199999988079,192477.30000001192,7008,VNB,C,11
0,test,1,0.0,1-Back,,,Wed Aug 14 2024 13:58:50 GMT-0500 (Central Daylight Time),194854.5,022_y_f_d_a.png,O,space,3040,1,1,2377.199999988079,192477.30000001192,7008,VNB,C,0
1,test,1,0.0,1-Back,1,m,Wed Aug 14 2024 13:58:50 GMT-0500 (Central Daylight Time),207733.90000000596,019_m_f_n_a.png,O,m,1337,2,1,2362.0999999940395,205371.80000001192,7008,VNB,C,1
2,test,1,0.0,1-Back,1,m,Wed Aug 14 2024 13:58:50 GMT-0500 (Central Daylight Time),210267.5,015_o_m_h_a.png,O,m,1508,3,1,2530.0,207737.5,7008,VNB,C,2
3,test,1,1.0,1-Back,1,z,Wed Aug 14 2024 13:58:50 GMT-0500 (Central Daylight Time),212248.90000000596,014_m_m_h_a.png,O,z,864,4,1,1977.5,210271.40000000596,7008,VNB,C,3
4,test,1,0.0,1-Back,1,m,Wed Aug 14 2024 13:58:50 GMT-0500 (Central Daylight Time),214665.0,012_o_f_n_a.png,O,m,1359,5,1,2412.5,212252.5,7008,VNB,C,4
5,test,1,0.0,1-Back,1,m,Wed Aug 14 2024 13:58:50 GMT-0500 (Central Daylight Time),217215.30000001192,025_y_m_d_a.png,O,m,1495,6,1,2547.0999999940395,214668.20000001788,7008,VNB,C,5
5,test,1,1.0,1-Back,0,z,Wed Aug 14 2024 13:58:50 GMT-0500 (Central Daylight Time),220280.30000001192,019_m_f_d_a.png,O,None,2016,7,1,3061.0999999940395,217219.20000001788,7008,VNB,C,6
6,test,1,0.0,1-Back,1,m,Wed Aug 14 2024 13:58:50 GMT-0500 (Central Daylight Time),222429.30000001192,022_y_f_h_a.png,O,m,1088,8,1,2145.800000011921,220283.5,7008,VNB,C,7
7,test,1,0.0,1-Back,1,m,Wed Aug 14 2024 13:58:50 GMT-0500 (Central Daylight Time),224395.40000000596,015_o_m_n_a.png,O,m,907,9,1,1962.5999999940395,222432.80000001192,7008,VNB,C,8
8,test,1,0.0,1-Back,1,m,Wed Aug 14 2024 13:58:50 GMT-0500 (Central Daylight Time),226377.90000000596,025_y_m_h_a.png,O,m,917,10,1,1978.9000000059605,224399.0,7008,VNB,C,9
9,test,1,0.0,1-Back,1,m,Wed Aug 14 2024 13:58:50 GMT-0500 (Central Daylight Time),228277.20000001788,015_o_m_d_a.png,O,m,838,11,1,1896.2000000178814,226381.0,7008,VNB,C,10
9,test,1,1.0,1-Back,0,z,Wed Aug 14 2024 13:58:50 GMT-0500 (Central Daylight Time),231126.40000000596,012_o_f_d_a.png,O,m,1787,12,1,2845.300000011921,228281.09999999404,7008,VNB,C,11
9,test,1,0.0,1-Back,0,m,Wed Aug 14 2024 13:58:50 GMT-0500 (Central Daylight Time),233009.09999999404,014_m_m_n_a.png,O,z,800,13,1,1878.7999999821186,231130.30000001192,7008,VNB,C,12
10,test,1,1.0,1-Back,1,z,Wed Aug 14 2024 13:58:50 GMT-0500 (Central Daylight Time),235258.5,022_y_f_n_a.png,O,z,1183,14,1,2245.5999999940395,233012.90000000596,7008,VNB,C,13
11,test,1,0.0,1-Back,1,m,Wed Aug 14 2024 13:58:50 GMT-0500 (Central Daylight Time),237307.30000001192,019_m_f_h_a.png,O,m,972,15,1,2044.7000000178814,235262.59999999404,7008,VNB,C,14
12,test,1,0.0,1-Back,1,m,Wed Aug 14 2024 13:58:50 GMT-0500 (Central Daylight Time),239207.0,014_m_m_d_a.png,O,m,844,16,1,1896.5,237310.5,7008,VNB,C,15
13,test,1,0.0,1-Back,1,m,Wed Aug 14 2024 13:58:50 GMT-0500 (Central Daylight Time),242172.90000000596,025_y_m_n_a.png,O,m,1888,17,1,2962.0999999940395,239210.80000001192,7008,VNB,C,16
14,test,1,0.0,1-Back,1,m,Wed Aug 14 2024 13:58:50 GMT-0500 (Central Daylight Time),244422.20000001788,012_o_f_h_a.png,O,m,1195,18,1,2245.300000011921,242176.90000000596,7008,VNB,C,17
0,test,2,0.0,1-Back,,,Wed Aug 14 2024 13:58:50 GMT-0500 (Central Daylight Time),244422.20000001788,025_y_m_n_a.png,O,space,2587,1,1,2245.300000011921,242176.90000000596,7008,VNB,C,0
1,test,2,0.0,1-Back,1,m,Wed Aug 14 2024 13:58:50 GMT-0500 (Central Daylight Time),251303.09999999404,022_y_f_h_a.png,O,m,1243,2,1,2262.5,249040.59999999404,7008,VNB,C,1
2,test,2,1.0,1-Back,1,m,Wed Aug 14 2024 13:58:50 GMT-0500 (Central Daylight Time),253269.40000000596,015_o_m_n_a.png,O,m,946,3,1,1962.5,251306.90000000596,7008,VNB,C,2
3,test,2,0.0,1-Back,1,m,Wed Aug 14 2024 13:58:50 GMT-0500 (Central Daylight Time),255686.20000001788,019_m_f_d_a.png,O,m,1395,4,1,2413.7000000178814,253272.5,7008,VNB,C,3
3,test,2,0.0,1-Back,0,z,Wed Aug 14 2024 13:58:50 GMT-0500 (Central Daylight Time),258720.5,014_m_m_d_a.png,O,None,2018,5,1,3030.7999999821186,255689.70000001788,7008,VNB,C,4
4,test,2,0.0,1-Back,1,m,Wed Aug 14 2024 13:58:50 GMT-0500 (Central Daylight Time),260683.59999999404,025_y_m_h_a.png,O,m,940,6,1,1959.199999988079,258724.40000000596,7008,VNB,C,5
5,test,2,1.0,1-Back,1,z,Wed Aug 14 2024 13:58:50 GMT-0500 (Central Daylight Time),262466.59999999404,012_o_f_h_a.png,O,z,756,7,1,1779.699999988079,260686.90000000596,7008,VNB,C,6
6,test,2,0.0,1-Back,1,m,Wed Aug 14 2024 13:58:50 GMT-0500 (Central Daylight Time),264382.7000000179,019_m_f_n_a.png,O,m,887,8,1,1912.300000011921,262470.40000000596,7008,VNB,C,7
7,test,2,0.0,1-Back,1,m,Wed Aug 14 2024 13:58:50 GMT-0500 (Central Daylight Time),266348.8000000119,022_y_f_d_a.png,O,m,913,9,1,1962.0,264386.8000000119,7008,VNB,C,8
8,test,2,0.0,1-Back,1,m,Wed Aug 14 2024 13:58:50 GMT-0500 (Central Daylight Time),268414.8000000119,014_m_m_n_a.png,O,m,1003,10,1,2062.0999999940395,266352.7000000179,7008,VNB,C,9
9,test,2,1.0,1-Back,1,m,Wed Aug 14 2024 13:58:50 GMT-0500 (Central Daylight Time),270714.0,019_m_f_h_a.png,O,m,1249,11,1,2295.9000000059605,268418.09999999404,7008,VNB,C,10
10,test,2,0.0,1-Back,1,z,Wed Aug 14 2024 13:58:50 GMT-0500 (Central Daylight Time),272630.0,015_o_m_h_a.png,O,z,846,12,1,1912.5,270717.5,7008,VNB,C,11
11,test,2,0.0,1-Back,1,m,Wed Aug 14 2024 13:58:50 GMT-0500 (Central Daylight Time),274412.7000000179,025_y_m_d_a.png,O,m,730,13,1,1779.1000000238419,272633.59999999404,7008,VNB,C,12
12,test,2,0.0,1-Back,1,m,Wed Aug 14 2024 13:58:50 GMT-0500 (Central Daylight Time),276495.59999999404,012_o_f_n_a.png,O,m,1027,14,1,2079.0,274416.59999999404,7008,VNB,C,13
13,test,2,0.0,1-Back,1,z,Wed Aug 14 2024 13:58:50 GMT-0500 (Central Daylight Time),278694.8000000119,022_y_f_n_a.png,O,z,1145,15,1,2195.300000011921,276499.5,7008,VNB,C,14
14,test,2,1.0,1-Back,1,m,Wed Aug 14 2024 13:58:50 GMT-0500 (Central Daylight Time),280594.3000000119,014_m_m_h_a.png,O,m,841,16,1,1895.9000000059605,278698.40000000596,7008,VNB,C,15
15,test,2,0.0,1-Back,1,m,Wed Aug 14 2024 13:58:50 GMT-0500 (Central Daylight Time),282493.5,012_o_f_d_a.png,O,m,838,17,1,1895.2999999821186,280598.2000000179,7008,VNB,C,16
16,test,2,1.0,1-Back,1,z,Wed Aug 14 2024 13:58:50 GMT-0500 (Central Daylight Time),284692.90000000596,015_o_m_d_a.png,O,z,1138,18,1,2196.0999999940395,282496.8000000119,7008,VNB,C,17
0,test,3,1.0,1-Back,,,Wed Aug 14 2024 13:58:50 GMT-0500 (Central Daylight Time),284692.90000000596,012_o_f_h_a.png,O,space,3052,1,1,2196.0999999940395,282496.8000000119,7008,VNB,C,0
1,test,3,0.0,1-Back,1,m,Wed Aug 14 2024 13:58:50 GMT-0500 (Central Daylight Time),291874.0,019_m_f_d_a.png,O,m,983,2,1,1995.5999999940395,289878.40000000596,7008,VNB,C,1
2,test,3,1.0,1-Back,1,m,Wed Aug 14 2024 13:58:50 GMT-0500 (Central Daylight Time),293973.3000000119,014_m_m_n_a.png,O,m,1072,3,1,2095.800000011921,291877.5,7008,VNB,C,2
3,test,3,0.0,1-Back,1,z,Wed Aug 14 2024 13:58:50 GMT-0500 (Central Daylight Time),296074.0,012_o_f_n_a.png,O,z,1076,4,1,2096.5,293977.5,7008,VNB,C,3
4,test,3,1.0,1-Back,1,m,Wed Aug 14 2024 13:58:50 GMT-0500 (Central Daylight Time),298338.40000000596,015_o_m_d_a.png,O,m,1249,5,1,2260.699999988079,296077.7000000179,7008,VNB,C,4
5,test,3,0.0,1-Back,1,m,Wed Aug 14 2024 13:58:50 GMT-0500 (Central Daylight Time),300588.09999999404,022_y_f_h_a.png,O,m,1223,6,1,2246.5999999940395,298341.5,7008,VNB,C,5
6,test,3,0.0,1-Back,1,z,Wed Aug 14 2024 13:58:50 GMT-0500 (Central Daylight Time),302287.3000000119,025_y_m_h_a.png,O,z,678,7,1,1696.2000000178814,300591.09999999404,7008,VNB,C,6
7,test,3,0.0,1-Back,1,m,Wed Aug 14 2024 13:58:50 GMT-0500 (Central Daylight Time),304220.0,019_m_f_n_a.png,O,m,906,8,1,1928.7999999821186,302291.2000000179,7008,VNB,C,7
8,test,3,0.0,1-Back,1,m,Wed Aug 14 2024 13:58:50 GMT-0500 (Central Daylight Time),306119.59999999404,022_y_f_d_a.png,O,m,869,9,1,1896.2999999821186,304223.3000000119,7008,VNB,C,8
9,test,3,1.0,1-Back,1,m,Wed Aug 14 2024 13:58:50 GMT-0500 (Central Daylight Time),308152.09999999404,015_o_m_n_a.png,O,m,1002,10,1,2029.3999999761581,306122.7000000179,7008,VNB,C,9
10,test,3,0.0,1-Back,1,m,Wed Aug 14 2024 13:58:50 GMT-0500 (Central Daylight Time),310068.2000000179,014_m_m_h_a.png,O,m,889,11,1,1912.800000011921,308155.40000000596,7008,VNB,C,10
11,test,3,0.0,1-Back,1,z,Wed Aug 14 2024 13:58:50 GMT-0500 (Central Daylight Time),311784.3000000119,019_m_f_h_a.png,O,z,685,12,1,1712.5,310071.8000000119,7008,VNB,C,11
12,test,3,1.0,1-Back,1,m,Wed Aug 14 2024 13:58:50 GMT-0500 (Central Daylight Time),314266.8000000119,012_o_f_d_a.png,O,m,1465,13,1,2479.300000011921,311787.5,7008,VNB,C,12
13,test,3,0.0,1-Back,1,z,Wed Aug 14 2024 13:58:50 GMT-0500 (Central Daylight Time),316982.8000000119,014_m_m_d_a.png,O,z,1686,14,1,2713.0999999940395,314269.7000000179,7008,VNB,C,13
14,test,3,0.0,1-Back,1,m,Wed Aug 14 2024 13:58:50 GMT-0500 (Central Daylight Time),318765.59999999404,025_y_m_n_a.png,O,m,755,15,1,1779.0999999940395,316986.5,7008,VNB,C,14
15,test,3,1.0,1-Back,1,m,Wed Aug 14 2024 13:58:50 GMT-0500 (Central Daylight Time),320864.8000000119,015_o_m_h_a.png,O,m,1076,16,1,2095.5999999940395,318769.2000000179,7008,VNB,C,15
16,test,3,0.0,1-Back,1,m,Wed Aug 14 2024 13:58:50 GMT-0500 (Central Daylight Time),322647.7000000179,025_y_m_d_a.png,O,m,752,17,1,1779.300000011921,320868.40000000596,7008,VNB,C,16
17,test,3,1.0,1-Back,1,m,Wed Aug 14 2024 13:58:50 GMT-0500 (Central Daylight Time),324748.09999999404,022_y_f_n_a.png,O,m,1074,18,1,2097.199999988079,322650.90000000596,7008,VNB,C,17
0,test,4,1.0,1-Back,,,Wed Aug 14 2024 13:58:50 GMT-0500 (Central Daylight Time),324748.09999999404,014_m_m_d_a.png,O,space,2069,1,1,2097.199999988079,322650.90000000596,7008,VNB,C,0
1,test,4,0.0,1-Back,1,z,Wed Aug 14 2024 13:58:50 GMT-0500 (Central Daylight Time),330828.3000000119,015_o_m_d_a.png,O,z,856,2,1,1878.9000000059605,328949.40000000596,7008,VNB,C,1
2,test,4,0.0,1-Back,1,m,Wed Aug 14 2024 13:58:50 GMT-0500 (Central Daylight Time),332644.40000000596,025_y_m_h_a.png,O,m,797,3,1,1812.0999999940395,330832.3000000119,7008,VNB,C,2
3,test,4,0.0,1-Back,1,m,Wed Aug 14 2024 13:58:50 GMT-0500 (Central Daylight Time),334577.2000000179,019_m_f_n_a.png,O,m,909,4,1,1927.5,332649.7000000179,7008,VNB,C,3
4,test,4,1.0,1-Back,1,m,Wed Aug 14 2024 13:58:50 GMT-0500 (Central Daylight Time),336459.7000000179,012_o_f_h_a.png,O,m,856,5,1,1878.7000000178814,334581.0,7008,VNB,C,4
5,test,4,0.0,1-Back,1,m,Wed Aug 14 2024 13:58:50 GMT-0500 (Central Daylight Time),338326.0,014_m_m_n_a.png,O,m,845,6,1,1862.9000000059605,336463.09999999404,7008,VNB,C,5
6,test,4,0.0,1-Back,1,m,Wed Aug 14 2024 13:58:50 GMT-0500 (Central Daylight Time),340175.40000000596,025_y_m_d_a.png,O,m,827,7,1,1846.4000000059605,338329.0,7008,VNB,C,6
7,test,4,1.0,1-Back,1,z,Wed Aug 14 2024 13:58:50 GMT-0500 (Central Daylight Time),342191.40000000596,022_y_f_d_a.png,O,z,994,8,1,2012.199999988079,340179.2000000179,7008,VNB,C,7
8,test,4,0.0,1-Back,1,m,Wed Aug 14 2024 13:58:50 GMT-0500 (Central Daylight Time),343807.7000000179,019_m_f_h_a.png,O,m,586,9,1,1612.800000011921,342194.90000000596,7008,VNB,C,8
9,test,4,0.0,1-Back,1,z,Wed Aug 14 2024 13:58:50 GMT-0500 (Central Daylight Time),345690.40000000596,015_o_m_h_a.png,O,z,849,10,1,1879.5,343810.90000000596,7008,VNB,C,9
10,test,4,1.0,1-Back,1,m,Wed Aug 14 2024 13:58:50 GMT-0500 (Central Daylight Time),347406.7000000179,012_o_f_n_a.png,O,m,695,11,1,1712.6000000238419,345694.09999999404,7008,VNB,C,10
11,test,4,0.0,1-Back,1,m,Wed Aug 14 2024 13:58:50 GMT-0500 (Central Daylight Time),349489.5,019_m_f_d_a.png,O,m,1051,12,1,2079.5,347410.0,7008,VNB,C,11
12,test,4,0.0,1-Back,1,m,Wed Aug 14 2024 13:58:50 GMT-0500 (Central Daylight Time),351522.2000000179,022_y_f_n_a.png,O,m,1016,13,1,2029.1000000238419,349493.09999999404,7008,VNB,C,12
13,test,4,0.0,1-Back,1,m,Wed Aug 14 2024 13:58:50 GMT-0500 (Central Daylight Time),353521.09999999404,012_o_f_d_a.png,O,m,861,14,1,1995.199999988079,351525.90000000596,7008,VNB,C,13
14,test,4,0.0,1-Back,1,m,Wed Aug 14 2024 13:58:50 GMT-0500 (Central Daylight Time),355287.40000000596,022_y_f_h_a.png,O,m,744,15,1,1762.5,353524.90000000596,7008,VNB,C,14
15,test,4,1.0,1-Back,1,z,Wed Aug 14 2024 13:58:50 GMT-0500 (Central Daylight Time),356953.40000000596,014_m_m_h_a.png,O,z,634,16,1,1663.0,355290.40000000596,7008,VNB,C,15
16,test,4,0.0,1-Back,1,m,Wed Aug 14 2024 13:58:50 GMT-0500 (Central Daylight Time),358786.2000000179,015_o_m_n_a.png,O,m,816,17,1,1829.6000000238419,356956.59999999404,7008,VNB,C,16
17,test,4,1.0,1-Back,1,z,Wed Aug 14 2024 13:58:50 GMT-0500 (Central Daylight Time),360769.0,025_y_m_n_a.png,O,z,959,18,1,1979.699999988079,358789.3000000119,7008,VNB,C,17
0,test,5,1.0,1-Back,,,Wed Aug 14 2024 13:58:50 GMT-0500 (Central Daylight Time),360769.0,015_o_m_n_a.png,O,space,3128,1,1,1979.699999988079,358789.3000000119,7008,VNB,C,0
1,test,5,1.0,1-Back,1,m,Wed Aug 14 2024 13:58:50 GMT-0500 (Central Daylight Time),367916.8000000119,012_o_f_h_a.png,O,m,980,2,1,1996.300000011921,365920.5,7008,VNB,C,1
2,test,5,0.0,1-Back,1,m,Wed Aug 14 2024 13:58:50 GMT-0500 (Central Daylight Time),370315.90000000596,025_y_m_d_a.png,O,m,1381,3,1,2395.699999988079,367920.2000000179,7008,VNB,C,2
3,test,5,0.0,1-Back,1,z,Wed Aug 14 2024 13:58:50 GMT-0500 (Central Daylight Time),372348.8000000119,015_o_m_d_a.png,O,z,1005,4,1,2029.800000011921,370319.0,7008,VNB,C,3
4,test,5,0.0,1-Back,1,m,Wed Aug 14 2024 13:58:50 GMT-0500 (Central Daylight Time),374098.2000000179,019_m_f_h_a.png,O,m,725,5,1,1746.300000011921,372351.90000000596,7008,VNB,C,4
5,test,5,0.0,1-Back,1,m,Wed Aug 14 2024 13:58:50 GMT-0500 (Central Daylight Time),376341.7000000179,022_y_f_n_a.png,O,m,1080,6,1,2240.300000011921,374101.40000000596,7008,VNB,C,5
6,test,5,1.0,1-Back,1,z,Wed Aug 14 2024 13:58:50 GMT-0500 (Central Daylight Time),379029.90000000596,012_o_f_n_a.png,O,z,1671,7,1,2685.0999999940395,376344.8000000119,7008,VNB,C,6
7,test,5,0.0,1-Back,1,m,Wed Aug 14 2024 13:58:50 GMT-0500 (Central Daylight Time),380729.59999999404,019_m_f_d_a.png,O,m,667,8,1,1695.7999999821186,379033.8000000119,7008,VNB,C,7
8,test,5,0.0,1-Back,1,m,Wed Aug 14 2024 13:58:50 GMT-0500 (Central Daylight Time),382679.0,025_y_m_h_a.png,O,m,920,9,1,1946.4000000059605,380732.59999999404,7008,VNB,C,8
9,test,5,0.0,1-Back,1,m,Wed Aug 14 2024 13:58:50 GMT-0500 (Central Daylight Time),384511.59999999404,022_y_f_d_a.png,O,m,811,10,1,1829.0999999940395,382682.5,7008,VNB,C,9
10,test,5,0.0,1-Back,1,m,Wed Aug 14 2024 13:58:50 GMT-0500 (Central Daylight Time),386344.2000000179,014_m_m_n_a.png,O,m,810,11,1,1829.0,384515.2000000179,7008,VNB,C,10
11,test,5,1.0,1-Back,1,z,Wed Aug 14 2024 13:58:50 GMT-0500 (Central Daylight Time),388527.0,019_m_f_n_a.png,O,z,1161,12,1,2179.699999988079,386347.3000000119,7008,VNB,C,11
12,test,5,0.0,1-Back,1,m,Wed Aug 14 2024 13:58:50 GMT-0500 (Central Daylight Time),390109.8000000119,015_o_m_h_a.png,O,m,554,13,1,1579.5,388530.3000000119,7008,VNB,C,12
13,test,5,0.0,1-Back,1,z,Wed Aug 14 2024 13:58:50 GMT-0500 (Central Daylight Time),391809.2000000179,014_m_m_h_a.png,O,z,667,14,1,1696.5,390112.7000000179,7008,VNB,C,13
14,test,5,1.0,1-Back,1,m,Wed Aug 14 2024 13:58:50 GMT-0500 (Central Daylight Time),393608.3000000119,012_o_f_d_a.png,O,m,775,15,1,1795.300000011921,391813.0,7008,VNB,C,14
15,test,5,0.0,1-Back,1,m,Wed Aug 14 2024 13:58:50 GMT-0500 (Central Daylight Time),395441.7000000179,025_y_m_n_a.png,O,m,801,16,1,1830.300000011921,393611.40000000596,7008,VNB,C,15
16,test,5,0.0,1-Back,1,m,Wed Aug 14 2024 13:58:50 GMT-0500 (Central Daylight Time),397340.8000000119,022_y_f_h_a.png,O,m,880,17,1,1895.300000011921,395445.5,7008,VNB,C,16
17,test,5,0.0,1-Back,1,m,Wed Aug 14 2024 13:58:50 GMT-0500 (Central Daylight Time),399273.59999999404,014_m_m_d_a.png,O,m,901,18,1,1929.5,397344.09999999404,7008,VNB,C,17
0,prac,1,0.0,2-Back,,,Wed Aug 14 2024 13:58:50 GMT-0500 (Central Daylight Time),399273.59999999404,019_m_f_n_a.png,O,space,3184,1,1,1929.5,397344.09999999404,7008,VNB,C,0
0,prac,1,0.0,2-Back,,,Wed Aug 14 2024 13:58:50 GMT-0500 (Central Daylight Time),399273.59999999404,012_o_f_h_a.png,O,space,3184,2,1,1929.5,397344.09999999404,7008,VNB,C,0
1,prac,1,0.0,2-Back,1,m,Wed Aug 14 2024 13:58:50 GMT-0500 (Central Daylight Time),505690.2000000179,015_o_m_d_a.png,O,m,1533,3,1,2427.100000023842,503263.09999999404,7008,VNB,C,1
2,prac,1,1.0,2-Back,1,z,Wed Aug 14 2024 13:58:50 GMT-0500 (Central Daylight Time),507573.0,014_m_m_h_a.png,O,z,1012,4,1,1877.4000000059605,505695.59999999404,7008,VNB,C,2
3,prac,1,0.0,2-Back,1,m,Wed Aug 14 2024 13:58:50 GMT-0500 (Central Daylight Time),509705.59999999404,022_y_f_n_a.png,O,m,1244,5,1,2127.5,507578.09999999404,7008,VNB,C,3
4,prac,1,1.0,2-Back,1,z,Wed Aug 14 2024 13:58:50 GMT-0500 (Central Daylight Time),511755.2000000179,015_o_m_h_a.png,O,z,1157,6,1,2044.4000000059605,509710.8000000119,7008,VNB,C,4
5,prac,1,1.0,2-Back,1,z,Wed Aug 14 2024 13:58:50 GMT-0500 (Central Daylight Time),513904.2000000179,025_y_m_n_a.png,O,z,1286,7,1,2144.100000023842,511760.09999999404,7008,VNB,C,5
6,prac,1,0.0,2-Back,1,m,Wed Aug 14 2024 13:58:50 GMT-0500 (Central Daylight Time),516153.40000000596,019_m_f_d_a.png,O,m,1351,8,1,2244.699999988079,513908.7000000179,7008,VNB,C,6
7,prac,1,0.0,2-Back,1,m,Wed Aug 14 2024 13:58:50 GMT-0500 (Central Daylight Time),518936.0,012_o_f_d_a.png,O,m,1859,9,1,2775.0,516161.0,7008,VNB,C,7
7,prac,1,0.0,2-Back,0,m,Wed Aug 14 2024 13:58:50 GMT-0500 (Central Daylight Time),520868.90000000596,014_m_m_h_a.png,O,z,1157,10,1,1928.0,518940.90000000596,7008,VNB,C,8
8,prac,1,1.0,2-Back,1,z,Wed Aug 14 2024 13:58:50 GMT-0500 (Central Daylight Time),523001.59999999404,022_y_f_d_a.png,O,z,1241,11,1,2126.0999999940395,520875.5,7008,VNB,C,9
9,prac,1,0.0,2-Back,1,m,Wed Aug 14 2024 13:58:50 GMT-0500 (Central Daylight Time),524967.599999994,015_o_m_n_a.png,O,m,1061,12,1,1960.8999999761581,523006.7000000179,7008,VNB,C,10
0,test,1,0.0,2-Back,,,Wed Aug 14 2024 13:58:50 GMT-0500 (Central Daylight Time),524967.599999994,025_y_m_h_a.png,O,space,12999,1,1,1960.8999999761581,523006.7000000179,7008,VNB,C,0
0,test,1,0.0,2-Back,,,Wed Aug 14 2024 13:58:50 GMT-0500 (Central Daylight Time),524967.599999994,012_o_f_n_a.png,O,space,12999,2,1,1960.8999999761581,523006.7000000179,7008,VNB,C,0
1,test,1,0.0,2-Back,1,z,Wed Aug 14 2024 13:58:50 GMT-0500 (Central Daylight Time),551242.7000000179,015_o_m_h_a.png,O,z,1057,3,1,2079.5,549163.2000000179,7008,VNB,C,1
2,test,1,0.0,2-Back,1,m,Wed Aug 14 2024 13:58:50 GMT-0500 (Central Daylight Time),553791.900000006,019_m_f_d_a.png,O,m,1485,4,1,2545.5999999940395,551246.3000000119,7008,VNB,C,2
2,test,1,1.0,2-Back,0,m,Wed Aug 14 2024 13:58:50 GMT-0500 (Central Daylight Time),556224.3000000119,025_y_m_n_a.png,O,z,1410,5,1,2429.2000000178814,553795.099999994,7008,VNB,C,3
3,test,1,0.0,2-Back,1,z,Wed Aug 14 2024 13:58:50 GMT-0500 (Central Daylight Time),558524.400000006,022_y_f_d_a.png,O,z,1281,6,1,2297.199999988079,556227.2000000179,7008,VNB,C,4
4,test,1,0.0,2-Back,1,m,Wed Aug 14 2024 13:58:50 GMT-0500 (Central Daylight Time),561122.599999994,014_m_m_h_a.png,O,m,1573,7,1,2594.699999988079,558527.900000006,7008,VNB,C,5
4,test,1,1.0,2-Back,0,m,Wed Aug 14 2024 13:58:50 GMT-0500 (Central Daylight Time),563672.099999994,022_y_f_n_a.png,O,z,1518,8,1,2546.5,561125.599999994,7008,VNB,C,6
5,test,1,0.0,2-Back,1,z,Wed Aug 14 2024 13:58:50 GMT-0500 (Central Daylight Time),565987.7000000179,012_o_f_h_a.png,O,z,1285,9,1,2312.300000011921,563675.400000006,7008,VNB,C,7
6,test,1,0.0,2-Back,1,m,Wed Aug 14 2024 13:58:50 GMT-0500 (Central Daylight Time),568670.3000000119,015_o_m_d_a.png,O,m,1661,10,1,2678.9000000059605,565991.400000006,7008,VNB,C,8
6,test,1,1.0,2-Back,0,m,Wed Aug 14 2024 13:58:50 GMT-0500 (Central Daylight Time),571703.400000006,014_m_m_d_a.png,O,None,2016,11,1,3030.0999999940395,568673.3000000119,7008,VNB,C,9
6,test,1,0.0,2-Back,0,m,Wed Aug 14 2024 13:58:50 GMT-0500 (Central Daylight Time),574168.8000000119,019_m_f_n_a.png,O,z,1435,12,1,2462.2000000178814,571706.599999994,7008,VNB,C,10
7,test,1,0.0,2-Back,1,m,Wed Aug 14 2024 13:58:50 GMT-0500 (Central Daylight Time),576968.099999994,022_y_f_h_a.png,O,m,1769,13,1,2795.899999976158,574172.2000000179,7008,VNB,C,11
8,test,1,0.0,2-Back,1,z,Wed Aug 14 2024 13:58:50 GMT-0500 (Central Daylight Time),579183.8000000119,014_m_m_n_a.png,O,z,1186,14,1,2212.5,576971.3000000119,7008,VNB,C,12
9,test,1,0.0,2-Back,1,m,Wed Aug 14 2024 13:58:50 GMT-0500 (Central Daylight Time),581666.2000000179,025_y_m_d_a.png,O,m,1465,15,1,2479.2000000178814,579187.0,7008,VNB,C,13
9,test,1,1.0,2-Back,0,m,Wed Aug 14 2024 13:58:50 GMT-0500 (Central Daylight Time),583465.7000000179,019_m_f_h_a.png,O,z,767,16,1,1796.6000000238419,581669.099999994,7008,VNB,C,14
10,test,1,0.0,2-Back,1,z,Wed Aug 14 2024 13:58:50 GMT-0500 (Central Daylight Time),585898.3000000119,012_o_f_d_a.png,O,z,1407,17,1,2429.0,583469.3000000119,7008,VNB,C,15
11,test,1,0.0,2-Back,1,m,Wed Aug 14 2024 13:58:50 GMT-0500 (Central Daylight Time),588240.0,015_o_m_n_a.png,O,m,1325,18,1,2338.0999999940395,585901.900000006,7008,VNB,C,16
0,test,2,0.0,2-Back,,,Wed Aug 14 2024 13:58:50 GMT-0500 (Central Daylight Time),588240.0,014_m_m_h_a.png,O,space,4657,1,1,2338.0999999940395,585901.900000006,7008,VNB,C,0
0,test,2,0.0,2-Back,,,Wed Aug 14 2024 13:58:50 GMT-0500 (Central Daylight Time),588240.0,022_y_f_n_a.png,O,space,4657,2,1,2338.0999999940395,585901.900000006,7008,VNB,C,0
1,test,2,1.0,2-Back,1,z,Wed Aug 14 2024 13:58:50 GMT-0500 (Central Daylight Time),600260.5,012_o_f_h_a.png,O,z,1056,3,1,2078.9000000059605,598181.599999994,7008,VNB,C,1
2,test,2,0.0,2-Back,1,m,Wed Aug 14 2024 13:58:50 GMT-0500 (Central Daylight Time),602443.0,015_o_m_d_a.png,O,m,1165,4,1,2178.7999999821186,600264.2000000179,7008,VNB,C,2
3,test,2,0.0,2-Back,1,m,Wed Aug 14 2024 13:58:50 GMT-0500 (Central Daylight Time),605275.599999994,019_m_f_d_a.png,O,m,1814,5,1,2829.2999999821186,602446.3000000119,7008,VNB,C,3
3,test,2,0.0,2-Back,0,m,Wed Aug 14 2024 13:58:50 GMT-0500 (Central Daylight Time),607541.5,025_y_m_h_a.png,O,z,1238,6,1,2262.5,605279.0,7008,VNB,C,4
4,test,2,0.0,2-Back,1,m,Wed Aug 14 2024 13:58:50 GMT-0500 (Central Daylight Time),609807.3000000119,012_o_f_n_a.png,O,m,1244,7,1,2262.300000011921,607545.0,7008,VNB,C,5
4,test,2,1.0,2-Back,0,z,Wed Aug 14 2024 13:58:50 GMT-0500 (Central Daylight Time),611942.7000000179,015_o_m_h_a.png,O,m,1114,8,1,2131.800000011921,609810.900000006,7008,VNB,C,6
4,test,2,0.0,2-Back,0,m,Wed Aug 14 2024 13:58:50 GMT-0500 (Central Daylight Time),614589.2000000179,022_y_f_d_a.png,O,z,1621,9,1,2643.300000011921,611945.900000006,7008,VNB,C,7
5,test,2,0.0,2-Back,1,m,Wed Aug 14 2024 13:58:50 GMT-0500 (Central Daylight Time),616605.2000000179,025_y_m_d_a.png,O,m,988,10,1,2012.800000011921,614592.400000006,7008,VNB,C,8
5,test,2,0.0,2-Back,0,m,Wed Aug 14 2024 13:58:50 GMT-0500 (Central Daylight Time),618671.2000000179,014_m_m_n_a.png,O,z,1036,11,1,2063.100000023842,616608.099999994,7008,VNB,C,9
5,test,2,0.0,2-Back,0,m,Wed Aug 14 2024 13:58:50 GMT-0500 (Central Daylight Time),620837.400000006,019_m_f_h_a.png,O,z,1138,12,1,2162.5999999940395,618674.8000000119,7008,VNB,C,10
5,test,2,1.0,2-Back,0,z,Wed Aug 14 2024 13:58:50 GMT-0500 (Central Daylight Time),622786.5,015_o_m_n_a.png,O,m,932,13,1,1945.5999999940395,620840.900000006,7008,VNB,C,11
5,test,2,0.0,2-Back,0,m,Wed Aug 14 2024 13:58:50 GMT-0500 (Central Daylight Time),624852.7000000179,012_o_f_d_a.png,O,z,1047,14,1,2062.9000000059605,622789.8000000119,7008,VNB,C,12
6,test,2,0.0,2-Back,1,m,Wed Aug 14 2024 13:58:50 GMT-0500 (Central Daylight Time),626885.400000006,022_y_f_h_a.png,O,m,1005,15,1,2029.300000011921,624856.099999994,7008,VNB,C,13
6,test,2,0.0,2-Back,0,z,Wed Aug 14 2024 13:58:50 GMT-0500 (Central Daylight Time),629201.599999994,014_m_m_d_a.png,O,m,1284,16,1,2312.5999999940395,626889.0,7008,VNB,C,14
7,test,2,0.0,2-Back,1,m,Wed Aug 14 2024 13:58:50 GMT-0500 (Central Daylight Time),631634.099999994,025_y_m_n_a.png,O,m,1400,17,1,2429.5999999940395,629204.5,7008,VNB,C,15
8,test,2,1.0,2-Back,1,m,Wed Aug 14 2024 13:58:50 GMT-0500 (Central Daylight Time),633833.5,019_m_f_n_a.png,O,m,1167,18,1,2196.199999988079,631637.3000000119,7008,VNB,C,16
0,test,3,1.0,2-Back,,,Wed Aug 14 2024 13:58:50 GMT-0500 (Central Daylight Time),633833.5,015_o_m_n_a.png,O,space,1687,1,1,2196.199999988079,631637.3000000119,7008,VNB,C,0
0,test,3,1.0,2-Back,,,Wed Aug 14 2024 13:58:50 GMT-0500 (Central Daylight Time),633833.5,012_o_f_d_a.png,O,space,1687,2,1,2196.199999988079,631637.3000000119,7008,VNB,C,0
1,test,3,0.0,2-Back,1,m,Wed Aug 14 2024 13:58:50 GMT-0500 (Central Daylight Time),643030.5,022_y_f_h_a.png,O,m,1212,3,1,2229.199999988079,640801.3000000119,7008,VNB,C,1
2,test,3,0.0,2-Back,1,z,Wed Aug 14 2024 13:58:50 GMT-0500 (Central Daylight Time),645213.099999994,019_m_f_d_a.png,O,z,1155,4,1,2179.5,643033.599999994,7008,VNB,C,2
3,test,3,1.0,2-Back,1,m,Wed Aug 14 2024 13:58:50 GMT-0500 (Central Daylight Time),647978.8000000119,025_y_m_n_a.png,O,m,1740,5,1,2762.5,645216.3000000119,7008,VNB,C,3
3,test,3,0.0,2-Back,0,m,Wed Aug 14 2024 13:58:50 GMT-0500 (Central Daylight Time),650544.400000006,015_o_m_h_a.png,O,z,1535,6,1,2562.0,647982.400000006,7008,VNB,C,4
4,test,3,0.0,2-Back,1,z,Wed Aug 14 2024 13:58:50 GMT-0500 (Central Daylight Time),653210.400000006,022_y_f_n_a.png,O,z,1633,7,1,2662.5999999940395,650547.8000000119,7008,VNB,C,5
5,test,3,1.0,2-Back,1,m,Wed Aug 14 2024 13:58:50 GMT-0500 (Central Daylight Time),655326.5,014_m_m_d_a.png,O,m,1087,8,1,2112.2999999821186,653214.2000000179,7008,VNB,C,6
5,test,3,0.0,2-Back,0,m,Wed Aug 14 2024 13:58:50 GMT-0500 (Central Daylight Time),657609.099999994,025_y_m_d_a.png,O,z,1251,9,1,2279.699999988079,655329.400000006,7008,VNB,C,7
6,test,3,0.0,2-Back,1,m,Wed Aug 14 2024 13:58:50 GMT-0500 (Central Daylight Time),659925.0,012_o_f_h_a.png,O,m,1187,10,1,2312.0999999940395,657612.900000006,7008,VNB,C,8
6,test,3,1.0,2-Back,0,m,Wed Aug 14 2024 13:58:50 GMT-0500 (Central Daylight Time),662958.0,019_m_f_n_a.png,O,None,2016,11,1,3029.4000000059605,659928.599999994,7008,VNB,C,9
7,test,3,1.0,2-Back,1,z,Wed Aug 14 2024 13:58:50 GMT-0500 (Central Daylight Time),664740.2000000179,014_m_m_h_a.png,O,z,756,12,1,1779.5,662960.7000000179,7008,VNB,C,10
7,test,3,0.0,2-Back,0,m,Wed Aug 14 2024 13:58:50 GMT-0500 (Central Daylight Time),667306.2000000179,022_y_f_d_a.png,O,z,1549,13,1,2562.300000011921,664743.900000006,7008,VNB,C,11
8,test,3,0.0,2-Back,1,m,Wed Aug 14 2024 13:58:50 GMT-0500 (Central Daylight Time),669455.400000006,012_o_f_n_a.png,O,m,1119,14,1,2146.199999988079,667309.2000000179,7008,VNB,C,12
8,test,3,0.0,2-Back,0,z,Wed Aug 14 2024 13:58:50 GMT-0500 (Central Daylight Time),672488.0,015_o_m_d_a.png,O,None,2016,15,1,3029.0,669459.0,7008,VNB,C,13
8,test,3,1.0,2-Back,0,m,Wed Aug 14 2024 13:58:50 GMT-0500 (Central Daylight Time),674287.0,019_m_f_h_a.png,O,z,770,16,1,1795.2999999821186,672491.7000000179,7008,VNB,C,14
9,test,3,0.0,2-Back,1,m,Wed Aug 14 2024 13:58:50 GMT-0500 (Central Daylight Time),676236.599999994,014_m_m_n_a.png,O,m,922,17,1,1946.2999999821186,674290.3000000119,7008,VNB,C,15
10,test,3,0.0,2-Back,1,z,Wed Aug 14 2024 13:58:50 GMT-0500 (Central Daylight Time),678452.599999994,025_y_m_h_a.png,O,z,1197,18,1,2212.5,676240.099999994,7008,VNB,C,16
0,test,4,0.0,2-Back,,,Wed Aug 14 2024 13:58:50 GMT-0500 (Central Daylight Time),678452.599999994,019_m_f_n_a.png,O,space,3067,1,1,2212.5,676240.099999994,7008,VNB,C,0
0,test,4,0.0,2-Back,,,Wed Aug 14 2024 13:58:50 GMT-0500 (Central Daylight Time),678452.599999994,015_o_m_n_a.png,O,space,3067,2,1,2212.5,676240.099999994,7008,VNB,C,0
1,test,4,1.0,2-Back,1,m,Wed Aug 14 2024 13:58:50 GMT-0500 (Central Daylight Time),688867.099999994,025_y_m_h_a.png,O,m,1000,3,1,2030.0999999940395,686837.0,7008,VNB,C,1
2,test,4,1.0,2-Back,1,m,Wed Aug 14 2024 13:58:50 GMT-0500 (Central Daylight Time),691315.099999994,012_o_f_d_a.png,O,m,1423,4,1,2444.7999999821186,688870.3000000119,7008,VNB,C,2
3,test,4,0.0,2-Back,1,z,Wed Aug 14 2024 13:58:50 GMT-0500 (Central Daylight Time),693397.900000006,015_o_m_h_a.png,O,z,1053,5,1,2079.4000000059605,691318.5,7008,VNB,C,3
4,test,4,0.0,2-Back,1,m,Wed Aug 14 2024 13:58:50 GMT-0500 (Central Daylight Time),695397.3000000119,014_m_m_n_a.png,O,m,971,6,1,1996.0999999940395,693401.2000000179,7008,VNB,C,4
4,test,4,0.0,2-Back,0,m,Wed Aug 14 2024 13:58:50 GMT-0500 (Central Daylight Time),697363.2000000179,019_m_f_d_a.png,O,z,948,7,1,1962.2000000178814,695401.0,7008,VNB,C,5
5,test,4,0.0,2-Back,1,z,Wed Aug 14 2024 13:58:50 GMT-0500 (Central Daylight Time),699679.2000000179,022_y_f_n_a.png,O,z,1294,8,1,2312.5,697366.7000000179,7008,VNB,C,6
5,test,4,1.0,2-Back,0,m,Wed Aug 14 2024 13:58:50 GMT-0500 (Central Daylight Time),701945.2000000179,012_o_f_h_a.png,O,z,1234,9,1,2262.9000000059605,699682.3000000119,7008,VNB,C,7
6,test,4,0.0,2-Back,1,m,Wed Aug 14 2024 13:58:50 GMT-0500 (Central Daylight Time),703844.599999994,014_m_m_h_a.png,O,m,822,10,1,1896.0999999940395,701948.5,7008,VNB,C,8
7,test,4,0.0,2-Back,1,m,Wed Aug 14 2024 13:58:50 GMT-0500 (Central Daylight Time),706461.7000000179,022_y_f_d_a.png,O,m,1555,11,1,2613.4000000059605,703848.3000000119,7008,VNB,C,9
7,test,4,0.0,2-Back,0,m,Wed Aug 14 2024 13:58:50 GMT-0500 (Central Daylight Time),708459.8000000119,025_y_m_n_a.png,O,z,972,12,1,1994.800000011921,706465.0,7008,VNB,C,10
7,test,4,0.0,2-Back,0,z,Wed Aug 14 2024 13:58:50 GMT-0500 (Central Daylight Time),710326.099999994,015_o_m_d_a.png,O,m,845,13,1,1863.199999988079,708462.900000006,7008,VNB,C,11
7,test,4,1.0,2-Back,0,m,Wed Aug 14 2024 13:58:50 GMT-0500 (Central Daylight Time),713358.599999994,019_m_f_h_a.png,O,None,2015,14,1,3029.399999976158,710329.2000000179,7008,VNB,C,12
7,test,4,1.0,2-Back,0,m,Wed Aug 14 2024 13:58:50 GMT-0500 (Central Daylight Time),715607.5,022_y_f_h_a.png,O,z,1227,15,1,2246.0999999940395,713361.400000006,7008,VNB,C,13
8,test,4,0.0,2-Back,1,m,Wed Aug 14 2024 13:58:50 GMT-0500 (Central Daylight Time),717990.0,012_o_f_n_a.png,O,m,1354,16,1,2379.0,715611.0,7008,VNB,C,14
8,test,4,0.0,2-Back,0,m,Wed Aug 14 2024 13:58:50 GMT-0500 (Central Daylight Time),719989.599999994,025_y_m_d_a.png,O,z,971,17,1,1995.8999999761581,717993.7000000179,7008,VNB,C,15
9,test,4,1.0,2-Back,1,m,Wed Aug 14 2024 13:58:50 GMT-0500 (Central Daylight Time),722072.2000000179,014_m_m_d_a.png,O,m,1060,18,1,2079.2000000178814,719993.0,7008,VNB,C,16
0,test,5,1.0,2-Back,,,Wed Aug 14 2024 13:58:50 GMT-0500 (Central Daylight Time),722072.2000000179,022_y_f_d_a.png,O,space,2337,1,1,2079.2000000178814,719993.0,7008,VNB,C,0
0,test,5,1.0,2-Back,,,Wed Aug 14 2024 13:58:50 GMT-0500 (Central Daylight Time),722072.2000000179,012_o_f_h_a.png,O,space,2337,2,1,2079.2000000178814,719993.0,7008,VNB,C,0
1,test,5,1.0,2-Back,1,z,Wed Aug 14 2024 13:58:50 GMT-0500 (Central Daylight Time),732102.400000006,015_o_m_d_a.png,O,z,1387,3,1,2412.300000011921,729690.099999994,7008,VNB,C,1
2,test,5,1.0,2-Back,1,m,Wed Aug 14 2024 13:58:50 GMT-0500 (Central Daylight Time),734018.400000006,019_m_f_n_a.png,O,m,899,4,1,1912.5,732105.900000006,7008,VNB,C,2
2,test,5,0.0,2-Back,0,m,Wed Aug 14 2024 13:58:50 GMT-0500 (Central Daylight Time),736218.0,014_m_m_h_a.png,O,z,1167,5,1,2196.7999999821186,734021.2000000179,7008,VNB,C,3
3,test,5,0.0,2-Back,1,z,Wed Aug 14 2024 13:58:50 GMT-0500 (Central Daylight Time),738617.0,022_y_f_n_a.png,O,z,1376,6,1,2395.699999988079,736221.3000000119,7008,VNB,C,4
4,test,5,0.0,2-Back,1,m,Wed Aug 14 2024 13:58:50 GMT-0500 (Central Daylight Time),740632.900000006,012_o_f_d_a.png,O,m,984,7,1,2012.699999988079,738620.2000000179,7008,VNB,C,5
4,test,5,0.0,2-Back,0,m,Wed Aug 14 2024 13:58:50 GMT-0500 (Central Daylight Time),742615.7000000179,015_o_m_h_a.png,O,z,952,8,1,1979.9000000059605,740635.8000000119,7008,VNB,C,6
5,test,5,1.0,2-Back,1,z,Wed Aug 14 2024 13:58:50 GMT-0500 (Central Daylight Time),745015.0,019_m_f_d_a.png,O,z,1378,9,1,2396.0,742619.0,7008,VNB,C,7
5,test,5,0.0,2-Back,0,m,Wed Aug 14 2024 13:58:50 GMT-0500 (Central Daylight Time),747197.7000000179,025_y_m_n_a.png,O,z,1162,10,1,2179.4000000059605,745018.3000000119,7008,VNB,C,8
6,test,5,0.0,2-Back,1,m,Wed Aug 14 2024 13:58:50 GMT-0500 (Central Daylight Time),749097.099999994,014_m_m_n_a.png,O,m,868,11,1,1896.2999999821186,747200.8000000119,7008,VNB,C,9
6,test,5,0.0,2-Back,0,m,Wed Aug 14 2024 13:58:50 GMT-0500 (Central Daylight Time),751179.900000006,022_y_f_h_a.png,O,z,1056,12,1,2079.4000000059605,749100.5,7008,VNB,C,10
6,test,5,0.0,2-Back,0,m,Wed Aug 14 2024 13:58:50 GMT-0500 (Central Daylight Time),753214.900000006,025_y_m_d_a.png,O,z,1014,13,1,2031.9000000059605,751183.0,7008,VNB,C,11
6,test,5,1.0,2-Back,0,z,Wed Aug 14 2024 13:58:50 GMT-0500 (Central Daylight Time),755161.900000006,019_m_f_h_a.png,O,m,917,14,1,1943.699999988079,753218.2000000179,7008,VNB,C,12
6,test,5,0.0,2-Back,0,m,Wed Aug 14 2024 13:58:50 GMT-0500 (Central Daylight Time),757627.7000000179,015_o_m_n_a.png,O,z,1448,15,1,2462.2000000178814,755165.5,7008,VNB,C,13
7,test,5,0.0,2-Back,1,m,Wed Aug 14 2024 13:58:50 GMT-0500 (Central Daylight Time),759893.8000000119,014_m_m_d_a.png,O,m,1212,16,1,2262.4000000059605,757631.400000006,7008,VNB,C,14
7,test,5,0.0,2-Back,0,z,Wed Aug 14 2024 13:58:50 GMT-0500 (Central Daylight Time),762026.2000000179,012_o_f_n_a.png,O,m,1066,17,1,2129.0,759897.2000000179,7008,VNB,C,15
8,test,5,1.0,2-Back,1,m,Wed Aug 14 2024 13:58:50 GMT-0500 (Central Daylight Time),764375.7000000179,025_y_m_h_a.png,O,m,1286,18,1,2345.800000011921,762029.900000006,7008,VNB,C,16
