acc_sum,block,block_c,change,condition,correct,correct_response,datetime,endtime,face,project,response,response_time,row_sel,session_number,start_end,starttime,subject_id,task,task_vers,trial
0,prac,1,,1-Back,,,Wed Jun 04 2025 09:56:15 GMT-0500 (Central Daylight Time),,124_o_f_d_a.png,O,space,6514,1,1,,,7158,VNB,A,0
1,prac,1,0.0,1-Back,1,m,Wed Jun 04 2025 09:56:15 GMT-0500 (Central Daylight Time),113826.89999997616,071_y_f_n_a.png,O,m,922,2,1,1729.2000000476837,112097.69999992847,7158,VNB,A,1
2,prac,1,0.0,1-Back,1,m,Wed Jun 04 2025 09:56:15 GMT-0500 (Central Daylight Time),115476.5,165_m_m_h_a.png,O,m,822,3,1,1638.7000000476837,113837.79999995232,7158,VNB,A,2
3,prac,1,0.0,1-Back,1,m,Wed Jun 04 2025 09:56:15 GMT-0500 (Central Daylight Time),116993.0,109_y_m_d_a.png,O,m,686,4,1,1505.8999999761581,115487.10000002384,7158,VNB,A,3
4,prac,1,0.0,1-Back,1,m,Wed Jun 04 2025 09:56:15 GMT-0500 (Central Daylight Time),118593.0,124_o_f_n_a.png,O,m,742,5,1,1580.3999999761581,117012.60000002384,7158,VNB,A,4
5,prac,1,1.0,1-Back,1,z,Wed Jun 04 2025 09:56:15 GMT-0500 (Central Daylight Time),120042.19999992847,109_y_m_n_a.png,O,z,572,6,1,1412.0,118630.19999992847,7158,VNB,A,5
6,prac,1,0.0,1-Back,1,m,Wed Jun 04 2025 09:56:15 GMT-0500 (Central Daylight Time),121557.69999992847,039_o_m_h_a.png,O,m,656,7,1,1481.0,120076.69999992847,7158,VNB,A,6
7,prac,1,0.0,1-Back,1,m,Wed Jun 04 2025 09:56:15 GMT-0500 (Central Daylight Time),123024.69999992847,139_m_f_d_a.png,O,m,633,8,1,1454.0999999046326,121570.60000002384,7158,VNB,A,7
8,prac,1,1.0,1-Back,1,z,Wed Jun 04 2025 09:56:15 GMT-0500 (Central Daylight Time),124456.69999992847,071_y_f_d_a.png,O,z,580,9,1,1408.0,123048.69999992847,7158,VNB,A,8
9,prac,1,0.0,1-Back,1,m,Wed Jun 04 2025 09:56:15 GMT-0500 (Central Daylight Time),125973.69999992847,165_m_m_n_a.png,O,m,686,10,1,1504.6999999284744,124469.0,7158,VNB,A,9
10,prac,1,0.0,1-Back,1,m,Wed Jun 04 2025 09:56:15 GMT-0500 (Central Daylight Time),127589.0,124_o_f_h_a.png,O,m,740,11,1,1580.7000000476837,126008.29999995232,7158,VNB,A,10
11,prac,1,0.0,1-Back,1,m,Wed Jun 04 2025 09:56:15 GMT-0500 (Central Daylight Time),129439.39999997616,109_y_m_d_a.png,O,m,1015,12,1,1838.7999999523163,127600.60000002384,7158,VNB,A,11
0,test,1,0.0,1-Back,,,Wed Jun 04 2025 09:56:15 GMT-0500 (Central Daylight Time),129439.39999997616,071_y_f_d_a.png,O,space,12367,1,1,1838.7999999523163,127600.60000002384,7158,VNB,A,0
1,test,1,0.0,1-Back,1,m,Wed Jun 04 2025 09:56:15 GMT-0500 (Central Daylight Time),151115.60000002384,139_m_f_n_a.png,O,m,716,2,1,1748.9000000953674,149366.69999992847,7158,VNB,A,1
2,test,1,0.0,1-Back,1,m,Wed Jun 04 2025 09:56:15 GMT-0500 (Central Daylight Time),153198.29999995232,039_o_m_h_a.png,O,m,1038,3,1,2051.5,151146.79999995232,7158,VNB,A,2
3,test,1,1.0,1-Back,1,z,Wed Jun 04 2025 09:56:15 GMT-0500 (Central Daylight Time),155046.60000002384,165_m_m_h_a.png,O,z,803,4,1,1822.0,153224.60000002384,7158,VNB,A,3
4,test,1,0.0,1-Back,1,m,Wed Jun 04 2025 09:56:15 GMT-0500 (Central Daylight Time),156730.60000002384,124_o_f_n_a.png,O,m,650,5,1,1673.8000000715256,155056.79999995232,7158,VNB,A,4
4,test,1,0.0,1-Back,0,m,Wed Jun 04 2025 09:56:15 GMT-0500 (Central Daylight Time),158562.10000002384,109_y_m_d_a.png,O,z,781,6,1,1803.2000000476837,156758.89999997616,7158,VNB,A,5
4,test,1,1.0,1-Back,0,z,Wed Jun 04 2025 09:56:15 GMT-0500 (Central Daylight Time),161112.10000002384,139_m_f_d_a.png,O,m,1527,7,1,2539.3000000715256,158572.79999995232,7158,VNB,A,6
5,test,1,0.0,1-Back,1,m,Wed Jun 04 2025 09:56:15 GMT-0500 (Central Daylight Time),163211.19999992847,071_y_f_h_a.png,O,m,1051,8,1,2070.0,161141.19999992847,7158,VNB,A,7
6,test,1,0.0,1-Back,1,m,Wed Jun 04 2025 09:56:15 GMT-0500 (Central Daylight Time),165626.5,039_o_m_n_a.png,O,m,1374,9,1,2386.100000023842,163240.39999997616,7158,VNB,A,8
7,test,1,0.0,1-Back,1,m,Wed Jun 04 2025 09:56:15 GMT-0500 (Central Daylight Time),167393.19999992847,109_y_m_h_a.png,O,m,744,10,1,1755.2999999523163,165637.89999997616,7158,VNB,A,9
8,test,1,0.0,1-Back,1,m,Wed Jun 04 2025 09:56:15 GMT-0500 (Central Daylight Time),169126.10000002384,039_o_m_d_a.png,O,m,672,11,1,1697.7000000476837,167428.39999997616,7158,VNB,A,10
9,test,1,1.0,1-Back,1,z,Wed Jun 04 2025 09:56:15 GMT-0500 (Central Daylight Time),171124.60000002384,124_o_f_d_a.png,O,z,953,12,1,1971.0,169153.60000002384,7158,VNB,A,11
10,test,1,0.0,1-Back,1,m,Wed Jun 04 2025 09:56:15 GMT-0500 (Central Daylight Time),172807.5,165_m_m_n_a.png,O,m,652,13,1,1672.8999999761581,171134.60000002384,7158,VNB,A,12
11,test,1,1.0,1-Back,1,z,Wed Jun 04 2025 09:56:15 GMT-0500 (Central Daylight Time),174740.0,071_y_f_n_a.png,O,z,914,14,1,1922.2000000476837,172817.79999995232,7158,VNB,A,13
12,test,1,0.0,1-Back,1,m,Wed Jun 04 2025 09:56:15 GMT-0500 (Central Daylight Time),176406.19999992847,139_m_f_h_a.png,O,m,645,15,1,1657.0,174749.19999992847,7158,VNB,A,14
13,test,1,0.0,1-Back,1,m,Wed Jun 04 2025 09:56:15 GMT-0500 (Central Daylight Time),178222.29999995232,165_m_m_d_a.png,O,m,793,16,1,1806.7999999523163,176415.5,7158,VNB,A,15
14,test,1,0.0,1-Back,1,m,Wed Jun 04 2025 09:56:15 GMT-0500 (Central Daylight Time),179956.0,109_y_m_n_a.png,O,m,709,17,1,1724.1000000238419,178231.89999997616,7158,VNB,A,16
15,test,1,0.0,1-Back,1,m,Wed Jun 04 2025 09:56:15 GMT-0500 (Central Daylight Time),181771.79999995232,124_o_f_h_a.png,O,m,775,18,1,1789.5,179982.29999995232,7158,VNB,A,17
0,test,2,0.0,1-Back,,,Wed Jun 04 2025 09:56:15 GMT-0500 (Central Daylight Time),181771.79999995232,109_y_m_n_a.png,O,space,1300,1,1,1789.5,179982.29999995232,7158,VNB,A,0
1,test,2,0.0,1-Back,1,m,Wed Jun 04 2025 09:56:15 GMT-0500 (Central Daylight Time),187003.0,071_y_f_h_a.png,O,m,874,2,1,1890.8000000715256,185112.19999992847,7158,VNB,A,1
2,test,2,1.0,1-Back,1,m,Wed Jun 04 2025 09:56:15 GMT-0500 (Central Daylight Time),189202.0,039_o_m_n_a.png,O,m,1166,3,1,2190.399999976158,187011.60000002384,7158,VNB,A,2
3,test,2,0.0,1-Back,1,m,Wed Jun 04 2025 09:56:15 GMT-0500 (Central Daylight Time),191251.29999995232,139_m_f_d_a.png,O,m,1023,4,1,2037.1000000238419,189214.19999992847,7158,VNB,A,3
4,test,2,0.0,1-Back,1,z,Wed Jun 04 2025 09:56:15 GMT-0500 (Central Daylight Time),193450.60000002384,165_m_m_d_a.png,O,z,1174,5,1,2188.4000000953674,191262.19999992847,7158,VNB,A,4
5,test,2,0.0,1-Back,1,m,Wed Jun 04 2025 09:56:15 GMT-0500 (Central Daylight Time),195266.69999992847,109_y_m_h_a.png,O,m,782,6,1,1806.0999999046326,193460.60000002384,7158,VNB,A,5
6,test,2,1.0,1-Back,1,z,Wed Jun 04 2025 09:56:15 GMT-0500 (Central Daylight Time),197132.79999995232,124_o_f_h_a.png,O,z,846,7,1,1855.8999999761581,195276.89999997616,7158,VNB,A,6
7,test,2,0.0,1-Back,1,m,Wed Jun 04 2025 09:56:15 GMT-0500 (Central Daylight Time),198882.10000002384,139_m_f_n_a.png,O,m,724,8,1,1739.3000000715256,197142.79999995232,7158,VNB,A,7
7,test,2,0.0,1-Back,0,m,Wed Jun 04 2025 09:56:15 GMT-0500 (Central Daylight Time),200765.10000002384,071_y_f_d_a.png,O,z,855,9,1,1873.6000000238419,198891.5,7158,VNB,A,8
8,test,2,0.0,1-Back,1,m,Wed Jun 04 2025 09:56:15 GMT-0500 (Central Daylight Time),202831.79999995232,165_m_m_n_a.png,O,m,1038,10,1,2057.6999999284744,200774.10000002384,7158,VNB,A,9
9,test,2,1.0,1-Back,1,m,Wed Jun 04 2025 09:56:15 GMT-0500 (Central Daylight Time),204580.29999995232,139_m_f_h_a.png,O,m,705,11,1,1727.6999999284744,202852.60000002384,7158,VNB,A,10
10,test,2,0.0,1-Back,1,z,Wed Jun 04 2025 09:56:15 GMT-0500 (Central Daylight Time),206163.19999992847,039_o_m_h_a.png,O,z,555,12,1,1572.6999999284744,204590.5,7158,VNB,A,11
11,test,2,0.0,1-Back,1,m,Wed Jun 04 2025 09:56:15 GMT-0500 (Central Daylight Time),207781.19999992847,109_y_m_d_a.png,O,m,598,13,1,1606.5,206174.69999992847,7158,VNB,A,12
12,test,2,0.0,1-Back,1,m,Wed Jun 04 2025 09:56:15 GMT-0500 (Central Daylight Time),209413.10000002384,124_o_f_n_a.png,O,m,574,14,1,1597.9000000953674,207815.19999992847,7158,VNB,A,13
13,test,2,0.0,1-Back,1,z,Wed Jun 04 2025 09:56:15 GMT-0500 (Central Daylight Time),211145.89999997616,071_y_f_n_a.png,O,z,686,15,1,1705.8999999761581,209440.0,7158,VNB,A,14
14,test,2,1.0,1-Back,1,m,Wed Jun 04 2025 09:56:15 GMT-0500 (Central Daylight Time),212810.89999997616,165_m_m_h_a.png,O,m,605,16,1,1633.6000000238419,211177.29999995232,7158,VNB,A,15
15,test,2,0.0,1-Back,1,m,Wed Jun 04 2025 09:56:15 GMT-0500 (Central Daylight Time),214727.79999995232,124_o_f_d_a.png,O,m,896,17,1,1907.6000000238419,212820.19999992847,7158,VNB,A,16
16,test,2,1.0,1-Back,1,z,Wed Jun 04 2025 09:56:15 GMT-0500 (Central Daylight Time),216360.69999992847,039_o_m_d_a.png,O,z,595,18,1,1611.3999999761581,214749.29999995232,7158,VNB,A,17
0,test,3,1.0,1-Back,,,Wed Jun 04 2025 09:56:15 GMT-0500 (Central Daylight Time),216360.69999992847,124_o_f_h_a.png,O,space,1183,1,1,1611.3999999761581,214749.29999995232,7158,VNB,A,0
1,test,3,0.0,1-Back,1,m,Wed Jun 04 2025 09:56:15 GMT-0500 (Central Daylight Time),221308.19999992847,139_m_f_d_a.png,O,m,639,2,1,1655.0999999046326,219653.10000002384,7158,VNB,A,1
2,test,3,1.0,1-Back,1,m,Wed Jun 04 2025 09:56:15 GMT-0500 (Central Daylight Time),223157.60000002384,165_m_m_n_a.png,O,m,821,3,1,1838.3000000715256,221319.29999995232,7158,VNB,A,2
3,test,3,0.0,1-Back,1,z,Wed Jun 04 2025 09:56:15 GMT-0500 (Central Daylight Time),224857.69999992847,124_o_f_n_a.png,O,z,668,4,1,1688.5,223169.19999992847,7158,VNB,A,3
4,test,3,1.0,1-Back,1,m,Wed Jun 04 2025 09:56:15 GMT-0500 (Central Daylight Time),226439.79999995232,039_o_m_d_a.png,O,m,543,5,1,1567.2999999523163,224872.5,7158,VNB,A,4
5,test,3,0.0,1-Back,1,m,Wed Jun 04 2025 09:56:15 GMT-0500 (Central Daylight Time),228122.69999992847,071_y_f_h_a.png,O,m,649,6,1,1673.0999999046326,226449.60000002384,7158,VNB,A,5
6,test,3,0.0,1-Back,1,z,Wed Jun 04 2025 09:56:15 GMT-0500 (Central Daylight Time),229955.29999995232,109_y_m_h_a.png,O,z,814,7,1,1823.5,228131.79999995232,7158,VNB,A,6
7,test,3,0.0,1-Back,1,m,Wed Jun 04 2025 09:56:15 GMT-0500 (Central Daylight Time),231621.60000002384,139_m_f_n_a.png,O,m,646,8,1,1656.7000000476837,229964.89999997616,7158,VNB,A,7
8,test,3,0.0,1-Back,1,m,Wed Jun 04 2025 09:56:15 GMT-0500 (Central Daylight Time),233337.5,071_y_f_d_a.png,O,m,693,9,1,1706.3999999761581,231631.10000002384,7158,VNB,A,8
9,test,3,1.0,1-Back,1,m,Wed Jun 04 2025 09:56:15 GMT-0500 (Central Daylight Time),235486.79999995232,039_o_m_n_a.png,O,m,1120,10,1,2138.399999976158,233348.39999997616,7158,VNB,A,9
10,test,3,0.0,1-Back,1,m,Wed Jun 04 2025 09:56:15 GMT-0500 (Central Daylight Time),237502.79999995232,165_m_m_h_a.png,O,m,994,11,1,2005.6000000238419,235497.19999992847,7158,VNB,A,10
11,test,3,0.0,1-Back,1,z,Wed Jun 04 2025 09:56:15 GMT-0500 (Central Daylight Time),239052.29999995232,139_m_f_h_a.png,O,z,522,12,1,1538.3999999761581,237513.89999997616,7158,VNB,A,11
12,test,3,1.0,1-Back,1,m,Wed Jun 04 2025 09:56:15 GMT-0500 (Central Daylight Time),240851.69999992847,124_o_f_d_a.png,O,m,781,13,1,1789.0999999046326,239062.60000002384,7158,VNB,A,12
13,test,3,0.0,1-Back,1,z,Wed Jun 04 2025 09:56:15 GMT-0500 (Central Daylight Time),242602.29999995232,165_m_m_d_a.png,O,z,717,14,1,1740.0,240862.29999995232,7158,VNB,A,13
14,test,3,0.0,1-Back,1,m,Wed Jun 04 2025 09:56:15 GMT-0500 (Central Daylight Time),244584.79999995232,109_y_m_n_a.png,O,m,921,15,1,1946.3999999761581,242638.39999997616,7158,VNB,A,14
15,test,3,1.0,1-Back,1,m,Wed Jun 04 2025 09:56:15 GMT-0500 (Central Daylight Time),246267.60000002384,039_o_m_h_a.png,O,m,624,16,1,1649.5,244618.10000002384,7158,VNB,A,15
16,test,3,0.0,1-Back,1,m,Wed Jun 04 2025 09:56:15 GMT-0500 (Central Daylight Time),247949.89999997616,109_y_m_d_a.png,O,m,620,17,1,1646.1000000238419,246303.79999995232,7158,VNB,A,16
17,test,3,1.0,1-Back,1,m,Wed Jun 04 2025 09:56:15 GMT-0500 (Central Daylight Time),249649.19999992847,071_y_f_n_a.png,O,m,667,18,1,1689.8999999761581,247959.29999995232,7158,VNB,A,17
0,test,4,1.0,1-Back,,,Wed Jun 04 2025 09:56:15 GMT-0500 (Central Daylight Time),249649.19999992847,165_m_m_d_a.png,O,space,1071,1,1,1689.8999999761581,247959.29999995232,7158,VNB,A,0
1,test,4,0.0,1-Back,1,z,Wed Jun 04 2025 09:56:15 GMT-0500 (Central Daylight Time),254598.0,039_o_m_d_a.png,O,z,798,2,1,1814.1000000238419,252783.89999997616,7158,VNB,A,1
2,test,4,0.0,1-Back,1,m,Wed Jun 04 2025 09:56:15 GMT-0500 (Central Daylight Time),256314.0,109_y_m_h_a.png,O,m,675,3,1,1692.5,254621.5,7158,VNB,A,2
3,test,4,0.0,1-Back,1,m,Wed Jun 04 2025 09:56:15 GMT-0500 (Central Daylight Time),258012.79999995232,139_m_f_n_a.png,O,m,661,4,1,1674.6999999284744,256338.10000002384,7158,VNB,A,3
4,test,4,1.0,1-Back,1,m,Wed Jun 04 2025 09:56:15 GMT-0500 (Central Daylight Time),259595.60000002384,124_o_f_h_a.png,O,m,555,5,1,1569.7000000476837,258025.89999997616,7158,VNB,A,4
5,test,4,0.0,1-Back,1,m,Wed Jun 04 2025 09:56:15 GMT-0500 (Central Daylight Time),261430.5,165_m_m_n_a.png,O,m,816,6,1,1824.5,259606.0,7158,VNB,A,5
6,test,4,0.0,1-Back,1,m,Wed Jun 04 2025 09:56:15 GMT-0500 (Central Daylight Time),263412.5,109_y_m_d_a.png,O,m,931,7,1,1949.8000000715256,261462.69999992847,7158,VNB,A,6
7,test,4,1.0,1-Back,1,z,Wed Jun 04 2025 09:56:15 GMT-0500 (Central Daylight Time),265010.5,071_y_f_d_a.png,O,z,556,8,1,1570.3000000715256,263440.1999999285,7158,VNB,A,7
8,test,4,0.0,1-Back,1,m,Wed Jun 04 2025 09:56:15 GMT-0500 (Central Daylight Time),266776.39999997616,139_m_f_h_a.png,O,m,743,9,1,1751.1000000238419,265025.2999999523,7158,VNB,A,8
9,test,4,0.0,1-Back,1,z,Wed Jun 04 2025 09:56:15 GMT-0500 (Central Daylight Time),268360.1999999285,039_o_m_h_a.png,O,z,554,10,1,1574.0999999046326,266786.10000002384,7158,VNB,A,9
10,test,4,1.0,1-Back,1,m,Wed Jun 04 2025 09:56:15 GMT-0500 (Central Daylight Time),270143.10000002384,124_o_f_n_a.png,O,m,722,11,1,1749.5,268393.60000002384,7158,VNB,A,10
11,test,4,0.0,1-Back,1,m,Wed Jun 04 2025 09:56:15 GMT-0500 (Central Daylight Time),271859.39999997616,139_m_f_d_a.png,O,m,651,12,1,1682.3999999761581,270177.0,7158,VNB,A,11
12,test,4,0.0,1-Back,1,m,Wed Jun 04 2025 09:56:15 GMT-0500 (Central Daylight Time),273524.39999997616,071_y_f_n_a.png,O,m,604,13,1,1627.7000000476837,271896.6999999285,7158,VNB,A,12
13,test,4,0.0,1-Back,1,m,Wed Jun 04 2025 09:56:15 GMT-0500 (Central Daylight Time),275325.60000002384,124_o_f_d_a.png,O,m,782,14,1,1791.4000000953674,273534.1999999285,7158,VNB,A,13
14,test,4,0.0,1-Back,1,m,Wed Jun 04 2025 09:56:15 GMT-0500 (Central Daylight Time),277323.89999997616,071_y_f_h_a.png,O,m,951,15,1,1972.0,275351.89999997616,7158,VNB,A,14
15,test,4,1.0,1-Back,1,z,Wed Jun 04 2025 09:56:15 GMT-0500 (Central Daylight Time),279105.89999997616,165_m_m_h_a.png,O,z,723,16,1,1746.2999999523163,277359.60000002384,7158,VNB,A,15
16,test,4,0.0,1-Back,1,m,Wed Jun 04 2025 09:56:15 GMT-0500 (Central Daylight Time),280906.0,039_o_m_n_a.png,O,m,767,17,1,1789.3000000715256,279116.6999999285,7158,VNB,A,16
17,test,4,1.0,1-Back,1,z,Wed Jun 04 2025 09:56:15 GMT-0500 (Central Daylight Time),282821.2999999523,109_y_m_n_a.png,O,z,879,18,1,1890.0,280931.2999999523,7158,VNB,A,17
0,test,5,1.0,1-Back,,,Wed Jun 04 2025 09:56:15 GMT-0500 (Central Daylight Time),282821.2999999523,039_o_m_n_a.png,O,space,1078,1,1,1890.0,280931.2999999523,7158,VNB,A,0
1,test,5,1.0,1-Back,1,m,Wed Jun 04 2025 09:56:15 GMT-0500 (Central Daylight Time),288137.1999999285,124_o_f_h_a.png,O,m,1152,2,1,2169.6999999284744,285967.5,7158,VNB,A,1
2,test,5,0.0,1-Back,1,m,Wed Jun 04 2025 09:56:15 GMT-0500 (Central Daylight Time),289836.7999999523,109_y_m_d_a.png,O,m,649,3,1,1672.2999999523163,288164.5,7158,VNB,A,2
3,test,5,0.0,1-Back,1,z,Wed Jun 04 2025 09:56:15 GMT-0500 (Central Daylight Time),291453.0,039_o_m_d_a.png,O,z,581,4,1,1585.2000000476837,289867.7999999523,7158,VNB,A,3
4,test,5,0.0,1-Back,1,m,Wed Jun 04 2025 09:56:15 GMT-0500 (Central Daylight Time),293251.39999997616,139_m_f_h_a.png,O,m,740,5,1,1765.5,291485.89999997616,7158,VNB,A,4
5,test,5,0.0,1-Back,1,m,Wed Jun 04 2025 09:56:15 GMT-0500 (Central Daylight Time),295000.6999999285,071_y_f_n_a.png,O,m,716,6,1,1739.8999999761581,293260.7999999523,7158,VNB,A,5
6,test,5,1.0,1-Back,1,z,Wed Jun 04 2025 09:56:15 GMT-0500 (Central Daylight Time),296616.89999997616,124_o_f_n_a.png,O,z,591,7,1,1606.7999999523163,295010.10000002384,7158,VNB,A,6
7,test,5,0.0,1-Back,1,m,Wed Jun 04 2025 09:56:15 GMT-0500 (Central Daylight Time),298567.2999999523,139_m_f_d_a.png,O,m,922,8,1,1941.6000000238419,296625.6999999285,7158,VNB,A,7
8,test,5,0.0,1-Back,1,m,Wed Jun 04 2025 09:56:15 GMT-0500 (Central Daylight Time),301032.7999999523,109_y_m_h_a.png,O,m,1427,9,1,2434.7999999523163,298598.0,7158,VNB,A,8
9,test,5,0.0,1-Back,1,m,Wed Jun 04 2025 09:56:15 GMT-0500 (Central Daylight Time),302749.2999999523,071_y_f_d_a.png,O,m,683,10,1,1688.6999999284744,301060.60000002384,7158,VNB,A,9
10,test,5,0.0,1-Back,1,m,Wed Jun 04 2025 09:56:15 GMT-0500 (Central Daylight Time),304348.5,165_m_m_n_a.png,O,m,556,11,1,1573.5,302775.0,7158,VNB,A,10
11,test,5,1.0,1-Back,1,z,Wed Jun 04 2025 09:56:15 GMT-0500 (Central Daylight Time),306081.39999997616,139_m_f_n_a.png,O,z,685,12,1,1710.1000000238419,304371.2999999523,7158,VNB,A,11
12,test,5,0.0,1-Back,1,m,Wed Jun 04 2025 09:56:15 GMT-0500 (Central Daylight Time),307813.1999999285,039_o_m_h_a.png,O,m,670,13,1,1695.7999999523163,306117.39999997616,7158,VNB,A,12
13,test,5,0.0,1-Back,1,z,Wed Jun 04 2025 09:56:15 GMT-0500 (Central Daylight Time),309713.39999997616,165_m_m_h_a.png,O,z,868,14,1,1889.2999999523163,307824.10000002384,7158,VNB,A,13
14,test,5,1.0,1-Back,1,m,Wed Jun 04 2025 09:56:15 GMT-0500 (Central Daylight Time),311512.6999999285,124_o_f_d_a.png,O,m,745,15,1,1765.2999999523163,309747.39999997616,7158,VNB,A,14
15,test,5,0.0,1-Back,1,m,Wed Jun 04 2025 09:56:15 GMT-0500 (Central Daylight Time),313112.2999999523,109_y_m_n_a.png,O,m,553,16,1,1574.2999999523163,311538.0,7158,VNB,A,15
16,test,5,0.0,1-Back,1,m,Wed Jun 04 2025 09:56:15 GMT-0500 (Central Daylight Time),314794.1999999285,071_y_f_h_a.png,O,m,623,17,1,1648.5,313145.6999999285,7158,VNB,A,16
17,test,5,0.0,1-Back,1,m,Wed Jun 04 2025 09:56:15 GMT-0500 (Central Daylight Time),316393.7999999523,165_m_m_d_a.png,O,m,566,18,1,1590.1000000238419,314803.6999999285,7158,VNB,A,17
0,prac,1,0.0,2-Back,,,Wed Jun 04 2025 09:56:15 GMT-0500 (Central Daylight Time),316393.7999999523,139_m_f_n_a.png,O,space,9425,1,1,1590.1000000238419,314803.6999999285,7158,VNB,A,0
0,prac,1,0.0,2-Back,,,Wed Jun 04 2025 09:56:15 GMT-0500 (Central Daylight Time),316393.7999999523,124_o_f_h_a.png,O,space,9425,2,1,1590.1000000238419,314803.6999999285,7158,VNB,A,0
1,prac,1,0.0,2-Back,1,m,Wed Jun 04 2025 09:56:15 GMT-0500 (Central Daylight Time),411462.5,039_o_m_d_a.png,O,m,1157,3,1,1988.6000000238419,409473.89999997616,7158,VNB,A,1
1,prac,1,1.0,2-Back,0,z,Wed Jun 04 2025 09:56:15 GMT-0500 (Central Daylight Time),413562.7999999523,165_m_m_h_a.png,O,m,1275,4,1,2083.100000023842,411479.6999999285,7158,VNB,A,2
2,prac,1,0.0,2-Back,1,m,Wed Jun 04 2025 09:56:15 GMT-0500 (Central Daylight Time),415711.10000002384,071_y_f_n_a.png,O,m,1291,5,1,2113.100000023842,413598.0,7158,VNB,A,3
3,prac,1,1.0,2-Back,1,z,Wed Jun 04 2025 09:56:15 GMT-0500 (Central Daylight Time),417393.7999999523,039_o_m_h_a.png,O,z,844,6,1,1663.7999999523163,415730.0,7158,VNB,A,4
3,prac,1,1.0,2-Back,0,z,Wed Jun 04 2025 09:56:15 GMT-0500 (Central Daylight Time),419210.39999997616,109_y_m_n_a.png,O,m,989,7,1,1805.2000000476837,417405.1999999285,7158,VNB,A,5
4,prac,1,0.0,2-Back,1,m,Wed Jun 04 2025 09:56:15 GMT-0500 (Central Daylight Time),421193.2999999523,139_m_f_d_a.png,O,m,1111,8,1,1959.5,419233.7999999523,7158,VNB,A,6
5,prac,1,0.0,2-Back,1,m,Wed Jun 04 2025 09:56:15 GMT-0500 (Central Daylight Time),423543.0,124_o_f_d_a.png,O,m,1430,9,1,2306.600000023842,421236.39999997616,7158,VNB,A,7
5,prac,1,0.0,2-Back,0,m,Wed Jun 04 2025 09:56:15 GMT-0500 (Central Daylight Time),425907.7999999523,165_m_m_h_a.png,O,z,1553,10,1,2329.0,423578.7999999523,7158,VNB,A,8
5,prac,1,1.0,2-Back,0,z,Wed Jun 04 2025 09:56:15 GMT-0500 (Central Daylight Time),427941.39999997616,071_y_f_d_a.png,O,m,1204,11,1,2022.2999999523163,425919.10000002384,7158,VNB,A,9
6,prac,1,0.0,2-Back,1,m,Wed Jun 04 2025 09:56:15 GMT-0500 (Central Daylight Time),429806.60000002384,039_o_m_n_a.png,O,m,1010,12,1,1835.7000000476837,427970.89999997616,7158,VNB,A,10
0,prac,2,0.0,2-Back,,,Wed Jun 04 2025 09:56:15 GMT-0500 (Central Daylight Time),429806.60000002384,139_m_f_n_a.png,O,a,4202,1,1,1835.7000000476837,427970.89999997616,7158,VNB,A,0
0,prac,2,0.0,2-Back,,,Wed Jun 04 2025 09:56:15 GMT-0500 (Central Daylight Time),429806.60000002384,124_o_f_h_a.png,O,a,4202,2,1,1835.7000000476837,427970.89999997616,7158,VNB,A,0
1,prac,2,0.0,2-Back,1,m,Wed Jun 04 2025 09:56:15 GMT-0500 (Central Daylight Time),441152.6999999285,039_o_m_d_a.png,O,m,1104,3,1,1933.2999999523163,439219.39999997616,7158,VNB,A,1
2,prac,2,1.0,2-Back,1,z,Wed Jun 04 2025 09:56:15 GMT-0500 (Central Daylight Time),442919.89999997616,165_m_m_h_a.png,O,z,973,4,1,1753.7000000476837,441166.1999999285,7158,VNB,A,2
3,prac,2,0.0,2-Back,1,m,Wed Jun 04 2025 09:56:15 GMT-0500 (Central Daylight Time),444619.2999999523,071_y_f_n_a.png,O,m,833,5,1,1661.2999999523163,442958.0,7158,VNB,A,3
4,prac,2,1.0,2-Back,1,z,Wed Jun 04 2025 09:56:15 GMT-0500 (Central Daylight Time),446351.89999997616,039_o_m_h_a.png,O,z,889,6,1,1703.2000000476837,444648.6999999285,7158,VNB,A,4
4,prac,2,1.0,2-Back,0,z,Wed Jun 04 2025 09:56:15 GMT-0500 (Central Daylight Time),448233.6999999285,109_y_m_n_a.png,O,m,1030,7,1,1851.1999999284744,446382.5,7158,VNB,A,5
5,prac,2,0.0,2-Back,1,m,Wed Jun 04 2025 09:56:15 GMT-0500 (Central Daylight Time),450217.10000002384,139_m_f_d_a.png,O,m,1149,8,1,1970.5,448246.60000002384,7158,VNB,A,6
5,prac,2,0.0,2-Back,0,m,Wed Jun 04 2025 09:56:15 GMT-0500 (Central Daylight Time),452232.7999999523,124_o_f_d_a.png,O,z,1113,9,1,1981.1999999284744,450251.60000002384,7158,VNB,A,7
6,prac,2,0.0,2-Back,1,m,Wed Jun 04 2025 09:56:15 GMT-0500 (Central Daylight Time),454332.6999999285,165_m_m_h_a.png,O,m,1300,10,1,2077.0999999046326,452255.60000002384,7158,VNB,A,8
7,prac,2,1.0,2-Back,1,z,Wed Jun 04 2025 09:56:15 GMT-0500 (Central Daylight Time),456165.10000002384,071_y_f_d_a.png,O,z,978,11,1,1802.1000000238419,454363.0,7158,VNB,A,9
8,prac,2,0.0,2-Back,1,m,Wed Jun 04 2025 09:56:15 GMT-0500 (Central Daylight Time),458398.0,039_o_m_n_a.png,O,m,1381,12,1,2204.2000000476837,456193.7999999523,7158,VNB,A,10
0,test,1,0.0,2-Back,,,Wed Jun 04 2025 09:56:15 GMT-0500 (Central Daylight Time),458398.0,109_y_m_h_a.png,O,space,7503,1,1,2204.2000000476837,456193.7999999523,7158,VNB,A,0
0,test,1,0.0,2-Back,,,Wed Jun 04 2025 09:56:15 GMT-0500 (Central Daylight Time),458398.0,124_o_f_n_a.png,O,space,7503,2,1,2204.2000000476837,456193.7999999523,7158,VNB,A,0
1,test,1,0.0,2-Back,1,z,Wed Jun 04 2025 09:56:15 GMT-0500 (Central Daylight Time),480556.39999997616,039_o_m_h_a.png,O,z,1372,3,1,2388.7999999523163,478167.60000002384,7158,VNB,A,1
2,test,1,0.0,2-Back,1,m,Wed Jun 04 2025 09:56:15 GMT-0500 (Central Daylight Time),482506.89999997616,139_m_f_d_a.png,O,m,919,4,1,1941.1000000238419,480565.7999999523,7158,VNB,A,2
3,test,1,1.0,2-Back,1,m,Wed Jun 04 2025 09:56:15 GMT-0500 (Central Daylight Time),484456.1999999285,109_y_m_n_a.png,O,m,905,5,1,1920.7999999523163,482535.39999997616,7158,VNB,A,3
4,test,1,0.0,2-Back,1,z,Wed Jun 04 2025 09:56:15 GMT-0500 (Central Daylight Time),486655.39999997616,071_y_f_d_a.png,O,z,1161,6,1,2170.7999999523163,484484.60000002384,7158,VNB,A,4
5,test,1,0.0,2-Back,1,m,Wed Jun 04 2025 09:56:15 GMT-0500 (Central Daylight Time),488637.39999997616,165_m_m_h_a.png,O,m,932,7,1,1947.2999999523163,486690.10000002384,7158,VNB,A,5
6,test,1,1.0,2-Back,1,m,Wed Jun 04 2025 09:56:15 GMT-0500 (Central Daylight Time),490553.10000002384,071_y_f_n_a.png,O,m,851,8,1,1881.7000000476837,488671.39999997616,7158,VNB,A,6
7,test,1,0.0,2-Back,1,z,Wed Jun 04 2025 09:56:15 GMT-0500 (Central Daylight Time),492236.6999999285,124_o_f_h_a.png,O,z,666,9,1,1669.1999999284744,490567.5,7158,VNB,A,7
8,test,1,0.0,2-Back,1,m,Wed Jun 04 2025 09:56:15 GMT-0500 (Central Daylight Time),494236.0,039_o_m_d_a.png,O,m,942,10,1,1965.3000000715256,492270.6999999285,7158,VNB,A,8
9,test,1,1.0,2-Back,1,m,Wed Jun 04 2025 09:56:15 GMT-0500 (Central Daylight Time),496285.5,165_m_m_d_a.png,O,m,1006,11,1,2022.8999999761581,494262.60000002384,7158,VNB,A,9
10,test,1,0.0,2-Back,1,m,Wed Jun 04 2025 09:56:15 GMT-0500 (Central Daylight Time),498117.39999997616,139_m_f_n_a.png,O,m,780,12,1,1796.2000000476837,496321.1999999285,7158,VNB,A,10
11,test,1,0.0,2-Back,1,m,Wed Jun 04 2025 09:56:15 GMT-0500 (Central Daylight Time),499966.6999999285,071_y_f_h_a.png,O,m,819,13,1,1839.0999999046326,498127.60000002384,7158,VNB,A,11
12,test,1,0.0,2-Back,1,z,Wed Jun 04 2025 09:56:15 GMT-0500 (Central Daylight Time),501800.39999997616,165_m_m_n_a.png,O,z,811,14,1,1824.3999999761581,499976.0,7158,VNB,A,12
13,test,1,0.0,2-Back,1,m,Wed Jun 04 2025 09:56:15 GMT-0500 (Central Daylight Time),503883.0,109_y_m_d_a.png,O,m,1043,15,1,2057.899999976158,501825.10000002384,7158,VNB,A,13
13,test,1,1.0,2-Back,0,m,Wed Jun 04 2025 09:56:15 GMT-0500 (Central Daylight Time),505964.6999999285,139_m_f_h_a.png,O,z,1029,16,1,2048.1999999284744,503916.5,7158,VNB,A,14
14,test,1,0.0,2-Back,1,z,Wed Jun 04 2025 09:56:15 GMT-0500 (Central Daylight Time),507765.1999999285,124_o_f_d_a.png,O,z,774,17,1,1791.0,505974.1999999285,7158,VNB,A,15
15,test,1,0.0,2-Back,1,m,Wed Jun 04 2025 09:56:15 GMT-0500 (Central Daylight Time),509747.1999999285,039_o_m_n_a.png,O,m,941,18,1,1953.2999999523163,507793.89999997616,7158,VNB,A,16
0,test,2,0.0,2-Back,,,Wed Jun 04 2025 09:56:15 GMT-0500 (Central Daylight Time),509747.1999999285,165_m_m_h_a.png,O,space,1072,1,1,1953.2999999523163,507793.89999997616,7158,VNB,A,0
0,test,2,0.0,2-Back,,,Wed Jun 04 2025 09:56:15 GMT-0500 (Central Daylight Time),509747.1999999285,071_y_f_n_a.png,O,space,1072,2,1,1953.2999999523163,507793.89999997616,7158,VNB,A,0
0,test,2,1.0,2-Back,0,z,Wed Jun 04 2025 09:56:15 GMT-0500 (Central Daylight Time),517861.7999999523,124_o_f_h_a.png,O,m,774,3,1,1797.8999999761581,516063.89999997616,7158,VNB,A,1
1,test,2,0.0,2-Back,1,m,Wed Jun 04 2025 09:56:15 GMT-0500 (Central Daylight Time),520127.60000002384,039_o_m_d_a.png,O,m,1203,4,1,2230.8000000715256,517896.7999999523,7158,VNB,A,2
2,test,2,0.0,2-Back,1,m,Wed Jun 04 2025 09:56:15 GMT-0500 (Central Daylight Time),522525.89999997616,139_m_f_d_a.png,O,m,1363,5,1,2370.399999976158,520155.5,7158,VNB,A,3
3,test,2,0.0,2-Back,1,m,Wed Jun 04 2025 09:56:15 GMT-0500 (Central Daylight Time),524359.6999999285,109_y_m_h_a.png,O,m,804,6,1,1824.5,522535.1999999285,7158,VNB,A,4
4,test,2,0.0,2-Back,1,m,Wed Jun 04 2025 09:56:15 GMT-0500 (Central Daylight Time),526293.1000000238,124_o_f_n_a.png,O,m,883,7,1,1898.0,524395.1000000238,7158,VNB,A,5
5,test,2,1.0,2-Back,1,z,Wed Jun 04 2025 09:56:15 GMT-0500 (Central Daylight Time),527875.1999999285,039_o_m_h_a.png,O,z,525,8,1,1549.0,526326.1999999285,7158,VNB,A,6
5,test,2,0.0,2-Back,0,m,Wed Jun 04 2025 09:56:15 GMT-0500 (Central Daylight Time),529873.5,071_y_f_d_a.png,O,z,941,9,1,1963.3000000715256,527910.1999999285,7158,VNB,A,7
6,test,2,0.0,2-Back,1,m,Wed Jun 04 2025 09:56:15 GMT-0500 (Central Daylight Time),532622.6999999285,109_y_m_d_a.png,O,m,1727,10,1,2739.399999976158,529883.2999999523,7158,VNB,A,8
7,test,2,0.0,2-Back,1,m,Wed Jun 04 2025 09:56:15 GMT-0500 (Central Daylight Time),534572.8999999762,165_m_m_n_a.png,O,m,923,11,1,1940.2000000476837,532632.6999999285,7158,VNB,A,9
8,test,2,0.0,2-Back,1,m,Wed Jun 04 2025 09:56:15 GMT-0500 (Central Daylight Time),536505.3999999762,139_m_f_h_a.png,O,m,868,12,1,1898.7999999523163,534606.6000000238,7158,VNB,A,10
9,test,2,1.0,2-Back,1,z,Wed Jun 04 2025 09:56:15 GMT-0500 (Central Daylight Time),538838.2999999523,039_o_m_n_a.png,O,z,1288,13,1,2303.7999999523163,536534.5,7158,VNB,A,11
10,test,2,0.0,2-Back,1,m,Wed Jun 04 2025 09:56:15 GMT-0500 (Central Daylight Time),540537.3999999762,124_o_f_d_a.png,O,m,651,14,1,1669.1000000238419,538868.2999999523,7158,VNB,A,12
11,test,2,0.0,2-Back,1,m,Wed Jun 04 2025 09:56:15 GMT-0500 (Central Daylight Time),542352.6999999285,071_y_f_h_a.png,O,m,758,15,1,1780.6999999284744,540572.0,7158,VNB,A,13
12,test,2,0.0,2-Back,1,z,Wed Jun 04 2025 09:56:15 GMT-0500 (Central Daylight Time),544519.3999999762,165_m_m_d_a.png,O,z,1145,16,1,2156.899999976158,542362.5,7158,VNB,A,14
13,test,2,0.0,2-Back,1,m,Wed Jun 04 2025 09:56:15 GMT-0500 (Central Daylight Time),547135.2999999523,109_y_m_n_a.png,O,m,1570,17,1,2590.899999976158,544544.3999999762,7158,VNB,A,15
14,test,2,1.0,2-Back,1,m,Wed Jun 04 2025 09:56:15 GMT-0500 (Central Daylight Time),548935.1000000238,139_m_f_n_a.png,O,m,739,18,1,1763.6000000238419,547171.5,7158,VNB,A,16
0,test,3,1.0,2-Back,,,Wed Jun 04 2025 09:56:15 GMT-0500 (Central Daylight Time),548935.1000000238,039_o_m_n_a.png,O,space,954,1,1,1763.6000000238419,547171.5,7158,VNB,A,0
0,test,3,1.0,2-Back,,,Wed Jun 04 2025 09:56:15 GMT-0500 (Central Daylight Time),548935.1000000238,124_o_f_d_a.png,O,space,954,2,1,1763.6000000238419,547171.5,7158,VNB,A,0
1,test,3,0.0,2-Back,1,m,Wed Jun 04 2025 09:56:15 GMT-0500 (Central Daylight Time),557565.3999999762,071_y_f_h_a.png,O,m,1422,3,1,2438.7000000476837,555126.6999999285,7158,VNB,A,1
1,test,3,0.0,2-Back,0,z,Wed Jun 04 2025 09:56:15 GMT-0500 (Central Daylight Time),560615.3999999762,139_m_f_d_a.png,O,None,2014,4,1,3022.899999976158,557592.5,7158,VNB,A,2
2,test,3,1.0,2-Back,1,m,Wed Jun 04 2025 09:56:15 GMT-0500 (Central Daylight Time),562597.1000000238,109_y_m_n_a.png,O,m,956,5,1,1970.9000000953674,560626.1999999285,7158,VNB,A,3
2,test,3,0.0,2-Back,0,m,Wed Jun 04 2025 09:56:15 GMT-0500 (Central Daylight Time),564646.2999999523,039_o_m_h_a.png,O,z,989,6,1,2018.1000000238419,562628.1999999285,7158,VNB,A,4
3,test,3,0.0,2-Back,1,z,Wed Jun 04 2025 09:56:15 GMT-0500 (Central Daylight Time),566845.0,071_y_f_n_a.png,O,z,1154,7,1,2169.3000000715256,564675.6999999285,7158,VNB,A,5
4,test,3,1.0,2-Back,1,m,Wed Jun 04 2025 09:56:15 GMT-0500 (Central Daylight Time),568977.5,165_m_m_d_a.png,O,m,1085,8,1,2109.5,566868.0,7158,VNB,A,6
5,test,3,0.0,2-Back,1,m,Wed Jun 04 2025 09:56:15 GMT-0500 (Central Daylight Time),571211.0,109_y_m_d_a.png,O,m,1208,9,1,2223.600000023842,568987.3999999762,7158,VNB,A,7
5,test,3,0.0,2-Back,0,m,Wed Jun 04 2025 09:56:15 GMT-0500 (Central Daylight Time),573242.7999999523,124_o_f_h_a.png,O,z,990,10,1,2001.8999999761581,571240.8999999762,7158,VNB,A,8
6,test,3,1.0,2-Back,1,m,Wed Jun 04 2025 09:56:15 GMT-0500 (Central Daylight Time),575059.6000000238,139_m_f_n_a.png,O,m,791,11,1,1807.3000000715256,573252.2999999523,7158,VNB,A,9
7,test,3,1.0,2-Back,1,z,Wed Jun 04 2025 09:56:15 GMT-0500 (Central Daylight Time),576808.8999999762,165_m_m_h_a.png,O,z,704,12,1,1722.6000000238419,575086.2999999523,7158,VNB,A,10
8,test,3,0.0,2-Back,1,m,Wed Jun 04 2025 09:56:15 GMT-0500 (Central Daylight Time),578907.6000000238,071_y_f_d_a.png,O,m,1039,13,1,2062.4000000953674,576845.1999999285,7158,VNB,A,11
8,test,3,0.0,2-Back,0,m,Wed Jun 04 2025 09:56:15 GMT-0500 (Central Daylight Time),581491.1999999285,124_o_f_n_a.png,O,z,1551,14,1,2572.7999999523163,578918.3999999762,7158,VNB,A,12
9,test,3,0.0,2-Back,1,z,Wed Jun 04 2025 09:56:15 GMT-0500 (Central Daylight Time),583723.3999999762,039_o_m_d_a.png,O,z,1174,15,1,2197.2999999523163,581526.1000000238,7158,VNB,A,13
10,test,3,1.0,2-Back,1,m,Wed Jun 04 2025 09:56:15 GMT-0500 (Central Daylight Time),585655.1000000238,139_m_f_h_a.png,O,m,887,16,1,1901.6000000238419,583753.5,7158,VNB,A,14
10,test,3,0.0,2-Back,0,m,Wed Jun 04 2025 09:56:15 GMT-0500 (Central Daylight Time),587438.0,165_m_m_n_a.png,O,z,753,17,1,1773.3000000715256,585664.6999999285,7158,VNB,A,15
11,test,3,0.0,2-Back,1,z,Wed Jun 04 2025 09:56:15 GMT-0500 (Central Daylight Time),589188.2999999523,109_y_m_h_a.png,O,z,723,18,1,1740.6999999284744,587447.6000000238,7158,VNB,A,16
0,test,4,0.0,2-Back,,,Wed Jun 04 2025 09:56:15 GMT-0500 (Central Daylight Time),589188.2999999523,139_m_f_n_a.png,O,space,908,1,1,1740.6999999284744,587447.6000000238,7158,VNB,A,0
0,test,4,0.0,2-Back,,,Wed Jun 04 2025 09:56:15 GMT-0500 (Central Daylight Time),589188.2999999523,039_o_m_n_a.png,O,space,908,2,1,1740.6999999284744,587447.6000000238,7158,VNB,A,0
1,test,4,1.0,2-Back,1,m,Wed Jun 04 2025 09:56:15 GMT-0500 (Central Daylight Time),597084.8999999762,109_y_m_h_a.png,O,m,854,3,1,1878.8999999761581,595206.0,7158,VNB,A,1
2,test,4,1.0,2-Back,1,m,Wed Jun 04 2025 09:56:15 GMT-0500 (Central Daylight Time),599151.7999999523,124_o_f_d_a.png,O,m,1037,4,1,2055.399999976158,597096.3999999762,7158,VNB,A,2
3,test,4,0.0,2-Back,1,z,Wed Jun 04 2025 09:56:15 GMT-0500 (Central Daylight Time),601183.6999999285,039_o_m_h_a.png,O,z,987,5,1,2005.3999999761581,599178.2999999523,7158,VNB,A,3
3,test,4,0.0,2-Back,0,m,Wed Jun 04 2025 09:56:15 GMT-0500 (Central Daylight Time),604232.6999999285,165_m_m_n_a.png,O,None,2014,6,1,3032.0999999046326,601200.6000000238,7158,VNB,A,4
3,test,4,0.0,2-Back,0,m,Wed Jun 04 2025 09:56:15 GMT-0500 (Central Daylight Time),606116.1000000238,139_m_f_d_a.png,O,z,857,7,1,1872.9000000953674,604243.1999999285,7158,VNB,A,5
4,test,4,0.0,2-Back,1,z,Wed Jun 04 2025 09:56:15 GMT-0500 (Central Daylight Time),608564.2999999523,071_y_f_n_a.png,O,z,1390,8,1,2411.100000023842,606153.1999999285,7158,VNB,A,6
5,test,4,1.0,2-Back,1,m,Wed Jun 04 2025 09:56:15 GMT-0500 (Central Daylight Time),610881.1000000238,124_o_f_h_a.png,O,m,1293,9,1,2307.0,608574.1000000238,7158,VNB,A,7
5,test,4,0.0,2-Back,0,m,Wed Jun 04 2025 09:56:15 GMT-0500 (Central Daylight Time),613381.3999999762,165_m_m_h_a.png,O,z,1465,10,1,2475.399999976158,610906.0,7158,VNB,A,8
6,test,4,0.0,2-Back,1,m,Wed Jun 04 2025 09:56:15 GMT-0500 (Central Daylight Time),615179.0,071_y_f_d_a.png,O,m,748,11,1,1762.3999999761581,613416.6000000238,7158,VNB,A,9
7,test,4,0.0,2-Back,1,m,Wed Jun 04 2025 09:56:15 GMT-0500 (Central Daylight Time),617212.2999999523,109_y_m_n_a.png,O,m,998,12,1,2021.5,615190.7999999523,7158,VNB,A,10
8,test,4,0.0,2-Back,1,z,Wed Jun 04 2025 09:56:15 GMT-0500 (Central Daylight Time),619029.3999999762,039_o_m_d_a.png,O,z,767,13,1,1780.8999999761581,617248.5,7158,VNB,A,11
9,test,4,1.0,2-Back,1,m,Wed Jun 04 2025 09:56:15 GMT-0500 (Central Daylight Time),620944.1000000238,139_m_f_h_a.png,O,m,876,14,1,1885.3000000715256,619058.7999999523,7158,VNB,A,12
10,test,4,1.0,2-Back,1,m,Wed Jun 04 2025 09:56:15 GMT-0500 (Central Daylight Time),622710.5,071_y_f_h_a.png,O,m,738,15,1,1756.0,620954.5,7158,VNB,A,13
11,test,4,0.0,2-Back,1,m,Wed Jun 04 2025 09:56:15 GMT-0500 (Central Daylight Time),624493.8999999762,124_o_f_n_a.png,O,m,750,16,1,1753.5,622740.3999999762,7158,VNB,A,14
11,test,4,0.0,2-Back,0,m,Wed Jun 04 2025 09:56:15 GMT-0500 (Central Daylight Time),626277.1999999285,109_y_m_d_a.png,O,z,747,17,1,1756.0999999046326,624521.1000000238,7158,VNB,A,15
11,test,4,1.0,2-Back,0,m,Wed Jun 04 2025 09:56:15 GMT-0500 (Central Daylight Time),628191.3999999762,165_m_m_d_a.png,O,z,860,18,1,1876.7000000476837,626314.6999999285,7158,VNB,A,16
0,test,5,1.0,2-Back,,,Wed Jun 04 2025 09:56:15 GMT-0500 (Central Daylight Time),628191.3999999762,071_y_f_d_a.png,O,space,972,1,1,1876.7000000476837,626314.6999999285,7158,VNB,A,0
0,test,5,1.0,2-Back,,,Wed Jun 04 2025 09:56:15 GMT-0500 (Central Daylight Time),628191.3999999762,124_o_f_h_a.png,O,space,972,2,1,1876.7000000476837,626314.6999999285,7158,VNB,A,0
1,test,5,1.0,2-Back,1,z,Wed Jun 04 2025 09:56:15 GMT-0500 (Central Daylight Time),636122.8999999762,039_o_m_d_a.png,O,z,767,3,1,1791.2000000476837,634331.6999999285,7158,VNB,A,1
2,test,5,1.0,2-Back,1,m,Wed Jun 04 2025 09:56:15 GMT-0500 (Central Daylight Time),638654.6999999285,139_m_f_n_a.png,O,m,1469,4,1,2497.1999999284744,636157.5,7158,VNB,A,2
3,test,5,0.0,2-Back,1,m,Wed Jun 04 2025 09:56:15 GMT-0500 (Central Daylight Time),640903.7999999523,165_m_m_h_a.png,O,m,1209,5,1,2233.5,638670.2999999523,7158,VNB,A,3
4,test,5,0.0,2-Back,1,z,Wed Jun 04 2025 09:56:15 GMT-0500 (Central Daylight Time),642903.7999999523,071_y_f_n_a.png,O,z,970,6,1,1990.0,640913.7999999523,7158,VNB,A,4
5,test,5,0.0,2-Back,1,m,Wed Jun 04 2025 09:56:15 GMT-0500 (Central Daylight Time),645735.8999999762,124_o_f_d_a.png,O,m,1785,7,1,2810.600000023842,642925.2999999523,7158,VNB,A,5
5,test,5,0.0,2-Back,0,m,Wed Jun 04 2025 09:56:15 GMT-0500 (Central Daylight Time),648452.1999999285,039_o_m_h_a.png,O,z,1673,8,1,2701.0,645751.1999999285,7158,VNB,A,6
6,test,5,1.0,2-Back,1,z,Wed Jun 04 2025 09:56:15 GMT-0500 (Central Daylight Time),650617.3999999762,139_m_f_d_a.png,O,z,1100,9,1,2129.2999999523163,648488.1000000238,7158,VNB,A,7
7,test,5,0.0,2-Back,1,m,Wed Jun 04 2025 09:56:15 GMT-0500 (Central Daylight Time),652533.6000000238,109_y_m_n_a.png,O,m,888,10,1,1906.2000000476837,650627.3999999762,7158,VNB,A,8
7,test,5,0.0,2-Back,0,m,Wed Jun 04 2025 09:56:15 GMT-0500 (Central Daylight Time),654749.1999999285,165_m_m_n_a.png,O,z,1156,11,1,2181.5999999046326,652567.6000000238,7158,VNB,A,9
7,test,5,0.0,2-Back,0,m,Wed Jun 04 2025 09:56:15 GMT-0500 (Central Daylight Time),656766.1000000238,071_y_f_h_a.png,O,z,988,12,1,2007.0,654759.1000000238,7158,VNB,A,10
8,test,5,0.0,2-Back,1,m,Wed Jun 04 2025 09:56:15 GMT-0500 (Central Daylight Time),658647.3999999762,109_y_m_d_a.png,O,m,832,13,1,1848.6000000238419,656798.7999999523,7158,VNB,A,11
9,test,5,1.0,2-Back,1,z,Wed Jun 04 2025 09:56:15 GMT-0500 (Central Daylight Time),660715.0,139_m_f_h_a.png,O,z,1036,14,1,2056.3000000715256,658658.6999999285,7158,VNB,A,12
9,test,5,0.0,2-Back,0,m,Wed Jun 04 2025 09:56:15 GMT-0500 (Central Daylight Time),662747.5,039_o_m_n_a.png,O,z,969,15,1,1990.5,660757.0,7158,VNB,A,13
10,test,5,0.0,2-Back,1,m,Wed Jun 04 2025 09:56:15 GMT-0500 (Central Daylight Time),664430.2999999523,165_m_m_d_a.png,O,m,638,16,1,1657.6999999284744,662772.6000000238,7158,VNB,A,14
11,test,5,0.0,2-Back,1,z,Wed Jun 04 2025 09:56:15 GMT-0500 (Central Daylight Time),666413.6000000238,124_o_f_n_a.png,O,z,948,17,1,1952.9000000953674,664460.6999999285,7158,VNB,A,15
12,test,5,1.0,2-Back,1,m,Wed Jun 04 2025 09:56:15 GMT-0500 (Central Daylight Time),668078.8999999762,109_y_m_h_a.png,O,m,614,18,1,1628.6000000238419,666450.2999999523,7158,VNB,A,16
