Q,Q1,Q2,Q3,Q4,acc_sum,block,block_c,correct,correct_response,datetime,endtime,project,response,response_time,row_sel,session_number,squiggle1,squiggle1x,squiggle1y,squiggle2,squiggle2x,squiggle2y,squiggle3,squiggle3x,squiggle3y,squiggle4,squiggle4x,squiggle4y,start_end,starttime,subject_id,target_congruent,task,task_vers,testsquiggle,testsquigglex,testsquiggley,time_practice_delay,time_practice_fixation,time_practice_stimuli,time_practice_study,time_test_delay,time_test_fixation,time_test_stimuli,time_test_study,trial
1,1,0,0,0,0,prac,1,0,z,Thu Mar 26 2026 11:41:51 GMT-0500 (Central Daylight Time),137831.09999999404,O,m,1315,1,1,116.bmp,-120,-120,117.bmp,120,-120,118.bmp,-120,120,119.bmp,120,120,10127.40000000596,127703.69999998808,7779,yes,SM,A,116.bmp,-120,-120,129396,123366,131411,125379,,,,,1
3,0,0,1,0,0,prac,1,0,m,Thu Mar 26 2026 11:41:51 GMT-0500 (Central Daylight Time),147911.19999998808,O,z,1265,2,1,120.bmp,-120,-120,121.bmp,120,-120,122.bmp,-120,120,123.bmp,120,120,10076.29999999702,137834.89999999106,7779,no,SM,A,123.bmp,-120,120,139525,133497,141541,135509,,,,,2
4,0,0,0,1,1,prac,1,1,m,Thu Mar 26 2026 11:41:51 GMT-0500 (Central Daylight Time),158391.29999999702,O,m,1650,3,1,124.bmp,-120,-120,125.bmp,120,-120,126.bmp,-120,120,127.bmp,120,120,10476.60000000894,147914.69999998808,7779,no,SM,A,124.bmp,120,120,149604,143577,151621,145589,,,,,3
2,0,1,0,0,2,prac,1,1,z,Thu Mar 26 2026 11:41:51 GMT-0500 (Central Daylight Time),168938.0,O,z,1722,4,1,128.bmp,-120,-120,129.bmp,120,-120,130.bmp,-120,120,131.bmp,120,120,10542.90000000596,158395.09999999404,7779,yes,SM,A,129.bmp,120,-120,160085,154057,162101,156069,,,,,4
3,0,0,1,0,3,prac,1,1,z,Thu Mar 26 2026 11:41:51 GMT-0500 (Central Daylight Time),179368.29999999702,O,z,1615,5,1,132.bmp,-120,-120,133.bmp,120,-120,134.bmp,-120,120,135.bmp,120,120,10426.79999999702,168941.5,7779,yes,SM,A,134.bmp,-120,120,170631,164604,172648,166616,,,,,5
1,1,0,0,0,4,prac,1,1,m,Thu Mar 26 2026 11:41:51 GMT-0500 (Central Daylight Time),189964.79999999702,O,m,1777,6,1,136.bmp,-120,-120,137.bmp,120,-120,138.bmp,-120,120,139.bmp,120,120,10593.20000000298,179371.59999999404,7779,no,SM,A,139.bmp,-120,-120,181062,175034,183078,177046,,,,,6
2,0,1,0,0,4,prac,1,0,m,Thu Mar 26 2026 11:41:51 GMT-0500 (Central Daylight Time),200679.09999999404,O,z,1884,7,1,140.bmp,-120,-120,141.bmp,120,-120,142.bmp,-120,120,143.bmp,120,120,10711.0,189968.09999999404,7779,no,SM,A,140.bmp,120,-120,191658,185630,193674,187644,,,,,7
4,0,0,0,1,4,prac,1,0,z,Thu Mar 26 2026 11:41:51 GMT-0500 (Central Daylight Time),211508.0,O,None,2016,8,1,144.bmp,-120,-120,145.bmp,120,-120,146.bmp,-120,120,147.bmp,120,120,10824.90000000596,200683.09999999404,7779,yes,SM,A,147.bmp,120,120,202372,196345,204388,198356,,,,,8
4,0,0,0,1,0,test,1,0,m,Thu Mar 26 2026 11:41:51 GMT-0500 (Central Daylight Time),239649.09999999404,O,None,2015,1,1,148.bmp,-120,-120,149.bmp,120,-120,150.bmp,-120,120,143.bmp,120,120,10061.20000000298,229587.89999999106,7779,no,SM,A,150.bmp,120,120,202372,196345,204388,198356,231279.0,225250.0,233296.0,227265.0,1
2,0,1,0,0,0,test,1,0,m,Thu Mar 26 2026 11:41:51 GMT-0500 (Central Daylight Time),249412.89999999106,O,z,1704,2,1,101.bmp,-120,-120,102.bmp,120,-120,103.bmp,-120,120,104.bmp,120,120,9760.39999999106,239652.5,7779,no,SM,A,103.bmp,120,-120,202372,196345,204388,198356,241344.0,235315.0,243359.0,237327.0,2
1,1,0,0,0,1,test,1,1,z,Thu Mar 26 2026 11:41:51 GMT-0500 (Central Daylight Time),259126.19999998808,O,z,1653,3,1,105.bmp,-120,-120,106.bmp,120,-120,107.bmp,-120,120,108.bmp,120,120,9710.5,249415.69999998808,7779,yes,SM,A,105.bmp,-120,-120,202372,196345,204388,198356,251106.0,245078.0,253122.0,247091.0,3
3,0,0,1,0,2,test,1,1,m,Thu Mar 26 2026 11:41:51 GMT-0500 (Central Daylight Time),269106.09999999404,O,m,1931,4,1,109.bmp,-120,-120,110.bmp,120,-120,111.bmp,-120,120,112.bmp,120,120,9975.79999999702,259130.29999999702,7779,no,SM,A,109.bmp,-120,120,202372,196345,204388,198356,260820.0,254793.0,262836.0,256805.0,4
2,0,1,0,0,3,test,1,1,z,Thu Mar 26 2026 11:41:51 GMT-0500 (Central Daylight Time),278420.1999999881,O,z,1254,5,1,113.bmp,-120,-120,114.bmp,120,-120,115.bmp,-120,120,116.bmp,120,120,9310.39999999106,269109.799999997,7779,yes,SM,A,114.bmp,120,-120,202372,196345,204388,198356,270800.0,264772.0,272816.0,266785.0,5
3,0,0,1,0,4,test,1,1,z,Thu Mar 26 2026 11:41:51 GMT-0500 (Central Daylight Time),288033.6999999881,O,z,1564,6,1,117.bmp,-120,-120,118.bmp,120,-120,119.bmp,-120,120,120.bmp,120,120,9610.0,278423.6999999881,7779,yes,SM,A,119.bmp,-120,120,202372,196345,204388,198356,280114.0,274086.0,282130.0,276098.0,6
4,0,0,0,1,4,test,1,0,z,Thu Mar 26 2026 11:41:51 GMT-0500 (Central Daylight Time),297530.89999999106,O,m,1446,7,1,121.bmp,-120,-120,122.bmp,120,-120,123.bmp,-120,120,124.bmp,120,120,9494.20000000298,288036.6999999881,7779,yes,SM,A,124.bmp,120,120,202372,196345,204388,198356,289728.0,283699.0,291744.0,285712.0,7
2,0,1,0,0,5,test,1,1,m,Thu Mar 26 2026 11:41:51 GMT-0500 (Central Daylight Time),307394.5,O,m,1813,8,1,125.bmp,-120,-120,126.bmp,120,-120,127.bmp,-120,120,128.bmp,120,120,9860.0,297534.5,7779,no,SM,A,125.bmp,120,-120,202372,196345,204388,198356,299225.0,293197.0,301241.0,295209.0,8
3,0,0,1,0,6,test,1,1,m,Thu Mar 26 2026 11:41:51 GMT-0500 (Central Daylight Time),317341.09999999404,O,m,1895,9,1,129.bmp,-120,-120,130.bmp,120,-120,131.bmp,-120,120,132.bmp,120,120,9943.29999999702,307397.799999997,7779,no,SM,A,130.bmp,-120,120,202372,196345,204388,198356,309088.0,303060.0,311104.0,305073.0,9
4,0,0,0,1,7,test,1,1,z,Thu Mar 26 2026 11:41:51 GMT-0500 (Central Daylight Time),326755.0,O,z,1355,10,1,137.bmp,-120,-120,138.bmp,120,-120,139.bmp,-120,120,140.bmp,120,120,9410.60000000894,317344.39999999106,7779,yes,SM,A,140.bmp,120,120,202372,196345,204388,198356,319035.0,313007.0,321052.0,315020.0,10
3,0,0,1,0,7,test,1,0,z,Thu Mar 26 2026 11:41:51 GMT-0500 (Central Daylight Time),336818.59999999404,O,None,2016,11,1,133.bmp,-120,-120,134.bmp,120,-120,135.bmp,-120,120,136.bmp,120,120,10060.09999999404,326758.5,7779,yes,SM,A,135.bmp,-120,120,202372,196345,204388,198356,328448.0,322421.0,330465.0,324433.0,11
2,0,1,0,0,7,test,1,0,m,Thu Mar 26 2026 11:41:51 GMT-0500 (Central Daylight Time),346232.1999999881,O,z,1359,12,1,141.bmp,-120,-120,142.bmp,120,-120,143.bmp,-120,120,144.bmp,120,120,9409.79999999702,336822.39999999106,7779,no,SM,A,141.bmp,120,-120,202372,196345,204388,198356,338513.0,332485.0,340528.0,334497.0,12
3,0,0,1,0,8,test,1,1,m,Thu Mar 26 2026 11:41:51 GMT-0500 (Central Daylight Time),355929.09999999404,O,m,1633,13,1,145.bmp,-120,-120,146.bmp,120,-120,147.bmp,-120,120,148.bmp,120,120,9693.5,346235.59999999404,7779,no,SM,A,146.bmp,-120,120,202372,196345,204388,198356,347926.0,341898.0,349942.0,343912.0,13
1,1,0,0,0,8,test,1,0,z,Thu Mar 26 2026 11:41:51 GMT-0500 (Central Daylight Time),365992.89999999106,O,None,2016,14,1,149.bmp,-120,-120,150.bmp,120,-120,104.bmp,-120,120,101.bmp,120,120,10060.0,355932.89999999106,7779,yes,SM,A,149.bmp,-120,-120,202372,196345,204388,198356,357623.0,351595.0,359639.0,353609.0,14
4,0,0,0,1,8,test,1,0,m,Thu Mar 26 2026 11:41:51 GMT-0500 (Central Daylight Time),376056.0,O,None,2015,15,1,110.bmp,-120,-120,111.bmp,120,-120,112.bmp,-120,120,113.bmp,120,120,10059.10000000894,365996.89999999106,7779,no,SM,A,111.bmp,120,120,202372,196345,204388,198356,367686.0,361659.0,369703.0,363671.0,15
1,1,0,0,0,8,test,1,0,m,Thu Mar 26 2026 11:41:51 GMT-0500 (Central Daylight Time),386036.39999999106,O,z,1920,16,1,102.bmp,-120,-120,103.bmp,120,-120,104.bmp,-120,120,105.bmp,120,120,9977.0,376059.39999999106,7779,no,SM,A,105.bmp,-120,-120,202372,196345,204388,198356,377750.0,371722.0,379766.0,373735.0,16
3,0,0,1,0,8,test,1,0,m,Thu Mar 26 2026 11:41:51 GMT-0500 (Central Daylight Time),396100.1999999881,O,None,2016,17,1,122.bmp,-120,-120,123.bmp,120,-120,124.bmp,-120,120,125.bmp,120,120,10060.79999999702,386039.39999999106,7779,no,SM,A,122.bmp,-120,120,202372,196345,204388,198356,387730.0,381702.0,389746.0,383715.0,17
1,1,0,0,0,8,test,1,0,z,Thu Mar 26 2026 11:41:51 GMT-0500 (Central Daylight Time),406163.1999999881,O,None,2014,18,1,106.bmp,-120,-120,107.bmp,120,-120,108.bmp,-120,120,109.bmp,120,120,10058.59999999404,396104.59999999404,7779,yes,SM,A,106.bmp,-120,-120,202372,196345,204388,198356,397794.0,391767.0,399811.0,393778.0,18
2,0,1,0,0,9,test,1,1,z,Thu Mar 26 2026 11:41:51 GMT-0500 (Central Daylight Time),415527.1999999881,O,z,1301,19,1,126.bmp,-120,-120,127.bmp,120,-120,128.bmp,-120,120,129.bmp,120,120,9360.699999988079,406166.5,7779,yes,SM,A,127.bmp,120,-120,202372,196345,204388,198356,407858.0,401829.0,409873.0,403842.0,19
3,0,0,1,0,10,test,1,1,z,Thu Mar 26 2026 11:41:51 GMT-0500 (Central Daylight Time),424825.6999999881,O,z,1233,20,1,130.bmp,-120,-120,131.bmp,120,-120,132.bmp,-120,120,133.bmp,120,120,9294.699999988079,415531.0,7779,yes,SM,A,132.bmp,-120,120,202372,196345,204388,198356,417221.0,411193.0,419237.0,413206.0,20
1,1,0,0,0,11,test,1,1,m,Thu Mar 26 2026 11:41:51 GMT-0500 (Central Daylight Time),434371.299999997,O,m,1489,21,1,114.bmp,-120,-120,115.bmp,120,-120,116.bmp,-120,120,117.bmp,120,120,9542.90000000596,424828.39999999106,7779,no,SM,A,116.bmp,-120,-120,202372,196345,204388,198356,426518.0,420491.0,428534.0,422503.0,21
4,0,0,0,1,12,test,1,1,z,Thu Mar 26 2026 11:41:51 GMT-0500 (Central Daylight Time),443568.799999997,O,z,1150,22,1,118.bmp,-120,-120,119.bmp,120,-120,120.bmp,-120,120,121.bmp,120,120,9194.5,434374.299999997,7779,yes,SM,A,121.bmp,120,120,202372,196345,204388,198356,436065.0,430037.0,438081.0,432050.0,22
1,1,0,0,0,12,test,1,0,m,Thu Mar 26 2026 11:41:51 GMT-0500 (Central Daylight Time),452815.5,O,z,1184,23,1,134.bmp,-120,-120,135.bmp,120,-120,136.bmp,-120,120,137.bmp,120,120,9243.70000000298,443571.799999997,7779,no,SM,A,137.bmp,-120,-120,202372,196345,204388,198356,445262.0,439234.0,447278.0,441247.0,23
2,0,1,0,0,13,test,1,1,z,Thu Mar 26 2026 11:41:51 GMT-0500 (Central Daylight Time),462029.299999997,O,z,1152,24,1,142.bmp,-120,-120,143.bmp,120,-120,144.bmp,-120,120,145.bmp,120,120,9210.90000000596,452818.39999999106,7779,yes,SM,A,143.bmp,120,-120,202372,196345,204388,198356,454509.0,448481.0,456526.0,450494.0,24
4,0,0,0,1,14,test,1,1,m,Thu Mar 26 2026 11:41:51 GMT-0500 (Central Daylight Time),471443.0,O,m,1356,25,1,146.bmp,-120,-120,147.bmp,120,-120,148.bmp,-120,120,149.bmp,120,120,9409.60000000894,462033.39999999106,7779,no,SM,A,148.bmp,120,120,202372,196345,204388,198356,463723.0,457696.0,465739.0,459708.0,25
1,1,0,0,0,15,test,1,1,z,Thu Mar 26 2026 11:41:51 GMT-0500 (Central Daylight Time),481073.1999999881,O,z,1582,26,1,138.bmp,-120,-120,139.bmp,120,-120,140.bmp,-120,120,141.bmp,120,120,9626.699999988079,471446.5,7779,yes,SM,A,138.bmp,-120,-120,202372,196345,204388,198356,473137.0,467109.0,475153.0,469121.0,26
4,0,0,0,1,16,test,1,1,z,Thu Mar 26 2026 11:41:51 GMT-0500 (Central Daylight Time),490003.799999997,O,z,880,27,1,150.bmp,-120,-120,111.bmp,120,-120,101.bmp,-120,120,102.bmp,120,120,8927.20000000298,481076.59999999404,7779,yes,SM,A,102.bmp,120,120,202372,196345,204388,198356,482767.0,476739.0,484783.0,478752.0,27
3,0,0,1,0,16,test,1,0,m,Thu Mar 26 2026 11:41:51 GMT-0500 (Central Daylight Time),499567.59999999404,O,z,1500,28,1,103.bmp,-120,-120,104.bmp,120,-120,105.bmp,-120,120,106.bmp,120,120,9560.09999999404,490007.5,7779,no,SM,A,103.bmp,-120,120,202372,196345,204388,198356,491698.0,485670.0,493714.0,487682.0,28
2,0,1,0,0,17,test,1,1,z,Thu Mar 26 2026 11:41:51 GMT-0500 (Central Daylight Time),508931.1999999881,O,z,1306,29,1,107.bmp,-120,-120,108.bmp,120,-120,109.bmp,-120,120,110.bmp,120,120,9360.199999988079,499571.0,7779,yes,SM,A,108.bmp,120,-120,202372,196345,204388,198356,501261.0,495233.0,503277.0,497246.0,29
3,0,0,1,0,18,test,1,1,z,Thu Mar 26 2026 11:41:51 GMT-0500 (Central Daylight Time),518878.09999999404,O,z,1893,30,1,111.bmp,-120,-120,112.bmp,120,-120,113.bmp,-120,120,114.bmp,120,120,9944.09999999404,508934.0,7779,yes,SM,A,113.bmp,-120,120,202372,196345,204388,198356,510625.0,504596.0,512641.0,506610.0,30
1,1,0,0,0,19,test,1,1,z,Thu Mar 26 2026 11:41:51 GMT-0500 (Central Daylight Time),528575.099999994,O,z,1651,31,1,115.bmp,-120,-120,116.bmp,120,-120,117.bmp,-120,120,118.bmp,120,120,9693.90000000596,518881.1999999881,7779,yes,SM,A,115.bmp,-120,-120,202372,196345,204388,198356,520562.0,514543.0,522572.0,516556.0,31
2,0,1,0,0,20,test,1,1,m,Thu Mar 26 2026 11:41:51 GMT-0500 (Central Daylight Time),537805.5,O,m,1176,32,1,119.bmp,-120,-120,120.bmp,120,-120,121.bmp,-120,120,122.bmp,120,120,9227.300000011921,528578.1999999881,7779,no,SM,A,119.bmp,120,-120,202372,196345,204388,198356,530269.0,524240.0,532286.0,526254.0,32
4,0,0,0,1,21,test,1,1,z,Thu Mar 26 2026 11:41:51 GMT-0500 (Central Daylight Time),547035.799999997,O,z,1172,33,1,131.bmp,-120,-120,132.bmp,120,-120,133.bmp,-120,120,134.bmp,120,120,9227.20000000298,537808.599999994,7779,yes,SM,A,134.bmp,120,120,202372,196345,204388,198356,539499.0,533471.0,541515.0,535484.0,33
2,0,1,0,0,22,test,1,1,z,Thu Mar 26 2026 11:41:51 GMT-0500 (Central Daylight Time),556099.6999999881,O,z,1012,34,1,123.bmp,-120,-120,124.bmp,120,-120,125.bmp,-120,120,126.bmp,120,120,9061.09999999404,547038.599999994,7779,yes,SM,A,124.bmp,120,-120,202372,196345,204388,198356,548730.0,542701.0,550746.0,544714.0,34
4,0,0,0,1,23,test,1,1,m,Thu Mar 26 2026 11:41:51 GMT-0500 (Central Daylight Time),565263.6999999881,O,m,1101,35,1,127.bmp,-120,-120,128.bmp,120,-120,129.bmp,-120,120,130.bmp,120,120,9160.199999988079,556103.5,7779,no,SM,A,129.bmp,120,120,202372,196345,204388,198356,557794.0,551766.0,559810.0,553778.0,35
3,0,0,1,0,23,test,1,0,m,Thu Mar 26 2026 11:41:51 GMT-0500 (Central Daylight Time),574977.5,O,z,1649,36,1,135.bmp,-120,-120,136.bmp,120,-120,137.bmp,-120,120,138.bmp,120,120,9710.40000000596,565267.099999994,7779,no,SM,A,135.bmp,-120,120,202372,196345,204388,198356,566957.0,560929.0,568973.0,562942.0,36
1,1,0,0,0,24,test,1,1,m,Thu Mar 26 2026 11:41:51 GMT-0500 (Central Daylight Time),584007.8999999911,O,m,967,37,1,139.bmp,-120,-120,140.bmp,120,-120,141.bmp,-120,120,142.bmp,120,120,9026.89999999106,574981.0,7779,no,SM,A,140.bmp,-120,-120,202372,196345,204388,198356,576671.0,570643.0,578687.0,572655.0,37
2,0,1,0,0,25,test,1,1,m,Thu Mar 26 2026 11:41:51 GMT-0500 (Central Daylight Time),593904.6999999881,O,m,1848,38,1,143.bmp,-120,-120,144.bmp,120,-120,145.bmp,-120,120,146.bmp,120,120,9894.0,584010.6999999881,7779,no,SM,A,145.bmp,120,-120,202372,196345,204388,198356,585702.0,579673.0,587718.0,581686.0,38
4,0,0,0,1,26,test,1,1,z,Thu Mar 26 2026 11:41:51 GMT-0500 (Central Daylight Time),603118.3999999911,O,z,1160,39,1,147.bmp,-120,-120,148.bmp,120,-120,149.bmp,-120,120,150.bmp,120,120,9210.70000000298,593907.6999999881,7779,yes,SM,A,150.bmp,120,120,202372,196345,204388,198356,595598.0,589570.0,597614.0,591583.0,39
3,0,0,1,0,26,test,1,0,m,Thu Mar 26 2026 11:41:51 GMT-0500 (Central Daylight Time),612648.6999999881,O,z,1466,40,1,104.bmp,-120,-120,105.bmp,120,-120,106.bmp,-120,120,107.bmp,120,120,9527.29999999702,603121.3999999911,7779,no,SM,A,105.bmp,-120,120,202372,196345,204388,198356,604812.0,598784.0,606828.0,600797.0,40
1,1,0,0,0,27,test,1,1,z,Thu Mar 26 2026 11:41:51 GMT-0500 (Central Daylight Time),621779.099999994,O,z,1073,41,1,108.bmp,-120,-120,109.bmp,120,-120,110.bmp,-120,120,111.bmp,120,120,9127.40000000596,612651.6999999881,7779,yes,SM,A,108.bmp,-120,-120,202372,196345,204388,198356,614342.0,608314.0,616358.0,610327.0,41
4,0,0,0,1,28,test,1,1,z,Thu Mar 26 2026 11:41:51 GMT-0500 (Central Daylight Time),631476.299999997,O,z,1646,42,1,112.bmp,-120,-120,113.bmp,120,-120,114.bmp,-120,120,115.bmp,120,120,9694.20000000298,621782.099999994,7779,yes,SM,A,115.bmp,120,120,202372,196345,204388,198356,623473.0,617444.0,625489.0,619457.0,42
1,1,0,0,0,29,test,1,1,z,Thu Mar 26 2026 11:41:51 GMT-0500 (Central Daylight Time),640540.099999994,O,z,1005,43,1,116.bmp,-120,-120,117.bmp,120,-120,118.bmp,-120,120,119.bmp,120,120,9060.79999999702,631479.299999997,7779,yes,SM,A,116.bmp,-120,-120,202372,196345,204388,198356,633170.0,627142.0,635186.0,629155.0,43
4,0,0,0,1,30,test,1,1,m,Thu Mar 26 2026 11:41:51 GMT-0500 (Central Daylight Time),650070.299999997,O,m,1402,44,1,104.bmp,-120,-120,101.bmp,120,-120,102.bmp,-120,120,103.bmp,120,120,9526.70000000298,640543.599999994,7779,no,SM,A,104.bmp,120,120,202372,196345,204388,198356,642300.0,636206.0,644317.0,638291.0,44
1,1,0,0,0,31,test,1,1,m,Thu Mar 26 2026 11:41:51 GMT-0500 (Central Daylight Time),659584.3999999911,O,m,1459,45,1,128.bmp,-120,-120,129.bmp,120,-120,130.bmp,-120,120,131.bmp,120,120,9510.5,650073.8999999911,7779,no,SM,A,131.bmp,-120,-120,202372,196345,204388,198356,651764.0,645736.0,653780.0,647749.0,45
1,1,0,0,0,32,test,1,1,m,Thu Mar 26 2026 11:41:51 GMT-0500 (Central Daylight Time),669297.599999994,O,m,1657,46,1,120.bmp,-120,-120,121.bmp,120,-120,122.bmp,-120,120,123.bmp,120,120,9710.29999999702,659587.299999997,7779,no,SM,A,121.bmp,-120,-120,202372,196345,204388,198356,661278.0,655250.0,663294.0,657262.0,46
3,0,0,1,0,33,test,1,1,z,Thu Mar 26 2026 11:41:51 GMT-0500 (Central Daylight Time),678961.299999997,O,z,1614,47,1,124.bmp,-120,-120,125.bmp,120,-120,126.bmp,-120,120,127.bmp,120,120,9660.79999999702,669300.5,7779,yes,SM,A,126.bmp,-120,120,202372,196345,204388,198356,670991.0,664963.0,673008.0,666976.0,47
3,0,0,1,0,34,test,1,1,z,Thu Mar 26 2026 11:41:51 GMT-0500 (Central Daylight Time),688208.599999994,O,z,1199,48,1,140.bmp,-120,-120,141.bmp,120,-120,142.bmp,-120,120,143.bmp,120,120,9244.59999999404,678964.0,7779,yes,SM,A,142.bmp,-120,120,202372,196345,204388,198356,680655.0,674626.0,682671.0,676640.0,48
2,0,1,0,0,35,test,1,1,z,Thu Mar 26 2026 11:41:51 GMT-0500 (Central Daylight Time),698088.799999997,O,z,1817,49,1,136.bmp,-120,-120,137.bmp,120,-120,138.bmp,-120,120,139.bmp,120,120,9877.0,688211.799999997,7779,yes,SM,A,137.bmp,120,-120,202372,196345,204388,198356,689902.0,683874.0,691918.0,685887.0,49
3,0,0,1,0,35,test,1,0,m,Thu Mar 26 2026 11:41:51 GMT-0500 (Central Daylight Time),708151.8999999911,O,None,2016,50,1,132.bmp,-120,-120,133.bmp,120,-120,134.bmp,-120,120,135.bmp,120,120,10060.20000000298,698091.6999999881,7779,no,SM,A,132.bmp,-120,120,202372,196345,204388,198356,699782.0,693754.0,701798.0,695767.0,50
2,0,1,0,0,36,test,1,1,z,Thu Mar 26 2026 11:41:51 GMT-0500 (Central Daylight Time),717515.5,O,z,1312,51,1,144.bmp,-120,-120,145.bmp,120,-120,146.bmp,-120,120,147.bmp,120,120,9360.5,708155.0,7779,yes,SM,A,145.bmp,120,-120,202372,196345,204388,198356,709846.0,703817.0,711862.0,705831.0,51
4,0,0,0,1,37,test,1,1,m,Thu Mar 26 2026 11:41:51 GMT-0500 (Central Daylight Time),727562.8999999911,O,m,1998,52,1,148.bmp,-120,-120,149.bmp,120,-120,150.bmp,-120,120,131.bmp,120,120,10044.79999999702,717518.099999994,7779,no,SM,A,148.bmp,120,120,202372,196345,204388,198356,719210.0,713180.0,721225.0,715194.0,52
3,0,0,1,0,38,test,1,1,z,Thu Mar 26 2026 11:41:51 GMT-0500 (Central Daylight Time),737242.799999997,O,z,1622,53,1,101.bmp,-120,-120,102.bmp,120,-120,103.bmp,-120,120,104.bmp,120,120,9676.0,727566.799999997,7779,yes,SM,A,103.bmp,-120,120,202372,196345,204388,198356,729257.0,723229.0,731272.0,725241.0,53
1,1,0,0,0,39,test,1,1,m,Thu Mar 26 2026 11:41:51 GMT-0500 (Central Daylight Time),746840.799999997,O,m,1550,54,1,105.bmp,-120,-120,106.bmp,120,-120,107.bmp,-120,120,108.bmp,120,120,9594.60000000894,737246.1999999881,7779,no,SM,A,107.bmp,-120,-120,202372,196345,204388,198356,738937.0,732908.0,740953.0,734923.0,54
4,0,0,0,1,39,test,1,0,z,Thu Mar 26 2026 11:41:51 GMT-0500 (Central Daylight Time),756903.799999997,O,None,2016,55,1,109.bmp,-120,-120,110.bmp,120,-120,111.bmp,-120,120,112.bmp,120,120,10060.10000000894,746843.6999999881,7779,yes,SM,A,112.bmp,120,120,202372,196345,204388,198356,748534.0,742506.0,750550.0,744518.0,55
2,0,1,0,0,39,test,1,0,m,Thu Mar 26 2026 11:41:51 GMT-0500 (Central Daylight Time),766800.5,O,z,1841,56,1,113.bmp,-120,-120,114.bmp,120,-120,115.bmp,-120,120,116.bmp,120,120,9893.60000000894,756906.8999999911,7779,no,SM,A,113.bmp,120,-120,202372,196345,204388,198356,758597.0,752569.0,760613.0,754582.0,56
4,0,0,0,1,40,test,1,1,m,Thu Mar 26 2026 11:41:51 GMT-0500 (Central Daylight Time),776680.8999999911,O,m,1825,57,1,117.bmp,-120,-120,118.bmp,120,-120,119.bmp,-120,120,120.bmp,120,120,9877.20000000298,766803.6999999881,7779,no,SM,A,118.bmp,120,120,202372,196345,204388,198356,768494.0,762466.0,770510.0,764479.0,57
3,0,0,1,0,41,test,1,1,z,Thu Mar 26 2026 11:41:51 GMT-0500 (Central Daylight Time),786478.6999999881,O,z,1743,58,1,121.bmp,-120,-120,122.bmp,120,-120,123.bmp,-120,120,124.bmp,120,120,9794.89999999106,776683.799999997,7779,yes,SM,A,123.bmp,-120,120,202372,196345,204388,198356,778374.0,772346.0,780391.0,774359.0,58
2,0,1,0,0,41,test,1,0,m,Thu Mar 26 2026 11:41:51 GMT-0500 (Central Daylight Time),796158.1999999881,O,z,1635,59,1,125.bmp,-120,-120,126.bmp,120,-120,127.bmp,-120,120,128.bmp,120,120,9676.5,786481.6999999881,7779,no,SM,A,128.bmp,120,-120,202372,196345,204388,198356,788171.0,782144.0,790172.0,784156.0,59
1,1,0,0,0,42,test,1,1,z,Thu Mar 26 2026 11:41:51 GMT-0500 (Central Daylight Time),806088.3999999911,O,z,1875,60,1,129.bmp,-120,-120,130.bmp,120,-120,131.bmp,-120,120,132.bmp,120,120,9926.5,796161.8999999911,7779,yes,SM,A,129.bmp,-120,-120,202372,196345,204388,198356,797851.0,791824.0,799868.0,793836.0,60
2,0,1,0,0,43,test,1,1,z,Thu Mar 26 2026 11:41:51 GMT-0500 (Central Daylight Time),815768.299999997,O,z,1616,61,1,133.bmp,-120,-120,134.bmp,120,-120,135.bmp,-120,120,136.bmp,120,120,9677.10000000894,806091.1999999881,7779,yes,SM,A,134.bmp,120,-120,202372,196345,204388,198356,807781.0,801754.0,809798.0,803766.0,61
4,0,0,0,1,44,test,1,1,z,Thu Mar 26 2026 11:41:51 GMT-0500 (Central Daylight Time),825049.0,O,z,1224,62,1,141.bmp,-120,-120,142.bmp,120,-120,143.bmp,-120,120,144.bmp,120,120,9277.60000000894,815771.3999999911,7779,yes,SM,A,144.bmp,120,120,202372,196345,204388,198356,817462.0,811434.0,819478.0,813447.0,62
1,1,0,0,0,44,test,1,0,m,Thu Mar 26 2026 11:41:51 GMT-0500 (Central Daylight Time),834962.1999999881,O,z,1747,63,1,145.bmp,-120,-120,146.bmp,120,-120,147.bmp,-120,120,148.bmp,120,120,9910.29999999702,825051.8999999911,7779,no,SM,A,145.bmp,-120,120,202372,196345,204388,198356,826873.0,820714.0,828875.0,822727.0,63
2,0,1,0,0,45,test,1,1,z,Thu Mar 26 2026 11:41:51 GMT-0500 (Central Daylight Time),844059.5,O,z,1039,64,1,149.bmp,-120,-120,150.bmp,120,-120,112.bmp,-120,120,101.bmp,120,120,9094.40000000596,834965.099999994,7779,yes,SM,A,150.bmp,120,-120,202372,196345,204388,198356,836656.0,830627.0,838672.0,832641.0,64
4,0,0,0,1,45,test,1,0,m,Thu Mar 26 2026 11:41:51 GMT-0500 (Central Daylight Time),854123.1999999881,O,None,2016,65,1,102.bmp,-120,-120,103.bmp,120,-120,104.bmp,-120,120,105.bmp,120,120,10061.09999999404,844062.099999994,7779,no,SM,A,104.bmp,120,120,202372,196345,204388,198356,845753.0,839724.0,847769.0,841738.0,65
3,0,0,1,0,46,test,1,1,m,Thu Mar 26 2026 11:41:51 GMT-0500 (Central Daylight Time),863303.6999999881,O,m,1125,66,1,106.bmp,-120,-120,107.bmp,120,-120,108.bmp,-120,120,109.bmp,120,120,9177.699999988079,854126.0,7779,no,SM,A,109.bmp,-120,120,202372,196345,204388,198356,855817.0,849788.0,857833.0,851802.0,66
2,0,1,0,0,47,test,1,1,m,Thu Mar 26 2026 11:41:51 GMT-0500 (Central Daylight Time),872600.6999999881,O,m,1242,67,1,137.bmp,-120,-120,138.bmp,120,-120,139.bmp,-120,120,140.bmp,120,120,9294.199999988079,863306.5,7779,no,SM,A,139.bmp,120,-120,202372,196345,204388,198356,864997.0,858969.0,867013.0,860982.0,67
3,0,0,1,0,48,test,1,1,z,Thu Mar 26 2026 11:41:51 GMT-0500 (Central Daylight Time),881664.299999997,O,z,1016,68,1,110.bmp,-120,-120,111.bmp,120,-120,112.bmp,-120,120,113.bmp,120,120,9060.40000000596,872603.8999999911,7779,yes,SM,A,112.bmp,-120,120,202372,196345,204388,198356,874294.0,868266.0,876310.0,870279.0,68
1,1,0,0,0,49,test,1,1,m,Thu Mar 26 2026 11:41:51 GMT-0500 (Central Daylight Time),890744.8999999911,O,m,1025,69,1,114.bmp,-120,-120,115.bmp,120,-120,116.bmp,-120,120,117.bmp,120,120,9077.59999999404,881667.299999997,7779,no,SM,A,115.bmp,-120,-120,202372,196345,204388,198356,883358.0,877330.0,885374.0,879343.0,69
2,0,1,0,0,50,test,1,1,m,Thu Mar 26 2026 11:41:51 GMT-0500 (Central Daylight Time),899809.0,O,m,1016,70,1,118.bmp,-120,-120,119.bmp,120,-120,120.bmp,-120,120,121.bmp,120,120,9060.70000000298,890748.299999997,7779,no,SM,A,120.bmp,120,-120,202372,196345,204388,198356,892439.0,886411.0,894455.0,888423.0,70
4,0,0,0,1,51,test,1,1,z,Thu Mar 26 2026 11:41:51 GMT-0500 (Central Daylight Time),909788.8999999911,O,z,1819,71,1,122.bmp,-120,-120,123.bmp,120,-120,124.bmp,-120,120,125.bmp,120,120,9977.0,899811.8999999911,7779,yes,SM,A,125.bmp,120,120,202372,196345,204388,198356,901603.0,895474.0,903619.0,897601.0,71
1,1,0,0,0,52,test,1,1,z,Thu Mar 26 2026 11:41:51 GMT-0500 (Central Daylight Time),918903.099999994,O,z,1052,72,1,126.bmp,-120,-120,127.bmp,120,-120,128.bmp,-120,120,129.bmp,120,120,9111.20000000298,909791.8999999911,7779,yes,SM,A,126.bmp,-120,-120,202372,196345,204388,198356,911482.0,905454.0,913499.0,907467.0,72
2,0,1,0,0,53,test,1,1,z,Thu Mar 26 2026 11:41:51 GMT-0500 (Central Daylight Time),928133.5,O,z,1178,73,1,130.bmp,-120,-120,131.bmp,120,-120,132.bmp,-120,120,133.bmp,120,120,9227.5,918906.0,7779,yes,SM,A,131.bmp,120,-120,202372,196345,204388,198356,920597.0,914568.0,922613.0,916582.0,73
4,0,0,0,1,54,test,1,1,m,Thu Mar 26 2026 11:41:51 GMT-0500 (Central Daylight Time),937280.5,O,m,1099,74,1,134.bmp,-120,-120,135.bmp,120,-120,136.bmp,-120,120,137.bmp,120,120,9144.20000000298,928136.299999997,7779,no,SM,A,136.bmp,120,120,202372,196345,204388,198356,929827.0,923799.0,931843.0,925811.0,74
2,0,1,0,0,54,test,1,0,m,Thu Mar 26 2026 11:41:51 GMT-0500 (Central Daylight Time),947343.8999999911,O,None,2016,75,1,138.bmp,-120,-120,139.bmp,120,-120,140.bmp,-120,120,141.bmp,120,120,10060.70000000298,937283.1999999881,7779,no,SM,A,141.bmp,120,-120,202372,196345,204388,198356,938974.0,932945.0,940990.0,934958.0,75
1,1,0,0,0,55,test,1,1,z,Thu Mar 26 2026 11:41:51 GMT-0500 (Central Daylight Time),956174.3999999911,O,z,768,76,1,142.bmp,-120,-120,143.bmp,120,-120,144.bmp,-120,120,145.bmp,120,120,8827.39999999106,947347.0,7779,yes,SM,A,142.bmp,-120,-120,202372,196345,204388,198356,949038.0,943009.0,951054.0,945026.0,76
3,0,0,1,0,56,test,1,1,z,Thu Mar 26 2026 11:41:51 GMT-0500 (Central Daylight Time),966038.099999994,O,z,1809,77,1,150.bmp,-120,-120,111.bmp,120,-120,101.bmp,-120,120,102.bmp,120,120,9860.79999999702,956177.299999997,7779,yes,SM,A,101.bmp,-120,120,202372,196345,204388,198356,957869.0,951840.0,959885.0,953853.0,77
1,1,0,0,0,56,test,1,0,m,Thu Mar 26 2026 11:41:51 GMT-0500 (Central Daylight Time),976101.6999999881,O,None,2015,78,1,146.bmp,-120,-120,147.bmp,120,-120,148.bmp,-120,120,149.bmp,120,120,10060.699999988079,966041.0,7779,no,SM,A,147.bmp,-120,-120,202372,196345,204388,198356,967732.0,961703.0,969749.0,963716.0,78
4,0,0,0,1,57,test,1,1,m,Thu Mar 26 2026 11:41:51 GMT-0500 (Central Daylight Time),985549.799999997,O,m,1395,79,1,107.bmp,-120,-120,108.bmp,120,-120,109.bmp,-120,120,110.bmp,120,120,9444.29999999702,976105.5,7779,no,SM,A,107.bmp,120,120,202372,196345,204388,198356,977795.0,971768.0,979811.0,973780.0,79
3,0,0,1,0,58,test,1,1,m,Thu Mar 26 2026 11:41:51 GMT-0500 (Central Daylight Time),995112.1999999881,O,m,1515,80,1,103.bmp,-120,-120,104.bmp,120,-120,105.bmp,-120,120,106.bmp,120,120,9559.0,985553.1999999881,7779,no,SM,A,106.bmp,-120,120,202372,196345,204388,198356,987242.0,981215.0,989259.0,983227.0,80
