Q,Q1,Q2,Q3,Q4,acc_sum,block,block_c,correct,correct_response,datetime,endtime,project,response,response_time,row_sel,session_number,squiggle1,squiggle1x,squiggle1y,squiggle2,squiggle2x,squiggle2y,squiggle3,squiggle3x,squiggle3y,squiggle4,squiggle4x,squiggle4y,start_end,starttime,subject_id,target_congruent,task,task_vers,testsquiggle,testsquigglex,testsquiggley,time_practice_delay,time_practice_fixation,time_practice_stimuli,time_practice_study,time_test_delay,time_test_fixation,time_test_stimuli,time_test_study,trial
1,1,0,0,0,0,prac,1,0,z,Tue May 12 2026 11:10:24 GMT-0500 (Central Daylight Time),172877.60000002384,O,None,2015,1,1,116.bmp,-120,-120,117.bmp,120,-120,118.bmp,-120,120,119.bmp,120,120,10825.200000047684,162052.39999997616,7806,yes,SM,A,116.bmp,-120,-120,165745,159718,167761,161729,,,,,1
3,0,0,1,0,0,prac,1,0,m,Tue May 12 2026 11:10:24 GMT-0500 (Central Daylight Time),183440.79999995232,O,z,1758,2,1,120.bmp,-120,-120,121.bmp,120,-120,122.bmp,-120,120,123.bmp,120,120,10558.199999928474,172882.60000002384,7806,no,SM,A,123.bmp,-120,120,176572,170548,178574,172559,,,,,2
4,0,0,0,1,0,prac,1,0,m,Tue May 12 2026 11:10:24 GMT-0500 (Central Daylight Time),194271.60000002384,O,None,2016,3,1,124.bmp,-120,-120,125.bmp,120,-120,126.bmp,-120,120,127.bmp,120,120,10824.800000071526,183446.79999995232,7806,no,SM,A,124.bmp,120,120,187138,181112,189154,183122,,,,,3
2,0,1,0,0,0,prac,1,0,z,Tue May 12 2026 11:10:24 GMT-0500 (Central Daylight Time),205065.79999995232,O,None,2001,4,1,128.bmp,-120,-120,129.bmp,120,-120,130.bmp,-120,120,131.bmp,120,120,10789.799999952316,194276.0,7806,yes,SM,A,129.bmp,120,-120,197966,191941,199967,193953,,,,,4
3,0,0,1,0,1,prac,1,1,z,Tue May 12 2026 11:10:24 GMT-0500 (Central Daylight Time),214880.19999992847,O,z,1014,5,1,132.bmp,-120,-120,133.bmp,120,-120,134.bmp,-120,120,135.bmp,120,120,9810.5,205069.69999992847,7806,yes,SM,A,134.bmp,-120,120,208764,202735,210765,204748,,,,,5
1,1,0,0,0,2,prac,1,1,m,Tue May 12 2026 11:10:24 GMT-0500 (Central Daylight Time),225311.79999995232,O,m,1609,6,1,136.bmp,-120,-120,137.bmp,120,-120,138.bmp,-120,120,139.bmp,120,120,10428.399999976158,214883.39999997616,7806,no,SM,A,139.bmp,-120,-120,218578,212549,220594,214562,,,,,6
2,0,1,0,0,3,prac,1,1,m,Tue May 12 2026 11:10:24 GMT-0500 (Central Daylight Time),236126.29999995232,O,m,1987,7,1,140.bmp,-120,-120,141.bmp,120,-120,142.bmp,-120,120,143.bmp,120,120,10809.699999928474,225316.60000002384,7806,no,SM,A,140.bmp,120,-120,229008,222982,231024,224992,,,,,7
4,0,0,0,1,3,prac,1,0,z,Tue May 12 2026 11:10:24 GMT-0500 (Central Daylight Time),246953.19999992847,O,None,2014,8,1,144.bmp,-120,-120,145.bmp,120,-120,146.bmp,-120,120,147.bmp,120,120,10822.5,236130.69999992847,7806,yes,SM,A,147.bmp,120,120,239821,233796,241838,235804,,,,,8
1,1,0,0,0,1,prac,2,1,z,Tue May 12 2026 11:10:24 GMT-0500 (Central Daylight Time),261549.10000002384,O,z,1970,1,1,116.bmp,-120,-120,117.bmp,120,-120,118.bmp,-120,120,119.bmp,120,120,10792.700000047684,250756.39999997616,7806,yes,SM,A,116.bmp,-120,-120,254450,248422,256464,250437,,,,,1
3,0,0,1,0,1,prac,2,0,m,Tue May 12 2026 11:10:24 GMT-0500 (Central Daylight Time),272363.60000002384,O,None,2016,2,1,120.bmp,-120,-120,121.bmp,120,-120,122.bmp,-120,120,123.bmp,120,120,10809.800000071526,261553.79999995232,7806,no,SM,A,123.bmp,-120,120,265245,259219,267246,261231,,,,,2
4,0,0,0,1,2,prac,2,1,m,Tue May 12 2026 11:10:24 GMT-0500 (Central Daylight Time),283076.0,O,m,1896,3,1,124.bmp,-120,-120,125.bmp,120,-120,126.bmp,-120,120,127.bmp,120,120,10706.600000023842,272369.39999997616,7806,no,SM,A,124.bmp,120,120,276060,270035,278075,272045,,,,,3
2,0,1,0,0,3,prac,2,1,z,Tue May 12 2026 11:10:24 GMT-0500 (Central Daylight Time),293822.60000002384,O,z,1925,4,1,128.bmp,-120,-120,129.bmp,120,-120,130.bmp,-120,120,131.bmp,120,120,10742.100000023842,283080.5,7806,yes,SM,A,129.bmp,120,-120,286773,280746,288790,282758,,,,,4
3,0,0,1,0,4,prac,2,1,z,Tue May 12 2026 11:10:24 GMT-0500 (Central Daylight Time),304419.89999997616,O,z,1787,5,1,132.bmp,-120,-120,133.bmp,120,-120,134.bmp,-120,120,135.bmp,120,120,10592.200000047684,293827.6999999285,7806,yes,SM,A,134.bmp,-120,120,297517,291493,299519,293504,,,,,5
1,1,0,0,0,5,prac,2,1,m,Tue May 12 2026 11:10:24 GMT-0500 (Central Daylight Time),314732.6999999285,O,m,1486,6,1,136.bmp,-120,-120,137.bmp,120,-120,138.bmp,-120,120,139.bmp,120,120,10308.899999976158,304423.7999999523,7806,no,SM,A,139.bmp,-120,-120,308117,302089,310133,304100,,,,,6
2,0,1,0,0,6,prac,2,1,m,Tue May 12 2026 11:10:24 GMT-0500 (Central Daylight Time),325212.60000002384,O,m,1653,7,1,140.bmp,-120,-120,141.bmp,120,-120,142.bmp,-120,120,143.bmp,120,120,10476.700000047684,314735.89999997616,7806,no,SM,A,140.bmp,120,-120,318429,312401,320446,314415,,,,,7
4,0,0,0,1,7,prac,2,1,z,Tue May 12 2026 11:10:24 GMT-0500 (Central Daylight Time),335725.7999999523,O,z,1686,8,1,144.bmp,-120,-120,145.bmp,120,-120,146.bmp,-120,120,147.bmp,120,120,10508.899999976158,325216.89999997616,7806,yes,SM,A,147.bmp,120,120,328909,322882,330925,324894,,,,,8
4,0,0,0,1,1,test,1,1,m,Tue May 12 2026 11:10:24 GMT-0500 (Central Daylight Time),361402.6999999285,O,m,1636,1,1,148.bmp,-120,-120,149.bmp,120,-120,150.bmp,-120,120,143.bmp,120,120,9696.5,351706.1999999285,7806,no,SM,A,150.bmp,120,120,328909,322882,330925,324894,355401.0,349371.0,357416.0,351385.0,1
2,0,1,0,0,2,test,1,1,m,Tue May 12 2026 11:10:24 GMT-0500 (Central Daylight Time),371364.6999999285,O,m,1907,2,1,101.bmp,-120,-120,102.bmp,120,-120,103.bmp,-120,120,104.bmp,120,120,9958.899999976158,361405.7999999523,7806,no,SM,A,103.bmp,120,-120,328909,322882,330925,324894,365097.0,359071.0,367113.0,361081.0,2
1,1,0,0,0,3,test,1,1,z,Tue May 12 2026 11:10:24 GMT-0500 (Central Daylight Time),381294.2999999523,O,z,1871,3,1,105.bmp,-120,-120,106.bmp,120,-120,107.bmp,-120,120,108.bmp,120,120,9924.899999976158,371369.39999997616,7806,yes,SM,A,105.bmp,-120,-120,328909,322882,330925,324894,375060.0,369035.0,377076.0,371047.0,3
3,0,0,1,0,3,test,1,0,m,Tue May 12 2026 11:10:24 GMT-0500 (Central Daylight Time),391357.2999999523,O,None,2015,4,1,109.bmp,-120,-120,110.bmp,120,-120,111.bmp,-120,120,112.bmp,120,120,10056.600000023842,381300.6999999285,7806,no,SM,A,109.bmp,-120,120,328909,322882,330925,324894,384990.0,378966.0,387007.0,380975.0,4
2,0,1,0,0,4,test,1,1,z,Tue May 12 2026 11:10:24 GMT-0500 (Central Daylight Time),401338.6999999285,O,z,1939,5,1,113.bmp,-120,-120,114.bmp,120,-120,115.bmp,-120,120,116.bmp,120,120,9973.899999976158,391364.7999999523,7806,yes,SM,A,114.bmp,120,-120,328909,322882,330925,324894,395054.0,389030.0,397056.0,391039.0,5
3,0,0,1,0,5,test,1,1,z,Tue May 12 2026 11:10:24 GMT-0500 (Central Daylight Time),410918.0,O,z,1528,6,1,117.bmp,-120,-120,118.bmp,120,-120,119.bmp,-120,120,120.bmp,120,120,9577.300000071526,401340.6999999285,7806,yes,SM,A,119.bmp,-120,120,328909,322882,330925,324894,405035.0,399006.0,407051.0,401019.0,6
4,0,0,0,1,6,test,1,1,z,Tue May 12 2026 11:10:24 GMT-0500 (Central Daylight Time),420630.7999999523,O,z,1658,7,1,121.bmp,-120,-120,122.bmp,120,-120,123.bmp,-120,120,124.bmp,120,120,9708.899999976158,410921.89999997616,7806,yes,SM,A,124.bmp,120,120,328909,322882,330925,324894,414616.0,408587.0,416632.0,410601.0,7
2,0,1,0,0,6,test,1,0,m,Tue May 12 2026 11:10:24 GMT-0500 (Central Daylight Time),430694.2999999523,O,None,2013,8,1,125.bmp,-120,-120,126.bmp,120,-120,127.bmp,-120,120,128.bmp,120,120,10061.399999976158,420632.89999997616,7806,no,SM,A,125.bmp,120,-120,328909,322882,330925,324894,424329.0,418298.0,426346.0,420314.0,8
3,0,0,1,0,7,test,1,1,m,Tue May 12 2026 11:10:24 GMT-0500 (Central Daylight Time),440442.1999999285,O,m,1707,9,1,129.bmp,-120,-120,130.bmp,120,-120,131.bmp,-120,120,132.bmp,120,120,9745.5,430696.6999999285,7806,no,SM,A,130.bmp,-120,120,328909,322882,330925,324894,434375.0,428362.0,436391.0,430363.0,9
4,0,0,0,1,8,test,1,1,z,Tue May 12 2026 11:10:24 GMT-0500 (Central Daylight Time),450440.60000002384,O,z,1935,10,1,137.bmp,-120,-120,138.bmp,120,-120,139.bmp,-120,120,140.bmp,120,120,9996.5,440444.10000002384,7806,yes,SM,A,140.bmp,120,120,328909,322882,330925,324894,444138.0,438109.0,446155.0,440124.0,10
3,0,0,1,0,9,test,1,1,z,Tue May 12 2026 11:10:24 GMT-0500 (Central Daylight Time),460036.6999999285,O,z,1538,11,1,133.bmp,-120,-120,134.bmp,120,-120,135.bmp,-120,120,136.bmp,120,120,9593.0,450443.6999999285,7806,yes,SM,A,135.bmp,-120,120,328909,322882,330925,324894,454139.0,448109.0,456153.0,450122.0,11
2,0,1,0,0,9,test,1,0,m,Tue May 12 2026 11:10:24 GMT-0500 (Central Daylight Time),470100.1999999285,O,None,2014,12,1,141.bmp,-120,-120,142.bmp,120,-120,143.bmp,-120,120,144.bmp,120,120,10059.899999976158,460040.2999999523,7806,no,SM,A,141.bmp,120,-120,328909,322882,330925,324894,463733.0,457706.0,465751.0,459717.0,12
3,0,0,1,0,10,test,1,1,m,Tue May 12 2026 11:10:24 GMT-0500 (Central Daylight Time),479995.6999999285,O,m,1853,13,1,145.bmp,-120,-120,146.bmp,120,-120,147.bmp,-120,120,148.bmp,120,120,9890.899999976158,470104.7999999523,7806,no,SM,A,146.bmp,-120,120,328909,322882,330925,324894,473796.0,467770.0,475798.0,469782.0,13
1,1,0,0,0,10,test,1,0,z,Tue May 12 2026 11:10:24 GMT-0500 (Central Daylight Time),490059.89999997616,O,None,2016,14,1,149.bmp,-120,-120,150.bmp,120,-120,104.bmp,-120,120,101.bmp,120,120,10060.5,479999.39999997616,7806,yes,SM,A,149.bmp,-120,-120,328909,322882,330925,324894,483692.0,477665.0,485709.0,479678.0,14
4,0,0,0,1,10,test,1,0,m,Tue May 12 2026 11:10:24 GMT-0500 (Central Daylight Time),499706.60000002384,O,z,1585,15,1,110.bmp,-120,-120,111.bmp,120,-120,112.bmp,-120,120,113.bmp,120,120,9641.800000071526,490064.7999999523,7806,no,SM,A,111.bmp,120,120,328909,322882,330925,324894,493756.0,487730.0,495772.0,489740.0,15
1,1,0,0,0,10,test,1,0,m,Tue May 12 2026 11:10:24 GMT-0500 (Central Daylight Time),509370.2999999523,O,z,1608,16,1,102.bmp,-120,-120,103.bmp,120,-120,104.bmp,-120,120,105.bmp,120,120,9657.100000023842,499713.1999999285,7806,no,SM,A,105.bmp,-120,-120,328909,322882,330925,324894,503404.0,497379.0,505420.0,499388.0,16
3,0,0,1,0,10,test,1,0,m,Tue May 12 2026 11:10:24 GMT-0500 (Central Daylight Time),519435.7999999523,O,None,2014,17,1,122.bmp,-120,-120,123.bmp,120,-120,124.bmp,-120,120,125.bmp,120,120,10060.399999976158,509375.39999997616,7806,no,SM,A,122.bmp,-120,120,328909,322882,330925,324894,513068.0,507041.0,515087.0,509051.0,17
1,1,0,0,0,11,test,1,1,z,Tue May 12 2026 11:10:24 GMT-0500 (Central Daylight Time),528830.5,O,z,1335,18,1,106.bmp,-120,-120,107.bmp,120,-120,108.bmp,-120,120,109.bmp,120,120,9390.899999976158,519439.60000002384,7806,yes,SM,A,106.bmp,-120,-120,328909,322882,330925,324894,523131.0,517105.0,525148.0,519116.0,18
2,0,1,0,0,12,test,1,1,z,Tue May 12 2026 11:10:24 GMT-0500 (Central Daylight Time),538077.8999999762,O,z,1183,19,1,126.bmp,-120,-120,127.bmp,120,-120,128.bmp,-120,120,129.bmp,120,120,9243.600000023842,528834.2999999523,7806,yes,SM,A,127.bmp,120,-120,328909,322882,330925,324894,532527.0,526499.0,534544.0,528511.0,19
3,0,0,1,0,13,test,1,1,z,Tue May 12 2026 11:10:24 GMT-0500 (Central Daylight Time),547791.5,O,z,1658,20,1,130.bmp,-120,-120,131.bmp,120,-120,132.bmp,-120,120,133.bmp,120,120,9709.800000071526,538081.6999999285,7806,yes,SM,A,132.bmp,-120,120,328909,322882,330925,324894,541774.0,535747.0,543792.0,537760.0,20
1,1,0,0,0,14,test,1,1,m,Tue May 12 2026 11:10:24 GMT-0500 (Central Daylight Time),557588.6999999285,O,m,1746,21,1,114.bmp,-120,-120,115.bmp,120,-120,116.bmp,-120,120,117.bmp,120,120,9793.799999952316,547794.8999999762,7806,no,SM,A,116.bmp,-120,-120,328909,322882,330925,324894,551489.0,545460.0,553505.0,547473.0,21
4,0,0,0,1,15,test,1,1,z,Tue May 12 2026 11:10:24 GMT-0500 (Central Daylight Time),567536.3999999762,O,z,1884,22,1,118.bmp,-120,-120,119.bmp,120,-120,120.bmp,-120,120,121.bmp,120,120,9943.799999952316,557592.6000000238,7806,yes,SM,A,121.bmp,120,120,328909,322882,330925,324894,561286.0,555258.0,563302.0,557270.0,22
1,1,0,0,0,16,test,1,1,m,Tue May 12 2026 11:10:24 GMT-0500 (Central Daylight Time),576934.3999999762,O,m,1335,23,1,134.bmp,-120,-120,135.bmp,120,-120,136.bmp,-120,120,137.bmp,120,120,9394.899999976158,567539.5,7806,no,SM,A,137.bmp,-120,-120,328909,322882,330925,324894,571232.0,565205.0,573248.0,567219.0,23
2,0,1,0,0,16,test,1,0,z,Tue May 12 2026 11:10:24 GMT-0500 (Central Daylight Time),586995.8999999762,O,None,2015,24,1,142.bmp,-120,-120,143.bmp,120,-120,144.bmp,-120,120,145.bmp,120,120,10058.299999952316,576937.6000000238,7806,yes,SM,A,143.bmp,120,-120,328909,322882,330925,324894,580629.0,574603.0,582646.0,576614.0,24
4,0,0,0,1,16,test,1,0,m,Tue May 12 2026 11:10:24 GMT-0500 (Central Daylight Time),597026.1000000238,O,z,1975,25,1,146.bmp,-120,-120,147.bmp,120,-120,148.bmp,-120,120,149.bmp,120,120,10027.100000023842,586999.0,7806,no,SM,A,148.bmp,120,120,328909,322882,330925,324894,590693.0,584664.0,592709.0,586680.0,25
1,1,0,0,0,17,test,1,1,z,Tue May 12 2026 11:10:24 GMT-0500 (Central Daylight Time),606606.2999999523,O,z,1527,26,1,138.bmp,-120,-120,139.bmp,120,-120,140.bmp,-120,120,141.bmp,120,120,9577.399999976158,597028.8999999762,7806,yes,SM,A,138.bmp,-120,-120,328909,322882,330925,324894,600723.0,594694.0,602740.0,596706.0,26
4,0,0,0,1,18,test,1,1,z,Tue May 12 2026 11:10:24 GMT-0500 (Central Daylight Time),616553.0,O,z,1885,27,1,150.bmp,-120,-120,111.bmp,120,-120,101.bmp,-120,120,102.bmp,120,120,9942.100000023842,606610.8999999762,7806,yes,SM,A,102.bmp,120,120,328909,322882,330925,324894,610303.0,604276.0,612318.0,606287.0,27
3,0,0,1,0,18,test,1,0,m,Tue May 12 2026 11:10:24 GMT-0500 (Central Daylight Time),626616.2999999523,O,None,2015,28,1,103.bmp,-120,-120,104.bmp,120,-120,105.bmp,-120,120,106.bmp,120,120,10057.199999928474,616559.1000000238,7806,no,SM,A,103.bmp,-120,120,328909,322882,330925,324894,620249.0,614224.0,622266.0,616234.0,28
2,0,1,0,0,18,test,1,0,z,Tue May 12 2026 11:10:24 GMT-0500 (Central Daylight Time),636679.8999999762,O,None,2015,29,1,107.bmp,-120,-120,108.bmp,120,-120,109.bmp,-120,120,110.bmp,120,120,10061.0,626618.8999999762,7806,yes,SM,A,108.bmp,120,-120,328909,322882,330925,324894,630314.0,624284.0,632329.0,626299.0,29
3,0,0,1,0,19,test,1,1,z,Tue May 12 2026 11:10:24 GMT-0500 (Central Daylight Time),646343.2999999523,O,z,1610,30,1,111.bmp,-120,-120,112.bmp,120,-120,113.bmp,-120,120,114.bmp,120,120,9658.5,636684.7999999523,7806,yes,SM,A,113.bmp,-120,120,328909,322882,330925,324894,640376.0,634350.0,642393.0,636362.0,30
1,1,0,0,0,20,test,1,1,z,Tue May 12 2026 11:10:24 GMT-0500 (Central Daylight Time),655740.1999999285,O,z,1334,31,1,115.bmp,-120,-120,116.bmp,120,-120,117.bmp,-120,120,118.bmp,120,120,9393.0,646347.1999999285,7806,yes,SM,A,115.bmp,-120,-120,328909,322882,330925,324894,650041.0,644012.0,652056.0,646025.0,31
2,0,1,0,0,21,test,1,1,m,Tue May 12 2026 11:10:24 GMT-0500 (Central Daylight Time),665438.0,O,m,1647,32,1,119.bmp,-120,-120,120.bmp,120,-120,121.bmp,-120,120,122.bmp,120,120,9695.0,655743.0,7806,no,SM,A,119.bmp,120,-120,328909,322882,330925,324894,659437.0,653408.0,661452.0,655422.0,32
4,0,0,0,1,22,test,1,1,z,Tue May 12 2026 11:10:24 GMT-0500 (Central Daylight Time),675185.2999999523,O,z,1684,33,1,131.bmp,-120,-120,132.bmp,120,-120,133.bmp,-120,120,134.bmp,120,120,9744.199999928474,665441.1000000238,7806,yes,SM,A,134.bmp,120,120,328909,322882,330925,324894,669134.0,663106.0,671150.0,665120.0,33
2,0,1,0,0,22,test,1,0,z,Tue May 12 2026 11:10:24 GMT-0500 (Central Daylight Time),685231.1000000238,O,None,2014,34,1,123.bmp,-120,-120,124.bmp,120,-120,125.bmp,-120,120,126.bmp,120,120,10043.300000071526,675187.7999999523,7806,yes,SM,A,124.bmp,120,-120,328909,322882,330925,324894,678881.0,672853.0,680882.0,674866.0,34
4,0,0,0,1,22,test,1,0,m,Tue May 12 2026 11:10:24 GMT-0500 (Central Daylight Time),695294.8999999762,O,None,2016,35,1,127.bmp,-120,-120,128.bmp,120,-120,129.bmp,-120,120,130.bmp,120,120,10060.5,685234.3999999762,7806,no,SM,A,129.bmp,120,120,328909,322882,330925,324894,688928.0,682900.0,690944.0,684914.0,35
3,0,0,1,0,23,test,1,1,m,Tue May 12 2026 11:10:24 GMT-0500 (Central Daylight Time),704575.7999999523,O,m,1219,36,1,135.bmp,-120,-120,136.bmp,120,-120,137.bmp,-120,120,138.bmp,120,120,9276.899999976158,695298.8999999762,7806,no,SM,A,135.bmp,-120,120,328909,322882,330925,324894,698991.0,692964.0,701008.0,694975.0,36
1,1,0,0,0,24,test,1,1,m,Tue May 12 2026 11:10:24 GMT-0500 (Central Daylight Time),714387.6000000238,O,m,1755,37,1,139.bmp,-120,-120,140.bmp,120,-120,141.bmp,-120,120,142.bmp,120,120,9808.300000071526,704579.2999999523,7806,no,SM,A,140.bmp,-120,-120,328909,322882,330925,324894,708272.0,702245.0,710287.0,704256.0,37
2,0,1,0,0,24,test,1,0,m,Tue May 12 2026 11:10:24 GMT-0500 (Central Daylight Time),724435.5,O,None,2001,38,1,143.bmp,-120,-120,144.bmp,120,-120,145.bmp,-120,120,146.bmp,120,120,10044.800000071526,714390.6999999285,7806,no,SM,A,145.bmp,120,-120,328909,322882,330925,324894,718086.0,712056.0,720099.0,714070.0,38
4,0,0,0,1,25,test,1,1,z,Tue May 12 2026 11:10:24 GMT-0500 (Central Daylight Time),733948.5,O,z,1455,39,1,147.bmp,-120,-120,148.bmp,120,-120,149.bmp,-120,120,150.bmp,120,120,9506.5,724442.0,7806,yes,SM,A,150.bmp,120,120,328909,322882,330925,324894,728131.0,722107.0,730148.0,724118.0,39
3,0,0,1,0,25,test,1,0,m,Tue May 12 2026 11:10:24 GMT-0500 (Central Daylight Time),744012.5,O,None,2016,40,1,104.bmp,-120,-120,105.bmp,120,-120,106.bmp,-120,120,107.bmp,120,120,10061.0,733951.5,7806,no,SM,A,105.bmp,-120,120,328909,322882,330925,324894,737645.0,731617.0,739661.0,733630.0,40
1,1,0,0,0,26,test,1,1,z,Tue May 12 2026 11:10:24 GMT-0500 (Central Daylight Time),753225.2999999523,O,z,1158,41,1,108.bmp,-120,-120,109.bmp,120,-120,110.bmp,-120,120,111.bmp,120,120,9207.799999952316,744017.5,7806,yes,SM,A,108.bmp,-120,-120,328909,322882,330925,324894,747709.0,741683.0,749725.0,743694.0,41
4,0,0,0,1,27,test,1,1,z,Tue May 12 2026 11:10:24 GMT-0500 (Central Daylight Time),763072.6999999285,O,z,1791,42,1,112.bmp,-120,-120,113.bmp,120,-120,114.bmp,-120,120,115.bmp,120,120,9842.399999976158,753230.2999999523,7806,yes,SM,A,115.bmp,120,120,328909,322882,330925,324894,756923.0,750895.0,758940.0,752908.0,42
1,1,0,0,0,28,test,1,1,z,Tue May 12 2026 11:10:24 GMT-0500 (Central Daylight Time),772869.2999999523,O,z,1746,43,1,116.bmp,-120,-120,117.bmp,120,-120,118.bmp,-120,120,119.bmp,120,120,9793.799999952316,763075.5,7806,yes,SM,A,116.bmp,-120,-120,328909,322882,330925,324894,766770.0,760741.0,768785.0,762756.0,43
4,0,0,0,1,29,test,1,1,m,Tue May 12 2026 11:10:24 GMT-0500 (Central Daylight Time),782282.6000000238,O,m,1357,44,1,104.bmp,-120,-120,101.bmp,120,-120,102.bmp,-120,120,103.bmp,120,120,9409.600000023842,772873.0,7806,no,SM,A,104.bmp,120,120,328909,322882,330925,324894,776566.0,770538.0,778583.0,772551.0,44
1,1,0,0,0,30,test,1,1,m,Tue May 12 2026 11:10:24 GMT-0500 (Central Daylight Time),791796.8999999762,O,m,1450,45,1,128.bmp,-120,-120,129.bmp,120,-120,130.bmp,-120,120,131.bmp,120,120,9512.0,782284.8999999762,7806,no,SM,A,131.bmp,-120,-120,328909,322882,330925,324894,785980.0,779950.0,787997.0,781965.0,45
1,1,0,0,0,31,test,1,1,m,Tue May 12 2026 11:10:24 GMT-0500 (Central Daylight Time),801710.5,O,m,1864,46,1,120.bmp,-120,-120,121.bmp,120,-120,122.bmp,-120,120,123.bmp,120,120,9911.800000071526,791798.6999999285,7806,no,SM,A,121.bmp,-120,-120,328909,322882,330925,324894,795494.0,789464.0,797499.0,791478.0,46
3,0,0,1,0,32,test,1,1,z,Tue May 12 2026 11:10:24 GMT-0500 (Central Daylight Time),810791.2999999523,O,z,1027,47,1,124.bmp,-120,-120,125.bmp,120,-120,126.bmp,-120,120,127.bmp,120,120,9076.199999928474,801715.1000000238,7806,yes,SM,A,126.bmp,-120,120,328909,322882,330925,324894,805408.0,799381.0,807423.0,801392.0,47
3,0,0,1,0,33,test,1,1,z,Tue May 12 2026 11:10:24 GMT-0500 (Central Daylight Time),820737.3999999762,O,z,1890,48,1,140.bmp,-120,-120,141.bmp,120,-120,142.bmp,-120,120,143.bmp,120,120,9943.100000023842,810794.2999999523,7806,yes,SM,A,142.bmp,-120,120,328909,322882,330925,324894,814488.0,808459.0,816505.0,810473.0,48
2,0,1,0,0,34,test,1,1,z,Tue May 12 2026 11:10:24 GMT-0500 (Central Daylight Time),830519.5,O,z,1720,49,1,136.bmp,-120,-120,137.bmp,120,-120,138.bmp,-120,120,139.bmp,120,120,9778.0,820741.5,7806,yes,SM,A,137.bmp,120,-120,328909,322882,330925,324894,824435.0,818407.0,826451.0,820419.0,49
3,0,0,1,0,35,test,1,1,m,Tue May 12 2026 11:10:24 GMT-0500 (Central Daylight Time),839849.1999999285,O,m,1283,50,1,132.bmp,-120,-120,133.bmp,120,-120,134.bmp,-120,120,135.bmp,120,120,9326.799999952316,830522.3999999762,7806,no,SM,A,132.bmp,-120,120,328909,322882,330925,324894,834215.0,828188.0,836231.0,830200.0,50
2,0,1,0,0,35,test,1,0,z,Tue May 12 2026 11:10:24 GMT-0500 (Central Daylight Time),849911.5,O,None,2015,51,1,144.bmp,-120,-120,145.bmp,120,-120,146.bmp,-120,120,147.bmp,120,120,10059.600000023842,839851.8999999762,7806,yes,SM,A,145.bmp,120,-120,328909,322882,330925,324894,843544.0,837517.0,845561.0,839531.0,51
4,0,0,0,1,36,test,1,1,m,Tue May 12 2026 11:10:24 GMT-0500 (Central Daylight Time),859808.6999999285,O,m,1835,52,1,148.bmp,-120,-120,149.bmp,120,-120,150.bmp,-120,120,131.bmp,120,120,9891.399999976158,849917.2999999523,7806,no,SM,A,148.bmp,120,120,328909,322882,330925,324894,853608.0,847583.0,855624.0,849593.0,52
3,0,0,1,0,37,test,1,1,z,Tue May 12 2026 11:10:24 GMT-0500 (Central Daylight Time),869054.8999999762,O,z,1209,53,1,101.bmp,-120,-120,102.bmp,120,-120,103.bmp,-120,120,104.bmp,120,120,9242.100000023842,859812.7999999523,7806,yes,SM,A,103.bmp,-120,120,328909,322882,330925,324894,863504.0,857478.0,865506.0,859489.0,53
1,1,0,0,0,38,test,1,1,m,Tue May 12 2026 11:10:24 GMT-0500 (Central Daylight Time),878286.6999999285,O,m,1179,54,1,105.bmp,-120,-120,106.bmp,120,-120,107.bmp,-120,120,108.bmp,120,120,9224.299999952316,869062.3999999762,7806,no,SM,A,107.bmp,-120,-120,328909,322882,330925,324894,872753.0,866728.0,874768.0,868737.0,54
4,0,0,0,1,39,test,1,1,z,Tue May 12 2026 11:10:24 GMT-0500 (Central Daylight Time),887667.1000000238,O,z,1325,55,1,109.bmp,-120,-120,110.bmp,120,-120,111.bmp,-120,120,112.bmp,120,120,9377.100000023842,878290.0,7806,yes,SM,A,112.bmp,120,120,328909,322882,330925,324894,881982.0,875955.0,883999.0,877968.0,55
2,0,1,0,0,40,test,1,1,m,Tue May 12 2026 11:10:24 GMT-0500 (Central Daylight Time),896930.1999999285,O,m,1201,56,1,113.bmp,-120,-120,114.bmp,120,-120,115.bmp,-120,120,116.bmp,120,120,9259.899999976158,887670.2999999523,7806,no,SM,A,113.bmp,120,-120,328909,322882,330925,324894,891364.0,885335.0,893380.0,887349.0,56
4,0,0,0,1,41,test,1,1,m,Tue May 12 2026 11:10:24 GMT-0500 (Central Daylight Time),906711.7999999523,O,m,1719,57,1,117.bmp,-120,-120,118.bmp,120,-120,119.bmp,-120,120,120.bmp,120,120,9777.600000023842,896934.1999999285,7806,no,SM,A,118.bmp,120,120,328909,322882,330925,324894,900627.0,894599.0,902644.0,896612.0,57
3,0,0,1,0,42,test,1,1,z,Tue May 12 2026 11:10:24 GMT-0500 (Central Daylight Time),915724.3999999762,O,z,955,58,1,121.bmp,-120,-120,122.bmp,120,-120,123.bmp,-120,120,124.bmp,120,120,9009.799999952316,906714.6000000238,7806,yes,SM,A,123.bmp,-120,120,328909,322882,330925,324894,910408.0,904380.0,912424.0,906392.0,58
2,0,1,0,0,43,test,1,1,m,Tue May 12 2026 11:10:24 GMT-0500 (Central Daylight Time),925487.5,O,m,1703,59,1,125.bmp,-120,-120,126.bmp,120,-120,127.bmp,-120,120,128.bmp,120,120,9759.200000047684,915728.2999999523,7806,no,SM,A,128.bmp,120,-120,328909,322882,330925,324894,919422.0,913394.0,921436.0,915407.0,59
1,1,0,0,0,44,test,1,1,z,Tue May 12 2026 11:10:24 GMT-0500 (Central Daylight Time),935070.6000000238,O,z,1531,60,1,129.bmp,-120,-120,130.bmp,120,-120,131.bmp,-120,120,132.bmp,120,120,9579.200000047684,925491.3999999762,7806,yes,SM,A,129.bmp,-120,-120,328909,322882,330925,324894,929184.0,923157.0,931202.0,925170.0,60
2,0,1,0,0,44,test,1,0,z,Tue May 12 2026 11:10:24 GMT-0500 (Central Daylight Time),945130.1000000238,O,None,2015,61,1,133.bmp,-120,-120,134.bmp,120,-120,135.bmp,-120,120,136.bmp,120,120,10056.5,935073.6000000238,7806,yes,SM,A,134.bmp,120,-120,328909,322882,330925,324894,938764.0,932739.0,940780.0,934751.0,61
4,0,0,0,1,44,test,1,0,z,Tue May 12 2026 11:10:24 GMT-0500 (Central Daylight Time),955196.1000000238,O,None,2016,62,1,141.bmp,-120,-120,142.bmp,120,-120,143.bmp,-120,120,144.bmp,120,120,10061.900000095367,945134.1999999285,7806,yes,SM,A,144.bmp,120,120,328909,322882,330925,324894,948828.0,942799.0,950845.0,944812.0,62
1,1,0,0,0,45,test,1,1,m,Tue May 12 2026 11:10:24 GMT-0500 (Central Daylight Time),964526.3999999762,O,m,1281,63,1,145.bmp,-120,-120,146.bmp,120,-120,147.bmp,-120,120,148.bmp,120,120,9326.600000023842,955199.7999999523,7806,no,SM,A,145.bmp,-120,120,328909,322882,330925,324894,958891.0,952865.0,960907.0,954880.0,63
2,0,1,0,0,46,test,1,1,z,Tue May 12 2026 11:10:24 GMT-0500 (Central Daylight Time),973956.1000000238,O,z,1369,64,1,149.bmp,-120,-120,150.bmp,120,-120,112.bmp,-120,120,101.bmp,120,120,9426.700000047684,964529.3999999762,7806,yes,SM,A,150.bmp,120,-120,328909,322882,330925,324894,968222.0,962195.0,970237.0,964206.0,64
4,0,0,0,1,47,test,1,1,m,Tue May 12 2026 11:10:24 GMT-0500 (Central Daylight Time),983720.0,O,m,1725,65,1,102.bmp,-120,-120,103.bmp,120,-120,104.bmp,-120,120,105.bmp,120,120,9759.399999976158,973960.6000000238,7806,no,SM,A,104.bmp,120,120,328909,322882,330925,324894,977652.0,971626.0,979654.0,973638.0,65
3,0,0,1,0,48,test,1,1,m,Tue May 12 2026 11:10:24 GMT-0500 (Central Daylight Time),993049.1000000238,O,m,1267,66,1,106.bmp,-120,-120,107.bmp,120,-120,108.bmp,-120,120,109.bmp,120,120,9326.800000071526,983722.2999999523,7806,no,SM,A,109.bmp,-120,120,328909,322882,330925,324894,987415.0,981388.0,989432.0,983400.0,66
2,0,1,0,0,48,test,1,0,m,Tue May 12 2026 11:10:24 GMT-0500 (Central Daylight Time),1002812.7999999523,O,z,1702,67,1,137.bmp,-120,-120,138.bmp,120,-120,139.bmp,-120,120,140.bmp,120,120,9755.699999928474,993057.1000000238,7806,no,SM,A,139.bmp,120,-120,328909,322882,330925,324894,996746.0,990722.0,998762.0,992732.0,67
3,0,0,1,0,49,test,1,1,z,Tue May 12 2026 11:10:24 GMT-0500 (Central Daylight Time),1012810.6999999285,O,z,1936,68,1,110.bmp,-120,-120,111.bmp,120,-120,112.bmp,-120,120,113.bmp,120,120,9992.099999904633,1002818.6000000238,7806,yes,SM,A,112.bmp,-120,120,328909,322882,330925,324894,1006510.0,1000484.0,1008524.0,1002495.0,68
1,1,0,0,0,49,test,1,0,m,Tue May 12 2026 11:10:24 GMT-0500 (Central Daylight Time),1022241.0,O,z,1366,69,1,114.bmp,-120,-120,115.bmp,120,-120,116.bmp,-120,120,117.bmp,120,120,9426.899999976158,1012814.1000000238,7806,no,SM,A,115.bmp,-120,-120,328909,322882,330925,324894,1016508.0,1010479.0,1018525.0,1012492.0,69
2,0,1,0,0,50,test,1,1,m,Tue May 12 2026 11:10:24 GMT-0500 (Central Daylight Time),1031688.1000000238,O,m,1385,70,1,118.bmp,-120,-120,119.bmp,120,-120,120.bmp,-120,120,121.bmp,120,120,9443.300000071526,1022244.7999999523,7806,no,SM,A,120.bmp,120,-120,328909,322882,330925,324894,1025938.0,1019910.0,1027954.0,1021922.0,70
4,0,0,0,1,50,test,1,0,z,Tue May 12 2026 11:10:24 GMT-0500 (Central Daylight Time),1041751.0,O,None,2016,71,1,122.bmp,-120,-120,123.bmp,120,-120,124.bmp,-120,120,125.bmp,120,120,10058.800000071526,1031692.1999999285,7806,yes,SM,A,125.bmp,120,120,328909,322882,330925,324894,1035386.0,1029358.0,1037400.0,1031369.0,71
1,1,0,0,0,50,test,1,0,z,Tue May 12 2026 11:10:24 GMT-0500 (Central Daylight Time),1051448.2999999523,O,m,1636,72,1,126.bmp,-120,-120,127.bmp,120,-120,128.bmp,-120,120,129.bmp,120,120,9694.299999952316,1041754.0,7806,yes,SM,A,126.bmp,-120,-120,328909,322882,330925,324894,1045446.0,1039419.0,1047462.0,1041433.0,72
2,0,1,0,0,51,test,1,1,z,Tue May 12 2026 11:10:24 GMT-0500 (Central Daylight Time),1060826.6999999285,O,z,1321,73,1,130.bmp,-120,-120,131.bmp,120,-120,132.bmp,-120,120,133.bmp,120,120,9376.199999928474,1051450.5,7806,yes,SM,A,131.bmp,120,-120,328909,322882,330925,324894,1055143.0,1049116.0,1057161.0,1051130.0,73
4,0,0,0,1,52,test,1,1,m,Tue May 12 2026 11:10:24 GMT-0500 (Central Daylight Time),1070775.7999999523,O,m,1895,74,1,134.bmp,-120,-120,135.bmp,120,-120,136.bmp,-120,120,137.bmp,120,120,9946.600000023842,1060829.1999999285,7806,no,SM,A,136.bmp,120,120,328909,322882,330925,324894,1064525.0,1058494.0,1066541.0,1060510.0,74
2,0,1,0,0,53,test,1,1,m,Tue May 12 2026 11:10:24 GMT-0500 (Central Daylight Time),1080639.0,O,m,1803,75,1,138.bmp,-120,-120,139.bmp,120,-120,140.bmp,-120,120,141.bmp,120,120,9860.600000023842,1070778.3999999762,7806,no,SM,A,141.bmp,120,-120,328909,322882,330925,324894,1074472.0,1068444.0,1076488.0,1070457.0,75
1,1,0,0,0,54,test,1,1,z,Tue May 12 2026 11:10:24 GMT-0500 (Central Daylight Time),1089951.3999999762,O,z,1253,76,1,142.bmp,-120,-120,143.bmp,120,-120,144.bmp,-120,120,145.bmp,120,120,9308.5,1080642.8999999762,7806,yes,SM,A,142.bmp,-120,-120,328909,322882,330925,324894,1084335.0,1078308.0,1086350.0,1080320.0,76
3,0,0,1,0,55,test,1,1,z,Tue May 12 2026 11:10:24 GMT-0500 (Central Daylight Time),1099148.6999999285,O,z,1147,77,1,150.bmp,-120,-120,111.bmp,120,-120,101.bmp,-120,120,102.bmp,120,120,9191.5,1089957.1999999285,7806,yes,SM,A,101.bmp,-120,120,328909,322882,330925,324894,1093648.0,1087623.0,1095664.0,1089633.0,77
1,1,0,0,0,56,test,1,1,m,Tue May 12 2026 11:10:24 GMT-0500 (Central Daylight Time),1108996.1999999285,O,m,1797,78,1,146.bmp,-120,-120,147.bmp,120,-120,148.bmp,-120,120,149.bmp,120,120,9841.599999904633,1099154.6000000238,7806,no,SM,A,147.bmp,-120,-120,328909,322882,330925,324894,1102845.0,1096820.0,1104862.0,1098830.0,78
4,0,0,0,1,57,test,1,1,m,Tue May 12 2026 11:10:24 GMT-0500 (Central Daylight Time),1118775.7999999523,O,m,1733,79,1,107.bmp,-120,-120,108.bmp,120,-120,109.bmp,-120,120,110.bmp,120,120,9774.600000023842,1109001.1999999285,7806,no,SM,A,107.bmp,120,120,328909,322882,330925,324894,1112693.0,1106666.0,1114694.0,1108678.0,79
3,0,0,1,0,58,test,1,1,m,Tue May 12 2026 11:10:24 GMT-0500 (Central Daylight Time),1128189.8999999762,O,m,1362,80,1,103.bmp,-120,-120,104.bmp,120,-120,105.bmp,-120,120,106.bmp,120,120,9410.399999976158,1118779.5,7806,no,SM,A,106.bmp,-120,120,328909,322882,330925,324894,1122473.0,1116445.0,1124489.0,1118458.0,80
