acc_sum,block,block_c,condition,correct,correct_response,datetime,endtime,flanker,jitter,project,response,response_test_buffer_response,response_test_target_response,response_time,response_time_test_buffer_response,response_time_test_target_response,row_sel,session_number,start_end,starttime,subject_id,target,task,task_vers,time_test_buffer,time_test_buffer_response,time_test_constants,time_test_flanker,time_test_jitter,time_test_logger,time_test_target,time_test_target_response,time_test_variables,trial
0,prac,1,inc,0,m,Thu Dec 04 2025 14:26:41 GMT-0600 (Central Standard Time),179816.09999996424,cherry,900,I,None,,,1799,,,10,1,4955.199999988079,174860.89999997616,7712,copper,NF,C,,,,,,,,,,1
1,prac,1,inc,1,m,Thu Dec 04 2025 14:26:41 GMT-0600 (Central Standard Time),183266.69999998808,plum,1100,I,m,,,1045,,,16,1,3445.300000011921,179821.39999997616,7712,lead,NF,C,,,,,,,,,,2
2,prac,1,inc,1,z,Thu Dec 04 2025 14:26:41 GMT-0600 (Central Standard Time),186281.19999998808,iron,900,I,z,,,799,,,6,1,3007.600000023842,183273.59999996424,7712,pear,NF,C,,,,,,,,,,3
2,prac,1,inc,0,z,Thu Dec 04 2025 14:26:41 GMT-0600 (Central Standard Time),189181.09999996424,lead,1100,I,m,,,509,,,8,1,2891.2999999523163,186289.80000001192,7712,plum,NF,C,,,,,,,,,,4
2,prac,1,inc,0,z,Thu Dec 04 2025 14:26:41 GMT-0600 (Central Standard Time),192311.89999997616,cobalt,1100,I,m,,,721,,,4,1,3126.800000011921,189185.09999996424,7712,raisin,NF,C,,,,,,,,,,5
3,prac,1,inc,1,m,Thu Dec 04 2025 14:26:41 GMT-0600 (Central Standard Time),195179.59999996424,pear,900,I,m,,,661,,,14,1,2863.899999976158,192315.69999998808,7712,iron,NF,C,,,,,,,,,,6
4,prac,1,con,1,m,Thu Dec 04 2025 14:26:41 GMT-0600 (Central Standard Time),198393.59999996424,zinc,1000,I,m,,,901,,,15,1,3208.0,195185.59999996424,7712,zinc,NF,C,,,,,,,,,,7
5,prac,1,con,1,z,Thu Dec 04 2025 14:26:41 GMT-0600 (Central Standard Time),201311.89999997616,lime,800,I,z,,,823,,,5,1,2915.199999988079,198396.69999998808,7712,lime,NF,C,,,,,,,,,,8
6,prac,1,con,1,m,Thu Dec 04 2025 14:26:41 GMT-0600 (Central Standard Time),204091.89999997616,bronze,800,I,m,,,692,,,9,1,2774.699999988079,201317.19999998808,7712,bronze,NF,C,,,,,,,,,,9
6,prac,1,con,0,m,Thu Dec 04 2025 14:26:41 GMT-0600 (Central Standard Time),206758.0,gold,800,I,z,,,568,,,13,1,2661.100000023842,204096.89999997616,7712,gold,NF,C,,,,,,,,,,10
6,prac,1,con,0,z,Thu Dec 04 2025 14:26:41 GMT-0600 (Central Standard Time),209791.09999996424,kiwi,1000,I,m,,,716,,,7,1,3028.699999988079,206762.39999997616,7712,kiwi,NF,C,,,,,,,,,,11
7,prac,1,inc,1,m,Thu Dec 04 2025 14:26:41 GMT-0600 (Central Standard Time),212972.30000001192,raisin,1100,I,m,,,774,,,12,1,3176.5,209795.80000001192,7712,cobalt,NF,C,,,,,,,,,,12
8,prac,1,con,1,z,Thu Dec 04 2025 14:26:41 GMT-0600 (Central Standard Time),215921.39999997616,banana,800,I,z,,,846,,,1,1,2944.199999988079,212977.19999998808,7712,banana,NF,C,,,,,,,,,,13
9,prac,1,con,1,z,Thu Dec 04 2025 14:26:41 GMT-0600 (Central Standard Time),218806.5,orange,1000,I,z,,,576,,,3,1,2880.100000023842,215926.39999997616,7712,orange,NF,C,,,,,,,,,,14
10,prac,1,con,1,m,Thu Dec 04 2025 14:26:41 GMT-0600 (Central Standard Time),221769.5,silver,1000,I,m,,,653,,,11,1,2958.0,218811.5,7712,silver,NF,C,,,,,,,,,,15
10,prac,1,inc,0,z,Thu Dec 04 2025 14:26:41 GMT-0600 (Central Standard Time),224504.19999998808,copper,900,I,m,,,531,,,2,1,2731.100000023842,221773.09999996424,7712,cherry,NF,C,,,,,,,,,,16
1,prac,2,inc,1,z,Thu Dec 04 2025 14:26:41 GMT-0600 (Central Standard Time),240097.5,cobalt,1100,I,z,,,971,,,4,1,3361.800000011921,236735.69999998808,7712,raisin,NF,C,,,,,,,,,,1
2,prac,2,inc,1,z,Thu Dec 04 2025 14:26:41 GMT-0600 (Central Standard Time),243029.69999998808,iron,900,I,z,,,717,,,6,1,2925.600000023842,240104.09999996424,7712,pear,NF,C,,,,,,,,,,2
3,prac,2,inc,1,m,Thu Dec 04 2025 14:26:41 GMT-0600 (Central Standard Time),245763.69999998808,pear,900,I,m,,,535,,,14,1,2730.699999988079,243033.0,7712,iron,NF,C,,,,,,,,,,3
4,prac,2,inc,1,m,Thu Dec 04 2025 14:26:41 GMT-0600 (Central Standard Time),248844.59999996424,raisin,1100,I,m,,,675,,,12,1,3077.599999964237,245767.0,7712,cobalt,NF,C,,,,,,,,,,4
5,prac,2,con,1,m,Thu Dec 04 2025 14:26:41 GMT-0600 (Central Standard Time),251779.09999996424,zinc,1000,I,m,,,661,,,15,1,2929.7999999523163,248849.30000001192,7712,zinc,NF,C,,,,,,,,,,5
6,prac,2,con,1,z,Thu Dec 04 2025 14:26:41 GMT-0600 (Central Standard Time),254811.59999996424,kiwi,1000,I,z,,,726,,,7,1,3027.599999964237,251784.0,7712,kiwi,NF,C,,,,,,,,,,6
7,prac,2,con,1,z,Thu Dec 04 2025 14:26:41 GMT-0600 (Central Standard Time),257475.0,banana,800,I,z,,,563,,,1,1,2659.699999988079,254815.30000001192,7712,banana,NF,C,,,,,,,,,,7
8,prac,2,con,1,m,Thu Dec 04 2025 14:26:41 GMT-0600 (Central Standard Time),260307.89999997616,silver,1000,I,m,,,528,,,11,1,2830.0,257477.89999997616,7712,silver,NF,C,,,,,,,,,,8
9,prac,2,con,1,z,Thu Dec 04 2025 14:26:41 GMT-0600 (Central Standard Time),263026.1999999881,lime,800,I,z,,,600,,,5,1,2709.899999976158,260316.30000001192,7712,lime,NF,C,,,,,,,,,,9
10,prac,2,inc,1,z,Thu Dec 04 2025 14:26:41 GMT-0600 (Central Standard Time),265741.09999996424,copper,900,I,z,,,513,,,2,1,2708.599999964237,263032.5,7712,cherry,NF,C,,,,,,,,,,10
11,prac,2,con,1,z,Thu Dec 04 2025 14:26:41 GMT-0600 (Central Standard Time),268521.6999999881,orange,1000,I,z,,,477,,,3,1,2774.600000023842,265747.09999996424,7712,orange,NF,C,,,,,,,,,,11
12,prac,2,inc,1,m,Thu Dec 04 2025 14:26:41 GMT-0600 (Central Standard Time),271586.59999996424,plum,1100,I,m,,,661,,,16,1,3060.5,268526.09999996424,7712,lead,NF,C,,,,,,,,,,12
13,prac,2,inc,1,m,Thu Dec 04 2025 14:26:41 GMT-0600 (Central Standard Time),274354.3000000119,cherry,900,I,m,,,579,,,10,1,2760.5,271593.8000000119,7712,copper,NF,C,,,,,,,,,,13
14,prac,2,con,1,m,Thu Dec 04 2025 14:26:41 GMT-0600 (Central Standard Time),277219.0,gold,800,I,m,,,762,,,13,1,2856.800000011921,274362.1999999881,7712,gold,NF,C,,,,,,,,,,14
15,prac,2,inc,1,z,Thu Dec 04 2025 14:26:41 GMT-0600 (Central Standard Time),280301.09999996424,lead,1100,I,z,,,677,,,8,1,3075.599999964237,277225.5,7712,plum,NF,C,,,,,,,,,,15
16,prac,2,con,1,m,Thu Dec 04 2025 14:26:41 GMT-0600 (Central Standard Time),283066.59999996424,bronze,800,I,m,,,669,,,9,1,2759.599999964237,280307.0,7712,bronze,NF,C,,,,,,,,,,16
1,test,1,inc,1,z,Thu Dec 04 2025 14:26:41 GMT-0600 (Central Standard Time),301377.8000000119,copper,900,I,z,z,None,650,450.0,200.0,14,1,2088.800000011921,299289.0,7712,cherry,NF,C,294984,294984,293360,294266,293361,295449,294783,294783,295449,1
2,test,1,con,1,z,Thu Dec 04 2025 14:26:41 GMT-0600 (Central Standard Time),303527.1999999881,orange,1100,I,z,z,None,517,317.0,200.0,20,1,2144.800000011921,301382.39999997616,7712,orange,NF,C,297266,297266,295453,296565,295454,297598,297066,297066,297598,2
3,test,1,inc,1,m,Thu Dec 04 2025 14:26:41 GMT-0600 (Central Standard Time),305493.1999999881,cherry,900,I,m,m,None,541,325.0,216.0,70,1,1958.8999999761581,303534.3000000119,7712,bronze,NF,C,299234,299234,297605,298514,297606,299564,299016,299016,299564,3
3,test,1,inc,0,m,Thu Dec 04 2025 14:26:41 GMT-0600 (Central Standard Time),307742.6999999881,plum,1100,I,z,z,None,594,384.0,210.0,128,1,2246.199999988079,305496.5,7712,lead,NF,C,301415,301415,299568,300682,299568,301814,301205,301205,301814,4
3,test,1,con,0,m,Thu Dec 04 2025 14:26:41 GMT-0600 (Central Standard Time),311391.09999996424,iron,1100,I,None,None,None,1815,1815.0,199.0,108,1,3642.199999988079,307748.89999997616,7712,iron,NF,C,303646,303647,301820,302931,301820,305462,303447,303447,305462,5
4,test,1,con,1,z,Thu Dec 04 2025 14:26:41 GMT-0600 (Central Standard Time),313573.89999997616,cherry,1000,I,z,z,None,659,444.0,215.0,11,1,2175.800000011921,311398.09999996424,7712,cherry,NF,C,307196,307196,305469,306478,305469,307645,306980,306980,307645,6
4,test,1,con,0,z,Thu Dec 04 2025 14:26:41 GMT-0600 (Central Standard Time),315556.6999999881,orange,900,I,m,m,None,545,345.0,200.0,18,1,1978.8999999761581,313577.8000000119,7712,orange,NF,C,309278,309278,307649,308562,307649,309628,309078,309078,309628,7
5,test,1,con,1,m,Thu Dec 04 2025 14:26:41 GMT-0600 (Central Standard Time),317389.1999999881,gold,800,I,m,m,None,492,278.0,214.0,97,1,1828.5,315560.6999999881,7712,gold,NF,C,311177,311177,309632,310445,309632,311460,310963,310963,311460,8
5,test,1,inc,0,m,Thu Dec 04 2025 14:26:41 GMT-0600 (Central Standard Time),319305.09999996424,pear,900,I,z,z,None,466,266.0,200.0,118,1,1911.7999999523163,317393.3000000119,7712,zinc,NF,C,313095,313095,311464,312378,311464,313376,312894,312894,313376,9
6,test,1,inc,1,m,Thu Dec 04 2025 14:26:41 GMT-0600 (Central Standard Time),322420.5,orange,1000,I,m,m,None,1569,1368.0,201.0,95,1,3109.600000023842,319310.89999997616,7712,cobalt,NF,C,315111,315111,313382,314397,313382,316492,314910,314910,316492,10
7,test,1,con,1,m,Thu Dec 04 2025 14:26:41 GMT-0600 (Central Standard Time),324920.59999996424,cobalt,1100,I,m,m,None,850,648.0,202.0,92,1,2495.0,322425.59999996424,7712,cobalt,NF,C,318328,318328,316497,317611,316497,318992,318126,318126,318992,11
8,test,1,inc,1,z,Thu Dec 04 2025 14:26:41 GMT-0600 (Central Standard Time),327169.39999997616,iron,900,I,z,z,None,799,599.0,200.0,54,1,2244.399999976158,324925.0,7712,kiwi,NF,C,320626,320626,318996,319909,318996,321241,320426,320426,321240,12
9,test,1,inc,1,m,Thu Dec 04 2025 14:26:41 GMT-0600 (Central Standard Time),329435.5,pear,900,I,m,m,None,828,628.0,200.0,126,1,2262.900000035763,327172.59999996424,7712,lead,NF,C,322874,322875,321244,322158,321244,323507,322674,322674,323507,13
10,test,1,con,1,m,Thu Dec 04 2025 14:26:41 GMT-0600 (Central Standard Time),331617.09999996424,silver,800,I,m,m,None,838,637.0,201.0,81,1,2177.5,329439.59999996424,7712,silver,NF,C,325041,325041,323511,324324,323511,325688,324840,324840,325688,14
11,test,1,inc,1,z,Thu Dec 04 2025 14:26:41 GMT-0600 (Central Standard Time),333851.09999996424,iron,900,I,z,z,None,815,616.0,199.0,38,1,2231.199999988079,331619.89999997616,7712,lime,NF,C,327306,327306,325691,326606,325691,327922,327107,327107,327922,15
12,test,1,inc,1,m,Thu Dec 04 2025 14:26:41 GMT-0600 (Central Standard Time),336150.39999997616,plum,1100,I,m,m,None,659,460.0,199.0,120,1,2294.5,333855.89999997616,7712,zinc,NF,C,329756,329756,327927,329039,327927,330221,329556,329556,330221,16
13,test,1,inc,1,m,Thu Dec 04 2025 14:26:41 GMT-0600 (Central Standard Time),338316.39999997616,pear,900,I,m,m,None,720,521.0,199.0,110,1,2161.699999988079,336154.6999999881,7712,iron,NF,C,331854,331854,330226,331138,330226,332387,331655,331655,332387,17
14,test,1,inc,1,m,Thu Dec 04 2025 14:26:41 GMT-0600 (Central Standard Time),340732.39999997616,raisin,1100,I,m,m,None,778,578.0,200.0,80,1,2412.399999976158,338320.0,7712,copper,NF,C,334221,334221,332391,333506,332391,334803,334020,334020,334803,18
15,test,1,con,1,m,Thu Dec 04 2025 14:26:41 GMT-0600 (Central Standard Time),343064.59999996424,lead,1000,I,m,m,None,789,590.0,199.0,123,1,2329.0,340735.59999996424,7712,lead,NF,C,336537,336537,334807,335821,334807,337136,336337,336337,337136,19
16,test,1,con,1,z,Thu Dec 04 2025 14:26:41 GMT-0600 (Central Standard Time),345113.3000000119,cherry,900,I,z,z,None,606,405.0,201.0,10,1,2045.1000000238419,343068.1999999881,7712,cherry,NF,C,338770,338770,337139,338053,337139,339184,338569,338569,339184,20
17,test,1,inc,1,m,Thu Dec 04 2025 14:26:41 GMT-0600 (Central Standard Time),347179.09999996424,pear,900,I,m,m,None,642,429.0,213.0,102,1,2061.899999976158,345117.1999999881,7712,gold,NF,C,340818,340818,339188,340103,339188,341250,340605,340605,341250,21
18,test,1,inc,1,m,Thu Dec 04 2025 14:26:41 GMT-0600 (Central Standard Time),349331.39999997616,kiwi,1000,I,m,m,None,622,423.0,199.0,111,1,2149.0,347182.39999997616,7712,iron,NF,C,342968,342968,341253,342267,341254,343402,342769,342769,343402,22
18,test,1,con,0,z,Thu Dec 04 2025 14:26:41 GMT-0600 (Central Standard Time),351628.59999996424,plum,1100,I,m,m,None,662,462.0,200.0,60,1,2293.099999964237,349335.5,7712,plum,NF,C,345234,345234,343407,344518,343407,345700,345033,345033,345700,23
19,test,1,inc,1,z,Thu Dec 04 2025 14:26:41 GMT-0600 (Central Standard Time),353645.09999996424,bronze,800,I,z,z,None,686,486.0,200.0,21,1,2013.199999988079,351631.89999997616,7712,orange,NF,C,347218,347218,345703,346516,345703,347716,347018,347018,347716,24
20,test,1,con,1,m,Thu Dec 04 2025 14:26:41 GMT-0600 (Central Standard Time),356094.1999999881,iron,1000,I,m,m,None,910,711.0,199.0,107,1,2444.300000011921,353649.89999997616,7712,iron,NF,C,349449,349449,347721,348732,347721,350165,349249,349249,350165,25
21,test,1,inc,1,m,Thu Dec 04 2025 14:26:41 GMT-0600 (Central Standard Time),358344.0,lime,800,I,m,m,None,899,699.0,200.0,109,1,2245.800000011921,356098.1999999881,7712,iron,NF,C,351699,351700,350169,350982,350169,352415,351499,351499,352415,26
22,test,1,inc,1,z,Thu Dec 04 2025 14:26:41 GMT-0600 (Central Standard Time),360725.6999999881,zinc,1000,I,z,z,None,835,636.0,199.0,63,1,2376.800000011921,358348.89999997616,7712,plum,NF,C,354147,354147,352420,353431,352420,354797,353947,353947,354797,27
23,test,1,con,1,z,Thu Dec 04 2025 14:26:41 GMT-0600 (Central Standard Time),363124.8000000119,raisin,800,I,z,z,None,1060,860.0,200.0,25,1,2394.0,360730.8000000119,7712,raisin,NF,C,356331,356331,354802,355614,354802,357196,356131,356131,357196,28
24,test,1,inc,1,m,Thu Dec 04 2025 14:26:41 GMT-0600 (Central Standard Time),365307.89999997616,banana,800,I,m,m,None,838,638.0,200.0,69,1,2179.800000011921,363128.09999996424,7712,bronze,NF,C,358729,358729,357199,358013,357200,359379,358529,358529,359379,29
25,test,1,con,1,z,Thu Dec 04 2025 14:26:41 GMT-0600 (Central Standard Time),367556.5,pear,800,I,z,z,None,903,688.0,215.0,41,1,2245.0,365311.5,7712,pear,NF,C,360927,360927,359383,360196,359383,361628,360712,360712,361628,30
26,test,1,inc,1,z,Thu Dec 04 2025 14:26:41 GMT-0600 (Central Standard Time),370005.0,cobalt,1100,I,z,z,None,803,601.0,202.0,8,1,2445.800000011921,367559.1999999881,7712,banana,NF,C,363462,363462,361630,362746,361630,364076,363260,363260,364076,31
27,test,1,con,1,m,Thu Dec 04 2025 14:26:41 GMT-0600 (Central Standard Time),372472.0,gold,1000,I,m,m,None,932,732.0,200.0,99,1,2464.300000011921,370007.6999999881,7712,gold,NF,C,365794,365794,364079,365093,364079,366543,365594,365594,366543,32
28,test,1,inc,1,z,Thu Dec 04 2025 14:26:41 GMT-0600 (Central Standard Time),374905.0,cobalt,1100,I,z,z,None,791,590.0,201.0,32,1,2430.100000023842,372474.89999997616,7712,raisin,NF,C,368378,368378,366546,367660,366546,368976,368177,368177,368976,33
29,test,1,con,1,z,Thu Dec 04 2025 14:26:41 GMT-0600 (Central Standard Time),377154.09999996424,banana,800,I,z,z,None,921,706.0,215.0,1,1,2246.199999988079,374907.89999997616,7712,banana,NF,C,370509,370509,368979,369793,368979,371225,370294,370294,371225,34
30,test,1,inc,1,z,Thu Dec 04 2025 14:26:41 GMT-0600 (Central Standard Time),379603.5,lead,1100,I,z,z,None,831,632.0,199.0,56,1,2445.199999988079,377158.3000000119,7712,kiwi,NF,C,373042,373042,371229,372341,371230,373675,372842,372842,373674,35
31,test,1,con,1,z,Thu Dec 04 2025 14:26:41 GMT-0600 (Central Standard Time),382218.6999999881,banana,1100,I,z,z,None,981,781.0,200.0,4,1,2609.600000023842,379609.09999996424,7712,banana,NF,C,375507,375507,373680,374790,373680,376290,375307,375307,376290,36
32,test,1,inc,1,z,Thu Dec 04 2025 14:26:41 GMT-0600 (Central Standard Time),384467.5,iron,900,I,z,z,None,803,587.0,216.0,62,1,2244.100000023842,382223.39999997616,7712,plum,NF,C,377940,377940,376294,377206,376295,378539,377724,377724,378539,37
33,test,1,con,1,z,Thu Dec 04 2025 14:26:41 GMT-0600 (Central Standard Time),386584.0,plum,900,I,z,z,None,665,451.0,214.0,58,1,2108.699999988079,384475.3000000119,7712,plum,NF,C,380189,380189,378546,379456,378547,380655,379974,379974,380655,38
34,test,1,con,1,z,Thu Dec 04 2025 14:26:41 GMT-0600 (Central Standard Time),388865.8000000119,cherry,1100,I,z,z,None,661,446.0,215.0,12,1,2273.800000011921,386592.0,7712,cherry,NF,C,382488,382489,380663,381771,380663,382937,382273,382273,382937,39
35,test,1,inc,1,z,Thu Dec 04 2025 14:26:41 GMT-0600 (Central Standard Time),391265.89999997616,silver,1000,I,z,z,None,864,665.0,199.0,15,1,2397.399999976158,388868.5,7712,cherry,NF,C,384671,384671,382940,383954,382940,385337,384471,384471,385337,40
36,test,1,inc,1,m,Thu Dec 04 2025 14:26:41 GMT-0600 (Central Standard Time),393482.5,lime,800,I,m,m,None,874,675.0,199.0,101,1,2211.900000035763,391270.59999996424,7712,gold,NF,C,386869,386869,385342,386154,385342,387554,386670,386670,387554,41
37,test,1,con,1,z,Thu Dec 04 2025 14:26:41 GMT-0600 (Central Standard Time),396014.3000000119,raisin,1100,I,z,z,None,893,694.0,199.0,28,1,2524.600000023842,393489.6999999881,7712,raisin,NF,C,389386,389386,387561,388669,387561,390085,389186,389186,390085,42
38,test,1,con,1,m,Thu Dec 04 2025 14:26:41 GMT-0600 (Central Standard Time),398263.5,copper,1000,I,m,m,None,716,516.0,200.0,75,1,2242.0,396021.5,7712,copper,NF,C,391818,391818,390093,391102,390093,392335,391618,391618,392335,43
39,test,1,inc,1,z,Thu Dec 04 2025 14:26:41 GMT-0600 (Central Standard Time),400579.3000000119,iron,900,I,z,z,None,870,671.0,199.0,46,1,2313.100000023842,398266.1999999881,7712,pear,NF,C,393968,393968,392337,393251,392337,394650,393767,393768,394650,44
40,test,1,con,1,m,Thu Dec 04 2025 14:26:41 GMT-0600 (Central Standard Time),403196.3000000119,zinc,1100,I,m,m,None,995,780.0,215.0,116,1,2614.100000023842,400582.1999999881,7712,zinc,NF,C,396484,396484,394653,395766,394653,397267,396268,396268,397267,45
41,test,1,con,1,m,Thu Dec 04 2025 14:26:41 GMT-0600 (Central Standard Time),405761.1999999881,gold,1100,I,m,m,None,933,733.0,200.0,100,1,2559.100000023842,403202.09999996424,7712,gold,NF,C,399099,399099,397273,398383,397273,399832,398899,398899,399832,46
42,test,1,inc,1,m,Thu Dec 04 2025 14:26:41 GMT-0600 (Central Standard Time),408060.6999999881,lime,800,I,m,m,None,961,762.0,199.0,125,1,2292.100000023842,405768.59999996424,7712,lead,NF,C,401365,401365,399840,400650,399840,402132,401166,401166,402132,47
43,test,1,inc,1,z,Thu Dec 04 2025 14:26:41 GMT-0600 (Central Standard Time),410242.1999999881,zinc,1000,I,z,z,None,647,448.0,199.0,47,1,2177.399999976158,408064.8000000119,7712,pear,NF,C,403864,403864,402136,403149,402136,404313,403665,403665,404313,48
44,test,1,inc,1,m,Thu Dec 04 2025 14:26:41 GMT-0600 (Central Standard Time),412592.09999996424,plum,1100,I,m,m,None,700,500.0,200.0,112,1,2346.899999976158,410245.1999999881,7712,iron,NF,C,406148,406148,404316,405432,404316,406663,405947,405947,406663,49
45,test,1,inc,1,m,Thu Dec 04 2025 14:26:41 GMT-0600 (Central Standard Time),414674.8000000119,banana,800,I,m,m,None,748,548.0,200.0,93,1,2075.100000023842,412599.6999999881,7712,cobalt,NF,C,408198,408198,406671,407481,406671,408746,407997,407997,408746,50
46,test,1,inc,1,m,Thu Dec 04 2025 14:26:41 GMT-0600 (Central Standard Time),417226.59999996424,orange,1000,I,m,m,None,1009,808.0,201.0,71,1,2547.199999988079,414679.39999997616,7712,bronze,NF,C,410481,410481,408750,409763,408751,411298,410280,410280,411298,51
47,test,1,inc,1,z,Thu Dec 04 2025 14:26:41 GMT-0600 (Central Standard Time),419474.59999996424,gold,800,I,z,z,None,907,708.0,199.0,61,1,2237.899999976158,417236.6999999881,7712,plum,NF,C,412828,412828,411308,412112,411308,413546,412629,412629,413546,52
48,test,1,con,1,m,Thu Dec 04 2025 14:26:41 GMT-0600 (Central Standard Time),421890.3000000119,zinc,1000,I,m,m,None,883,683.0,200.0,115,1,2409.7000000476837,419480.59999996424,7712,zinc,NF,C,415278,415278,413552,414561,413552,415961,415078,415078,415961,53
49,test,1,con,1,m,Thu Dec 04 2025 14:26:41 GMT-0600 (Central Standard Time),424239.89999997616,silver,900,I,m,m,None,901,701.0,200.0,82,1,2345.599999964237,421894.3000000119,7712,silver,NF,C,417594,417594,415965,416878,415966,418311,417393,417393,418311,54
50,test,1,con,1,m,Thu Dec 04 2025 14:26:41 GMT-0600 (Central Standard Time),426672.3000000119,iron,900,I,m,m,None,993,793.0,200.0,106,1,2427.2000000476837,424245.09999996424,7712,iron,NF,C,419943,419943,418316,419226,418317,420743,419743,419743,420743,55
51,test,1,inc,1,z,Thu Dec 04 2025 14:26:41 GMT-0600 (Central Standard Time),428905.0,copper,900,I,z,z,None,806,591.0,215.0,30,1,2228.199999988079,426676.8000000119,7712,raisin,NF,C,422376,422376,420748,421659,420748,422976,422161,422161,422976,56
52,test,1,inc,1,m,Thu Dec 04 2025 14:26:41 GMT-0600 (Central Standard Time),431336.3000000119,orange,1000,I,m,m,None,885,684.0,201.0,79,1,2427.100000023842,428909.1999999881,7712,copper,NF,C,424709,424709,422980,423992,422980,425407,424508,424508,425407,57
53,test,1,inc,1,m,Thu Dec 04 2025 14:26:41 GMT-0600 (Central Standard Time),433703.0,kiwi,1000,I,m,m,None,819,618.0,201.0,119,1,2360.300000011921,431342.6999999881,7712,zinc,NF,C,427141,427141,425414,426424,425414,427774,426940,426940,427774,58
54,test,1,inc,1,m,Thu Dec 04 2025 14:26:41 GMT-0600 (Central Standard Time),436018.5,cherry,900,I,m,m,None,873,674.0,199.0,86,1,2310.900000035763,433707.59999996424,7712,silver,NF,C,429406,429406,427779,428691,427779,430090,429207,429207,430090,59
55,test,1,inc,1,z,Thu Dec 04 2025 14:26:41 GMT-0600 (Central Standard Time),438202.5,bronze,800,I,z,z,None,854,640.0,214.0,13,1,2179.900000035763,436022.59999996424,7712,cherry,NF,C,431623,431623,430094,430906,430094,432274,431408,431408,432274,60
56,test,1,con,1,m,Thu Dec 04 2025 14:26:41 GMT-0600 (Central Standard Time),440726.89999997616,bronze,1000,I,m,m,None,993,794.0,199.0,67,1,2520.399999976158,438206.5,7712,bronze,NF,C,433989,433989,432278,433289,432278,434798,433790,433790,434798,61
57,test,1,inc,1,z,Thu Dec 04 2025 14:26:41 GMT-0600 (Central Standard Time),442950.89999997616,silver,1000,I,z,z,None,694,494.0,200.0,7,1,2219.899999976158,440731.0,7712,banana,NF,C,436521,436521,434802,435806,434802,437022,436321,436321,437022,62
58,test,1,con,1,z,Thu Dec 04 2025 14:26:41 GMT-0600 (Central Standard Time),445181.59999996424,orange,1000,I,z,z,None,709,510.0,199.0,19,1,2226.599999964237,442955.0,7712,orange,NF,C,438737,438737,437026,438036,437026,439253,438538,438538,439253,63
59,test,1,con,1,z,Thu Dec 04 2025 14:26:41 GMT-0600 (Central Standard Time),447697.89999997616,pear,1100,I,z,z,None,873,659.0,214.0,44,1,2511.699999988079,445186.1999999881,7712,pear,NF,C,441102,441102,439257,440371,439258,441769,440888,440888,441769,64
60,test,1,con,1,z,Thu Dec 04 2025 14:26:41 GMT-0600 (Central Standard Time),450180.5,kiwi,1100,I,z,z,None,844,643.0,201.0,52,1,2478.400000035763,447702.09999996424,7712,kiwi,NF,C,443603,443604,441773,442886,441773,444252,443402,443402,444251,65
61,test,1,inc,1,z,Thu Dec 04 2025 14:26:41 GMT-0600 (Central Standard Time),452429.8000000119,bronze,800,I,z,z,None,903,704.0,199.0,29,1,2246.2000000476837,450183.59999996424,7712,raisin,NF,C,445785,445785,444255,445069,444255,446501,445586,445586,446501,66
62,test,1,con,1,m,Thu Dec 04 2025 14:26:41 GMT-0600 (Central Standard Time),454546.39999997616,cobalt,800,I,m,m,None,783,582.0,201.0,89,1,2113.099999964237,452433.3000000119,7712,cobalt,NF,C,448035,448035,446504,447317,446505,448617,447834,447834,448617,67
63,test,1,con,1,m,Thu Dec 04 2025 14:26:41 GMT-0600 (Central Standard Time),456727.89999997616,bronze,900,I,m,m,None,756,542.0,214.0,66,1,2177.199999988079,454550.6999999881,7712,bronze,NF,C,450249,450249,448622,449534,448622,450799,450035,450035,450799,68
64,test,1,con,1,z,Thu Dec 04 2025 14:26:41 GMT-0600 (Central Standard Time),458794.39999997616,cherry,800,I,z,z,None,721,522.0,199.0,9,1,2061.0,456733.39999997616,7712,cherry,NF,C,452333,452333,450804,451619,450805,452865,452133,452133,452865,69
65,test,1,con,1,m,Thu Dec 04 2025 14:26:41 GMT-0600 (Central Standard Time),461060.0,zinc,900,I,m,m,None,827,628.0,199.0,114,1,2261.100000023842,458798.89999997616,7712,zinc,NF,C,454499,454499,452870,453783,452870,455131,454300,454300,455131,70
66,test,1,con,1,z,Thu Dec 04 2025 14:26:41 GMT-0600 (Central Standard Time),463176.09999996424,lime,900,I,z,z,None,664,450.0,214.0,34,1,2112.5,461063.59999996424,7712,lime,NF,C,456781,456781,455135,456049,455135,457247,456566,456566,457247,71
67,test,1,con,1,z,Thu Dec 04 2025 14:26:41 GMT-0600 (Central Standard Time),465359.39999997616,plum,1000,I,z,z,None,633,433.0,200.0,59,1,2178.099999964237,463181.3000000119,7712,plum,NF,C,458982,458982,457252,458264,457253,459430,458781,458781,459430,72
68,test,1,con,1,m,Thu Dec 04 2025 14:26:41 GMT-0600 (Central Standard Time),467809.3000000119,bronze,1100,I,m,m,None,822,608.0,214.0,68,1,2445.100000023842,465364.1999999881,7712,bronze,NF,C,461263,461263,459435,460547,459435,461880,461049,461049,461880,73
69,test,1,inc,1,z,Thu Dec 04 2025 14:26:41 GMT-0600 (Central Standard Time),470191.09999996424,copper,900,I,z,z,None,935,735.0,200.0,6,1,2378.0,467813.09999996424,7712,banana,NF,C,463513,463513,461884,462795,461884,464262,463313,463313,464262,74
70,test,1,inc,1,m,Thu Dec 04 2025 14:26:41 GMT-0600 (Central Standard Time),472789.6999999881,raisin,1100,I,m,m,None,953,752.0,201.0,72,1,2593.800000011921,470195.89999997616,7712,bronze,NF,C,466095,466095,464267,465378,464267,466861,465894,465894,466861,75
71,test,1,inc,1,m,Thu Dec 04 2025 14:26:41 GMT-0600 (Central Standard Time),475389.5,raisin,1100,I,m,m,None,952,752.0,200.0,88,1,2591.199999988079,472798.3000000119,7712,silver,NF,C,468695,468695,466869,467978,466870,469461,468494,468494,469461,76
72,test,1,inc,1,m,Thu Dec 04 2025 14:26:41 GMT-0600 (Central Standard Time),477621.6999999881,cherry,900,I,m,m,None,801,602.0,199.0,94,1,2228.0,475393.6999999881,7712,cobalt,NF,C,471077,471077,469465,470377,469465,471693,470878,470878,471693,77
73,test,1,con,1,m,Thu Dec 04 2025 14:26:41 GMT-0600 (Central Standard Time),480004.59999996424,lead,1100,I,m,m,None,735,536.0,199.0,124,1,2379.699999988079,477624.89999997616,7712,lead,NF,C,473527,473527,471696,472810,471696,474076,473327,473327,474076,78
74,test,1,con,1,m,Thu Dec 04 2025 14:26:41 GMT-0600 (Central Standard Time),482588.5,copper,1100,I,m,m,None,949,735.0,214.0,76,1,2579.5,480009.0,7712,copper,NF,C,475908,475908,474080,475192,474080,476660,475694,475694,476660,79
75,test,1,inc,1,m,Thu Dec 04 2025 14:26:41 GMT-0600 (Central Standard Time),484788.3000000119,lime,800,I,m,m,None,870,671.0,199.0,117,1,2195.2000000476837,482593.09999996424,7712,zinc,NF,C,478176,478176,476664,477475,476664,478859,477976,477976,478859,80
76,test,1,inc,1,m,Thu Dec 04 2025 14:26:41 GMT-0600 (Central Standard Time),487218.59999996424,kiwi,1000,I,m,m,None,899,687.0,212.0,127,1,2425.5,484793.09999996424,7712,lead,NF,C,480592,480592,478864,479874,478864,481290,480379,480380,481290,81
77,test,1,con,1,z,Thu Dec 04 2025 14:26:41 GMT-0600 (Central Standard Time),489784.5,lime,1100,I,z,z,None,925,724.0,201.0,36,1,2562.5,487222.0,7712,lime,NF,C,483123,483123,481293,482408,481293,483856,482922,482922,483856,82
78,test,1,inc,1,m,Thu Dec 04 2025 14:26:41 GMT-0600 (Central Standard Time),492383.09999996424,raisin,1100,I,m,m,None,949,750.0,199.0,96,1,2595.099999964237,489788.0,7712,cobalt,NF,C,485689,485689,483859,484972,483859,486454,485490,485490,486454,83
79,test,1,inc,1,z,Thu Dec 04 2025 14:26:41 GMT-0600 (Central Standard Time),494783.3000000119,copper,900,I,z,z,None,967,768.0,199.0,22,1,2397.0,492386.3000000119,7712,orange,NF,C,488071,488071,486457,487371,486458,488854,487872,487872,488854,84
80,test,1,con,1,m,Thu Dec 04 2025 14:26:41 GMT-0600 (Central Standard Time),496965.39999997616,cobalt,900,I,m,m,None,734,534.0,200.0,90,1,2178.899999976158,494786.5,7712,cobalt,NF,C,490488,490488,488858,489772,488858,491036,490287,490287,491036,85
81,test,1,inc,1,z,Thu Dec 04 2025 14:26:41 GMT-0600 (Central Standard Time),499363.89999997616,zinc,1000,I,z,z,None,852,653.0,199.0,39,1,2395.399999976158,496968.5,7712,lime,NF,C,492770,492770,491040,492055,491040,493435,492570,492570,493435,86
82,test,1,inc,1,m,Thu Dec 04 2025 14:26:41 GMT-0600 (Central Standard Time),501780.59999996424,orange,1000,I,m,m,None,894,695.0,199.0,87,1,2413.599999964237,499367.0,7712,silver,NF,C,495152,495152,493438,494452,493438,495852,494953,494953,495852,87
83,test,1,con,1,m,Thu Dec 04 2025 14:26:41 GMT-0600 (Central Standard Time),503946.89999997616,lead,800,I,m,m,None,839,640.0,199.0,121,1,2161.899999976158,501785.0,7712,lead,NF,C,497368,497368,495856,496668,495856,498018,497169,497169,498018,88
84,test,1,inc,1,z,Thu Dec 04 2025 14:26:41 GMT-0600 (Central Standard Time),506529.3000000119,lead,1100,I,z,z,None,933,734.0,199.0,40,1,2577.2000000476837,503952.09999996424,7712,lime,NF,C,499851,499851,498023,499134,498023,500600,499651,499651,500600,89
85,test,1,con,1,z,Thu Dec 04 2025 14:26:41 GMT-0600 (Central Standard Time),508913.09999996424,raisin,1000,I,z,z,None,833,633.0,200.0,27,1,2377.2999999523163,506535.8000000119,7712,raisin,NF,C,502334,502334,500607,501618,500607,502984,502133,502133,502984,90
86,test,1,inc,1,z,Thu Dec 04 2025 14:26:41 GMT-0600 (Central Standard Time),511146.6999999881,gold,800,I,z,z,None,882,683.0,199.0,45,1,2229.399999976158,508917.3000000119,7712,pear,NF,C,504516,504516,502988,503800,502989,505218,504316,504316,505218,91
87,test,1,con,1,z,Thu Dec 04 2025 14:26:41 GMT-0600 (Central Standard Time),513595.3000000119,lime,1000,I,z,z,None,900,698.0,202.0,35,1,2444.2000000476837,511151.09999996424,7712,lime,NF,C,506951,506951,505222,506232,505222,507666,506749,506749,507666,92
88,test,1,con,1,m,Thu Dec 04 2025 14:26:41 GMT-0600 (Central Standard Time),515960.3000000119,silver,1100,I,m,m,None,716,516.0,200.0,84,1,2360.400000035763,513599.89999997616,7712,silver,NF,C,509499,509499,507671,508782,507671,510031,509298,509298,510031,93
89,test,1,con,1,z,Thu Dec 04 2025 14:26:41 GMT-0600 (Central Standard Time),518293.8000000119,raisin,900,I,z,z,None,894,694.0,200.0,26,1,2329.400000035763,515964.39999997616,7712,raisin,NF,C,511665,511665,510035,510947,510036,512365,511464,511464,512365,94
90,test,1,inc,1,m,Thu Dec 04 2025 14:26:41 GMT-0600 (Central Standard Time),520374.5,banana,800,I,m,m,None,744,545.0,199.0,77,1,2076.199999988079,518298.3000000119,7712,copper,NF,C,513896,513896,512369,513180,512370,514446,513697,513697,514446,95
91,test,1,inc,1,z,Thu Dec 04 2025 14:26:41 GMT-0600 (Central Standard Time),522724.3000000119,silver,1000,I,z,z,None,820,621.0,199.0,31,1,2344.100000023842,520380.1999999881,7712,raisin,NF,C,516162,516162,514451,515462,514451,516795,515963,515963,516795,96
92,test,1,con,1,m,Thu Dec 04 2025 14:26:41 GMT-0600 (Central Standard Time),524856.3999999762,iron,800,I,m,m,None,784,585.0,199.0,105,1,2126.800000011921,522729.59999996424,7712,iron,NF,C,518329,518329,516801,517612,516801,518928,518129,518129,518927,97
93,test,1,con,1,z,Thu Dec 04 2025 14:26:41 GMT-0600 (Central Standard Time),527006.3000000119,plum,800,I,z,z,None,803,602.0,201.0,57,1,2143.600000023842,524862.6999999881,7712,plum,NF,C,520462,520462,518934,519745,518934,521077,520261,520261,521077,98
94,test,1,con,1,m,Thu Dec 04 2025 14:26:41 GMT-0600 (Central Standard Time),529271.6999999881,lead,900,I,m,m,None,817,617.0,200.0,122,1,2259.100000023842,527012.5999999642,7712,lead,NF,C,522712,522712,521084,521994,521084,523343,522511,522511,523343,99
95,test,1,inc,1,m,Thu Dec 04 2025 14:26:41 GMT-0600 (Central Standard Time),531786.8999999762,plum,1100,I,m,m,None,870,671.0,199.0,104,1,2508.199999988079,529278.6999999881,7712,gold,NF,C,525176,525176,523350,524460,523350,525858,524977,524977,525858,100
96,test,1,inc,1,z,Thu Dec 04 2025 14:26:41 GMT-0600 (Central Standard Time),534253.8000000119,zinc,1000,I,z,z,None,943,744.0,199.0,55,1,2464.2000000476837,531789.5999999642,7712,kiwi,NF,C,527576,527576,525861,526874,525861,528325,527376,527376,528325,101
97,test,1,con,1,z,Thu Dec 04 2025 14:26:41 GMT-0600 (Central Standard Time),536236.5999999642,lime,800,I,z,z,None,636,437.0,199.0,33,1,1978.699999988079,534257.8999999762,7712,lime,NF,C,529859,529859,528329,529143,528329,530308,529659,529659,530308,102
98,test,1,con,1,z,Thu Dec 04 2025 14:26:41 GMT-0600 (Central Standard Time),538336.1999999881,pear,900,I,z,z,None,659,460.0,199.0,42,1,2096.399999976158,536239.8000000119,7712,pear,NF,C,531940,531940,530311,531225,530311,532407,531741,531741,532407,103
99,test,1,con,1,m,Thu Dec 04 2025 14:26:41 GMT-0600 (Central Standard Time),540551.8999999762,bronze,800,I,m,m,None,882,668.0,214.0,65,1,2211.800000011921,538340.0999999642,7712,bronze,NF,C,533940,533940,532411,533223,532411,534623,533725,533725,534623,104
100,test,1,inc,1,z,Thu Dec 04 2025 14:26:41 GMT-0600 (Central Standard Time),542551.0999999642,gold,800,I,z,z,None,658,459.0,199.0,37,1,1995.0999999642372,540556.0,7712,lime,NF,C,536156,536156,534627,535441,534627,536622,535956,535956,536622,105
101,test,1,inc,1,z,Thu Dec 04 2025 14:26:41 GMT-0600 (Central Standard Time),545016.5,lead,1100,I,z,z,None,823,608.0,215.0,64,1,2461.300000011921,542555.1999999881,7712,plum,NF,C,538472,538472,536626,537739,536626,539088,538256,538256,539088,106
102,test,1,con,1,m,Thu Dec 04 2025 14:26:41 GMT-0600 (Central Standard Time),547217.5,gold,900,I,m,m,None,751,552.0,199.0,98,1,2196.600000023842,545020.8999999762,7712,gold,NF,C,540721,540721,539092,540004,539092,541289,540522,540522,541288,107
103,test,1,con,1,m,Thu Dec 04 2025 14:26:41 GMT-0600 (Central Standard Time),549366.0,copper,800,I,m,m,None,813,614.0,199.0,73,1,2143.400000035763,547222.5999999642,7712,copper,NF,C,542820,542820,541294,542104,541294,543437,542621,542621,543437,108
104,test,1,con,1,m,Thu Dec 04 2025 14:26:41 GMT-0600 (Central Standard Time),551448.3000000119,copper,900,I,m,m,None,630,414.0,216.0,74,1,2078.7000000476837,549369.5999999642,7712,copper,NF,C,545089,545089,543441,544353,543441,545519,544872,544872,545519,109
105,test,1,con,1,z,Thu Dec 04 2025 14:26:41 GMT-0600 (Central Standard Time),553697.5999999642,banana,900,I,z,z,None,806,606.0,200.0,2,1,2244.7999999523163,551452.8000000119,7712,banana,NF,C,547153,547153,545524,546435,545524,547769,546952,546952,547769,110
106,test,1,con,1,z,Thu Dec 04 2025 14:26:41 GMT-0600 (Central Standard Time),555979.5999999642,kiwi,900,I,z,z,None,847,646.0,201.0,50,1,2276.399999976158,553703.1999999881,7712,kiwi,NF,C,549402,549402,547774,548686,547774,550051,549201,549201,550051,111
107,test,1,con,1,z,Thu Dec 04 2025 14:26:41 GMT-0600 (Central Standard Time),558179.5,banana,1000,I,z,z,None,669,453.0,216.0,3,1,2197.300000011921,555982.1999999881,7712,banana,NF,C,551786,551786,550053,551067,550053,552251,551569,551569,552250,112
108,test,1,inc,1,m,Thu Dec 04 2025 14:26:41 GMT-0600 (Central Standard Time),560446.3000000119,banana,800,I,m,m,None,918,719.0,199.0,85,1,2263.800000011921,558182.5,7712,silver,NF,C,553784,553784,552254,553067,552254,554517,553584,553584,554517,113
109,test,1,inc,1,m,Thu Dec 04 2025 14:26:41 GMT-0600 (Central Standard Time),562694.3999999762,cherry,900,I,m,m,None,799,586.0,213.0,78,1,2244.0,560450.3999999762,7712,copper,NF,C,556165,556165,554521,555434,554522,556766,555952,555952,556765,114
110,test,1,con,1,m,Thu Dec 04 2025 14:26:41 GMT-0600 (Central Standard Time),565010.5,silver,1000,I,m,m,None,788,589.0,199.0,83,1,2311.600000023842,562698.8999999762,7712,silver,NF,C,558482,558482,556770,557782,556770,559082,558283,558283,559082,115
111,test,1,inc,1,z,Thu Dec 04 2025 14:26:41 GMT-0600 (Central Standard Time),567293.8000000119,bronze,800,I,z,z,None,934,735.0,199.0,5,1,2278.300000011921,565015.5,7712,banana,NF,C,560616,560616,559087,559899,559087,561365,560416,560416,561365,116
112,test,1,inc,1,z,Thu Dec 04 2025 14:26:41 GMT-0600 (Central Standard Time),569758.8999999762,lead,1100,I,z,z,None,816,617.0,199.0,48,1,2462.599999964237,567296.3000000119,7712,pear,NF,C,563198,563198,561367,562482,561368,563830,562999,562999,563830,117
113,test,1,con,1,z,Thu Dec 04 2025 14:26:41 GMT-0600 (Central Standard Time),572191.8000000119,pear,1000,I,z,z,None,881,682.0,199.0,43,1,2429.5,569762.3000000119,7712,pear,NF,C,565564,565564,563833,564848,563833,566263,565364,565364,566263,118
114,test,1,inc,1,z,Thu Dec 04 2025 14:26:41 GMT-0600 (Central Standard Time),574708.0999999642,cobalt,1100,I,z,z,None,895,696.0,199.0,16,1,2513.599999964237,572194.5,7712,cherry,NF,C,568079,568079,566266,567379,566266,568779,567880,567880,568779,119
115,test,1,con,1,m,Thu Dec 04 2025 14:26:41 GMT-0600 (Central Standard Time),577006.5,cobalt,1000,I,m,m,None,759,544.0,215.0,91,1,2295.0,574711.5,7712,cobalt,NF,C,570528,570528,568783,569796,568783,571078,570313,570313,571078,120
116,test,1,inc,1,z,Thu Dec 04 2025 14:26:41 GMT-0600 (Central Standard Time),579156.0999999642,gold,800,I,z,z,None,803,604.0,199.0,53,1,2146.899999976158,577009.1999999881,7712,kiwi,NF,C,572611,572611,571080,571896,571080,573227,572411,572411,573227,121
117,test,1,inc,1,m,Thu Dec 04 2025 14:26:41 GMT-0600 (Central Standard Time),581604.6999999881,kiwi,1000,I,m,m,None,927,727.0,200.0,103,1,2444.300000011921,579160.3999999762,7712,gold,NF,C,574944,574944,573231,574243,573232,575676,574744,574744,575676,122
118,test,1,con,1,m,Thu Dec 04 2025 14:26:41 GMT-0600 (Central Standard Time),583921.3000000119,zinc,800,I,m,m,None,980,781.0,199.0,113,1,2312.300000011921,581609.0,7712,zinc,NF,C,577194,577195,575680,576492,575680,577992,576995,576995,577992,123
119,test,1,inc,1,z,Thu Dec 04 2025 14:26:41 GMT-0600 (Central Standard Time),586155.0999999642,silver,1000,I,z,z,None,689,489.0,200.0,23,1,2230.0,583925.0999999642,7712,orange,NF,C,579726,579726,577996,579009,577996,580226,579525,579525,580226,124
120,test,1,con,1,z,Thu Dec 04 2025 14:26:41 GMT-0600 (Central Standard Time),588470.5,kiwi,1000,I,z,z,None,770,569.0,201.0,51,1,2311.0,586159.5,7712,kiwi,NF,C,581958,581958,580231,581241,580231,582542,581757,581757,582542,125
121,test,1,con,1,z,Thu Dec 04 2025 14:26:41 GMT-0600 (Central Standard Time),590469.5,kiwi,800,I,z,z,None,651,437.0,214.0,49,1,1996.0,588473.5,7712,kiwi,NF,C,584090,584090,582545,583358,582545,584541,583876,583876,584541,126
122,test,1,con,1,z,Thu Dec 04 2025 14:26:41 GMT-0600 (Central Standard Time),592517.5,orange,800,I,z,z,None,709,510.0,199.0,17,1,2043.9000000357628,590473.5999999642,7712,orange,NF,C,586073,586073,584545,585357,584545,586589,585874,585874,586589,127
123,test,1,inc,1,z,Thu Dec 04 2025 14:26:41 GMT-0600 (Central Standard Time),595035.0999999642,cobalt,1100,I,z,z,None,887,672.0,215.0,24,1,2514.7999999523163,592520.3000000119,7712,orange,NF,C,588423,588423,586591,587706,586591,589106,588208,588208,589106,128
