block_c,block_dur,condition,countdown,datetime,endtime,list,multichar_response,project,response,response_time,session_number,start_end,starttime,subject_id,task,task_vers,trial
,,,,Fri Mar 13 2026 10:30:27 GMT-0500 (Central Daylight Time),,,,O,space,439,1,,,7739,WL,A,
prac,,0,,Fri Mar 13 2026 10:30:27 GMT-0500 (Central Daylight Time),,NA,b,O,b,5529,1,,,7739,WL,A,1.0
prac,,0,,Fri Mar 13 2026 10:30:27 GMT-0500 (Central Daylight Time),,NA,bo,O,o,490,1,,,7739,WL,A,1.0
prac,,0,,Fri Mar 13 2026 10:30:27 GMT-0500 (Central Daylight Time),,NA,boo,O,o,178,1,,,7739,WL,A,1.0
prac,,0,,Fri Mar 13 2026 10:30:27 GMT-0500 (Central Daylight Time),,NA,boos,O,s,292,1,,,7739,WL,A,1.0
prac,,0,,Fri Mar 13 2026 10:30:27 GMT-0500 (Central Daylight Time),,NA,boost,O,t,355,1,,,7739,WL,A,1.0
prac,,0,,Fri Mar 13 2026 10:30:27 GMT-0500 (Central Daylight Time),,NA,boostenter,O,enter,9446,1,,,7739,WL,A,1.0
1,4.681999921798706,learn,55318.000078201294,Fri Mar 13 2026 10:30:27 GMT-0500 (Central Daylight Time),127947.59999990463,A,k,O,k,4640,1,4681.099999904633,123266.5,7739,WL,A,1.0
1,4.98199987411499,learn,55018.00012588501,Fri Mar 13 2026 10:30:27 GMT-0500 (Central Daylight Time),128247.20000004768,A,ke,O,e,265,1,4980.700000047684,123266.5,7739,WL,A,1.0
1,5.2809998989105225,learn,54719.00010108948,Fri Mar 13 2026 10:30:27 GMT-0500 (Central Daylight Time),128546.20000004768,A,key,O,y,259,1,5279.700000047684,123266.5,7739,WL,A,1.0
1,7.0299999713897705,learn,52970.00002861023,Fri Mar 13 2026 10:30:27 GMT-0500 (Central Daylight Time),130295.39999985695,A,keyenter,O,enter,1726,1,7028.899999856949,123266.5,7739,WL,A,1.0
1,10.046000003814697,learn,49953.9999961853,Fri Mar 13 2026 10:30:27 GMT-0500 (Central Daylight Time),133311.70000004768,A,r,O,r,2998,1,3015.9000000953674,130295.79999995232,7739,WL,A,2.0
1,10.312999963760376,learn,49687.000036239624,Fri Mar 13 2026 10:30:27 GMT-0500 (Central Daylight Time),133578.20000004768,A,ru,O,u,226,1,3282.4000000953674,130295.79999995232,7739,WL,A,2.0
1,10.779000043869019,learn,49220.99995613098,Fri Mar 13 2026 10:30:27 GMT-0500 (Central Daylight Time),134045.0,A,rug,O,g,433,1,3749.2000000476837,130295.79999995232,7739,WL,A,2.0
1,11.961999893188477,learn,48038.00010681152,Fri Mar 13 2026 10:30:27 GMT-0500 (Central Daylight Time),135227.20000004768,A,rugenter,O,enter,1154,1,4931.400000095367,130295.79999995232,7739,WL,A,2.0
1,13.444999933242798,learn,46555.0000667572,Fri Mar 13 2026 10:30:27 GMT-0500 (Central Daylight Time),136710.79999995232,A,g,O,g,1475,1,1483.2999999523163,135227.5,7739,WL,A,3.0
1,13.812000036239624,learn,46187.999963760376,Fri Mar 13 2026 10:30:27 GMT-0500 (Central Daylight Time),137077.89999985695,A,go,O,o,340,1,1850.3999998569489,135227.5,7739,WL,A,3.0
1,14.19599986076355,learn,45804.00013923645,Fri Mar 13 2026 10:30:27 GMT-0500 (Central Daylight Time),137461.29999995232,A,gol,O,l,364,1,2233.7999999523163,135227.5,7739,WL,A,3.0
1,14.562000036239624,learn,45437.999963760376,Fri Mar 13 2026 10:30:27 GMT-0500 (Central Daylight Time),137827.20000004768,A,gold,O,d,340,1,2599.7000000476837,135227.5,7739,WL,A,3.0
1,15.07699990272522,learn,44923.00009727478,Fri Mar 13 2026 10:30:27 GMT-0500 (Central Daylight Time),138342.79999995232,A,goldenter,O,enter,478,1,3115.2999999523163,135227.5,7739,WL,A,3.0
1,17.627000093460083,learn,42372.99990653992,Fri Mar 13 2026 10:30:27 GMT-0500 (Central Daylight Time),140892.59999990463,A,m,O,m,2535,1,2549.399999856949,138343.20000004768,7739,WL,A,4.0
1,18.060999870300293,learn,41939.00012969971,Fri Mar 13 2026 10:30:27 GMT-0500 (Central Daylight Time),141326.59999990463,A,me,O,e,411,1,2983.399999856949,138343.20000004768,7739,WL,A,4.0
1,18.293999910354614,learn,41706.000089645386,Fri Mar 13 2026 10:30:27 GMT-0500 (Central Daylight Time),141559.5,A,mea,O,a,193,1,3216.2999999523163,138343.20000004768,7739,WL,A,4.0
1,18.7260000705719,learn,41273.9999294281,Fri Mar 13 2026 10:30:27 GMT-0500 (Central Daylight Time),141991.5,A,mead,O,d,394,1,3648.2999999523163,138343.20000004768,7739,WL,A,4.0
1,19.05900001525879,learn,40940.99998474121,Fri Mar 13 2026 10:30:27 GMT-0500 (Central Daylight Time),142324.79999995232,A,meado,O,o,321,1,3981.5999999046326,138343.20000004768,7739,WL,A,4.0
1,19.443000078201294,learn,40556.999921798706,Fri Mar 13 2026 10:30:27 GMT-0500 (Central Daylight Time),142708.89999985695,A,meadow,O,w,370,1,4365.699999809265,138343.20000004768,7739,WL,A,4.0
1,20.375,learn,39625.0,Fri Mar 13 2026 10:30:27 GMT-0500 (Central Daylight Time),143640.89999985695,A,meadowenter,O,enter,897,1,5297.699999809265,138343.20000004768,7739,WL,A,4.0
1,21.95899987220764,learn,38041.00012779236,Fri Mar 13 2026 10:30:27 GMT-0500 (Central Daylight Time),145224.70000004768,A,r,O,r,1571,1,1583.4000000953674,143641.29999995232,7739,WL,A,5.0
1,22.358999967575073,learn,37641.00003242493,Fri Mar 13 2026 10:30:27 GMT-0500 (Central Daylight Time),145624.59999990463,A,ra,O,a,365,1,1983.2999999523163,143641.29999995232,7739,WL,A,5.0
1,22.776000022888184,learn,37223.99997711182,Fri Mar 13 2026 10:30:27 GMT-0500 (Central Daylight Time),146041.20000004768,A,rat,O,t,379,1,2399.9000000953674,143641.29999995232,7739,WL,A,5.0
1,22.97499990463257,learn,37025.00009536743,Fri Mar 13 2026 10:30:27 GMT-0500 (Central Daylight Time),146240.20000004768,A,ratt,O,t,167,1,2598.9000000953674,143641.29999995232,7739,WL,A,5.0
1,23.375,learn,36625.0,Fri Mar 13 2026 10:30:27 GMT-0500 (Central Daylight Time),146640.59999990463,A,rattl,O,l,377,1,2999.2999999523163,143641.29999995232,7739,WL,A,5.0
1,23.72499990463257,learn,36275.00009536743,Fri Mar 13 2026 10:30:27 GMT-0500 (Central Daylight Time),146991.0,A,rattle,O,e,342,1,3349.7000000476837,143641.29999995232,7739,WL,A,5.0
1,24.35699987411499,learn,35643.00012588501,Fri Mar 13 2026 10:30:27 GMT-0500 (Central Daylight Time),147623.09999990463,A,rattleenter,O,enter,601,1,3981.7999999523163,143641.29999995232,7739,WL,A,5.0
1,27.69099998474121,learn,32309.00001525879,Fri Mar 13 2026 10:30:27 GMT-0500 (Central Daylight Time),150956.39999985695,A,h,O,h,3310,1,3332.899999856949,147623.5,7739,WL,A,6.0
1,28.08999991416931,learn,31910.00008583069,Fri Mar 13 2026 10:30:27 GMT-0500 (Central Daylight Time),151356.09999990463,A,ha,O,a,371,1,3732.5999999046326,147623.5,7739,WL,A,6.0
1,28.44000005722046,learn,31559.99994277954,Fri Mar 13 2026 10:30:27 GMT-0500 (Central Daylight Time),151706.0,A,har,O,r,310,1,4082.5,147623.5,7739,WL,A,6.0
1,29.006999969482422,learn,30993.000030517578,Fri Mar 13 2026 10:30:27 GMT-0500 (Central Daylight Time),152272.5,A,harp,O,p,533,1,4649.0,147623.5,7739,WL,A,6.0
1,29.805999994277954,learn,30194.000005722046,Fri Mar 13 2026 10:30:27 GMT-0500 (Central Daylight Time),153071.29999995232,A,harpenter,O,enter,762,1,5447.799999952316,147623.5,7739,WL,A,6.0
1,33.72199988365173,learn,26278.000116348267,Fri Mar 13 2026 10:30:27 GMT-0500 (Central Daylight Time),156987.20000004768,A,b,O,b,3903,1,3915.5,153071.70000004768,7739,WL,A,7.0
1,34.105000019073486,learn,25894.999980926514,Fri Mar 13 2026 10:30:27 GMT-0500 (Central Daylight Time),157370.70000004768,A,bu,O,u,355,1,4299.0,153071.70000004768,7739,WL,A,7.0
1,34.55399990081787,learn,25446.00009918213,Fri Mar 13 2026 10:30:27 GMT-0500 (Central Daylight Time),157819.70000004768,A,but,O,t,414,1,4748.0,153071.70000004768,7739,WL,A,7.0
1,34.770999908447266,learn,25229.000091552734,Fri Mar 13 2026 10:30:27 GMT-0500 (Central Daylight Time),158036.20000004768,A,butt,O,t,208,1,4964.5,153071.70000004768,7739,WL,A,7.0
1,34.937000036239624,learn,25062.999963760376,Fri Mar 13 2026 10:30:27 GMT-0500 (Central Daylight Time),158202.70000004768,A,butto,O,o,152,1,5131.0,153071.70000004768,7739,WL,A,7.0
1,35.25399994850159,learn,24746.000051498413,Fri Mar 13 2026 10:30:27 GMT-0500 (Central Daylight Time),158519.5,A,button,O,n,306,1,5447.799999952316,153071.70000004768,7739,WL,A,7.0
1,35.97000002861023,learn,24029.99997138977,Fri Mar 13 2026 10:30:27 GMT-0500 (Central Daylight Time),159235.70000004768,A,buttonenter,O,enter,709,1,6164.0,153071.70000004768,7739,WL,A,7.0
1,60.013999938964844,learn,-13.99993896484375,Fri Mar 13 2026 10:30:27 GMT-0500 (Central Daylight Time),183279.0,A,None,O,None,24035,1,24043.0,159236.0,7739,WL,A,8.0
2,2.367000102996826,learn,57632.999897003174,Fri Mar 13 2026 10:30:27 GMT-0500 (Central Daylight Time),260003.79999995232,A,t,O,t,2343,1,2366.7000000476837,257637.09999990463,7739,WL,A,1.0
2,2.7320001125335693,learn,57267.99988746643,Fri Mar 13 2026 10:30:27 GMT-0500 (Central Daylight Time),260369.5,A,tr,O,r,328,1,2732.4000000953674,257637.09999990463,7739,WL,A,1.0
2,2.9160001277923584,learn,57083.99987220764,Fri Mar 13 2026 10:30:27 GMT-0500 (Central Daylight Time),260553.5,A,tra,O,a,170,1,2916.4000000953674,257637.09999990463,7739,WL,A,1.0
2,3.2320001125335693,learn,56767.99988746643,Fri Mar 13 2026 10:30:27 GMT-0500 (Central Daylight Time),260869.39999985695,A,trai,O,i,279,1,3232.2999999523163,257637.09999990463,7739,WL,A,1.0
2,3.5989999771118164,learn,56401.00002288818,Fri Mar 13 2026 10:30:27 GMT-0500 (Central Daylight Time),261236.59999990463,A,train,O,n,350,1,3599.5,257637.09999990463,7739,WL,A,1.0
2,4.732000112533569,learn,55267.99988746643,Fri Mar 13 2026 10:30:27 GMT-0500 (Central Daylight Time),262369.39999985695,A,trainr,O,r,1099,1,4732.299999952316,257637.09999990463,7739,WL,A,1.0
2,4.982000112533569,learn,55017.99988746643,Fri Mar 13 2026 10:30:27 GMT-0500 (Central Daylight Time),262619.39999985695,A,trainra,O,a,210,1,4982.299999952316,257637.09999990463,7739,WL,A,1.0
2,5.398000001907349,learn,54601.99999809265,Fri Mar 13 2026 10:30:27 GMT-0500 (Central Daylight Time),263035.59999990463,A,trainrat,O,t,385,1,5398.5,257637.09999990463,7739,WL,A,1.0
2,5.732000112533569,learn,54267.99988746643,Fri Mar 13 2026 10:30:27 GMT-0500 (Central Daylight Time),263369.2999999523,A,trainratt,O,t,299,1,5732.200000047684,257637.09999990463,7739,WL,A,1.0
2,6.015000104904175,learn,53984.999895095825,Fri Mar 13 2026 10:30:27 GMT-0500 (Central Daylight Time),263652.7000000477,A,trainrattl,O,l,241,1,6015.600000143051,257637.09999990463,7739,WL,A,1.0
2,6.565000057220459,learn,53434.99994277954,Fri Mar 13 2026 10:30:27 GMT-0500 (Central Daylight Time),264202.39999985695,A,trainrattle,O,e,512,1,6565.299999952316,257637.09999990463,7739,WL,A,1.0
2,26.54100012779236,learn,33458.99987220764,Fri Mar 13 2026 10:30:27 GMT-0500 (Central Daylight Time),284178.2000000477,A,trainrattleenter,O,enter,19945,1,26541.10000014305,257637.09999990463,7739,WL,A,1.0
2,28.825000047683716,learn,31174.999952316284,Fri Mar 13 2026 10:30:27 GMT-0500 (Central Daylight Time),286461.7999999523,A,t,O,t,2276,1,2283.2000000476837,284178.59999990463,7739,WL,A,2.0
2,29.174000024795532,learn,30825.999975204468,Fri Mar 13 2026 10:30:27 GMT-0500 (Central Daylight Time),286811.59999990463,A,tr,O,r,310,1,2633.0,284178.59999990463,7739,WL,A,2.0
2,29.374000072479248,learn,30625.999927520752,Fri Mar 13 2026 10:30:27 GMT-0500 (Central Daylight Time),287011.2999999523,A,tra,O,a,169,1,2832.7000000476837,284178.59999990463,7739,WL,A,2.0
2,29.85700011253357,learn,30142.99988746643,Fri Mar 13 2026 10:30:27 GMT-0500 (Central Daylight Time),287494.39999985695,A,trai,O,i,456,1,3315.7999999523163,284178.59999990463,7739,WL,A,2.0
2,30.27400016784668,learn,29725.99983215332,Fri Mar 13 2026 10:30:27 GMT-0500 (Central Daylight Time),287911.2000000477,A,train,O,n,382,1,3732.600000143051,284178.59999990463,7739,WL,A,2.0
2,31.957000017166138,learn,28042.999982833862,Fri Mar 13 2026 10:30:27 GMT-0500 (Central Daylight Time),289594.0,A,trainr,O,r,1654,1,5415.400000095367,284178.59999990463,7739,WL,A,2.0
2,32.27300000190735,learn,27726.99999809265,Fri Mar 13 2026 10:30:27 GMT-0500 (Central Daylight Time),289910.59999990463,A,trainra,O,a,281,1,5732.0,284178.59999990463,7739,WL,A,2.0
2,32.59000015258789,learn,27409.99984741211,Fri Mar 13 2026 10:30:27 GMT-0500 (Central Daylight Time),290227.2000000477,A,trainrat,O,t,287,1,6048.600000143051,284178.59999990463,7739,WL,A,2.0
2,32.84000015258789,learn,27159.99984741211,Fri Mar 13 2026 10:30:27 GMT-0500 (Central Daylight Time),290477.59999990463,A,trainratt,O,t,226,1,6299.0,284178.59999990463,7739,WL,A,2.0
2,34.305999994277954,learn,25694.000005722046,Fri Mar 13 2026 10:30:27 GMT-0500 (Central Daylight Time),291942.89999985695,A,trainrat,O,backspace,1438,1,7764.299999952316,284178.59999990463,7739,WL,A,2.0
2,34.6560001373291,learn,25343.9998626709,Fri Mar 13 2026 10:30:27 GMT-0500 (Central Daylight Time),292293.7000000477,A,trainra,O,backspace,339,1,8115.100000143051,284178.59999990463,7739,WL,A,2.0
2,35.00600004196167,learn,24993.99995803833,Fri Mar 13 2026 10:30:27 GMT-0500 (Central Daylight Time),292643.0,A,trainr,O,backspace,310,1,8464.400000095367,284178.59999990463,7739,WL,A,2.0
2,35.47099995613098,learn,24529.00004386902,Fri Mar 13 2026 10:30:27 GMT-0500 (Central Daylight Time),293108.39999985695,A,train,O,backspace,433,1,8929.799999952316,284178.59999990463,7739,WL,A,2.0
2,36.771000146865845,learn,23228.999853134155,Fri Mar 13 2026 10:30:27 GMT-0500 (Central Daylight Time),294408.2000000477,A,trainenter,O,enter,1288,1,10229.600000143051,284178.59999990463,7739,WL,A,2.0
2,38.754000186920166,learn,21245.999813079834,Fri Mar 13 2026 10:30:27 GMT-0500 (Central Daylight Time),296391.7000000477,A,r,O,r,1975,1,1983.2000000476837,294408.5,7739,WL,A,3.0
2,39.05299997329712,learn,20947.00002670288,Fri Mar 13 2026 10:30:27 GMT-0500 (Central Daylight Time),296690.59999990463,A,ra,O,a,260,1,2282.0999999046326,294408.5,7739,WL,A,3.0
2,39.437999963760376,learn,20562.000036239624,Fri Mar 13 2026 10:30:27 GMT-0500 (Central Daylight Time),297075.09999990463,A,rat,O,t,362,1,2666.5999999046326,294408.5,7739,WL,A,3.0
2,39.687999963760376,learn,20312.000036239624,Fri Mar 13 2026 10:30:27 GMT-0500 (Central Daylight Time),297324.7999999523,A,ratt,O,t,217,1,2916.2999999523163,294408.5,7739,WL,A,3.0
2,39.955000162124634,learn,20044.999837875366,Fri Mar 13 2026 10:30:27 GMT-0500 (Central Daylight Time),297591.5,A,rattl,O,l,234,1,3183.0,294408.5,7739,WL,A,3.0
2,40.50500011444092,learn,19494.999885559082,Fri Mar 13 2026 10:30:27 GMT-0500 (Central Daylight Time),298141.39999985695,A,rattle,O,e,518,1,3732.899999856949,294408.5,7739,WL,A,3.0
2,42.986000061035156,learn,17013.999938964844,Fri Mar 13 2026 10:30:27 GMT-0500 (Central Daylight Time),300622.7000000477,A,rattleenter,O,enter,2446,1,6214.200000047684,294408.5,7739,WL,A,3.0
2,43.90300011634827,learn,16096.999883651733,Fri Mar 13 2026 10:30:27 GMT-0500 (Central Daylight Time),301539.89999985695,A,k,O,k,895,1,916.8999998569489,300623.0,7739,WL,A,4.0
2,44.35300016403198,learn,15646.999835968018,Fri Mar 13 2026 10:30:27 GMT-0500 (Central Daylight Time),301990.0,A,ke,O,e,427,1,1367.0,300623.0,7739,WL,A,4.0
2,44.88499999046326,learn,15115.000009536743,Fri Mar 13 2026 10:30:27 GMT-0500 (Central Daylight Time),302522.2000000477,A,key,O,y,492,1,1899.2000000476837,300623.0,7739,WL,A,4.0
2,46.01800012588501,learn,13981.99987411499,Fri Mar 13 2026 10:30:27 GMT-0500 (Central Daylight Time),303655.09999990463,A,keyenter,O,enter,1112,1,3032.0999999046326,300623.0,7739,WL,A,4.0
2,46.735000133514404,learn,13264.999866485596,Fri Mar 13 2026 10:30:27 GMT-0500 (Central Daylight Time),304372.2999999523,A,g,O,g,695,1,716.9000000953674,303655.39999985695,7739,WL,A,5.0
2,47.21900010108948,learn,12780.999898910522,Fri Mar 13 2026 10:30:27 GMT-0500 (Central Daylight Time),304855.59999990463,A,go,O,o,450,1,1200.2000000476837,303655.39999985695,7739,WL,A,5.0
2,47.58500003814697,learn,12414.999961853027,Fri Mar 13 2026 10:30:27 GMT-0500 (Central Daylight Time),305222.2000000477,A,gol,O,l,336,1,1566.8000001907349,303655.39999985695,7739,WL,A,5.0
2,48.16799998283386,learn,11832.000017166138,Fri Mar 13 2026 10:30:27 GMT-0500 (Central Daylight Time),305804.7999999523,A,gold,O,d,551,1,2149.4000000953674,303655.39999985695,7739,WL,A,5.0
2,48.20099997520447,learn,11799.000024795532,Fri Mar 13 2026 10:30:27 GMT-0500 (Central Daylight Time),305837.7000000477,A,goldf,O,f,20,1,2182.300000190735,303655.39999985695,7739,WL,A,5.0
2,50.23399996757507,learn,9766.000032424927,Fri Mar 13 2026 10:30:27 GMT-0500 (Central Daylight Time),307871.0,A,gold,O,backspace,2022,1,4215.600000143051,303655.39999985695,7739,WL,A,5.0
2,51.5,learn,8500.0,Fri Mar 13 2026 10:30:27 GMT-0500 (Central Daylight Time),309136.7000000477,A,goldenter,O,enter,1228,1,5481.300000190735,303655.39999985695,7739,WL,A,5.0
2,53.23300004005432,learn,6766.999959945679,Fri Mar 13 2026 10:30:27 GMT-0500 (Central Daylight Time),310870.2000000477,A,f,O,f,1726,1,1733.3000001907349,309136.89999985695,7739,WL,A,6.0
2,53.56599998474121,learn,6434.000015258789,Fri Mar 13 2026 10:30:27 GMT-0500 (Central Daylight Time),311202.59999990463,A,fi,O,i,293,1,2065.7000000476837,309136.89999985695,7739,WL,A,6.0
2,54.01699995994568,learn,5983.000040054321,Fri Mar 13 2026 10:30:27 GMT-0500 (Central Daylight Time),311653.39999985695,A,fin,O,n,424,1,2516.5,309136.89999985695,7739,WL,A,6.0
2,54.432000160217285,learn,5567.999839782715,Fri Mar 13 2026 10:30:27 GMT-0500 (Central Daylight Time),312069.0,A,fing,O,g,382,1,2932.100000143051,309136.89999985695,7739,WL,A,6.0
2,54.848999977111816,learn,5151.000022888184,Fri Mar 13 2026 10:30:27 GMT-0500 (Central Daylight Time),312486.0,A,finge,O,e,410,1,3349.100000143051,309136.89999985695,7739,WL,A,6.0
2,55.200000047683716,learn,4799.999952316284,Fri Mar 13 2026 10:30:27 GMT-0500 (Central Daylight Time),312836.7000000477,A,finger,O,r,326,1,3699.800000190735,309136.89999985695,7739,WL,A,6.0
2,56.63199996948242,learn,3368.000030517578,Fri Mar 13 2026 10:30:27 GMT-0500 (Central Daylight Time),314268.39999985695,A,fingerenter,O,enter,1401,1,5131.5,309136.89999985695,7739,WL,A,6.0
2,57.2810001373291,learn,2718.9998626708984,Fri Mar 13 2026 10:30:27 GMT-0500 (Central Daylight Time),314918.09999990463,A,a,O,a,633,1,649.5,314268.59999990463,7739,WL,A,7.0
2,58.03200006484985,learn,1967.9999351501465,Fri Mar 13 2026 10:30:27 GMT-0500 (Central Daylight Time),315668.7999999523,A,ap,O,p,727,1,1400.2000000476837,314268.59999990463,7739,WL,A,7.0
2,58.199000120162964,learn,1800.9998798370361,Fri Mar 13 2026 10:30:27 GMT-0500 (Central Daylight Time),315835.5,A,app,O,p,128,1,1566.9000000953674,314268.59999990463,7739,WL,A,7.0
2,58.54800009727478,learn,1451.9999027252197,Fri Mar 13 2026 10:30:27 GMT-0500 (Central Daylight Time),316185.2999999523,A,appl,O,l,316,1,1916.7000000476837,314268.59999990463,7739,WL,A,7.0
2,58.94799995422363,learn,1052.0000457763672,Fri Mar 13 2026 10:30:27 GMT-0500 (Central Daylight Time),316584.59999990463,A,apple,O,e,372,1,2316.0,314268.59999990463,7739,WL,A,7.0
2,60.0310001373291,learn,-31.000137329101562,Fri Mar 13 2026 10:30:27 GMT-0500 (Central Daylight Time),317667.7999999523,A,appleNone,O,None,1064,1,3399.2000000476837,314268.59999990463,7739,WL,A,7.0
3,1.4010000228881836,learn,58598.99997711182,Fri Mar 13 2026 10:30:27 GMT-0500 (Central Daylight Time),393844.2999999523,A,b,O,b,1359,1,1400.0,392444.2999999523,7739,WL,A,1.0
3,1.8989999294281006,learn,58101.0000705719,Fri Mar 13 2026 10:30:27 GMT-0500 (Central Daylight Time),394342.2000000477,A,bo,O,o,462,1,1897.9000000953674,392444.2999999523,7739,WL,A,1.0
3,2.181999921798706,learn,57818.000078201294,Fri Mar 13 2026 10:30:27 GMT-0500 (Central Daylight Time),394625.09999990463,A,boo,O,o,263,1,2180.7999999523163,392444.2999999523,7739,WL,A,1.0
3,2.5319998264312744,learn,57468.000173568726,Fri Mar 13 2026 10:30:27 GMT-0500 (Central Daylight Time),394975.09999990463,A,book,O,k,339,1,2530.7999999523163,392444.2999999523,7739,WL,A,1.0
3,3.9809999465942383,learn,56019.00005340576,Fri Mar 13 2026 10:30:27 GMT-0500 (Central Daylight Time),396424.59999990463,A,bookenter,O,enter,1437,1,3980.2999999523163,392444.2999999523,7739,WL,A,1.0
3,5.830999851226807,learn,54169.00014877319,Fri Mar 13 2026 10:30:27 GMT-0500 (Central Daylight Time),398273.89999985695,A,g,O,g,1829,1,1849.0,396424.89999985695,7739,WL,A,2.0
3,6.263999938964844,learn,53736.000061035156,Fri Mar 13 2026 10:30:27 GMT-0500 (Central Daylight Time),398707.59999990463,A,go,O,o,426,1,2282.7000000476837,396424.89999985695,7739,WL,A,2.0
3,6.663999795913696,learn,53336.000204086304,Fri Mar 13 2026 10:30:27 GMT-0500 (Central Daylight Time),399107.39999985695,A,gol,O,l,393,1,2682.5,396424.89999985695,7739,WL,A,2.0
3,7.113999843597412,learn,52886.00015640259,Fri Mar 13 2026 10:30:27 GMT-0500 (Central Daylight Time),399557.2999999523,A,gold,O,d,442,1,3132.4000000953674,396424.89999985695,7739,WL,A,2.0
3,8.11299991607666,learn,51887.00008392334,Fri Mar 13 2026 10:30:27 GMT-0500 (Central Daylight Time),400556.5,A,goldenter,O,enter,991,1,4131.600000143051,396424.89999985695,7739,WL,A,2.0
3,9.146999835968018,learn,50853.00016403198,Fri Mar 13 2026 10:30:27 GMT-0500 (Central Daylight Time),401590.5,A,r,O,r,1019,1,1033.6000001430511,400556.89999985695,7739,WL,A,3.0
3,9.562999963760376,learn,50437.000036239624,Fri Mar 13 2026 10:30:27 GMT-0500 (Central Daylight Time),402006.89999985695,A,ru,O,u,382,1,1450.0,400556.89999985695,7739,WL,A,3.0
3,11.04699993133545,learn,48953.00006866455,Fri Mar 13 2026 10:30:27 GMT-0500 (Central Daylight Time),403490.09999990463,A,rug,O,g,1454,1,2933.2000000476837,400556.89999985695,7739,WL,A,3.0
3,12.02899980545044,learn,47971.00019454956,Fri Mar 13 2026 10:30:27 GMT-0500 (Central Daylight Time),404472.09999990463,A,rugenter,O,enter,953,1,3915.2000000476837,400556.89999985695,7739,WL,A,3.0
3,13.311999797821045,learn,46688.000202178955,Fri Mar 13 2026 10:30:27 GMT-0500 (Central Daylight Time),405755.7999999523,A,c,O,c,1271,1,1283.5,404472.2999999523,7739,WL,A,4.0
3,13.678999900817871,learn,46321.00009918213,Fri Mar 13 2026 10:30:27 GMT-0500 (Central Daylight Time),406122.2000000477,A,ch,O,h,334,1,1649.9000000953674,404472.2999999523,7739,WL,A,4.0
3,14.460999965667725,learn,45539.000034332275,Fri Mar 13 2026 10:30:27 GMT-0500 (Central Daylight Time),406904.5,A,chi,O,i,744,1,2432.2000000476837,404472.2999999523,7739,WL,A,4.0
3,15.17799997329712,learn,44822.00002670288,Fri Mar 13 2026 10:30:27 GMT-0500 (Central Daylight Time),407621.7999999523,A,chim,O,m,698,1,3149.5,404472.2999999523,7739,WL,A,4.0
3,15.694999933242798,learn,44305.0000667572,Fri Mar 13 2026 10:30:27 GMT-0500 (Central Daylight Time),408138.2999999523,A,chimn,O,n,486,1,3666.0,404472.2999999523,7739,WL,A,4.0
3,16.527999877929688,learn,43472.00012207031,Fri Mar 13 2026 10:30:27 GMT-0500 (Central Daylight Time),408971.7999999523,A,chimne,O,e,793,1,4499.5,404472.2999999523,7739,WL,A,4.0
3,16.777999877929688,learn,43222.00012207031,Fri Mar 13 2026 10:30:27 GMT-0500 (Central Daylight Time),409221.7000000477,A,chimney,O,y,234,1,4749.400000095367,404472.2999999523,7739,WL,A,4.0
3,17.65999984741211,learn,42340.00015258789,Fri Mar 13 2026 10:30:27 GMT-0500 (Central Daylight Time),410103.59999990463,A,chimneyenter,O,enter,855,1,5631.299999952316,404472.2999999523,7739,WL,A,4.0
3,18.57699990272522,learn,41423.00009727478,Fri Mar 13 2026 10:30:27 GMT-0500 (Central Daylight Time),411020.7000000477,A,l,O,l,903,1,916.9000000953674,410103.7999999523,7739,WL,A,5.0
3,18.944000005722046,learn,41055.999994277954,Fri Mar 13 2026 10:30:27 GMT-0500 (Central Daylight Time),411387.39999985695,A,lo,O,o,326,1,1283.5999999046326,410103.7999999523,7739,WL,A,5.0
3,19.3439998626709,learn,40656.0001373291,Fri Mar 13 2026 10:30:27 GMT-0500 (Central Daylight Time),411787.2999999523,A,log,O,g,365,1,1683.5,410103.7999999523,7739,WL,A,5.0
3,20.14299988746643,learn,39857.00011253357,Fri Mar 13 2026 10:30:27 GMT-0500 (Central Daylight Time),412586.0,A,logenter,O,enter,759,1,2482.2000000476837,410103.7999999523,7739,WL,A,5.0
3,20.90999984741211,learn,39090.00015258789,Fri Mar 13 2026 10:30:27 GMT-0500 (Central Daylight Time),413353.2999999523,A,t,O,t,757,1,767.0,412586.2999999523,7739,WL,A,6.0
3,21.20899987220764,learn,38791.00012779236,Fri Mar 13 2026 10:30:27 GMT-0500 (Central Daylight Time),413652.39999985695,A,tr,O,r,274,1,1066.0999999046326,412586.2999999523,7739,WL,A,6.0
3,21.424999952316284,learn,38575.000047683716,Fri Mar 13 2026 10:30:27 GMT-0500 (Central Daylight Time),413868.7000000477,A,tra,O,a,199,1,1282.4000000953674,412586.2999999523,7739,WL,A,6.0
3,21.675999879837036,learn,38324.000120162964,Fri Mar 13 2026 10:30:27 GMT-0500 (Central Daylight Time),414119.5,A,trai,O,i,243,1,1533.2000000476837,412586.2999999523,7739,WL,A,6.0
3,22.009999990463257,learn,37990.00000953674,Fri Mar 13 2026 10:30:27 GMT-0500 (Central Daylight Time),414453.0,A,train,O,n,307,1,1866.7000000476837,412586.2999999523,7739,WL,A,6.0
3,22.857999801635742,learn,37142.00019836426,Fri Mar 13 2026 10:30:27 GMT-0500 (Central Daylight Time),415301.7999999523,A,trainenter,O,enter,813,1,2715.5,412586.2999999523,7739,WL,A,6.0
3,23.658999919891357,learn,36341.00008010864,Fri Mar 13 2026 10:30:27 GMT-0500 (Central Daylight Time),416102.0,A,b,O,b,793,1,799.9000000953674,415302.09999990463,7739,WL,A,7.0
3,24.108999967575073,learn,35891.00003242493,Fri Mar 13 2026 10:30:27 GMT-0500 (Central Daylight Time),416552.09999990463,A,bo,O,o,424,1,1250.0,415302.09999990463,7739,WL,A,7.0
3,24.342000007629395,learn,35657.999992370605,Fri Mar 13 2026 10:30:27 GMT-0500 (Central Daylight Time),416785.7000000477,A,boo,O,o,198,1,1483.6000001430511,415302.09999990463,7739,WL,A,7.0
3,24.64199995994568,learn,35358.00004005432,Fri Mar 13 2026 10:30:27 GMT-0500 (Central Daylight Time),417085.5,A,book,O,k,270,1,1783.4000000953674,415302.09999990463,7739,WL,A,7.0
3,25.324999809265137,learn,34675.00019073486,Fri Mar 13 2026 10:30:27 GMT-0500 (Central Daylight Time),417767.7000000477,A,bookenter,O,enter,648,1,2465.600000143051,415302.09999990463,7739,WL,A,7.0
3,27.840999841690063,learn,32159.000158309937,Fri Mar 13 2026 10:30:27 GMT-0500 (Central Daylight Time),420283.7999999523,A,h,O,h,2494,1,2515.7999999523163,417768.0,7739,WL,A,8.0
3,28.240999937057495,learn,31759.000062942505,Fri Mar 13 2026 10:30:27 GMT-0500 (Central Daylight Time),420684.2000000477,A,ha,O,a,375,1,2916.2000000476837,417768.0,7739,WL,A,8.0
3,28.674999952316284,learn,31325.000047683716,Fri Mar 13 2026 10:30:27 GMT-0500 (Central Daylight Time),421117.89999985695,A,har,O,r,393,1,3349.899999856949,417768.0,7739,WL,A,8.0
3,29.22499990463257,learn,30775.00009536743,Fri Mar 13 2026 10:30:27 GMT-0500 (Central Daylight Time),421667.59999990463,A,harp,O,p,509,1,3899.5999999046326,417768.0,7739,WL,A,8.0
3,30.18999981880188,learn,29810.00018119812,Fri Mar 13 2026 10:30:27 GMT-0500 (Central Daylight Time),422632.7999999523,A,harpenter,O,enter,928,1,4864.799999952316,417768.0,7739,WL,A,8.0
3,31.62399983406067,learn,28376.00016593933,Fri Mar 13 2026 10:30:27 GMT-0500 (Central Daylight Time),424066.5,A,m,O,m,1422,1,1433.4000000953674,422633.09999990463,7739,WL,A,9.0
3,31.972999811172485,learn,28027.000188827515,Fri Mar 13 2026 10:30:27 GMT-0500 (Central Daylight Time),424416.2000000477,A,me,O,e,323,1,1783.1000001430511,422633.09999990463,7739,WL,A,9.0
3,32.222999811172485,learn,27777.000188827515,Fri Mar 13 2026 10:30:27 GMT-0500 (Central Daylight Time),424666.09999990463,A,mea,O,a,222,1,2033.0,422633.09999990463,7739,WL,A,9.0
3,32.60599994659424,learn,27394.00005340576,Fri Mar 13 2026 10:30:27 GMT-0500 (Central Daylight Time),425048.89999985695,A,mead,O,d,344,1,2415.7999999523163,422633.09999990463,7739,WL,A,9.0
3,32.9229998588562,learn,27077.0001411438,Fri Mar 13 2026 10:30:27 GMT-0500 (Central Daylight Time),425366.09999990463,A,meado,O,o,297,1,2733.0,422633.09999990463,7739,WL,A,9.0
3,33.25599980354309,learn,26744.00019645691,Fri Mar 13 2026 10:30:27 GMT-0500 (Central Daylight Time),425699.2999999523,A,meadow,O,w,306,1,3066.2000000476837,422633.09999990463,7739,WL,A,9.0
3,33.954999923706055,learn,26045.000076293945,Fri Mar 13 2026 10:30:27 GMT-0500 (Central Daylight Time),426398.09999990463,A,meadowenter,O,enter,667,1,3765.0,422633.09999990463,7739,WL,A,9.0
3,35.055999994277954,learn,24944.000005722046,Fri Mar 13 2026 10:30:27 GMT-0500 (Central Daylight Time),427498.89999985695,A,r,O,r,1080,1,1100.5,426398.39999985695,7739,WL,A,10.0
3,35.305999994277954,learn,24694.000005722046,Fri Mar 13 2026 10:30:27 GMT-0500 (Central Daylight Time),427748.59999990463,A,ra,O,a,218,1,1350.2000000476837,426398.39999985695,7739,WL,A,10.0
3,35.621999979019165,learn,24378.000020980835,Fri Mar 13 2026 10:30:27 GMT-0500 (Central Daylight Time),428065.2000000477,A,rat,O,t,279,1,1666.8000001907349,426398.39999985695,7739,WL,A,10.0
3,35.871999979019165,learn,24128.000020980835,Fri Mar 13 2026 10:30:27 GMT-0500 (Central Daylight Time),428314.5,A,ratt,O,t,221,1,1916.1000001430511,426398.39999985695,7739,WL,A,10.0
3,36.270999908447266,learn,23729.000091552734,Fri Mar 13 2026 10:30:27 GMT-0500 (Central Daylight Time),428714.0,A,rattl,O,l,384,1,2315.600000143051,426398.39999985695,7739,WL,A,10.0
3,36.63800001144409,learn,23361.99998855591,Fri Mar 13 2026 10:30:27 GMT-0500 (Central Daylight Time),429081.5,A,rattle,O,e,356,1,2683.100000143051,426398.39999985695,7739,WL,A,10.0
3,37.186999797821045,learn,22813.000202178955,Fri Mar 13 2026 10:30:27 GMT-0500 (Central Daylight Time),429630.39999985695,A,rattleenter,O,enter,513,1,3232.0,426398.39999985695,7739,WL,A,10.0
3,60.013999938964844,learn,-13.99993896484375,Fri Mar 13 2026 10:30:27 GMT-0500 (Central Daylight Time),452457.2000000477,A,None,O,None,22821,1,22826.5,429630.7000000477,7739,WL,A,11.0
4,0.8490002155303955,learn,59150.999784469604,Fri Mar 13 2026 10:30:27 GMT-0500 (Central Daylight Time),523432.7999999523,A,j,O,j,814,1,848.4000000953674,522584.39999985695,7739,WL,A,1.0
4,3.3500001430511475,learn,56649.99985694885,Fri Mar 13 2026 10:30:27 GMT-0500 (Central Daylight Time),525933.899999857,A,,O,backspace,2493,1,3349.5,522584.39999985695,7739,WL,A,1.0
4,5.898000001907349,learn,54101.99999809265,Fri Mar 13 2026 10:30:27 GMT-0500 (Central Daylight Time),528482.0,A,b,O,b,2520,1,5897.600000143051,522584.39999985695,7739,WL,A,1.0
4,6.581000089645386,learn,53418.999910354614,Fri Mar 13 2026 10:30:27 GMT-0500 (Central Daylight Time),529164.899999857,A,bo,O,o,654,1,6580.5,522584.39999985695,7739,WL,A,1.0
4,6.79800009727478,learn,53201.99990272522,Fri Mar 13 2026 10:30:27 GMT-0500 (Central Daylight Time),529381.0,A,boo,O,o,191,1,6796.600000143051,522584.39999985695,7739,WL,A,1.0
4,7.1650002002716064,learn,52834.99979972839,Fri Mar 13 2026 10:30:27 GMT-0500 (Central Daylight Time),529748.7000000477,A,book,O,k,343,1,7164.300000190735,522584.39999985695,7739,WL,A,1.0
4,8.331000089645386,learn,51668.999910354614,Fri Mar 13 2026 10:30:27 GMT-0500 (Central Daylight Time),530914.7000000477,A,bookf,O,f,1137,1,8330.300000190735,522584.39999985695,7739,WL,A,1.0
4,8.681000232696533,learn,51318.99976730347,Fri Mar 13 2026 10:30:27 GMT-0500 (Central Daylight Time),531264.5999999046,A,bookfl,O,l,323,1,8680.200000047684,522584.39999985695,7739,WL,A,1.0
4,9.014000177383423,learn,50985.99982261658,Fri Mar 13 2026 10:30:27 GMT-0500 (Central Daylight Time),531597.7000000477,A,bookflo,O,o,301,1,9013.300000190735,522584.39999985695,7739,WL,A,1.0
4,9.247000217437744,learn,50752.999782562256,Fri Mar 13 2026 10:30:27 GMT-0500 (Central Daylight Time),531830.7999999523,A,bookflow,O,w,211,1,9246.400000095367,522584.39999985695,7739,WL,A,1.0
4,9.797000169754028,learn,50202.99983024597,Fri Mar 13 2026 10:30:27 GMT-0500 (Central Daylight Time),532380.0,A,bookflowe,O,e,517,1,9795.600000143051,522584.39999985695,7739,WL,A,1.0
4,10.28000020980835,learn,49719.99979019165,Fri Mar 13 2026 10:30:27 GMT-0500 (Central Daylight Time),532864.0,A,bookflower,O,r,464,1,10279.600000143051,522584.39999985695,7739,WL,A,1.0
4,13.196000099182129,learn,46803.99990081787,Fri Mar 13 2026 10:30:27 GMT-0500 (Central Daylight Time),535779.2000000477,A,bookflowe,O,backspace,2884,1,13194.800000190735,522584.39999985695,7739,WL,A,1.0
4,13.529000043869019,learn,46470.99995613098,Fri Mar 13 2026 10:30:27 GMT-0500 (Central Daylight Time),536112.5,A,bookflow,O,backspace,318,1,13528.100000143051,522584.39999985695,7739,WL,A,1.0
4,13.84600019454956,learn,46153.99980545044,Fri Mar 13 2026 10:30:27 GMT-0500 (Central Daylight Time),536429.399999857,A,bookflo,O,backspace,293,1,13845.0,522584.39999985695,7739,WL,A,1.0
4,14.629000186920166,learn,45370.999813079834,Fri Mar 13 2026 10:30:27 GMT-0500 (Central Daylight Time),537212.5999999046,A,bookfl,O,backspace,757,1,14628.200000047684,522584.39999985695,7739,WL,A,1.0
4,15.03000020980835,learn,44969.99979019165,Fri Mar 13 2026 10:30:27 GMT-0500 (Central Daylight Time),537612.899999857,A,bookf,O,backspace,375,1,15028.5,522584.39999985695,7739,WL,A,1.0
4,15.495000123977661,learn,44504.99987602234,Fri Mar 13 2026 10:30:27 GMT-0500 (Central Daylight Time),538078.399999857,A,book,O,backspace,438,1,15494.0,522584.39999985695,7739,WL,A,1.0
4,16.59500002861023,learn,43404.99997138977,Fri Mar 13 2026 10:30:27 GMT-0500 (Central Daylight Time),539177.7999999523,A,bookenter,O,enter,1080,1,16593.400000095367,522584.39999985695,7739,WL,A,1.0
4,19.195000171661377,learn,40804.99982833862,Fri Mar 13 2026 10:30:27 GMT-0500 (Central Daylight Time),541777.7999999523,A,f,O,f,2582,1,2599.7000000476837,539178.0999999046,7739,WL,A,2.0
4,19.478000164031982,learn,40521.99983596802,Fri Mar 13 2026 10:30:27 GMT-0500 (Central Daylight Time),542061.399999857,A,fl,O,l,243,1,2883.2999999523163,539178.0999999046,7739,WL,A,2.0
4,19.761000156402588,learn,40238.99984359741,Fri Mar 13 2026 10:30:27 GMT-0500 (Central Daylight Time),542344.2000000477,A,flo,O,o,255,1,3166.100000143051,539178.0999999046,7739,WL,A,2.0
4,20.044000148773193,learn,39955.99985122681,Fri Mar 13 2026 10:30:27 GMT-0500 (Central Daylight Time),542627.5999999046,A,flow,O,w,254,1,3449.5,539178.0999999046,7739,WL,A,2.0
4,20.361000061035156,learn,39638.999938964844,Fri Mar 13 2026 10:30:27 GMT-0500 (Central Daylight Time),542944.0,A,flowe,O,e,290,1,3765.9000000953674,539178.0999999046,7739,WL,A,2.0
4,20.66000008583069,learn,39339.99991416931,Fri Mar 13 2026 10:30:27 GMT-0500 (Central Daylight Time),543243.399999857,A,flower,O,r,259,1,4065.2999999523163,539178.0999999046,7739,WL,A,2.0
4,21.80900001525879,learn,38190.99998474121,Fri Mar 13 2026 10:30:27 GMT-0500 (Central Daylight Time),544392.5999999046,A,flowerenter,O,enter,1132,1,5214.5,539178.0999999046,7739,WL,A,2.0
4,29.408000230789185,learn,30591.999769210815,Fri Mar 13 2026 10:30:27 GMT-0500 (Central Daylight Time),551991.2000000477,A,t,O,t,7582,1,7598.300000190735,544392.899999857,7739,WL,A,3.0
4,29.77400016784668,learn,30225.99983215332,Fri Mar 13 2026 10:30:27 GMT-0500 (Central Daylight Time),552356.7999999523,A,tr,O,r,331,1,7963.900000095367,544392.899999857,7739,WL,A,3.0
4,30.94100022315979,learn,29058.99977684021,Fri Mar 13 2026 10:30:27 GMT-0500 (Central Daylight Time),553524.0,A,tra,O,a,1143,1,9131.100000143051,544392.899999857,7739,WL,A,3.0
4,31.175000190734863,learn,28824.999809265137,Fri Mar 13 2026 10:30:27 GMT-0500 (Central Daylight Time),553757.7000000477,A,trai,O,i,209,1,9364.800000190735,544392.899999857,7739,WL,A,3.0
4,31.54100012779236,learn,28458.99987220764,Fri Mar 13 2026 10:30:27 GMT-0500 (Central Daylight Time),554123.7999999523,A,train,O,n,336,1,9730.900000095367,544392.899999857,7739,WL,A,3.0
4,32.50600004196167,learn,27493.99995803833,Fri Mar 13 2026 10:30:27 GMT-0500 (Central Daylight Time),555089.2000000477,A,trainenter,O,enter,929,1,10696.300000190735,544392.899999857,7739,WL,A,3.0
4,35.72200012207031,learn,24277.999877929688,Fri Mar 13 2026 10:30:27 GMT-0500 (Central Daylight Time),558304.7000000477,A,c,O,c,3196,1,3215.2000000476837,555089.5,7739,WL,A,4.0
4,36.039000034332275,learn,23960.999965667725,Fri Mar 13 2026 10:30:27 GMT-0500 (Central Daylight Time),558622.5,A,ch,O,h,298,1,3533.0,555089.5,7739,WL,A,4.0
4,36.48900008201599,learn,23510.99991798401,Fri Mar 13 2026 10:30:27 GMT-0500 (Central Daylight Time),559072.0,A,chi,O,i,424,1,3982.5,555089.5,7739,WL,A,4.0
4,37.004000186920166,learn,22995.999813079834,Fri Mar 13 2026 10:30:27 GMT-0500 (Central Daylight Time),559587.5999999046,A,chin,O,n,491,1,4498.099999904633,555089.5,7739,WL,A,4.0
4,39.03800010681152,learn,20961.999893188477,Fri Mar 13 2026 10:30:27 GMT-0500 (Central Daylight Time),561621.5999999046,A,chi,O,backspace,2024,1,6532.099999904633,555089.5,7739,WL,A,4.0
4,39.73700022697449,learn,20262.999773025513,Fri Mar 13 2026 10:30:27 GMT-0500 (Central Daylight Time),562320.5999999046,A,chim,O,m,664,1,7231.099999904633,555089.5,7739,WL,A,4.0
4,40.95400023460388,learn,19045.999765396118,Fri Mar 13 2026 10:30:27 GMT-0500 (Central Daylight Time),563537.5,A,chimn,O,n,1191,1,8448.0,555089.5,7739,WL,A,4.0
4,41.48700022697449,learn,18512.999773025513,Fri Mar 13 2026 10:30:27 GMT-0500 (Central Daylight Time),564070.5999999046,A,chimne,O,e,500,1,8981.099999904633,555089.5,7739,WL,A,4.0
4,41.78700017929077,learn,18212.99982070923,Fri Mar 13 2026 10:30:27 GMT-0500 (Central Daylight Time),564370.5,A,chimney,O,y,262,1,9281.0,555089.5,7739,WL,A,4.0
4,43.236000061035156,learn,16763.999938964844,Fri Mar 13 2026 10:30:27 GMT-0500 (Central Daylight Time),565819.0,A,chimneyenter,O,enter,1416,1,10729.5,555089.5,7739,WL,A,4.0
4,45.07000017166138,learn,14929.999828338623,Fri Mar 13 2026 10:30:27 GMT-0500 (Central Daylight Time),567652.7999999523,A,l,O,l,1811,1,1833.5,565819.2999999523,7739,WL,A,5.0
4,45.38600015640259,learn,14613.999843597412,Fri Mar 13 2026 10:30:27 GMT-0500 (Central Daylight Time),567969.399999857,A,lo,O,o,281,1,2150.0999999046326,565819.2999999523,7739,WL,A,5.0
4,45.819000005722046,learn,14180.999994277954,Fri Mar 13 2026 10:30:27 GMT-0500 (Central Daylight Time),568402.2999999523,A,log,O,g,395,1,2583.0,565819.2999999523,7739,WL,A,5.0
4,47.086000204086304,learn,12913.999795913696,Fri Mar 13 2026 10:30:27 GMT-0500 (Central Daylight Time),569668.899999857,A,logk,O,k,1227,1,3849.5999999046326,565819.2999999523,7739,WL,A,5.0
4,47.45100021362305,learn,12548.999786376953,Fri Mar 13 2026 10:30:27 GMT-0500 (Central Daylight Time),570034.399999857,A,logke,O,e,338,1,4215.099999904633,565819.2999999523,7739,WL,A,5.0
4,48.11900019645691,learn,11880.99980354309,Fri Mar 13 2026 10:30:27 GMT-0500 (Central Daylight Time),570701.7000000477,A,logkey,O,y,661,1,4882.400000095367,565819.2999999523,7739,WL,A,5.0
4,52.41700005531311,learn,7582.99994468689,Fri Mar 13 2026 10:30:27 GMT-0500 (Central Daylight Time),575000.2000000477,A,logke,O,backspace,4271,1,9180.900000095367,565819.2999999523,7739,WL,A,5.0
4,52.717000007629395,learn,7282.9999923706055,Fri Mar 13 2026 10:30:27 GMT-0500 (Central Daylight Time),575300.0999999046,A,logk,O,backspace,269,1,9480.799999952316,565819.2999999523,7739,WL,A,5.0
4,53.14900016784668,learn,6850.99983215332,Fri Mar 13 2026 10:30:27 GMT-0500 (Central Daylight Time),575732.2000000477,A,log,O,backspace,408,1,9912.900000095367,565819.2999999523,7739,WL,A,5.0
4,54.33200001716614,learn,5667.999982833862,Fri Mar 13 2026 10:30:27 GMT-0500 (Central Daylight Time),576915.2999999523,A,logenter,O,enter,1169,1,11096.0,565819.2999999523,7739,WL,A,5.0
4,55.132000207901,learn,4867.999792098999,Fri Mar 13 2026 10:30:27 GMT-0500 (Central Daylight Time),577715.2999999523,A,k,O,k,786,1,799.7999999523163,576915.5,7739,WL,A,6.0
4,55.54800009727478,learn,4451.99990272522,Fri Mar 13 2026 10:30:27 GMT-0500 (Central Daylight Time),578131.5,A,ke,O,e,399,1,1216.0,576915.5,7739,WL,A,6.0
4,56.06500005722046,learn,3934.999942779541,Fri Mar 13 2026 10:30:27 GMT-0500 (Central Daylight Time),578648.0,A,key,O,y,505,1,1732.5,576915.5,7739,WL,A,6.0
4,57.0310001373291,learn,2968.9998626708984,Fri Mar 13 2026 10:30:27 GMT-0500 (Central Daylight Time),579614.5,A,keyenter,O,enter,957,1,2699.0,576915.5,7739,WL,A,6.0
4,60.01400017738342,learn,-14.000177383422852,Fri Mar 13 2026 10:30:27 GMT-0500 (Central Daylight Time),582597.5999999046,A,None,O,None,2977,1,2982.7999999523163,579614.7999999523,7739,WL,A,7.0
5,3.9659998416900635,learn,60000.0,Fri Mar 13 2026 10:30:27 GMT-0500 (Central Daylight Time),660023.0,A,b,O,b,3938,1,3965.7999999523163,656057.2000000477,7739,WL,A,1.0
5,4.415999889373779,learn,60000.0,Fri Mar 13 2026 10:30:27 GMT-0500 (Central Daylight Time),660472.399999857,A,bo,O,o,414,1,4415.199999809265,656057.2000000477,7739,WL,A,1.0
5,4.698999881744385,learn,60000.0,Fri Mar 13 2026 10:30:27 GMT-0500 (Central Daylight Time),660755.5999999046,A,boo,O,o,245,1,4698.399999856949,656057.2000000477,7739,WL,A,1.0
5,5.031999826431274,learn,60000.0,Fri Mar 13 2026 10:30:27 GMT-0500 (Central Daylight Time),661088.7000000477,A,book,O,k,298,1,5031.5,656057.2000000477,7739,WL,A,1.0
5,5.96399998664856,learn,60000.0,Fri Mar 13 2026 10:30:27 GMT-0500 (Central Daylight Time),662020.7000000477,A,bookenter,O,enter,904,1,5963.5,656057.2000000477,7739,WL,A,1.0
5,8.04699993133545,learn,60000.0,Fri Mar 13 2026 10:30:27 GMT-0500 (Central Daylight Time),664103.5999999046,A,f,O,f,2065,1,2082.5999999046326,662021.0,7739,WL,A,2.0
5,8.414999961853027,learn,60000.0,Fri Mar 13 2026 10:30:27 GMT-0500 (Central Daylight Time),664470.899999857,A,fl,O,l,349,1,2449.899999856949,662021.0,7739,WL,A,2.0
5,8.730999946594238,learn,60000.0,Fri Mar 13 2026 10:30:27 GMT-0500 (Central Daylight Time),664787.2000000477,A,flo,O,o,286,1,2766.2000000476837,662021.0,7739,WL,A,2.0
5,9.062999963760376,learn,60000.0,Fri Mar 13 2026 10:30:27 GMT-0500 (Central Daylight Time),665119.7999999523,A,flow,O,w,296,1,3098.7999999523163,662021.0,7739,WL,A,2.0
5,9.430999994277954,learn,60000.0,Fri Mar 13 2026 10:30:27 GMT-0500 (Central Daylight Time),665487.5,A,flowe,O,e,348,1,3466.5,662021.0,7739,WL,A,2.0
5,9.696999788284302,learn,60000.0,Fri Mar 13 2026 10:30:27 GMT-0500 (Central Daylight Time),665753.7999999523,A,flower,O,r,240,1,3732.7999999523163,662021.0,7739,WL,A,2.0
5,10.129999876022339,learn,60000.0,Fri Mar 13 2026 10:30:27 GMT-0500 (Central Daylight Time),666185.899999857,A,flowerenter,O,enter,402,1,4164.899999856949,662021.0,7739,WL,A,2.0
5,11.179999828338623,learn,60000.0,Fri Mar 13 2026 10:30:27 GMT-0500 (Central Daylight Time),667236.7999999523,A,t,O,t,1028,1,1050.7000000476837,666186.0999999046,7739,WL,A,3.0
5,11.513999938964844,learn,60000.0,Fri Mar 13 2026 10:30:27 GMT-0500 (Central Daylight Time),667570.0,A,tr,O,r,314,1,1383.9000000953674,666186.0999999046,7739,WL,A,3.0
5,11.662999868392944,learn,60000.0,Fri Mar 13 2026 10:30:27 GMT-0500 (Central Daylight Time),667719.7999999523,A,tra,O,a,125,1,1533.7000000476837,666186.0999999046,7739,WL,A,3.0
5,12.21399998664856,learn,60000.0,Fri Mar 13 2026 10:30:27 GMT-0500 (Central Daylight Time),668270.2999999523,A,trai,O,i,533,1,2084.2000000476837,666186.0999999046,7739,WL,A,3.0
5,12.712999820709229,learn,60000.0,Fri Mar 13 2026 10:30:27 GMT-0500 (Central Daylight Time),668769.5,A,train,O,n,461,1,2583.4000000953674,666186.0999999046,7739,WL,A,3.0
5,13.494999885559082,learn,60000.0,Fri Mar 13 2026 10:30:27 GMT-0500 (Central Daylight Time),669551.7000000477,A,trainenter,O,enter,744,1,3365.600000143051,666186.0999999046,7739,WL,A,3.0
5,16.460999965667725,learn,60000.0,Fri Mar 13 2026 10:30:27 GMT-0500 (Central Daylight Time),672517.2999999523,A,enter,O,enter,2949,1,2965.4000000953674,669551.899999857,7739,WL,A,4.0
5,17.676999807357788,learn,60000.0,Fri Mar 13 2026 10:30:27 GMT-0500 (Central Daylight Time),673733.7999999523,A,m,O,m,1200,1,1216.2000000476837,672517.5999999046,7739,WL,A,5.0
5,18.07799983024597,learn,60000.0,Fri Mar 13 2026 10:30:27 GMT-0500 (Central Daylight Time),674134.0,A,me,O,e,390,1,1616.4000000953674,672517.5999999046,7739,WL,A,5.0
5,18.34499979019165,learn,60000.0,Fri Mar 13 2026 10:30:27 GMT-0500 (Central Daylight Time),674400.899999857,A,mea,O,a,232,1,1883.2999999523163,672517.5999999046,7739,WL,A,5.0
5,18.793999910354614,learn,60000.0,Fri Mar 13 2026 10:30:27 GMT-0500 (Central Daylight Time),674850.7000000477,A,mead,O,d,421,1,2333.100000143051,672517.5999999046,7739,WL,A,5.0
5,19.07799983024597,learn,60000.0,Fri Mar 13 2026 10:30:27 GMT-0500 (Central Daylight Time),675133.899999857,A,meado,O,o,259,1,2616.2999999523163,672517.5999999046,7739,WL,A,5.0
5,19.444999933242798,learn,60000.0,Fri Mar 13 2026 10:30:27 GMT-0500 (Central Daylight Time),675501.2000000477,A,meadow,O,w,342,1,2983.600000143051,672517.5999999046,7739,WL,A,5.0
5,21.092999935150146,learn,60000.0,Fri Mar 13 2026 10:30:27 GMT-0500 (Central Daylight Time),677149.0999999046,A,meadowenter,O,enter,1615,1,4631.5,672517.5999999046,7739,WL,A,5.0
5,21.792999982833862,learn,60000.0,Fri Mar 13 2026 10:30:27 GMT-0500 (Central Daylight Time),677849.7999999523,A,h,O,h,690,1,700.5,677149.2999999523,7739,WL,A,6.0
5,22.209999799728394,learn,60000.0,Fri Mar 13 2026 10:30:27 GMT-0500 (Central Daylight Time),678266.2999999523,A,ha,O,a,391,1,1117.0,677149.2999999523,7739,WL,A,6.0
5,22.675999879837036,learn,60000.0,Fri Mar 13 2026 10:30:27 GMT-0500 (Central Daylight Time),678732.899999857,A,har,O,r,427,1,1583.5999999046326,677149.2999999523,7739,WL,A,6.0
5,23.45899987220764,learn,60000.0,Fri Mar 13 2026 10:30:27 GMT-0500 (Central Daylight Time),679515.899999857,A,harp,O,p,752,1,2366.5999999046326,677149.2999999523,7739,WL,A,6.0
5,24.441999912261963,learn,60000.0,Fri Mar 13 2026 10:30:27 GMT-0500 (Central Daylight Time),680498.0999999046,A,harpenter,O,enter,942,1,3348.7999999523163,677149.2999999523,7739,WL,A,6.0
5,27.524999856948853,learn,60000.0,Fri Mar 13 2026 10:30:27 GMT-0500 (Central Daylight Time),683581.399999857,A,s,O,s,3069,1,3083.0,680498.399999857,7739,WL,A,7.0
5,27.95799994468689,learn,60000.0,Fri Mar 13 2026 10:30:27 GMT-0500 (Central Daylight Time),684014.5,A,sa,O,a,400,1,3516.100000143051,680498.399999857,7739,WL,A,7.0
5,28.390999794006348,learn,60000.0,Fri Mar 13 2026 10:30:27 GMT-0500 (Central Daylight Time),684446.899999857,A,sal,O,l,398,1,3948.5,680498.399999857,7739,WL,A,7.0
5,28.890999794006348,learn,60000.0,Fri Mar 13 2026 10:30:27 GMT-0500 (Central Daylight Time),684947.2000000477,A,salt,O,t,485,1,4448.800000190735,680498.399999857,7739,WL,A,7.0
5,29.972999811172485,learn,60000.0,Fri Mar 13 2026 10:30:27 GMT-0500 (Central Daylight Time),686029.399999857,A,saltenter,O,enter,1054,1,5531.0,680498.399999857,7739,WL,A,7.0
5,30.923999786376953,learn,60000.0,Fri Mar 13 2026 10:30:27 GMT-0500 (Central Daylight Time),686980.0,A,a,O,a,937,1,950.2999999523163,686029.7000000477,7739,WL,A,8.0
5,31.54099988937378,learn,60000.0,Fri Mar 13 2026 10:30:27 GMT-0500 (Central Daylight Time),687597.0,A,ap,O,p,577,1,1567.2999999523163,686029.7000000477,7739,WL,A,8.0
5,31.806999921798706,learn,60000.0,Fri Mar 13 2026 10:30:27 GMT-0500 (Central Daylight Time),687863.2000000477,A,app,O,p,236,1,1833.5,686029.7000000477,7739,WL,A,8.0
5,32.10599994659424,learn,60000.0,Fri Mar 13 2026 10:30:27 GMT-0500 (Central Daylight Time),688162.7000000477,A,appl,O,l,270,1,2133.0,686029.7000000477,7739,WL,A,8.0
5,32.472999811172485,learn,60000.0,Fri Mar 13 2026 10:30:27 GMT-0500 (Central Daylight Time),688529.5999999046,A,apple,O,e,331,1,2499.899999856949,686029.7000000477,7739,WL,A,8.0
5,33.788999795913696,learn,60000.0,Fri Mar 13 2026 10:30:27 GMT-0500 (Central Daylight Time),689844.899999857,A,applef,O,f,1282,1,3815.199999809265,686029.7000000477,7739,WL,A,8.0
5,34.12299990653992,learn,60000.0,Fri Mar 13 2026 10:30:27 GMT-0500 (Central Daylight Time),690179.399999857,A,applefi,O,i,310,1,4149.699999809265,686029.7000000477,7739,WL,A,8.0
5,34.48899984359741,learn,60000.0,Fri Mar 13 2026 10:30:27 GMT-0500 (Central Daylight Time),690545.0,A,applefin,O,n,327,1,4515.299999952316,686029.7000000477,7739,WL,A,8.0
5,34.9229998588562,learn,60000.0,Fri Mar 13 2026 10:30:27 GMT-0500 (Central Daylight Time),690978.899999857,A,applefing,O,g,408,1,4949.199999809265,686029.7000000477,7739,WL,A,8.0
5,35.3219997882843,learn,60000.0,Fri Mar 13 2026 10:30:27 GMT-0500 (Central Daylight Time),691378.7999999523,A,applefinge,O,e,362,1,5349.099999904633,686029.7000000477,7739,WL,A,8.0
5,35.58899998664856,learn,60000.0,Fri Mar 13 2026 10:30:27 GMT-0500 (Central Daylight Time),691645.0,A,applefinger,O,r,227,1,5615.299999952316,686029.7000000477,7739,WL,A,8.0
5,36.103999853134155,learn,60000.0,Fri Mar 13 2026 10:30:27 GMT-0500 (Central Daylight Time),692160.899999857,A,applefingerenter,O,enter,488,1,6131.199999809265,686029.7000000477,7739,WL,A,8.0
5,37.58799982070923,learn,60000.0,Fri Mar 13 2026 10:30:27 GMT-0500 (Central Daylight Time),693644.399999857,A,c,O,c,1471,1,1483.2999999523163,692161.0999999046,7739,WL,A,9.0
5,38.037999868392944,learn,60000.0,Fri Mar 13 2026 10:30:27 GMT-0500 (Central Daylight Time),694094.0,A,ch,O,h,424,1,1932.9000000953674,692161.0999999046,7739,WL,A,9.0
5,38.47099995613098,learn,60000.0,Fri Mar 13 2026 10:30:27 GMT-0500 (Central Daylight Time),694527.5,A,chi,O,i,414,1,2366.4000000953674,692161.0999999046,7739,WL,A,9.0
5,38.9539999961853,learn,60000.0,Fri Mar 13 2026 10:30:27 GMT-0500 (Central Daylight Time),695010.7999999523,A,chim,O,m,456,1,2849.7000000476837,692161.0999999046,7739,WL,A,9.0
5,39.6029999256134,learn,60000.0,Fri Mar 13 2026 10:30:27 GMT-0500 (Central Daylight Time),695659.7000000477,A,chimn,O,n,621,1,3498.600000143051,692161.0999999046,7739,WL,A,9.0
5,39.9539999961853,learn,60000.0,Fri Mar 13 2026 10:30:27 GMT-0500 (Central Daylight Time),696010.5,A,chimne,O,e,339,1,3849.4000000953674,692161.0999999046,7739,WL,A,9.0
5,40.269999980926514,learn,60000.0,Fri Mar 13 2026 10:30:27 GMT-0500 (Central Daylight Time),696326.2999999523,A,chimney,O,y,290,1,4165.200000047684,692161.0999999046,7739,WL,A,9.0
5,41.169999837875366,learn,60000.0,Fri Mar 13 2026 10:30:27 GMT-0500 (Central Daylight Time),697225.7999999523,A,chimneyenter,O,enter,884,1,5064.700000047684,692161.0999999046,7739,WL,A,9.0
5,42.48599982261658,learn,60000.0,Fri Mar 13 2026 10:30:27 GMT-0500 (Central Daylight Time),698542.0,A,l,O,l,1307,1,1315.9000000953674,697226.0999999046,7739,WL,A,10.0
5,42.85199999809265,learn,60000.0,Fri Mar 13 2026 10:30:27 GMT-0500 (Central Daylight Time),698908.5999999046,A,lo,O,o,350,1,1682.5,697226.0999999046,7739,WL,A,10.0
5,43.234999895095825,learn,60000.0,Fri Mar 13 2026 10:30:27 GMT-0500 (Central Daylight Time),699291.5999999046,A,log,O,g,376,1,2065.5,697226.0999999046,7739,WL,A,10.0
5,43.751999855041504,learn,60000.0,Fri Mar 13 2026 10:30:27 GMT-0500 (Central Daylight Time),699808.2000000477,A,logenter,O,enter,497,1,2582.100000143051,697226.0999999046,7739,WL,A,10.0
5,46.41799998283386,learn,60000.0,Fri Mar 13 2026 10:30:27 GMT-0500 (Central Daylight Time),702474.7999999523,A,r,O,r,2654,1,2666.2000000476837,699808.5999999046,7739,WL,A,11.0
5,46.78499984741211,learn,60000.0,Fri Mar 13 2026 10:30:27 GMT-0500 (Central Daylight Time),702841.5999999046,A,ra,O,a,332,1,3033.0,699808.5999999046,7739,WL,A,11.0
5,47.117999792099,learn,60000.0,Fri Mar 13 2026 10:30:27 GMT-0500 (Central Daylight Time),703174.5999999046,A,rat,O,t,300,1,3366.0,699808.5999999046,7739,WL,A,11.0
5,47.46799993515015,learn,60000.0,Fri Mar 13 2026 10:30:27 GMT-0500 (Central Daylight Time),703524.5,A,ratt,O,t,327,1,3715.9000000953674,699808.5999999046,7739,WL,A,11.0
5,47.800999879837036,learn,60000.0,Fri Mar 13 2026 10:30:27 GMT-0500 (Central Daylight Time),703857.899999857,A,rattl,O,l,307,1,4049.2999999523163,699808.5999999046,7739,WL,A,11.0
5,48.16799998283386,learn,60000.0,Fri Mar 13 2026 10:30:27 GMT-0500 (Central Daylight Time),704224.5999999046,A,rattle,O,e,335,1,4416.0,699808.5999999046,7739,WL,A,11.0
5,50.06699991226196,learn,60000.0,Fri Mar 13 2026 10:30:27 GMT-0500 (Central Daylight Time),706123.0,A,rattleenter,O,enter,1864,1,6314.400000095367,699808.5999999046,7739,WL,A,11.0
5,51.61699986457825,learn,60000.0,Fri Mar 13 2026 10:30:27 GMT-0500 (Central Daylight Time),707673.0,A,k,O,k,1540,1,1549.7999999523163,706123.2000000477,7739,WL,A,12.0
5,52.06699991226196,learn,60000.0,Fri Mar 13 2026 10:30:27 GMT-0500 (Central Daylight Time),708123.399999857,A,ke,O,e,412,1,2000.1999998092651,706123.2000000477,7739,WL,A,12.0
5,52.50099992752075,learn,60000.0,Fri Mar 13 2026 10:30:27 GMT-0500 (Central Daylight Time),708557.5,A,key,O,y,402,1,2434.2999999523163,706123.2000000477,7739,WL,A,12.0
5,53.348999977111816,learn,60000.0,Fri Mar 13 2026 10:30:27 GMT-0500 (Central Daylight Time),709405.2000000477,A,keyenter,O,enter,813,1,3282.0,706123.2000000477,7739,WL,A,12.0
5,54.01599979400635,learn,60000.0,Fri Mar 13 2026 10:30:27 GMT-0500 (Central Daylight Time),710072.399999857,A,g,O,g,658,1,666.8999998569489,709405.5,7739,WL,A,13.0
5,54.33299994468689,learn,60000.0,Fri Mar 13 2026 10:30:27 GMT-0500 (Central Daylight Time),710389.2000000477,A,go,O,o,284,1,983.7000000476837,709405.5,7739,WL,A,13.0
5,54.68299984931946,learn,60000.0,Fri Mar 13 2026 10:30:27 GMT-0500 (Central Daylight Time),710739.0,A,gol,O,l,320,1,1333.5,709405.5,7739,WL,A,13.0
5,55.198999881744385,learn,60000.0,Fri Mar 13 2026 10:30:27 GMT-0500 (Central Daylight Time),711255.5999999046,A,gold,O,d,490,1,1850.0999999046326,709405.5,7739,WL,A,13.0
5,55.89800000190735,learn,60000.0,Fri Mar 13 2026 10:30:27 GMT-0500 (Central Daylight Time),711954.399999857,A,goldenter,O,enter,669,1,2548.899999856949,709405.5,7739,WL,A,13.0
5,72.26099991798401,learn,60000.0,Fri Mar 13 2026 10:30:27 GMT-0500 (Central Daylight Time),728316.7000000477,A,h,O,h,16341,1,16362.100000143051,711954.5999999046,7739,WL,A,14.0
6,2.131999969482422,distr,57868.00003051758,Fri Mar 13 2026 10:30:27 GMT-0500 (Central Daylight Time),808206.7999999523,B,j,O,j,2109,1,2131.9000000953674,806074.899999857,7739,WL,A,1.0
6,2.631999969482422,distr,57368.00003051758,Fri Mar 13 2026 10:30:27 GMT-0500 (Central Daylight Time),808706.5999999046,B,jk,O,k,461,1,2631.7000000476837,806074.899999857,7739,WL,A,1.0
6,2.7820000648498535,distr,57217.99993515015,Fri Mar 13 2026 10:30:27 GMT-0500 (Central Daylight Time),808856.2999999523,B,jku,O,u,125,1,2781.4000000953674,806074.899999857,7739,WL,A,1.0
6,3.182000160217285,distr,56817.999839782715,Fri Mar 13 2026 10:30:27 GMT-0500 (Central Daylight Time),809256.5,B,jkud,O,d,380,1,3181.600000143051,806074.899999857,7739,WL,A,1.0
6,4.482000112533569,distr,55517.99988746643,Fri Mar 13 2026 10:30:27 GMT-0500 (Central Daylight Time),810556.399999857,B,jku,O,backspace,1269,1,4481.5,806074.899999857,7739,WL,A,1.0
6,4.932000160217285,distr,55067.999839782715,Fri Mar 13 2026 10:30:27 GMT-0500 (Central Daylight Time),811006.2999999523,B,jk,O,backspace,406,1,4931.400000095367,806074.899999857,7739,WL,A,1.0
6,5.465000152587891,distr,54534.99984741211,Fri Mar 13 2026 10:30:27 GMT-0500 (Central Daylight Time),811539.0999999046,B,j,O,backspace,493,1,5464.200000047684,806074.899999857,7739,WL,A,1.0
6,6.8470001220703125,distr,53152.99987792969,Fri Mar 13 2026 10:30:27 GMT-0500 (Central Daylight Time),812922.0,B,ju,O,u,1355,1,6847.100000143051,806074.899999857,7739,WL,A,1.0
6,8.34600019454956,distr,51653.99980545044,Fri Mar 13 2026 10:30:27 GMT-0500 (Central Daylight Time),814420.7999999523,B,jud,O,d,1475,1,8345.900000095367,806074.899999857,7739,WL,A,1.0
6,8.94700002670288,distr,51052.99997329712,Fri Mar 13 2026 10:30:27 GMT-0500 (Central Daylight Time),815021.5,B,judg,O,g,583,1,8946.600000143051,806074.899999857,7739,WL,A,1.0
6,9.27999997138977,distr,50720.00002861023,Fri Mar 13 2026 10:30:27 GMT-0500 (Central Daylight Time),815354.7000000477,B,judge,O,e,296,1,9279.800000190735,806074.899999857,7739,WL,A,1.0
6,11.062000036239624,distr,48937.999963760376,Fri Mar 13 2026 10:30:27 GMT-0500 (Central Daylight Time),817136.5,B,judgeenter,O,enter,1754,1,11061.600000143051,806074.899999857,7739,WL,A,1.0
6,14.894999980926514,distr,45105.000019073486,Fri Mar 13 2026 10:30:27 GMT-0500 (Central Daylight Time),820969.399999857,B,c,O,c,3823,1,3832.699999809265,817136.7000000477,7739,WL,A,2.0
6,15.294000148773193,distr,44705.99985122681,Fri Mar 13 2026 10:30:27 GMT-0500 (Central Daylight Time),821368.5999999046,B,ch,O,h,370,1,4231.899999856949,817136.7000000477,7739,WL,A,2.0
6,15.644000053405762,distr,44355.99994659424,Fri Mar 13 2026 10:30:27 GMT-0500 (Central Daylight Time),821719.0,B,cha,O,a,339,1,4582.299999952316,817136.7000000477,7739,WL,A,2.0
6,15.995000123977661,distr,44004.99987602234,Fri Mar 13 2026 10:30:27 GMT-0500 (Central Daylight Time),822069.5999999046,B,chai,O,i,326,1,4932.899999856949,817136.7000000477,7739,WL,A,2.0
6,16.311000108718872,distr,43688.99989128113,Fri Mar 13 2026 10:30:27 GMT-0500 (Central Daylight Time),822385.5,B,chair,O,r,279,1,5248.799999952316,817136.7000000477,7739,WL,A,2.0
6,17.710000038146973,distr,42289.99996185303,Fri Mar 13 2026 10:30:27 GMT-0500 (Central Daylight Time),823784.399999857,B,chairenter,O,enter,1364,1,6647.699999809265,817136.7000000477,7739,WL,A,2.0
6,18.427000045776367,distr,41572.99995422363,Fri Mar 13 2026 10:30:27 GMT-0500 (Central Daylight Time),824501.5999999046,B,i,O,i,695,1,717.0,823784.5999999046,7739,WL,A,3.0
6,18.8270001411438,distr,41172.9998588562,Fri Mar 13 2026 10:30:27 GMT-0500 (Central Daylight Time),824901.5999999046,B,in,O,n,375,1,1117.0,823784.5999999046,7739,WL,A,3.0
6,19.127000093460083,distr,40872.99990653992,Fri Mar 13 2026 10:30:27 GMT-0500 (Central Daylight Time),825201.2000000477,B,ins,O,s,264,1,1416.6000001430511,823784.5999999046,7739,WL,A,3.0
6,19.41000008583069,distr,40589.99991416931,Fri Mar 13 2026 10:30:27 GMT-0500 (Central Daylight Time),825484.5999999046,B,inse,O,e,253,1,1700.0,823784.5999999046,7739,WL,A,3.0
6,19.8270001411438,distr,40172.9998588562,Fri Mar 13 2026 10:30:27 GMT-0500 (Central Daylight Time),825901.0999999046,B,insec,O,c,385,1,2116.5,823784.5999999046,7739,WL,A,3.0
6,20.427000045776367,distr,39572.99995422363,Fri Mar 13 2026 10:30:27 GMT-0500 (Central Daylight Time),826501.5,B,insect,O,t,577,1,2716.9000000953674,823784.5999999046,7739,WL,A,3.0
6,21.093000173568726,distr,38906.999826431274,Fri Mar 13 2026 10:30:27 GMT-0500 (Central Daylight Time),827167.7000000477,B,insectenter,O,enter,645,1,3383.100000143051,823784.5999999046,7739,WL,A,3.0
6,22.04200005531311,distr,37957.99994468689,Fri Mar 13 2026 10:30:27 GMT-0500 (Central Daylight Time),828117.0,B,c,O,c,928,1,949.1000001430511,827167.899999857,7739,WL,A,4.0
6,22.70800018310547,distr,37291.99981689453,Fri Mar 13 2026 10:30:27 GMT-0500 (Central Daylight Time),828782.5999999046,B,co,O,o,642,1,1614.7000000476837,827167.899999857,7739,WL,A,4.0
6,23.02500009536743,distr,36974.99990463257,Fri Mar 13 2026 10:30:27 GMT-0500 (Central Daylight Time),829099.0999999046,B,cou,O,u,295,1,1931.2000000476837,827167.899999857,7739,WL,A,4.0
6,23.391000032424927,distr,36608.99996757507,Fri Mar 13 2026 10:30:27 GMT-0500 (Central Daylight Time),829465.5999999046,B,coun,O,n,353,1,2297.7000000476837,827167.899999857,7739,WL,A,4.0
6,23.79200005531311,distr,36207.99994468689,Fri Mar 13 2026 10:30:27 GMT-0500 (Central Daylight Time),829866.5,B,count,O,t,389,1,2698.600000143051,827167.899999857,7739,WL,A,4.0
6,24.125,distr,35875.0,Fri Mar 13 2026 10:30:27 GMT-0500 (Central Daylight Time),830199.2000000477,B,county,O,y,310,1,3031.300000190735,827167.899999857,7739,WL,A,4.0
6,25.256999969482422,distr,34743.00003051758,Fri Mar 13 2026 10:30:27 GMT-0500 (Central Daylight Time),831331.7000000477,B,countyenter,O,enter,1118,1,4163.800000190735,827167.899999857,7739,WL,A,4.0
6,26.125,distr,33875.0,Fri Mar 13 2026 10:30:27 GMT-0500 (Central Daylight Time),832199.0999999046,B,s,O,s,851,1,867.0,831332.0999999046,7739,WL,A,5.0
6,26.558000087738037,distr,33441.99991226196,Fri Mar 13 2026 10:30:27 GMT-0500 (Central Daylight Time),832632.0999999046,B,se,O,e,410,1,1300.0,831332.0999999046,7739,WL,A,5.0
6,26.874000072479248,distr,33125.99992752075,Fri Mar 13 2026 10:30:27 GMT-0500 (Central Daylight Time),832948.899999857,B,see,O,e,285,1,1616.7999999523163,831332.0999999046,7739,WL,A,5.0
6,27.29100012779236,distr,32708.99987220764,Fri Mar 13 2026 10:30:27 GMT-0500 (Central Daylight Time),833365.899999857,B,seed,O,d,392,1,2033.7999999523163,831332.0999999046,7739,WL,A,5.0
6,27.890000104904175,distr,32109.999895095825,Fri Mar 13 2026 10:30:27 GMT-0500 (Central Daylight Time),833964.2000000477,B,seedenter,O,enter,568,1,2632.100000143051,831332.0999999046,7739,WL,A,5.0
6,29.823000192642212,distr,30176.999807357788,Fri Mar 13 2026 10:30:27 GMT-0500 (Central Daylight Time),835897.899999857,B,s,O,s,1915,1,1933.3999998569489,833964.5,7739,WL,A,6.0
6,30.67300009727478,distr,29326.99990272522,Fri Mar 13 2026 10:30:27 GMT-0500 (Central Daylight Time),836747.7000000477,B,se,O,e,820,1,2783.2000000476837,833964.5,7739,WL,A,6.0
6,30.94000005722046,distr,29059.99994277954,Fri Mar 13 2026 10:30:27 GMT-0500 (Central Daylight Time),837014.0999999046,B,see,O,e,226,1,3049.5999999046326,833964.5,7739,WL,A,6.0
6,31.706000089645386,distr,28293.999910354614,Fri Mar 13 2026 10:30:27 GMT-0500 (Central Daylight Time),837779.7000000477,B,seeenter,O,enter,725,1,3815.2000000476837,833964.5,7739,WL,A,6.0
6,37.7039999961853,distr,22296.000003814697,Fri Mar 13 2026 10:30:27 GMT-0500 (Central Daylight Time),843778.7000000477,B,b,O,b,5979,1,5998.700000047684,837780.0,7739,WL,A,7.0
6,38.28800010681152,distr,21711.999893188477,Fri Mar 13 2026 10:30:27 GMT-0500 (Central Daylight Time),844361.7999999523,B,bo,O,o,547,1,6581.799999952316,837780.0,7739,WL,A,7.0
6,38.57100009918213,distr,21428.99990081787,Fri Mar 13 2026 10:30:27 GMT-0500 (Central Daylight Time),844645.0,B,bow,O,w,252,1,6865.0,837780.0,7739,WL,A,7.0
6,39.253000020980835,distr,20746.999979019165,Fri Mar 13 2026 10:30:27 GMT-0500 (Central Daylight Time),845327.0999999046,B,bowl,O,l,647,1,7547.099999904633,837780.0,7739,WL,A,7.0
6,39.90300011634827,distr,20096.999883651733,Fri Mar 13 2026 10:30:27 GMT-0500 (Central Daylight Time),845977.0,B,bowlenter,O,enter,636,1,8197.0,837780.0,7739,WL,A,7.0
6,43.00200009346008,distr,16997.999906539917,Fri Mar 13 2026 10:30:27 GMT-0500 (Central Daylight Time),849075.899999857,B,d,O,d,3085,1,3098.5999999046326,845977.2999999523,7739,WL,A,8.0
6,43.486000061035156,distr,16513.999938964844,Fri Mar 13 2026 10:30:27 GMT-0500 (Central Daylight Time),849560.0999999046,B,da,O,a,464,1,3582.7999999523163,845977.2999999523,7739,WL,A,8.0
6,43.819000005722046,distr,16180.999994277954,Fri Mar 13 2026 10:30:27 GMT-0500 (Central Daylight Time),849893.0999999046,B,daw,O,w,300,1,3915.7999999523163,845977.2999999523,7739,WL,A,8.0
6,44.38600015640259,distr,15613.999843597412,Fri Mar 13 2026 10:30:27 GMT-0500 (Central Daylight Time),850459.7999999523,B,dawn,O,n,538,1,4482.5,845977.2999999523,7739,WL,A,8.0
6,45.43400001525879,distr,14565.999984741211,Fri Mar 13 2026 10:30:27 GMT-0500 (Central Daylight Time),851508.399999857,B,dawnenter,O,enter,1023,1,5531.099999904633,845977.2999999523,7739,WL,A,8.0
6,49.867000102996826,distr,10132.999897003174,Fri Mar 13 2026 10:30:27 GMT-0500 (Central Daylight Time),855941.0999999046,B,f,O,f,4411,1,4432.299999952316,851508.7999999523,7739,WL,A,9.0
6,50.31700015068054,distr,9682.999849319458,Fri Mar 13 2026 10:30:27 GMT-0500 (Central Daylight Time),856391.399999857,B,fr,O,r,414,1,4882.599999904633,851508.7999999523,7739,WL,A,9.0
6,50.75,distr,9250.0,Fri Mar 13 2026 10:30:27 GMT-0500 (Central Daylight Time),856824.5,B,fru,O,u,398,1,5315.700000047684,851508.7999999523,7739,WL,A,9.0
6,51.31599998474121,distr,8684.000015258789,Fri Mar 13 2026 10:30:27 GMT-0500 (Central Daylight Time),857390.5999999046,B,frui,O,i,543,1,5881.799999952316,851508.7999999523,7739,WL,A,9.0
6,51.76700019836426,distr,8232.999801635742,Fri Mar 13 2026 10:30:27 GMT-0500 (Central Daylight Time),857840.7000000477,B,fruit,O,t,416,1,6331.900000095367,851508.7999999523,7739,WL,A,9.0
6,52.415000200271606,distr,7584.999799728394,Fri Mar 13 2026 10:30:27 GMT-0500 (Central Daylight Time),858489.5,B,fruitenter,O,enter,619,1,6980.700000047684,851508.7999999523,7739,WL,A,9.0
6,60.01400017738342,distr,-14.000177383422852,Fri Mar 13 2026 10:30:27 GMT-0500 (Central Daylight Time),866087.899999857,B,None,O,None,7592,1,7598.099999904633,858489.7999999523,7739,WL,A,10.0
7,7.04800009727478,immed,52951.99990272522,Fri Mar 13 2026 10:30:27 GMT-0500 (Central Daylight Time),880483.2000000477,A,b,O,b,7020,1,7047.100000143051,873436.0999999046,7739,WL,A,1.0
7,7.4649999141693115,immed,52535.00008583069,Fri Mar 13 2026 10:30:27 GMT-0500 (Central Daylight Time),880899.899999857,A,bo,O,o,374,1,7463.799999952316,873436.0999999046,7739,WL,A,1.0
7,7.746999979019165,immed,52253.000020980835,Fri Mar 13 2026 10:30:27 GMT-0500 (Central Daylight Time),881182.0999999046,A,boo,O,o,256,1,7746.0,873436.0999999046,7739,WL,A,1.0
7,8.114000082015991,immed,51885.99991798401,Fri Mar 13 2026 10:30:27 GMT-0500 (Central Daylight Time),881549.5999999046,A,book,O,k,352,1,8113.5,873436.0999999046,7739,WL,A,1.0
7,8.913000106811523,immed,51086.99989318848,Fri Mar 13 2026 10:30:27 GMT-0500 (Central Daylight Time),882348.399999857,A,bookenter,O,enter,773,1,8912.299999952316,873436.0999999046,7739,WL,A,1.0
7,9.913000106811523,immed,50086.99989318848,Fri Mar 13 2026 10:30:27 GMT-0500 (Central Daylight Time),883348.7999999523,A,f,O,f,987,1,1000.2000000476837,882348.5999999046,7739,WL,A,2.0
7,10.314000129699707,immed,49685.99987030029,Fri Mar 13 2026 10:30:27 GMT-0500 (Central Daylight Time),883748.899999857,A,fl,O,l,359,1,1400.2999999523163,882348.5999999046,7739,WL,A,2.0
7,10.614000082015991,immed,49385.99991798401,Fri Mar 13 2026 10:30:27 GMT-0500 (Central Daylight Time),884049.0,A,flo,O,o,265,1,1700.4000000953674,882348.5999999046,7739,WL,A,2.0
7,10.913000106811523,immed,49086.99989318848,Fri Mar 13 2026 10:30:27 GMT-0500 (Central Daylight Time),884348.399999857,A,flow,O,w,268,1,1999.7999999523163,882348.5999999046,7739,WL,A,2.0
7,11.314000129699707,immed,48685.99987030029,Fri Mar 13 2026 10:30:27 GMT-0500 (Central Daylight Time),884748.7999999523,A,flowe,O,e,370,1,2400.2000000476837,882348.5999999046,7739,WL,A,2.0
7,11.562999963760376,immed,48437.000036239624,Fri Mar 13 2026 10:30:27 GMT-0500 (Central Daylight Time),884998.0999999046,A,flower,O,r,215,1,2649.5,882348.5999999046,7739,WL,A,2.0
7,12.229000091552734,immed,47770.999908447266,Fri Mar 13 2026 10:30:27 GMT-0500 (Central Daylight Time),885664.0,A,flowerenter,O,enter,639,1,3315.4000000953674,882348.5999999046,7739,WL,A,2.0
7,13.312999963760376,immed,46687.000036239624,Fri Mar 13 2026 10:30:27 GMT-0500 (Central Daylight Time),886747.7999999523,A,t,O,t,1071,1,1083.5999999046326,885664.2000000477,7739,WL,A,3.0
7,13.628000020980835,immed,46371.999979019165,Fri Mar 13 2026 10:30:27 GMT-0500 (Central Daylight Time),887063.7000000477,A,tr,O,r,288,1,1399.5,885664.2000000477,7739,WL,A,3.0
7,13.845999956130981,immed,46154.00004386902,Fri Mar 13 2026 10:30:27 GMT-0500 (Central Daylight Time),887281.0,A,tra,O,a,205,1,1616.7999999523163,885664.2000000477,7739,WL,A,3.0
7,14.145999908447266,immed,45854.000091552734,Fri Mar 13 2026 10:30:27 GMT-0500 (Central Daylight Time),887581.399999857,A,trai,O,i,275,1,1917.1999998092651,885664.2000000477,7739,WL,A,3.0
7,14.529000043869019,immed,45470.99995613098,Fri Mar 13 2026 10:30:27 GMT-0500 (Central Daylight Time),887964.2000000477,A,train,O,n,358,1,2300.0,885664.2000000477,7739,WL,A,3.0
7,15.444999933242798,immed,44555.0000667572,Fri Mar 13 2026 10:30:27 GMT-0500 (Central Daylight Time),888879.7000000477,A,trainenter,O,enter,879,1,3215.5,885664.2000000477,7739,WL,A,3.0
7,16.161999940872192,immed,43838.00005912781,Fri Mar 13 2026 10:30:27 GMT-0500 (Central Daylight Time),889596.899999857,A,r,O,r,704,1,717.0,888879.899999857,7739,WL,A,4.0
7,16.545000076293945,immed,43454.999923706055,Fri Mar 13 2026 10:30:27 GMT-0500 (Central Daylight Time),889979.7000000477,A,ru,O,u,351,1,1099.8000001907349,888879.899999857,7739,WL,A,4.0
7,16.977999925613403,immed,43022.0000743866,Fri Mar 13 2026 10:30:27 GMT-0500 (Central Daylight Time),890413.5,A,rug,O,g,418,1,1533.6000001430511,888879.899999857,7739,WL,A,4.0
7,17.610000133514404,immed,42389.999866485596,Fri Mar 13 2026 10:30:27 GMT-0500 (Central Daylight Time),891045.5,A,rugenter,O,enter,599,1,2165.600000143051,888879.899999857,7739,WL,A,4.0
7,20.960000038146973,immed,39039.99996185303,Fri Mar 13 2026 10:30:27 GMT-0500 (Central Daylight Time),894395.2999999523,A,h,O,h,3337,1,3349.5,891045.7999999523,7739,WL,A,5.0
7,21.276999950408936,immed,38723.000049591064,Fri Mar 13 2026 10:30:27 GMT-0500 (Central Daylight Time),894712.0,A,ha,O,a,280,1,3666.2000000476837,891045.7999999523,7739,WL,A,5.0
7,21.611000061035156,immed,38388.999938964844,Fri Mar 13 2026 10:30:27 GMT-0500 (Central Daylight Time),895046.2000000477,A,har,O,r,294,1,4000.4000000953674,891045.7999999523,7739,WL,A,5.0
7,21.943000078201294,immed,38056.999921798706,Fri Mar 13 2026 10:30:27 GMT-0500 (Central Daylight Time),895378.0999999046,A,harp,O,p,297,1,4332.299999952316,891045.7999999523,7739,WL,A,5.0
7,22.710000038146973,immed,37289.99996185303,Fri Mar 13 2026 10:30:27 GMT-0500 (Central Daylight Time),896144.7000000477,A,harpenter,O,enter,742,1,5098.900000095367,891045.7999999523,7739,WL,A,5.0
7,25.776999950408936,immed,34223.000049591064,Fri Mar 13 2026 10:30:27 GMT-0500 (Central Daylight Time),899210.5,A,m,O,m,3046,1,3065.5,896145.0,7739,WL,A,6.0
7,26.14300012588501,immed,33856.99987411499,Fri Mar 13 2026 10:30:27 GMT-0500 (Central Daylight Time),899576.899999857,A,me,O,e,331,1,3431.899999856949,896145.0,7739,WL,A,6.0
7,26.443000078201294,immed,33556.999921798706,Fri Mar 13 2026 10:30:27 GMT-0500 (Central Daylight Time),899876.7999999523,A,mea,O,a,259,1,3731.7999999523163,896145.0,7739,WL,A,6.0
7,26.89300012588501,immed,33106.99987411499,Fri Mar 13 2026 10:30:27 GMT-0500 (Central Daylight Time),900326.2999999523,A,mead,O,d,427,1,4181.299999952316,896145.0,7739,WL,A,6.0
7,27.2260000705719,immed,32773.9999294281,Fri Mar 13 2026 10:30:27 GMT-0500 (Central Daylight Time),900659.899999857,A,meado,O,o,306,1,4514.899999856949,896145.0,7739,WL,A,6.0
7,27.592000007629395,immed,32407.999992370605,Fri Mar 13 2026 10:30:27 GMT-0500 (Central Daylight Time),901025.399999857,A,meadow,O,w,331,1,4880.399999856949,896145.0,7739,WL,A,6.0
7,28.475000143051147,immed,31524.999856948853,Fri Mar 13 2026 10:30:27 GMT-0500 (Central Daylight Time),901908.5999999046,A,meadowenter,O,enter,874,1,5763.599999904633,896145.0,7739,WL,A,6.0
7,29.492000102996826,immed,30507.999897003174,Fri Mar 13 2026 10:30:27 GMT-0500 (Central Daylight Time),902926.0,A,c,O,c,996,1,1017.2000000476837,901908.7999999523,7739,WL,A,7.0
7,29.825999975204468,immed,30174.000024795532,Fri Mar 13 2026 10:30:27 GMT-0500 (Central Daylight Time),903259.5,A,ch,O,h,303,1,1350.7000000476837,901908.7999999523,7739,WL,A,7.0
7,30.27500009536743,immed,29724.99990463257,Fri Mar 13 2026 10:30:27 GMT-0500 (Central Daylight Time),903708.7000000477,A,chi,O,i,416,1,1799.9000000953674,901908.7999999523,7739,WL,A,7.0
7,31.092000007629395,immed,28907.999992370605,Fri Mar 13 2026 10:30:27 GMT-0500 (Central Daylight Time),904525.2999999523,A,chim,O,m,785,1,2616.5,901908.7999999523,7739,WL,A,7.0
7,31.95799994468689,immed,28042.00005531311,Fri Mar 13 2026 10:30:27 GMT-0500 (Central Daylight Time),905391.7000000477,A,chimn,O,n,834,1,3482.9000000953674,901908.7999999523,7739,WL,A,7.0
7,32.25800013542175,immed,27741.999864578247,Fri Mar 13 2026 10:30:27 GMT-0500 (Central Daylight Time),905691.399999857,A,chimne,O,e,270,1,3782.5999999046326,901908.7999999523,7739,WL,A,7.0
7,32.55800008773804,immed,27441.999912261963,Fri Mar 13 2026 10:30:27 GMT-0500 (Central Daylight Time),905991.5999999046,A,chimney,O,y,267,1,4082.7999999523163,901908.7999999523,7739,WL,A,7.0
7,34.69000005722046,immed,25309.99994277954,Fri Mar 13 2026 10:30:27 GMT-0500 (Central Daylight Time),908124.2999999523,A,chimneyb,O,b,2102,1,6215.5,901908.7999999523,7739,WL,A,7.0
7,35.140000104904175,immed,24859.999895095825,Fri Mar 13 2026 10:30:27 GMT-0500 (Central Daylight Time),908574.0999999046,A,chimneybu,O,u,418,1,6665.299999952316,901908.7999999523,7739,WL,A,7.0
7,35.50600004196167,immed,24493.99995803833,Fri Mar 13 2026 10:30:27 GMT-0500 (Central Daylight Time),908939.5,A,chimneybut,O,t,335,1,7030.700000047684,901908.7999999523,7739,WL,A,7.0
7,35.75600004196167,immed,24243.99995803833,Fri Mar 13 2026 10:30:27 GMT-0500 (Central Daylight Time),909189.399999857,A,chimneybutt,O,t,241,1,7280.599999904633,901908.7999999523,7739,WL,A,7.0
7,36.056999921798706,immed,23943.000078201294,Fri Mar 13 2026 10:30:27 GMT-0500 (Central Daylight Time),909490.2000000477,A,chimneybutto,O,o,282,1,7581.400000095367,901908.7999999523,7739,WL,A,7.0
7,36.44000005722046,immed,23559.99994277954,Fri Mar 13 2026 10:30:27 GMT-0500 (Central Daylight Time),909873.2999999523,A,chimneybutton,O,n,360,1,7964.5,901908.7999999523,7739,WL,A,7.0
7,38.02300000190735,immed,21976.99999809265,Fri Mar 13 2026 10:30:27 GMT-0500 (Central Daylight Time),911456.2999999523,A,chimneybuttonl,O,l,1549,1,9547.5,901908.7999999523,7739,WL,A,7.0
7,38.42199993133545,immed,21578.00006866455,Fri Mar 13 2026 10:30:27 GMT-0500 (Central Daylight Time),911856.2000000477,A,chimneybuttonlo,O,o,365,1,9947.400000095367,901908.7999999523,7739,WL,A,7.0
7,38.956000089645386,immed,21043.999910354614,Fri Mar 13 2026 10:30:27 GMT-0500 (Central Daylight Time),912389.7000000477,A,chimneybuttonlog,O,g,508,1,10480.900000095367,901908.7999999523,7739,WL,A,7.0
7,39.5550000667572,immed,20444.999933242798,Fri Mar 13 2026 10:30:27 GMT-0500 (Central Daylight Time),912988.2000000477,A,chimneybuttonlogenter,O,enter,578,1,11079.400000095367,901908.7999999523,7739,WL,A,7.0
7,52.068000078201294,immed,7931.999921798706,Fri Mar 13 2026 10:30:27 GMT-0500 (Central Daylight Time),925501.899999857,A,a,O,a,12491,1,12513.5,912988.399999857,7739,WL,A,8.0
7,52.568000078201294,immed,7431.999921798706,Fri Mar 13 2026 10:30:27 GMT-0500 (Central Daylight Time),926002.0,A,ap,O,p,463,1,13013.600000143051,912988.399999857,7739,WL,A,8.0
7,52.884000062942505,immed,7115.999937057495,Fri Mar 13 2026 10:30:27 GMT-0500 (Central Daylight Time),926318.0999999046,A,app,O,p,284,1,13329.700000047684,912988.399999857,7739,WL,A,8.0
7,53.46799993515015,immed,6532.0000648498535,Fri Mar 13 2026 10:30:27 GMT-0500 (Central Daylight Time),926901.5999999046,A,appl,O,l,559,1,13913.200000047684,912988.399999857,7739,WL,A,8.0
7,53.884000062942505,immed,6115.999937057495,Fri Mar 13 2026 10:30:27 GMT-0500 (Central Daylight Time),927317.399999857,A,apple,O,e,383,1,14329.0,912988.399999857,7739,WL,A,8.0
7,55.06699991226196,immed,4933.000087738037,Fri Mar 13 2026 10:30:27 GMT-0500 (Central Daylight Time),928501.0999999046,A,applef,O,f,1158,1,15512.700000047684,912988.399999857,7739,WL,A,8.0
7,55.31699991226196,immed,4683.000087738037,Fri Mar 13 2026 10:30:27 GMT-0500 (Central Daylight Time),928750.5999999046,A,applefi,O,i,224,1,15762.200000047684,912988.399999857,7739,WL,A,8.0
7,55.65000009536743,immed,4349.999904632568,Fri Mar 13 2026 10:30:27 GMT-0500 (Central Daylight Time),929084.0,A,applefin,O,n,303,1,16095.600000143051,912988.399999857,7739,WL,A,8.0
7,56.032999992370605,immed,3967.0000076293945,Fri Mar 13 2026 10:30:27 GMT-0500 (Central Daylight Time),929466.5999999046,A,applefing,O,g,345,1,16478.200000047684,912988.399999857,7739,WL,A,8.0
7,56.40000009536743,immed,3599.9999046325684,Fri Mar 13 2026 10:30:27 GMT-0500 (Central Daylight Time),929833.5999999046,A,applefinge,O,e,351,1,16845.200000047684,912988.399999857,7739,WL,A,8.0
7,56.782999992370605,immed,3217.0000076293945,Fri Mar 13 2026 10:30:27 GMT-0500 (Central Daylight Time),930216.899999857,A,applefinger,O,r,348,1,17228.5,912988.399999857,7739,WL,A,8.0
7,57.74900007247925,immed,2250.999927520752,Fri Mar 13 2026 10:30:27 GMT-0500 (Central Daylight Time),931183.2000000477,A,applefingers,O,s,932,1,18194.800000190735,912988.399999857,7739,WL,A,8.0
7,57.99900007247925,immed,2000.999927520752,Fri Mar 13 2026 10:30:27 GMT-0500 (Central Daylight Time),931433.0999999046,A,applefingersa,O,a,220,1,18444.700000047684,912988.399999857,7739,WL,A,8.0
7,58.28200006484985,immed,1717.9999351501465,Fri Mar 13 2026 10:30:27 GMT-0500 (Central Daylight Time),931715.5999999046,A,applefingersal,O,l,244,1,18727.200000047684,912988.399999857,7739,WL,A,8.0
7,58.765000104904175,immed,1234.9998950958252,Fri Mar 13 2026 10:30:27 GMT-0500 (Central Daylight Time),932198.7999999523,A,applefingersalt,O,t,461,1,19210.400000095367,912988.399999857,7739,WL,A,8.0
7,60.01600003242493,immed,-16.000032424926758,Fri Mar 13 2026 10:30:27 GMT-0500 (Central Daylight Time),933449.2999999523,A,applefingersaltNone,O,None,1241,1,20460.900000095367,912988.399999857,7739,WL,A,8.0
