acc_sum,block,block_c,condition,correct,correct_response,datetime,endtime,flanker,jitter,project,response,response_test_buffer_response,response_test_target_response,response_time,response_time_test_buffer_response,response_time_test_target_response,row_sel,session_number,start_end,starttime,subject_id,target,task,task_vers,time_test_buffer,time_test_buffer_response,time_test_constants,time_test_flanker,time_test_jitter,time_test_logger,time_test_target,time_test_target_response,time_test_variables,trial
1,prac,1,con,1,z,Mon Aug 25 2025 16:31:19 GMT-0500 (Central Daylight Time),64108.200000047684,rage,1000,I,z,,,607,,,15,1,2910.7999999523163,61197.40000009537,8063,rage,AF,B,,,,,,,,,,1
2,prac,1,con,1,z,Mon Aug 25 2025 16:31:19 GMT-0500 (Central Daylight Time),66889.5,love,1000,I,z,,,477,,,11,1,2772.7000000476837,64116.799999952316,8063,love,AF,B,,,,,,,,,,2
3,prac,1,con,1,m,Mon Aug 25 2025 16:31:19 GMT-0500 (Central Daylight Time),69592.0,bell,1000,I,m,,,403,,,3,1,2694.7000000476837,66897.29999995232,8063,bell,AF,B,,,,,,,,,,3
4,prac,1,con,1,m,Mon Aug 25 2025 16:31:19 GMT-0500 (Central Daylight Time),72154.20000004768,jacket,800,I,m,,,458,,,5,1,2556.5,69597.70000004768,8063,jacket,AF,B,,,,,,,,,,4
5,prac,1,inc,1,z,Mon Aug 25 2025 16:31:19 GMT-0500 (Central Daylight Time),74971.09999990463,rock,900,I,z,,,616,,,10,1,2812.5,72158.59999990463,8063,kind,AF,B,,,,,,,,,,5
6,prac,1,inc,1,z,Mon Aug 25 2025 16:31:19 GMT-0500 (Central Daylight Time),77869.70000004768,film,900,I,z,,,685,,,14,1,2891.4000000953674,74978.29999995232,8063,hate,AF,B,,,,,,,,,,6
7,prac,1,inc,1,m,Mon Aug 25 2025 16:31:19 GMT-0500 (Central Daylight Time),80634.5,elated,900,I,m,,,549,,,6,1,2757.4000000953674,77877.09999990463,8063,napkin,AF,B,,,,,,,,,,7
8,prac,1,con,1,m,Mon Aug 25 2025 16:31:19 GMT-0500 (Central Daylight Time),83219.90000009537,step,800,I,m,,,492,,,1,1,2575.7000000476837,80644.20000004768,8063,step,AF,B,,,,,,,,,,8
9,prac,1,con,1,z,Mon Aug 25 2025 16:31:19 GMT-0500 (Central Daylight Time),85815.79999995232,elated,800,I,z,,,483,,,9,1,2591.5999999046326,83224.20000004768,8063,elated,AF,B,,,,,,,,,,9
10,prac,1,inc,1,m,Mon Aug 25 2025 16:31:19 GMT-0500 (Central Daylight Time),88632.90000009537,kind,900,I,m,,,602,,,2,1,2809.100000143051,85823.79999995232,8063,rock,AF,B,,,,,,,,,,10
11,prac,1,inc,1,z,Mon Aug 25 2025 16:31:19 GMT-0500 (Central Daylight Time),91682.40000009537,window,1100,I,z,,,631,,,16,1,3041.5,88640.90000009537,8063,temper,AF,B,,,,,,,,,,11
12,prac,1,inc,1,m,Mon Aug 25 2025 16:31:19 GMT-0500 (Central Daylight Time),94679.90000009537,hate,1100,I,m,,,599,,,4,1,2993.4000000953674,91686.5,8063,film,AF,B,,,,,,,,,,12
13,prac,1,inc,1,m,Mon Aug 25 2025 16:31:19 GMT-0500 (Central Daylight Time),97814.20000004768,brutal,1100,I,m,,,732,,,8,1,3125.0,94689.20000004768,8063,window,AF,B,,,,,,,,,,13
13,prac,1,con,0,z,Mon Aug 25 2025 16:31:19 GMT-0500 (Central Daylight Time),100378.0,brutal,800,I,m,,,450,,,13,1,2557.5999999046326,97820.40000009537,8063,brutal,AF,B,,,,,,,,,,14
13,prac,1,inc,0,z,Mon Aug 25 2025 16:31:19 GMT-0500 (Central Daylight Time),103727.40000009537,napkin,1100,I,m,,,959,,,12,1,3343.600000143051,100383.79999995232,8063,friend,AF,B,,,,,,,,,,15
14,prac,1,con,1,m,Mon Aug 25 2025 16:31:19 GMT-0500 (Central Daylight Time),106509.5,remote,1000,I,m,,,484,,,7,1,2775.2999999523163,103734.20000004768,8063,remote,AF,B,,,,,,,,,,16
1,test,1,inc,1,m,Mon Aug 25 2025 16:31:19 GMT-0500 (Central Daylight Time),113758.0,temper,1000,I,m,m,None,698,499.0,199.0,103,1,2239.9000000953674,111518.09999990463,8063,jacket,AF,B,110909,110910,109185,110194,109185,111425,110710,110710,111425,1
2,test,1,con,1,m,Mon Aug 25 2025 16:31:19 GMT-0500 (Central Daylight Time),115656.20000004768,window,900,I,m,m,None,467,267.0,200.0,122,1,1891.7000000476837,113764.5,8063,window,AF,B,113044,113044,111432,112341,111432,113323,112843,112843,113323,2
3,test,1,inc,1,z,Mon Aug 25 2025 16:31:19 GMT-0500 (Central Daylight Time),118320.70000004768,remote,1000,I,z,z,None,1116,902.0,214.0,31,1,2661.100000143051,115659.59999990463,8063,friend,AF,B,115073,115073,113327,114342,113327,115988,114858,114858,115988,3
4,test,1,inc,1,m,Mon Aug 25 2025 16:31:19 GMT-0500 (Central Daylight Time),120404.59999990463,love,1000,I,m,m,None,534,335.0,199.0,71,1,2075.0999999046326,118329.5,8063,step,AF,B,117722,117722,115997,117005,115997,118072,117522,117522,118072,4
5,test,1,inc,1,m,Mon Aug 25 2025 16:31:19 GMT-0500 (Central Daylight Time),122772.20000004768,rage,800,I,m,m,None,1017,818.0,199.0,93,1,2359.100000143051,120413.09999990463,8063,film,AF,B,119606,119606,118080,118889,118080,120439,119406,119406,120439,5
6,test,1,inc,1,z,Mon Aug 25 2025 16:31:19 GMT-0500 (Central Daylight Time),125055.0,film,1100,I,z,z,None,654,440.0,214.0,56,1,2277.7000000476837,122777.29999995232,8063,rage,AF,B,122272,122272,120444,121555,120445,122722,122057,122057,122722,6
7,test,1,inc,1,z,Mon Aug 25 2025 16:31:19 GMT-0500 (Central Daylight Time),127222.09999990463,rock,900,I,z,z,None,715,516.0,199.0,46,1,2161.2999999523163,125060.79999995232,8063,hate,AF,B,124355,124355,122728,123639,122728,124889,124154,124155,124889,7
8,test,1,inc,1,m,Mon Aug 25 2025 16:31:19 GMT-0500 (Central Daylight Time),129454.40000009537,hate,1100,I,m,m,None,599,400.0,199.0,88,1,2225.9000000953674,127228.5,8063,bell,AF,B,126721,126721,124896,126004,124896,127121,126521,126522,127121,8
9,test,1,con,1,m,Mon Aug 25 2025 16:31:19 GMT-0500 (Central Daylight Time),131469.59999990463,bell,800,I,m,m,None,665,466.0,199.0,81,1,2008.8999998569489,129460.70000004768,8063,bell,AF,B,128654,128654,127128,127938,127128,129137,128454,128454,129137,9
10,test,1,inc,1,z,Mon Aug 25 2025 16:31:19 GMT-0500 (Central Daylight Time),133670.70000004768,rock,900,I,z,z,None,750,550.0,200.0,54,1,2192.7000000476837,131478.0,8063,rage,AF,B,130770,130770,129145,130055,129145,131338,130570,130570,131338,10
11,test,1,con,1,z,Mon Aug 25 2025 16:31:19 GMT-0500 (Central Daylight Time),136383.70000004768,brutal,1100,I,z,z,None,1070,870.0,200.0,36,1,2708.0,133675.70000004768,8063,brutal,AF,B,133169,133169,131343,132453,131343,134051,132969,132969,134051,11
12,test,1,con,1,m,Mon Aug 25 2025 16:31:19 GMT-0500 (Central Daylight Time),138283.70000004768,film,900,I,m,m,None,466,267.0,199.0,90,1,1894.0,136389.70000004768,8063,film,AF,B,135668,135668,134057,134967,134057,135951,135468,135468,135951,12
13,test,1,con,1,z,Mon Aug 25 2025 16:31:19 GMT-0500 (Central Daylight Time),140301.20000004768,elated,900,I,z,z,None,575,360.0,215.0,2,1,2011.7999999523163,138289.40000009537,8063,elated,AF,B,137601,137601,135956,136869,135957,137968,137385,137385,137968,13
14,test,1,inc,1,z,Mon Aug 25 2025 16:31:19 GMT-0500 (Central Daylight Time),142566.20000004768,window,1100,I,z,z,None,649,448.0,201.0,8,1,2261.7999999523163,140304.40000009537,8063,elated,AF,B,139785,139785,137971,139082,137972,140233,139583,139583,140233,14
14,test,1,con,0,m,Mon Aug 25 2025 16:31:19 GMT-0500 (Central Daylight Time),144381.59999990463,window,800,I,z,z,None,471,272.0,199.0,121,1,1809.0999999046326,142572.5,8063,window,AF,B,141767,141767,140240,141050,140240,142049,141567,141567,142049,15
15,test,1,inc,1,m,Mon Aug 25 2025 16:31:19 GMT-0500 (Central Daylight Time),146365.40000009537,elated,800,I,m,m,None,665,450.0,215.0,125,1,1977.6000001430511,144387.79999995232,8063,window,AF,B,143582,143582,142055,142865,142055,144032,143367,143367,144032,16
16,test,1,inc,1,m,Mon Aug 25 2025 16:31:19 GMT-0500 (Central Daylight Time),148715.29999995232,friend,1100,I,m,m,None,700,501.0,199.0,104,1,2342.399999856949,146372.90000009537,8063,jacket,AF,B,145866,145866,144040,145150,144040,146382,145666,145666,146382,17
17,test,1,inc,1,m,Mon Aug 25 2025 16:31:19 GMT-0500 (Central Daylight Time),150845.90000009537,love,1000,I,m,m,None,612,398.0,214.0,87,1,2124.7000000476837,148721.20000004768,8063,bell,AF,B,148115,148115,146388,147396,146388,148513,147900,147900,148513,18
18,test,1,inc,1,z,Mon Aug 25 2025 16:31:19 GMT-0500 (Central Daylight Time),153029.20000004768,rock,900,I,z,z,None,744,543.0,201.0,14,1,2178.2999999523163,150850.90000009537,8063,kind,AF,B,150146,150146,148518,149432,148518,150696,149945,149945,150696,19
19,test,1,con,1,m,Mon Aug 25 2025 16:31:19 GMT-0500 (Central Daylight Time),155128.09999990463,napkin,900,I,m,m,None,652,453.0,199.0,106,1,2093.7999999523163,153034.29999995232,8063,napkin,AF,B,152329,152329,150701,151612,150702,152795,152129,152129,152795,20
19,test,1,con,0,z,Mon Aug 25 2025 16:31:19 GMT-0500 (Central Daylight Time),157661.0,friend,900,I,m,m,None,1090,875.0,215.0,26,1,2527.0,155134.0,8063,friend,AF,B,154445,154445,152801,153712,152801,155328,154230,154230,155328,21
20,test,1,inc,1,z,Mon Aug 25 2025 16:31:19 GMT-0500 (Central Daylight Time),159793.09999990463,step,800,I,z,z,None,802,602.0,200.0,53,1,2125.2999999523163,157667.79999995232,8063,rage,AF,B,156845,156845,155335,156144,155335,157460,156645,156645,157460,22
21,test,1,inc,1,m,Mon Aug 25 2025 16:31:19 GMT-0500 (Central Daylight Time),161925.20000004768,love,1000,I,m,m,None,588,389.0,199.0,95,1,2125.0,159800.20000004768,8063,film,AF,B,159194,159194,157467,158477,157468,159592,158994,158994,159592,23
22,test,1,inc,1,z,Mon Aug 25 2025 16:31:19 GMT-0500 (Central Daylight Time),164725.59999990463,window,1100,I,z,z,None,1150,950.0,200.0,64,1,2795.399999856949,161930.20000004768,8063,temper,AF,B,161427,161427,159597,160711,159598,162393,161226,161226,162393,24
23,test,1,inc,1,z,Mon Aug 25 2025 16:31:19 GMT-0500 (Central Daylight Time),167072.70000004768,napkin,900,I,z,z,None,909,710.0,199.0,62,1,2342.0,164730.70000004768,8063,temper,AF,B,164025,164025,162398,163309,162398,164740,163826,163826,164740,25
24,test,1,inc,1,z,Mon Aug 25 2025 16:31:19 GMT-0500 (Central Daylight Time),169373.29999995232,bell,1000,I,z,z,None,755,555.0,200.0,47,1,2297.7000000476837,167075.59999990463,8063,hate,AF,B,166476,166476,164743,165759,164743,167040,166275,166275,167040,26
24,test,1,con,0,z,Mon Aug 25 2025 16:31:19 GMT-0500 (Central Daylight Time),171323.40000009537,brutal,800,I,m,m,None,601,401.0,200.0,33,1,1944.6000001430511,169378.79999995232,8063,brutal,AF,B,168574,168574,167046,167858,167046,168991,168374,168374,168990,27
25,test,1,inc,1,z,Mon Aug 25 2025 16:31:19 GMT-0500 (Central Daylight Time),173422.20000004768,jacket,800,I,z,z,None,749,534.0,215.0,37,1,2092.0,171330.20000004768,8063,brutal,AF,B,170540,170540,168997,169807,168998,171089,170325,170325,171089,28
26,test,1,con,1,m,Mon Aug 25 2025 16:31:19 GMT-0500 (Central Daylight Time),175404.59999990463,rock,800,I,m,m,None,640,438.0,202.0,73,1,1975.7999999523163,173428.79999995232,8063,rock,AF,B,172625,172625,171096,171907,171096,173072,172422,172422,173072,29
26,test,1,con,0,z,Mon Aug 25 2025 16:31:19 GMT-0500 (Central Daylight Time),177354.20000004768,friend,800,I,m,m,None,601,385.0,216.0,25,1,1945.7000000476837,175408.5,8063,friend,AF,B,174622,174622,173076,173889,173076,175021,174406,174406,175021,30
27,test,1,con,1,z,Mon Aug 25 2025 16:31:19 GMT-0500 (Central Daylight Time),179719.09999990463,temper,1100,I,z,z,None,729,529.0,200.0,60,1,2358.199999809265,177360.90000009537,8063,temper,AF,B,176856,176856,175028,176139,175028,177386,176655,176655,177386,31
28,test,1,inc,1,m,Mon Aug 25 2025 16:31:19 GMT-0500 (Central Daylight Time),181835.70000004768,love,1000,I,m,m,None,567,368.0,199.0,79,1,2112.100000143051,179723.59999990463,8063,rock,AF,B,179120,179120,177391,178405,177391,179503,178921,178921,179503,32
29,test,1,inc,1,z,Mon Aug 25 2025 16:31:19 GMT-0500 (Central Daylight Time),183968.70000004768,napkin,900,I,z,z,None,687,487.0,200.0,6,1,2126.7999999523163,181841.90000009537,8063,elated,AF,B,181137,181137,179509,180421,179509,181636,180937,180937,181636,33
29,test,1,inc,0,z,Mon Aug 25 2025 16:31:19 GMT-0500 (Central Daylight Time),186233.90000009537,jacket,800,I,m,m,None,917,717.0,200.0,29,1,2259.100000143051,183974.79999995232,8063,friend,AF,B,183170,183170,181642,182454,181642,183901,182970,182970,183901,34
30,test,1,con,1,z,Mon Aug 25 2025 16:31:19 GMT-0500 (Central Daylight Time),188283.59999990463,kind,800,I,z,z,None,708,508.0,200.0,9,1,2041.1999998092651,186242.40000009537,8063,kind,AF,B,185435,185435,183909,184718,183910,185951,185234,185234,185951,35
31,test,1,con,1,m,Mon Aug 25 2025 16:31:19 GMT-0500 (Central Daylight Time),190432.59999990463,film,1100,I,m,m,None,502,303.0,199.0,92,1,2143.399999856949,188289.20000004768,8063,film,AF,B,187784,187784,185956,187067,185956,188100,187584,187584,188100,36
32,test,1,con,1,z,Mon Aug 25 2025 16:31:19 GMT-0500 (Central Daylight Time),192765.90000009537,friend,1100,I,z,z,None,691,490.0,201.0,28,1,2324.9000000953674,190441.0,8063,friend,AF,B,189934,189935,188108,189216,188108,190433,189733,189733,190433,37
33,test,1,con,1,m,Mon Aug 25 2025 16:31:19 GMT-0500 (Central Daylight Time),194748.0,remote,1000,I,m,m,None,442,241.0,201.0,115,1,1975.4000000953674,192772.59999990463,8063,remote,AF,B,192167,192167,190440,191449,190440,192415,191965,191965,192415,38
34,test,1,con,1,m,Mon Aug 25 2025 16:31:19 GMT-0500 (Central Daylight Time),196780.79999995232,jacket,1000,I,m,m,None,491,291.0,200.0,99,1,2024.2000000476837,194756.59999990463,8063,jacket,AF,B,194148,194148,192424,193431,192424,194448,193948,193948,194448,39
35,test,1,con,1,z,Mon Aug 25 2025 16:31:19 GMT-0500 (Central Daylight Time),198813.0,rage,1000,I,z,z,None,483,284.0,199.0,51,1,2025.7999999523163,196787.20000004768,8063,rage,AF,B,196181,196181,194454,195464,194454,196480,195982,195982,196480,40
36,test,1,inc,1,z,Mon Aug 25 2025 16:31:19 GMT-0500 (Central Daylight Time),201279.20000004768,bell,1000,I,z,z,None,935,736.0,199.0,15,1,2459.5,198819.70000004768,8063,kind,AF,B,198198,198198,196487,197497,196487,198946,197998,197998,198946,41
37,test,1,inc,1,z,Mon Aug 25 2025 16:31:19 GMT-0500 (Central Daylight Time),203561.79999995232,remote,1000,I,z,z,None,743,544.0,199.0,7,1,2279.2999999523163,201282.5,8063,elated,AF,B,200679,200679,198950,199963,198950,201229,200479,200480,201229,42
38,test,1,inc,1,z,Mon Aug 25 2025 16:31:19 GMT-0500 (Central Daylight Time),205794.40000009537,napkin,900,I,z,z,None,785,585.0,200.0,38,1,2229.600000143051,203564.79999995232,8063,brutal,AF,B,202862,202863,201232,202146,201232,203461,202662,202662,203461,43
39,test,1,con,1,m,Mon Aug 25 2025 16:31:19 GMT-0500 (Central Daylight Time),207696.59999990463,step,900,I,m,m,None,467,268.0,199.0,66,1,1895.5999999046326,205801.0,8063,step,AF,B,205094,205095,203468,204380,203468,205364,204895,204895,205364,44
40,test,1,con,1,z,Mon Aug 25 2025 16:31:19 GMT-0500 (Central Daylight Time),209959.70000004768,brutal,1000,I,z,z,None,721,521.0,200.0,35,1,2257.4000000953674,207702.29999995232,8063,brutal,AF,B,207094,207094,205369,206378,205370,207627,206894,206894,207627,45
41,test,1,con,1,m,Mon Aug 25 2025 16:31:19 GMT-0500 (Central Daylight Time),212376.90000009537,napkin,1000,I,m,m,None,888,689.0,199.0,107,1,2408.4000000953674,209968.5,8063,napkin,AF,B,209343,209344,207636,208643,207636,210044,209144,209144,210044,46
42,test,1,con,1,m,Mon Aug 25 2025 16:31:19 GMT-0500 (Central Daylight Time),214324.70000004768,remote,800,I,m,m,None,613,400.0,213.0,113,1,1940.2000000476837,212384.5,8063,remote,AF,B,211577,211577,210052,210861,210052,211992,211364,211364,211992,47
43,test,1,con,1,z,Mon Aug 25 2025 16:31:19 GMT-0500 (Central Daylight Time),216358.29999995232,kind,900,I,z,z,None,599,400.0,199.0,10,1,2026.3999998569489,214331.90000009537,8063,kind,AF,B,213611,213611,211999,212909,211999,214025,213411,213411,214025,48
44,test,1,con,1,z,Mon Aug 25 2025 16:31:19 GMT-0500 (Central Daylight Time),218240.20000004768,rage,900,I,z,z,None,442,243.0,199.0,50,1,1876.4000000953674,216363.79999995232,8063,rage,AF,B,215660,215660,214031,214942,214031,215907,215460,215460,215907,49
45,test,1,inc,1,z,Mon Aug 25 2025 16:31:19 GMT-0500 (Central Daylight Time),221190.5,remote,1000,I,z,z,None,1414,1214.0,200.0,63,1,2944.2000000476837,218246.29999995232,8063,temper,AF,B,217642,217642,215913,216926,215914,218858,217442,217442,218857,50
46,test,1,con,1,z,Mon Aug 25 2025 16:31:19 GMT-0500 (Central Daylight Time),222923.90000009537,love,800,I,z,z,None,407,192.0,215.0,17,1,1726.5,221197.40000009537,8063,love,AF,B,220391,220391,218864,219673,218865,220591,220175,220175,220591,51
47,test,1,inc,1,z,Mon Aug 25 2025 16:31:19 GMT-0500 (Central Daylight Time),225054.90000009537,bell,1000,I,z,z,None,611,397.0,214.0,23,1,2124.600000143051,222930.29999995232,8063,love,AF,B,222322,222322,220597,221606,220598,222722,222107,222108,222722,52
48,test,1,con,1,m,Mon Aug 25 2025 16:31:19 GMT-0500 (Central Daylight Time),227522.29999995232,rock,1000,I,m,m,None,917,718.0,199.0,75,1,2458.7000000476837,225063.59999990463,8063,rock,AF,B,224457,224457,222731,223739,222731,225189,224257,224257,225189,53
49,test,1,con,1,z,Mon Aug 25 2025 16:31:19 GMT-0500 (Central Daylight Time),230020.59999990463,temper,1000,I,z,z,None,949,750.0,199.0,59,1,2493.5,227527.09999990463,8063,temper,AF,B,226923,226923,225194,226207,225194,227688,226723,226723,227688,54
50,test,1,inc,1,m,Mon Aug 25 2025 16:31:19 GMT-0500 (Central Daylight Time),232286.90000009537,temper,1000,I,m,m,None,733,534.0,199.0,119,1,2260.9000000953674,230026.0,8063,remote,AF,B,229420,229420,227693,228705,227693,229954,229221,229221,229954,55
51,test,1,con,1,m,Mon Aug 25 2025 16:31:19 GMT-0500 (Central Daylight Time),234636.29999995232,bell,1000,I,m,m,None,809,609.0,200.0,83,1,2343.2000000476837,232293.09999990463,8063,bell,AF,B,231686,231687,229960,230971,229960,232303,231486,231486,232303,56
51,test,1,inc,0,z,Mon Aug 25 2025 16:31:19 GMT-0500 (Central Daylight Time),237085.70000004768,window,1100,I,m,m,None,806,607.0,199.0,32,1,2444.2000000476837,234641.5,8063,friend,AF,B,234137,234137,232309,233419,232309,234753,233937,233937,234753,57
52,test,1,inc,1,z,Mon Aug 25 2025 16:31:19 GMT-0500 (Central Daylight Time),239417.79999995232,film,1100,I,z,z,None,695,496.0,199.0,16,1,2327.5,237090.29999995232,8063,kind,AF,B,236584,236584,234757,235869,234758,237085,236385,236385,237085,58
53,test,1,con,1,z,Mon Aug 25 2025 16:31:19 GMT-0500 (Central Daylight Time),241600.09999990463,hate,900,I,z,z,None,737,538.0,199.0,42,1,2179.5,239420.59999990463,8063,hate,AF,B,238717,238717,237088,238002,237088,239267,238518,238518,239267,59
54,test,1,inc,1,m,Mon Aug 25 2025 16:31:19 GMT-0500 (Central Daylight Time),243749.20000004768,kind,900,I,m,m,None,699,500.0,199.0,78,1,2142.2000000476837,241607.0,8063,rock,AF,B,240901,240901,239274,240187,239274,241416,240701,240701,241416,60
55,test,1,inc,1,m,Mon Aug 25 2025 16:31:19 GMT-0500 (Central Daylight Time),245899.0,kind,900,I,m,m,None,700,499.0,201.0,70,1,2147.0,243752.0,8063,step,AF,B,243051,243052,241419,242333,241419,243566,242850,242850,243566,61
56,test,1,con,1,z,Mon Aug 25 2025 16:31:19 GMT-0500 (Central Daylight Time),248097.79999995232,temper,800,I,z,z,None,861,659.0,202.0,57,1,2192.5,245905.29999995232,8063,temper,AF,B,245100,245100,243572,244385,243573,245765,244898,244898,245765,62
57,test,1,con,1,m,Mon Aug 25 2025 16:31:19 GMT-0500 (Central Daylight Time),250264.59999990463,step,800,I,m,m,None,819,619.0,200.0,65,1,2163.0999999046326,248101.5,8063,step,AF,B,247300,247300,245769,246584,245769,247932,247099,247099,247932,63
58,test,1,con,1,z,Mon Aug 25 2025 16:31:19 GMT-0500 (Central Daylight Time),252546.90000009537,love,1100,I,z,z,None,643,443.0,200.0,20,1,2276.600000143051,250270.29999995232,8063,love,AF,B,249765,249765,247937,249050,247938,250214,249565,249565,250214,64
59,test,1,con,1,m,Mon Aug 25 2025 16:31:19 GMT-0500 (Central Daylight Time),254729.70000004768,bell,900,I,m,m,None,734,520.0,214.0,82,1,2178.7000000476837,252551.0,8063,bell,AF,B,251863,251863,250218,251131,250218,252397,251648,251649,252397,65
60,test,1,inc,1,z,Mon Aug 25 2025 16:31:19 GMT-0500 (Central Daylight Time),256695.29999995232,jacket,800,I,z,z,None,618,404.0,214.0,5,1,1960.0999999046326,254735.20000004768,8063,elated,AF,B,253947,253947,252402,253214,252402,254362,253731,253732,254362,66
61,test,1,con,1,z,Mon Aug 25 2025 16:31:19 GMT-0500 (Central Daylight Time),259044.59999990463,kind,1100,I,z,z,None,707,507.0,200.0,12,1,2345.399999856949,256699.20000004768,8063,kind,AF,B,256197,256197,254366,255479,254366,256712,255996,255996,256712,67
62,test,1,inc,1,m,Mon Aug 25 2025 16:31:19 GMT-0500 (Central Daylight Time),261227.59999990463,temper,1000,I,m,m,None,633,434.0,199.0,127,1,2178.0999999046326,259049.5,8063,window,AF,B,258446,258446,256717,257730,256717,258895,258246,258246,258895,68
63,test,1,inc,1,m,Mon Aug 25 2025 16:31:19 GMT-0500 (Central Daylight Time),263393.7000000477,temper,1000,I,m,m,None,626,426.0,200.0,111,1,2161.2999999523163,261232.40000009537,8063,napkin,AF,B,260629,260629,258899,259912,258900,261061,260428,260429,261061,69
64,test,1,inc,1,m,Mon Aug 25 2025 16:31:19 GMT-0500 (Central Daylight Time),265726.59999990463,hate,1100,I,m,m,None,688,488.0,200.0,96,1,2327.5999999046326,263399.0,8063,film,AF,B,262895,262895,261066,262178,261066,263394,262695,262695,263394,70
65,test,1,inc,1,m,Mon Aug 25 2025 16:31:19 GMT-0500 (Central Daylight Time),267991.7999999523,friend,1100,I,m,m,None,645,446.0,199.0,120,1,2260.0999999046326,265731.7000000477,8063,remote,AF,B,265210,265210,263399,264510,263399,265659,265011,265011,265659,71
66,test,1,inc,1,m,Mon Aug 25 2025 16:31:19 GMT-0500 (Central Daylight Time),270025.2999999523,brutal,900,I,m,m,None,587,388.0,199.0,126,1,2028.2999999523163,267997.0,8063,window,AF,B,267292,267292,265664,266577,265664,267692,267093,267093,267692,72
67,test,1,con,1,m,Mon Aug 25 2025 16:31:19 GMT-0500 (Central Daylight Time),272174.40000009537,remote,1100,I,m,m,None,504,305.0,199.0,116,1,2144.0,270030.40000009537,8063,remote,AF,B,269526,269526,267697,268809,267698,269841,269326,269326,269841,73
68,test,1,inc,1,m,Mon Aug 25 2025 16:31:19 GMT-0500 (Central Daylight Time),274206.90000009537,rage,800,I,m,m,None,686,472.0,214.0,77,1,2027.6000001430511,272179.2999999523,8063,rock,AF,B,271391,271391,269846,270658,269847,271874,271176,271176,271874,74
69,test,1,inc,1,m,Mon Aug 25 2025 16:31:19 GMT-0500 (Central Daylight Time),276439.90000009537,hate,1100,I,m,m,None,588,388.0,200.0,80,1,2226.7000000476837,274213.2000000477,8063,rock,AF,B,273708,273708,271880,272991,271881,274107,273507,273507,274107,75
70,test,1,inc,1,z,Mon Aug 25 2025 16:31:19 GMT-0500 (Central Daylight Time),278673.2999999523,film,1100,I,z,z,None,595,395.0,200.0,24,1,2227.899999856949,276445.40000009537,8063,love,AF,B,275940,275940,274112,275223,274113,276340,275740,275740,276340,76
71,test,1,con,1,m,Mon Aug 25 2025 16:31:19 GMT-0500 (Central Daylight Time),280854.7999999523,window,1100,I,m,m,None,533,333.0,200.0,124,1,2177.0,278677.7999999523,8063,window,AF,B,278172,278172,276345,277456,276345,278522,277972,277972,278522,77
72,test,1,inc,1,m,Mon Aug 25 2025 16:31:19 GMT-0500 (Central Daylight Time),282820.0,rage,800,I,m,m,None,631,431.0,200.0,69,1,1957.7999999523163,280862.2000000477,8063,step,AF,B,280039,280039,278529,279337,278530,280487,279838,279838,280487,78
73,test,1,inc,1,m,Mon Aug 25 2025 16:31:19 GMT-0500 (Central Daylight Time),285004.5,brutal,900,I,m,m,None,741,542.0,199.0,118,1,2181.2999999523163,282823.2000000477,8063,remote,AF,B,282122,282122,280490,281405,280490,282672,281922,281922,282672,79
74,test,1,inc,1,z,Mon Aug 25 2025 16:31:19 GMT-0500 (Central Daylight Time),287119.7999999523,bell,1000,I,z,z,None,582,383.0,199.0,55,1,2110.0999999046326,285009.7000000477,8063,rage,AF,B,284403,284403,282677,283687,282677,284787,284204,284204,284787,80
75,test,1,con,1,m,Mon Aug 25 2025 16:31:19 GMT-0500 (Central Daylight Time),289219.0,rock,900,I,m,m,None,658,459.0,199.0,74,1,2093.5,287125.5,8063,rock,AF,B,286420,286420,284793,285705,284793,286886,286221,286221,286886,81
76,test,1,con,1,z,Mon Aug 25 2025 16:31:19 GMT-0500 (Central Daylight Time),291534.40000009537,hate,1000,I,z,z,None,772,573.0,199.0,43,1,2310.7000000476837,289223.7000000477,8063,hate,AF,B,288619,288619,286891,287902,286891,289201,288420,288420,289201,82
77,test,1,inc,1,z,Mon Aug 25 2025 16:31:19 GMT-0500 (Central Daylight Time),294267.5,film,1100,I,z,z,None,1084,885.0,199.0,48,1,2728.0999999046326,291539.40000009537,8063,hate,AF,B,291034,291034,289206,290320,289207,291935,290835,290835,291935,83
78,test,1,inc,1,m,Mon Aug 25 2025 16:31:19 GMT-0500 (Central Daylight Time),296466.2999999523,hate,1100,I,m,m,None,559,360.0,199.0,72,1,2193.399999856949,294272.90000009537,8063,step,AF,B,293769,293769,291940,293052,291940,294133,293569,293569,294133,84
79,test,1,inc,1,z,Mon Aug 25 2025 16:31:19 GMT-0500 (Central Daylight Time),298532.7000000477,rock,900,I,z,z,None,625,424.0,201.0,22,1,2061.7000000476837,296471.0,8063,love,AF,B,295768,295768,294138,295050,294138,296200,295566,295566,296200,85
80,test,1,con,1,z,Mon Aug 25 2025 16:31:19 GMT-0500 (Central Daylight Time),300716.09999990463,love,1000,I,z,z,None,650,450.0,200.0,19,1,2179.0999999046326,298537.0,8063,love,AF,B,297933,297933,296204,297217,296204,298383,297732,297732,298383,86
81,test,1,con,1,z,Mon Aug 25 2025 16:31:19 GMT-0500 (Central Daylight Time),303215.0,elated,1100,I,z,z,None,850,651.0,199.0,4,1,2495.4000000953674,300719.59999990463,8063,elated,AF,B,300215,300215,298387,299500,298387,300882,300016,300016,300882,87
82,test,1,con,1,z,Mon Aug 25 2025 16:31:19 GMT-0500 (Central Daylight Time),305596.7000000477,hate,1100,I,z,z,None,743,542.0,201.0,44,1,2376.0,303220.7000000477,8063,hate,AF,B,302715,302715,300888,301999,300888,303264,302514,302514,303264,88
83,test,1,con,1,m,Mon Aug 25 2025 16:31:19 GMT-0500 (Central Daylight Time),307478.59999990463,jacket,900,I,m,m,None,438,238.0,200.0,98,1,1875.2999999523163,305603.2999999523,8063,jacket,AF,B,304897,304897,303270,304180,303271,305146,304697,304697,305146,89
84,test,1,con,1,z,Mon Aug 25 2025 16:31:19 GMT-0500 (Central Daylight Time),309427.90000009537,elated,800,I,z,z,None,602,401.0,201.0,1,1,1944.3000001907349,307483.59999990463,8063,elated,AF,B,306679,306679,305151,305962,305151,307095,306478,306478,307095,90
85,test,1,inc,1,m,Mon Aug 25 2025 16:31:19 GMT-0500 (Central Daylight Time),311710.7999999523,friend,1100,I,m,m,None,639,438.0,201.0,112,1,2276.5,309434.2999999523,8063,napkin,AF,B,308929,308929,307101,308212,307102,309378,308728,308728,309378,91
86,test,1,con,1,m,Mon Aug 25 2025 16:31:19 GMT-0500 (Central Daylight Time),313893.40000009537,step,1100,I,m,m,None,548,349.0,199.0,68,1,2175.600000143051,311717.7999999523,8063,step,AF,B,311211,311211,309385,310494,309385,311560,311011,311011,311560,92
87,test,1,inc,1,m,Mon Aug 25 2025 16:31:19 GMT-0500 (Central Daylight Time),316075.7000000477,brutal,900,I,m,m,None,749,549.0,200.0,110,1,2175.7000000476837,313900.0,8063,napkin,AF,B,313194,313194,311567,312479,311567,313743,312993,312993,313743,93
88,test,1,con,1,z,Mon Aug 25 2025 16:31:19 GMT-0500 (Central Daylight Time),318158.5,rage,1100,I,z,z,None,438,239.0,199.0,52,1,2079.9000000953674,316078.59999990463,8063,rage,AF,B,315576,315576,313746,314860,313746,315826,315377,315377,315826,94
89,test,1,con,1,m,Mon Aug 25 2025 16:31:19 GMT-0500 (Central Daylight Time),320475.7000000477,step,1000,I,m,m,None,768,569.0,199.0,67,1,2309.2000000476837,318166.5,8063,step,AF,B,317559,317559,315834,316842,315834,318143,317359,317359,318143,95
90,test,1,inc,1,m,Mon Aug 25 2025 16:31:19 GMT-0500 (Central Daylight Time),322574.0,kind,900,I,m,m,None,679,480.0,199.0,94,1,2090.2999999523163,320483.7000000477,8063,film,AF,B,319758,319759,318151,319058,318151,320241,319559,319559,320241,96
91,test,1,inc,1,z,Mon Aug 25 2025 16:31:19 GMT-0500 (Central Daylight Time),324623.0,step,800,I,z,z,None,711,512.0,199.0,13,1,2041.5,322581.5,8063,kind,AF,B,321775,321775,320249,321058,320249,322290,321575,321575,322290,97
92,test,1,con,1,m,Mon Aug 25 2025 16:31:19 GMT-0500 (Central Daylight Time),326839.09999990463,window,1000,I,m,m,None,671,472.0,199.0,123,1,2210.899999856949,324628.2000000477,8063,window,AF,B,324023,324023,322295,323307,322295,324506,323824,323824,324506,98
93,test,1,con,1,z,Mon Aug 25 2025 16:31:19 GMT-0500 (Central Daylight Time),328838.59999990463,hate,800,I,z,z,None,652,438.0,214.0,41,1,1991.5999999046326,326847.0,8063,hate,AF,B,326057,326057,324514,325323,324514,326506,325841,325841,326506,99
94,test,1,inc,1,m,Mon Aug 25 2025 16:31:19 GMT-0500 (Central Daylight Time),330804.59999990463,rage,800,I,m,m,None,616,416.0,200.0,85,1,1959.0,328845.59999990463,8063,bell,AF,B,328040,328041,326513,327323,326513,328472,327840,327840,328472,100
95,test,1,con,1,m,Mon Aug 25 2025 16:31:19 GMT-0500 (Central Daylight Time),332738.2999999523,napkin,800,I,m,m,None,593,394.0,199.0,105,1,1926.8999998569489,330811.40000009537,8063,napkin,AF,B,330004,330005,328478,329289,328478,330405,329805,329805,330405,101
96,test,1,con,1,z,Mon Aug 25 2025 16:31:19 GMT-0500 (Central Daylight Time),334937.7000000477,brutal,900,I,z,z,None,777,562.0,215.0,34,1,2193.4000000953674,332744.2999999523,8063,brutal,AF,B,332037,332037,330411,331321,330412,332605,331822,331822,332605,102
97,test,1,inc,1,z,Mon Aug 25 2025 16:31:19 GMT-0500 (Central Daylight Time),337152.59999990463,remote,1000,I,z,z,None,668,469.0,199.0,39,1,2207.699999809265,334944.90000009537,8063,brutal,AF,B,334338,334338,332612,333622,332612,334820,334139,334139,334820,103
98,test,1,con,1,z,Mon Aug 25 2025 16:31:19 GMT-0500 (Central Daylight Time),339252.59999990463,kind,1000,I,z,z,None,550,351.0,199.0,11,1,2095.0999999046326,337157.5,8063,kind,AF,B,336554,336554,334825,335838,334825,336920,336354,336354,336920,104
99,test,1,con,1,m,Mon Aug 25 2025 16:31:19 GMT-0500 (Central Daylight Time),341485.7000000477,jacket,1100,I,m,m,None,605,391.0,214.0,100,1,2225.600000143051,339260.09999990463,8063,jacket,AF,B,338753,338753,336927,338037,336927,339153,338538,338538,339153,105
100,test,1,con,1,m,Mon Aug 25 2025 16:31:19 GMT-0500 (Central Daylight Time),343967.59999990463,rock,1100,I,m,m,None,842,643.0,199.0,76,1,2477.899999856949,341489.7000000477,8063,rock,AF,B,340987,340987,339157,340269,339157,341635,340787,340787,341635,106
101,test,1,inc,1,m,Mon Aug 25 2025 16:31:19 GMT-0500 (Central Daylight Time),346184.2000000477,elated,800,I,m,m,None,869,654.0,215.0,117,1,2211.5,343972.7000000477,8063,remote,AF,B,343185,343185,341640,342451,341640,343851,342970,342970,343851,107
102,test,1,con,1,z,Mon Aug 25 2025 16:31:19 GMT-0500 (Central Daylight Time),348650.0,temper,900,I,z,z,None,1019,803.0,216.0,58,1,2457.9000000953674,346192.09999990463,8063,temper,AF,B,345500,345500,343859,344768,343859,346317,345284,345284,346317,108
103,test,1,con,1,z,Mon Aug 25 2025 16:31:19 GMT-0500 (Central Daylight Time),351198.40000009537,friend,1000,I,z,z,None,1021,822.0,199.0,27,1,2542.4000000953674,348656.0,8063,friend,AF,B,348034,348034,346323,347333,346324,348865,347834,347834,348865,109
104,test,1,con,1,z,Mon Aug 25 2025 16:31:19 GMT-0500 (Central Daylight Time),353098.5,love,900,I,z,z,None,458,244.0,214.0,18,1,1895.0999999046326,351203.40000009537,8063,love,AF,B,350515,350515,348870,349784,348871,350766,350301,350301,350766,110
105,test,1,inc,1,z,Mon Aug 25 2025 16:31:19 GMT-0500 (Central Daylight Time),355048.7000000477,step,800,I,z,z,None,615,416.0,199.0,21,1,1945.7999999523163,353102.90000009537,8063,love,AF,B,352282,352282,350770,351581,350770,352716,352083,352083,352716,111
106,test,1,con,1,m,Mon Aug 25 2025 16:31:19 GMT-0500 (Central Daylight Time),357096.90000009537,film,800,I,m,m,None,703,502.0,201.0,89,1,2043.3000001907349,355053.59999990463,8063,film,AF,B,354249,354249,352721,353531,352721,354764,354048,354048,354764,112
107,test,1,inc,1,z,Mon Aug 25 2025 16:31:19 GMT-0500 (Central Daylight Time),359146.0,step,800,I,z,z,None,701,501.0,200.0,45,1,2043.5,357102.5,8063,hate,AF,B,356298,356298,354770,355582,354770,356813,356098,356098,356813,113
107,test,1,con,0,m,Mon Aug 25 2025 16:31:19 GMT-0500 (Central Daylight Time),361646.59999990463,film,1000,I,z,z,None,950,735.0,215.0,91,1,2494.699999809265,359151.90000009537,8063,film,AF,B,358562,358562,356819,357830,356819,359314,358347,358347,359314,114
108,test,1,con,1,m,Mon Aug 25 2025 16:31:19 GMT-0500 (Central Daylight Time),363827.5,remote,900,I,m,m,None,741,541.0,200.0,114,1,2175.7000000476837,361651.7999999523,8063,remote,AF,B,360946,360946,359319,360230,359319,361495,360746,360746,361495,115
109,test,1,inc,1,m,Mon Aug 25 2025 16:31:19 GMT-0500 (Central Daylight Time),365811.40000009537,elated,800,I,m,m,None,641,442.0,199.0,109,1,1979.2000000476837,363832.2000000477,8063,napkin,AF,B,363029,363029,361499,362312,361499,363479,362829,362829,363478,116
110,test,1,inc,1,m,Mon Aug 25 2025 16:31:19 GMT-0500 (Central Daylight Time),367845.0,kind,900,I,m,m,None,616,400.0,216.0,86,1,2028.7000000476837,365816.2999999523,8063,bell,AF,B,365112,365112,363483,364395,363483,365512,364896,364896,365512,117
110,test,1,inc,0,z,Mon Aug 25 2025 16:31:19 GMT-0500 (Central Daylight Time),370291.7999999523,jacket,800,I,m,m,None,1113,898.0,215.0,61,1,2441.0,367850.7999999523,8063,temper,AF,B,367045,367045,365518,366327,365518,367959,366829,366829,367959,118
111,test,1,inc,1,m,Mon Aug 25 2025 16:31:19 GMT-0500 (Central Daylight Time),372510.2999999523,friend,1100,I,m,m,None,574,375.0,199.0,128,1,2210.899999856949,370299.40000009537,8063,window,AF,B,369793,369793,367966,369077,367967,370177,369594,369594,370177,119
112,test,1,inc,1,m,Mon Aug 25 2025 16:31:19 GMT-0500 (Central Daylight Time),374424.09999990463,elated,800,I,m,m,None,593,394.0,199.0,101,1,1908.3999998569489,372515.7000000477,8063,jacket,AF,B,371693,371693,370183,370991,370183,372091,371493,371493,372091,120
113,test,1,con,1,m,Mon Aug 25 2025 16:31:19 GMT-0500 (Central Daylight Time),376590.40000009537,bell,1100,I,m,m,None,516,317.0,199.0,84,1,2161.800000190735,374428.59999990463,8063,bell,AF,B,373925,373925,372096,373209,372096,374257,373726,373726,374257,121
113,test,1,inc,0,z,Mon Aug 25 2025 16:31:19 GMT-0500 (Central Daylight Time),378789.7000000477,napkin,900,I,m,m,None,754,539.0,215.0,30,1,2192.7000000476837,376597.0,8063,friend,AF,B,375908,375908,374264,375175,374264,376457,375692,375692,376457,122
114,test,1,inc,1,m,Mon Aug 25 2025 16:31:19 GMT-0500 (Central Daylight Time),380840.2000000477,brutal,900,I,m,m,None,605,405.0,200.0,102,1,2045.1000001430511,378795.09999990463,8063,jacket,AF,B,378090,378090,376462,377374,376462,378507,377890,377890,378507,123
115,test,1,inc,1,z,Mon Aug 25 2025 16:31:19 GMT-0500 (Central Daylight Time),383206.7000000477,window,1100,I,z,z,None,745,532.0,213.0,40,1,2361.9000000953674,380844.7999999523,8063,brutal,AF,B,380341,380341,378512,379624,378512,380874,380127,380127,380874,124
116,test,1,con,1,z,Mon Aug 25 2025 16:31:19 GMT-0500 (Central Daylight Time),385239.2000000477,rage,800,I,z,z,None,701,499.0,202.0,49,1,2026.6000001430511,383212.59999990463,8063,rage,AF,B,382407,382407,380880,381690,380880,382906,382204,382204,382906,125
117,test,1,con,1,z,Mon Aug 25 2025 16:31:19 GMT-0500 (Central Daylight Time),387487.5,elated,1000,I,z,z,None,715,516.0,199.0,3,1,2242.2000000476837,385245.2999999523,8063,elated,AF,B,384638,384638,382912,383923,382913,385155,384439,384439,385155,126
118,test,1,con,1,m,Mon Aug 25 2025 16:31:19 GMT-0500 (Central Daylight Time),389537.2999999523,napkin,1100,I,m,m,None,428,229.0,199.0,108,1,2043.2999999523163,387494.0,8063,napkin,AF,B,386972,386972,385161,386271,385161,387204,386773,386773,387204,127
119,test,1,con,1,m,Mon Aug 25 2025 16:31:19 GMT-0500 (Central Daylight Time),391472.09999990463,jacket,800,I,m,m,None,602,400.0,202.0,97,1,1929.5999999046326,389542.5,8063,jacket,AF,B,388739,388739,387210,388020,387210,389139,388537,388537,389139,128
