block_c,block_dur,condition,countdown,datetime,endtime,list,multichar_response,project,response,response_time,session_number,start_end,starttime,subject_id,task,task_vers,trial
,,,,Wed Nov 05 2025 16:28:07 GMT-0600 (Central Standard Time),,,,I,space,414,1,,,8076,WL,C,
prac,,0,,Wed Nov 05 2025 16:28:07 GMT-0600 (Central Standard Time),,NA,b,I,b,6305,1,,,8076,WL,C,1.0
prac,,0,,Wed Nov 05 2025 16:28:07 GMT-0600 (Central Standard Time),,NA,bo,I,o,377,1,,,8076,WL,C,1.0
prac,,0,,Wed Nov 05 2025 16:28:07 GMT-0600 (Central Standard Time),,NA,boo,I,o,283,1,,,8076,WL,C,1.0
prac,,0,,Wed Nov 05 2025 16:28:07 GMT-0600 (Central Standard Time),,NA,boos,I,s,224,1,,,8076,WL,C,1.0
prac,,0,,Wed Nov 05 2025 16:28:07 GMT-0600 (Central Standard Time),,NA,boost,I,t,103,1,,,8076,WL,C,1.0
prac,,0,,Wed Nov 05 2025 16:28:07 GMT-0600 (Central Standard Time),,NA,boostenter,I,enter,2018,1,,,8076,WL,C,1.0
1,0.75,learn,59250.0,Wed Nov 05 2025 16:28:07 GMT-0600 (Central Standard Time),152963.80000001192,A,b,I,b,742,1,749.4000000059605,152214.40000000596,8076,WL,C,1.0
1,0.8840000629425049,learn,59115.999937057495,Wed Nov 05 2025 16:28:07 GMT-0600 (Central Standard Time),153097.59999999404,A,bo,I,o,127,1,883.1999999880791,152214.40000000596,8076,WL,C,1.0
1,1.0160000324249268,learn,58983.99996757507,Wed Nov 05 2025 16:28:07 GMT-0600 (Central Standard Time),153230.5,A,bod,I,d,123,1,1016.0999999940395,152214.40000000596,8076,WL,C,1.0
1,1.1670000553131104,learn,58832.99994468689,Wed Nov 05 2025 16:28:07 GMT-0600 (Central Standard Time),153380.59999999404,A,body,I,y,133,1,1166.199999988079,152214.40000000596,8076,WL,C,1.0
1,1.5160000324249268,learn,58483.99996757507,Wed Nov 05 2025 16:28:07 GMT-0600 (Central Standard Time),153730.20000001788,A,bodyenter,I,enter,343,1,1515.800000011921,152214.40000000596,8076,WL,C,1.0
1,2.0329999923706055,learn,57967.000007629395,Wed Nov 05 2025 16:28:07 GMT-0600 (Central Standard Time),154246.90000000596,A,n,I,n,499,1,516.4000000059605,153730.5,8076,WL,C,2.0
1,2.1489999294281006,learn,57851.0000705719,Wed Nov 05 2025 16:28:07 GMT-0600 (Central Standard Time),154363.40000000596,A,na,I,a,108,1,632.9000000059605,153730.5,8076,WL,C,2.0
1,2.2660000324249268,learn,57733.99996757507,Wed Nov 05 2025 16:28:07 GMT-0600 (Central Standard Time),154480.40000000596,A,nai,I,i,105,1,749.9000000059605,153730.5,8076,WL,C,2.0
1,2.3329999446868896,learn,57667.00005531311,Wed Nov 05 2025 16:28:07 GMT-0600 (Central Standard Time),154546.80000001192,A,nail,I,l,59,1,816.3000000119209,153730.5,8076,WL,C,2.0
1,2.5989999771118164,learn,57401.00002288818,Wed Nov 05 2025 16:28:07 GMT-0600 (Central Standard Time),154813.30000001192,A,nailenter,I,enter,257,1,1082.800000011921,153730.5,8076,WL,C,2.0
1,2.933000087738037,learn,57066.99991226196,Wed Nov 05 2025 16:28:07 GMT-0600 (Central Standard Time),155146.59999999404,A,t,I,t,311,1,332.89999997615814,154813.70000001788,8076,WL,C,3.0
1,3.0329999923706055,learn,56967.000007629395,Wed Nov 05 2025 16:28:07 GMT-0600 (Central Standard Time),155246.59999999404,A,to,I,o,90,1,432.89999997615814,154813.70000001788,8076,WL,C,3.0
1,3.181999921798706,learn,56818.000078201294,Wed Nov 05 2025 16:28:07 GMT-0600 (Central Standard Time),155396.5,A,tow,I,w,133,1,582.7999999821186,154813.70000001788,8076,WL,C,3.0
1,3.2660000324249268,learn,56733.99996757507,Wed Nov 05 2025 16:28:07 GMT-0600 (Central Standard Time),155479.80000001192,A,towe,I,e,64,1,666.0999999940395,154813.70000001788,8076,WL,C,3.0
1,3.381999969482422,learn,56618.00003051758,Wed Nov 05 2025 16:28:07 GMT-0600 (Central Standard Time),155596.20000001788,A,tower,I,r,101,1,782.5,154813.70000001788,8076,WL,C,3.0
1,3.7319998741149902,learn,56268.00012588501,Wed Nov 05 2025 16:28:07 GMT-0600 (Central Standard Time),155946.20000001788,A,towerenter,I,enter,337,1,1132.5,154813.70000001788,8076,WL,C,3.0
1,4.5320000648498535,learn,55467.99993515015,Wed Nov 05 2025 16:28:07 GMT-0600 (Central Standard Time),156745.80000001192,A,s,I,s,794,1,799.3000000119209,155946.5,8076,WL,C,4.0
1,4.865000009536743,learn,55134.99999046326,Wed Nov 05 2025 16:28:07 GMT-0600 (Central Standard Time),157079.40000000596,A,su,I,u,322,1,1132.9000000059605,155946.5,8076,WL,C,4.0
1,5.115000009536743,learn,54884.99999046326,Wed Nov 05 2025 16:28:07 GMT-0600 (Central Standard Time),157329.20000001788,A,sug,I,g,229,1,1382.7000000178814,155946.5,8076,WL,C,4.0
1,5.23199987411499,learn,54768.00012588501,Wed Nov 05 2025 16:28:07 GMT-0600 (Central Standard Time),157446.0,A,suga,I,a,107,1,1499.5,155946.5,8076,WL,C,4.0
1,5.348999977111816,learn,54651.00002288818,Wed Nov 05 2025 16:28:07 GMT-0600 (Central Standard Time),157562.70000001788,A,sugar,I,r,102,1,1616.2000000178814,155946.5,8076,WL,C,4.0
1,5.565000057220459,learn,54434.99994277954,Wed Nov 05 2025 16:28:07 GMT-0600 (Central Standard Time),157779.09999999404,A,sugarenter,I,enter,210,1,1832.5999999940395,155946.5,8076,WL,C,4.0
1,5.747999906539917,learn,54252.00009346008,Wed Nov 05 2025 16:28:07 GMT-0600 (Central Standard Time),157962.20000001788,A,w,I,w,177,1,182.7000000178814,157779.5,8076,WL,C,5.0
1,6.0309998989105225,learn,53969.00010108948,Wed Nov 05 2025 16:28:07 GMT-0600 (Central Standard Time),158245.40000000596,A,wh,I,h,267,1,465.90000000596046,157779.5,8076,WL,C,5.0
1,6.2149999141693115,learn,53785.00008583069,Wed Nov 05 2025 16:28:07 GMT-0600 (Central Standard Time),158428.90000000596,A,whe,I,e,176,1,649.4000000059605,157779.5,8076,WL,C,5.0
1,6.331000089645386,learn,53668.999910354614,Wed Nov 05 2025 16:28:07 GMT-0600 (Central Standard Time),158545.30000001192,A,whea,I,a,103,1,765.8000000119209,157779.5,8076,WL,C,5.0
1,6.480999946594238,learn,53519.00005340576,Wed Nov 05 2025 16:28:07 GMT-0600 (Central Standard Time),158695.30000001192,A,wheat,I,t,140,1,915.8000000119209,157779.5,8076,WL,C,5.0
1,7.7149999141693115,learn,52285.00008583069,Wed Nov 05 2025 16:28:07 GMT-0600 (Central Standard Time),159928.70000001788,A,wheatenter,I,enter,1213,1,2149.2000000178814,157779.5,8076,WL,C,5.0
1,8.530999898910522,learn,51469.00010108948,Wed Nov 05 2025 16:28:07 GMT-0600 (Central Standard Time),160744.59999999404,A,b,I,b,796,1,815.6999999880791,159928.90000000596,8076,WL,C,6.0
1,8.63100004196167,learn,51368.99995803833,Wed Nov 05 2025 16:28:07 GMT-0600 (Central Standard Time),160844.70000001788,A,bo,I,o,92,1,915.8000000119209,159928.90000000596,8076,WL,C,6.0
1,8.813999891281128,learn,51186.00010871887,Wed Nov 05 2025 16:28:07 GMT-0600 (Central Standard Time),161028.0,A,boy,I,y,168,1,1099.0999999940395,159928.90000000596,8076,WL,C,6.0
1,9.164000034332275,learn,50835.999965667725,Wed Nov 05 2025 16:28:07 GMT-0600 (Central Standard Time),161377.80000001192,A,boyenter,I,enter,328,1,1448.9000000059605,159928.90000000596,8076,WL,C,6.0
1,9.629999876022339,learn,50370.00012397766,Wed Nov 05 2025 16:28:07 GMT-0600 (Central Standard Time),161844.20000001788,A,q,I,q,458,1,466.0,161378.20000001788,8076,WL,C,7.0
1,9.763999938964844,learn,50236.000061035156,Wed Nov 05 2025 16:28:07 GMT-0600 (Central Standard Time),161977.80000001192,A,qu,I,u,121,1,599.5999999940395,161378.20000001788,8076,WL,C,7.0
1,9.914000034332275,learn,50085.999965667725,Wed Nov 05 2025 16:28:07 GMT-0600 (Central Standard Time),162127.80000001192,A,que,I,e,137,1,749.5999999940395,161378.20000001788,8076,WL,C,7.0
1,10.079999923706055,learn,49920.000076293945,Wed Nov 05 2025 16:28:07 GMT-0600 (Central Standard Time),162294.30000001192,A,quee,I,e,149,1,916.0999999940395,161378.20000001788,8076,WL,C,7.0
1,10.180000066757202,learn,49819.9999332428,Wed Nov 05 2025 16:28:07 GMT-0600 (Central Standard Time),162394.20000001788,A,queen,I,n,95,1,1016.0,161378.20000001788,8076,WL,C,7.0
1,10.397000074386597,learn,49602.9999256134,Wed Nov 05 2025 16:28:07 GMT-0600 (Central Standard Time),162611.0,A,queenenter,I,enter,203,1,1232.7999999821186,161378.20000001788,8076,WL,C,7.0
1,10.77999997138977,learn,49220.00002861023,Wed Nov 05 2025 16:28:07 GMT-0600 (Central Standard Time),162994.0,A,c,I,c,362,1,382.59999999403954,162611.40000000596,8076,WL,C,8.0
1,10.879999876022339,learn,49120.00012397766,Wed Nov 05 2025 16:28:07 GMT-0600 (Central Standard Time),163094.0,A,ca,I,a,83,1,482.59999999403954,162611.40000000596,8076,WL,C,8.0
1,11.04699993133545,learn,48953.00006866455,Wed Nov 05 2025 16:28:07 GMT-0600 (Central Standard Time),163260.80000001192,A,cam,I,m,159,1,649.4000000059605,162611.40000000596,8076,WL,C,8.0
1,11.230000019073486,learn,48769.999980926514,Wed Nov 05 2025 16:28:07 GMT-0600 (Central Standard Time),163444.0,A,camp,I,p,167,1,832.5999999940395,162611.40000000596,8076,WL,C,8.0
1,11.61299991607666,learn,48387.00008392334,Wed Nov 05 2025 16:28:07 GMT-0600 (Central Standard Time),163827.30000001192,A,campenter,I,enter,370,1,1215.9000000059605,162611.40000000596,8076,WL,C,8.0
1,11.996000051498413,learn,48003.99994850159,Wed Nov 05 2025 16:28:07 GMT-0600 (Central Standard Time),164210.40000000596,A,d,I,d,369,1,382.80000001192093,163827.59999999404,8076,WL,C,9.0
1,12.079999923706055,learn,47920.000076293945,Wed Nov 05 2025 16:28:07 GMT-0600 (Central Standard Time),164293.80000001192,A,do,I,o,75,1,466.2000000178814,163827.59999999404,8076,WL,C,9.0
1,12.213000059127808,learn,47786.99994087219,Wed Nov 05 2025 16:28:07 GMT-0600 (Central Standard Time),164426.90000000596,A,doc,I,c,128,1,599.3000000119209,163827.59999999404,8076,WL,C,9.0
1,12.379999876022339,learn,47620.00012397766,Wed Nov 05 2025 16:28:07 GMT-0600 (Central Standard Time),164593.59999999404,A,doct,I,t,161,1,766.0,163827.59999999404,8076,WL,C,9.0
1,12.52999997138977,learn,47470.00002861023,Wed Nov 05 2025 16:28:07 GMT-0600 (Central Standard Time),164743.59999999404,A,docto,I,o,131,1,916.0,163827.59999999404,8076,WL,C,9.0
1,12.662999868392944,learn,47337.000131607056,Wed Nov 05 2025 16:28:07 GMT-0600 (Central Standard Time),164876.70000001788,A,doctor,I,r,125,1,1049.1000000238419,163827.59999999404,8076,WL,C,9.0
1,12.812999963760376,learn,47187.000036239624,Wed Nov 05 2025 16:28:07 GMT-0600 (Central Standard Time),165026.59999999404,A,doctorenter,I,enter,144,1,1199.0,163827.59999999404,8076,WL,C,9.0
1,13.095999956130981,learn,46904.00004386902,Wed Nov 05 2025 16:28:07 GMT-0600 (Central Standard Time),165310.0,A,h,I,h,267,1,283.09999999403954,165026.90000000596,8076,WL,C,10.0
1,13.229000091552734,learn,46770.999908447266,Wed Nov 05 2025 16:28:07 GMT-0600 (Central Standard Time),165443.40000000596,A,ho,I,o,126,1,416.5,165026.90000000596,8076,WL,C,10.0
1,13.378999948501587,learn,46621.00005149841,Wed Nov 05 2025 16:28:07 GMT-0600 (Central Standard Time),165593.30000001192,A,hom,I,m,129,1,566.4000000059605,165026.90000000596,8076,WL,C,10.0
1,13.562999963760376,learn,46437.000036239624,Wed Nov 05 2025 16:28:07 GMT-0600 (Central Standard Time),165776.70000001788,A,home,I,e,163,1,749.8000000119209,165026.90000000596,8076,WL,C,10.0
1,14.812000036239624,learn,45187.999963760376,Wed Nov 05 2025 16:28:07 GMT-0600 (Central Standard Time),167026.09999999404,A,homeenter,I,enter,1245,1,1999.199999988079,165026.90000000596,8076,WL,C,10.0
1,27.823999881744385,learn,32176.000118255615,Wed Nov 05 2025 16:28:07 GMT-0600 (Central Standard Time),180038.59999999404,A,l,I,l,12995,1,13012.199999988079,167026.40000000596,8076,WL,C,11.0
1,27.907999992370605,learn,32092.000007629395,Wed Nov 05 2025 16:28:07 GMT-0600 (Central Standard Time),180121.90000000596,A,le,I,e,71,1,13095.5,167026.40000000596,8076,WL,C,11.0
1,28.02500009536743,learn,31974.99990463257,Wed Nov 05 2025 16:28:07 GMT-0600 (Central Standard Time),180238.80000001192,A,let,I,t,108,1,13212.40000000596,167026.40000000596,8076,WL,C,11.0
1,28.20799994468689,learn,31792.00005531311,Wed Nov 05 2025 16:28:07 GMT-0600 (Central Standard Time),180421.90000000596,A,lett,I,t,174,1,13395.5,167026.40000000596,8076,WL,C,11.0
1,28.308000087738037,learn,31691.999912261963,Wed Nov 05 2025 16:28:07 GMT-0600 (Central Standard Time),180521.80000001192,A,lette,I,e,88,1,13495.40000000596,167026.40000000596,8076,WL,C,11.0
1,28.424000024795532,learn,31575.999975204468,Wed Nov 05 2025 16:28:07 GMT-0600 (Central Standard Time),180638.5,A,letter,I,r,107,1,13612.09999999404,167026.40000000596,8076,WL,C,11.0
1,29.323999881744385,learn,30676.000118255615,Wed Nov 05 2025 16:28:07 GMT-0600 (Central Standard Time),181538.09999999404,A,letterenter,I,enter,895,1,14511.699999988079,167026.40000000596,8076,WL,C,11.0
1,53.33299994468689,learn,6667.00005531311,Wed Nov 05 2025 16:28:07 GMT-0600 (Central Standard Time),205547.30000001192,A,c,I,c,23995,1,24008.80000001192,181538.5,8076,WL,C,12.0
1,53.48300004005432,learn,6516.999959945679,Wed Nov 05 2025 16:28:07 GMT-0600 (Central Standard Time),205697.40000000596,A,co,I,o,137,1,24158.90000000596,181538.5,8076,WL,C,12.0
1,53.65000009536743,learn,6349.999904632568,Wed Nov 05 2025 16:28:07 GMT-0600 (Central Standard Time),205864.20000001788,A,cor,I,r,148,1,24325.70000001788,181538.5,8076,WL,C,12.0
1,53.84999990463257,learn,6150.000095367432,Wed Nov 05 2025 16:28:07 GMT-0600 (Central Standard Time),206064.20000001788,A,corn,I,n,180,1,24525.70000001788,181538.5,8076,WL,C,12.0
1,54.25,learn,5750.0,Wed Nov 05 2025 16:28:07 GMT-0600 (Central Standard Time),206463.90000000596,A,cornenter,I,enter,388,1,24925.40000000596,181538.5,8076,WL,C,12.0
1,60.014999866485596,learn,-14.999866485595703,Wed Nov 05 2025 16:28:07 GMT-0600 (Central Standard Time),212228.90000000596,A,None,I,None,5761,1,5764.5999999940395,206464.30000001192,8076,WL,C,13.0
2,0.6659998893737793,learn,59334.00011062622,Wed Nov 05 2025 16:28:07 GMT-0600 (Central Standard Time),288804.7000000179,A,s,I,s,660,1,666.3000000119209,288138.40000000596,8076,WL,C,1.0
2,0.8329999446868896,learn,59167.00005531311,Wed Nov 05 2025 16:28:07 GMT-0600 (Central Standard Time),288971.40000000596,A,sh,I,h,159,1,833.0,288138.40000000596,8076,WL,C,1.0
2,0.9500000476837158,learn,59049.999952316284,Wed Nov 05 2025 16:28:07 GMT-0600 (Central Standard Time),289088.3000000119,A,sho,I,o,106,1,949.9000000059605,288138.40000000596,8076,WL,C,1.0
2,1.0829999446868896,learn,58917.00005531311,Wed Nov 05 2025 16:28:07 GMT-0600 (Central Standard Time),289221.5,A,shoa,I,a,117,1,1083.0999999940395,288138.40000000596,8076,WL,C,1.0
2,1.2829999923706055,learn,58717.000007629395,Wed Nov 05 2025 16:28:07 GMT-0600 (Central Standard Time),289421.09999999404,A,shoar,I,r,184,1,1282.699999988079,288138.40000000596,8076,WL,C,1.0
2,1.4170000553131104,learn,58582.99994468689,Wed Nov 05 2025 16:28:07 GMT-0600 (Central Standard Time),289555.5,A,shoare,I,e,127,1,1417.0999999940395,288138.40000000596,8076,WL,C,1.0
2,1.8329999446868896,learn,58167.00005531311,Wed Nov 05 2025 16:28:07 GMT-0600 (Central Standard Time),289970.8000000119,A,shoar,I,backspace,410,1,1832.4000000059605,288138.40000000596,8076,WL,C,1.0
2,2.0160000324249268,learn,57983.99996757507,Wed Nov 05 2025 16:28:07 GMT-0600 (Central Standard Time),290154.40000000596,A,shoa,I,backspace,170,1,2016.0,288138.40000000596,8076,WL,C,1.0
2,2.182999849319458,learn,57817.00015068054,Wed Nov 05 2025 16:28:07 GMT-0600 (Central Standard Time),290321.09999999404,A,sho,I,backspace,146,1,2182.699999988079,288138.40000000596,8076,WL,C,1.0
2,2.4659998416900635,learn,57534.00015830994,Wed Nov 05 2025 16:28:07 GMT-0600 (Central Standard Time),290604.3000000119,A,shor,I,r,276,1,2465.9000000059605,288138.40000000596,8076,WL,C,1.0
2,2.565999984741211,learn,57434.00001525879,Wed Nov 05 2025 16:28:07 GMT-0600 (Central Standard Time),290704.40000000596,A,shore,I,e,89,1,2566.0,288138.40000000596,8076,WL,C,1.0
2,2.7990000247955322,learn,57200.99997520447,Wed Nov 05 2025 16:28:07 GMT-0600 (Central Standard Time),290937.3000000119,A,shoreenter,I,enter,221,1,2798.9000000059605,288138.40000000596,8076,WL,C,1.0
2,3.2990000247955322,learn,56700.99997520447,Wed Nov 05 2025 16:28:07 GMT-0600 (Central Standard Time),291437.40000000596,A,b,I,b,492,1,499.80000001192093,290937.59999999404,8076,WL,C,2.0
2,3.4159998893737793,learn,56584.00011062622,Wed Nov 05 2025 16:28:07 GMT-0600 (Central Standard Time),291553.90000000596,A,bo,I,o,95,1,616.3000000119209,290937.59999999404,8076,WL,C,2.0
2,3.7990000247955322,learn,56200.99997520447,Wed Nov 05 2025 16:28:07 GMT-0600 (Central Standard Time),291937.0,A,bod,I,d,363,1,999.4000000059605,290937.59999999404,8076,WL,C,2.0
2,4.049000024795532,learn,55950.99997520447,Wed Nov 05 2025 16:28:07 GMT-0600 (Central Standard Time),292187.09999999404,A,body,I,y,237,1,1249.5,290937.59999999404,8076,WL,C,2.0
2,4.497999906539917,learn,55502.00009346008,Wed Nov 05 2025 16:28:07 GMT-0600 (Central Standard Time),292636.5,A,bodyenter,I,enter,434,1,1698.9000000059605,290937.59999999404,8076,WL,C,2.0
2,5.297999858856201,learn,54702.0001411438,Wed Nov 05 2025 16:28:07 GMT-0600 (Central Standard Time),293436.5,A,n,I,n,793,1,799.6999999880791,292636.8000000119,8076,WL,C,3.0
2,5.447999954223633,learn,54552.00004577637,Wed Nov 05 2025 16:28:07 GMT-0600 (Central Standard Time),293586.40000000596,A,na,I,a,136,1,949.5999999940395,292636.8000000119,8076,WL,C,3.0
2,5.615000009536743,learn,54384.99999046326,Wed Nov 05 2025 16:28:07 GMT-0600 (Central Standard Time),293753.0,A,nai,I,i,146,1,1116.199999988079,292636.8000000119,8076,WL,C,3.0
2,5.865000009536743,learn,54134.99999046326,Wed Nov 05 2025 16:28:07 GMT-0600 (Central Standard Time),294003.0,A,nail,I,l,244,1,1366.199999988079,292636.8000000119,8076,WL,C,3.0
2,6.398000001907349,learn,53601.99999809265,Wed Nov 05 2025 16:28:07 GMT-0600 (Central Standard Time),294536.09999999404,A,nailenter,I,enter,522,1,1899.2999999821186,292636.8000000119,8076,WL,C,3.0
2,6.730999946594238,learn,53269.00005340576,Wed Nov 05 2025 16:28:07 GMT-0600 (Central Standard Time),294869.40000000596,A,h,I,h,325,1,333.09999999403954,294536.3000000119,8076,WL,C,4.0
2,6.88100004196167,learn,53118.99995803833,Wed Nov 05 2025 16:28:07 GMT-0600 (Central Standard Time),295019.3000000119,A,ho,I,o,144,1,483.0,294536.3000000119,8076,WL,C,4.0
2,7.0309998989105225,learn,52969.00010108948,Wed Nov 05 2025 16:28:07 GMT-0600 (Central Standard Time),295169.3000000119,A,hom,I,m,129,1,633.0,294536.3000000119,8076,WL,C,4.0
2,7.2149999141693115,learn,52785.00008583069,Wed Nov 05 2025 16:28:07 GMT-0600 (Central Standard Time),295352.8000000119,A,home,I,e,172,1,816.5,294536.3000000119,8076,WL,C,4.0
2,7.547999858856201,learn,52452.0001411438,Wed Nov 05 2025 16:28:07 GMT-0600 (Central Standard Time),295686.09999999404,A,homeenter,I,enter,317,1,1149.7999999821186,294536.3000000119,8076,WL,C,4.0
2,7.914000034332275,learn,52085.999965667725,Wed Nov 05 2025 16:28:07 GMT-0600 (Central Standard Time),296052.5,A,b,I,b,360,1,366.09999999403954,295686.40000000596,8076,WL,C,5.0
2,8.04699993133545,learn,51953.00006866455,Wed Nov 05 2025 16:28:07 GMT-0600 (Central Standard Time),296185.7000000179,A,bo,I,o,120,1,499.30000001192093,295686.40000000596,8076,WL,C,5.0
2,8.21399998664856,learn,51786.00001335144,Wed Nov 05 2025 16:28:07 GMT-0600 (Central Standard Time),296352.2000000179,A,boy,I,y,147,1,665.8000000119209,295686.40000000596,8076,WL,C,5.0
2,9.04699993133545,learn,50953.00006866455,Wed Nov 05 2025 16:28:07 GMT-0600 (Central Standard Time),297185.3000000119,A,boyc,I,c,828,1,1498.9000000059605,295686.40000000596,8076,WL,C,5.0
2,9.11299991607666,learn,50887.00008392334,Wed Nov 05 2025 16:28:07 GMT-0600 (Central Standard Time),297251.7000000179,A,boyca,I,a,59,1,1565.300000011921,295686.40000000596,8076,WL,C,5.0
2,9.647000074386597,learn,50352.9999256134,Wed Nov 05 2025 16:28:07 GMT-0600 (Central Standard Time),297785.40000000596,A,boyc,I,backspace,521,1,2099.0,295686.40000000596,8076,WL,C,5.0
2,9.79699993133545,learn,50203.00006866455,Wed Nov 05 2025 16:28:07 GMT-0600 (Central Standard Time),297935.5,A,boy,I,backspace,140,1,2249.0999999940395,295686.40000000596,8076,WL,C,5.0
2,10.062999963760376,learn,49937.000036239624,Wed Nov 05 2025 16:28:07 GMT-0600 (Central Standard Time),298201.8000000119,A,boyenter,I,enter,262,1,2515.4000000059605,295686.40000000596,8076,WL,C,5.0
2,10.412999868392944,learn,49587.000131607056,Wed Nov 05 2025 16:28:07 GMT-0600 (Central Standard Time),298551.7000000179,A,c,I,c,339,1,349.7000000178814,298202.0,8076,WL,C,6.0
2,10.496000051498413,learn,49503.99994850159,Wed Nov 05 2025 16:28:07 GMT-0600 (Central Standard Time),298634.8000000119,A,ca,I,a,77,1,432.80000001192093,298202.0,8076,WL,C,6.0
2,10.645999908447266,learn,49354.000091552734,Wed Nov 05 2025 16:28:07 GMT-0600 (Central Standard Time),298784.8000000119,A,cam,I,m,139,1,582.8000000119209,298202.0,8076,WL,C,6.0
2,10.746999979019165,learn,49253.000020980835,Wed Nov 05 2025 16:28:07 GMT-0600 (Central Standard Time),298884.90000000596,A,camp,I,p,85,1,682.9000000059605,298202.0,8076,WL,C,6.0
2,11.19599986076355,learn,48804.00013923645,Wed Nov 05 2025 16:28:07 GMT-0600 (Central Standard Time),299334.8000000119,A,campenter,I,enter,431,1,1132.800000011921,298202.0,8076,WL,C,6.0
2,11.961999893188477,learn,48038.00010681152,Wed Nov 05 2025 16:28:07 GMT-0600 (Central Standard Time),300100.90000000596,A,d,I,d,751,1,765.6999999880791,299335.2000000179,8076,WL,C,7.0
2,12.11299991607666,learn,47887.00008392334,Wed Nov 05 2025 16:28:07 GMT-0600 (Central Standard Time),300250.90000000596,A,do,I,o,136,1,915.6999999880791,299335.2000000179,8076,WL,C,7.0
2,12.228999853134155,learn,47771.000146865845,Wed Nov 05 2025 16:28:07 GMT-0600 (Central Standard Time),300367.90000000596,A,doc,I,c,105,1,1032.699999988079,299335.2000000179,8076,WL,C,7.0
2,12.461999893188477,learn,47538.00010681152,Wed Nov 05 2025 16:28:07 GMT-0600 (Central Standard Time),300600.7000000179,A,doct,I,t,222,1,1265.5,299335.2000000179,8076,WL,C,7.0
2,12.61299991607666,learn,47387.00008392334,Wed Nov 05 2025 16:28:07 GMT-0600 (Central Standard Time),300751.0,A,docto,I,o,133,1,1415.7999999821186,299335.2000000179,8076,WL,C,7.0
2,12.858999967575073,learn,47141.00003242493,Wed Nov 05 2025 16:28:07 GMT-0600 (Central Standard Time),300997.5,A,doctor,I,r,242,1,1662.2999999821186,299335.2000000179,8076,WL,C,7.0
2,13.779000043869019,learn,46220.99995613098,Wed Nov 05 2025 16:28:07 GMT-0600 (Central Standard Time),301917.40000000596,A,doctorenter,I,enter,910,1,2582.199999988079,299335.2000000179,8076,WL,C,7.0
2,14.394999980926514,learn,45605.000019073486,Wed Nov 05 2025 16:28:07 GMT-0600 (Central Standard Time),302533.90000000596,A,l,I,l,607,1,616.1999999880791,301917.7000000179,8076,WL,C,8.0
2,14.478999853134155,learn,45521.000146865845,Wed Nov 05 2025 16:28:07 GMT-0600 (Central Standard Time),302617.09999999404,A,le,I,e,71,1,699.3999999761581,301917.7000000179,8076,WL,C,8.0
2,14.578999996185303,learn,45421.0000038147,Wed Nov 05 2025 16:28:07 GMT-0600 (Central Standard Time),302717.09999999404,A,let,I,t,84,1,799.3999999761581,301917.7000000179,8076,WL,C,8.0
2,14.727999925613403,learn,45272.0000743866,Wed Nov 05 2025 16:28:07 GMT-0600 (Central Standard Time),302866.8000000119,A,lett,I,t,144,1,949.0999999940395,301917.7000000179,8076,WL,C,8.0
2,14.878999948501587,learn,45121.00005149841,Wed Nov 05 2025 16:28:07 GMT-0600 (Central Standard Time),303017.09999999404,A,lette,I,e,130,1,1099.3999999761581,301917.7000000179,8076,WL,C,8.0
2,14.961999893188477,learn,45038.00010681152,Wed Nov 05 2025 16:28:07 GMT-0600 (Central Standard Time),303100.3000000119,A,letter,I,r,67,1,1182.5999999940395,301917.7000000179,8076,WL,C,8.0
2,15.312000036239624,learn,44687.999963760376,Wed Nov 05 2025 16:28:07 GMT-0600 (Central Standard Time),303450.09999999404,A,letterenter,I,enter,329,1,1532.3999999761581,301917.7000000179,8076,WL,C,8.0
2,15.861000061035156,learn,44138.999938964844,Wed Nov 05 2025 16:28:07 GMT-0600 (Central Standard Time),303999.59999999404,A,f,I,f,531,1,549.0999999940395,303450.5,8076,WL,C,9.0
2,16.01099991798401,learn,43989.00008201599,Wed Nov 05 2025 16:28:07 GMT-0600 (Central Standard Time),304149.59999999404,A,fl,I,l,141,1,699.0999999940395,303450.5,8076,WL,C,9.0
2,16.07800006866455,learn,43921.99993133545,Wed Nov 05 2025 16:28:07 GMT-0600 (Central Standard Time),304216.90000000596,A,fla,I,a,55,1,766.4000000059605,303450.5,8076,WL,C,9.0
2,16.277999877929688,learn,43722.00012207031,Wed Nov 05 2025 16:28:07 GMT-0600 (Central Standard Time),304416.3000000119,A,flag,I,g,180,1,965.8000000119209,303450.5,8076,WL,C,9.0
2,16.51199984550476,learn,43488.00015449524,Wed Nov 05 2025 16:28:07 GMT-0600 (Central Standard Time),304649.90000000596,A,flagenter,I,enter,221,1,1199.4000000059605,303450.5,8076,WL,C,9.0
2,16.944999933242798,learn,43055.0000667572,Wed Nov 05 2025 16:28:07 GMT-0600 (Central Standard Time),305083.09999999404,A,q,I,q,426,1,432.89999997615814,304650.2000000179,8076,WL,C,10.0
2,17.07800006866455,learn,42921.99993133545,Wed Nov 05 2025 16:28:07 GMT-0600 (Central Standard Time),305216.2000000179,A,qu,I,u,121,1,566.0,304650.2000000179,8076,WL,C,10.0
2,17.227999925613403,learn,42772.0000743866,Wed Nov 05 2025 16:28:07 GMT-0600 (Central Standard Time),305366.40000000596,A,que,I,e,133,1,716.1999999880791,304650.2000000179,8076,WL,C,10.0
2,17.378000020980835,learn,42621.999979019165,Wed Nov 05 2025 16:28:07 GMT-0600 (Central Standard Time),305516.2000000179,A,quee,I,e,143,1,866.0,304650.2000000179,8076,WL,C,10.0
2,17.560999870300293,learn,42439.00012969971,Wed Nov 05 2025 16:28:07 GMT-0600 (Central Standard Time),305699.5,A,queen,I,n,168,1,1049.2999999821186,304650.2000000179,8076,WL,C,10.0
2,19.677000045776367,learn,40322.99995422363,Wed Nov 05 2025 16:28:07 GMT-0600 (Central Standard Time),307815.59999999404,A,queenenter,I,enter,2098,1,3165.399999976158,304650.2000000179,8076,WL,C,10.0
2,20.026999950408936,learn,39973.000049591064,Wed Nov 05 2025 16:28:07 GMT-0600 (Central Standard Time),308165.3000000119,A,w,I,w,333,1,349.40000000596046,307815.90000000596,8076,WL,C,11.0
2,20.14400005340576,learn,39855.99994659424,Wed Nov 05 2025 16:28:07 GMT-0600 (Central Standard Time),308282.0,A,wh,I,h,96,1,466.09999999403954,307815.90000000596,8076,WL,C,11.0
2,20.30999994277954,learn,39690.00005722046,Wed Nov 05 2025 16:28:07 GMT-0600 (Central Standard Time),308448.59999999404,A,whe,I,e,147,1,632.6999999880791,307815.90000000596,8076,WL,C,11.0
2,20.376999855041504,learn,39623.000144958496,Wed Nov 05 2025 16:28:07 GMT-0600 (Central Standard Time),308515.2000000179,A,whea,I,a,60,1,699.3000000119209,307815.90000000596,8076,WL,C,11.0
2,20.493000030517578,learn,39506.99996948242,Wed Nov 05 2025 16:28:07 GMT-0600 (Central Standard Time),308631.90000000596,A,wheat,I,t,97,1,816.0,307815.90000000596,8076,WL,C,11.0
2,21.05999994277954,learn,38940.00005722046,Wed Nov 05 2025 16:28:07 GMT-0600 (Central Standard Time),309198.3000000119,A,wheatenter,I,enter,548,1,1382.4000000059605,307815.90000000596,8076,WL,C,11.0
2,21.427000045776367,learn,38572.99995422363,Wed Nov 05 2025 16:28:07 GMT-0600 (Central Standard Time),309565.0,A,t,I,t,359,1,366.40000000596046,309198.59999999404,8076,WL,C,12.0
2,21.526000022888184,learn,38473.99997711182,Wed Nov 05 2025 16:28:07 GMT-0600 (Central Standard Time),309664.8000000119,A,to,I,o,88,1,466.2000000178814,309198.59999999404,8076,WL,C,12.0
2,21.677000045776367,learn,38322.99995422363,Wed Nov 05 2025 16:28:07 GMT-0600 (Central Standard Time),309814.90000000596,A,tow,I,w,133,1,616.3000000119209,309198.59999999404,8076,WL,C,12.0
2,21.7260000705719,learn,38273.9999294281,Wed Nov 05 2025 16:28:07 GMT-0600 (Central Standard Time),309864.59999999404,A,towe,I,e,29,1,666.0,309198.59999999404,8076,WL,C,12.0
2,21.82699990272522,learn,38173.00009727478,Wed Nov 05 2025 16:28:07 GMT-0600 (Central Standard Time),309965.09999999404,A,tower,I,r,85,1,766.5,309198.59999999404,8076,WL,C,12.0
2,22.092999935150146,learn,37907.00006484985,Wed Nov 05 2025 16:28:07 GMT-0600 (Central Standard Time),310231.40000000596,A,towerenter,I,enter,247,1,1032.800000011921,309198.59999999404,8076,WL,C,12.0
2,22.30999994277954,learn,37690.00005722046,Wed Nov 05 2025 16:28:07 GMT-0600 (Central Standard Time),310447.90000000596,A,s,I,s,197,1,216.09999999403954,310231.8000000119,8076,WL,C,13.0
2,22.493000030517578,learn,37506.99996948242,Wed Nov 05 2025 16:28:07 GMT-0600 (Central Standard Time),310631.3000000119,A,su,I,u,173,1,399.5,310231.8000000119,8076,WL,C,13.0
2,22.575999975204468,learn,37424.00002479553,Wed Nov 05 2025 16:28:07 GMT-0600 (Central Standard Time),310714.7000000179,A,sug,I,g,70,1,482.90000000596046,310231.8000000119,8076,WL,C,13.0
2,22.7260000705719,learn,37273.9999294281,Wed Nov 05 2025 16:28:07 GMT-0600 (Central Standard Time),310864.40000000596,A,suga,I,a,130,1,632.5999999940395,310231.8000000119,8076,WL,C,13.0
2,22.859999895095825,learn,37140.000104904175,Wed Nov 05 2025 16:28:07 GMT-0600 (Central Standard Time),310997.90000000596,A,sugar,I,r,123,1,766.0999999940395,310231.8000000119,8076,WL,C,13.0
2,23.259000062942505,learn,36740.999937057495,Wed Nov 05 2025 16:28:07 GMT-0600 (Central Standard Time),311397.8000000119,A,sugarenter,I,enter,384,1,1166.0,310231.8000000119,8076,WL,C,13.0
2,33.43899989128113,learn,26561.000108718872,Wed Nov 05 2025 16:28:07 GMT-0600 (Central Standard Time),321577.5,A,enter,I,enter,10160,1,10179.299999982119,311398.2000000179,8076,WL,C,14.0
2,34.638999938964844,learn,25361.000061035156,Wed Nov 05 2025 16:28:07 GMT-0600 (Central Standard Time),322777.5,A,enter,I,enter,1187,1,1199.5999999940395,321577.90000000596,8076,WL,C,15.0
3,0.8659999370574951,learn,59134.000062942505,Wed Nov 05 2025 16:28:07 GMT-0600 (Central Standard Time),392105.8000000119,A,s,I,s,855,1,866.0999999940395,391239.7000000179,8076,WL,C,1.0
3,0.9659998416900635,learn,59034.00015830994,Wed Nov 05 2025 16:28:07 GMT-0600 (Central Standard Time),392205.7000000179,A,sh,I,h,83,1,966.0,391239.7000000179,8076,WL,C,1.0
3,1.0329999923706055,learn,58967.000007629395,Wed Nov 05 2025 16:28:07 GMT-0600 (Central Standard Time),392272.59999999404,A,sho,I,o,55,1,1032.8999999761581,391239.7000000179,8076,WL,C,1.0
3,1.2159998416900635,learn,58784.00015830994,Wed Nov 05 2025 16:28:07 GMT-0600 (Central Standard Time),392455.40000000596,A,shor,I,r,164,1,1215.699999988079,391239.7000000179,8076,WL,C,1.0
3,1.2829999923706055,learn,58717.000007629395,Wed Nov 05 2025 16:28:07 GMT-0600 (Central Standard Time),392522.40000000596,A,shore,I,e,46,1,1282.699999988079,391239.7000000179,8076,WL,C,1.0
3,1.6489999294281006,learn,58351.0000705719,Wed Nov 05 2025 16:28:07 GMT-0600 (Central Standard Time),392888.90000000596,A,shoreenter,I,enter,355,1,1649.199999988079,391239.7000000179,8076,WL,C,1.0
3,2.048999786376953,learn,57951.00021362305,Wed Nov 05 2025 16:28:07 GMT-0600 (Central Standard Time),393289.0,A,b,I,b,388,1,399.7999999821186,392889.2000000179,8076,WL,C,2.0
3,2.1659998893737793,learn,57834.00011062622,Wed Nov 05 2025 16:28:07 GMT-0600 (Central Standard Time),393405.3000000119,A,bo,I,o,100,1,516.0999999940395,392889.2000000179,8076,WL,C,2.0
3,2.298999786376953,learn,57701.00021362305,Wed Nov 05 2025 16:28:07 GMT-0600 (Central Standard Time),393538.7000000179,A,bod,I,d,120,1,649.5,392889.2000000179,8076,WL,C,2.0
3,2.4159998893737793,learn,57584.00011062622,Wed Nov 05 2025 16:28:07 GMT-0600 (Central Standard Time),393655.40000000596,A,body,I,y,99,1,766.1999999880791,392889.2000000179,8076,WL,C,2.0
3,2.6659998893737793,learn,57334.00011062622,Wed Nov 05 2025 16:28:07 GMT-0600 (Central Standard Time),393905.3000000119,A,bodyenter,I,enter,237,1,1016.0999999940395,392889.2000000179,8076,WL,C,2.0
3,2.9659998416900635,learn,57034.00015830994,Wed Nov 05 2025 16:28:07 GMT-0600 (Central Standard Time),394205.2000000179,A,c,I,c,292,1,299.5,393905.7000000179,8076,WL,C,3.0
3,3.0989999771118164,learn,56901.00002288818,Wed Nov 05 2025 16:28:07 GMT-0600 (Central Standard Time),394338.59999999404,A,ca,I,a,120,1,432.89999997615814,393905.7000000179,8076,WL,C,3.0
3,3.248999834060669,learn,56751.00016593933,Wed Nov 05 2025 16:28:07 GMT-0600 (Central Standard Time),394488.40000000596,A,cat,I,t,130,1,582.6999999880791,393905.7000000179,8076,WL,C,3.0
3,3.3989999294281006,learn,56601.0000705719,Wed Nov 05 2025 16:28:07 GMT-0600 (Central Standard Time),394638.2000000179,A,catt,I,t,141,1,732.5,393905.7000000179,8076,WL,C,3.0
3,3.4819998741149902,learn,56518.00012588501,Wed Nov 05 2025 16:28:07 GMT-0600 (Central Standard Time),394721.40000000596,A,cattl,I,l,78,1,815.6999999880791,393905.7000000179,8076,WL,C,3.0
3,3.631999969482422,learn,56368.00003051758,Wed Nov 05 2025 16:28:07 GMT-0600 (Central Standard Time),394871.5,A,cattle,I,e,141,1,965.7999999821186,393905.7000000179,8076,WL,C,3.0
3,3.798999786376953,learn,56201.00021362305,Wed Nov 05 2025 16:28:07 GMT-0600 (Central Standard Time),395038.3000000119,A,cattleenter,I,enter,158,1,1132.5999999940395,393905.7000000179,8076,WL,C,3.0
3,4.1579999923706055,learn,55842.000007629395,Wed Nov 05 2025 16:28:07 GMT-0600 (Central Standard Time),395397.7000000179,A,c,I,c,355,1,359.0,395038.7000000179,8076,WL,C,4.0
3,4.265999794006348,learn,55734.00020599365,Wed Nov 05 2025 16:28:07 GMT-0600 (Central Standard Time),395505.0,A,co,I,o,94,1,466.2999999821186,395038.7000000179,8076,WL,C,4.0
3,4.364999771118164,learn,55635.000228881836,Wed Nov 05 2025 16:28:07 GMT-0600 (Central Standard Time),395604.59999999404,A,cor,I,r,92,1,565.8999999761581,395038.7000000179,8076,WL,C,4.0
3,4.531999826431274,learn,55468.000173568726,Wed Nov 05 2025 16:28:07 GMT-0600 (Central Standard Time),395771.40000000596,A,corn,I,n,160,1,732.6999999880791,395038.7000000179,8076,WL,C,4.0
3,4.847999811172485,learn,55152.000188827515,Wed Nov 05 2025 16:28:07 GMT-0600 (Central Standard Time),396087.8000000119,A,cornenter,I,enter,306,1,1049.0999999940395,395038.7000000179,8076,WL,C,4.0
3,6.347999811172485,learn,53652.000188827515,Wed Nov 05 2025 16:28:07 GMT-0600 (Central Standard Time),397587.7000000179,A,f,I,f,1485,1,1499.300000011921,396088.40000000596,8076,WL,C,5.0
3,6.4649999141693115,learn,53535.00008583069,Wed Nov 05 2025 16:28:07 GMT-0600 (Central Standard Time),397704.2000000179,A,fl,I,l,106,1,1615.800000011921,396088.40000000596,8076,WL,C,5.0
3,6.563999891281128,learn,53436.00010871887,Wed Nov 05 2025 16:28:07 GMT-0600 (Central Standard Time),397803.59999999404,A,fla,I,a,85,1,1715.199999988079,396088.40000000596,8076,WL,C,5.0
3,6.797999858856201,learn,53202.0001411438,Wed Nov 05 2025 16:28:07 GMT-0600 (Central Standard Time),398037.2000000179,A,flag,I,g,218,1,1948.800000011921,396088.40000000596,8076,WL,C,5.0
3,6.980999946594238,learn,53019.00005340576,Wed Nov 05 2025 16:28:07 GMT-0600 (Central Standard Time),398220.59999999404,A,flagenter,I,enter,167,1,2132.199999988079,396088.40000000596,8076,WL,C,5.0
3,7.346999883651733,learn,52653.00011634827,Wed Nov 05 2025 16:28:07 GMT-0600 (Central Standard Time),398586.7000000179,A,l,I,l,361,1,365.7000000178814,398221.0,8076,WL,C,6.0
3,7.413999795913696,learn,52586.000204086304,Wed Nov 05 2025 16:28:07 GMT-0600 (Central Standard Time),398653.8000000119,A,le,I,e,59,1,432.80000001192093,398221.0,8076,WL,C,6.0
3,7.513999938964844,learn,52486.000061035156,Wed Nov 05 2025 16:28:07 GMT-0600 (Central Standard Time),398753.59999999404,A,let,I,t,95,1,532.5999999940395,398221.0,8076,WL,C,6.0
3,7.680999994277954,learn,52319.000005722046,Wed Nov 05 2025 16:28:07 GMT-0600 (Central Standard Time),398920.5,A,lett,I,t,147,1,699.5,398221.0,8076,WL,C,6.0
3,7.763999938964844,learn,52236.000061035156,Wed Nov 05 2025 16:28:07 GMT-0600 (Central Standard Time),399003.5,A,lette,I,e,77,1,782.5,398221.0,8076,WL,C,6.0
3,7.863999843597412,learn,52136.00015640259,Wed Nov 05 2025 16:28:07 GMT-0600 (Central Standard Time),399103.59999999404,A,letter,I,r,82,1,882.5999999940395,398221.0,8076,WL,C,6.0
3,7.96399998664856,learn,52036.00001335144,Wed Nov 05 2025 16:28:07 GMT-0600 (Central Standard Time),399203.5,A,letterenter,I,enter,94,1,982.5,398221.0,8076,WL,C,6.0
3,8.313999891281128,learn,51686.00010871887,Wed Nov 05 2025 16:28:07 GMT-0600 (Central Standard Time),399553.5,A,n,I,n,337,1,349.69999998807907,399203.8000000119,8076,WL,C,7.0
3,8.446999788284302,learn,51553.0002117157,Wed Nov 05 2025 16:28:07 GMT-0600 (Central Standard Time),399686.90000000596,A,na,I,a,115,1,483.09999999403954,399203.8000000119,8076,WL,C,7.0
3,8.563999891281128,learn,51436.00010871887,Wed Nov 05 2025 16:28:07 GMT-0600 (Central Standard Time),399803.5,A,nai,I,i,103,1,599.6999999880791,399203.8000000119,8076,WL,C,7.0
3,8.663999795913696,learn,51336.000204086304,Wed Nov 05 2025 16:28:07 GMT-0600 (Central Standard Time),399903.40000000596,A,nail,I,l,90,1,699.5999999940395,399203.8000000119,8076,WL,C,7.0
3,8.946999788284302,learn,51053.0002117157,Wed Nov 05 2025 16:28:07 GMT-0600 (Central Standard Time),400186.59999999404,A,nailenter,I,enter,262,1,982.7999999821186,399203.8000000119,8076,WL,C,7.0
3,10.346999883651733,learn,49653.00011634827,Wed Nov 05 2025 16:28:07 GMT-0600 (Central Standard Time),401586.40000000596,A,h,I,h,1387,1,1399.5999999940395,400186.8000000119,8076,WL,C,8.0
3,11.69599986076355,learn,48304.00013923645,Wed Nov 05 2025 16:28:07 GMT-0600 (Central Standard Time),402935.7000000179,A,ho,I,o,1331,1,2748.9000000059605,400186.8000000119,8076,WL,C,8.0
3,11.895999908447266,learn,48104.000091552734,Wed Nov 05 2025 16:28:07 GMT-0600 (Central Standard Time),403135.59999999404,A,hom,I,m,180,1,2948.7999999821186,400186.8000000119,8076,WL,C,8.0
3,12.128999948501587,learn,47871.00005149841,Wed Nov 05 2025 16:28:07 GMT-0600 (Central Standard Time),403368.90000000596,A,home,I,e,213,1,3182.0999999940395,400186.8000000119,8076,WL,C,8.0
3,12.712999820709229,learn,47287.00017929077,Wed Nov 05 2025 16:28:07 GMT-0600 (Central Standard Time),403952.0,A,homeenter,I,enter,571,1,3765.199999988079,400186.8000000119,8076,WL,C,8.0
3,13.078999996185303,learn,46921.0000038147,Wed Nov 05 2025 16:28:07 GMT-0600 (Central Standard Time),404318.7000000179,A,b,I,b,358,1,366.40000000596046,403952.3000000119,8076,WL,C,9.0
3,13.262999773025513,learn,46737.00022697449,Wed Nov 05 2025 16:28:07 GMT-0600 (Central Standard Time),404502.2000000179,A,bo,I,o,167,1,549.9000000059605,403952.3000000119,8076,WL,C,9.0
3,13.411999940872192,learn,46588.00005912781,Wed Nov 05 2025 16:28:07 GMT-0600 (Central Standard Time),404651.7000000179,A,boy,I,y,135,1,699.4000000059605,403952.3000000119,8076,WL,C,9.0
3,13.69599986076355,learn,46304.00013923645,Wed Nov 05 2025 16:28:07 GMT-0600 (Central Standard Time),404935.2000000179,A,boyenter,I,enter,266,1,982.9000000059605,403952.3000000119,8076,WL,C,9.0
3,14.02899980545044,learn,45971.00019454956,Wed Nov 05 2025 16:28:07 GMT-0600 (Central Standard Time),405268.40000000596,A,c,I,c,326,1,332.69999998807907,404935.7000000179,8076,WL,C,10.0
3,14.128999948501587,learn,45871.00005149841,Wed Nov 05 2025 16:28:07 GMT-0600 (Central Standard Time),405368.0,A,ca,I,a,89,1,432.2999999821186,404935.7000000179,8076,WL,C,10.0
3,14.244999885559082,learn,45755.00011444092,Wed Nov 05 2025 16:28:07 GMT-0600 (Central Standard Time),405484.90000000596,A,cam,I,m,101,1,549.1999999880791,404935.7000000179,8076,WL,C,10.0
3,14.313999891281128,learn,45686.00010871887,Wed Nov 05 2025 16:28:07 GMT-0600 (Central Standard Time),405553.09999999404,A,camp,I,p,56,1,617.3999999761581,404935.7000000179,8076,WL,C,10.0
3,14.628999948501587,learn,45371.00005149841,Wed Nov 05 2025 16:28:07 GMT-0600 (Central Standard Time),405868.2000000179,A,campenter,I,enter,300,1,932.5,404935.7000000179,8076,WL,C,10.0
3,14.877999782562256,learn,45122.000217437744,Wed Nov 05 2025 16:28:07 GMT-0600 (Central Standard Time),406117.90000000596,A,d,I,d,240,1,249.19999998807907,405868.7000000179,8076,WL,C,11.0
3,14.994999885559082,learn,45005.00011444092,Wed Nov 05 2025 16:28:07 GMT-0600 (Central Standard Time),406234.59999999404,A,do,I,o,96,1,365.89999997615814,405868.7000000179,8076,WL,C,11.0
3,15.09499979019165,learn,44905.00020980835,Wed Nov 05 2025 16:28:07 GMT-0600 (Central Standard Time),406334.59999999404,A,doc,I,c,83,1,465.89999997615814,405868.7000000179,8076,WL,C,11.0
3,15.26199984550476,learn,44738.00015449524,Wed Nov 05 2025 16:28:07 GMT-0600 (Central Standard Time),406501.09999999404,A,doct,I,t,151,1,632.3999999761581,405868.7000000179,8076,WL,C,11.0
3,15.378999948501587,learn,44621.00005149841,Wed Nov 05 2025 16:28:07 GMT-0600 (Central Standard Time),406618.5,A,docto,I,o,113,1,749.7999999821186,405868.7000000179,8076,WL,C,11.0
3,15.51199984550476,learn,44488.00015449524,Wed Nov 05 2025 16:28:07 GMT-0600 (Central Standard Time),406751.3000000119,A,doctor,I,r,123,1,882.5999999940395,405868.7000000179,8076,WL,C,11.0
3,15.661999940872192,learn,44338.00005912781,Wed Nov 05 2025 16:28:07 GMT-0600 (Central Standard Time),406901.2000000179,A,doctorenter,I,enter,142,1,1032.5,405868.7000000179,8076,WL,C,11.0
3,16.244999885559082,learn,43755.00011444092,Wed Nov 05 2025 16:28:07 GMT-0600 (Central Standard Time),407484.3000000119,A,w,I,w,576,1,582.7000000178814,406901.59999999404,8076,WL,C,12.0
3,16.360999822616577,learn,43639.00017738342,Wed Nov 05 2025 16:28:07 GMT-0600 (Central Standard Time),407600.8000000119,A,wh,I,h,96,1,699.2000000178814,406901.59999999404,8076,WL,C,12.0
3,16.41099977493286,learn,43589.00022506714,Wed Nov 05 2025 16:28:07 GMT-0600 (Central Standard Time),407651.0,A,whe,I,e,37,1,749.4000000059605,406901.59999999404,8076,WL,C,12.0
3,16.51099991798401,learn,43489.00008201599,Wed Nov 05 2025 16:28:07 GMT-0600 (Central Standard Time),407750.8000000119,A,whea,I,a,81,1,849.2000000178814,406901.59999999404,8076,WL,C,12.0
3,16.610999822616577,learn,43389.00017738342,Wed Nov 05 2025 16:28:07 GMT-0600 (Central Standard Time),407850.59999999404,A,wheat,I,t,95,1,949.0,406901.59999999404,8076,WL,C,12.0
3,17.17799997329712,learn,42822.00002670288,Wed Nov 05 2025 16:28:07 GMT-0600 (Central Standard Time),408417.40000000596,A,wheatenter,I,enter,546,1,1515.800000011921,406901.59999999404,8076,WL,C,12.0
3,18.876999855041504,learn,41123.000144958496,Wed Nov 05 2025 16:28:07 GMT-0600 (Central Standard Time),410116.8000000119,A,t,I,t,1692,1,1699.2000000178814,408417.59999999404,8076,WL,C,13.0
3,18.99399995803833,learn,41006.00004196167,Wed Nov 05 2025 16:28:07 GMT-0600 (Central Standard Time),410233.3000000119,A,to,I,o,104,1,1815.7000000178814,408417.59999999404,8076,WL,C,13.0
3,19.060999870300293,learn,40939.00012969971,Wed Nov 05 2025 16:28:07 GMT-0600 (Central Standard Time),410300.09999999404,A,tow,I,w,52,1,1882.5,408417.59999999404,8076,WL,C,13.0
3,19.143999814987183,learn,40856.00018501282,Wed Nov 05 2025 16:28:07 GMT-0600 (Central Standard Time),410383.40000000596,A,towe,I,e,66,1,1965.800000011921,408417.59999999404,8076,WL,C,13.0
3,19.22699999809265,learn,40773.00000190735,Wed Nov 05 2025 16:28:07 GMT-0600 (Central Standard Time),410466.40000000596,A,tower,I,r,77,1,2048.800000011921,408417.59999999404,8076,WL,C,13.0
3,19.40999984741211,learn,40590.00015258789,Wed Nov 05 2025 16:28:07 GMT-0600 (Central Standard Time),410649.90000000596,A,towerenter,I,enter,163,1,2232.300000011921,408417.59999999404,8076,WL,C,13.0
3,19.643999814987183,learn,40356.00018501282,Wed Nov 05 2025 16:28:07 GMT-0600 (Central Standard Time),410883.3000000119,A,s,I,s,227,1,233.09999999403954,410650.2000000179,8076,WL,C,14.0
3,19.776999950408936,learn,40223.000049591064,Wed Nov 05 2025 16:28:07 GMT-0600 (Central Standard Time),411016.40000000596,A,su,I,u,121,1,366.19999998807907,410650.2000000179,8076,WL,C,14.0
3,19.8439998626709,learn,40156.0001373291,Wed Nov 05 2025 16:28:07 GMT-0600 (Central Standard Time),411083.09999999404,A,sug,I,g,61,1,432.89999997615814,410650.2000000179,8076,WL,C,14.0
3,19.97699999809265,learn,40023.00000190735,Wed Nov 05 2025 16:28:07 GMT-0600 (Central Standard Time),411216.5,A,suga,I,a,122,1,566.2999999821186,410650.2000000179,8076,WL,C,14.0
3,20.0939998626709,learn,39906.0001373291,Wed Nov 05 2025 16:28:07 GMT-0600 (Central Standard Time),411333.2000000179,A,sugar,I,r,100,1,683.0,410650.2000000179,8076,WL,C,14.0
3,20.426999807357788,learn,39573.00019264221,Wed Nov 05 2025 16:28:07 GMT-0600 (Central Standard Time),411666.09999999404,A,sugarq,I,q,328,1,1015.8999999761581,410650.2000000179,8076,WL,C,14.0
3,20.542999982833862,learn,39457.00001716614,Wed Nov 05 2025 16:28:07 GMT-0600 (Central Standard Time),411782.90000000596,A,sugarqu,I,u,107,1,1132.699999988079,410650.2000000179,8076,WL,C,14.0
3,21.092999935150146,learn,38907.00006484985,Wed Nov 05 2025 16:28:07 GMT-0600 (Central Standard Time),412332.8000000119,A,sugarq,I,backspace,534,1,1682.5999999940395,410650.2000000179,8076,WL,C,14.0
3,21.22699999809265,learn,38773.00000190735,Wed Nov 05 2025 16:28:07 GMT-0600 (Central Standard Time),412466.09999999404,A,sugar,I,backspace,129,1,1815.8999999761581,410650.2000000179,8076,WL,C,14.0
3,21.509999990463257,learn,38490.00000953674,Wed Nov 05 2025 16:28:07 GMT-0600 (Central Standard Time),412749.40000000596,A,sugarenter,I,enter,275,1,2099.199999988079,410650.2000000179,8076,WL,C,14.0
3,21.825999975204468,learn,38174.00002479553,Wed Nov 05 2025 16:28:07 GMT-0600 (Central Standard Time),413066.0,A,q,I,q,296,1,316.19999998807907,412749.8000000119,8076,WL,C,15.0
3,21.942999839782715,learn,38057.000160217285,Wed Nov 05 2025 16:28:07 GMT-0600 (Central Standard Time),413182.7000000179,A,qu,I,u,100,1,432.90000000596046,412749.8000000119,8076,WL,C,15.0
3,22.075999975204468,learn,37924.00002479553,Wed Nov 05 2025 16:28:07 GMT-0600 (Central Standard Time),413315.59999999404,A,que,I,e,118,1,565.7999999821186,412749.8000000119,8076,WL,C,15.0
3,22.242999792099,learn,37757.000207901,Wed Nov 05 2025 16:28:07 GMT-0600 (Central Standard Time),413482.40000000596,A,quee,I,e,146,1,732.5999999940395,412749.8000000119,8076,WL,C,15.0
3,22.359999895095825,learn,37640.000104904175,Wed Nov 05 2025 16:28:07 GMT-0600 (Central Standard Time),413599.0,A,queen,I,n,107,1,849.1999999880791,412749.8000000119,8076,WL,C,15.0
3,22.775999784469604,learn,37224.000215530396,Wed Nov 05 2025 16:28:07 GMT-0600 (Central Standard Time),414015.7000000179,A,queenenter,I,enter,407,1,1265.9000000059605,412749.8000000119,8076,WL,C,15.0
4,0.4330000877380371,learn,59566.99991226196,Wed Nov 05 2025 16:28:07 GMT-0600 (Central Standard Time),481394.5,A,s,I,s,428,1,432.90000000596046,480961.59999999404,8076,WL,C,1.0
4,0.5499999523162842,learn,59450.000047683716,Wed Nov 05 2025 16:28:07 GMT-0600 (Central Standard Time),481511.40000000596,A,sh,I,h,106,1,549.8000000119209,480961.59999999404,8076,WL,C,1.0
4,0.6489999294281006,learn,59351.0000705719,Wed Nov 05 2025 16:28:07 GMT-0600 (Central Standard Time),481611.09999999404,A,sho,I,o,86,1,649.5,480961.59999999404,8076,WL,C,1.0
4,0.9330000877380371,learn,59066.99991226196,Wed Nov 05 2025 16:28:07 GMT-0600 (Central Standard Time),481894.3000000119,A,shor,I,r,266,1,932.7000000178814,480961.59999999404,8076,WL,C,1.0
4,1.0160000324249268,learn,58983.99996757507,Wed Nov 05 2025 16:28:07 GMT-0600 (Central Standard Time),481977.59999999404,A,shore,I,e,70,1,1016.0,480961.59999999404,8076,WL,C,1.0
4,1.4490001201629639,learn,58550.999879837036,Wed Nov 05 2025 16:28:07 GMT-0600 (Central Standard Time),482410.8000000119,A,shoreenter,I,enter,420,1,1449.2000000178814,480961.59999999404,8076,WL,C,1.0
4,1.8650000095367432,learn,58134.99999046326,Wed Nov 05 2025 16:28:07 GMT-0600 (Central Standard Time),482827.09999999404,A,b,I,b,411,1,415.89999997615814,482411.2000000179,8076,WL,C,2.0
4,2.0160000324249268,learn,57983.99996757507,Wed Nov 05 2025 16:28:07 GMT-0600 (Central Standard Time),482977.59999999404,A,bo,I,o,130,1,566.3999999761581,482411.2000000179,8076,WL,C,2.0
4,2.0989999771118164,learn,57901.00002288818,Wed Nov 05 2025 16:28:07 GMT-0600 (Central Standard Time),483060.59999999404,A,bod,I,d,68,1,649.3999999761581,482411.2000000179,8076,WL,C,2.0
4,2.2320001125335693,learn,57767.99988746643,Wed Nov 05 2025 16:28:07 GMT-0600 (Central Standard Time),483194.09999999404,A,body,I,y,120,1,782.8999999761581,482411.2000000179,8076,WL,C,2.0
4,2.499000072479248,learn,57500.99992752075,Wed Nov 05 2025 16:28:07 GMT-0600 (Central Standard Time),483460.5,A,bodyenter,I,enter,250,1,1049.2999999821186,482411.2000000179,8076,WL,C,2.0
4,2.7660000324249268,learn,57233.99996757507,Wed Nov 05 2025 16:28:07 GMT-0600 (Central Standard Time),483727.2000000179,A,c,I,c,249,1,266.30000001192093,483460.90000000596,8076,WL,C,3.0
4,2.865000009536743,learn,57134.99999046326,Wed Nov 05 2025 16:28:07 GMT-0600 (Central Standard Time),483826.90000000596,A,ca,I,a,94,1,366.0,483460.90000000596,8076,WL,C,3.0
4,3.0320000648498535,learn,56967.99993515015,Wed Nov 05 2025 16:28:07 GMT-0600 (Central Standard Time),483993.8000000119,A,cat,I,t,154,1,532.9000000059605,483460.90000000596,8076,WL,C,3.0
4,3.199000120162964,learn,56800.999879837036,Wed Nov 05 2025 16:28:07 GMT-0600 (Central Standard Time),484160.5,A,catt,I,t,156,1,699.5999999940395,483460.90000000596,8076,WL,C,3.0
4,3.265000104904175,learn,56734.999895095825,Wed Nov 05 2025 16:28:07 GMT-0600 (Central Standard Time),484226.90000000596,A,cattl,I,l,60,1,766.0,483460.90000000596,8076,WL,C,3.0
4,3.4149999618530273,learn,56585.00003814697,Wed Nov 05 2025 16:28:07 GMT-0600 (Central Standard Time),484376.8000000119,A,cattle,I,e,138,1,915.9000000059605,483460.90000000596,8076,WL,C,3.0
4,3.8480000495910645,learn,56151.999950408936,Wed Nov 05 2025 16:28:07 GMT-0600 (Central Standard Time),484809.8000000119,A,cattleenter,I,enter,412,1,1348.9000000059605,483460.90000000596,8076,WL,C,3.0
4,4.131999969482422,learn,55868.00003051758,Wed Nov 05 2025 16:28:07 GMT-0600 (Central Standard Time),485093.3000000119,A,c,I,c,275,1,283.30000001192093,484810.0,8076,WL,C,4.0
4,4.232000112533569,learn,55767.99988746643,Wed Nov 05 2025 16:28:07 GMT-0600 (Central Standard Time),485193.3000000119,A,co,I,o,88,1,383.30000001192093,484810.0,8076,WL,C,4.0
4,4.365000009536743,learn,55634.99999046326,Wed Nov 05 2025 16:28:07 GMT-0600 (Central Standard Time),485326.5,A,cor,I,r,124,1,516.5,484810.0,8076,WL,C,4.0
4,4.5309998989105225,learn,55469.00010108948,Wed Nov 05 2025 16:28:07 GMT-0600 (Central Standard Time),485493.09999999404,A,corn,I,n,159,1,683.0999999940395,484810.0,8076,WL,C,4.0
4,4.9649999141693115,learn,55035.00008583069,Wed Nov 05 2025 16:28:07 GMT-0600 (Central Standard Time),485926.8000000119,A,cornenter,I,enter,416,1,1116.800000011921,484810.0,8076,WL,C,4.0
4,5.398000001907349,learn,54601.99999809265,Wed Nov 05 2025 16:28:07 GMT-0600 (Central Standard Time),486359.59999999404,A,h,I,h,422,1,432.5,485927.09999999404,8076,WL,C,5.0
4,5.54800009727478,learn,54451.99990272522,Wed Nov 05 2025 16:28:07 GMT-0600 (Central Standard Time),486509.5,A,ho,I,o,142,1,582.4000000059605,485927.09999999404,8076,WL,C,5.0
4,5.664000034332275,learn,54335.999965667725,Wed Nov 05 2025 16:28:07 GMT-0600 (Central Standard Time),486626.0,A,hom,I,m,104,1,698.9000000059605,485927.09999999404,8076,WL,C,5.0
4,5.747999906539917,learn,54252.00009346008,Wed Nov 05 2025 16:28:07 GMT-0600 (Central Standard Time),486709.5,A,home,I,e,66,1,782.4000000059605,485927.09999999404,8076,WL,C,5.0
4,5.96399998664856,learn,54036.00001335144,Wed Nov 05 2025 16:28:07 GMT-0600 (Central Standard Time),486926.0,A,homeenter,I,enter,208,1,998.9000000059605,485927.09999999404,8076,WL,C,5.0
4,6.21399998664856,learn,53786.00001335144,Wed Nov 05 2025 16:28:07 GMT-0600 (Central Standard Time),487176.0,A,b,I,b,231,1,249.69999998807907,486926.3000000119,8076,WL,C,6.0
4,6.3480000495910645,learn,53651.999950408936,Wed Nov 05 2025 16:28:07 GMT-0600 (Central Standard Time),487309.3000000119,A,bo,I,o,125,1,383.0,486926.3000000119,8076,WL,C,6.0
4,6.447999954223633,learn,53552.00004577637,Wed Nov 05 2025 16:28:07 GMT-0600 (Central Standard Time),487409.3000000119,A,boy,I,y,87,1,483.0,486926.3000000119,8076,WL,C,6.0
4,7.197999954223633,learn,52802.00004577637,Wed Nov 05 2025 16:28:07 GMT-0600 (Central Standard Time),488159.2000000179,A,boyenter,I,enter,740,1,1232.9000000059605,486926.3000000119,8076,WL,C,6.0
4,8.02999997138977,learn,51970.00002861023,Wed Nov 05 2025 16:28:07 GMT-0600 (Central Standard Time),488991.90000000596,A,d,I,d,815,1,832.4000000059605,488159.5,8076,WL,C,7.0
4,8.147000074386597,learn,51852.9999256134,Wed Nov 05 2025 16:28:07 GMT-0600 (Central Standard Time),489108.59999999404,A,do,I,o,101,1,949.0999999940395,488159.5,8076,WL,C,7.0
4,8.19700002670288,learn,51802.99997329712,Wed Nov 05 2025 16:28:07 GMT-0600 (Central Standard Time),489158.5,A,doc,I,c,40,1,999.0,488159.5,8076,WL,C,7.0
4,8.397000074386597,learn,51602.9999256134,Wed Nov 05 2025 16:28:07 GMT-0600 (Central Standard Time),489358.7000000179,A,doct,I,t,182,1,1199.2000000178814,488159.5,8076,WL,C,7.0
4,8.627000093460083,learn,51372.99990653992,Wed Nov 05 2025 16:28:07 GMT-0600 (Central Standard Time),489588.59999999404,A,docto,I,o,225,1,1429.0999999940395,488159.5,8076,WL,C,7.0
4,8.775000095367432,learn,51224.99990463257,Wed Nov 05 2025 16:28:07 GMT-0600 (Central Standard Time),489736.3000000119,A,doctor,I,r,16,1,1576.800000011921,488159.5,8076,WL,C,7.0
4,8.79800009727478,learn,51201.99990272522,Wed Nov 05 2025 16:28:07 GMT-0600 (Central Standard Time),489760.0,A,doctorenter,I,enter,12,1,1600.5,488159.5,8076,WL,C,7.0
4,9.079999923706055,learn,50920.000076293945,Wed Nov 05 2025 16:28:07 GMT-0600 (Central Standard Time),490041.90000000596,A,c,I,c,270,1,281.59999999403954,489760.3000000119,8076,WL,C,8.0
4,9.163000106811523,learn,50836.99989318848,Wed Nov 05 2025 16:28:07 GMT-0600 (Central Standard Time),490124.90000000596,A,ca,I,a,68,1,364.59999999403954,489760.3000000119,8076,WL,C,8.0
4,9.27999997138977,learn,50720.00002861023,Wed Nov 05 2025 16:28:07 GMT-0600 (Central Standard Time),490241.40000000596,A,cam,I,m,112,1,481.09999999403954,489760.3000000119,8076,WL,C,8.0
4,9.36299991607666,learn,50637.00008392334,Wed Nov 05 2025 16:28:07 GMT-0600 (Central Standard Time),490325.09999999404,A,camp,I,p,67,1,564.7999999821186,489760.3000000119,8076,WL,C,8.0
4,9.730000019073486,learn,50269.999980926514,Wed Nov 05 2025 16:28:07 GMT-0600 (Central Standard Time),490691.5,A,campenter,I,enter,351,1,931.1999999880791,489760.3000000119,8076,WL,C,8.0
4,10.079999923706055,learn,49920.000076293945,Wed Nov 05 2025 16:28:07 GMT-0600 (Central Standard Time),491041.59999999404,A,f,I,f,338,1,349.7999999821186,490691.8000000119,8076,WL,C,9.0
4,10.246000051498413,learn,49753.99994850159,Wed Nov 05 2025 16:28:07 GMT-0600 (Central Standard Time),491207.90000000596,A,fl,I,l,156,1,516.0999999940395,490691.8000000119,8076,WL,C,9.0
4,10.36299991607666,learn,49637.00008392334,Wed Nov 05 2025 16:28:07 GMT-0600 (Central Standard Time),491324.7000000179,A,fla,I,a,110,1,632.9000000059605,490691.8000000119,8076,WL,C,9.0
4,10.595999956130981,learn,49404.00004386902,Wed Nov 05 2025 16:28:07 GMT-0600 (Central Standard Time),491558.2000000179,A,flag,I,g,225,1,866.4000000059605,490691.8000000119,8076,WL,C,9.0
4,10.746000051498413,learn,49253.99994850159,Wed Nov 05 2025 16:28:07 GMT-0600 (Central Standard Time),491707.90000000596,A,flagenter,I,enter,142,1,1016.0999999940395,490691.8000000119,8076,WL,C,9.0
4,11.013000011444092,learn,48986.99998855591,Wed Nov 05 2025 16:28:07 GMT-0600 (Central Standard Time),491974.40000000596,A,l,I,l,250,1,266.09999999403954,491708.3000000119,8076,WL,C,10.0
4,11.11299991607666,learn,48887.00008392334,Wed Nov 05 2025 16:28:07 GMT-0600 (Central Standard Time),492074.3000000119,A,le,I,e,95,1,366.0,491708.3000000119,8076,WL,C,10.0
4,11.229000091552734,learn,48770.999908447266,Wed Nov 05 2025 16:28:07 GMT-0600 (Central Standard Time),492191.2000000179,A,let,I,t,98,1,482.90000000596046,491708.3000000119,8076,WL,C,10.0
4,11.380000114440918,learn,48619.99988555908,Wed Nov 05 2025 16:28:07 GMT-0600 (Central Standard Time),492341.2000000179,A,lett,I,t,142,1,632.9000000059605,491708.3000000119,8076,WL,C,10.0
4,11.479000091552734,learn,48520.999908447266,Wed Nov 05 2025 16:28:07 GMT-0600 (Central Standard Time),492441.09999999404,A,lette,I,e,87,1,732.7999999821186,491708.3000000119,8076,WL,C,10.0
4,11.563999891281128,learn,48436.00010871887,Wed Nov 05 2025 16:28:07 GMT-0600 (Central Standard Time),492525.59999999404,A,letter,I,r,69,1,817.2999999821186,491708.3000000119,8076,WL,C,10.0
4,11.729000091552734,learn,48270.999908447266,Wed Nov 05 2025 16:28:07 GMT-0600 (Central Standard Time),492690.8000000119,A,letterenter,I,enter,152,1,982.5,491708.3000000119,8076,WL,C,10.0
4,12.163000106811523,learn,47836.99989318848,Wed Nov 05 2025 16:28:07 GMT-0600 (Central Standard Time),493124.2000000179,A,n,I,n,427,1,433.0,492691.2000000179,8076,WL,C,11.0
4,12.296000003814697,learn,47703.9999961853,Wed Nov 05 2025 16:28:07 GMT-0600 (Central Standard Time),493257.5,A,na,I,a,120,1,566.2999999821186,492691.2000000179,8076,WL,C,11.0
4,12.413000106811523,learn,47586.99989318848,Wed Nov 05 2025 16:28:07 GMT-0600 (Central Standard Time),493374.2000000179,A,nai,I,i,100,1,683.0,492691.2000000179,8076,WL,C,11.0
4,12.496999979019165,learn,47503.000020980835,Wed Nov 05 2025 16:28:07 GMT-0600 (Central Standard Time),493458.59999999404,A,nail,I,l,64,1,767.3999999761581,492691.2000000179,8076,WL,C,11.0
4,12.730000019073486,learn,47269.999980926514,Wed Nov 05 2025 16:28:07 GMT-0600 (Central Standard Time),493691.7000000179,A,nailenter,I,enter,226,1,1000.5,492691.2000000179,8076,WL,C,11.0
4,13.279000043869019,learn,46720.99995613098,Wed Nov 05 2025 16:28:07 GMT-0600 (Central Standard Time),494240.59999999404,A,q,I,q,538,1,548.5999999940395,493692.0,8076,WL,C,12.0
4,13.361999988555908,learn,46638.00001144409,Wed Nov 05 2025 16:28:07 GMT-0600 (Central Standard Time),494323.59999999404,A,qu,I,u,76,1,631.5999999940395,493692.0,8076,WL,C,12.0
4,13.51200008392334,learn,46487.99991607666,Wed Nov 05 2025 16:28:07 GMT-0600 (Central Standard Time),494473.59999999404,A,que,I,e,138,1,781.5999999940395,493692.0,8076,WL,C,12.0
4,13.678999900817871,learn,46321.00009918213,Wed Nov 05 2025 16:28:07 GMT-0600 (Central Standard Time),494640.40000000596,A,quee,I,e,156,1,948.4000000059605,493692.0,8076,WL,C,12.0
4,13.76200008392334,learn,46237.99991607666,Wed Nov 05 2025 16:28:07 GMT-0600 (Central Standard Time),494723.5,A,queen,I,n,68,1,1031.5,493692.0,8076,WL,C,12.0
4,13.977999925613403,learn,46022.0000743866,Wed Nov 05 2025 16:28:07 GMT-0600 (Central Standard Time),494940.0,A,queenenter,I,enter,210,1,1248.0,493692.0,8076,WL,C,12.0
4,14.76200008392334,learn,45237.99991607666,Wed Nov 05 2025 16:28:07 GMT-0600 (Central Standard Time),495723.40000000596,A,t,I,t,778,1,783.0,494940.40000000596,8076,WL,C,13.0
4,14.894999980926514,learn,45105.000019073486,Wed Nov 05 2025 16:28:07 GMT-0600 (Central Standard Time),495856.5,A,to,I,o,114,1,916.0999999940395,494940.40000000596,8076,WL,C,13.0
4,14.960999965667725,learn,45039.000034332275,Wed Nov 05 2025 16:28:07 GMT-0600 (Central Standard Time),495923.0,A,tow,I,w,61,1,982.5999999940395,494940.40000000596,8076,WL,C,13.0
4,15.045000076293945,learn,44954.999923706055,Wed Nov 05 2025 16:28:07 GMT-0600 (Central Standard Time),496006.59999999404,A,towe,I,e,75,1,1066.199999988079,494940.40000000596,8076,WL,C,13.0
4,15.128000020980835,learn,44871.999979019165,Wed Nov 05 2025 16:28:07 GMT-0600 (Central Standard Time),496090.09999999404,A,tower,I,r,71,1,1149.699999988079,494940.40000000596,8076,WL,C,13.0
4,15.32800006866455,learn,44671.99993133545,Wed Nov 05 2025 16:28:07 GMT-0600 (Central Standard Time),496290.09999999404,A,towerenter,I,enter,187,1,1349.699999988079,494940.40000000596,8076,WL,C,13.0
4,15.57800006866455,learn,44421.99993133545,Wed Nov 05 2025 16:28:07 GMT-0600 (Central Standard Time),496539.7000000179,A,s,I,s,243,1,249.30000001192093,496290.40000000596,8076,WL,C,14.0
4,15.710999965667725,learn,44289.000034332275,Wed Nov 05 2025 16:28:07 GMT-0600 (Central Standard Time),496673.09999999404,A,su,I,u,113,1,382.69999998807907,496290.40000000596,8076,WL,C,14.0
4,15.795000076293945,learn,44204.999923706055,Wed Nov 05 2025 16:28:07 GMT-0600 (Central Standard Time),496756.3000000119,A,sug,I,g,76,1,465.90000000596046,496290.40000000596,8076,WL,C,14.0
4,15.91100001335144,learn,44088.99998664856,Wed Nov 05 2025 16:28:07 GMT-0600 (Central Standard Time),496872.8000000119,A,suga,I,a,97,1,582.4000000059605,496290.40000000596,8076,WL,C,14.0
4,16.01099991798401,learn,43989.00008201599,Wed Nov 05 2025 16:28:07 GMT-0600 (Central Standard Time),496973.0,A,sugar,I,r,93,1,682.5999999940395,496290.40000000596,8076,WL,C,14.0
4,16.194999933242798,learn,43805.0000667572,Wed Nov 05 2025 16:28:07 GMT-0600 (Central Standard Time),497156.3000000119,A,sugarenter,I,enter,169,1,865.9000000059605,496290.40000000596,8076,WL,C,14.0
4,16.51099991798401,learn,43489.00008201599,Wed Nov 05 2025 16:28:07 GMT-0600 (Central Standard Time),497472.59999999404,A,w,I,w,304,1,316.0,497156.59999999404,8076,WL,C,15.0
4,16.64400005340576,learn,43355.99994659424,Wed Nov 05 2025 16:28:07 GMT-0600 (Central Standard Time),497605.90000000596,A,wh,I,h,117,1,449.30000001192093,497156.59999999404,8076,WL,C,15.0
4,16.727999925613403,learn,43272.0000743866,Wed Nov 05 2025 16:28:07 GMT-0600 (Central Standard Time),497689.5,A,whe,I,e,71,1,532.9000000059605,497156.59999999404,8076,WL,C,15.0
4,16.844000101089478,learn,43155.99989891052,Wed Nov 05 2025 16:28:07 GMT-0600 (Central Standard Time),497806.0,A,whea,I,a,108,1,649.4000000059605,497156.59999999404,8076,WL,C,15.0
4,16.944999933242798,learn,43055.0000667572,Wed Nov 05 2025 16:28:07 GMT-0600 (Central Standard Time),497907.2000000179,A,wheat,I,t,95,1,750.6000000238419,497156.59999999404,8076,WL,C,15.0
4,17.293999910354614,learn,42706.000089645386,Wed Nov 05 2025 16:28:07 GMT-0600 (Central Standard Time),498255.7000000179,A,wheatenter,I,enter,330,1,1099.1000000238419,497156.59999999404,8076,WL,C,15.0
5,0.5499999523162842,learn,60000.0,Wed Nov 05 2025 16:28:07 GMT-0600 (Central Standard Time),571766.8000000119,A,s,I,s,534,1,550.0999999940395,571216.7000000179,8076,WL,C,1.0
5,0.682999849319458,learn,60000.0,Wed Nov 05 2025 16:28:07 GMT-0600 (Central Standard Time),571899.599999994,A,sh,I,h,124,1,682.8999999761581,571216.7000000179,8076,WL,C,1.0
5,0.8329999446868896,learn,60000.0,Wed Nov 05 2025 16:28:07 GMT-0600 (Central Standard Time),572049.5,A,sho,I,o,129,1,832.7999999821186,571216.7000000179,8076,WL,C,1.0
5,1.0329999923706055,learn,60000.0,Wed Nov 05 2025 16:28:07 GMT-0600 (Central Standard Time),572249.599999994,A,shor,I,r,179,1,1032.8999999761581,571216.7000000179,8076,WL,C,1.0
5,1.0829999446868896,learn,60000.0,Wed Nov 05 2025 16:28:07 GMT-0600 (Central Standard Time),572299.5,A,shore,I,e,43,1,1082.7999999821186,571216.7000000179,8076,WL,C,1.0
5,1.315999984741211,learn,60000.0,Wed Nov 05 2025 16:28:07 GMT-0600 (Central Standard Time),572532.5,A,shoreenter,I,enter,225,1,1315.7999999821186,571216.7000000179,8076,WL,C,1.0
5,1.6329998970031738,learn,60000.0,Wed Nov 05 2025 16:28:07 GMT-0600 (Central Standard Time),572849.400000006,A,b,I,b,296,1,316.40000000596046,572533.0,8076,WL,C,2.0
5,1.6989998817443848,learn,60000.0,Wed Nov 05 2025 16:28:07 GMT-0600 (Central Standard Time),572916.099999994,A,bo,I,o,60,1,383.09999999403954,572533.0,8076,WL,C,2.0
5,1.8659999370574951,learn,60000.0,Wed Nov 05 2025 16:28:07 GMT-0600 (Central Standard Time),573082.7000000179,A,bod,I,d,154,1,549.7000000178814,572533.0,8076,WL,C,2.0
5,1.9829998016357422,learn,60000.0,Wed Nov 05 2025 16:28:07 GMT-0600 (Central Standard Time),573199.2000000179,A,body,I,y,107,1,666.2000000178814,572533.0,8076,WL,C,2.0
5,2.2319998741149902,learn,60000.0,Wed Nov 05 2025 16:28:07 GMT-0600 (Central Standard Time),573449.0,A,bodyenter,I,enter,230,1,916.0,572533.0,8076,WL,C,2.0
5,2.4659998416900635,learn,60000.0,Wed Nov 05 2025 16:28:07 GMT-0600 (Central Standard Time),573682.3000000119,A,c,I,c,221,1,232.90000000596046,573449.400000006,8076,WL,C,3.0
5,2.5819997787475586,learn,60000.0,Wed Nov 05 2025 16:28:07 GMT-0600 (Central Standard Time),573798.8000000119,A,ca,I,a,99,1,349.40000000596046,573449.400000006,8076,WL,C,3.0
5,2.7159998416900635,learn,60000.0,Wed Nov 05 2025 16:28:07 GMT-0600 (Central Standard Time),573932.400000006,A,cat,I,t,127,1,483.0,573449.400000006,8076,WL,C,3.0
5,2.865000009536743,learn,60000.0,Wed Nov 05 2025 16:28:07 GMT-0600 (Central Standard Time),574082.2000000179,A,catt,I,t,145,1,632.8000000119209,573449.400000006,8076,WL,C,3.0
5,2.9649999141693115,learn,60000.0,Wed Nov 05 2025 16:28:07 GMT-0600 (Central Standard Time),574182.3000000119,A,cattl,I,l,91,1,732.9000000059605,573449.400000006,8076,WL,C,3.0
5,3.0819997787475586,learn,60000.0,Wed Nov 05 2025 16:28:07 GMT-0600 (Central Standard Time),574298.900000006,A,cattle,I,e,103,1,849.5,573449.400000006,8076,WL,C,3.0
5,3.56499981880188,learn,60000.0,Wed Nov 05 2025 16:28:07 GMT-0600 (Central Standard Time),574782.0,A,cattleenter,I,enter,466,1,1332.5999999940395,573449.400000006,8076,WL,C,3.0
5,3.881999969482422,learn,60000.0,Wed Nov 05 2025 16:28:07 GMT-0600 (Central Standard Time),575098.5,A,c,I,c,302,1,316.09999999403954,574782.400000006,8076,WL,C,4.0
5,3.9649999141693115,learn,60000.0,Wed Nov 05 2025 16:28:07 GMT-0600 (Central Standard Time),575181.7000000179,A,co,I,o,66,1,399.30000001192093,574782.400000006,8076,WL,C,4.0
5,4.097999811172485,learn,60000.0,Wed Nov 05 2025 16:28:07 GMT-0600 (Central Standard Time),575315.099999994,A,cor,I,r,127,1,532.6999999880791,574782.400000006,8076,WL,C,4.0
5,4.247999906539917,learn,60000.0,Wed Nov 05 2025 16:28:07 GMT-0600 (Central Standard Time),575465.2000000179,A,corn,I,n,130,1,682.8000000119209,574782.400000006,8076,WL,C,4.0
5,4.597999811172485,learn,60000.0,Wed Nov 05 2025 16:28:07 GMT-0600 (Central Standard Time),575815.0,A,cornenter,I,enter,333,1,1032.5999999940395,574782.400000006,8076,WL,C,4.0
5,4.880999803543091,learn,60000.0,Wed Nov 05 2025 16:28:07 GMT-0600 (Central Standard Time),576098.0,A,n,I,n,271,1,282.69999998807907,575815.3000000119,8076,WL,C,5.0
5,5.0309998989105225,learn,60000.0,Wed Nov 05 2025 16:28:07 GMT-0600 (Central Standard Time),576248.099999994,A,na,I,a,140,1,432.7999999821186,575815.3000000119,8076,WL,C,5.0
5,5.180999994277954,learn,60000.0,Wed Nov 05 2025 16:28:07 GMT-0600 (Central Standard Time),576398.099999994,A,nai,I,i,132,1,582.7999999821186,575815.3000000119,8076,WL,C,5.0
5,5.347999811172485,learn,60000.0,Wed Nov 05 2025 16:28:07 GMT-0600 (Central Standard Time),576564.599999994,A,nail,I,l,152,1,749.2999999821186,575815.3000000119,8076,WL,C,5.0
5,5.630999803543091,learn,60000.0,Wed Nov 05 2025 16:28:07 GMT-0600 (Central Standard Time),576848.0,A,nailenter,I,enter,265,1,1032.699999988079,575815.3000000119,8076,WL,C,5.0
5,6.047999858856201,learn,60000.0,Wed Nov 05 2025 16:28:07 GMT-0600 (Central Standard Time),577264.8000000119,A,f,I,f,398,1,416.5,576848.3000000119,8076,WL,C,6.0
5,6.2149999141693115,learn,60000.0,Wed Nov 05 2025 16:28:07 GMT-0600 (Central Standard Time),577431.400000006,A,fl,I,l,149,1,583.0999999940395,576848.3000000119,8076,WL,C,6.0
5,6.313999891281128,learn,60000.0,Wed Nov 05 2025 16:28:07 GMT-0600 (Central Standard Time),577530.8000000119,A,fla,I,a,94,1,682.5,576848.3000000119,8076,WL,C,6.0
5,6.46399998664856,learn,60000.0,Wed Nov 05 2025 16:28:07 GMT-0600 (Central Standard Time),577681.099999994,A,flag,I,g,130,1,832.7999999821186,576848.3000000119,8076,WL,C,6.0
5,6.680999994277954,learn,60000.0,Wed Nov 05 2025 16:28:07 GMT-0600 (Central Standard Time),577897.599999994,A,flagenter,I,enter,196,1,1049.2999999821186,576848.3000000119,8076,WL,C,6.0
5,7.013999938964844,learn,60000.0,Wed Nov 05 2025 16:28:07 GMT-0600 (Central Standard Time),578231.099999994,A,l,I,l,316,1,333.0,577898.099999994,8076,WL,C,7.0
5,7.097999811172485,learn,60000.0,Wed Nov 05 2025 16:28:07 GMT-0600 (Central Standard Time),578314.3000000119,A,le,I,e,69,1,416.2000000178814,577898.099999994,8076,WL,C,7.0
5,7.196999788284302,learn,60000.0,Wed Nov 05 2025 16:28:07 GMT-0600 (Central Standard Time),578414.2000000179,A,let,I,t,83,1,516.1000000238419,577898.099999994,8076,WL,C,7.0
5,7.346999883651733,learn,60000.0,Wed Nov 05 2025 16:28:07 GMT-0600 (Central Standard Time),578564.2000000179,A,lett,I,t,136,1,666.1000000238419,577898.099999994,8076,WL,C,7.0
5,7.480999946594238,learn,60000.0,Wed Nov 05 2025 16:28:07 GMT-0600 (Central Standard Time),578697.599999994,A,lette,I,e,121,1,799.5,577898.099999994,8076,WL,C,7.0
5,7.547999858856201,learn,60000.0,Wed Nov 05 2025 16:28:07 GMT-0600 (Central Standard Time),578764.7000000179,A,letter,I,r,60,1,866.6000000238419,577898.099999994,8076,WL,C,7.0
5,7.7809998989105225,learn,60000.0,Wed Nov 05 2025 16:28:07 GMT-0600 (Central Standard Time),578997.400000006,A,letterenter,I,enter,224,1,1099.300000011921,577898.099999994,8076,WL,C,7.0
5,8.46399998664856,learn,60000.0,Wed Nov 05 2025 16:28:07 GMT-0600 (Central Standard Time),579680.400000006,A,h,I,h,664,1,682.6999999880791,578997.7000000179,8076,WL,C,8.0
5,8.579999923706055,learn,60000.0,Wed Nov 05 2025 16:28:07 GMT-0600 (Central Standard Time),579797.0,A,ho,I,o,101,1,799.2999999821186,578997.7000000179,8076,WL,C,8.0
5,8.71399998664856,learn,60000.0,Wed Nov 05 2025 16:28:07 GMT-0600 (Central Standard Time),579930.3000000119,A,hom,I,m,112,1,932.5999999940395,578997.7000000179,8076,WL,C,8.0
5,8.829999923706055,learn,60000.0,Wed Nov 05 2025 16:28:07 GMT-0600 (Central Standard Time),580046.900000006,A,home,I,e,107,1,1049.199999988079,578997.7000000179,8076,WL,C,8.0
5,9.196999788284302,learn,60000.0,Wed Nov 05 2025 16:28:07 GMT-0600 (Central Standard Time),580413.599999994,A,homeenter,I,enter,351,1,1415.8999999761581,578997.7000000179,8076,WL,C,8.0
5,9.447999954223633,learn,60000.0,Wed Nov 05 2025 16:28:07 GMT-0600 (Central Standard Time),580664.599999994,A,b,I,b,240,1,250.5,580414.099999994,8076,WL,C,9.0
5,9.52999997138977,learn,60000.0,Wed Nov 05 2025 16:28:07 GMT-0600 (Central Standard Time),580746.5,A,bo,I,o,76,1,332.40000000596046,580414.099999994,8076,WL,C,9.0
5,9.696999788284302,learn,60000.0,Wed Nov 05 2025 16:28:07 GMT-0600 (Central Standard Time),580913.400000006,A,boy,I,y,146,1,499.30000001192093,580414.099999994,8076,WL,C,9.0
5,10.012999773025513,learn,60000.0,Wed Nov 05 2025 16:28:07 GMT-0600 (Central Standard Time),581230.2000000179,A,boyenter,I,enter,308,1,816.1000000238419,580414.099999994,8076,WL,C,9.0
5,10.329999923706055,learn,60000.0,Wed Nov 05 2025 16:28:07 GMT-0600 (Central Standard Time),581546.400000006,A,d,I,d,296,1,316.0,581230.400000006,8076,WL,C,10.0
5,10.395999908447266,learn,60000.0,Wed Nov 05 2025 16:28:07 GMT-0600 (Central Standard Time),581613.2000000179,A,do,I,o,51,1,382.80000001192093,581230.400000006,8076,WL,C,10.0
5,10.512999773025513,learn,60000.0,Wed Nov 05 2025 16:28:07 GMT-0600 (Central Standard Time),581729.8000000119,A,doc,I,c,95,1,499.40000000596046,581230.400000006,8076,WL,C,10.0
5,10.69599986076355,learn,60000.0,Wed Nov 05 2025 16:28:07 GMT-0600 (Central Standard Time),581913.099999994,A,doct,I,t,163,1,682.6999999880791,581230.400000006,8076,WL,C,10.0
5,10.77899980545044,learn,60000.0,Wed Nov 05 2025 16:28:07 GMT-0600 (Central Standard Time),581996.3000000119,A,docto,I,o,75,1,765.9000000059605,581230.400000006,8076,WL,C,10.0
5,10.929999828338623,learn,60000.0,Wed Nov 05 2025 16:28:07 GMT-0600 (Central Standard Time),582146.400000006,A,doctor,I,r,129,1,916.0,581230.400000006,8076,WL,C,10.0
5,11.095999956130981,learn,60000.0,Wed Nov 05 2025 16:28:07 GMT-0600 (Central Standard Time),582312.900000006,A,doctorenter,I,enter,146,1,1082.5,581230.400000006,8076,WL,C,10.0
5,11.395999908447266,learn,60000.0,Wed Nov 05 2025 16:28:07 GMT-0600 (Central Standard Time),582613.099999994,A,c,I,c,285,1,300.0,582313.099999994,8076,WL,C,11.0
5,11.495999813079834,learn,60000.0,Wed Nov 05 2025 16:28:07 GMT-0600 (Central Standard Time),582712.7000000179,A,ca,I,a,80,1,399.60000002384186,582313.099999994,8076,WL,C,11.0
5,11.595999956130981,learn,60000.0,Wed Nov 05 2025 16:28:07 GMT-0600 (Central Standard Time),582812.900000006,A,cam,I,m,92,1,499.80000001192093,582313.099999994,8076,WL,C,11.0
5,11.712999820709229,learn,60000.0,Wed Nov 05 2025 16:28:07 GMT-0600 (Central Standard Time),582929.5,A,camp,I,p,104,1,616.4000000059605,582313.099999994,8076,WL,C,11.0
5,12.061999797821045,learn,60000.0,Wed Nov 05 2025 16:28:07 GMT-0600 (Central Standard Time),583279.2000000179,A,campenter,I,enter,340,1,966.1000000238419,582313.099999994,8076,WL,C,11.0
5,12.478999853134155,learn,60000.0,Wed Nov 05 2025 16:28:07 GMT-0600 (Central Standard Time),583695.8000000119,A,w,I,w,399,1,416.2000000178814,583279.599999994,8076,WL,C,12.0
5,12.643999814987183,learn,60000.0,Wed Nov 05 2025 16:28:07 GMT-0600 (Central Standard Time),583860.2000000179,A,we,I,e,160,1,580.6000000238419,583279.599999994,8076,WL,C,12.0
5,12.791999816894531,learn,60000.0,Wed Nov 05 2025 16:28:07 GMT-0600 (Central Standard Time),584008.3000000119,A,wea,I,a,142,1,728.7000000178814,583279.599999994,8076,WL,C,12.0
5,12.861999988555908,learn,60000.0,Wed Nov 05 2025 16:28:07 GMT-0600 (Central Standard Time),584078.8000000119,A,weat,I,t,52,1,799.2000000178814,583279.599999994,8076,WL,C,12.0
5,13.544999837875366,learn,60000.0,Wed Nov 05 2025 16:28:07 GMT-0600 (Central Standard Time),584762.099999994,A,wea,I,backspace,659,1,1482.5,583279.599999994,8076,WL,C,12.0
5,13.711999893188477,learn,60000.0,Wed Nov 05 2025 16:28:07 GMT-0600 (Central Standard Time),584928.5,A,we,I,backspace,147,1,1648.9000000059605,583279.599999994,8076,WL,C,12.0
5,13.84499979019165,learn,60000.0,Wed Nov 05 2025 16:28:07 GMT-0600 (Central Standard Time),585062.099999994,A,w,I,backspace,117,1,1782.5,583279.599999994,8076,WL,C,12.0
5,14.09499979019165,learn,60000.0,Wed Nov 05 2025 16:28:07 GMT-0600 (Central Standard Time),585312.2000000179,A,wh,I,h,231,1,2032.6000000238419,583279.599999994,8076,WL,C,12.0
5,14.161999940872192,learn,60000.0,Wed Nov 05 2025 16:28:07 GMT-0600 (Central Standard Time),585378.7000000179,A,whe,I,e,54,1,2099.100000023842,583279.599999994,8076,WL,C,12.0
5,14.244999885559082,learn,60000.0,Wed Nov 05 2025 16:28:07 GMT-0600 (Central Standard Time),585462.099999994,A,whea,I,a,67,1,2182.5,583279.599999994,8076,WL,C,12.0
5,14.34499979019165,learn,60000.0,Wed Nov 05 2025 16:28:07 GMT-0600 (Central Standard Time),585561.8000000119,A,wheat,I,t,95,1,2282.2000000178814,583279.599999994,8076,WL,C,12.0
5,14.527999877929688,learn,60000.0,Wed Nov 05 2025 16:28:07 GMT-0600 (Central Standard Time),585745.3000000119,A,wheatenter,I,enter,172,1,2465.7000000178814,583279.599999994,8076,WL,C,12.0
5,14.811999797821045,learn,60000.0,Wed Nov 05 2025 16:28:07 GMT-0600 (Central Standard Time),586028.7000000179,A,t,I,t,269,1,283.2000000178814,585745.5,8076,WL,C,13.0
5,14.92799997329712,learn,60000.0,Wed Nov 05 2025 16:28:07 GMT-0600 (Central Standard Time),586145.2000000179,A,to,I,o,104,1,399.7000000178814,585745.5,8076,WL,C,13.0
5,15.077999830245972,learn,60000.0,Wed Nov 05 2025 16:28:07 GMT-0600 (Central Standard Time),586295.0,A,tow,I,w,140,1,549.5,585745.5,8076,WL,C,13.0
5,15.144999980926514,learn,60000.0,Wed Nov 05 2025 16:28:07 GMT-0600 (Central Standard Time),586361.5,A,towe,I,e,54,1,616.0,585745.5,8076,WL,C,13.0
5,15.26199984550476,learn,60000.0,Wed Nov 05 2025 16:28:07 GMT-0600 (Central Standard Time),586478.3000000119,A,tower,I,r,108,1,732.8000000119209,585745.5,8076,WL,C,13.0
5,15.42799997329712,learn,60000.0,Wed Nov 05 2025 16:28:07 GMT-0600 (Central Standard Time),586645.0,A,towerenter,I,enter,151,1,899.5,585745.5,8076,WL,C,13.0
5,15.59499979019165,learn,60000.0,Wed Nov 05 2025 16:28:07 GMT-0600 (Central Standard Time),586811.400000006,A,q,I,q,160,1,166.09999999403954,586645.3000000119,8076,WL,C,14.0
5,15.760999917984009,learn,60000.0,Wed Nov 05 2025 16:28:07 GMT-0600 (Central Standard Time),586978.2000000179,A,qu,I,u,154,1,332.90000000596046,586645.3000000119,8076,WL,C,14.0
5,15.911999940872192,learn,60000.0,Wed Nov 05 2025 16:28:07 GMT-0600 (Central Standard Time),587128.3000000119,A,que,I,e,130,1,483.0,586645.3000000119,8076,WL,C,14.0
5,16.060999870300293,learn,60000.0,Wed Nov 05 2025 16:28:07 GMT-0600 (Central Standard Time),587278.3000000119,A,quee,I,e,133,1,633.0,586645.3000000119,8076,WL,C,14.0
5,16.194999933242798,learn,60000.0,Wed Nov 05 2025 16:28:07 GMT-0600 (Central Standard Time),587411.400000006,A,queen,I,n,128,1,766.0999999940395,586645.3000000119,8076,WL,C,14.0
5,16.76099991798401,learn,60000.0,Wed Nov 05 2025 16:28:07 GMT-0600 (Central Standard Time),587977.8000000119,A,queenenter,I,enter,554,1,1332.5,586645.3000000119,8076,WL,C,14.0
5,17.143999814987183,learn,60000.0,Wed Nov 05 2025 16:28:07 GMT-0600 (Central Standard Time),588361.099999994,A,s,I,s,366,1,382.89999997615814,587978.2000000179,8076,WL,C,15.0
5,17.227999925613403,learn,60000.0,Wed Nov 05 2025 16:28:07 GMT-0600 (Central Standard Time),588444.400000006,A,su,I,u,77,1,466.19999998807907,587978.2000000179,8076,WL,C,15.0
5,17.32799983024597,learn,60000.0,Wed Nov 05 2025 16:28:07 GMT-0600 (Central Standard Time),588544.400000006,A,sug,I,g,81,1,566.1999999880791,587978.2000000179,8076,WL,C,15.0
5,17.41099977493286,learn,60000.0,Wed Nov 05 2025 16:28:07 GMT-0600 (Central Standard Time),588627.400000006,A,suga,I,a,78,1,649.1999999880791,587978.2000000179,8076,WL,C,15.0
5,17.527999877929688,learn,60000.0,Wed Nov 05 2025 16:28:07 GMT-0600 (Central Standard Time),588744.5,A,sugar,I,r,98,1,766.2999999821186,587978.2000000179,8076,WL,C,15.0
5,17.66099977493286,learn,60000.0,Wed Nov 05 2025 16:28:07 GMT-0600 (Central Standard Time),588877.599999994,A,sugarenter,I,enter,117,1,899.3999999761581,587978.2000000179,8076,WL,C,15.0
6,0.8669998645782471,distr,59133.00013542175,Wed Nov 05 2025 16:28:07 GMT-0600 (Central Standard Time),660005.5,B,t,I,t,851,1,866.2999999821186,659139.2000000179,8076,WL,C,1.0
6,0.9830000400543213,distr,59016.99995994568,Wed Nov 05 2025 16:28:07 GMT-0600 (Central Standard Time),660122.0,B,to,I,o,94,1,982.7999999821186,659139.2000000179,8076,WL,C,1.0
6,1.5160000324249268,distr,58483.99996757507,Wed Nov 05 2025 16:28:07 GMT-0600 (Central Standard Time),660655.099999994,B,too,I,o,523,1,1515.8999999761581,659139.2000000179,8076,WL,C,1.0
6,1.749000072479248,distr,58250.99992752075,Wed Nov 05 2025 16:28:07 GMT-0600 (Central Standard Time),660888.400000006,B,tool,I,l,221,1,1749.199999988079,659139.2000000179,8076,WL,C,1.0
6,1.999000072479248,distr,58000.99992752075,Wed Nov 05 2025 16:28:07 GMT-0600 (Central Standard Time),661138.3000000119,B,toolenter,I,enter,237,1,1999.0999999940395,659139.2000000179,8076,WL,C,1.0
6,2.3320000171661377,distr,57667.99998283386,Wed Nov 05 2025 16:28:07 GMT-0600 (Central Standard Time),661471.5,B,p,I,p,315,1,332.90000000596046,661138.599999994,8076,WL,C,2.0
6,2.5160000324249268,distr,57483.99996757507,Wed Nov 05 2025 16:28:07 GMT-0600 (Central Standard Time),661655.0,B,pl,I,l,174,1,516.4000000059605,661138.599999994,8076,WL,C,2.0
6,2.5989999771118164,distr,57401.00002288818,Wed Nov 05 2025 16:28:07 GMT-0600 (Central Standard Time),661738.099999994,B,pla,I,a,71,1,599.5,661138.599999994,8076,WL,C,2.0
6,2.6989998817443848,distr,57301.000118255615,Wed Nov 05 2025 16:28:07 GMT-0600 (Central Standard Time),661838.099999994,B,plan,I,n,91,1,699.5,661138.599999994,8076,WL,C,2.0
6,2.865999937057495,distr,57134.000062942505,Wed Nov 05 2025 16:28:07 GMT-0600 (Central Standard Time),662004.599999994,B,plant,I,t,160,1,866.0,661138.599999994,8076,WL,C,2.0
6,3.0160000324249268,distr,56983.99996757507,Wed Nov 05 2025 16:28:07 GMT-0600 (Central Standard Time),662154.900000006,B,plantenter,I,enter,136,1,1016.3000000119209,661138.599999994,8076,WL,C,2.0
6,3.2649998664855957,distr,56735.000133514404,Wed Nov 05 2025 16:28:07 GMT-0600 (Central Standard Time),662404.400000006,B,m,I,m,243,1,249.30000001192093,662155.099999994,8076,WL,C,3.0
6,3.381999969482422,distr,56618.00003051758,Wed Nov 05 2025 16:28:07 GMT-0600 (Central Standard Time),662521.2000000179,B,mo,I,o,96,1,366.10000002384186,662155.099999994,8076,WL,C,3.0
6,3.499000072479248,distr,56500.99992752075,Wed Nov 05 2025 16:28:07 GMT-0600 (Central Standard Time),662637.8000000119,B,mon,I,n,99,1,482.7000000178814,662155.099999994,8076,WL,C,3.0
6,3.7990000247955322,distr,56200.99997520447,Wed Nov 05 2025 16:28:07 GMT-0600 (Central Standard Time),662937.900000006,B,mone,I,e,280,1,782.8000000119209,662155.099999994,8076,WL,C,3.0
6,3.9149999618530273,distr,56085.00003814697,Wed Nov 05 2025 16:28:07 GMT-0600 (Central Standard Time),663054.400000006,B,money,I,y,106,1,899.3000000119209,662155.099999994,8076,WL,C,3.0
6,4.2149999141693115,distr,55785.00008583069,Wed Nov 05 2025 16:28:07 GMT-0600 (Central Standard Time),663354.3000000119,B,moneyenter,I,enter,294,1,1199.2000000178814,662155.099999994,8076,WL,C,3.0
6,4.48199987411499,distr,55518.00012588501,Wed Nov 05 2025 16:28:07 GMT-0600 (Central Standard Time),663621.099999994,B,h,I,h,251,1,266.59999999403954,663354.5,8076,WL,C,4.0
6,4.565000057220459,distr,55434.99994277954,Wed Nov 05 2025 16:28:07 GMT-0600 (Central Standard Time),663704.2000000179,B,ho,I,o,72,1,349.7000000178814,663354.5,8076,WL,C,4.0
6,4.681999921798706,distr,55318.000078201294,Wed Nov 05 2025 16:28:07 GMT-0600 (Central Standard Time),663820.900000006,B,hot,I,t,101,1,466.40000000596046,663354.5,8076,WL,C,4.0
6,4.747999906539917,distr,55252.00009346008,Wed Nov 05 2025 16:28:07 GMT-0600 (Central Standard Time),663887.3000000119,B,hote,I,e,49,1,532.8000000119209,663354.5,8076,WL,C,4.0
6,4.865000009536743,distr,55134.99999046326,Wed Nov 05 2025 16:28:07 GMT-0600 (Central Standard Time),664003.900000006,B,hotel,I,l,110,1,649.4000000059605,663354.5,8076,WL,C,4.0
6,5.148000001907349,distr,54851.99999809265,Wed Nov 05 2025 16:28:07 GMT-0600 (Central Standard Time),664287.3000000119,B,hotelenter,I,enter,266,1,932.8000000119209,663354.5,8076,WL,C,4.0
6,5.48199987411499,distr,54518.00012588501,Wed Nov 05 2025 16:28:07 GMT-0600 (Central Standard Time),664620.5,B,v,I,v,326,1,332.90000000596046,664287.599999994,8076,WL,C,5.0
6,5.565000057220459,distr,54434.99994277954,Wed Nov 05 2025 16:28:07 GMT-0600 (Central Standard Time),664703.900000006,B,va,I,a,72,1,416.30000001192093,664287.599999994,8076,WL,C,5.0
6,5.680999994277954,distr,54319.000005722046,Wed Nov 05 2025 16:28:07 GMT-0600 (Central Standard Time),664820.400000006,B,val,I,l,109,1,532.8000000119209,664287.599999994,8076,WL,C,5.0
6,5.830999851226807,distr,54169.00014877319,Wed Nov 05 2025 16:28:07 GMT-0600 (Central Standard Time),664970.3000000119,B,vall,I,l,137,1,682.7000000178814,664287.599999994,8076,WL,C,5.0
6,5.898000001907349,distr,54101.99999809265,Wed Nov 05 2025 16:28:07 GMT-0600 (Central Standard Time),665037.2000000179,B,valle,I,e,51,1,749.6000000238419,664287.599999994,8076,WL,C,5.0
6,6.065000057220459,distr,53934.99994277954,Wed Nov 05 2025 16:28:07 GMT-0600 (Central Standard Time),665203.7000000179,B,valley,I,y,152,1,916.1000000238419,664287.599999994,8076,WL,C,5.0
6,6.447999954223633,distr,53552.00004577637,Wed Nov 05 2025 16:28:07 GMT-0600 (Central Standard Time),665586.5,B,valleyenter,I,enter,377,1,1298.9000000059605,664287.599999994,8076,WL,C,5.0
6,6.846999883651733,distr,53153.00011634827,Wed Nov 05 2025 16:28:07 GMT-0600 (Central Standard Time),665986.400000006,B,d,I,d,394,1,399.5,665586.900000006,8076,WL,C,6.0
6,7.0309998989105225,distr,52969.00010108948,Wed Nov 05 2025 16:28:07 GMT-0600 (Central Standard Time),666169.900000006,B,do,I,o,171,1,583.0,665586.900000006,8076,WL,C,6.0
6,7.263999938964844,distr,52736.000061035156,Wed Nov 05 2025 16:28:07 GMT-0600 (Central Standard Time),666403.3000000119,B,dol,I,l,228,1,816.4000000059605,665586.900000006,8076,WL,C,6.0
6,7.414000034332275,distr,52585.999965667725,Wed Nov 05 2025 16:28:07 GMT-0600 (Central Standard Time),666553.099999994,B,doll,I,l,129,1,966.1999999880791,665586.900000006,8076,WL,C,6.0
6,7.46399998664856,distr,52536.00001335144,Wed Nov 05 2025 16:28:07 GMT-0600 (Central Standard Time),666603.5,B,dolla,I,a,36,1,1016.5999999940395,665586.900000006,8076,WL,C,6.0
6,7.580999851226807,distr,52419.00014877319,Wed Nov 05 2025 16:28:07 GMT-0600 (Central Standard Time),666719.8000000119,B,dollar,I,r,105,1,1132.9000000059605,665586.900000006,8076,WL,C,6.0
6,7.830999851226807,distr,52169.00014877319,Wed Nov 05 2025 16:28:07 GMT-0600 (Central Standard Time),666969.599999994,B,dollarenter,I,enter,229,1,1382.699999988079,665586.900000006,8076,WL,C,6.0
6,8.080999851226807,distr,51919.00014877319,Wed Nov 05 2025 16:28:07 GMT-0600 (Central Standard Time),667219.599999994,B,s,I,s,244,1,249.59999999403954,666970.0,8076,WL,C,7.0
6,8.197999954223633,distr,51802.00004577637,Wed Nov 05 2025 16:28:07 GMT-0600 (Central Standard Time),667336.5,B,sk,I,k,97,1,366.5,666970.0,8076,WL,C,7.0
6,8.38100004196167,distr,51618.99995803833,Wed Nov 05 2025 16:28:07 GMT-0600 (Central Standard Time),667519.599999994,B,sky,I,y,164,1,549.5999999940395,666970.0,8076,WL,C,7.0
6,8.71399998664856,distr,51286.00001335144,Wed Nov 05 2025 16:28:07 GMT-0600 (Central Standard Time),667852.7000000179,B,skyenter,I,enter,326,1,882.7000000178814,666970.0,8076,WL,C,7.0
6,8.96399998664856,distr,51036.00001335144,Wed Nov 05 2025 16:28:07 GMT-0600 (Central Standard Time),668102.7000000179,B,b,I,b,241,1,249.60000002384186,667853.099999994,8076,WL,C,8.0
6,9.04699993133545,distr,50953.00006866455,Wed Nov 05 2025 16:28:07 GMT-0600 (Central Standard Time),668186.3000000119,B,bu,I,u,71,1,333.2000000178814,667853.099999994,8076,WL,C,8.0
6,9.180999994277954,distr,50819.000005722046,Wed Nov 05 2025 16:28:07 GMT-0600 (Central Standard Time),668319.5,B,but,I,t,123,1,466.40000000596046,667853.099999994,8076,WL,C,8.0
6,9.346999883651733,distr,50653.00011634827,Wed Nov 05 2025 16:28:07 GMT-0600 (Central Standard Time),668486.0,B,butt,I,t,150,1,632.9000000059605,667853.099999994,8076,WL,C,8.0
6,9.54699993133545,distr,50453.00006866455,Wed Nov 05 2025 16:28:07 GMT-0600 (Central Standard Time),668686.0,B,butte,I,e,183,1,832.9000000059605,667853.099999994,8076,WL,C,8.0
6,9.613999843597412,distr,50386.00015640259,Wed Nov 05 2025 16:28:07 GMT-0600 (Central Standard Time),668752.5,B,butter,I,r,56,1,899.4000000059605,667853.099999994,8076,WL,C,8.0
6,9.79699993133545,distr,50203.00006866455,Wed Nov 05 2025 16:28:07 GMT-0600 (Central Standard Time),668935.8000000119,B,butterenter,I,enter,173,1,1082.7000000178814,667853.099999994,8076,WL,C,8.0
6,10.230000019073486,distr,49769.999980926514,Wed Nov 05 2025 16:28:07 GMT-0600 (Central Standard Time),669369.2000000179,B,m,I,m,422,1,433.10000002384186,668936.099999994,8076,WL,C,9.0
6,10.379999876022339,distr,49620.00012397766,Wed Nov 05 2025 16:28:07 GMT-0600 (Central Standard Time),669519.0,B,mo,I,o,139,1,582.9000000059605,668936.099999994,8076,WL,C,9.0
6,10.496999979019165,distr,49503.000020980835,Wed Nov 05 2025 16:28:07 GMT-0600 (Central Standard Time),669635.8000000119,B,mot,I,t,110,1,699.7000000178814,668936.099999994,8076,WL,C,9.0
6,10.579999923706055,distr,49420.000076293945,Wed Nov 05 2025 16:28:07 GMT-0600 (Central Standard Time),669718.900000006,B,moth,I,h,66,1,782.8000000119209,668936.099999994,8076,WL,C,9.0
6,10.763000011444092,distr,49236.99998855591,Wed Nov 05 2025 16:28:07 GMT-0600 (Central Standard Time),669902.2000000179,B,mothe,I,e,167,1,966.1000000238419,668936.099999994,8076,WL,C,9.0
6,10.846999883651733,distr,49153.00011634827,Wed Nov 05 2025 16:28:07 GMT-0600 (Central Standard Time),669985.599999994,B,mother,I,r,72,1,1049.5,668936.099999994,8076,WL,C,9.0
6,11.162999868392944,distr,48837.000131607056,Wed Nov 05 2025 16:28:07 GMT-0600 (Central Standard Time),670302.099999994,B,motherenter,I,enter,308,1,1366.0,668936.099999994,8076,WL,C,9.0
6,11.430000066757202,distr,48569.9999332428,Wed Nov 05 2025 16:28:07 GMT-0600 (Central Standard Time),670568.5,B,w,I,w,255,1,266.0,670302.5,8076,WL,C,10.0
6,11.496000051498413,distr,48503.99994850159,Wed Nov 05 2025 16:28:07 GMT-0600 (Central Standard Time),670635.0,B,wi,I,i,61,1,332.5,670302.5,8076,WL,C,10.0
6,11.595999956130981,distr,48404.00004386902,Wed Nov 05 2025 16:28:07 GMT-0600 (Central Standard Time),670735.400000006,B,win,I,n,91,1,432.90000000596046,670302.5,8076,WL,C,10.0
6,11.730000019073486,distr,48269.999980926514,Wed Nov 05 2025 16:28:07 GMT-0600 (Central Standard Time),670868.599999994,B,wint,I,t,118,1,566.0999999940395,670302.5,8076,WL,C,10.0
6,12.095999956130981,distr,47904.00004386902,Wed Nov 05 2025 16:28:07 GMT-0600 (Central Standard Time),671234.8000000119,B,winte,I,e,361,1,932.3000000119209,670302.5,8076,WL,C,10.0
6,12.230999946594238,distr,47769.00005340576,Wed Nov 05 2025 16:28:07 GMT-0600 (Central Standard Time),671369.8000000119,B,winter,I,r,131,1,1067.300000011921,670302.5,8076,WL,C,10.0
6,14.046000003814697,distr,45953.9999961853,Wed Nov 05 2025 16:28:07 GMT-0600 (Central Standard Time),673184.7000000179,B,winterenter,I,enter,1796,1,2882.2000000178814,670302.5,8076,WL,C,10.0
6,14.394999980926514,distr,45605.000019073486,Wed Nov 05 2025 16:28:07 GMT-0600 (Central Standard Time),673534.400000006,B,d,I,d,333,1,349.40000000596046,673185.0,8076,WL,C,11.0
6,14.444999933242798,distr,45555.0000667572,Wed Nov 05 2025 16:28:07 GMT-0600 (Central Standard Time),673584.400000006,B,di,I,i,30,1,399.40000000596046,673185.0,8076,WL,C,11.0
6,14.611999988555908,distr,45388.00001144409,Wed Nov 05 2025 16:28:07 GMT-0600 (Central Standard Time),673751.0,B,dia,I,a,149,1,566.0,673185.0,8076,WL,C,11.0
6,14.694999933242798,distr,45305.0000667572,Wed Nov 05 2025 16:28:07 GMT-0600 (Central Standard Time),673834.3000000119,B,diam,I,m,62,1,649.3000000119209,673185.0,8076,WL,C,11.0
6,14.828999996185303,distr,45171.0000038147,Wed Nov 05 2025 16:28:07 GMT-0600 (Central Standard Time),673967.7000000179,B,diamo,I,o,123,1,782.7000000178814,673185.0,8076,WL,C,11.0
6,14.928999900817871,distr,45071.00009918213,Wed Nov 05 2025 16:28:07 GMT-0600 (Central Standard Time),674067.599999994,B,diamon,I,n,94,1,882.5999999940395,673185.0,8076,WL,C,11.0
6,15.128999948501587,distr,44871.00005149841,Wed Nov 05 2025 16:28:07 GMT-0600 (Central Standard Time),674267.5,B,diamond,I,d,186,1,1082.5,673185.0,8076,WL,C,11.0
6,15.494999885559082,distr,44505.00011444092,Wed Nov 05 2025 16:28:07 GMT-0600 (Central Standard Time),674634.099999994,B,diamondh,I,h,354,1,1449.0999999940395,673185.0,8076,WL,C,11.0
6,16.07800006866455,distr,43921.99993133545,Wed Nov 05 2025 16:28:07 GMT-0600 (Central Standard Time),675217.3000000119,B,diamond,I,backspace,562,1,2032.300000011921,673185.0,8076,WL,C,11.0
6,16.361000061035156,distr,43638.999938964844,Wed Nov 05 2025 16:28:07 GMT-0600 (Central Standard Time),675500.400000006,B,diamondenter,I,enter,276,1,2315.4000000059605,673185.0,8076,WL,C,11.0
6,16.661999940872192,distr,43338.00005912781,Wed Nov 05 2025 16:28:07 GMT-0600 (Central Standard Time),675800.599999994,B,h,I,h,281,1,299.89999997615814,675500.7000000179,8076,WL,C,12.0
6,16.795000076293945,distr,43204.999923706055,Wed Nov 05 2025 16:28:07 GMT-0600 (Central Standard Time),675933.7000000179,B,ha,I,a,125,1,433.0,675500.7000000179,8076,WL,C,12.0
6,16.91100001335144,distr,43088.99998664856,Wed Nov 05 2025 16:28:07 GMT-0600 (Central Standard Time),676050.099999994,B,hal,I,l,111,1,549.3999999761581,675500.7000000179,8076,WL,C,12.0
6,17.060999870300293,distr,42939.00012969971,Wed Nov 05 2025 16:28:07 GMT-0600 (Central Standard Time),676200.099999994,B,hall,I,l,131,1,699.3999999761581,675500.7000000179,8076,WL,C,12.0
6,18.66100001335144,distr,41338.99998664856,Wed Nov 05 2025 16:28:07 GMT-0600 (Central Standard Time),677799.900000006,B,hallenter,I,enter,1589,1,2299.199999988079,675500.7000000179,8076,WL,C,12.0
6,25.424999952316284,distr,34575.000047683716,Wed Nov 05 2025 16:28:07 GMT-0600 (Central Standard Time),684564.3000000119,B,enter,I,enter,6758,1,6764.0999999940395,677800.2000000179,8076,WL,C,13.0
6,26.024999856948853,distr,33975.00014305115,Wed Nov 05 2025 16:28:07 GMT-0600 (Central Standard Time),685164.0,B,enter,I,enter,593,1,599.4000000059605,684564.599999994,8076,WL,C,14.0
6,26.625,distr,33375.0,Wed Nov 05 2025 16:28:07 GMT-0600 (Central Standard Time),685763.900000006,B,enter,I,enter,586,1,599.5,685164.400000006,8076,WL,C,15.0
7,0.5169999599456787,immed,59483.00004005432,Wed Nov 05 2025 16:28:07 GMT-0600 (Central Standard Time),698743.099999994,A,c,I,c,507,1,516.5,698226.599999994,8076,WL,C,1.0
7,0.6510000228881836,immed,59348.99997711182,Wed Nov 05 2025 16:28:07 GMT-0600 (Central Standard Time),698876.5,A,ca,I,a,125,1,649.9000000059605,698226.599999994,8076,WL,C,1.0
7,0.7999999523162842,immed,59200.000047683716,Wed Nov 05 2025 16:28:07 GMT-0600 (Central Standard Time),699026.2000000179,A,cat,I,t,145,1,799.6000000238419,698226.599999994,8076,WL,C,1.0
7,0.9839999675750732,immed,59016.00003242493,Wed Nov 05 2025 16:28:07 GMT-0600 (Central Standard Time),699210.0,A,catt,I,t,162,1,983.4000000059605,698226.599999994,8076,WL,C,1.0
7,1.0840001106262207,immed,58915.99988937378,Wed Nov 05 2025 16:28:07 GMT-0600 (Central Standard Time),699309.599999994,A,cattl,I,l,83,1,1083.0,698226.599999994,8076,WL,C,1.0
7,1.2339999675750732,immed,58766.00003242493,Wed Nov 05 2025 16:28:07 GMT-0600 (Central Standard Time),699459.8000000119,A,cattle,I,e,143,1,1233.2000000178814,698226.599999994,8076,WL,C,1.0
7,1.4670000076293945,immed,58532.999992370605,Wed Nov 05 2025 16:28:07 GMT-0600 (Central Standard Time),699692.900000006,A,cattleenter,I,enter,218,1,1466.300000011921,698226.599999994,8076,WL,C,1.0
7,1.75,immed,58250.0,Wed Nov 05 2025 16:28:07 GMT-0600 (Central Standard Time),699976.099999994,A,c,I,c,273,1,282.7999999821186,699693.3000000119,8076,WL,C,2.0
7,1.8680000305175781,immed,58131.99996948242,Wed Nov 05 2025 16:28:07 GMT-0600 (Central Standard Time),700094.099999994,A,co,I,o,101,1,400.7999999821186,699693.3000000119,8076,WL,C,2.0
7,2.001000165939331,immed,57998.99983406067,Wed Nov 05 2025 16:28:07 GMT-0600 (Central Standard Time),700227.0,A,cor,I,r,112,1,533.6999999880791,699693.3000000119,8076,WL,C,2.0
7,2.133000135421753,immed,57866.99986457825,Wed Nov 05 2025 16:28:07 GMT-0600 (Central Standard Time),700359.400000006,A,corn,I,n,114,1,666.0999999940395,699693.3000000119,8076,WL,C,2.0
7,2.4170000553131104,immed,57582.99994468689,Wed Nov 05 2025 16:28:07 GMT-0600 (Central Standard Time),700642.599999994,A,cornenter,I,enter,270,1,949.2999999821186,699693.3000000119,8076,WL,C,2.0
7,2.6670000553131104,immed,57332.99994468689,Wed Nov 05 2025 16:28:07 GMT-0600 (Central Standard Time),700892.5,A,s,I,s,242,1,249.5,700643.0,8076,WL,C,3.0
7,2.7669999599456787,immed,57233.00004005432,Wed Nov 05 2025 16:28:07 GMT-0600 (Central Standard Time),700992.5,A,sh,I,h,81,1,349.5,700643.0,8076,WL,C,3.0
7,2.867000102996826,immed,57132.999897003174,Wed Nov 05 2025 16:28:07 GMT-0600 (Central Standard Time),701092.5,A,sho,I,o,93,1,449.5,700643.0,8076,WL,C,3.0
7,2.950000047683716,immed,57049.999952316284,Wed Nov 05 2025 16:28:07 GMT-0600 (Central Standard Time),701175.900000006,A,shor,I,r,65,1,532.9000000059605,700643.0,8076,WL,C,3.0
7,3.0169999599456787,immed,56983.00004005432,Wed Nov 05 2025 16:28:07 GMT-0600 (Central Standard Time),701242.8000000119,A,shore,I,e,61,1,599.8000000119209,700643.0,8076,WL,C,3.0
7,3.299999952316284,immed,56700.000047683716,Wed Nov 05 2025 16:28:07 GMT-0600 (Central Standard Time),701525.7000000179,A,shoreenter,I,enter,267,1,882.7000000178814,700643.0,8076,WL,C,3.0
7,3.578000068664551,immed,56421.99993133545,Wed Nov 05 2025 16:28:07 GMT-0600 (Central Standard Time),701803.900000006,A,b,I,b,274,1,277.90000000596046,701526.0,8076,WL,C,4.0
7,3.7250001430511475,immed,56274.99985694885,Wed Nov 05 2025 16:28:07 GMT-0600 (Central Standard Time),701951.0,A,bo,I,o,128,1,425.0,701526.0,8076,WL,C,4.0
7,3.8320000171661377,immed,56167.99998283386,Wed Nov 05 2025 16:28:07 GMT-0600 (Central Standard Time),702058.400000006,A,bod,I,d,102,1,532.4000000059605,701526.0,8076,WL,C,4.0
7,3.9660000801086426,immed,56033.99991989136,Wed Nov 05 2025 16:28:07 GMT-0600 (Central Standard Time),702192.2000000179,A,body,I,y,123,1,666.2000000178814,701526.0,8076,WL,C,4.0
7,4.266000032424927,immed,55733.99996757507,Wed Nov 05 2025 16:28:07 GMT-0600 (Central Standard Time),702492.0,A,bodyenter,I,enter,293,1,966.0,701526.0,8076,WL,C,4.0
7,5.598999977111816,immed,54401.00002288818,Wed Nov 05 2025 16:28:07 GMT-0600 (Central Standard Time),703824.900000006,A,b,I,b,1322,1,1332.5999999940395,702492.3000000119,8076,WL,C,5.0
7,5.716000080108643,immed,54283.99991989136,Wed Nov 05 2025 16:28:07 GMT-0600 (Central Standard Time),703941.8000000119,A,bo,I,o,101,1,1449.5,702492.3000000119,8076,WL,C,5.0
7,5.815999984741211,immed,54184.00001525879,Wed Nov 05 2025 16:28:07 GMT-0600 (Central Standard Time),704041.7000000179,A,boy,I,y,87,1,1549.4000000059605,702492.3000000119,8076,WL,C,5.0
7,6.182000160217285,immed,53817.999839782715,Wed Nov 05 2025 16:28:07 GMT-0600 (Central Standard Time),704408.3000000119,A,boyenter,I,enter,348,1,1916.0,702492.3000000119,8076,WL,C,5.0
7,7.232000112533569,immed,52767.99988746643,Wed Nov 05 2025 16:28:07 GMT-0600 (Central Standard Time),705457.5,A,h,I,h,1028,1,1048.9000000059605,704408.599999994,8076,WL,C,6.0
7,7.3480000495910645,immed,52651.999950408936,Wed Nov 05 2025 16:28:07 GMT-0600 (Central Standard Time),705574.400000006,A,ho,I,o,108,1,1165.800000011921,704408.599999994,8076,WL,C,6.0
7,7.465000152587891,immed,52534.99984741211,Wed Nov 05 2025 16:28:07 GMT-0600 (Central Standard Time),705691.0,A,hom,I,m,103,1,1282.4000000059605,704408.599999994,8076,WL,C,6.0
7,7.565000057220459,immed,52434.99994277954,Wed Nov 05 2025 16:28:07 GMT-0600 (Central Standard Time),705791.0,A,home,I,e,83,1,1382.4000000059605,704408.599999994,8076,WL,C,6.0
7,7.7820000648498535,immed,52217.99993515015,Wed Nov 05 2025 16:28:07 GMT-0600 (Central Standard Time),706007.7000000179,A,homeenter,I,enter,207,1,1599.1000000238419,704408.599999994,8076,WL,C,6.0
7,8.115000009536743,immed,51884.99999046326,Wed Nov 05 2025 16:28:07 GMT-0600 (Central Standard Time),706340.8000000119,A,d,I,d,326,1,332.7000000178814,706008.099999994,8076,WL,C,7.0
7,8.265000104904175,immed,51734.999895095825,Wed Nov 05 2025 16:28:07 GMT-0600 (Central Standard Time),706490.8000000119,A,do,I,o,137,1,482.7000000178814,706008.099999994,8076,WL,C,7.0
7,8.398000001907349,immed,51601.99999809265,Wed Nov 05 2025 16:28:07 GMT-0600 (Central Standard Time),706624.0,A,doc,I,c,115,1,615.9000000059605,706008.099999994,8076,WL,C,7.0
7,8.565000057220459,immed,51434.99994277954,Wed Nov 05 2025 16:28:07 GMT-0600 (Central Standard Time),706790.7000000179,A,doct,I,t,158,1,782.6000000238419,706008.099999994,8076,WL,C,7.0
7,8.664000034332275,immed,51335.999965667725,Wed Nov 05 2025 16:28:07 GMT-0600 (Central Standard Time),706890.3000000119,A,docto,I,o,87,1,882.2000000178814,706008.099999994,8076,WL,C,7.0
7,8.815000057220459,immed,51184.99994277954,Wed Nov 05 2025 16:28:07 GMT-0600 (Central Standard Time),707040.5,A,doctor,I,r,140,1,1032.4000000059605,706008.099999994,8076,WL,C,7.0
7,8.981000185012817,immed,51018.99981498718,Wed Nov 05 2025 16:28:07 GMT-0600 (Central Standard Time),707207.2000000179,A,doctorenter,I,enter,149,1,1199.1000000238419,706008.099999994,8076,WL,C,7.0
7,9.331000089645386,immed,50668.999910354614,Wed Nov 05 2025 16:28:07 GMT-0600 (Central Standard Time),707557.3000000119,A,c,I,c,342,1,349.7000000178814,707207.599999994,8076,WL,C,8.0
7,9.430999994277954,immed,50569.000005722046,Wed Nov 05 2025 16:28:07 GMT-0600 (Central Standard Time),707657.099999994,A,ca,I,a,88,1,449.5,707207.599999994,8076,WL,C,8.0
7,9.564000129699707,immed,50435.99987030029,Wed Nov 05 2025 16:28:07 GMT-0600 (Central Standard Time),707790.400000006,A,cam,I,m,115,1,582.8000000119209,707207.599999994,8076,WL,C,8.0
7,9.648000001907349,immed,50351.99999809265,Wed Nov 05 2025 16:28:07 GMT-0600 (Central Standard Time),707873.599999994,A,camp,I,p,63,1,666.0,707207.599999994,8076,WL,C,8.0
7,10.014000177383423,immed,49985.99982261658,Wed Nov 05 2025 16:28:07 GMT-0600 (Central Standard Time),708240.5,A,campenter,I,enter,355,1,1032.9000000059605,707207.599999994,8076,WL,C,8.0
7,10.364000082015991,immed,49635.99991798401,Wed Nov 05 2025 16:28:07 GMT-0600 (Central Standard Time),708590.2000000179,A,l,I,l,333,1,349.30000001192093,708240.900000006,8076,WL,C,9.0
7,10.430999994277954,immed,49569.000005722046,Wed Nov 05 2025 16:28:07 GMT-0600 (Central Standard Time),708656.900000006,A,le,I,e,56,1,416.0,708240.900000006,8076,WL,C,9.0
7,10.514000177383423,immed,49485.99982261658,Wed Nov 05 2025 16:28:07 GMT-0600 (Central Standard Time),708739.8000000119,A,let,I,t,77,1,498.90000000596046,708240.900000006,8076,WL,C,9.0
