block_c,block_dur,condition,countdown,datetime,endtime,list,multichar_response,project,response,response_time,session_number,start_end,starttime,subject_id,task,task_vers,trial
,,,,Wed Jan 07 2026 16:48:57 GMT-0600 (Central Standard Time),,,,I,space,599,2,,,8076,WL,B,
prac,,0,,Wed Jan 07 2026 16:48:57 GMT-0600 (Central Standard Time),,NA,b,I,b,2377,2,,,8076,WL,B,1.0
prac,,0,,Wed Jan 07 2026 16:48:57 GMT-0600 (Central Standard Time),,NA,bo,I,o,444,2,,,8076,WL,B,1.0
prac,,0,,Wed Jan 07 2026 16:48:57 GMT-0600 (Central Standard Time),,NA,boo,I,o,371,2,,,8076,WL,B,1.0
prac,,0,,Wed Jan 07 2026 16:48:57 GMT-0600 (Central Standard Time),,NA,boos,I,s,211,2,,,8076,WL,B,1.0
prac,,0,,Wed Jan 07 2026 16:48:57 GMT-0600 (Central Standard Time),,NA,boost,I,t,235,2,,,8076,WL,B,1.0
prac,,0,,Wed Jan 07 2026 16:48:57 GMT-0600 (Central Standard Time),,NA,boostenter,I,enter,422,2,,,8076,WL,B,1.0
1,1.183000087738037,learn,58816.99991226196,Wed Jan 07 2026 16:48:57 GMT-0600 (Central Standard Time),95169.19999992847,A,s,I,s,1169,2,1182.6000000238419,93986.59999990463,8076,WL,B,1.0
1,1.3659999370574951,learn,58634.000062942505,Wed Jan 07 2026 16:48:57 GMT-0600 (Central Standard Time),95352.59999990463,A,sk,I,k,176,2,1366.0,93986.59999990463,8076,WL,B,1.0
1,1.7160000801086426,learn,58283.99991989136,Wed Jan 07 2026 16:48:57 GMT-0600 (Central Standard Time),95702.39999997616,A,ski,I,i,329,2,1715.8000000715256,93986.59999990463,8076,WL,B,1.0
1,2.0989999771118164,learn,57901.00002288818,Wed Jan 07 2026 16:48:57 GMT-0600 (Central Standard Time),96085.5,A,skin,I,n,373,2,2098.9000000953674,93986.59999990463,8076,WL,B,1.0
1,2.5160000324249268,learn,57483.99996757507,Wed Jan 07 2026 16:48:57 GMT-0600 (Central Standard Time),96502.09999990463,A,skinenter,I,enter,398,2,2515.5,93986.59999990463,8076,WL,B,1.0
1,2.9660000801086426,learn,57033.99991989136,Wed Jan 07 2026 16:48:57 GMT-0600 (Central Standard Time),96952.19999992847,A,f,I,f,437,2,449.6999999284744,96502.5,8076,WL,B,2.0
1,3.131999969482422,learn,56868.00003051758,Wed Jan 07 2026 16:48:57 GMT-0600 (Central Standard Time),97118.59999990463,A,fi,I,i,155,2,616.0999999046326,96502.5,8076,WL,B,2.0
1,3.365000009536743,learn,56634.99999046326,Wed Jan 07 2026 16:48:57 GMT-0600 (Central Standard Time),97352.0,A,fir,I,r,212,2,849.5,96502.5,8076,WL,B,2.0
1,3.431999921798706,learn,56568.000078201294,Wed Jan 07 2026 16:48:57 GMT-0600 (Central Standard Time),97418.39999997616,A,fire,I,e,51,2,915.8999999761581,96502.5,8076,WL,B,2.0
1,3.7320001125335693,learn,56267.99988746643,Wed Jan 07 2026 16:48:57 GMT-0600 (Central Standard Time),97718.29999995232,A,fireenter,I,enter,281,2,1215.7999999523163,96502.5,8076,WL,B,2.0
1,4.181999921798706,learn,55818.000078201294,Wed Jan 07 2026 16:48:57 GMT-0600 (Central Standard Time),98168.39999997616,A,c,I,c,428,2,449.60000002384186,97718.79999995232,8076,WL,B,3.0
1,4.332000017166138,learn,55667.99998283386,Wed Jan 07 2026 16:48:57 GMT-0600 (Central Standard Time),98318.29999995232,A,cl,I,l,130,2,599.5,97718.79999995232,8076,WL,B,3.0
1,4.515000104904175,learn,55484.999895095825,Wed Jan 07 2026 16:48:57 GMT-0600 (Central Standard Time),98501.39999997616,A,clo,I,o,172,2,782.6000000238419,97718.79999995232,8076,WL,B,3.0
1,4.631999969482422,learn,55368.00003051758,Wed Jan 07 2026 16:48:57 GMT-0600 (Central Standard Time),98618.19999992847,A,cloc,I,c,102,2,899.3999999761581,97718.79999995232,8076,WL,B,3.0
1,4.7820000648498535,learn,55217.99993515015,Wed Jan 07 2026 16:48:57 GMT-0600 (Central Standard Time),98768.09999990463,A,clock,I,k,138,2,1049.2999999523163,97718.79999995232,8076,WL,B,3.0
1,5.197999954223633,learn,54802.00004577637,Wed Jan 07 2026 16:48:57 GMT-0600 (Central Standard Time),99184.29999995232,A,clockenter,I,enter,411,2,1465.5,97718.79999995232,8076,WL,B,3.0
1,5.664999961853027,learn,54335.00003814697,Wed Jan 07 2026 16:48:57 GMT-0600 (Central Standard Time),99651.19999992847,A,s,I,s,458,2,466.60000002384186,99184.59999990463,8076,WL,B,4.0
1,5.831000089645386,learn,54168.999910354614,Wed Jan 07 2026 16:48:57 GMT-0600 (Central Standard Time),99817.79999995232,A,st,I,t,160,2,633.2000000476837,99184.59999990463,8076,WL,B,4.0
1,6.04800009727478,learn,53951.99990272522,Wed Jan 07 2026 16:48:57 GMT-0600 (Central Standard Time),100034.19999992847,A,str,I,r,201,2,849.6000000238419,99184.59999990463,8076,WL,B,4.0
1,6.0980000495910645,learn,53901.999950408936,Wed Jan 07 2026 16:48:57 GMT-0600 (Central Standard Time),100084.29999995232,A,stre,I,e,33,2,899.7000000476837,99184.59999990463,8076,WL,B,4.0
1,6.29800009727478,learn,53701.99990272522,Wed Jan 07 2026 16:48:57 GMT-0600 (Central Standard Time),100284.29999995232,A,stree,I,e,182,2,1099.7000000476837,99184.59999990463,8076,WL,B,4.0
1,6.365000009536743,learn,53634.99999046326,Wed Jan 07 2026 16:48:57 GMT-0600 (Central Standard Time),100351.0,A,street,I,t,54,2,1166.4000000953674,99184.59999990463,8076,WL,B,4.0
1,6.63100004196167,learn,53368.99995803833,Wed Jan 07 2026 16:48:57 GMT-0600 (Central Standard Time),100617.5,A,streetenter,I,enter,252,2,1432.9000000953674,99184.59999990463,8076,WL,B,4.0
1,6.96399998664856,learn,53036.00001335144,Wed Jan 07 2026 16:48:57 GMT-0600 (Central Standard Time),100950.59999990463,A,g,I,g,314,2,332.7999999523163,100617.79999995232,8076,WL,B,5.0
1,7.164000034332275,learn,52835.999965667725,Wed Jan 07 2026 16:48:57 GMT-0600 (Central Standard Time),101150.5,A,gr,I,r,189,2,532.7000000476837,100617.79999995232,8076,WL,B,5.0
1,7.281000137329102,learn,52718.9998626709,Wed Jan 07 2026 16:48:57 GMT-0600 (Central Standard Time),101267.29999995232,A,gra,I,a,102,2,649.5,100617.79999995232,8076,WL,B,5.0
1,7.46399998664856,learn,52536.00001335144,Wed Jan 07 2026 16:48:57 GMT-0600 (Central Standard Time),101450.5,A,gras,I,s,176,2,832.7000000476837,100617.79999995232,8076,WL,B,5.0
1,7.765000104904175,learn,52234.999895095825,Wed Jan 07 2026 16:48:57 GMT-0600 (Central Standard Time),101751.59999990463,A,grass,I,s,289,2,1133.7999999523163,100617.79999995232,8076,WL,B,5.0
1,8.513999938964844,learn,51486.000061035156,Wed Jan 07 2026 16:48:57 GMT-0600 (Central Standard Time),102500.39999997616,A,grassenter,I,enter,740,2,1882.6000000238419,100617.79999995232,8076,WL,B,5.0
1,9.713000059127808,learn,50286.99994087219,Wed Jan 07 2026 16:48:57 GMT-0600 (Central Standard Time),103699.79999995232,A,d,I,d,1182,2,1199.0,102500.79999995232,8076,WL,B,6.0
1,9.930000066757202,learn,50069.9999332428,Wed Jan 07 2026 16:48:57 GMT-0600 (Central Standard Time),103916.79999995232,A,do,I,o,200,2,1416.0,102500.79999995232,8076,WL,B,6.0
1,10.114000082015991,learn,49885.99991798401,Wed Jan 07 2026 16:48:57 GMT-0600 (Central Standard Time),104100.0,A,doo,I,o,166,2,1599.2000000476837,102500.79999995232,8076,WL,B,6.0
1,10.763000011444092,learn,49236.99998855591,Wed Jan 07 2026 16:48:57 GMT-0600 (Central Standard Time),104749.5,A,door,I,r,632,2,2248.7000000476837,102500.79999995232,8076,WL,B,6.0
1,11.013000011444092,learn,48986.99998855591,Wed Jan 07 2026 16:48:57 GMT-0600 (Central Standard Time),104999.29999995232,A,doorenter,I,enter,230,2,2498.5,102500.79999995232,8076,WL,B,6.0
1,11.263000011444092,learn,48736.99998855591,Wed Jan 07 2026 16:48:57 GMT-0600 (Central Standard Time),105249.79999995232,A,a,I,a,228,2,250.10000002384186,104999.69999992847,8076,WL,B,7.0
1,11.36300015449524,learn,48636.99984550476,Wed Jan 07 2026 16:48:57 GMT-0600 (Central Standard Time),105349.39999997616,A,ar,I,r,90,2,349.7000000476837,104999.69999992847,8076,WL,B,7.0
1,11.630000114440918,learn,48369.99988555908,Wed Jan 07 2026 16:48:57 GMT-0600 (Central Standard Time),105616.09999990463,A,arm,I,m,254,2,616.3999999761581,104999.69999992847,8076,WL,B,7.0
1,11.979000091552734,learn,48020.999908447266,Wed Jan 07 2026 16:48:57 GMT-0600 (Central Standard Time),105965.69999992847,A,armenter,I,enter,341,2,966.0,104999.69999992847,8076,WL,B,7.0
1,12.246000051498413,learn,47753.99994850159,Wed Jan 07 2026 16:48:57 GMT-0600 (Central Standard Time),106232.39999997616,A,s,I,s,254,2,266.3000000715256,105966.09999990463,8076,WL,B,8.0
1,12.345999956130981,learn,47654.00004386902,Wed Jan 07 2026 16:48:57 GMT-0600 (Central Standard Time),106332.39999997616,A,st,I,t,83,2,366.3000000715256,105966.09999990463,8076,WL,B,8.0
1,12.463000059127808,learn,47536.99994087219,Wed Jan 07 2026 16:48:57 GMT-0600 (Central Standard Time),106449.39999997616,A,sta,I,a,104,2,483.3000000715256,105966.09999990463,8076,WL,B,8.0
1,12.61300015449524,learn,47386.99984550476,Wed Jan 07 2026 16:48:57 GMT-0600 (Central Standard Time),106599.19999992847,A,star,I,r,130,2,633.1000000238419,105966.09999990463,8076,WL,B,8.0
1,13.378999948501587,learn,46621.00005149841,Wed Jan 07 2026 16:48:57 GMT-0600 (Central Standard Time),107365.39999997616,A,starenter,I,enter,749,2,1399.3000000715256,105966.09999990463,8076,WL,B,8.0
1,13.712000131607056,learn,46287.999868392944,Wed Jan 07 2026 16:48:57 GMT-0600 (Central Standard Time),107698.19999992847,A,w,I,w,326,2,332.2999999523163,107365.89999997616,8076,WL,B,9.0
1,13.861999988555908,learn,46138.00001144409,Wed Jan 07 2026 16:48:57 GMT-0600 (Central Standard Time),107848.19999992847,A,wi,I,i,137,2,482.2999999523163,107365.89999997616,8076,WL,B,9.0
1,14.062000036239624,learn,45937.999963760376,Wed Jan 07 2026 16:48:57 GMT-0600 (Central Standard Time),108048.09999990463,A,wif,I,f,179,2,682.1999999284744,107365.89999997616,8076,WL,B,9.0
1,14.128000020980835,learn,45871.999979019165,Wed Jan 07 2026 16:48:57 GMT-0600 (Central Standard Time),108114.69999992847,A,wife,I,e,59,2,748.7999999523163,107365.89999997616,8076,WL,B,9.0
1,14.811000108718872,learn,45188.99989128113,Wed Jan 07 2026 16:48:57 GMT-0600 (Central Standard Time),108797.89999997616,A,wifeenter,I,enter,664,2,1432.0,107365.89999997616,8076,WL,B,9.0
1,15.144999980926514,learn,44855.000019073486,Wed Jan 07 2026 16:48:57 GMT-0600 (Central Standard Time),109131.09999990463,A,c,I,c,325,2,332.89999997615814,108798.19999992847,8076,WL,B,10.0
1,15.295000076293945,learn,44704.999923706055,Wed Jan 07 2026 16:48:57 GMT-0600 (Central Standard Time),109281.09999990463,A,ci,I,i,144,2,482.89999997615814,108798.19999992847,8076,WL,B,10.0
1,15.444999933242798,learn,44555.0000667572,Wed Jan 07 2026 16:48:57 GMT-0600 (Central Standard Time),109431.29999995232,A,cit,I,t,130,2,633.1000000238419,108798.19999992847,8076,WL,B,10.0
1,15.628000020980835,learn,44371.999979019165,Wed Jan 07 2026 16:48:57 GMT-0600 (Central Standard Time),109614.59999990463,A,city,I,y,172,2,816.3999999761581,108798.19999992847,8076,WL,B,10.0
1,15.962000131607056,learn,44037.999868392944,Wed Jan 07 2026 16:48:57 GMT-0600 (Central Standard Time),109948.09999990463,A,cityenter,I,enter,318,2,1149.8999999761581,108798.19999992847,8076,WL,B,10.0
1,16.17799997329712,learn,43822.00002670288,Wed Jan 07 2026 16:48:57 GMT-0600 (Central Standard Time),110164.39999997616,A,w,I,w,207,2,215.89999997615814,109948.5,8076,WL,B,11.0
1,16.295000076293945,learn,43704.999923706055,Wed Jan 07 2026 16:48:57 GMT-0600 (Central Standard Time),110281.09999990463,A,wi,I,i,96,2,332.59999990463257,109948.5,8076,WL,B,11.0
1,16.42799997329712,learn,43572.00002670288,Wed Jan 07 2026 16:48:57 GMT-0600 (Central Standard Time),110414.5,A,win,I,n,123,2,466.0,109948.5,8076,WL,B,11.0
1,16.844000101089478,learn,43155.99989891052,Wed Jan 07 2026 16:48:57 GMT-0600 (Central Standard Time),110830.79999995232,A,wind,I,d,406,2,882.2999999523163,109948.5,8076,WL,B,11.0
1,17.01099991798401,learn,42989.00008201599,Wed Jan 07 2026 16:48:57 GMT-0600 (Central Standard Time),110997.89999997616,A,windo,I,o,157,2,1049.3999999761581,109948.5,8076,WL,B,11.0
1,17.194000005722046,learn,42805.999994277954,Wed Jan 07 2026 16:48:57 GMT-0600 (Central Standard Time),111180.89999997616,A,window,I,w,166,2,1232.3999999761581,109948.5,8076,WL,B,11.0
1,17.427000045776367,learn,42572.99995422363,Wed Jan 07 2026 16:48:57 GMT-0600 (Central Standard Time),111414.0,A,windowenter,I,enter,224,2,1465.5,109948.5,8076,WL,B,11.0
1,17.811000108718872,learn,42188.99989128113,Wed Jan 07 2026 16:48:57 GMT-0600 (Central Standard Time),111797.29999995232,A,c,I,c,366,2,382.39999997615814,111414.89999997616,8076,WL,B,12.0
1,17.927000045776367,learn,42072.99995422363,Wed Jan 07 2026 16:48:57 GMT-0600 (Central Standard Time),111913.69999992847,A,ca,I,a,111,2,498.7999999523163,111414.89999997616,8076,WL,B,12.0
1,18.111000061035156,learn,41888.999938964844,Wed Jan 07 2026 16:48:57 GMT-0600 (Central Standard Time),112097.19999992847,A,cab,I,b,170,2,682.2999999523163,111414.89999997616,8076,WL,B,12.0
1,18.26099991798401,learn,41739.00008201599,Wed Jan 07 2026 16:48:57 GMT-0600 (Central Standard Time),112247.09999990463,A,cabi,I,i,130,2,832.1999999284744,111414.89999997616,8076,WL,B,12.0
1,18.34500002861023,learn,41654.99997138977,Wed Jan 07 2026 16:48:57 GMT-0600 (Central Standard Time),112331.5,A,cabin,I,n,77,2,916.6000000238419,111414.89999997616,8076,WL,B,12.0
1,19.30999994277954,learn,40690.00005722046,Wed Jan 07 2026 16:48:57 GMT-0600 (Central Standard Time),113296.89999997616,A,cabinenter,I,enter,953,2,1882.0,111414.89999997616,8076,WL,B,12.0
1,20.193000078201294,learn,39806.999921798706,Wed Jan 07 2026 16:48:57 GMT-0600 (Central Standard Time),114179.79999995232,A,p,I,p,875,2,882.6000000238419,113297.19999992847,8076,WL,B,13.0
1,20.39400005340576,learn,39605.99994659424,Wed Jan 07 2026 16:48:57 GMT-0600 (Central Standard Time),114380.59999990463,A,pu,I,u,185,2,1083.3999999761581,113297.19999992847,8076,WL,B,13.0
1,20.544000148773193,learn,39455.99985122681,Wed Jan 07 2026 16:48:57 GMT-0600 (Central Standard Time),114530.29999995232,A,pup,I,p,135,2,1233.1000000238419,113297.19999992847,8076,WL,B,13.0
1,20.97699999809265,learn,39023.00000190735,Wed Jan 07 2026 16:48:57 GMT-0600 (Central Standard Time),114963.09999990463,A,pupi,I,i,417,2,1665.8999999761581,113297.19999992847,8076,WL,B,13.0
1,21.243000030517578,learn,38756.99996948242,Wed Jan 07 2026 16:48:57 GMT-0600 (Central Standard Time),115229.59999990463,A,pupil,I,l,249,2,1932.3999999761581,113297.19999992847,8076,WL,B,13.0
1,21.960000038146973,learn,38039.99996185303,Wed Jan 07 2026 16:48:57 GMT-0600 (Central Standard Time),115946.29999995232,A,pupilenter,I,enter,702,2,2649.100000023842,113297.19999992847,8076,WL,B,13.0
1,23.657000064849854,learn,36342.99993515015,Wed Jan 07 2026 16:48:57 GMT-0600 (Central Standard Time),117645.39999997616,A,o,I,o,1689,2,1698.8000000715256,115946.59999990463,8076,WL,B,14.0
1,25.006999969482422,learn,34993.00003051758,Wed Jan 07 2026 16:48:57 GMT-0600 (Central Standard Time),118995.0,A,,I,backspace,1334,2,3048.4000000953674,115946.59999990463,8076,WL,B,14.0
1,25.805999994277954,learn,34194.000005722046,Wed Jan 07 2026 16:48:57 GMT-0600 (Central Standard Time),119794.39999997616,A,p,I,p,793,2,3847.8000000715256,115946.59999990463,8076,WL,B,14.0
1,26.19000005722046,learn,33809.99994277954,Wed Jan 07 2026 16:48:57 GMT-0600 (Central Standard Time),120178.39999997616,A,pi,I,i,369,2,4231.800000071526,115946.59999990463,8076,WL,B,14.0
1,26.373000144958496,learn,33626.999855041504,Wed Jan 07 2026 16:48:57 GMT-0600 (Central Standard Time),120361.39999997616,A,pip,I,p,169,2,4414.800000071526,115946.59999990463,8076,WL,B,14.0
1,26.92300009727478,learn,33076.99990272522,Wed Jan 07 2026 16:48:57 GMT-0600 (Central Standard Time),120911.19999992847,A,pipe,I,e,530,2,4964.600000023842,115946.59999990463,8076,WL,B,14.0
1,27.473000049591064,learn,32526.999950408936,Wed Jan 07 2026 16:48:57 GMT-0600 (Central Standard Time),121461.09999990463,A,pipel,I,l,533,2,5514.5,115946.59999990463,8076,WL,B,14.0
1,28.1560001373291,learn,31843.9998626709,Wed Jan 07 2026 16:48:57 GMT-0600 (Central Standard Time),122144.39999997616,A,pipe,I,backspace,662,2,6197.800000071526,115946.59999990463,8076,WL,B,14.0
1,29.039000034332275,learn,30960.999965667725,Wed Jan 07 2026 16:48:57 GMT-0600 (Central Standard Time),123027.19999992847,A,pipeenter,I,enter,867,2,7080.600000023842,115946.59999990463,8076,WL,B,14.0
1,29.57200002670288,learn,30427.99997329712,Wed Jan 07 2026 16:48:57 GMT-0600 (Central Standard Time),123560.19999992847,A,l,I,l,520,2,532.6000000238419,123027.59999990463,8076,WL,B,15.0
1,29.689000129699707,learn,30310.999870300293,Wed Jan 07 2026 16:48:57 GMT-0600 (Central Standard Time),123677.0,A,la,I,a,99,2,649.4000000953674,123027.59999990463,8076,WL,B,15.0
1,30.138999938964844,learn,29861.000061035156,Wed Jan 07 2026 16:48:57 GMT-0600 (Central Standard Time),124126.89999997616,A,lak,I,k,439,2,1099.3000000715256,123027.59999990463,8076,WL,B,15.0
1,30.338000059127808,learn,29661.999940872192,Wed Jan 07 2026 16:48:57 GMT-0600 (Central Standard Time),124326.59999990463,A,lake,I,e,182,2,1299.0,123027.59999990463,8076,WL,B,15.0
1,30.538000106811523,learn,29461.999893188477,Wed Jan 07 2026 16:48:57 GMT-0600 (Central Standard Time),124526.89999997616,A,lakeenter,I,enter,181,2,1499.3000000715256,123027.59999990463,8076,WL,B,15.0
2,0.5499999523162842,learn,59450.000047683716,Wed Jan 07 2026 16:48:57 GMT-0600 (Central Standard Time),195754.69999992847,A,s,I,s,536,2,550.0,195204.69999992847,8076,WL,B,1.0
2,0.7330000400543213,learn,59266.99995994568,Wed Jan 07 2026 16:48:57 GMT-0600 (Central Standard Time),195937.5,A,sk,I,k,169,2,732.8000000715256,195204.69999992847,8076,WL,B,1.0
2,0.9500000476837158,learn,59049.999952316284,Wed Jan 07 2026 16:48:57 GMT-0600 (Central Standard Time),196154.09999990463,A,ski,I,i,211,2,949.3999999761581,195204.69999992847,8076,WL,B,1.0
2,1.1000001430511475,learn,58899.99985694885,Wed Jan 07 2026 16:48:57 GMT-0600 (Central Standard Time),196304.19999992847,A,skin,I,n,138,2,1099.5,195204.69999992847,8076,WL,B,1.0
2,1.434000015258789,learn,58565.99998474121,Wed Jan 07 2026 16:48:57 GMT-0600 (Central Standard Time),196637.79999995232,A,skinenter,I,enter,324,2,1433.1000000238419,195204.69999992847,8076,WL,B,1.0
2,2.4160001277923584,learn,57583.99987220764,Wed Jan 07 2026 16:48:57 GMT-0600 (Central Standard Time),197620.29999995232,A,f,I,f,967,2,982.2000000476837,196638.09999990463,8076,WL,B,2.0
2,2.5989999771118164,learn,57401.00002288818,Wed Jan 07 2026 16:48:57 GMT-0600 (Central Standard Time),197803.59999990463,A,fi,I,i,168,2,1165.5,196638.09999990463,8076,WL,B,2.0
2,2.8329999446868896,learn,57167.00005531311,Wed Jan 07 2026 16:48:57 GMT-0600 (Central Standard Time),198036.89999997616,A,fir,I,r,224,2,1398.8000000715256,196638.09999990463,8076,WL,B,2.0
2,2.883000135421753,learn,57116.99986457825,Wed Jan 07 2026 16:48:57 GMT-0600 (Central Standard Time),198087.19999992847,A,fire,I,e,38,2,1449.1000000238419,196638.09999990463,8076,WL,B,2.0
2,4.315999984741211,learn,55684.00001525879,Wed Jan 07 2026 16:48:57 GMT-0600 (Central Standard Time),199519.79999995232,A,fireenter,I,enter,1421,2,2881.7000000476837,196638.09999990463,8076,WL,B,2.0
2,4.799000024795532,learn,55200.99997520447,Wed Jan 07 2026 16:48:57 GMT-0600 (Central Standard Time),200003.09999990463,A,c,I,c,476,2,482.89999997615814,199520.19999992847,8076,WL,B,3.0
2,5.54800009727478,learn,54451.99990272522,Wed Jan 07 2026 16:48:57 GMT-0600 (Central Standard Time),200752.5,A,cl,I,l,744,2,1232.3000000715256,199520.19999992847,8076,WL,B,3.0
2,5.765000104904175,learn,54234.999895095825,Wed Jan 07 2026 16:48:57 GMT-0600 (Central Standard Time),200969.5,A,clo,I,o,196,2,1449.3000000715256,199520.19999992847,8076,WL,B,3.0
2,5.881999969482422,learn,54118.00003051758,Wed Jan 07 2026 16:48:57 GMT-0600 (Central Standard Time),201086.09999990463,A,cloc,I,c,107,2,1565.8999999761581,199520.19999992847,8076,WL,B,3.0
2,6.115000009536743,learn,53884.99999046326,Wed Jan 07 2026 16:48:57 GMT-0600 (Central Standard Time),201319.39999997616,A,clock,I,k,221,2,1799.2000000476837,199520.19999992847,8076,WL,B,3.0
2,6.680999994277954,learn,53319.000005722046,Wed Jan 07 2026 16:48:57 GMT-0600 (Central Standard Time),201885.59999990463,A,clockenter,I,enter,556,2,2365.399999976158,199520.19999992847,8076,WL,B,3.0
2,7.748000144958496,learn,52251.999855041504,Wed Jan 07 2026 16:48:57 GMT-0600 (Central Standard Time),202952.0,A,w,I,w,1062,2,1066.1000000238419,201885.89999997616,8076,WL,B,4.0
2,7.88100004196167,learn,52118.99995803833,Wed Jan 07 2026 16:48:57 GMT-0600 (Central Standard Time),203085.5,A,wi,I,i,115,2,1199.6000000238419,201885.89999997616,8076,WL,B,4.0
2,8.013999938964844,learn,51986.000061035156,Wed Jan 07 2026 16:48:57 GMT-0600 (Central Standard Time),203218.69999992847,A,wif,I,f,118,2,1332.7999999523163,201885.89999997616,8076,WL,B,4.0
2,8.281000137329102,learn,51718.9998626709,Wed Jan 07 2026 16:48:57 GMT-0600 (Central Standard Time),203485.39999997616,A,wife,I,e,257,2,1599.5,201885.89999997616,8076,WL,B,4.0
2,8.581000089645386,learn,51418.999910354614,Wed Jan 07 2026 16:48:57 GMT-0600 (Central Standard Time),203785.29999995232,A,wifeenter,I,enter,287,2,1899.3999999761581,201885.89999997616,8076,WL,B,4.0
2,8.864000082015991,learn,51135.99991798401,Wed Jan 07 2026 16:48:57 GMT-0600 (Central Standard Time),204068.5,A,s,I,s,275,2,282.90000009536743,203785.59999990463,8076,WL,B,5.0
2,9.147000074386597,learn,50852.9999256134,Wed Jan 07 2026 16:48:57 GMT-0600 (Central Standard Time),204351.69999992847,A,st,I,t,271,2,566.1000000238419,203785.59999990463,8076,WL,B,5.0
2,9.281000137329102,learn,50718.9998626709,Wed Jan 07 2026 16:48:57 GMT-0600 (Central Standard Time),204485.0,A,sta,I,a,123,2,699.4000000953674,203785.59999990463,8076,WL,B,5.0
2,9.397000074386597,learn,50602.9999256134,Wed Jan 07 2026 16:48:57 GMT-0600 (Central Standard Time),204601.59999990463,A,star,I,r,110,2,816.0,203785.59999990463,8076,WL,B,5.0
2,9.614000082015991,learn,50385.99991798401,Wed Jan 07 2026 16:48:57 GMT-0600 (Central Standard Time),204818.09999990463,A,starenter,I,enter,203,2,1032.5,203785.59999990463,8076,WL,B,5.0
2,9.880000114440918,learn,50119.99988555908,Wed Jan 07 2026 16:48:57 GMT-0600 (Central Standard Time),205084.59999990463,A,c,I,c,259,2,266.1999999284744,204818.39999997616,8076,WL,B,6.0
2,9.996999979019165,learn,50003.000020980835,Wed Jan 07 2026 16:48:57 GMT-0600 (Central Standard Time),205201.39999997616,A,ci,I,i,111,2,383.0,204818.39999997616,8076,WL,B,6.0
2,10.130000114440918,learn,49869.99988555908,Wed Jan 07 2026 16:48:57 GMT-0600 (Central Standard Time),205334.59999990463,A,cit,I,t,114,2,516.1999999284744,204818.39999997616,8076,WL,B,6.0
2,10.263999938964844,learn,49736.000061035156,Wed Jan 07 2026 16:48:57 GMT-0600 (Central Standard Time),205468.09999990463,A,city,I,y,125,2,649.6999999284744,204818.39999997616,8076,WL,B,6.0
2,10.562999963760376,learn,49437.000036239624,Wed Jan 07 2026 16:48:57 GMT-0600 (Central Standard Time),205767.69999992847,A,cityenter,I,enter,279,2,949.2999999523163,204818.39999997616,8076,WL,B,6.0
2,10.880000114440918,learn,49119.99988555908,Wed Jan 07 2026 16:48:57 GMT-0600 (Central Standard Time),206084.59999990463,A,w,I,w,300,2,316.5,205768.09999990463,8076,WL,B,7.0
2,11.013000011444092,learn,48986.99998855591,Wed Jan 07 2026 16:48:57 GMT-0600 (Central Standard Time),206217.79999995232,A,wi,I,i,119,2,449.7000000476837,205768.09999990463,8076,WL,B,7.0
2,11.147000074386597,learn,48852.9999256134,Wed Jan 07 2026 16:48:57 GMT-0600 (Central Standard Time),206351.09999990463,A,win,I,n,114,2,583.0,205768.09999990463,8076,WL,B,7.0
2,11.347000122070312,learn,48652.99987792969,Wed Jan 07 2026 16:48:57 GMT-0600 (Central Standard Time),206551.0,A,wind,I,d,180,2,782.9000000953674,205768.09999990463,8076,WL,B,7.0
2,11.513000011444092,learn,48486.99998855591,Wed Jan 07 2026 16:48:57 GMT-0600 (Central Standard Time),206717.69999992847,A,windo,I,o,149,2,949.6000000238419,205768.09999990463,8076,WL,B,7.0
2,11.680000066757202,learn,48319.9999332428,Wed Jan 07 2026 16:48:57 GMT-0600 (Central Standard Time),206884.29999995232,A,window,I,w,158,2,1116.2000000476837,205768.09999990463,8076,WL,B,7.0
2,11.94700002670288,learn,48052.99997329712,Wed Jan 07 2026 16:48:57 GMT-0600 (Central Standard Time),207150.89999997616,A,windowenter,I,enter,247,2,1382.8000000715256,205768.09999990463,8076,WL,B,7.0
2,12.296000003814697,learn,47703.9999961853,Wed Jan 07 2026 16:48:57 GMT-0600 (Central Standard Time),207500.69999992847,A,s,I,s,342,2,349.60000002384186,207151.09999990463,8076,WL,B,8.0
2,12.413000106811523,learn,47586.99989318848,Wed Jan 07 2026 16:48:57 GMT-0600 (Central Standard Time),207616.89999997616,A,st,I,t,110,2,465.8000000715256,207151.09999990463,8076,WL,B,8.0
2,12.595999956130981,learn,47404.00004386902,Wed Jan 07 2026 16:48:57 GMT-0600 (Central Standard Time),207800.59999990463,A,str,I,r,172,2,649.5,207151.09999990463,8076,WL,B,8.0
2,12.630000114440918,learn,47369.99988555908,Wed Jan 07 2026 16:48:57 GMT-0600 (Central Standard Time),207834.0,A,stre,I,e,27,2,682.9000000953674,207151.09999990463,8076,WL,B,8.0
2,12.812999963760376,learn,47187.000036239624,Wed Jan 07 2026 16:48:57 GMT-0600 (Central Standard Time),208017.39999997616,A,stree,I,e,171,2,866.3000000715256,207151.09999990463,8076,WL,B,8.0
2,12.880000114440918,learn,47119.99988555908,Wed Jan 07 2026 16:48:57 GMT-0600 (Central Standard Time),208084.09999990463,A,street,I,t,50,2,933.0,207151.09999990463,8076,WL,B,8.0
2,13.095999956130981,learn,46904.00004386902,Wed Jan 07 2026 16:48:57 GMT-0600 (Central Standard Time),208300.5,A,streetenter,I,enter,200,2,1149.4000000953674,207151.09999990463,8076,WL,B,8.0
2,13.396000146865845,learn,46603.999853134155,Wed Jan 07 2026 16:48:57 GMT-0600 (Central Standard Time),208600.5,A,g,I,g,287,2,299.60000002384186,208300.89999997616,8076,WL,B,9.0
2,13.578999996185303,learn,46421.0000038147,Wed Jan 07 2026 16:48:57 GMT-0600 (Central Standard Time),208783.79999995232,A,gr,I,r,172,2,482.89999997615814,208300.89999997616,8076,WL,B,9.0
2,13.646000146865845,learn,46353.999853134155,Wed Jan 07 2026 16:48:57 GMT-0600 (Central Standard Time),208850.19999992847,A,gra,I,a,60,2,549.2999999523163,208300.89999997616,8076,WL,B,9.0
2,13.746000051498413,learn,46253.99994850159,Wed Jan 07 2026 16:48:57 GMT-0600 (Central Standard Time),208950.39999997616,A,gras,I,s,81,2,649.5,208300.89999997616,8076,WL,B,9.0
2,13.946000099182129,learn,46053.99990081787,Wed Jan 07 2026 16:48:57 GMT-0600 (Central Standard Time),209150.29999995232,A,grass,I,s,181,2,849.3999999761581,208300.89999997616,8076,WL,B,9.0
2,14.212000131607056,learn,45787.999868392944,Wed Jan 07 2026 16:48:57 GMT-0600 (Central Standard Time),209416.39999997616,A,grassenter,I,enter,261,2,1115.5,208300.89999997616,8076,WL,B,9.0
2,14.845999956130981,learn,45154.00004386902,Wed Jan 07 2026 16:48:57 GMT-0600 (Central Standard Time),210050.0,A,a,I,a,628,2,633.3000000715256,209416.69999992847,8076,WL,B,10.0
2,15.628999948501587,learn,44371.00005149841,Wed Jan 07 2026 16:48:57 GMT-0600 (Central Standard Time),210833.0,A,ar,I,r,762,2,1416.3000000715256,209416.69999992847,8076,WL,B,10.0
2,15.779000043869019,learn,44220.99995613098,Wed Jan 07 2026 16:48:57 GMT-0600 (Central Standard Time),210983.0,A,arm,I,m,130,2,1566.3000000715256,209416.69999992847,8076,WL,B,10.0
2,16.078999996185303,learn,43921.0000038147,Wed Jan 07 2026 16:48:57 GMT-0600 (Central Standard Time),211283.19999992847,A,armenter,I,enter,292,2,1866.5,209416.69999992847,8076,WL,B,10.0
2,16.32800006866455,learn,43671.99993133545,Wed Jan 07 2026 16:48:57 GMT-0600 (Central Standard Time),211532.59999990463,A,d,I,d,233,2,249.19999992847443,211283.39999997616,8076,WL,B,11.0
2,16.49500012397766,learn,43504.99987602234,Wed Jan 07 2026 16:48:57 GMT-0600 (Central Standard Time),211699.19999992847,A,do,I,o,151,2,415.7999999523163,211283.39999997616,8076,WL,B,11.0
2,16.644999980926514,learn,43355.000019073486,Wed Jan 07 2026 16:48:57 GMT-0600 (Central Standard Time),211848.89999997616,A,doo,I,o,144,2,565.5,211283.39999997616,8076,WL,B,11.0
2,16.778000116348267,learn,43221.99988365173,Wed Jan 07 2026 16:48:57 GMT-0600 (Central Standard Time),211982.59999990463,A,door,I,r,123,2,699.1999999284744,211283.39999997616,8076,WL,B,11.0
2,17.34500002861023,learn,42654.99997138977,Wed Jan 07 2026 16:48:57 GMT-0600 (Central Standard Time),212549.09999990463,A,doorenter,I,enter,549,2,1265.6999999284744,211283.39999997616,8076,WL,B,11.0
2,24.659000158309937,learn,35340.99984169006,Wed Jan 07 2026 16:48:57 GMT-0600 (Central Standard Time),219863.09999990463,A,c,I,c,7303,2,7313.699999928474,212549.39999997616,8076,WL,B,12.0
2,24.759000062942505,learn,35240.999937057495,Wed Jan 07 2026 16:48:57 GMT-0600 (Central Standard Time),219963.39999997616,A,ca,I,a,85,2,7414.0,212549.39999997616,8076,WL,B,12.0
2,24.909000158309937,learn,35090.99984169006,Wed Jan 07 2026 16:48:57 GMT-0600 (Central Standard Time),220113.29999995232,A,cab,I,b,144,2,7563.899999976158,212549.39999997616,8076,WL,B,12.0
2,25.108999967575073,learn,34891.00003242493,Wed Jan 07 2026 16:48:57 GMT-0600 (Central Standard Time),220313.0,A,cabi,I,i,194,2,7763.600000023842,212549.39999997616,8076,WL,B,12.0
2,25.20900011062622,learn,34790.99988937378,Wed Jan 07 2026 16:48:57 GMT-0600 (Central Standard Time),220413.39999997616,A,cabin,I,n,83,2,7864.0,212549.39999997616,8076,WL,B,12.0
2,25.52500009536743,learn,34474.99990463257,Wed Jan 07 2026 16:48:57 GMT-0600 (Central Standard Time),220729.59999990463,A,cabinenter,I,enter,311,2,8180.199999928474,212549.39999997616,8076,WL,B,12.0
2,25.89199995994568,learn,34108.00004005432,Wed Jan 07 2026 16:48:57 GMT-0600 (Central Standard Time),221096.29999995232,A,p,I,p,354,2,366.5,220729.79999995232,8076,WL,B,13.0
2,26.125,learn,33875.0,Wed Jan 07 2026 16:48:57 GMT-0600 (Central Standard Time),221329.79999995232,A,pu,I,u,227,2,600.0,220729.79999995232,8076,WL,B,13.0
2,26.29200005531311,learn,33707.99994468689,Wed Jan 07 2026 16:48:57 GMT-0600 (Central Standard Time),221496.19999992847,A,pup,I,p,153,2,766.3999999761581,220729.79999995232,8076,WL,B,13.0
2,26.54200005531311,learn,33457.99994468689,Wed Jan 07 2026 16:48:57 GMT-0600 (Central Standard Time),221746.09999990463,A,pupi,I,i,235,2,1016.2999999523163,220729.79999995232,8076,WL,B,13.0
2,26.759000062942505,learn,33240.999937057495,Wed Jan 07 2026 16:48:57 GMT-0600 (Central Standard Time),221962.79999995232,A,pupil,I,l,210,2,1233.0,220729.79999995232,8076,WL,B,13.0
2,27.125,learn,32875.0,Wed Jan 07 2026 16:48:57 GMT-0600 (Central Standard Time),222329.09999990463,A,pupilenter,I,enter,346,2,1599.2999999523163,220729.79999995232,8076,WL,B,13.0
2,27.77500009536743,learn,32224.99990463257,Wed Jan 07 2026 16:48:57 GMT-0600 (Central Standard Time),222979.39999997616,A,p,I,p,634,2,649.8000000715256,222329.59999990463,8076,WL,B,14.0
2,27.975000143051147,learn,32024.999856948853,Wed Jan 07 2026 16:48:57 GMT-0600 (Central Standard Time),223179.0,A,pi,I,i,192,2,849.4000000953674,222329.59999990463,8076,WL,B,14.0
2,28.091000080108643,learn,31908.999919891357,Wed Jan 07 2026 16:48:57 GMT-0600 (Central Standard Time),223295.69999992847,A,pip,I,p,105,2,966.1000000238419,222329.59999990463,8076,WL,B,14.0
2,28.27400016784668,learn,31725.99983215332,Wed Jan 07 2026 16:48:57 GMT-0600 (Central Standard Time),223478.69999992847,A,pipe,I,e,164,2,1149.1000000238419,222329.59999990463,8076,WL,B,14.0
2,28.62600016593933,learn,31373.99983406067,Wed Jan 07 2026 16:48:57 GMT-0600 (Central Standard Time),223830.39999997616,A,pipeenter,I,enter,333,2,1500.8000000715256,222329.59999990463,8076,WL,B,14.0
2,28.942000150680542,learn,31057.999849319458,Wed Jan 07 2026 16:48:57 GMT-0600 (Central Standard Time),224146.5,A,l,I,l,309,2,315.8000000715256,223830.69999992847,8076,WL,B,15.0
2,29.075000047683716,learn,30924.999952316284,Wed Jan 07 2026 16:48:57 GMT-0600 (Central Standard Time),224278.89999997616,A,la,I,a,113,2,448.2000000476837,223830.69999992847,8076,WL,B,15.0
2,29.27500009536743,learn,30724.99990463257,Wed Jan 07 2026 16:48:57 GMT-0600 (Central Standard Time),224478.89999997616,A,lak,I,k,188,2,648.2000000476837,223830.69999992847,8076,WL,B,15.0
2,29.424000024795532,learn,30575.999975204468,Wed Jan 07 2026 16:48:57 GMT-0600 (Central Standard Time),224628.5,A,lake,I,e,132,2,797.8000000715256,223830.69999992847,8076,WL,B,15.0
2,29.60800004005432,learn,30391.99995994568,Wed Jan 07 2026 16:48:57 GMT-0600 (Central Standard Time),224811.89999997616,A,lakeenter,I,enter,167,2,981.2000000476837,223830.69999992847,8076,WL,B,15.0
3,0.6000001430511475,learn,59399.99985694885,Wed Jan 07 2026 16:48:57 GMT-0600 (Central Standard Time),291224.59999990463,A,s,I,s,580,2,600.0,290624.59999990463,8076,WL,B,1.0
3,0.8340001106262207,learn,59165.99988937378,Wed Jan 07 2026 16:48:57 GMT-0600 (Central Standard Time),291457.6999999285,A,sk,I,k,218,2,833.1000000238419,290624.59999990463,8076,WL,B,1.0
3,1.1000001430511475,learn,58899.99985694885,Wed Jan 07 2026 16:48:57 GMT-0600 (Central Standard Time),291724.2999999523,A,ski,I,i,250,2,1099.7000000476837,290624.59999990463,8076,WL,B,1.0
3,1.2660000324249268,learn,58733.99996757507,Wed Jan 07 2026 16:48:57 GMT-0600 (Central Standard Time),291890.59999990463,A,skin,I,n,151,2,1266.0,290624.59999990463,8076,WL,B,1.0
3,1.7170000076293945,learn,58282.999992370605,Wed Jan 07 2026 16:48:57 GMT-0600 (Central Standard Time),292340.7999999523,A,skinenter,I,enter,441,2,1716.2000000476837,290624.59999990463,8076,WL,B,1.0
3,2.133000135421753,learn,57866.99986457825,Wed Jan 07 2026 16:48:57 GMT-0600 (Central Standard Time),292757.1999999285,A,f,I,f,407,2,416.10000002384186,292341.09999990463,8076,WL,B,2.0
3,2.2829999923706055,learn,57717.000007629395,Wed Jan 07 2026 16:48:57 GMT-0600 (Central Standard Time),292907.0,A,fi,I,i,135,2,565.9000000953674,292341.09999990463,8076,WL,B,2.0
3,2.4660000801086426,learn,57533.99991989136,Wed Jan 07 2026 16:48:57 GMT-0600 (Central Standard Time),293090.39999997616,A,fir,I,r,168,2,749.3000000715256,292341.09999990463,8076,WL,B,2.0
3,2.5160000324249268,learn,57483.99996757507,Wed Jan 07 2026 16:48:57 GMT-0600 (Central Standard Time),293140.2999999523,A,fire,I,e,41,2,799.2000000476837,292341.09999990463,8076,WL,B,2.0
3,2.866000175476074,learn,57133.999824523926,Wed Jan 07 2026 16:48:57 GMT-0600 (Central Standard Time),293490.2999999523,A,fireenter,I,enter,343,2,1149.2000000476837,292341.09999990463,8076,WL,B,2.0
3,3.2660000324249268,learn,56733.99996757507,Wed Jan 07 2026 16:48:57 GMT-0600 (Central Standard Time),293890.09999990463,A,c,I,c,393,2,399.39999997615814,293490.6999999285,8076,WL,B,3.0
3,3.432000160217285,learn,56567.999839782715,Wed Jan 07 2026 16:48:57 GMT-0600 (Central Standard Time),294056.5,A,cl,I,l,161,2,565.8000000715256,293490.6999999285,8076,WL,B,3.0
3,3.633000135421753,learn,56366.99986457825,Wed Jan 07 2026 16:48:57 GMT-0600 (Central Standard Time),294256.7999999523,A,clo,I,o,187,2,766.1000000238419,293490.6999999285,8076,WL,B,3.0
3,3.7660000324249268,learn,56233.99996757507,Wed Jan 07 2026 16:48:57 GMT-0600 (Central Standard Time),294389.89999997616,A,cloc,I,c,114,2,899.2000000476837,293490.6999999285,8076,WL,B,3.0
3,3.9160001277923584,learn,56083.99987220764,Wed Jan 07 2026 16:48:57 GMT-0600 (Central Standard Time),294540.09999990463,A,clock,I,k,142,2,1049.3999999761581,293490.6999999285,8076,WL,B,3.0
3,4.182000160217285,learn,55817.999839782715,Wed Jan 07 2026 16:48:57 GMT-0600 (Central Standard Time),294806.5,A,clockenter,I,enter,255,2,1315.8000000715256,293490.6999999285,8076,WL,B,3.0
3,4.432000160217285,learn,55567.999839782715,Wed Jan 07 2026 16:48:57 GMT-0600 (Central Standard Time),295056.59999990463,A,s,I,s,237,2,249.89999997615814,294806.6999999285,8076,WL,B,4.0
3,4.565999984741211,learn,55434.00001525879,Wed Jan 07 2026 16:48:57 GMT-0600 (Central Standard Time),295189.7999999523,A,st,I,t,115,2,383.10000002384186,294806.6999999285,8076,WL,B,4.0
3,4.765000104904175,learn,55234.999895095825,Wed Jan 07 2026 16:48:57 GMT-0600 (Central Standard Time),295389.5,A,str,I,r,182,2,582.8000000715256,294806.6999999285,8076,WL,B,4.0
3,4.832000017166138,learn,55167.99998283386,Wed Jan 07 2026 16:48:57 GMT-0600 (Central Standard Time),295456.0,A,stre,I,e,54,2,649.3000000715256,294806.6999999285,8076,WL,B,4.0
3,5.0320000648498535,learn,54967.99993515015,Wed Jan 07 2026 16:48:57 GMT-0600 (Central Standard Time),295656.0,A,stree,I,e,187,2,849.3000000715256,294806.6999999285,8076,WL,B,4.0
3,5.082000017166138,learn,54917.99998283386,Wed Jan 07 2026 16:48:57 GMT-0600 (Central Standard Time),295706.09999990463,A,street,I,t,36,2,899.3999999761581,294806.6999999285,8076,WL,B,4.0
3,5.315000057220459,learn,54684.99994277954,Wed Jan 07 2026 16:48:57 GMT-0600 (Central Standard Time),295939.1999999285,A,streetenter,I,enter,224,2,1132.5,294806.6999999285,8076,WL,B,4.0
3,5.5980000495910645,learn,54401.999950408936,Wed Jan 07 2026 16:48:57 GMT-0600 (Central Standard Time),296222.59999990463,A,g,I,g,263,2,283.09999990463257,295939.5,8076,WL,B,5.0
3,5.763000011444092,learn,54236.99998855591,Wed Jan 07 2026 16:48:57 GMT-0600 (Central Standard Time),296389.09999990463,A,gr,I,r,149,2,449.59999990463257,295939.5,8076,WL,B,5.0
3,5.8459999561309814,learn,54154.00004386902,Wed Jan 07 2026 16:48:57 GMT-0600 (Central Standard Time),296472.39999997616,A,gra,I,a,78,2,532.8999999761581,295939.5,8076,WL,B,5.0
3,5.946000099182129,learn,54053.99990081787,Wed Jan 07 2026 16:48:57 GMT-0600 (Central Standard Time),296572.2999999523,A,gras,I,s,91,2,632.7999999523163,295939.5,8076,WL,B,5.0
3,6.163000106811523,learn,53836.99989318848,Wed Jan 07 2026 16:48:57 GMT-0600 (Central Standard Time),296789.5,A,grass,I,s,199,2,850.0,295939.5,8076,WL,B,5.0
3,6.312999963760376,learn,53687.000036239624,Wed Jan 07 2026 16:48:57 GMT-0600 (Central Standard Time),296938.89999997616,A,grassenter,I,enter,142,2,999.3999999761581,295939.5,8076,WL,B,5.0
3,6.513000011444092,learn,53486.99998855591,Wed Jan 07 2026 16:48:57 GMT-0600 (Central Standard Time),297138.89999997616,A,d,I,d,185,2,199.70000004768372,296939.1999999285,8076,WL,B,6.0
3,6.646000146865845,learn,53353.999853134155,Wed Jan 07 2026 16:48:57 GMT-0600 (Central Standard Time),297272.09999990463,A,do,I,o,128,2,332.89999997615814,296939.1999999285,8076,WL,B,6.0
3,6.830000162124634,learn,53169.999837875366,Wed Jan 07 2026 16:48:57 GMT-0600 (Central Standard Time),297455.59999990463,A,doo,I,o,171,2,516.3999999761581,296939.1999999285,8076,WL,B,6.0
3,6.896000146865845,learn,53103.999853134155,Wed Jan 07 2026 16:48:57 GMT-0600 (Central Standard Time),297522.2999999523,A,door,I,r,51,2,583.1000000238419,296939.1999999285,8076,WL,B,6.0
3,7.196000099182129,learn,52803.99990081787,Wed Jan 07 2026 16:48:57 GMT-0600 (Central Standard Time),297822.39999997616,A,doorenter,I,enter,289,2,883.2000000476837,296939.1999999285,8076,WL,B,6.0
3,7.413000106811523,learn,52586.99989318848,Wed Jan 07 2026 16:48:57 GMT-0600 (Central Standard Time),298039.1999999285,A,a,I,a,206,2,216.39999997615814,297822.7999999523,8076,WL,B,7.0
3,7.5290000438690186,learn,52470.99995613098,Wed Jan 07 2026 16:48:57 GMT-0600 (Central Standard Time),298155.5,A,ar,I,r,109,2,332.7000000476837,297822.7999999523,8076,WL,B,7.0
3,7.663000106811523,learn,52336.99989318848,Wed Jan 07 2026 16:48:57 GMT-0600 (Central Standard Time),298288.6999999285,A,arm,I,m,128,2,465.89999997615814,297822.7999999523,8076,WL,B,7.0
3,7.996000051498413,learn,52003.99994850159,Wed Jan 07 2026 16:48:57 GMT-0600 (Central Standard Time),298622.09999990463,A,armenter,I,enter,315,2,799.2999999523163,297822.7999999523,8076,WL,B,7.0
3,8.729000091552734,learn,51270.999908447266,Wed Jan 07 2026 16:48:57 GMT-0600 (Central Standard Time),299355.2999999523,A,w,I,w,718,2,733.0,298622.2999999523,8076,WL,B,8.0
3,8.845999956130981,learn,51154.00004386902,Wed Jan 07 2026 16:48:57 GMT-0600 (Central Standard Time),299471.6999999285,A,wi,I,i,96,2,849.3999999761581,298622.2999999523,8076,WL,B,8.0
3,8.979000091552734,learn,51020.999908447266,Wed Jan 07 2026 16:48:57 GMT-0600 (Central Standard Time),299605.0,A,wif,I,f,124,2,982.7000000476837,298622.2999999523,8076,WL,B,8.0
3,9.029000043869019,learn,50970.99995613098,Wed Jan 07 2026 16:48:57 GMT-0600 (Central Standard Time),299655.2999999523,A,wife,I,e,40,2,1033.0,298622.2999999523,8076,WL,B,8.0
3,9.212000131607056,learn,50787.999868392944,Wed Jan 07 2026 16:48:57 GMT-0600 (Central Standard Time),299838.59999990463,A,wifeenter,I,enter,164,2,1216.2999999523163,298622.2999999523,8076,WL,B,8.0
3,9.361999988555908,learn,50638.00001144409,Wed Jan 07 2026 16:48:57 GMT-0600 (Central Standard Time),299988.39999997616,A,s,I,s,133,2,149.5,299838.89999997616,8076,WL,B,9.0
3,9.462000131607056,learn,50537.999868392944,Wed Jan 07 2026 16:48:57 GMT-0600 (Central Standard Time),300088.1999999285,A,st,I,t,95,2,249.29999995231628,299838.89999997616,8076,WL,B,9.0
3,9.578999996185303,learn,50421.0000038147,Wed Jan 07 2026 16:48:57 GMT-0600 (Central Standard Time),300205.0,A,sta,I,a,108,2,366.10000002384186,299838.89999997616,8076,WL,B,9.0
3,9.712000131607056,learn,50287.999868392944,Wed Jan 07 2026 16:48:57 GMT-0600 (Central Standard Time),300338.09999990463,A,star,I,r,119,2,499.1999999284744,299838.89999997616,8076,WL,B,9.0
3,10.111999988555908,learn,49888.00001144409,Wed Jan 07 2026 16:48:57 GMT-0600 (Central Standard Time),300738.1999999285,A,starenter,I,enter,393,2,899.2999999523163,299838.89999997616,8076,WL,B,9.0
3,10.495000123977661,learn,49504.99987602234,Wed Jan 07 2026 16:48:57 GMT-0600 (Central Standard Time),301121.09999990463,A,c,I,c,369,2,382.59999990463257,300738.5,8076,WL,B,10.0
3,10.611999988555908,learn,49388.00001144409,Wed Jan 07 2026 16:48:57 GMT-0600 (Central Standard Time),301237.7999999523,A,ci,I,i,107,2,499.2999999523163,300738.5,8076,WL,B,10.0
3,10.712000131607056,learn,49287.999868392944,Wed Jan 07 2026 16:48:57 GMT-0600 (Central Standard Time),301337.89999997616,A,cit,I,t,85,2,599.3999999761581,300738.5,8076,WL,B,10.0
3,10.828999996185303,learn,49171.0000038147,Wed Jan 07 2026 16:48:57 GMT-0600 (Central Standard Time),301454.6999999285,A,city,I,y,98,2,716.1999999284744,300738.5,8076,WL,B,10.0
3,11.162000179290771,learn,48837.99982070923,Wed Jan 07 2026 16:48:57 GMT-0600 (Central Standard Time),301787.7999999523,A,cityenter,I,enter,325,2,1049.2999999523163,300738.5,8076,WL,B,10.0
3,11.394999980926514,learn,48605.000019073486,Wed Jan 07 2026 16:48:57 GMT-0600 (Central Standard Time),302021.1999999285,A,w,I,w,224,2,233.10000002384186,301788.09999990463,8076,WL,B,11.0
3,11.495000123977661,learn,48504.99987602234,Wed Jan 07 2026 16:48:57 GMT-0600 (Central Standard Time),302121.0,A,wi,I,i,86,2,332.90000009536743,301788.09999990463,8076,WL,B,11.0
3,11.611999988555908,learn,48388.00001144409,Wed Jan 07 2026 16:48:57 GMT-0600 (Central Standard Time),302237.89999997616,A,win,I,n,99,2,449.8000000715256,301788.09999990463,8076,WL,B,11.0
3,11.728000164031982,learn,48271.99983596802,Wed Jan 07 2026 16:48:57 GMT-0600 (Central Standard Time),302354.5,A,wind,I,d,101,2,566.4000000953674,301788.09999990463,8076,WL,B,11.0
3,11.861000061035156,learn,48138.999938964844,Wed Jan 07 2026 16:48:57 GMT-0600 (Central Standard Time),302487.39999997616,A,windo,I,o,121,2,699.3000000715256,301788.09999990463,8076,WL,B,11.0
3,11.995000123977661,learn,48004.99987602234,Wed Jan 07 2026 16:48:57 GMT-0600 (Central Standard Time),302621.0,A,window,I,w,125,2,832.9000000953674,301788.09999990463,8076,WL,B,11.0
3,12.495000123977661,learn,47504.99987602234,Wed Jan 07 2026 16:48:57 GMT-0600 (Central Standard Time),303120.89999997616,A,windowenter,I,enter,487,2,1332.8000000715256,301788.09999990463,8076,WL,B,11.0
3,12.861000061035156,learn,47138.999938964844,Wed Jan 07 2026 16:48:57 GMT-0600 (Central Standard Time),303487.2999999523,A,p,I,p,347,2,366.10000002384186,303121.1999999285,8076,WL,B,12.0
3,13.094000101089478,learn,46905.99989891052,Wed Jan 07 2026 16:48:57 GMT-0600 (Central Standard Time),303720.5,A,pu,I,u,212,2,599.3000000715256,303121.1999999285,8076,WL,B,12.0
3,13.24399995803833,learn,46756.00004196167,Wed Jan 07 2026 16:48:57 GMT-0600 (Central Standard Time),303870.39999997616,A,pup,I,p,139,2,749.2000000476837,303121.1999999285,8076,WL,B,12.0
3,13.57800006866455,learn,46421.99993133545,Wed Jan 07 2026 16:48:57 GMT-0600 (Central Standard Time),304203.6999999285,A,pupi,I,i,325,2,1082.5,303121.1999999285,8076,WL,B,12.0
3,13.74399995803833,learn,46256.00004196167,Wed Jan 07 2026 16:48:57 GMT-0600 (Central Standard Time),304370.39999997616,A,pupil,I,l,152,2,1249.2000000476837,303121.1999999285,8076,WL,B,12.0
3,14.011000156402588,learn,45988.99984359741,Wed Jan 07 2026 16:48:57 GMT-0600 (Central Standard Time),304636.89999997616,A,pupilenter,I,enter,257,2,1515.7000000476837,303121.1999999285,8076,WL,B,12.0
3,14.24399995803833,learn,45756.00004196167,Wed Jan 07 2026 16:48:57 GMT-0600 (Central Standard Time),304869.89999997616,A,c,I,c,215,2,232.70000004768372,304637.1999999285,8076,WL,B,13.0
3,14.327000141143799,learn,45672.9998588562,Wed Jan 07 2026 16:48:57 GMT-0600 (Central Standard Time),304953.09999990463,A,ca,I,a,79,2,315.89999997615814,304637.1999999285,8076,WL,B,13.0
3,14.610000133514404,learn,45389.999866485596,Wed Jan 07 2026 16:48:57 GMT-0600 (Central Standard Time),305236.5,A,cab,I,b,274,2,599.3000000715256,304637.1999999285,8076,WL,B,13.0
3,14.759999990463257,learn,45240.00000953674,Wed Jan 07 2026 16:48:57 GMT-0600 (Central Standard Time),305386.5,A,cabi,I,i,135,2,749.3000000715256,304637.1999999285,8076,WL,B,13.0
3,14.861000061035156,learn,45138.999938964844,Wed Jan 07 2026 16:48:57 GMT-0600 (Central Standard Time),305486.6999999285,A,cabin,I,n,89,2,849.5,304637.1999999285,8076,WL,B,13.0
3,15.144000053405762,learn,44855.99994659424,Wed Jan 07 2026 16:48:57 GMT-0600 (Central Standard Time),305769.7999999523,A,cabinenter,I,enter,277,2,1132.6000000238419,304637.1999999285,8076,WL,B,13.0
3,15.476999998092651,learn,44523.00000190735,Wed Jan 07 2026 16:48:57 GMT-0600 (Central Standard Time),306103.2999999523,A,p,I,p,323,2,333.2000000476837,305770.09999990463,8076,WL,B,14.0
3,15.627000093460083,learn,44372.99990653992,Wed Jan 07 2026 16:48:57 GMT-0600 (Central Standard Time),306253.39999997616,A,pi,I,i,140,2,483.3000000715256,305770.09999990463,8076,WL,B,14.0
3,15.74399995803833,learn,44256.00004196167,Wed Jan 07 2026 16:48:57 GMT-0600 (Central Standard Time),306369.59999990463,A,pip,I,p,102,2,599.5,305770.09999990463,8076,WL,B,14.0
3,15.860000133514404,learn,44139.999866485596,Wed Jan 07 2026 16:48:57 GMT-0600 (Central Standard Time),306486.39999997616,A,pipe,I,e,98,2,716.3000000715256,305770.09999990463,8076,WL,B,14.0
3,16.276999950408936,learn,43723.000049591064,Wed Jan 07 2026 16:48:57 GMT-0600 (Central Standard Time),306902.89999997616,A,pipel,I,l,397,2,1132.8000000715256,305770.09999990463,8076,WL,B,14.0
3,16.825999975204468,learn,43174.00002479553,Wed Jan 07 2026 16:48:57 GMT-0600 (Central Standard Time),307452.59999990463,A,pipe,I,backspace,541,2,1682.5,305770.09999990463,8076,WL,B,14.0
3,17.093000173568726,learn,42906.999826431274,Wed Jan 07 2026 16:48:57 GMT-0600 (Central Standard Time),307718.89999997616,A,pipeenter,I,enter,255,2,1948.8000000715256,305770.09999990463,8076,WL,B,14.0
3,17.443000078201294,learn,42556.999921798706,Wed Jan 07 2026 16:48:57 GMT-0600 (Central Standard Time),308069.0,A,l,I,l,340,2,349.8000000715256,307719.1999999285,8076,WL,B,15.0
3,17.608999967575073,learn,42391.00003242493,Wed Jan 07 2026 16:48:57 GMT-0600 (Central Standard Time),308235.2999999523,A,la,I,a,158,2,516.1000000238419,307719.1999999285,8076,WL,B,15.0
3,17.860000133514404,learn,42139.999866485596,Wed Jan 07 2026 16:48:57 GMT-0600 (Central Standard Time),308485.89999997616,A,lak,I,k,232,2,766.7000000476837,307719.1999999285,8076,WL,B,15.0
3,17.95900011062622,learn,42040.99988937378,Wed Jan 07 2026 16:48:57 GMT-0600 (Central Standard Time),308585.2999999523,A,lake,I,e,94,2,866.1000000238419,307719.1999999285,8076,WL,B,15.0
3,18.12600016593933,learn,41873.99983406067,Wed Jan 07 2026 16:48:57 GMT-0600 (Central Standard Time),308752.1999999285,A,lakeenter,I,enter,155,2,1033.0,307719.1999999285,8076,WL,B,15.0
4,0.6170001029968262,learn,59382.999897003174,Wed Jan 07 2026 16:48:57 GMT-0600 (Central Standard Time),374714.89999997616,A,s,I,s,602,2,616.3999999761581,374098.5,8076,WL,B,1.0
4,0.7999999523162842,learn,59200.000047683716,Wed Jan 07 2026 16:48:57 GMT-0600 (Central Standard Time),374898.1999999285,A,sk,I,k,168,2,799.6999999284744,374098.5,8076,WL,B,1.0
4,0.9839999675750732,learn,59016.00003242493,Wed Jan 07 2026 16:48:57 GMT-0600 (Central Standard Time),375081.39999997616,A,ski,I,i,177,2,982.8999999761581,374098.5,8076,WL,B,1.0
4,1.1170001029968262,learn,58882.999897003174,Wed Jan 07 2026 16:48:57 GMT-0600 (Central Standard Time),375215.09999990463,A,skin,I,n,114,2,1116.5999999046326,374098.5,8076,WL,B,1.0
4,1.75,learn,58250.0,Wed Jan 07 2026 16:48:57 GMT-0600 (Central Standard Time),375847.89999997616,A,skinenter,I,enter,613,2,1749.3999999761581,374098.5,8076,WL,B,1.0
4,2.049999952316284,learn,57950.000047683716,Wed Jan 07 2026 16:48:57 GMT-0600 (Central Standard Time),376147.6999999285,A,f,I,f,284,2,299.5,375848.1999999285,8076,WL,B,2.0
4,2.799999952316284,learn,57200.000047683716,Wed Jan 07 2026 16:48:57 GMT-0600 (Central Standard Time),376897.5,A,fi,I,i,737,2,1049.3000000715256,375848.1999999285,8076,WL,B,2.0
4,2.9160001277923584,learn,57083.99987220764,Wed Jan 07 2026 16:48:57 GMT-0600 (Central Standard Time),377014.1999999285,A,fir,I,r,107,2,1166.0,375848.1999999285,8076,WL,B,2.0
4,2.9830000400543213,learn,57016.99995994568,Wed Jan 07 2026 16:48:57 GMT-0600 (Central Standard Time),377080.5,A,fire,I,e,61,2,1232.3000000715256,375848.1999999285,8076,WL,B,2.0
4,3.25,learn,56750.0,Wed Jan 07 2026 16:48:57 GMT-0600 (Central Standard Time),377347.5,A,fireenter,I,enter,259,2,1499.3000000715256,375848.1999999285,8076,WL,B,2.0
4,3.633000135421753,learn,56366.99986457825,Wed Jan 07 2026 16:48:57 GMT-0600 (Central Standard Time),377730.6999999285,A,c,I,c,368,2,382.89999997615814,377347.7999999523,8076,WL,B,3.0
4,3.7660000324249268,learn,56233.99996757507,Wed Jan 07 2026 16:48:57 GMT-0600 (Central Standard Time),377864.09999990463,A,cl,I,l,113,2,516.2999999523163,377347.7999999523,8076,WL,B,3.0
4,3.949000120162964,learn,56050.999879837036,Wed Jan 07 2026 16:48:57 GMT-0600 (Central Standard Time),378046.89999997616,A,clo,I,o,163,2,699.1000000238419,377347.7999999523,8076,WL,B,3.0
4,4.049000024795532,learn,55950.99997520447,Wed Jan 07 2026 16:48:57 GMT-0600 (Central Standard Time),378147.1999999285,A,cloc,I,c,94,2,799.3999999761581,377347.7999999523,8076,WL,B,3.0
4,4.166000127792358,learn,55833.99987220764,Wed Jan 07 2026 16:48:57 GMT-0600 (Central Standard Time),378263.89999997616,A,clock,I,k,104,2,916.1000000238419,377347.7999999523,8076,WL,B,3.0
4,4.466000080108643,learn,55533.99991989136,Wed Jan 07 2026 16:48:57 GMT-0600 (Central Standard Time),378563.7999999523,A,clockenter,I,enter,292,2,1216.0,377347.7999999523,8076,WL,B,3.0
4,4.848999977111816,learn,55151.00002288818,Wed Jan 07 2026 16:48:57 GMT-0600 (Central Standard Time),378946.89999997616,A,s,I,s,368,2,382.7000000476837,378564.1999999285,8076,WL,B,4.0
4,4.982000112533569,learn,55017.99988746643,Wed Jan 07 2026 16:48:57 GMT-0600 (Central Standard Time),379079.89999997616,A,st,I,t,129,2,515.7000000476837,378564.1999999285,8076,WL,B,4.0
4,5.181999921798706,learn,54818.000078201294,Wed Jan 07 2026 16:48:57 GMT-0600 (Central Standard Time),379280.1999999285,A,str,I,r,180,2,716.0,378564.1999999285,8076,WL,B,4.0
4,5.216000080108643,learn,54783.99991989136,Wed Jan 07 2026 16:48:57 GMT-0600 (Central Standard Time),379313.89999997616,A,stre,I,e,28,2,749.7000000476837,378564.1999999285,8076,WL,B,4.0
4,5.398999929428101,learn,54601.0000705719,Wed Jan 07 2026 16:48:57 GMT-0600 (Central Standard Time),379496.59999990463,A,stree,I,e,170,2,932.3999999761581,378564.1999999285,8076,WL,B,4.0
4,5.482000112533569,learn,54517.99988746643,Wed Jan 07 2026 16:48:57 GMT-0600 (Central Standard Time),379580.09999990463,A,street,I,t,67,2,1015.8999999761581,378564.1999999285,8076,WL,B,4.0
4,5.681999921798706,learn,54318.000078201294,Wed Jan 07 2026 16:48:57 GMT-0600 (Central Standard Time),379779.89999997616,A,streetenter,I,enter,184,2,1215.7000000476837,378564.1999999285,8076,WL,B,4.0
4,5.865000009536743,learn,54134.99999046326,Wed Jan 07 2026 16:48:57 GMT-0600 (Central Standard Time),379963.1999999285,A,g,I,g,176,2,183.0,379780.1999999285,8076,WL,B,5.0
4,6.049000024795532,learn,53950.99997520447,Wed Jan 07 2026 16:48:57 GMT-0600 (Central Standard Time),380146.5,A,gr,I,r,168,2,366.3000000715256,379780.1999999285,8076,WL,B,5.0
4,6.131999969482422,learn,53868.00003051758,Wed Jan 07 2026 16:48:57 GMT-0600 (Central Standard Time),380230.09999990463,A,gra,I,a,73,2,449.89999997615814,379780.1999999285,8076,WL,B,5.0
4,6.215000152587891,learn,53784.99984741211,Wed Jan 07 2026 16:48:57 GMT-0600 (Central Standard Time),380313.0,A,gras,I,s,77,2,532.8000000715256,379780.1999999285,8076,WL,B,5.0
4,6.431999921798706,learn,53568.000078201294,Wed Jan 07 2026 16:48:57 GMT-0600 (Central Standard Time),380529.7999999523,A,grass,I,s,210,2,749.6000000238419,379780.1999999285,8076,WL,B,5.0
4,6.631999969482422,learn,53368.00003051758,Wed Jan 07 2026 16:48:57 GMT-0600 (Central Standard Time),380729.59999990463,A,grassenter,I,enter,186,2,949.3999999761581,379780.1999999285,8076,WL,B,5.0
4,6.831000089645386,learn,53168.999910354614,Wed Jan 07 2026 16:48:57 GMT-0600 (Central Standard Time),380929.2999999523,A,a,I,a,194,2,199.29999995231628,380730.0,8076,WL,B,6.0
4,6.965000152587891,learn,53034.99984741211,Wed Jan 07 2026 16:48:57 GMT-0600 (Central Standard Time),381063.1999999285,A,ar,I,r,123,2,333.1999999284744,380730.0,8076,WL,B,6.0
4,7.164999961853027,learn,52835.00003814697,Wed Jan 07 2026 16:48:57 GMT-0600 (Central Standard Time),381262.7999999523,A,arm,I,m,188,2,532.7999999523163,380730.0,8076,WL,B,6.0
4,7.431999921798706,learn,52568.000078201294,Wed Jan 07 2026 16:48:57 GMT-0600 (Central Standard Time),381529.5,A,armenter,I,enter,253,2,799.5,380730.0,8076,WL,B,6.0
4,7.980999946594238,learn,52019.00005340576,Wed Jan 07 2026 16:48:57 GMT-0600 (Central Standard Time),382079.09999990463,A,d,I,d,538,2,549.1999999284744,381529.89999997616,8076,WL,B,7.0
4,8.164999961853027,learn,51835.00003814697,Wed Jan 07 2026 16:48:57 GMT-0600 (Central Standard Time),382262.6999999285,A,do,I,o,164,2,732.7999999523163,381529.89999997616,8076,WL,B,7.0
4,8.364000082015991,learn,51635.99991798401,Wed Jan 07 2026 16:48:57 GMT-0600 (Central Standard Time),382462.39999997616,A,doo,I,o,189,2,932.5,381529.89999997616,8076,WL,B,7.0
4,8.54800009727478,learn,51451.99990272522,Wed Jan 07 2026 16:48:57 GMT-0600 (Central Standard Time),382645.89999997616,A,door,I,r,173,2,1116.0,381529.89999997616,8076,WL,B,7.0
4,8.831000089645386,learn,51168.999910354614,Wed Jan 07 2026 16:48:57 GMT-0600 (Central Standard Time),382928.6999999285,A,doorenter,I,enter,278,2,1398.7999999523163,381529.89999997616,8076,WL,B,7.0
4,9.248000144958496,learn,50751.999855041504,Wed Jan 07 2026 16:48:57 GMT-0600 (Central Standard Time),383345.39999997616,A,s,I,s,403,2,416.39999997615814,382929.0,8076,WL,B,8.0
4,9.364000082015991,learn,50635.99991798401,Wed Jan 07 2026 16:48:57 GMT-0600 (Central Standard Time),383462.09999990463,A,st,I,t,98,2,533.0999999046326,382929.0,8076,WL,B,8.0
4,9.480999946594238,learn,50519.00005340576,Wed Jan 07 2026 16:48:57 GMT-0600 (Central Standard Time),383578.7999999523,A,sta,I,a,102,2,649.7999999523163,382929.0,8076,WL,B,8.0
4,9.581000089645386,learn,50418.999910354614,Wed Jan 07 2026 16:48:57 GMT-0600 (Central Standard Time),383678.7999999523,A,star,I,r,81,2,749.7999999523163,382929.0,8076,WL,B,8.0
4,9.831000089645386,learn,50168.999910354614,Wed Jan 07 2026 16:48:57 GMT-0600 (Central Standard Time),383928.7999999523,A,starenter,I,enter,238,2,999.7999999523163,382929.0,8076,WL,B,8.0
4,10.064000129699707,learn,49935.99987030029,Wed Jan 07 2026 16:48:57 GMT-0600 (Central Standard Time),384161.59999990463,A,w,I,w,227,2,232.5,383929.09999990463,8076,WL,B,9.0
4,10.21399998664856,learn,49786.00001335144,Wed Jan 07 2026 16:48:57 GMT-0600 (Central Standard Time),384311.89999997616,A,wi,I,i,146,2,382.8000000715256,383929.09999990463,8076,WL,B,9.0
4,10.364000082015991,learn,49635.99991798401,Wed Jan 07 2026 16:48:57 GMT-0600 (Central Standard Time),384461.7999999523,A,wif,I,f,132,2,532.7000000476837,383929.09999990463,8076,WL,B,9.0
4,10.430999994277954,learn,49569.000005722046,Wed Jan 07 2026 16:48:57 GMT-0600 (Central Standard Time),384528.5,A,wife,I,e,46,2,599.4000000953674,383929.09999990463,8076,WL,B,9.0
4,10.69700002670288,learn,49302.99997329712,Wed Jan 07 2026 16:48:57 GMT-0600 (Central Standard Time),384795.0,A,wifeenter,I,enter,251,2,865.9000000953674,383929.09999990463,8076,WL,B,9.0
4,10.94700002670288,learn,49052.99997329712,Wed Jan 07 2026 16:48:57 GMT-0600 (Central Standard Time),385045.09999990463,A,c,I,c,241,2,249.79999995231628,384795.2999999523,8076,WL,B,10.0
4,11.079999923706055,learn,48920.000076293945,Wed Jan 07 2026 16:48:57 GMT-0600 (Central Standard Time),385178.1999999285,A,ci,I,i,118,2,382.89999997615814,384795.2999999523,8076,WL,B,10.0
4,11.180000066757202,learn,48819.9999332428,Wed Jan 07 2026 16:48:57 GMT-0600 (Central Standard Time),385278.09999990463,A,cit,I,t,89,2,482.7999999523163,384795.2999999523,8076,WL,B,10.0
4,11.314000129699707,learn,48685.99987030029,Wed Jan 07 2026 16:48:57 GMT-0600 (Central Standard Time),385411.59999990463,A,city,I,y,126,2,616.2999999523163,384795.2999999523,8076,WL,B,10.0
4,11.647000074386597,learn,48352.9999256134,Wed Jan 07 2026 16:48:57 GMT-0600 (Central Standard Time),385744.7999999523,A,cityenter,I,enter,313,2,949.5,384795.2999999523,8076,WL,B,10.0
4,11.847000122070312,learn,48152.99987792969,Wed Jan 07 2026 16:48:57 GMT-0600 (Central Standard Time),385944.6999999285,A,w,I,w,196,2,199.5,385745.1999999285,8076,WL,B,11.0
4,11.996999979019165,learn,48003.000020980835,Wed Jan 07 2026 16:48:57 GMT-0600 (Central Standard Time),386094.59999990463,A,wi,I,i,139,2,349.39999997615814,385745.1999999285,8076,WL,B,11.0
4,12.079999923706055,learn,47920.000076293945,Wed Jan 07 2026 16:48:57 GMT-0600 (Central Standard Time),386178.1999999285,A,win,I,n,69,2,433.0,385745.1999999285,8076,WL,B,11.0
4,12.19700002670288,learn,47802.99997329712,Wed Jan 07 2026 16:48:57 GMT-0600 (Central Standard Time),386294.5,A,wind,I,d,97,2,549.3000000715256,385745.1999999285,8076,WL,B,11.0
4,12.329999923706055,learn,47670.000076293945,Wed Jan 07 2026 16:48:57 GMT-0600 (Central Standard Time),386427.89999997616,A,windo,I,o,125,2,682.7000000476837,385745.1999999285,8076,WL,B,11.0
4,12.44700002670288,learn,47552.99997329712,Wed Jan 07 2026 16:48:57 GMT-0600 (Central Standard Time),386544.39999997616,A,window,I,w,111,2,799.2000000476837,385745.1999999285,8076,WL,B,11.0
4,12.730000019073486,learn,47269.999980926514,Wed Jan 07 2026 16:48:57 GMT-0600 (Central Standard Time),386827.59999990463,A,windowenter,I,enter,267,2,1082.3999999761581,385745.1999999285,8076,WL,B,11.0
4,13.097000122070312,learn,46902.99987792969,Wed Jan 07 2026 16:48:57 GMT-0600 (Central Standard Time),387194.39999997616,A,p,I,p,360,2,366.39999997615814,386828.0,8076,WL,B,12.0
4,13.312999963760376,learn,46687.000036239624,Wed Jan 07 2026 16:48:57 GMT-0600 (Central Standard Time),387411.0,A,pu,I,u,201,2,583.0,386828.0,8076,WL,B,12.0
4,13.446000099182129,learn,46553.99990081787,Wed Jan 07 2026 16:48:57 GMT-0600 (Central Standard Time),387544.2999999523,A,pup,I,p,120,2,716.2999999523163,386828.0,8076,WL,B,12.0
4,13.680000066757202,learn,46319.9999332428,Wed Jan 07 2026 16:48:57 GMT-0600 (Central Standard Time),387777.5,A,pupi,I,i,219,2,949.5,386828.0,8076,WL,B,12.0
4,13.845999956130981,learn,46154.00004386902,Wed Jan 07 2026 16:48:57 GMT-0600 (Central Standard Time),387944.0,A,pupil,I,l,154,2,1116.0,386828.0,8076,WL,B,12.0
4,14.128999948501587,learn,45871.00005149841,Wed Jan 07 2026 16:48:57 GMT-0600 (Central Standard Time),388227.2999999523,A,pupilenter,I,enter,268,2,1399.2999999523163,386828.0,8076,WL,B,12.0
4,14.36300015449524,learn,45636.99984550476,Wed Jan 07 2026 16:48:57 GMT-0600 (Central Standard Time),388460.5,A,c,I,c,224,2,232.90000009536743,388227.59999990463,8076,WL,B,13.0
4,14.446000099182129,learn,45553.99990081787,Wed Jan 07 2026 16:48:57 GMT-0600 (Central Standard Time),388544.0,A,ca,I,a,79,2,316.40000009536743,388227.59999990463,8076,WL,B,13.0
4,14.61300015449524,learn,45386.99984550476,Wed Jan 07 2026 16:48:57 GMT-0600 (Central Standard Time),388710.5,A,cab,I,b,156,2,482.90000009536743,388227.59999990463,8076,WL,B,13.0
4,14.729000091552734,learn,45270.999908447266,Wed Jan 07 2026 16:48:57 GMT-0600 (Central Standard Time),388827.1999999285,A,cabi,I,i,101,2,599.6000000238419,388227.59999990463,8076,WL,B,13.0
4,14.812999963760376,learn,45187.000036239624,Wed Jan 07 2026 16:48:57 GMT-0600 (Central Standard Time),388910.5,A,cabin,I,n,64,2,682.9000000953674,388227.59999990463,8076,WL,B,13.0
4,15.462000131607056,learn,44537.999868392944,Wed Jan 07 2026 16:48:57 GMT-0600 (Central Standard Time),389560.0,A,cabinenter,I,enter,645,2,1332.4000000953674,388227.59999990463,8076,WL,B,13.0
4,15.911999940872192,learn,44088.00005912781,Wed Jan 07 2026 16:48:57 GMT-0600 (Central Standard Time),390010.0,A,p,I,p,444,2,449.60000002384186,389560.39999997616,8076,WL,B,14.0
4,16.128999948501587,learn,43871.00005149841,Wed Jan 07 2026 16:48:57 GMT-0600 (Central Standard Time),390226.5,A,pi,I,i,209,2,666.1000000238419,389560.39999997616,8076,WL,B,14.0
4,16.24500012397766,learn,43754.99987602234,Wed Jan 07 2026 16:48:57 GMT-0600 (Central Standard Time),390343.1999999285,A,pip,I,p,105,2,782.7999999523163,389560.39999997616,8076,WL,B,14.0
4,16.462000131607056,learn,43537.999868392944,Wed Jan 07 2026 16:48:57 GMT-0600 (Central Standard Time),390560.09999990463,A,pipe,I,e,212,2,999.6999999284744,389560.39999997616,8076,WL,B,14.0
4,17.144999980926514,learn,42855.000019073486,Wed Jan 07 2026 16:48:57 GMT-0600 (Central Standard Time),391242.7999999523,A,pipeenter,I,enter,675,2,1682.3999999761581,389560.39999997616,8076,WL,B,14.0
4,17.528000116348267,learn,42471.99988365173,Wed Jan 07 2026 16:48:57 GMT-0600 (Central Standard Time),391626.2999999523,A,l,I,l,377,2,383.2000000476837,391243.09999990463,8076,WL,B,15.0
4,17.694999933242798,learn,42305.0000667572,Wed Jan 07 2026 16:48:57 GMT-0600 (Central Standard Time),391792.7999999523,A,la,I,a,153,2,549.7000000476837,391243.09999990463,8076,WL,B,15.0
4,17.894999980926514,learn,42105.000019073486,Wed Jan 07 2026 16:48:57 GMT-0600 (Central Standard Time),391993.0,A,lak,I,k,187,2,749.9000000953674,391243.09999990463,8076,WL,B,15.0
4,18.01200008392334,learn,41987.99991607666,Wed Jan 07 2026 16:48:57 GMT-0600 (Central Standard Time),392109.59999990463,A,lake,I,e,99,2,866.5,391243.09999990463,8076,WL,B,15.0
4,18.17799997329712,learn,41822.00002670288,Wed Jan 07 2026 16:48:57 GMT-0600 (Central Standard Time),392275.7999999523,A,lakeenter,I,enter,159,2,1032.7000000476837,391243.09999990463,8076,WL,B,15.0
5,0.6169998645782471,learn,60000.0,Wed Jan 07 2026 16:48:57 GMT-0600 (Central Standard Time),458105.59999990463,A,s,I,s,604,2,616.3999999761581,457489.1999999285,8076,WL,B,1.0
5,0.7330000400543213,learn,60000.0,Wed Jan 07 2026 16:48:57 GMT-0600 (Central Standard Time),458222.0,A,sk,I,k,104,2,732.8000000715256,457489.1999999285,8076,WL,B,1.0
5,0.932999849319458,learn,60000.0,Wed Jan 07 2026 16:48:57 GMT-0600 (Central Standard Time),458422.0,A,ski,I,i,182,2,932.8000000715256,457489.1999999285,8076,WL,B,1.0
5,1.0499999523162842,learn,60000.0,Wed Jan 07 2026 16:48:57 GMT-0600 (Central Standard Time),458538.6999999285,A,skin,I,n,102,2,1049.5,457489.1999999285,8076,WL,B,1.0
5,1.3329999446868896,learn,60000.0,Wed Jan 07 2026 16:48:57 GMT-0600 (Central Standard Time),458822.0,A,skinenter,I,enter,265,2,1332.8000000715256,457489.1999999285,8076,WL,B,1.0
5,1.565999984741211,learn,60000.0,Wed Jan 07 2026 16:48:57 GMT-0600 (Central Standard Time),459055.09999990463,A,f,I,f,222,2,232.69999992847443,458822.39999997616,8076,WL,B,2.0
5,1.6659998893737793,learn,60000.0,Wed Jan 07 2026 16:48:57 GMT-0600 (Central Standard Time),459155.09999990463,A,fi,I,i,85,2,332.6999999284744,458822.39999997616,8076,WL,B,2.0
5,1.8339998722076416,learn,60000.0,Wed Jan 07 2026 16:48:57 GMT-0600 (Central Standard Time),459322.6999999285,A,fir,I,r,160,2,500.2999999523163,458822.39999997616,8076,WL,B,2.0
5,1.8829998970031738,learn,60000.0,Wed Jan 07 2026 16:48:57 GMT-0600 (Central Standard Time),459371.6999999285,A,fire,I,e,40,2,549.2999999523163,458822.39999997616,8076,WL,B,2.0
5,2.0989999771118164,learn,60000.0,Wed Jan 07 2026 16:48:57 GMT-0600 (Central Standard Time),459588.1999999285,A,fireenter,I,enter,208,2,765.7999999523163,458822.39999997616,8076,WL,B,2.0
5,2.3999998569488525,learn,60000.0,Wed Jan 07 2026 16:48:57 GMT-0600 (Central Standard Time),459888.2999999523,A,c,I,c,287,2,299.7000000476837,459588.59999990463,8076,WL,B,3.0
5,2.5329999923706055,learn,60000.0,Wed Jan 07 2026 16:48:57 GMT-0600 (Central Standard Time),460021.39999997616,A,cl,I,l,115,2,432.8000000715256,459588.59999990463,8076,WL,B,3.0
5,2.7330000400543213,learn,60000.0,Wed Jan 07 2026 16:48:57 GMT-0600 (Central Standard Time),460221.39999997616,A,clo,I,o,182,2,632.8000000715256,459588.59999990463,8076,WL,B,3.0
5,2.8329999446868896,learn,60000.0,Wed Jan 07 2026 16:48:57 GMT-0600 (Central Standard Time),460321.1999999285,A,cloc,I,c,86,2,732.6000000238419,459588.59999990463,8076,WL,B,3.0
5,2.9489998817443848,learn,60000.0,Wed Jan 07 2026 16:48:57 GMT-0600 (Central Standard Time),460438.0,A,clock,I,k,107,2,849.4000000953674,459588.59999990463,8076,WL,B,3.0
5,3.2319998741149902,learn,60000.0,Wed Jan 07 2026 16:48:57 GMT-0600 (Central Standard Time),460721.1999999285,A,clockenter,I,enter,269,2,1132.6000000238419,459588.59999990463,8076,WL,B,3.0
5,3.498999834060669,learn,60000.0,Wed Jan 07 2026 16:48:57 GMT-0600 (Central Standard Time),460987.7999999523,A,s,I,s,250,2,266.2000000476837,460721.59999990463,8076,WL,B,4.0
5,3.631999969482422,learn,60000.0,Wed Jan 07 2026 16:48:57 GMT-0600 (Central Standard Time),461121.1999999285,A,st,I,t,119,2,399.60000002384186,460721.59999990463,8076,WL,B,4.0
5,3.8320000171661377,learn,60000.0,Wed Jan 07 2026 16:48:57 GMT-0600 (Central Standard Time),461320.7999999523,A,str,I,r,194,2,599.2000000476837,460721.59999990463,8076,WL,B,4.0
5,3.8989999294281006,learn,60000.0,Wed Jan 07 2026 16:48:57 GMT-0600 (Central Standard Time),461387.7999999523,A,stre,I,e,51,2,666.2000000476837,460721.59999990463,8076,WL,B,4.0
5,4.065999984741211,learn,60000.0,Wed Jan 07 2026 16:48:57 GMT-0600 (Central Standard Time),461554.2999999523,A,stree,I,e,160,2,832.7000000476837,460721.59999990463,8076,WL,B,4.0
5,4.131999969482422,learn,60000.0,Wed Jan 07 2026 16:48:57 GMT-0600 (Central Standard Time),461620.89999997616,A,street,I,t,49,2,899.3000000715256,460721.59999990463,8076,WL,B,4.0
5,4.332000017166138,learn,60000.0,Wed Jan 07 2026 16:48:57 GMT-0600 (Central Standard Time),461820.7999999523,A,streetenter,I,enter,192,2,1099.2000000476837,460721.59999990463,8076,WL,B,4.0
5,4.531999826431274,learn,60000.0,Wed Jan 07 2026 16:48:57 GMT-0600 (Central Standard Time),462020.59999990463,A,g,I,g,192,2,199.5,461821.09999990463,8076,WL,B,5.0
5,4.698999881744385,learn,60000.0,Wed Jan 07 2026 16:48:57 GMT-0600 (Central Standard Time),462187.1999999285,A,gr,I,r,159,2,366.10000002384186,461821.09999990463,8076,WL,B,5.0
5,4.799000024795532,learn,60000.0,Wed Jan 07 2026 16:48:57 GMT-0600 (Central Standard Time),462287.2999999523,A,gra,I,a,88,2,466.2000000476837,461821.09999990463,8076,WL,B,5.0
5,4.898999929428101,learn,60000.0,Wed Jan 07 2026 16:48:57 GMT-0600 (Central Standard Time),462387.2999999523,A,gras,I,s,93,2,566.2000000476837,461821.09999990463,8076,WL,B,5.0
5,5.115000009536743,learn,60000.0,Wed Jan 07 2026 16:48:57 GMT-0600 (Central Standard Time),462604.09999990463,A,grass,I,s,208,2,783.0,461821.09999990463,8076,WL,B,5.0
5,5.4649999141693115,learn,60000.0,Wed Jan 07 2026 16:48:57 GMT-0600 (Central Standard Time),462954.0,A,grassenter,I,enter,344,2,1132.9000000953674,461821.09999990463,8076,WL,B,5.0
5,6.0980000495910645,learn,60000.0,Wed Jan 07 2026 16:48:57 GMT-0600 (Central Standard Time),463586.6999999285,A,d,I,d,626,2,632.3999999761581,462954.2999999523,8076,WL,B,6.0
5,6.247999906539917,learn,60000.0,Wed Jan 07 2026 16:48:57 GMT-0600 (Central Standard Time),463736.6999999285,A,do,I,o,145,2,782.3999999761581,462954.2999999523,8076,WL,B,6.0
5,6.398000001907349,learn,60000.0,Wed Jan 07 2026 16:48:57 GMT-0600 (Central Standard Time),463887.0,A,doo,I,o,139,2,932.7000000476837,462954.2999999523,8076,WL,B,6.0
5,6.4649999141693115,learn,60000.0,Wed Jan 07 2026 16:48:57 GMT-0600 (Central Standard Time),463953.59999990463,A,door,I,r,60,2,999.2999999523163,462954.2999999523,8076,WL,B,6.0
5,6.681999921798706,learn,60000.0,Wed Jan 07 2026 16:48:57 GMT-0600 (Central Standard Time),464170.1999999285,A,doorenter,I,enter,202,2,1215.8999999761581,462954.2999999523,8076,WL,B,6.0
5,6.914999961853027,learn,60000.0,Wed Jan 07 2026 16:48:57 GMT-0600 (Central Standard Time),464403.39999997616,A,a,I,a,225,2,232.80000007152557,464170.59999990463,8076,WL,B,7.0
5,7.014999866485596,learn,60000.0,Wed Jan 07 2026 16:48:57 GMT-0600 (Central Standard Time),464503.39999997616,A,ar,I,r,79,2,332.8000000715256,464170.59999990463,8076,WL,B,7.0
5,7.148000001907349,learn,60000.0,Wed Jan 07 2026 16:48:57 GMT-0600 (Central Standard Time),464636.5,A,arm,I,m,116,2,465.90000009536743,464170.59999990463,8076,WL,B,7.0
5,7.480999946594238,learn,60000.0,Wed Jan 07 2026 16:48:57 GMT-0600 (Central Standard Time),464970.0,A,armenter,I,enter,327,2,799.4000000953674,464170.59999990463,8076,WL,B,7.0
5,8.430999994277954,learn,60000.0,Wed Jan 07 2026 16:48:57 GMT-0600 (Central Standard Time),465919.59999990463,A,w,I,w,930,2,949.2999999523163,464970.2999999523,8076,WL,B,8.0
5,8.530999898910522,learn,60000.0,Wed Jan 07 2026 16:48:57 GMT-0600 (Central Standard Time),466019.7999999523,A,wi,I,i,84,2,1049.5,464970.2999999523,8076,WL,B,8.0
5,8.664000034332275,learn,60000.0,Wed Jan 07 2026 16:48:57 GMT-0600 (Central Standard Time),466152.89999997616,A,wif,I,f,120,2,1182.6000000238419,464970.2999999523,8076,WL,B,8.0
5,8.680999994277954,learn,60000.0,Wed Jan 07 2026 16:48:57 GMT-0600 (Central Standard Time),466169.59999990463,A,wife,I,e,11,2,1199.2999999523163,464970.2999999523,8076,WL,B,8.0
5,8.88100004196167,learn,60000.0,Wed Jan 07 2026 16:48:57 GMT-0600 (Central Standard Time),466369.59999990463,A,wifeenter,I,enter,186,2,1399.2999999523163,464970.2999999523,8076,WL,B,8.0
5,9.146999835968018,learn,60000.0,Wed Jan 07 2026 16:48:57 GMT-0600 (Central Standard Time),466636.0,A,s,I,s,250,2,266.10000002384186,466369.89999997616,8076,WL,B,9.0
5,9.230999946594238,learn,60000.0,Wed Jan 07 2026 16:48:57 GMT-0600 (Central Standard Time),466719.7999999523,A,st,I,t,80,2,349.89999997615814,466369.89999997616,8076,WL,B,9.0
5,9.346999883651733,learn,60000.0,Wed Jan 07 2026 16:48:57 GMT-0600 (Central Standard Time),466836.0,A,sta,I,a,108,2,466.10000002384186,466369.89999997616,8076,WL,B,9.0
5,9.480999946594238,learn,60000.0,Wed Jan 07 2026 16:48:57 GMT-0600 (Central Standard Time),466969.2999999523,A,star,I,r,120,2,599.3999999761581,466369.89999997616,8076,WL,B,9.0
5,9.71399998664856,learn,60000.0,Wed Jan 07 2026 16:48:57 GMT-0600 (Central Standard Time),467202.6999999285,A,starenter,I,enter,218,2,832.7999999523163,466369.89999997616,8076,WL,B,9.0
5,9.980999946594238,learn,60000.0,Wed Jan 07 2026 16:48:57 GMT-0600 (Central Standard Time),467469.1999999285,A,c,I,c,257,2,266.10000002384186,467203.09999990463,8076,WL,B,10.0
5,10.113999843597412,learn,60000.0,Wed Jan 07 2026 16:48:57 GMT-0600 (Central Standard Time),467602.39999997616,A,ci,I,i,119,2,399.3000000715256,467203.09999990463,8076,WL,B,10.0
5,10.21399998664856,learn,60000.0,Wed Jan 07 2026 16:48:57 GMT-0600 (Central Standard Time),467702.6999999285,A,cit,I,t,89,2,499.60000002384186,467203.09999990463,8076,WL,B,10.0
5,10.329999923706055,learn,60000.0,Wed Jan 07 2026 16:48:57 GMT-0600 (Central Standard Time),467819.09999990463,A,city,I,y,109,2,616.0,467203.09999990463,8076,WL,B,10.0
5,10.664999961853027,learn,60000.0,Wed Jan 07 2026 16:48:57 GMT-0600 (Central Standard Time),468153.2999999523,A,cityenter,I,enter,320,2,950.2000000476837,467203.09999990463,8076,WL,B,10.0
5,10.896999835968018,learn,60000.0,Wed Jan 07 2026 16:48:57 GMT-0600 (Central Standard Time),468385.2999999523,A,w,I,w,227,2,231.60000002384186,468153.6999999285,8076,WL,B,11.0
5,11.013000011444092,learn,60000.0,Wed Jan 07 2026 16:48:57 GMT-0600 (Central Standard Time),468502.09999990463,A,wi,I,i,106,2,348.39999997615814,468153.6999999285,8076,WL,B,11.0
5,11.11299991607666,learn,60000.0,Wed Jan 07 2026 16:48:57 GMT-0600 (Central Standard Time),468602.09999990463,A,win,I,n,85,2,448.39999997615814,468153.6999999285,8076,WL,B,11.0
5,11.246999979019165,learn,60000.0,Wed Jan 07 2026 16:48:57 GMT-0600 (Central Standard Time),468735.59999990463,A,wind,I,d,113,2,581.8999999761581,468153.6999999285,8076,WL,B,11.0
5,11.396999835968018,learn,60000.0,Wed Jan 07 2026 16:48:57 GMT-0600 (Central Standard Time),468885.5,A,windo,I,o,141,2,731.8000000715256,468153.6999999285,8076,WL,B,11.0
5,11.54699993133545,learn,60000.0,Wed Jan 07 2026 16:48:57 GMT-0600 (Central Standard Time),469035.2999999523,A,window,I,w,142,2,881.6000000238419,468153.6999999285,8076,WL,B,11.0
5,11.846999883651733,learn,60000.0,Wed Jan 07 2026 16:48:57 GMT-0600 (Central Standard Time),469335.2999999523,A,windowenter,I,enter,288,2,1181.6000000238419,468153.6999999285,8076,WL,B,11.0
5,12.395999908447266,learn,60000.0,Wed Jan 07 2026 16:48:57 GMT-0600 (Central Standard Time),469884.89999997616,A,p,I,p,542,2,549.3000000715256,469335.59999990463,8076,WL,B,12.0
5,13.095999956130981,learn,60000.0,Wed Jan 07 2026 16:48:57 GMT-0600 (Central Standard Time),470584.7999999523,A,pu,I,u,687,2,1249.2000000476837,469335.59999990463,8076,WL,B,12.0
5,13.36299991607666,learn,60000.0,Wed Jan 07 2026 16:48:57 GMT-0600 (Central Standard Time),470851.59999990463,A,pup,I,p,251,2,1516.0,469335.59999990463,8076,WL,B,12.0
5,13.61299991607666,learn,60000.0,Wed Jan 07 2026 16:48:57 GMT-0600 (Central Standard Time),471101.2999999523,A,pupi,I,i,232,2,1765.7000000476837,469335.59999990463,8076,WL,B,12.0
5,13.828999996185303,learn,60000.0,Wed Jan 07 2026 16:48:57 GMT-0600 (Central Standard Time),471318.09999990463,A,pupil,I,l,206,2,1982.5,469335.59999990463,8076,WL,B,12.0
5,14.145999908447266,learn,60000.0,Wed Jan 07 2026 16:48:57 GMT-0600 (Central Standard Time),471634.5,A,pupilenter,I,enter,309,2,2298.9000000953674,469335.59999990463,8076,WL,B,12.0
5,14.496000051498413,learn,60000.0,Wed Jan 07 2026 16:48:57 GMT-0600 (Central Standard Time),471984.39999997616,A,c,I,c,329,2,349.5,471634.89999997616,8076,WL,B,13.0
5,14.61299991607666,learn,60000.0,Wed Jan 07 2026 16:48:57 GMT-0600 (Central Standard Time),472101.1999999285,A,ca,I,a,100,2,466.2999999523163,471634.89999997616,8076,WL,B,13.0
5,14.828999996185303,learn,60000.0,Wed Jan 07 2026 16:48:57 GMT-0600 (Central Standard Time),472317.6999999285,A,cab,I,b,198,2,682.7999999523163,471634.89999997616,8076,WL,B,13.0
5,14.94599986076355,learn,60000.0,Wed Jan 07 2026 16:48:57 GMT-0600 (Central Standard Time),472434.1999999285,A,cabi,I,i,102,2,799.2999999523163,471634.89999997616,8076,WL,B,13.0
5,15.046000003814697,learn,60000.0,Wed Jan 07 2026 16:48:57 GMT-0600 (Central Standard Time),472534.59999990463,A,cabin,I,n,81,2,899.6999999284744,471634.89999997616,8076,WL,B,13.0
5,15.34500002861023,learn,60000.0,Wed Jan 07 2026 16:48:57 GMT-0600 (Central Standard Time),472834.0,A,cabinenter,I,enter,286,2,1199.1000000238419,471634.89999997616,8076,WL,B,13.0
5,15.728999853134155,learn,60000.0,Wed Jan 07 2026 16:48:57 GMT-0600 (Central Standard Time),473217.2999999523,A,l,I,l,377,2,383.10000002384186,472834.1999999285,8076,WL,B,14.0
5,15.878000020980835,learn,60000.0,Wed Jan 07 2026 16:48:57 GMT-0600 (Central Standard Time),473367.1999999285,A,la,I,a,139,2,533.0,472834.1999999285,8076,WL,B,14.0
5,16.09500002861023,learn,60000.0,Wed Jan 07 2026 16:48:57 GMT-0600 (Central Standard Time),473583.89999997616,A,lak,I,k,196,2,749.7000000476837,472834.1999999285,8076,WL,B,14.0
5,16.227999925613403,learn,60000.0,Wed Jan 07 2026 16:48:57 GMT-0600 (Central Standard Time),473717.09999990463,A,lake,I,e,116,2,882.8999999761581,472834.1999999285,8076,WL,B,14.0
5,16.444999933242798,learn,60000.0,Wed Jan 07 2026 16:48:57 GMT-0600 (Central Standard Time),473933.59999990463,A,lakeenter,I,enter,206,2,1099.3999999761581,472834.1999999285,8076,WL,B,14.0
5,16.82799983024597,learn,60000.0,Wed Jan 07 2026 16:48:57 GMT-0600 (Central Standard Time),474316.7999999523,A,p,I,p,366,2,382.7999999523163,473934.0,8076,WL,B,15.0
5,17.01099991798401,learn,60000.0,Wed Jan 07 2026 16:48:57 GMT-0600 (Central Standard Time),474500.09999990463,A,pi,I,i,175,2,566.0999999046326,473934.0,8076,WL,B,15.0
5,17.144999980926514,learn,60000.0,Wed Jan 07 2026 16:48:57 GMT-0600 (Central Standard Time),474633.59999990463,A,pip,I,p,120,2,699.5999999046326,473934.0,8076,WL,B,15.0
5,17.3439998626709,learn,60000.0,Wed Jan 07 2026 16:48:57 GMT-0600 (Central Standard Time),474833.09999990463,A,pipe,I,e,194,2,899.0999999046326,473934.0,8076,WL,B,15.0
5,17.66100001335144,learn,60000.0,Wed Jan 07 2026 16:48:57 GMT-0600 (Central Standard Time),475150.09999990463,A,pipeenter,I,enter,307,2,1216.0999999046326,473934.0,8076,WL,B,15.0
6,0.432999849319458,distr,59567.00015068054,Wed Jan 07 2026 16:48:57 GMT-0600 (Central Standard Time),541479.3999999762,B,f,I,f,422,2,433.10000002384186,541046.2999999523,8076,WL,B,1.0
6,0.6159999370574951,distr,59384.000062942505,Wed Jan 07 2026 16:48:57 GMT-0600 (Central Standard Time),541662.6999999285,B,fr,I,r,163,2,616.3999999761581,541046.2999999523,8076,WL,B,1.0
6,0.7000000476837158,distr,59299.999952316284,Wed Jan 07 2026 16:48:57 GMT-0600 (Central Standard Time),541745.8999999762,B,fri,I,i,77,2,699.6000000238419,541046.2999999523,8076,WL,B,1.0
6,0.9659998416900635,distr,59034.00015830994,Wed Jan 07 2026 16:48:57 GMT-0600 (Central Standard Time),542012.7999999523,B,frie,I,e,258,2,966.5,541046.2999999523,8076,WL,B,1.0
6,1.1489999294281006,distr,58851.0000705719,Wed Jan 07 2026 16:48:57 GMT-0600 (Central Standard Time),542195.3999999762,B,frien,I,n,167,2,1149.1000000238419,541046.2999999523,8076,WL,B,1.0
6,1.315999984741211,distr,58684.00001525879,Wed Jan 07 2026 16:48:57 GMT-0600 (Central Standard Time),542362.3999999762,B,friend,I,d,152,2,1316.1000000238419,541046.2999999523,8076,WL,B,1.0
6,1.4659998416900635,distr,58534.00015830994,Wed Jan 07 2026 16:48:57 GMT-0600 (Central Standard Time),542512.1999999285,B,friendenter,I,enter,129,2,1465.8999999761581,541046.2999999523,8076,WL,B,1.0
6,1.7159998416900635,distr,58284.00015830994,Wed Jan 07 2026 16:48:57 GMT-0600 (Central Standard Time),542762.1999999285,B,s,I,s,243,2,249.5,542512.6999999285,8076,WL,B,2.0
6,1.815999984741211,distr,58184.00001525879,Wed Jan 07 2026 16:48:57 GMT-0600 (Central Standard Time),542862.2999999523,B,st,I,t,89,2,349.60000002384186,542512.6999999285,8076,WL,B,2.0
6,1.932999849319458,distr,58067.00015068054,Wed Jan 07 2026 16:48:57 GMT-0600 (Central Standard Time),542979.0,B,sto,I,o,101,2,466.3000000715256,542512.6999999285,8076,WL,B,2.0
6,2.065999984741211,distr,57934.00001525879,Wed Jan 07 2026 16:48:57 GMT-0600 (Central Standard Time),543112.0999999046,B,stor,I,r,113,2,599.3999999761581,542512.6999999285,8076,WL,B,2.0
6,2.1659998893737793,distr,57834.00011062622,Wed Jan 07 2026 16:48:57 GMT-0600 (Central Standard Time),543212.0999999046,B,storm,I,m,83,2,699.3999999761581,542512.6999999285,8076,WL,B,2.0
6,2.381999969482422,distr,57618.00003051758,Wed Jan 07 2026 16:48:57 GMT-0600 (Central Standard Time),543428.5999999046,B,stormenter,I,enter,207,2,915.8999999761581,542512.6999999285,8076,WL,B,2.0
6,2.6659998893737793,distr,57334.00011062622,Wed Jan 07 2026 16:48:57 GMT-0600 (Central Standard Time),543711.8999999762,B,v,I,v,263,2,282.89999997615814,543429.0,8076,WL,B,3.0
6,2.7819998264312744,distr,57218.000173568726,Wed Jan 07 2026 16:48:57 GMT-0600 (Central Standard Time),543828.3999999762,B,vi,I,i,107,2,399.39999997615814,543429.0,8076,WL,B,3.0
6,2.865000009536743,distr,57134.99999046326,Wed Jan 07 2026 16:48:57 GMT-0600 (Central Standard Time),543911.6999999285,B,vil,I,l,63,2,482.6999999284744,543429.0,8076,WL,B,3.0
6,3.065999984741211,distr,56934.00001525879,Wed Jan 07 2026 16:48:57 GMT-0600 (Central Standard Time),544111.7999999523,B,vill,I,l,180,2,682.7999999523163,543429.0,8076,WL,B,3.0
6,3.1489999294281006,distr,56851.0000705719,Wed Jan 07 2026 16:48:57 GMT-0600 (Central Standard Time),544195.0,B,villa,I,a,68,2,766.0,543429.0,8076,WL,B,3.0
6,3.2649998664855957,distr,56735.000133514404,Wed Jan 07 2026 16:48:57 GMT-0600 (Central Standard Time),544311.8999999762,B,villag,I,g,104,2,882.8999999761581,543429.0,8076,WL,B,3.0
6,3.3989999294281006,distr,56601.0000705719,Wed Jan 07 2026 16:48:57 GMT-0600 (Central Standard Time),544444.8999999762,B,village,I,e,116,2,1015.8999999761581,543429.0,8076,WL,B,3.0
6,5.330999851226807,distr,54669.00014877319,Wed Jan 07 2026 16:48:57 GMT-0600 (Central Standard Time),546377.6999999285,B,villageenter,I,enter,1926,2,2948.6999999284744,543429.0,8076,WL,B,3.0
6,6.13100004196167,distr,53868.99995803833,Wed Jan 07 2026 16:48:57 GMT-0600 (Central Standard Time),547177.5999999046,B,b,I,b,785,2,799.5999999046326,546378.0,8076,WL,B,4.0
6,6.247999906539917,distr,53752.00009346008,Wed Jan 07 2026 16:48:57 GMT-0600 (Central Standard Time),547294.0,B,ba,I,a,106,2,916.0,546378.0,8076,WL,B,4.0
6,6.3480000495910645,distr,53651.999950408936,Wed Jan 07 2026 16:48:57 GMT-0600 (Central Standard Time),547394.0999999046,B,bab,I,b,94,2,1016.0999999046326,546378.0,8076,WL,B,4.0
6,6.5980000495910645,distr,53401.999950408936,Wed Jan 07 2026 16:48:57 GMT-0600 (Central Standard Time),547644.0,B,baby,I,y,241,2,1266.0,546378.0,8076,WL,B,4.0
6,7.047999858856201,distr,52952.0001411438,Wed Jan 07 2026 16:48:57 GMT-0600 (Central Standard Time),548093.8999999762,B,babyenter,I,enter,439,2,1715.8999999761581,546378.0,8076,WL,B,4.0
6,7.346999883651733,distr,52653.00011634827,Wed Jan 07 2026 16:48:57 GMT-0600 (Central Standard Time),548393.7999999523,B,o,I,o,286,2,299.5,548094.2999999523,8076,WL,B,5.0
6,7.46399998664856,distr,52536.00001335144,Wed Jan 07 2026 16:48:57 GMT-0600 (Central Standard Time),548510.3999999762,B,oc,I,c,98,2,416.10000002384186,548094.2999999523,8076,WL,B,5.0
6,7.664000034332275,distr,52335.999965667725,Wed Jan 07 2026 16:48:57 GMT-0600 (Central Standard Time),548710.1999999285,B,oce,I,e,181,2,615.8999999761581,548094.2999999523,8076,WL,B,5.0
6,7.73199987411499,distr,52268.00012588501,Wed Jan 07 2026 16:48:57 GMT-0600 (Central Standard Time),548778.0999999046,B,ocea,I,a,61,2,683.7999999523163,548094.2999999523,8076,WL,B,5.0
6,7.980000019073486,distr,52019.999980926514,Wed Jan 07 2026 16:48:57 GMT-0600 (Central Standard Time),549026.6999999285,B,ocean,I,n,233,2,932.3999999761581,548094.2999999523,8076,WL,B,5.0
6,8.363999843597412,distr,51636.00015640259,Wed Jan 07 2026 16:48:57 GMT-0600 (Central Standard Time),549410.0999999046,B,oceanenter,I,enter,369,2,1315.7999999523163,548094.2999999523,8076,WL,B,5.0
6,10.928999900817871,distr,49071.00009918213,Wed Jan 07 2026 16:48:57 GMT-0600 (Central Standard Time),551975.7999999523,B,l,I,l,2554,2,2565.2999999523163,549410.5,8076,WL,B,6.0
6,11.263000011444092,distr,48736.99998855591,Wed Jan 07 2026 16:48:57 GMT-0600 (Central Standard Time),552309.2999999523,B,li,I,i,324,2,2898.7999999523163,549410.5,8076,WL,B,6.0
6,11.513000011444092,distr,48486.99998855591,Wed Jan 07 2026 16:48:57 GMT-0600 (Central Standard Time),552559.7999999523,B,lip,I,p,246,2,3149.2999999523163,549410.5,8076,WL,B,6.0
6,11.895999908447266,distr,48104.000091552734,Wed Jan 07 2026 16:48:57 GMT-0600 (Central Standard Time),552942.2999999523,B,lipenter,I,enter,372,2,3531.7999999523163,549410.5,8076,WL,B,6.0
6,12.478999853134155,distr,47521.000146865845,Wed Jan 07 2026 16:48:57 GMT-0600 (Central Standard Time),553525.5999999046,B,b,I,b,573,2,582.8999999761581,552942.6999999285,8076,WL,B,7.0
6,12.611999988555908,distr,47388.00001144409,Wed Jan 07 2026 16:48:57 GMT-0600 (Central Standard Time),553658.6999999285,B,ba,I,a,126,2,716.0,552942.6999999285,8076,WL,B,7.0
6,12.812999963760376,distr,47187.000036239624,Wed Jan 07 2026 16:48:57 GMT-0600 (Central Standard Time),553859.8999999762,B,bar,I,r,193,2,917.2000000476837,552942.6999999285,8076,WL,B,7.0
6,13.128999948501587,distr,46871.00005149841,Wed Jan 07 2026 16:48:57 GMT-0600 (Central Standard Time),554175.1999999285,B,barenter,I,enter,296,2,1232.5,552942.6999999285,8076,WL,B,7.0
6,13.562000036239624,distr,46437.999963760376,Wed Jan 07 2026 16:48:57 GMT-0600 (Central Standard Time),554608.0999999046,B,s,I,s,428,2,432.59999990463257,554175.5,8076,WL,B,8.0
6,13.711999893188477,distr,46288.00010681152,Wed Jan 07 2026 16:48:57 GMT-0600 (Central Standard Time),554758.2999999523,B,st,I,t,139,2,582.7999999523163,554175.5,8076,WL,B,8.0
6,13.828999996185303,distr,46171.0000038147,Wed Jan 07 2026 16:48:57 GMT-0600 (Central Standard Time),554874.8999999762,B,ste,I,e,109,2,699.3999999761581,554175.5,8076,WL,B,8.0
6,13.961999893188477,distr,46038.00010681152,Wed Jan 07 2026 16:48:57 GMT-0600 (Central Standard Time),555008.0999999046,B,stea,I,a,113,2,832.5999999046326,554175.5,8076,WL,B,8.0
6,14.128999948501587,distr,45871.00005149841,Wed Jan 07 2026 16:48:57 GMT-0600 (Central Standard Time),555174.8999999762,B,steam,I,m,147,2,999.3999999761581,554175.5,8076,WL,B,8.0
6,14.361999988555908,distr,45638.00001144409,Wed Jan 07 2026 16:48:57 GMT-0600 (Central Standard Time),555408.2999999523,B,steamenter,I,enter,220,2,1232.7999999523163,554175.5,8076,WL,B,8.0
6,14.544999837875366,distr,45455.000162124634,Wed Jan 07 2026 16:48:57 GMT-0600 (Central Standard Time),555591.3999999762,B,d,I,d,172,2,182.80000007152557,555408.5999999046,8076,WL,B,9.0
6,14.76199984550476,distr,45238.00015449524,Wed Jan 07 2026 16:48:57 GMT-0600 (Central Standard Time),555807.8999999762,B,dr,I,r,196,2,399.3000000715256,555408.5999999046,8076,WL,B,9.0
6,14.777999877929688,distr,45222.00012207031,Wed Jan 07 2026 16:48:57 GMT-0600 (Central Standard Time),555824.6999999285,B,dre,I,e,3,2,416.10000002384186,555408.5999999046,8076,WL,B,9.0
6,14.861999988555908,distr,45138.00001144409,Wed Jan 07 2026 16:48:57 GMT-0600 (Central Standard Time),555908.1999999285,B,dres,I,s,75,2,499.60000002384186,555408.5999999046,8076,WL,B,9.0
6,15.077999830245972,distr,44922.00016975403,Wed Jan 07 2026 16:48:57 GMT-0600 (Central Standard Time),556124.7999999523,B,dress,I,s,199,2,716.2000000476837,555408.5999999046,8076,WL,B,9.0
6,15.860999822616577,distr,44139.00017738342,Wed Jan 07 2026 16:48:57 GMT-0600 (Central Standard Time),556907.7999999523,B,dressenter,I,enter,775,2,1499.2000000476837,555408.5999999046,8076,WL,B,9.0
6,19.960000038146973,distr,40039.99996185303,Wed Jan 07 2026 16:48:57 GMT-0600 (Central Standard Time),561006.5999999046,B,b,I,b,4080,2,4098.399999976158,556908.1999999285,8076,WL,B,10.0
6,20.109999895095825,distr,39890.000104904175,Wed Jan 07 2026 16:48:57 GMT-0600 (Central Standard Time),561156.5999999046,B,bu,I,u,141,2,4248.399999976158,556908.1999999285,8076,WL,B,10.0
6,20.194000005722046,distr,39805.999994277954,Wed Jan 07 2026 16:48:57 GMT-0600 (Central Standard Time),561240.0,B,bui,I,i,62,2,4331.800000071526,556908.1999999285,8076,WL,B,10.0
6,20.292999982833862,distr,39707.00001716614,Wed Jan 07 2026 16:48:57 GMT-0600 (Central Standard Time),561339.5999999046,B,buil,I,l,84,2,4431.399999976158,556908.1999999285,8076,WL,B,10.0
6,20.40999984741211,distr,39590.00015258789,Wed Jan 07 2026 16:48:57 GMT-0600 (Central Standard Time),561456.3999999762,B,build,I,d,104,2,4548.200000047684,556908.1999999285,8076,WL,B,10.0
6,21.026000022888184,distr,38973.99997711182,Wed Jan 07 2026 16:48:57 GMT-0600 (Central Standard Time),562072.5999999046,B,buildi,I,i,611,2,5164.399999976158,556908.1999999285,8076,WL,B,10.0
6,21.14299988746643,distr,38857.00011253357,Wed Jan 07 2026 16:48:57 GMT-0600 (Central Standard Time),562189.5,B,buildin,I,n,99,2,5281.300000071526,556908.1999999285,8076,WL,B,10.0
6,21.460000038146973,distr,38539.99996185303,Wed Jan 07 2026 16:48:57 GMT-0600 (Central Standard Time),562506.0,B,building,I,g,302,2,5597.800000071526,556908.1999999285,8076,WL,B,10.0
6,21.675999879837036,distr,38324.000120162964,Wed Jan 07 2026 16:48:57 GMT-0600 (Central Standard Time),562722.5,B,buildingenter,I,enter,202,2,5814.300000071526,556908.1999999285,8076,WL,B,10.0
6,21.993000030517578,distr,38006.99996948242,Wed Jan 07 2026 16:48:57 GMT-0600 (Central Standard Time),563039.1999999285,B,r,I,r,297,2,316.2999999523163,562722.8999999762,8076,WL,B,11.0
6,22.109999895095825,distr,37890.000104904175,Wed Jan 07 2026 16:48:57 GMT-0600 (Central Standard Time),563155.8999999762,B,ro,I,o,109,2,433.0,562722.8999999762,8076,WL,B,11.0
6,22.258999824523926,distr,37741.000175476074,Wed Jan 07 2026 16:48:57 GMT-0600 (Central Standard Time),563305.6999999285,B,roc,I,c,144,2,582.7999999523163,562722.8999999762,8076,WL,B,11.0
6,22.39299988746643,distr,37607.00011253357,Wed Jan 07 2026 16:48:57 GMT-0600 (Central Standard Time),563439.2999999523,B,rock,I,k,123,2,716.3999999761581,562722.8999999762,8076,WL,B,11.0
6,22.776000022888184,distr,37223.99997711182,Wed Jan 07 2026 16:48:57 GMT-0600 (Central Standard Time),563822.1999999285,B,rockenter,I,enter,364,2,1099.2999999523163,562722.8999999762,8076,WL,B,11.0
6,23.175999879837036,distr,36824.000120162964,Wed Jan 07 2026 16:48:57 GMT-0600 (Central Standard Time),564222.1999999285,B,s,I,s,381,2,399.6999999284744,563822.5,8076,WL,B,12.0
6,23.243000030517578,distr,36756.99996948242,Wed Jan 07 2026 16:48:57 GMT-0600 (Central Standard Time),564288.8999999762,B,so,I,o,54,2,466.39999997615814,563822.5,8076,WL,B,12.0
6,23.54200005531311,distr,36457.99994468689,Wed Jan 07 2026 16:48:57 GMT-0600 (Central Standard Time),564588.5999999046,B,sol,I,l,283,2,766.0999999046326,563822.5,8076,WL,B,12.0
6,24.741999864578247,distr,35258.00013542175,Wed Jan 07 2026 16:48:57 GMT-0600 (Central Standard Time),565788.3999999762,B,sold,I,d,1183,2,1965.8999999761581,563822.5,8076,WL,B,12.0
6,24.991999864578247,distr,35008.00013542175,Wed Jan 07 2026 16:48:57 GMT-0600 (Central Standard Time),566038.5,B,soldi,I,i,231,2,2216.0,563822.5,8076,WL,B,12.0
6,26.125,distr,33875.0,Wed Jan 07 2026 16:48:57 GMT-0600 (Central Standard Time),567171.2999999523,B,sold,I,backspace,1125,2,3348.7999999523163,563822.5,8076,WL,B,12.0
6,26.29200005531311,distr,33707.99994468689,Wed Jan 07 2026 16:48:57 GMT-0600 (Central Standard Time),567338.0,B,sol,I,backspace,152,2,3515.5,563822.5,8076,WL,B,12.0
6,26.441999912261963,distr,33558.00008773804,Wed Jan 07 2026 16:48:57 GMT-0600 (Central Standard Time),567488.0,B,so,I,backspace,146,2,3665.5,563822.5,8076,WL,B,12.0
6,26.60800004005432,distr,33391.99995994568,Wed Jan 07 2026 16:48:57 GMT-0600 (Central Standard Time),567654.3999999762,B,s,I,backspace,156,2,3831.899999976158,563822.5,8076,WL,B,12.0
6,26.774999856948853,distr,33225.00014305115,Wed Jan 07 2026 16:48:57 GMT-0600 (Central Standard Time),567821.0999999046,B,,I,backspace,157,2,3998.5999999046326,563822.5,8076,WL,B,12.0
6,27.007999897003174,distr,32992.000102996826,Wed Jan 07 2026 16:48:57 GMT-0600 (Central Standard Time),568054.3999999762,B,a,I,a,223,2,4231.899999976158,563822.5,8076,WL,B,12.0
6,27.10800004005432,distr,32891.99995994568,Wed Jan 07 2026 16:48:57 GMT-0600 (Central Standard Time),568154.1999999285,B,ar,I,r,85,2,4331.699999928474,563822.5,8076,WL,B,12.0
6,27.19099998474121,distr,32809.00001525879,Wed Jan 07 2026 16:48:57 GMT-0600 (Central Standard Time),568237.5,B,arm,I,m,74,2,4415.0,563822.5,8076,WL,B,12.0
6,27.657999992370605,distr,32342.000007629395,Wed Jan 07 2026 16:48:57 GMT-0600 (Central Standard Time),568704.0999999046,B,army,I,y,462,2,4881.599999904633,563822.5,8076,WL,B,12.0
6,28.840999841690063,distr,31159.000158309937,Wed Jan 07 2026 16:48:57 GMT-0600 (Central Standard Time),569887.2999999523,B,armyenter,I,enter,1172,2,6064.799999952316,563822.5,8076,WL,B,12.0
6,35.605000019073486,distr,24394.999980926514,Wed Jan 07 2026 16:48:57 GMT-0600 (Central Standard Time),576651.5999999046,B,b,I,b,6749,2,6764.0,569887.5999999046,8076,WL,B,13.0
6,35.82200002670288,distr,24177.99997329712,Wed Jan 07 2026 16:48:57 GMT-0600 (Central Standard Time),576868.3999999762,B,ba,I,a,207,2,6980.800000071526,569887.5999999046,8076,WL,B,13.0
6,36.00499987602234,distr,23995.00012397766,Wed Jan 07 2026 16:48:57 GMT-0600 (Central Standard Time),577051.5,B,bar,I,r,175,2,7163.900000095367,569887.5999999046,8076,WL,B,13.0
6,36.687999963760376,distr,23312.000036239624,Wed Jan 07 2026 16:48:57 GMT-0600 (Central Standard Time),577734.8999999762,B,barenter,I,enter,672,2,7847.300000071526,569887.5999999046,8076,WL,B,13.0
6,42.65299987792969,distr,17347.000122070312,Wed Jan 07 2026 16:48:57 GMT-0600 (Central Standard Time),583699.2999999523,B,p,I,p,5949,2,5964.100000023842,577735.1999999285,8076,WL,B,14.0
6,42.78600001335144,distr,17213.99998664856,Wed Jan 07 2026 16:48:57 GMT-0600 (Central Standard Time),583832.5,B,pa,I,a,128,2,6097.300000071526,577735.1999999285,8076,WL,B,14.0
6,43.30299997329712,distr,16697.00002670288,Wed Jan 07 2026 16:48:57 GMT-0600 (Central Standard Time),584349.0,B,pal,I,l,499,2,6613.800000071526,577735.1999999285,8076,WL,B,14.0
6,43.40299987792969,distr,16597.000122070312,Wed Jan 07 2026 16:48:57 GMT-0600 (Central Standard Time),584448.8999999762,B,pala,I,a,96,2,6713.700000047684,577735.1999999285,8076,WL,B,14.0
6,43.6029999256134,distr,16397.000074386597,Wed Jan 07 2026 16:48:57 GMT-0600 (Central Standard Time),584649.0999999046,B,palac,I,c,187,2,6913.899999976158,577735.1999999285,8076,WL,B,14.0
6,43.76900005340576,distr,16230.999946594238,Wed Jan 07 2026 16:48:57 GMT-0600 (Central Standard Time),584815.6999999285,B,palace,I,e,145,2,7080.5,577735.1999999285,8076,WL,B,14.0
6,44.2189998626709,distr,15781.000137329102,Wed Jan 07 2026 16:48:57 GMT-0600 (Central Standard Time),585265.1999999285,B,palaceenter,I,enter,444,2,7530.0,577735.1999999285,8076,WL,B,14.0
6,60.014999866485596,distr,-14.999866485595703,Wed Jan 07 2026 16:48:57 GMT-0600 (Central Standard Time),601061.7999999523,B,None,I,None,15792,2,15796.299999952316,585265.5,8076,WL,B,15.0
7,0.6340000629425049,immed,59365.999937057495,Wed Jan 07 2026 16:48:57 GMT-0600 (Central Standard Time),607242.0999999046,A,s,I,s,627,2,633.2999999523163,606608.7999999523,8076,WL,B,1.0
7,0.7339999675750732,immed,59266.00003242493,Wed Jan 07 2026 16:48:57 GMT-0600 (Central Standard Time),607342.0,A,sk,I,k,89,2,733.2000000476837,606608.7999999523,8076,WL,B,1.0
7,0.9010000228881836,immed,59098.99997711182,Wed Jan 07 2026 16:48:57 GMT-0600 (Central Standard Time),607508.6999999285,A,ski,I,i,150,2,899.8999999761581,606608.7999999523,8076,WL,B,1.0
7,1.0,immed,59000.0,Wed Jan 07 2026 16:48:57 GMT-0600 (Central Standard Time),607608.5999999046,A,skin,I,n,79,2,999.7999999523163,606608.7999999523,8076,WL,B,1.0
7,1.2840001583099365,immed,58715.99984169006,Wed Jan 07 2026 16:48:57 GMT-0600 (Central Standard Time),607891.7999999523,A,skinenter,I,enter,267,2,1283.0,606608.7999999523,8076,WL,B,1.0
7,1.567000150680542,immed,58432.99984931946,Wed Jan 07 2026 16:48:57 GMT-0600 (Central Standard Time),608174.8999999762,A,f,I,f,264,2,282.60000002384186,607892.2999999523,8076,WL,B,2.0
7,1.7330000400543213,immed,58266.99995994568,Wed Jan 07 2026 16:48:57 GMT-0600 (Central Standard Time),608341.5,A,fi,I,i,149,2,449.2000000476837,607892.2999999523,8076,WL,B,2.0
7,2.0830001831054688,immed,57916.99981689453,Wed Jan 07 2026 16:48:57 GMT-0600 (Central Standard Time),608691.5999999046,A,fir,I,r,342,2,799.2999999523163,607892.2999999523,8076,WL,B,2.0
7,2.2330000400543213,immed,57766.99995994568,Wed Jan 07 2026 16:48:57 GMT-0600 (Central Standard Time),608841.1999999285,A,fire,I,e,144,2,948.8999999761581,607892.2999999523,8076,WL,B,2.0
7,5.0329999923706055,immed,54967.000007629395,Wed Jan 07 2026 16:48:57 GMT-0600 (Central Standard Time),611640.6999999285,A,fireenter,I,enter,2778,2,3748.399999976158,607892.2999999523,8076,WL,B,2.0
7,5.348999977111816,immed,54651.00002288818,Wed Jan 07 2026 16:48:57 GMT-0600 (Central Standard Time),611957.3999999762,A,c,I,c,299,2,316.39999997615814,611641.0,8076,WL,B,3.0
7,5.466000080108643,immed,54533.99991989136,Wed Jan 07 2026 16:48:57 GMT-0600 (Central Standard Time),612073.7999999523,A,cl,I,l,102,2,432.7999999523163,611641.0,8076,WL,B,3.0
7,5.666000127792358,immed,54333.99987220764,Wed Jan 07 2026 16:48:57 GMT-0600 (Central Standard Time),612273.7999999523,A,clo,I,o,194,2,632.7999999523163,611641.0,8076,WL,B,3.0
7,5.815999984741211,immed,54184.00001525879,Wed Jan 07 2026 16:48:57 GMT-0600 (Central Standard Time),612423.6999999285,A,cloc,I,c,130,2,782.6999999284744,611641.0,8076,WL,B,3.0
7,5.949000120162964,immed,54050.999879837036,Wed Jan 07 2026 16:48:57 GMT-0600 (Central Standard Time),612557.2999999523,A,clock,I,k,116,2,916.2999999523163,611641.0,8076,WL,B,3.0
7,6.299000024795532,immed,53700.99997520447,Wed Jan 07 2026 16:48:57 GMT-0600 (Central Standard Time),612907.0,A,clockenter,I,enter,334,2,1266.0,611641.0,8076,WL,B,3.0
7,8.315000057220459,immed,51684.99994277954,Wed Jan 07 2026 16:48:57 GMT-0600 (Central Standard Time),614922.8999999762,A,s,I,s,2009,2,2015.5,612907.3999999762,8076,WL,B,4.0
7,8.481000185012817,immed,51518.99981498718,Wed Jan 07 2026 16:48:57 GMT-0600 (Central Standard Time),615089.3999999762,A,st,I,t,146,2,2182.0,612907.3999999762,8076,WL,B,4.0
7,8.664999961853027,immed,51335.00003814697,Wed Jan 07 2026 16:48:57 GMT-0600 (Central Standard Time),615272.8999999762,A,str,I,r,162,2,2365.5,612907.3999999762,8076,WL,B,4.0
7,8.697999954223633,immed,51302.00004577637,Wed Jan 07 2026 16:48:57 GMT-0600 (Central Standard Time),615306.2999999523,A,stre,I,e,18,2,2398.899999976158,612907.3999999762,8076,WL,B,4.0
7,8.864000082015991,immed,51135.99991798401,Wed Jan 07 2026 16:48:57 GMT-0600 (Central Standard Time),615472.3999999762,A,stree,I,e,161,2,2565.0,612907.3999999762,8076,WL,B,4.0
7,8.96399998664856,immed,51036.00001335144,Wed Jan 07 2026 16:48:57 GMT-0600 (Central Standard Time),615572.5999999046,A,street,I,t,83,2,2665.1999999284744,612907.3999999762,8076,WL,B,4.0
7,9.13100004196167,immed,50868.99995803833,Wed Jan 07 2026 16:48:57 GMT-0600 (Central Standard Time),615739.3999999762,A,streetenter,I,enter,159,2,2832.0,612907.3999999762,8076,WL,B,4.0
7,9.348000049591064,immed,50651.999950408936,Wed Jan 07 2026 16:48:57 GMT-0600 (Central Standard Time),615955.5999999046,A,g,I,g,208,2,215.79999995231628,615739.7999999523,8076,WL,B,5.0
7,9.531000137329102,immed,50468.9998626709,Wed Jan 07 2026 16:48:57 GMT-0600 (Central Standard Time),616139.2999999523,A,gr,I,r,169,2,399.5,615739.7999999523,8076,WL,B,5.0
7,9.615000009536743,immed,50384.99999046326,Wed Jan 07 2026 16:48:57 GMT-0600 (Central Standard Time),616223.0999999046,A,gra,I,a,72,2,483.2999999523163,615739.7999999523,8076,WL,B,5.0
7,9.71399998664856,immed,50286.00001335144,Wed Jan 07 2026 16:48:57 GMT-0600 (Central Standard Time),616322.6999999285,A,gras,I,s,84,2,582.8999999761581,615739.7999999523,8076,WL,B,5.0
7,10.098000049591064,immed,49901.999950408936,Wed Jan 07 2026 16:48:57 GMT-0600 (Central Standard Time),616705.7999999523,A,grass,I,s,369,2,966.0,615739.7999999523,8076,WL,B,5.0
7,10.414000034332275,immed,49585.999965667725,Wed Jan 07 2026 16:48:57 GMT-0600 (Central Standard Time),617022.2999999523,A,grassenter,I,enter,306,2,1282.5,615739.7999999523,8076,WL,B,5.0
7,10.647000074386597,immed,49352.9999256134,Wed Jan 07 2026 16:48:57 GMT-0600 (Central Standard Time),617255.3999999762,A,a,I,a,221,2,232.80000007152557,617022.5999999046,8076,WL,B,6.0
7,10.746999979019165,immed,49253.000020980835,Wed Jan 07 2026 16:48:57 GMT-0600 (Central Standard Time),617355.3999999762,A,ar,I,r,84,2,332.8000000715256,617022.5999999046,8076,WL,B,6.0
7,10.897000074386597,immed,49102.9999256134,Wed Jan 07 2026 16:48:57 GMT-0600 (Central Standard Time),617505.2999999523,A,arm,I,m,135,2,482.7000000476837,617022.5999999046,8076,WL,B,6.0
