block_c,block_dur,condition,countdown,datetime,endtime,list,multichar_response,project,response,response_time,session_number,start_end,starttime,subject_id,task,task_vers,trial
,,,,Tue Apr 21 2026 17:58:10 GMT-0500 (Central Daylight Time),,,,I,space,622,3,,,8076,WL,A,
prac,,0,,Tue Apr 21 2026 17:58:10 GMT-0500 (Central Daylight Time),,NA,b,I,b,2548,3,,,8076,WL,A,1.0
prac,,0,,Tue Apr 21 2026 17:58:10 GMT-0500 (Central Daylight Time),,NA,bo,I,o,312,3,,,8076,WL,A,1.0
prac,,0,,Tue Apr 21 2026 17:58:10 GMT-0500 (Central Daylight Time),,NA,boo,I,o,140,3,,,8076,WL,A,1.0
prac,,0,,Tue Apr 21 2026 17:58:10 GMT-0500 (Central Daylight Time),,NA,boos,I,s,78,3,,,8076,WL,A,1.0
prac,,0,,Tue Apr 21 2026 17:58:10 GMT-0500 (Central Daylight Time),,NA,boost,I,t,147,3,,,8076,WL,A,1.0
prac,,0,,Tue Apr 21 2026 17:58:10 GMT-0500 (Central Daylight Time),,NA,boostenter,I,enter,612,3,,,8076,WL,A,1.0
1,0.567000150680542,learn,59432.99984931946,Tue Apr 21 2026 17:58:10 GMT-0500 (Central Daylight Time),132323.40000000596,A,r,I,r,552,3,566.3000000119209,131757.09999999404,8076,WL,A,1.0
1,0.6670000553131104,learn,59332.99994468689,Tue Apr 21 2026 17:58:10 GMT-0500 (Central Daylight Time),132423.0,A,ra,I,a,87,3,665.9000000059605,131757.09999999404,8076,WL,A,1.0
1,0.7829999923706055,learn,59217.000007629395,Tue Apr 21 2026 17:58:10 GMT-0500 (Central Daylight Time),132539.79999998212,A,rat,I,t,109,3,782.6999999880791,131757.09999999404,8076,WL,A,1.0
1,1.001000165939331,learn,58998.99983406067,Tue Apr 21 2026 17:58:10 GMT-0500 (Central Daylight Time),132757.69999998808,A,ratt,I,t,200,3,1000.5999999940395,131757.09999999404,8076,WL,A,1.0
1,1.1500000953674316,learn,58849.99990463257,Tue Apr 21 2026 17:58:10 GMT-0500 (Central Daylight Time),132906.19999998808,A,rattl,I,l,141,3,1149.0999999940395,131757.09999999404,8076,WL,A,1.0
1,1.31600022315979,learn,58683.99977684021,Tue Apr 21 2026 17:58:10 GMT-0500 (Central Daylight Time),133072.79999998212,A,rattle,I,e,155,3,1315.699999988079,131757.09999999404,8076,WL,A,1.0
1,2.4000000953674316,learn,57599.99990463257,Tue Apr 21 2026 17:58:10 GMT-0500 (Central Daylight Time),134156.0,A,rattleenter,I,enter,1075,3,2398.9000000059605,131757.09999999404,8076,WL,A,1.0
1,3.133000135421753,learn,56866.99986457825,Tue Apr 21 2026 17:58:10 GMT-0500 (Central Daylight Time),134889.09999999404,A,g,I,g,719,3,732.5,134156.59999999404,8076,WL,A,2.0
1,3.249000072479248,learn,56750.99992752075,Tue Apr 21 2026 17:58:10 GMT-0500 (Central Daylight Time),135005.79999998212,A,go,I,o,100,3,849.1999999880791,134156.59999999404,8076,WL,A,2.0
1,3.449000120162964,learn,56550.999879837036,Tue Apr 21 2026 17:58:10 GMT-0500 (Central Daylight Time),135205.69999998808,A,gol,I,l,182,3,1049.0999999940395,134156.59999999404,8076,WL,A,2.0
1,3.5,learn,56500.0,Tue Apr 21 2026 17:58:10 GMT-0500 (Central Daylight Time),135255.90000000596,A,gold,I,d,37,3,1099.300000011921,134156.59999999404,8076,WL,A,2.0
1,4.132000207901001,learn,55867.999792099,Tue Apr 21 2026 17:58:10 GMT-0500 (Central Daylight Time),135888.59999999404,A,goldenter,I,enter,612,3,1732.0,134156.59999999404,8076,WL,A,2.0
1,4.632000207901001,learn,55367.999792099,Tue Apr 21 2026 17:58:10 GMT-0500 (Central Daylight Time),136388.69999998808,A,k,I,k,492,3,499.5,135889.19999998808,8076,WL,A,3.0
1,4.732000112533569,learn,55267.99988746643,Tue Apr 21 2026 17:58:10 GMT-0500 (Central Daylight Time),136488.59999999404,A,ke,I,e,79,3,599.4000000059605,135889.19999998808,8076,WL,A,3.0
1,5.2820000648498535,learn,54717.99993515015,Tue Apr 21 2026 17:58:10 GMT-0500 (Central Daylight Time),137038.09999999404,A,key,I,y,532,3,1148.9000000059605,135889.19999998808,8076,WL,A,3.0
1,5.632000207901001,learn,54367.999792099,Tue Apr 21 2026 17:58:10 GMT-0500 (Central Daylight Time),137388.0,A,keyenter,I,enter,341,3,1498.800000011921,135889.19999998808,8076,WL,A,3.0
1,6.0980000495910645,learn,53901.999950408936,Tue Apr 21 2026 17:58:10 GMT-0500 (Central Daylight Time),137854.69999998808,A,b,I,b,447,3,466.40000000596046,137388.29999998212,8076,WL,A,4.0
1,6.232000112533569,learn,53767.99988746643,Tue Apr 21 2026 17:58:10 GMT-0500 (Central Daylight Time),137988.09999999404,A,bo,I,o,125,3,599.8000000119209,137388.29999998212,8076,WL,A,4.0
1,6.4150002002716064,learn,53584.99979972839,Tue Apr 21 2026 17:58:10 GMT-0500 (Central Daylight Time),138171.5,A,boo,I,o,169,3,783.2000000178814,137388.29999998212,8076,WL,A,4.0
1,6.498000144958496,learn,53501.999855041504,Tue Apr 21 2026 17:58:10 GMT-0500 (Central Daylight Time),138254.79999998212,A,book,I,k,66,3,866.5,137388.29999998212,8076,WL,A,4.0
1,6.948000192642212,learn,53051.99980735779,Tue Apr 21 2026 17:58:10 GMT-0500 (Central Daylight Time),138704.69999998808,A,bookenter,I,enter,429,3,1316.4000000059605,137388.29999998212,8076,WL,A,4.0
1,7.29800009727478,learn,52701.99990272522,Tue Apr 21 2026 17:58:10 GMT-0500 (Central Daylight Time),139054.29999998212,A,f,I,f,331,3,349.0,138705.29999998212,8076,WL,A,5.0
1,7.430999994277954,learn,52569.000005722046,Tue Apr 21 2026 17:58:10 GMT-0500 (Central Daylight Time),139187.79999998212,A,fl,I,l,118,3,482.5,138705.29999998212,8076,WL,A,5.0
1,7.581000089645386,learn,52418.999910354614,Tue Apr 21 2026 17:58:10 GMT-0500 (Central Daylight Time),139337.5,A,flo,I,o,145,3,632.2000000178814,138705.29999998212,8076,WL,A,5.0
1,7.680999994277954,learn,52319.000005722046,Tue Apr 21 2026 17:58:10 GMT-0500 (Central Daylight Time),139437.29999998212,A,flow,I,w,92,3,732.0,138705.29999998212,8076,WL,A,5.0
1,7.748000144958496,learn,52251.999855041504,Tue Apr 21 2026 17:58:10 GMT-0500 (Central Daylight Time),139504.19999998808,A,flowe,I,e,47,3,798.9000000059605,138705.29999998212,8076,WL,A,5.0
1,7.814000129699707,learn,52185.99987030029,Tue Apr 21 2026 17:58:10 GMT-0500 (Central Daylight Time),139570.79999998212,A,flower,I,r,59,3,865.5,138705.29999998212,8076,WL,A,5.0
1,8.264000177383423,learn,51735.99982261658,Tue Apr 21 2026 17:58:10 GMT-0500 (Central Daylight Time),140020.69999998808,A,flowerenter,I,enter,433,3,1315.4000000059605,138705.29999998212,8076,WL,A,5.0
1,8.564000129699707,learn,51435.99987030029,Tue Apr 21 2026 17:58:10 GMT-0500 (Central Daylight Time),140320.69999998808,A,t,I,t,288,3,299.59999999403954,140021.09999999404,8076,WL,A,6.0
1,8.748000144958496,learn,51251.999855041504,Tue Apr 21 2026 17:58:10 GMT-0500 (Central Daylight Time),140504.0,A,tr,I,r,164,3,482.90000000596046,140021.09999999404,8076,WL,A,6.0
1,8.814000129699707,learn,51185.99987030029,Tue Apr 21 2026 17:58:10 GMT-0500 (Central Daylight Time),140570.69999998808,A,tra,I,a,53,3,549.5999999940395,140021.09999999404,8076,WL,A,6.0
1,8.88100004196167,learn,51118.99995803833,Tue Apr 21 2026 17:58:10 GMT-0500 (Central Daylight Time),140637.19999998808,A,trai,I,i,51,3,616.0999999940395,140021.09999999404,8076,WL,A,6.0
1,8.981000185012817,learn,51018.99981498718,Tue Apr 21 2026 17:58:10 GMT-0500 (Central Daylight Time),140737.5,A,train,I,n,79,3,716.4000000059605,140021.09999999404,8076,WL,A,6.0
1,9.297000169754028,learn,50702.99983024597,Tue Apr 21 2026 17:58:10 GMT-0500 (Central Daylight Time),141053.79999998212,A,trainenter,I,enter,306,3,1032.699999988079,140021.09999999404,8076,WL,A,6.0
1,9.680999994277954,learn,50319.000005722046,Tue Apr 21 2026 17:58:10 GMT-0500 (Central Daylight Time),141436.90000000596,A,r,I,r,367,3,382.7000000178814,141054.19999998808,8076,WL,A,7.0
1,9.815000057220459,learn,50184.99994277954,Tue Apr 21 2026 17:58:10 GMT-0500 (Central Daylight Time),141571.29999998212,A,ru,I,u,127,3,517.0999999940395,141054.19999998808,8076,WL,A,7.0
1,9.964000225067139,learn,50035.99977493286,Tue Apr 21 2026 17:58:10 GMT-0500 (Central Daylight Time),141720.40000000596,A,rug,I,g,129,3,666.2000000178814,141054.19999998808,8076,WL,A,7.0
1,10.19700002670288,learn,49802.99997329712,Tue Apr 21 2026 17:58:10 GMT-0500 (Central Daylight Time),141953.5,A,rugenter,I,enter,220,3,899.3000000119209,141054.19999998808,8076,WL,A,7.0
1,10.747000217437744,learn,49252.999782562256,Tue Apr 21 2026 17:58:10 GMT-0500 (Central Daylight Time),142503.19999998808,A,m,I,m,540,3,549.2999999821186,141953.90000000596,8076,WL,A,8.0
1,11.013000011444092,learn,48986.99998855591,Tue Apr 21 2026 17:58:10 GMT-0500 (Central Daylight Time),142769.69999998808,A,me,I,e,261,3,815.7999999821186,141953.90000000596,8076,WL,A,8.0
1,11.164000034332275,learn,48835.999965667725,Tue Apr 21 2026 17:58:10 GMT-0500 (Central Daylight Time),142920.0,A,mew,I,w,139,3,966.0999999940395,141953.90000000596,8076,WL,A,8.0
1,11.580000162124634,learn,48419.999837875366,Tue Apr 21 2026 17:58:10 GMT-0500 (Central Daylight Time),143336.40000000596,A,mewa,I,a,396,3,1382.5,141953.90000000596,8076,WL,A,8.0
1,11.963000059127808,learn,48036.99994087219,Tue Apr 21 2026 17:58:10 GMT-0500 (Central Daylight Time),143719.69999998808,A,mew,I,backspace,364,3,1765.7999999821186,141953.90000000596,8076,WL,A,8.0
1,12.11300015449524,learn,47886.99984550476,Tue Apr 21 2026 17:58:10 GMT-0500 (Central Daylight Time),143869.79999998212,A,me,I,backspace,132,3,1915.8999999761581,141953.90000000596,8076,WL,A,8.0
1,12.147000074386597,learn,47852.9999256134,Tue Apr 21 2026 17:58:10 GMT-0500 (Central Daylight Time),143903.40000000596,A,mea,I,a,24,3,1949.5,141953.90000000596,8076,WL,A,8.0
1,12.246000051498413,learn,47753.99994850159,Tue Apr 21 2026 17:58:10 GMT-0500 (Central Daylight Time),144002.69999998808,A,mead,I,d,85,3,2048.7999999821186,141953.90000000596,8076,WL,A,8.0
1,12.496000051498413,learn,47503.99994850159,Tue Apr 21 2026 17:58:10 GMT-0500 (Central Daylight Time),144252.79999998212,A,meado,I,o,242,3,2298.899999976158,141953.90000000596,8076,WL,A,8.0
1,12.67900013923645,learn,47320.99986076355,Tue Apr 21 2026 17:58:10 GMT-0500 (Central Daylight Time),144435.69999998808,A,meadow,I,w,175,3,2481.7999999821186,141953.90000000596,8076,WL,A,8.0
1,13.813000202178955,learn,46186.999797821045,Tue Apr 21 2026 17:58:10 GMT-0500 (Central Daylight Time),145569.0,A,meadowenter,I,enter,1121,3,3615.0999999940395,141953.90000000596,8076,WL,A,8.0
1,17.128000020980835,learn,42871.999979019165,Tue Apr 21 2026 17:58:10 GMT-0500 (Central Daylight Time),148884.69999998808,A,c,I,c,3308,3,3315.199999988079,145569.5,8076,WL,A,9.0
1,17.212000131607056,learn,42787.999868392944,Tue Apr 21 2026 17:58:10 GMT-0500 (Central Daylight Time),148968.0,A,ch,I,h,71,3,3398.5,145569.5,8076,WL,A,9.0
1,17.32800006866455,learn,42671.99993133545,Tue Apr 21 2026 17:58:10 GMT-0500 (Central Daylight Time),149084.40000000596,A,chi,I,i,109,3,3514.9000000059605,145569.5,8076,WL,A,9.0
1,17.49500012397766,learn,42504.99987602234,Tue Apr 21 2026 17:58:10 GMT-0500 (Central Daylight Time),149251.29999998212,A,chim,I,m,152,3,3681.7999999821186,145569.5,8076,WL,A,9.0
1,17.645000219345093,learn,42354.99978065491,Tue Apr 21 2026 17:58:10 GMT-0500 (Central Daylight Time),149401.29999998212,A,chime,I,e,129,3,3831.7999999821186,145569.5,8076,WL,A,9.0
1,17.728000164031982,learn,42271.99983596802,Tue Apr 21 2026 17:58:10 GMT-0500 (Central Daylight Time),149484.5,A,chimen,I,n,67,3,3915.0,145569.5,8076,WL,A,9.0
1,17.961000204086304,learn,42038.999795913696,Tue Apr 21 2026 17:58:10 GMT-0500 (Central Daylight Time),149717.69999998808,A,chimeny,I,y,224,3,4148.199999988079,145569.5,8076,WL,A,9.0
1,18.84500002861023,learn,41154.99997138977,Tue Apr 21 2026 17:58:10 GMT-0500 (Central Daylight Time),150600.90000000596,A,chimen,I,backspace,871,3,5031.4000000059605,145569.5,8076,WL,A,9.0
1,19.34500002861023,learn,40654.99997138977,Tue Apr 21 2026 17:58:10 GMT-0500 (Central Daylight Time),151101.69999998808,A,chime,I,backspace,493,3,5532.199999988079,145569.5,8076,WL,A,9.0
1,20.112000226974487,learn,39887.99977302551,Tue Apr 21 2026 17:58:10 GMT-0500 (Central Daylight Time),151868.09999999404,A,chim,I,backspace,760,3,6298.5999999940395,145569.5,8076,WL,A,9.0
1,20.47699999809265,learn,39523.00000190735,Tue Apr 21 2026 17:58:10 GMT-0500 (Central Daylight Time),152233.40000000596,A,chimn,I,n,344,3,6663.9000000059605,145569.5,8076,WL,A,9.0
1,20.97699999809265,learn,39023.00000190735,Tue Apr 21 2026 17:58:10 GMT-0500 (Central Daylight Time),152733.40000000596,A,chimne,I,e,491,3,7163.9000000059605,145569.5,8076,WL,A,9.0
1,21.094000101089478,learn,38905.99989891052,Tue Apr 21 2026 17:58:10 GMT-0500 (Central Daylight Time),152850.09999999404,A,chimney,I,y,103,3,7280.5999999940395,145569.5,8076,WL,A,9.0
1,21.56000018119812,learn,38439.99981880188,Tue Apr 21 2026 17:58:10 GMT-0500 (Central Daylight Time),153316.69999998808,A,chimneyenter,I,enter,451,3,7747.199999988079,145569.5,8076,WL,A,9.0
1,22.03700017929077,learn,37962.99982070923,Tue Apr 21 2026 17:58:10 GMT-0500 (Central Daylight Time),153793.59999999404,A,l,I,l,335,3,476.59999999403954,153317.0,8076,WL,A,10.0
1,22.193000078201294,learn,37806.999921798706,Tue Apr 21 2026 17:58:10 GMT-0500 (Central Daylight Time),153949.69999998808,A,lo,I,o,147,3,632.6999999880791,153317.0,8076,WL,A,10.0
1,22.39300012588501,learn,37606.99987411499,Tue Apr 21 2026 17:58:10 GMT-0500 (Central Daylight Time),154149.69999998808,A,log,I,g,184,3,832.6999999880791,153317.0,8076,WL,A,10.0
1,23.010000228881836,learn,36989.999771118164,Tue Apr 21 2026 17:58:10 GMT-0500 (Central Daylight Time),154766.0,A,logenter,I,enter,608,3,1449.0,153317.0,8076,WL,A,10.0
1,43.271000146865845,learn,16728.999853134155,Tue Apr 21 2026 17:58:10 GMT-0500 (Central Daylight Time),175027.59999999404,A,enter,I,enter,20256,3,20261.30000001192,154766.29999998212,8076,WL,A,11.0
1,60.01400017738342,learn,-14.000177383422852,Tue Apr 21 2026 17:58:10 GMT-0500 (Central Daylight Time),191771.40000000596,A,None,I,None,16737,3,16743.40000000596,175028.0,8076,WL,A,12.0
2,0.6679999828338623,learn,59332.00001716614,Tue Apr 21 2026 17:58:10 GMT-0500 (Central Daylight Time),260317.59999999404,A,r,I,r,651,3,667.6999999880791,259649.90000000596,8076,WL,A,1.0
2,0.7669999599456787,learn,59233.00004005432,Tue Apr 21 2026 17:58:10 GMT-0500 (Central Daylight Time),260416.5,A,ra,I,a,78,3,766.5999999940395,259649.90000000596,8076,WL,A,1.0
2,0.9010000228881836,learn,59098.99997711182,Tue Apr 21 2026 17:58:10 GMT-0500 (Central Daylight Time),260549.79999998212,A,rat,I,t,125,3,899.8999999761581,259649.90000000596,8076,WL,A,1.0
2,1.067000150680542,learn,58932.99984931946,Tue Apr 21 2026 17:58:10 GMT-0500 (Central Daylight Time),260716.29999998212,A,ratt,I,t,159,3,1066.3999999761581,259649.90000000596,8076,WL,A,1.0
2,1.1670000553131104,learn,58832.99994468689,Tue Apr 21 2026 17:58:10 GMT-0500 (Central Daylight Time),260816.40000000596,A,rattl,I,l,80,3,1166.5,259649.90000000596,8076,WL,A,1.0
2,1.3000001907348633,learn,58699.99980926514,Tue Apr 21 2026 17:58:10 GMT-0500 (Central Daylight Time),260949.69999998808,A,rattle,I,e,117,3,1299.7999999821186,259649.90000000596,8076,WL,A,1.0
2,2.3000001907348633,learn,57699.99980926514,Tue Apr 21 2026 17:58:10 GMT-0500 (Central Daylight Time),261949.40000000596,A,rattleenter,I,enter,983,3,2299.5,259649.90000000596,8076,WL,A,1.0
2,2.7660000324249268,learn,57233.99996757507,Tue Apr 21 2026 17:58:10 GMT-0500 (Central Daylight Time),262415.59999999404,A,g,I,g,455,3,465.69999998807907,261949.90000000596,8076,WL,A,2.0
2,2.867000102996826,learn,57132.999897003174,Tue Apr 21 2026 17:58:10 GMT-0500 (Central Daylight Time),262515.7999999821,A,go,I,o,92,3,565.8999999761581,261949.90000000596,8076,WL,A,2.0
2,3.1670000553131104,learn,56832.99994468689,Tue Apr 21 2026 17:58:10 GMT-0500 (Central Daylight Time),262815.90000000596,A,gol,I,l,281,3,866.0,261949.90000000596,8076,WL,A,2.0
2,3.2660000324249268,learn,56733.99996757507,Tue Apr 21 2026 17:58:10 GMT-0500 (Central Daylight Time),262915.40000000596,A,gold,I,d,85,3,965.5,261949.90000000596,8076,WL,A,2.0
2,3.683000087738037,learn,56316.99991226196,Tue Apr 21 2026 17:58:10 GMT-0500 (Central Daylight Time),263332.09999999404,A,goldenter,I,enter,409,3,1382.199999988079,261949.90000000596,8076,WL,A,2.0
2,4.016000032424927,learn,55983.99996757507,Tue Apr 21 2026 17:58:10 GMT-0500 (Central Daylight Time),263665.40000000596,A,k,I,k,313,3,333.0,263332.40000000596,8076,WL,A,3.0
2,4.133000135421753,learn,55866.99986457825,Tue Apr 21 2026 17:58:10 GMT-0500 (Central Daylight Time),263782.09999999404,A,ke,I,e,107,3,449.69999998807907,263332.40000000596,8076,WL,A,3.0
2,4.2829999923706055,learn,55717.000007629395,Tue Apr 21 2026 17:58:10 GMT-0500 (Central Daylight Time),263931.7999999821,A,key,I,y,135,3,599.3999999761581,263332.40000000596,8076,WL,A,3.0
2,4.583000183105469,learn,55416.99981689453,Tue Apr 21 2026 17:58:10 GMT-0500 (Central Daylight Time),264232.0,A,keyenter,I,enter,281,3,899.5999999940395,263332.40000000596,8076,WL,A,3.0
2,5.5320000648498535,learn,54467.99993515015,Tue Apr 21 2026 17:58:10 GMT-0500 (Central Daylight Time),265181.59999999404,A,s,I,s,933,3,949.3000000119209,264232.2999999821,8076,WL,A,4.0
2,5.749000072479248,learn,54250.99992752075,Tue Apr 21 2026 17:58:10 GMT-0500 (Central Daylight Time),265398.2999999821,A,sa,I,a,208,3,1166.0,264232.2999999821,8076,WL,A,4.0
2,5.881999969482422,learn,54118.00003051758,Tue Apr 21 2026 17:58:10 GMT-0500 (Central Daylight Time),265531.2999999821,A,sal,I,l,127,3,1299.0,264232.2999999821,8076,WL,A,4.0
2,6.082000017166138,learn,53917.99998283386,Tue Apr 21 2026 17:58:10 GMT-0500 (Central Daylight Time),265731.59999999404,A,salt,I,t,185,3,1499.300000011921,264232.2999999821,8076,WL,A,4.0
2,6.582000017166138,learn,53417.99998283386,Tue Apr 21 2026 17:58:10 GMT-0500 (Central Daylight Time),266231.09999999404,A,saltenter,I,enter,489,3,1998.800000011921,264232.2999999821,8076,WL,A,4.0
2,6.914999961853027,learn,53085.00003814697,Tue Apr 21 2026 17:58:10 GMT-0500 (Central Daylight Time),266564.40000000596,A,s,I,s,326,3,332.90000000596046,266231.5,8076,WL,A,5.0
2,7.049000024795532,learn,52950.99997520447,Tue Apr 21 2026 17:58:10 GMT-0500 (Central Daylight Time),266698.0,A,si,I,i,120,3,466.5,266231.5,8076,WL,A,5.0
2,7.148000001907349,learn,52851.99999809265,Tue Apr 21 2026 17:58:10 GMT-0500 (Central Daylight Time),266797.6999999881,A,sin,I,n,83,3,566.1999999880791,266231.5,8076,WL,A,5.0
2,7.299000024795532,learn,52700.99997520447,Tue Apr 21 2026 17:58:10 GMT-0500 (Central Daylight Time),266947.90000000596,A,sing,I,g,136,3,716.4000000059605,266231.5,8076,WL,A,5.0
2,7.682000160217285,learn,52317.999839782715,Tue Apr 21 2026 17:58:10 GMT-0500 (Central Daylight Time),267330.90000000596,A,sin,I,backspace,377,3,1099.4000000059605,266231.5,8076,WL,A,5.0
2,7.832000017166138,learn,52167.99998283386,Tue Apr 21 2026 17:58:10 GMT-0500 (Central Daylight Time),267481.0,A,si,I,backspace,138,3,1249.5,266231.5,8076,WL,A,5.0
2,7.982000112533569,learn,52017.99988746643,Tue Apr 21 2026 17:58:10 GMT-0500 (Central Daylight Time),267631.09999999404,A,s,I,backspace,133,3,1399.5999999940395,266231.5,8076,WL,A,5.0
2,8.115000009536743,learn,51884.99999046326,Tue Apr 21 2026 17:58:10 GMT-0500 (Central Daylight Time),267764.09999999404,A,,I,backspace,125,3,1532.5999999940395,266231.5,8076,WL,A,5.0
2,8.281000137329102,learn,51718.9998626709,Tue Apr 21 2026 17:58:10 GMT-0500 (Central Daylight Time),267930.5,A,f,I,f,162,3,1699.0,266231.5,8076,WL,A,5.0
2,8.430999994277954,learn,51569.000005722046,Tue Apr 21 2026 17:58:10 GMT-0500 (Central Daylight Time),268080.6999999881,A,fi,I,i,139,3,1849.199999988079,266231.5,8076,WL,A,5.0
2,8.498000144958496,learn,51501.999855041504,Tue Apr 21 2026 17:58:10 GMT-0500 (Central Daylight Time),268147.0,A,fin,I,n,61,3,1915.5,266231.5,8076,WL,A,5.0
2,8.598000049591064,learn,51401.999950408936,Tue Apr 21 2026 17:58:10 GMT-0500 (Central Daylight Time),268247.2999999821,A,fing,I,g,91,3,2015.7999999821186,266231.5,8076,WL,A,5.0
2,8.748000144958496,learn,51251.999855041504,Tue Apr 21 2026 17:58:10 GMT-0500 (Central Daylight Time),268397.1999999881,A,finge,I,e,133,3,2165.699999988079,266231.5,8076,WL,A,5.0
2,8.79800009727478,learn,51201.99990272522,Tue Apr 21 2026 17:58:10 GMT-0500 (Central Daylight Time),268447.09999999404,A,finger,I,r,39,3,2215.5999999940395,266231.5,8076,WL,A,5.0
2,8.998000144958496,learn,51001.999855041504,Tue Apr 21 2026 17:58:10 GMT-0500 (Central Daylight Time),268647.2999999821,A,fingerenter,I,enter,190,3,2415.7999999821186,266231.5,8076,WL,A,5.0
2,9.264000177383423,learn,50735.99982261658,Tue Apr 21 2026 17:58:10 GMT-0500 (Central Daylight Time),268913.59999999404,A,a,I,a,253,3,265.90000000596046,268647.6999999881,8076,WL,A,6.0
2,9.430999994277954,learn,50569.000005722046,Tue Apr 21 2026 17:58:10 GMT-0500 (Central Daylight Time),269080.2999999821,A,ap,I,p,147,3,432.59999999403954,268647.6999999881,8076,WL,A,6.0
2,9.564000129699707,learn,50435.99987030029,Tue Apr 21 2026 17:58:10 GMT-0500 (Central Daylight Time),269213.6999999881,A,app,I,p,125,3,566.0,268647.6999999881,8076,WL,A,6.0
2,9.748000144958496,learn,50251.999855041504,Tue Apr 21 2026 17:58:10 GMT-0500 (Central Daylight Time),269397.1999999881,A,appl,I,l,175,3,749.5,268647.6999999881,8076,WL,A,6.0
2,9.914000034332275,learn,50085.999965667725,Tue Apr 21 2026 17:58:10 GMT-0500 (Central Daylight Time),269563.5,A,apple,I,e,159,3,915.8000000119209,268647.6999999881,8076,WL,A,6.0
2,10.13100004196167,learn,49868.99995803833,Tue Apr 21 2026 17:58:10 GMT-0500 (Central Daylight Time),269780.1999999881,A,appleenter,I,enter,210,3,1132.5,268647.6999999881,8076,WL,A,6.0
2,10.746999979019165,learn,49253.000020980835,Tue Apr 21 2026 17:58:10 GMT-0500 (Central Daylight Time),270396.5,A,c,I,c,609,3,616.0,269780.5,8076,WL,A,7.0
2,10.880000114440918,learn,49119.99988555908,Tue Apr 21 2026 17:58:10 GMT-0500 (Central Daylight Time),270529.59999999404,A,ch,I,h,128,3,749.0999999940395,269780.5,8076,WL,A,7.0
2,10.996999979019165,learn,49003.000020980835,Tue Apr 21 2026 17:58:10 GMT-0500 (Central Daylight Time),270646.59999999404,A,chi,I,i,99,3,866.0999999940395,269780.5,8076,WL,A,7.0
2,11.147000074386597,learn,48852.9999256134,Tue Apr 21 2026 17:58:10 GMT-0500 (Central Daylight Time),270796.5,A,chim,I,m,142,3,1016.0,269780.5,8076,WL,A,7.0
2,11.364000082015991,learn,48635.99991798401,Tue Apr 21 2026 17:58:10 GMT-0500 (Central Daylight Time),271013.1999999881,A,chimn,I,n,208,3,1232.699999988079,269780.5,8076,WL,A,7.0
2,11.496999979019165,learn,48503.000020980835,Tue Apr 21 2026 17:58:10 GMT-0500 (Central Daylight Time),271146.2999999821,A,chimne,I,e,129,3,1365.7999999821186,269780.5,8076,WL,A,7.0
2,11.698000192642212,learn,48301.99980735779,Tue Apr 21 2026 17:58:10 GMT-0500 (Central Daylight Time),271347.40000000596,A,chimney,I,y,188,3,1566.9000000059605,269780.5,8076,WL,A,7.0
2,12.213000059127808,learn,47786.99994087219,Tue Apr 21 2026 17:58:10 GMT-0500 (Central Daylight Time),271861.90000000596,A,chimneyenter,I,enter,510,3,2081.4000000059605,269780.5,8076,WL,A,7.0
2,12.614000082015991,learn,47385.99991798401,Tue Apr 21 2026 17:58:10 GMT-0500 (Central Daylight Time),272263.0,A,b,I,b,384,3,400.80000001192093,271862.1999999881,8076,WL,A,8.0
2,12.763000011444092,learn,47236.99998855591,Tue Apr 21 2026 17:58:10 GMT-0500 (Central Daylight Time),272412.6999999881,A,bu,I,u,143,3,550.5,271862.1999999881,8076,WL,A,8.0
2,12.897000074386597,learn,47102.9999256134,Tue Apr 21 2026 17:58:10 GMT-0500 (Central Daylight Time),272545.7999999821,A,but,I,t,128,3,683.5999999940395,271862.1999999881,8076,WL,A,8.0
2,13.047000169754028,learn,46952.99983024597,Tue Apr 21 2026 17:58:10 GMT-0500 (Central Daylight Time),272695.7999999821,A,butt,I,t,140,3,833.5999999940395,271862.1999999881,8076,WL,A,8.0
2,13.130000114440918,learn,46869.99988555908,Tue Apr 21 2026 17:58:10 GMT-0500 (Central Daylight Time),272779.1999999881,A,butto,I,o,78,3,917.0,271862.1999999881,8076,WL,A,8.0
2,13.230000019073486,learn,46769.999980926514,Tue Apr 21 2026 17:58:10 GMT-0500 (Central Daylight Time),272879.09999999404,A,button,I,n,83,3,1016.9000000059605,271862.1999999881,8076,WL,A,8.0
2,14.230000019073486,learn,45769.999980926514,Tue Apr 21 2026 17:58:10 GMT-0500 (Central Daylight Time),273878.90000000596,A,buttonl,I,l,989,3,2016.7000000178814,271862.1999999881,8076,WL,A,8.0
2,15.629000186920166,learn,44370.999813079834,Tue Apr 21 2026 17:58:10 GMT-0500 (Central Daylight Time),275278.59999999404,A,button,I,backspace,1383,3,3416.4000000059605,271862.1999999881,8076,WL,A,8.0
2,16.01200008392334,learn,43987.99991607666,Tue Apr 21 2026 17:58:10 GMT-0500 (Central Daylight Time),275661.59999999404,A,buttonenter,I,enter,375,3,3799.4000000059605,271862.1999999881,8076,WL,A,8.0
2,16.42900013923645,learn,43570.99986076355,Tue Apr 21 2026 17:58:10 GMT-0500 (Central Daylight Time),276078.0,A,l,I,l,408,3,416.0,275662.0,8076,WL,A,9.0
2,16.629000186920166,learn,43370.999813079834,Tue Apr 21 2026 17:58:10 GMT-0500 (Central Daylight Time),276278.09999999404,A,lo,I,o,184,3,616.0999999940395,275662.0,8076,WL,A,9.0
2,16.729000091552734,learn,43270.999908447266,Tue Apr 21 2026 17:58:10 GMT-0500 (Central Daylight Time),276377.90000000596,A,log,I,g,94,3,715.9000000059605,275662.0,8076,WL,A,9.0
2,16.978000164031982,learn,43021.99983596802,Tue Apr 21 2026 17:58:10 GMT-0500 (Central Daylight Time),276627.59999999404,A,logenter,I,enter,235,3,965.5999999940395,275662.0,8076,WL,A,9.0
2,19.129000186920166,learn,40870.999813079834,Tue Apr 21 2026 17:58:10 GMT-0500 (Central Daylight Time),278778.5,A,m,I,m,2129,3,2150.5999999940395,276627.90000000596,8076,WL,A,10.0
2,19.228000164031982,learn,40771.99983596802,Tue Apr 21 2026 17:58:10 GMT-0500 (Central Daylight Time),278877.2999999821,A,me,I,e,83,3,2249.399999976158,276627.90000000596,8076,WL,A,10.0
2,19.311000108718872,learn,40688.99989128113,Tue Apr 21 2026 17:58:10 GMT-0500 (Central Daylight Time),278960.6999999881,A,mea,I,a,71,3,2332.7999999821186,276627.90000000596,8076,WL,A,10.0
2,19.49500012397766,learn,40504.99987602234,Tue Apr 21 2026 17:58:10 GMT-0500 (Central Daylight Time),279143.90000000596,A,mead,I,d,163,3,2516.0,276627.90000000596,8076,WL,A,10.0
2,19.628000020980835,learn,40371.999979019165,Tue Apr 21 2026 17:58:10 GMT-0500 (Central Daylight Time),279277.40000000596,A,meado,I,o,118,3,2649.5,276627.90000000596,8076,WL,A,10.0
2,19.728000164031982,learn,40271.99983596802,Tue Apr 21 2026 17:58:10 GMT-0500 (Central Daylight Time),279377.09999999404,A,meadow,I,w,95,3,2749.199999988079,276627.90000000596,8076,WL,A,10.0
2,19.94600009918213,learn,40053.99990081787,Tue Apr 21 2026 17:58:10 GMT-0500 (Central Daylight Time),279594.7999999821,A,meadowenter,I,enter,196,3,2966.899999976158,276627.90000000596,8076,WL,A,10.0
2,20.311000108718872,learn,39688.99989128113,Tue Apr 21 2026 17:58:10 GMT-0500 (Central Daylight Time),279960.2999999821,A,h,I,h,346,3,365.09999999403954,279595.1999999881,8076,WL,A,11.0
2,20.361000061035156,learn,39638.999938964844,Tue Apr 21 2026 17:58:10 GMT-0500 (Central Daylight Time),280010.1999999881,A,ha,I,a,45,3,415.0,279595.1999999881,8076,WL,A,11.0
2,20.72699999809265,learn,39273.00000190735,Tue Apr 21 2026 17:58:10 GMT-0500 (Central Daylight Time),280376.6999999881,A,har,I,r,346,3,781.5,279595.1999999881,8076,WL,A,11.0
2,20.844000101089478,learn,39155.99989891052,Tue Apr 21 2026 17:58:10 GMT-0500 (Central Daylight Time),280493.5,A,hard,I,d,108,3,898.3000000119209,279595.1999999881,8076,WL,A,11.0
2,22.127000093460083,learn,37872.99990653992,Tue Apr 21 2026 17:58:10 GMT-0500 (Central Daylight Time),281776.40000000596,A,har,I,backspace,1272,3,2181.2000000178814,279595.1999999881,8076,WL,A,11.0
2,22.42799997329712,learn,37572.00002670288,Tue Apr 21 2026 17:58:10 GMT-0500 (Central Daylight Time),282077.40000000596,A,harp,I,p,292,3,2482.2000000178814,279595.1999999881,8076,WL,A,11.0
2,22.81000018119812,learn,37189.99981880188,Tue Apr 21 2026 17:58:10 GMT-0500 (Central Daylight Time),282459.5,A,harpenter,I,enter,368,3,2864.300000011921,279595.1999999881,8076,WL,A,11.0
2,23.127000093460083,learn,36872.99990653992,Tue Apr 21 2026 17:58:10 GMT-0500 (Central Daylight Time),282776.0,A,r,I,r,297,3,316.2000000178814,282459.7999999821,8076,WL,A,12.0
2,23.22699999809265,learn,36773.00000190735,Tue Apr 21 2026 17:58:10 GMT-0500 (Central Daylight Time),282876.09999999404,A,ru,I,u,85,3,416.30000001192093,282459.7999999821,8076,WL,A,12.0
2,23.443000078201294,learn,36556.999921798706,Tue Apr 21 2026 17:58:10 GMT-0500 (Central Daylight Time),283092.6999999881,A,rug,I,g,201,3,632.9000000059605,282459.7999999821,8076,WL,A,12.0
2,23.776000022888184,learn,36223.99997711182,Tue Apr 21 2026 17:58:10 GMT-0500 (Central Daylight Time),283425.6999999881,A,rugenter,I,enter,320,3,965.9000000059605,282459.7999999821,8076,WL,A,12.0
2,25.676000118255615,learn,34323.999881744385,Tue Apr 21 2026 17:58:10 GMT-0500 (Central Daylight Time),285325.1999999881,A,b,I,b,1890,3,1899.199999988079,283426.0,8076,WL,A,13.0
2,25.79200005531311,learn,34207.99994468689,Tue Apr 21 2026 17:58:10 GMT-0500 (Central Daylight Time),285441.59999999404,A,bo,I,o,111,3,2015.5999999940395,283426.0,8076,WL,A,13.0
2,25.993000030517578,learn,34006.99996948242,Tue Apr 21 2026 17:58:10 GMT-0500 (Central Daylight Time),285642.09999999404,A,boo,I,o,180,3,2216.0999999940395,283426.0,8076,WL,A,13.0
2,26.05900001525879,learn,33940.99998474121,Tue Apr 21 2026 17:58:10 GMT-0500 (Central Daylight Time),285708.5,A,book,I,k,59,3,2282.5,283426.0,8076,WL,A,13.0
2,26.659000158309937,learn,33340.99984169006,Tue Apr 21 2026 17:58:10 GMT-0500 (Central Daylight Time),286308.40000000596,A,bookenter,I,enter,593,3,2882.4000000059605,283426.0,8076,WL,A,13.0
2,26.943000078201294,learn,33056.999921798706,Tue Apr 21 2026 17:58:10 GMT-0500 (Central Daylight Time),286591.7999999821,A,t,I,t,264,3,283.09999999403954,286308.6999999881,8076,WL,A,14.0
2,27.075000047683716,learn,32924.999952316284,Tue Apr 21 2026 17:58:10 GMT-0500 (Central Daylight Time),286724.7999999821,A,tr,I,r,125,3,416.09999999403954,286308.6999999881,8076,WL,A,14.0
2,27.159000158309937,learn,32840.99984169006,Tue Apr 21 2026 17:58:10 GMT-0500 (Central Daylight Time),286808.0,A,tra,I,a,72,3,499.30000001192093,286308.6999999881,8076,WL,A,14.0
2,27.22699999809265,learn,32773.00000190735,Tue Apr 21 2026 17:58:10 GMT-0500 (Central Daylight Time),286875.6999999881,A,trai,I,i,61,3,567.0,286308.6999999881,8076,WL,A,14.0
2,27.30900001525879,learn,32690.99998474121,Tue Apr 21 2026 17:58:10 GMT-0500 (Central Daylight Time),286958.2999999821,A,train,I,n,73,3,649.5999999940395,286308.6999999881,8076,WL,A,14.0
2,28.575000047683716,learn,31424.999952316284,Tue Apr 21 2026 17:58:10 GMT-0500 (Central Daylight Time),288224.59999999404,A,trainenter,I,enter,1246,3,1915.9000000059605,286308.6999999881,8076,WL,A,14.0
2,28.95800018310547,learn,31041.99981689453,Tue Apr 21 2026 17:58:10 GMT-0500 (Central Daylight Time),288607.59999999404,A,f,I,f,372,3,382.69999998807907,288224.90000000596,8076,WL,A,15.0
2,29.10800004005432,learn,30891.99995994568,Tue Apr 21 2026 17:58:10 GMT-0500 (Central Daylight Time),288757.40000000596,A,fl,I,l,142,3,532.5,288224.90000000596,8076,WL,A,15.0
2,29.308000087738037,learn,30691.999912261963,Tue Apr 21 2026 17:58:10 GMT-0500 (Central Daylight Time),288957.2999999821,A,flo,I,o,191,3,732.3999999761581,288224.90000000596,8076,WL,A,15.0
2,29.425000190734863,learn,30574.999809265137,Tue Apr 21 2026 17:58:10 GMT-0500 (Central Daylight Time),289074.40000000596,A,flow,I,w,103,3,849.5,288224.90000000596,8076,WL,A,15.0
2,29.508000135421753,learn,30491.999864578247,Tue Apr 21 2026 17:58:10 GMT-0500 (Central Daylight Time),289157.6999999881,A,flowe,I,e,66,3,932.7999999821186,288224.90000000596,8076,WL,A,15.0
2,29.592000007629395,learn,30407.999992370605,Tue Apr 21 2026 17:58:10 GMT-0500 (Central Daylight Time),289240.7999999821,A,flower,I,r,63,3,1015.8999999761581,288224.90000000596,8076,WL,A,15.0
2,30.125,learn,29875.0,Tue Apr 21 2026 17:58:10 GMT-0500 (Central Daylight Time),289773.90000000596,A,flowerenter,I,enter,516,3,1549.0,288224.90000000596,8076,WL,A,15.0
3,0.7000000476837158,learn,59299.999952316284,Tue Apr 21 2026 17:58:10 GMT-0500 (Central Daylight Time),357036.1999999881,A,r,I,r,693,3,699.5,356336.6999999881,8076,WL,A,1.0
3,0.8329999446868896,learn,59167.00005531311,Tue Apr 21 2026 17:58:10 GMT-0500 (Central Daylight Time),357169.40000000596,A,ra,I,a,112,3,832.7000000178814,356336.6999999881,8076,WL,A,1.0
3,1.25,learn,58750.0,Tue Apr 21 2026 17:58:10 GMT-0500 (Central Daylight Time),357585.6999999881,A,rat,I,t,396,3,1249.0,356336.6999999881,8076,WL,A,1.0
3,1.3999998569488525,learn,58600.00014305115,Tue Apr 21 2026 17:58:10 GMT-0500 (Central Daylight Time),357736.0,A,ratt,I,t,131,3,1399.300000011921,356336.6999999881,8076,WL,A,1.0
3,1.5160000324249268,learn,58483.99996757507,Tue Apr 21 2026 17:58:10 GMT-0500 (Central Daylight Time),357852.40000000596,A,rattl,I,l,108,3,1515.7000000178814,356336.6999999881,8076,WL,A,1.0
3,1.6499998569488525,learn,58350.00014305115,Tue Apr 21 2026 17:58:10 GMT-0500 (Central Daylight Time),357986.0,A,rattle,I,e,120,3,1649.300000011921,356336.6999999881,8076,WL,A,1.0
3,1.8989999294281006,learn,58101.0000705719,Tue Apr 21 2026 17:58:10 GMT-0500 (Central Daylight Time),358235.90000000596,A,rattleenter,I,enter,242,3,1899.2000000178814,356336.6999999881,8076,WL,A,1.0
3,2.2149999141693115,learn,57785.00008583069,Tue Apr 21 2026 17:58:10 GMT-0500 (Central Daylight Time),358552.2999999821,A,g,I,g,305,3,316.09999999403954,358236.1999999881,8076,WL,A,2.0
3,2.315000057220459,learn,57684.99994277954,Tue Apr 21 2026 17:58:10 GMT-0500 (Central Daylight Time),358652.2999999821,A,go,I,o,85,3,416.09999999403954,358236.1999999881,8076,WL,A,2.0
3,2.5820000171661377,learn,57417.99998283386,Tue Apr 21 2026 17:58:10 GMT-0500 (Central Daylight Time),358918.90000000596,A,gol,I,l,249,3,682.7000000178814,358236.1999999881,8076,WL,A,2.0
3,2.749000072479248,learn,57250.99992752075,Tue Apr 21 2026 17:58:10 GMT-0500 (Central Daylight Time),359086.09999999404,A,gold,I,d,150,3,849.9000000059605,358236.1999999881,8076,WL,A,2.0
3,2.931999921798706,learn,57068.000078201294,Tue Apr 21 2026 17:58:10 GMT-0500 (Central Daylight Time),359268.59999999404,A,goldenter,I,enter,175,3,1032.4000000059605,358236.1999999881,8076,WL,A,2.0
3,3.2649998664855957,learn,56735.000133514404,Tue Apr 21 2026 17:58:10 GMT-0500 (Central Daylight Time),359601.7999999821,A,k,I,k,313,3,333.0,359268.7999999821,8076,WL,A,3.0
3,3.365000009536743,learn,56634.99999046326,Tue Apr 21 2026 17:58:10 GMT-0500 (Central Daylight Time),359702.0,A,ke,I,e,83,3,433.2000000178814,359268.7999999821,8076,WL,A,3.0
3,3.5320000648498535,learn,56467.99993515015,Tue Apr 21 2026 17:58:10 GMT-0500 (Central Daylight Time),359868.5,A,key,I,y,151,3,599.7000000178814,359268.7999999821,8076,WL,A,3.0
3,3.815000057220459,learn,56184.99994277954,Tue Apr 21 2026 17:58:10 GMT-0500 (Central Daylight Time),360152.0,A,keyenter,I,enter,273,3,883.2000000178814,359268.7999999821,8076,WL,A,3.0
3,4.181999921798706,learn,55818.000078201294,Tue Apr 21 2026 17:58:10 GMT-0500 (Central Daylight Time),360518.40000000596,A,c,I,c,356,3,366.10000002384186,360152.2999999821,8076,WL,A,4.0
3,4.315000057220459,learn,55684.99994277954,Tue Apr 21 2026 17:58:10 GMT-0500 (Central Daylight Time),360651.6999999881,A,ch,I,h,118,3,499.40000000596046,360152.2999999821,8076,WL,A,4.0
3,4.497999906539917,learn,55502.00009346008,Tue Apr 21 2026 17:58:10 GMT-0500 (Central Daylight Time),360834.90000000596,A,chi,I,i,177,3,682.6000000238419,360152.2999999821,8076,WL,A,4.0
3,4.747999906539917,learn,55252.00009346008,Tue Apr 21 2026 17:58:10 GMT-0500 (Central Daylight Time),361084.7999999821,A,chim,I,m,243,3,932.5,360152.2999999821,8076,WL,A,4.0
3,5.414000034332275,learn,54585.999965667725,Tue Apr 21 2026 17:58:10 GMT-0500 (Central Daylight Time),361751.1999999881,A,chimn,I,n,656,3,1598.9000000059605,360152.2999999821,8076,WL,A,4.0
3,5.5980000495910645,learn,54401.999950408936,Tue Apr 21 2026 17:58:10 GMT-0500 (Central Daylight Time),361934.7999999821,A,chimne,I,e,165,3,1782.5,360152.2999999821,8076,WL,A,4.0
3,5.797999858856201,learn,54202.0001411438,Tue Apr 21 2026 17:58:10 GMT-0500 (Central Daylight Time),362134.59999999404,A,chimney,I,y,182,3,1982.300000011921,360152.2999999821,8076,WL,A,4.0
3,6.263999938964844,learn,53736.000061035156,Tue Apr 21 2026 17:58:10 GMT-0500 (Central Daylight Time),362601.1999999881,A,chimneyenter,I,enter,454,3,2448.9000000059605,360152.2999999821,8076,WL,A,4.0
3,6.5309998989105225,learn,53469.00010108948,Tue Apr 21 2026 17:58:10 GMT-0500 (Central Daylight Time),362867.6999999881,A,b,I,b,260,3,266.19999998807907,362601.5,8076,WL,A,5.0
3,6.664000034332275,learn,53335.999965667725,Tue Apr 21 2026 17:58:10 GMT-0500 (Central Daylight Time),363001.09999999404,A,bu,I,u,113,3,399.59999999403954,362601.5,8076,WL,A,5.0
3,6.846999883651733,learn,53153.00011634827,Tue Apr 21 2026 17:58:10 GMT-0500 (Central Daylight Time),363183.90000000596,A,but,I,t,172,3,582.4000000059605,362601.5,8076,WL,A,5.0
3,6.980000019073486,learn,53019.999980926514,Tue Apr 21 2026 17:58:10 GMT-0500 (Central Daylight Time),363317.09999999404,A,butt,I,t,124,3,715.5999999940395,362601.5,8076,WL,A,5.0
3,7.082000017166138,learn,52917.99998283386,Tue Apr 21 2026 17:58:10 GMT-0500 (Central Daylight Time),363418.59999999404,A,butto,I,o,79,3,817.0999999940395,362601.5,8076,WL,A,5.0
3,7.763999938964844,learn,52236.000061035156,Tue Apr 21 2026 17:58:10 GMT-0500 (Central Daylight Time),364100.6999999881,A,button,I,n,667,3,1499.199999988079,362601.5,8076,WL,A,5.0
3,8.079999923706055,learn,51920.000076293945,Tue Apr 21 2026 17:58:10 GMT-0500 (Central Daylight Time),364417.1999999881,A,buttonenter,I,enter,312,3,1815.699999988079,362601.5,8076,WL,A,5.0
3,8.513000011444092,learn,51486.99998855591,Tue Apr 21 2026 17:58:10 GMT-0500 (Central Daylight Time),364850.1999999881,A,l,I,l,420,3,432.69999998807907,364417.5,8076,WL,A,6.0
3,8.713000059127808,learn,51286.99994087219,Tue Apr 21 2026 17:58:10 GMT-0500 (Central Daylight Time),365050.0,A,lo,I,o,194,3,632.5,364417.5,8076,WL,A,6.0
3,8.846999883651733,learn,51153.00011634827,Tue Apr 21 2026 17:58:10 GMT-0500 (Central Daylight Time),365183.59999999404,A,log,I,g,115,3,766.0999999940395,364417.5,8076,WL,A,6.0
3,9.079999923706055,learn,50920.000076293945,Tue Apr 21 2026 17:58:10 GMT-0500 (Central Daylight Time),365416.90000000596,A,logenter,I,enter,213,3,999.4000000059605,364417.5,8076,WL,A,6.0
3,9.575999975204468,learn,50424.00002479553,Tue Apr 21 2026 17:58:10 GMT-0500 (Central Daylight Time),365912.5,A,s,I,s,372,3,495.2000000178814,365417.2999999821,8076,WL,A,7.0
3,9.580999851226807,learn,50419.00014877319,Tue Apr 21 2026 17:58:10 GMT-0500 (Central Daylight Time),365918.09999999404,A,sa,I,a,1,3,500.80000001192093,365417.2999999821,8076,WL,A,7.0
3,9.728999853134155,learn,50271.000146865845,Tue Apr 21 2026 17:58:10 GMT-0500 (Central Daylight Time),366066.09999999404,A,sal,I,l,142,3,648.8000000119209,365417.2999999821,8076,WL,A,7.0
3,9.963000059127808,learn,50036.99994087219,Tue Apr 21 2026 17:58:10 GMT-0500 (Central Daylight Time),366300.09999999404,A,salt,I,t,224,3,882.8000000119209,365417.2999999821,8076,WL,A,7.0
3,10.180000066757202,learn,49819.9999332428,Tue Apr 21 2026 17:58:10 GMT-0500 (Central Daylight Time),366516.5,A,saltenter,I,enter,208,3,1099.2000000178814,365417.2999999821,8076,WL,A,7.0
3,10.463000059127808,learn,49536.99994087219,Tue Apr 21 2026 17:58:10 GMT-0500 (Central Daylight Time),366799.90000000596,A,f,I,f,264,3,283.0,366516.90000000596,8076,WL,A,8.0
3,10.546000003814697,learn,49453.9999961853,Tue Apr 21 2026 17:58:10 GMT-0500 (Central Daylight Time),366883.09999999404,A,fi,I,i,76,3,366.19999998807907,366516.90000000596,8076,WL,A,8.0
3,10.645999908447266,learn,49354.000091552734,Tue Apr 21 2026 17:58:10 GMT-0500 (Central Daylight Time),366983.0,A,fin,I,n,81,3,466.09999999403954,366516.90000000596,8076,WL,A,8.0
3,10.812000036239624,learn,49187.999963760376,Tue Apr 21 2026 17:58:10 GMT-0500 (Central Daylight Time),367149.40000000596,A,fing,I,g,157,3,632.5,366516.90000000596,8076,WL,A,8.0
3,10.963000059127808,learn,49036.99994087219,Tue Apr 21 2026 17:58:10 GMT-0500 (Central Daylight Time),367299.40000000596,A,finge,I,e,143,3,782.5,366516.90000000596,8076,WL,A,8.0
3,11.046000003814697,learn,48953.9999961853,Tue Apr 21 2026 17:58:10 GMT-0500 (Central Daylight Time),367383.0,A,finger,I,r,65,3,866.0999999940395,366516.90000000596,8076,WL,A,8.0
3,11.228999853134155,learn,48771.000146865845,Tue Apr 21 2026 17:58:10 GMT-0500 (Central Daylight Time),367566.40000000596,A,fingerenter,I,enter,175,3,1049.5,366516.90000000596,8076,WL,A,8.0
3,11.611999988555908,learn,48388.00001144409,Tue Apr 21 2026 17:58:10 GMT-0500 (Central Daylight Time),367949.2999999821,A,a,I,a,375,3,382.59999999403954,367566.6999999881,8076,WL,A,9.0
3,11.796000003814697,learn,48203.9999961853,Tue Apr 21 2026 17:58:10 GMT-0500 (Central Daylight Time),368132.6999999881,A,ap,I,p,175,3,566.0,367566.6999999881,8076,WL,A,9.0
3,11.978999853134155,learn,48021.000146865845,Tue Apr 21 2026 17:58:10 GMT-0500 (Central Daylight Time),368315.90000000596,A,app,I,p,176,3,749.2000000178814,367566.6999999881,8076,WL,A,9.0
3,12.144999980926514,learn,47855.000019073486,Tue Apr 21 2026 17:58:10 GMT-0500 (Central Daylight Time),368482.2999999821,A,appl,I,l,162,3,915.5999999940395,367566.6999999881,8076,WL,A,9.0
3,12.328999996185303,learn,47671.0000038147,Tue Apr 21 2026 17:58:10 GMT-0500 (Central Daylight Time),368665.5,A,apple,I,e,171,3,1098.800000011921,367566.6999999881,8076,WL,A,9.0
3,12.628999948501587,learn,47371.00005149841,Tue Apr 21 2026 17:58:10 GMT-0500 (Central Daylight Time),368966.0,A,appleenter,I,enter,283,3,1399.300000011921,367566.6999999881,8076,WL,A,9.0
3,13.578999996185303,learn,46421.0000038147,Tue Apr 21 2026 17:58:10 GMT-0500 (Central Daylight Time),369915.6999999881,A,r,I,r,935,3,949.4000000059605,368966.2999999821,8076,WL,A,10.0
3,13.76200008392334,learn,46237.99991607666,Tue Apr 21 2026 17:58:10 GMT-0500 (Central Daylight Time),370098.90000000596,A,ru,I,u,170,3,1132.6000000238419,368966.2999999821,8076,WL,A,10.0
3,13.92799997329712,learn,46072.00002670288,Tue Apr 21 2026 17:58:10 GMT-0500 (Central Daylight Time),370265.1999999881,A,rug,I,g,162,3,1298.9000000059605,368966.2999999821,8076,WL,A,10.0
3,14.211999893188477,learn,45788.00010681152,Tue Apr 21 2026 17:58:10 GMT-0500 (Central Daylight Time),370548.40000000596,A,rugenter,I,enter,268,3,1582.1000000238419,368966.2999999821,8076,WL,A,10.0
3,14.57800006866455,learn,45421.99993133545,Tue Apr 21 2026 17:58:10 GMT-0500 (Central Daylight Time),370915.40000000596,A,m,I,m,354,3,366.7000000178814,370548.6999999881,8076,WL,A,11.0
3,14.760999917984009,learn,45239.00008201599,Tue Apr 21 2026 17:58:10 GMT-0500 (Central Daylight Time),371098.1999999881,A,me,I,e,169,3,549.5,370548.6999999881,8076,WL,A,11.0
3,14.894999980926514,learn,45105.000019073486,Tue Apr 21 2026 17:58:10 GMT-0500 (Central Daylight Time),371231.6999999881,A,mea,I,a,122,3,683.0,370548.6999999881,8076,WL,A,11.0
3,15.111000061035156,learn,44888.999938964844,Tue Apr 21 2026 17:58:10 GMT-0500 (Central Daylight Time),371448.1999999881,A,mead,I,d,206,3,899.5,370548.6999999881,8076,WL,A,11.0
3,15.277999877929688,learn,44722.00012207031,Tue Apr 21 2026 17:58:10 GMT-0500 (Central Daylight Time),371615.09999999404,A,meado,I,o,148,3,1066.4000000059605,370548.6999999881,8076,WL,A,11.0
3,15.394000053405762,learn,44605.99994659424,Tue Apr 21 2026 17:58:10 GMT-0500 (Central Daylight Time),371731.0,A,meadow,I,w,110,3,1182.300000011921,370548.6999999881,8076,WL,A,11.0
3,15.628000020980835,learn,44371.999979019165,Tue Apr 21 2026 17:58:10 GMT-0500 (Central Daylight Time),371964.6999999881,A,meadowenter,I,enter,219,3,1416.0,370548.6999999881,8076,WL,A,11.0
3,15.878000020980835,learn,44121.999979019165,Tue Apr 21 2026 17:58:10 GMT-0500 (Central Daylight Time),372214.59999999404,A,h,I,h,232,3,249.5,371965.09999999404,8076,WL,A,12.0
3,16.0939998626709,learn,43906.0001373291,Tue Apr 21 2026 17:58:10 GMT-0500 (Central Daylight Time),372431.2999999821,A,ha,I,a,207,3,466.19999998807907,371965.09999999404,8076,WL,A,12.0
3,16.210999965667725,learn,43789.000034332275,Tue Apr 21 2026 17:58:10 GMT-0500 (Central Daylight Time),372547.7999999821,A,har,I,r,101,3,582.6999999880791,371965.09999999404,8076,WL,A,12.0
3,16.361000061035156,learn,43638.999938964844,Tue Apr 21 2026 17:58:10 GMT-0500 (Central Daylight Time),372698.1999999881,A,harp,I,p,145,3,733.0999999940395,371965.09999999404,8076,WL,A,12.0
3,16.694000005722046,learn,43305.999994277954,Tue Apr 21 2026 17:58:10 GMT-0500 (Central Daylight Time),373031.2999999821,A,harpenter,I,enter,323,3,1066.199999988079,371965.09999999404,8076,WL,A,12.0
3,19.89299988746643,learn,40107.00011253357,Tue Apr 21 2026 17:58:10 GMT-0500 (Central Daylight Time),376230.40000000596,A,b,I,b,3181,3,3198.800000011921,373031.59999999404,8076,WL,A,13.0
3,20.009999990463257,learn,39990.00000953674,Tue Apr 21 2026 17:58:10 GMT-0500 (Central Daylight Time),376346.5,A,bo,I,o,111,3,3314.9000000059605,373031.59999999404,8076,WL,A,13.0
3,20.177000045776367,learn,39822.99995422363,Tue Apr 21 2026 17:58:10 GMT-0500 (Central Daylight Time),376513.5,A,boo,I,o,146,3,3481.9000000059605,373031.59999999404,8076,WL,A,13.0
3,20.276999950408936,learn,39723.000049591064,Tue Apr 21 2026 17:58:10 GMT-0500 (Central Daylight Time),376613.40000000596,A,book,I,k,84,3,3581.800000011921,373031.59999999404,8076,WL,A,13.0
3,20.49399995803833,learn,39506.00004196167,Tue Apr 21 2026 17:58:10 GMT-0500 (Central Daylight Time),376830.59999999404,A,bookenter,I,enter,200,3,3799.0,373031.59999999404,8076,WL,A,13.0
3,20.710000038146973,learn,39289.99996185303,Tue Apr 21 2026 17:58:10 GMT-0500 (Central Daylight Time),377046.5,A,t,I,t,206,3,215.59999999403954,376830.90000000596,8076,WL,A,14.0
3,20.875999927520752,learn,39124.00007247925,Tue Apr 21 2026 17:58:10 GMT-0500 (Central Daylight Time),377213.1999999881,A,tr,I,r,150,3,382.2999999821186,376830.90000000596,8076,WL,A,14.0
3,20.943000078201294,learn,39056.999921798706,Tue Apr 21 2026 17:58:10 GMT-0500 (Central Daylight Time),377279.90000000596,A,tra,I,a,56,3,449.0,376830.90000000596,8076,WL,A,14.0
3,20.993000030517578,learn,39006.99996948242,Tue Apr 21 2026 17:58:10 GMT-0500 (Central Daylight Time),377329.40000000596,A,trai,I,i,44,3,498.5,376830.90000000596,8076,WL,A,14.0
3,21.075999975204468,learn,38924.00002479553,Tue Apr 21 2026 17:58:10 GMT-0500 (Central Daylight Time),377413.2999999821,A,train,I,n,76,3,582.3999999761581,376830.90000000596,8076,WL,A,14.0
3,21.658999919891357,learn,38341.00008010864,Tue Apr 21 2026 17:58:10 GMT-0500 (Central Daylight Time),377996.2999999821,A,trainenter,I,enter,569,3,1165.3999999761581,376830.90000000596,8076,WL,A,14.0
3,22.425999879837036,learn,37574.000120162964,Tue Apr 21 2026 17:58:10 GMT-0500 (Central Daylight Time),378762.6999999881,A,f,I,f,760,3,766.0,377996.6999999881,8076,WL,A,15.0
3,22.592000007629395,learn,37407.999992370605,Tue Apr 21 2026 17:58:10 GMT-0500 (Central Daylight Time),378929.1999999881,A,fl,I,l,146,3,932.5,377996.6999999881,8076,WL,A,15.0
3,22.759000062942505,learn,37240.999937057495,Tue Apr 21 2026 17:58:10 GMT-0500 (Central Daylight Time),379096.09999999404,A,flo,I,o,148,3,1099.4000000059605,377996.6999999881,8076,WL,A,15.0
3,22.858999967575073,learn,37141.00003242493,Tue Apr 21 2026 17:58:10 GMT-0500 (Central Daylight Time),379195.90000000596,A,flow,I,w,85,3,1199.2000000178814,377996.6999999881,8076,WL,A,15.0
3,22.908999919891357,learn,37091.00008010864,Tue Apr 21 2026 17:58:10 GMT-0500 (Central Daylight Time),379245.59999999404,A,flowe,I,e,41,3,1248.9000000059605,377996.6999999881,8076,WL,A,15.0
3,22.993000030517578,learn,37006.99996948242,Tue Apr 21 2026 17:58:10 GMT-0500 (Central Daylight Time),379329.40000000596,A,flower,I,r,72,3,1332.7000000178814,377996.6999999881,8076,WL,A,15.0
3,23.375,learn,36625.0,Tue Apr 21 2026 17:58:10 GMT-0500 (Central Daylight Time),379712.2999999821,A,flowerenter,I,enter,372,3,1715.5999999940395,377996.6999999881,8076,WL,A,15.0
4,0.5999999046325684,learn,59400.00009536743,Tue Apr 21 2026 17:58:10 GMT-0500 (Central Daylight Time),445575.1999999881,A,g,I,g,582,3,599.9000000059605,444975.2999999821,8076,WL,A,1.0
4,1.0,learn,59000.0,Tue Apr 21 2026 17:58:10 GMT-0500 (Central Daylight Time),445975.0,A,go,I,o,388,3,999.7000000178814,444975.2999999821,8076,WL,A,1.0
4,1.1999998092651367,learn,58800.00019073486,Tue Apr 21 2026 17:58:10 GMT-0500 (Central Daylight Time),446174.90000000596,A,gol,I,l,182,3,1199.6000000238419,444975.2999999821,8076,WL,A,1.0
4,1.316999912261963,learn,58683.00008773804,Tue Apr 21 2026 17:58:10 GMT-0500 (Central Daylight Time),446291.7999999821,A,gold,I,d,102,3,1316.5,444975.2999999821,8076,WL,A,1.0
4,1.5169999599456787,learn,58483.00004005432,Tue Apr 21 2026 17:58:10 GMT-0500 (Central Daylight Time),446491.5,A,goldenter,I,enter,194,3,1516.2000000178814,444975.2999999821,8076,WL,A,1.0
4,1.816999912261963,learn,58183.00008773804,Tue Apr 21 2026 17:58:10 GMT-0500 (Central Daylight Time),446791.6999999881,A,k,I,k,281,3,300.0,446491.6999999881,8076,WL,A,2.0
4,1.9499998092651367,learn,58050.00019073486,Tue Apr 21 2026 17:58:10 GMT-0500 (Central Daylight Time),446924.6999999881,A,ke,I,e,126,3,433.0,446491.6999999881,8076,WL,A,2.0
4,2.0999999046325684,learn,57900.00009536743,Tue Apr 21 2026 17:58:10 GMT-0500 (Central Daylight Time),447074.40000000596,A,key,I,y,137,3,582.7000000178814,446491.6999999881,8076,WL,A,2.0
4,2.5169999599456787,learn,57483.00004005432,Tue Apr 21 2026 17:58:10 GMT-0500 (Central Daylight Time),447491.1999999881,A,keyenter,I,enter,403,3,999.5,446491.6999999881,8076,WL,A,2.0
4,2.815999984741211,learn,57184.00001525879,Tue Apr 21 2026 17:58:10 GMT-0500 (Central Daylight Time),447791.0,A,r,I,r,290,3,299.40000000596046,447491.59999999404,8076,WL,A,3.0
4,2.883999824523926,learn,57116.000175476074,Tue Apr 21 2026 17:58:10 GMT-0500 (Central Daylight Time),447858.5,A,ra,I,a,62,3,366.90000000596046,447491.59999999404,8076,WL,A,3.0
4,3.0159997940063477,learn,56984.00020599365,Tue Apr 21 2026 17:58:10 GMT-0500 (Central Daylight Time),447990.90000000596,A,rat,I,t,122,3,499.30000001192093,447491.59999999404,8076,WL,A,3.0
4,3.1999998092651367,learn,56800.00019073486,Tue Apr 21 2026 17:58:10 GMT-0500 (Central Daylight Time),448174.1999999881,A,ratt,I,t,167,3,682.5999999940395,447491.59999999404,8076,WL,A,3.0
4,3.2659997940063477,learn,56734.00020599365,Tue Apr 21 2026 17:58:10 GMT-0500 (Central Daylight Time),448240.90000000596,A,rattl,I,l,46,3,749.3000000119209,447491.59999999404,8076,WL,A,3.0
4,3.4159998893737793,learn,56584.00011062622,Tue Apr 21 2026 17:58:10 GMT-0500 (Central Daylight Time),448391.0,A,rattle,I,e,139,3,899.4000000059605,447491.59999999404,8076,WL,A,3.0
4,3.615999937057495,learn,56384.000062942505,Tue Apr 21 2026 17:58:10 GMT-0500 (Central Daylight Time),448590.59999999404,A,rattleenter,I,enter,190,3,1099.0,447491.59999999404,8076,WL,A,3.0
4,4.0329999923706055,learn,55967.000007629395,Tue Apr 21 2026 17:58:10 GMT-0500 (Central Daylight Time),449007.1999999881,A,c,I,c,398,3,416.2999999821186,448590.90000000596,8076,WL,A,4.0
4,4.131999969482422,learn,55868.00003051758,Tue Apr 21 2026 17:58:10 GMT-0500 (Central Daylight Time),449107.09999999404,A,ch,I,h,86,3,516.1999999880791,448590.90000000596,8076,WL,A,4.0
4,4.23199987411499,learn,55768.00012588501,Tue Apr 21 2026 17:58:10 GMT-0500 (Central Daylight Time),449207.09999999404,A,chi,I,i,90,3,616.1999999880791,448590.90000000596,8076,WL,A,4.0
4,4.398999929428101,learn,55601.0000705719,Tue Apr 21 2026 17:58:10 GMT-0500 (Central Daylight Time),449374.09999999404,A,chim,I,m,159,3,783.1999999880791,448590.90000000596,8076,WL,A,4.0
4,4.698999881744385,learn,55301.000118255615,Tue Apr 21 2026 17:58:10 GMT-0500 (Central Daylight Time),449674.09999999404,A,chimn,I,n,286,3,1083.199999988079,448590.90000000596,8076,WL,A,4.0
4,4.865999937057495,learn,55134.000062942505,Tue Apr 21 2026 17:58:10 GMT-0500 (Central Daylight Time),449840.40000000596,A,chimne,I,e,146,3,1249.5,448590.90000000596,8076,WL,A,4.0
4,5.031999826431274,learn,54968.000173568726,Tue Apr 21 2026 17:58:10 GMT-0500 (Central Daylight Time),450006.90000000596,A,chimney,I,y,149,3,1416.0,448590.90000000596,8076,WL,A,4.0
4,5.298999786376953,learn,54701.00021362305,Tue Apr 21 2026 17:58:10 GMT-0500 (Central Daylight Time),450273.40000000596,A,chimneyenter,I,enter,262,3,1682.5,448590.90000000596,8076,WL,A,4.0
4,5.581999778747559,learn,54418.00022125244,Tue Apr 21 2026 17:58:10 GMT-0500 (Central Daylight Time),450556.59999999404,A,b,I,b,276,3,283.0,450273.59999999404,8076,WL,A,5.0
4,5.664999961853027,learn,54335.00003814697,Tue Apr 21 2026 17:58:10 GMT-0500 (Central Daylight Time),450640.09999999404,A,bu,I,u,64,3,366.5,450273.59999999404,8076,WL,A,5.0
4,5.831999778747559,learn,54168.00022125244,Tue Apr 21 2026 17:58:10 GMT-0500 (Central Daylight Time),450806.59999999404,A,but,I,t,148,3,533.0,450273.59999999404,8076,WL,A,5.0
4,5.9649999141693115,learn,54035.00008583069,Tue Apr 21 2026 17:58:10 GMT-0500 (Central Daylight Time),450940.09999999404,A,butt,I,t,127,3,666.5,450273.59999999404,8076,WL,A,5.0
4,6.031999826431274,learn,53968.000173568726,Tue Apr 21 2026 17:58:10 GMT-0500 (Central Daylight Time),451006.7999999821,A,butto,I,o,49,3,733.1999999880791,450273.59999999404,8076,WL,A,5.0
4,6.131999969482422,learn,53868.00003051758,Tue Apr 21 2026 17:58:10 GMT-0500 (Central Daylight Time),451106.7999999821,A,button,I,n,85,3,833.1999999880791,450273.59999999404,8076,WL,A,5.0
4,6.514999866485596,learn,53485.000133514404,Tue Apr 21 2026 17:58:10 GMT-0500 (Central Daylight Time),451490.09999999404,A,buttonenter,I,enter,363,3,1216.5,450273.59999999404,8076,WL,A,5.0
4,6.847999811172485,learn,53152.000188827515,Tue Apr 21 2026 17:58:10 GMT-0500 (Central Daylight Time),451823.0,A,l,I,l,323,3,332.59999999403954,451490.40000000596,8076,WL,A,6.0
4,7.047999858856201,learn,52952.0001411438,Tue Apr 21 2026 17:58:10 GMT-0500 (Central Daylight Time),452023.0,A,lo,I,o,182,3,532.5999999940395,451490.40000000596,8076,WL,A,6.0
4,7.398000001907349,learn,52601.99999809265,Tue Apr 21 2026 17:58:10 GMT-0500 (Central Daylight Time),452373.0,A,log,I,g,333,3,882.5999999940395,451490.40000000596,8076,WL,A,6.0
4,7.597999811172485,learn,52402.000188827515,Tue Apr 21 2026 17:58:10 GMT-0500 (Central Daylight Time),452572.59999999404,A,logenter,I,enter,191,3,1082.199999988079,451490.40000000596,8076,WL,A,6.0
4,7.930999994277954,learn,52069.000005722046,Tue Apr 21 2026 17:58:10 GMT-0500 (Central Daylight Time),452905.90000000596,A,s,I,s,320,3,333.0,452572.90000000596,8076,WL,A,7.0
4,8.047999858856201,learn,51952.0001411438,Tue Apr 21 2026 17:58:10 GMT-0500 (Central Daylight Time),453022.5,A,sa,I,a,98,3,449.59999999403954,452572.90000000596,8076,WL,A,7.0
4,8.180999994277954,learn,51819.000005722046,Tue Apr 21 2026 17:58:10 GMT-0500 (Central Daylight Time),453156.09999999404,A,sal,I,l,117,3,583.1999999880791,452572.90000000596,8076,WL,A,7.0
4,8.347999811172485,learn,51652.000188827515,Tue Apr 21 2026 17:58:10 GMT-0500 (Central Daylight Time),453322.1999999881,A,salt,I,t,153,3,749.2999999821186,452572.90000000596,8076,WL,A,7.0
4,8.513999938964844,learn,51486.000061035156,Tue Apr 21 2026 17:58:10 GMT-0500 (Central Daylight Time),453489.09999999404,A,saltenter,I,enter,162,3,916.1999999880791,452572.90000000596,8076,WL,A,7.0
4,8.730999946594238,learn,51269.00005340576,Tue Apr 21 2026 17:58:10 GMT-0500 (Central Daylight Time),453705.6999999881,A,a,I,a,205,3,216.40000000596046,453489.2999999821,8076,WL,A,8.0
4,8.930999994277954,learn,51069.000005722046,Tue Apr 21 2026 17:58:10 GMT-0500 (Central Daylight Time),453905.6999999881,A,ap,I,p,180,3,416.40000000596046,453489.2999999821,8076,WL,A,8.0
4,9.06499981880188,learn,50935.00018119812,Tue Apr 21 2026 17:58:10 GMT-0500 (Central Daylight Time),454039.2999999821,A,app,I,p,115,3,550.0,453489.2999999821,8076,WL,A,8.0
4,9.247999906539917,learn,50752.00009346008,Tue Apr 21 2026 17:58:10 GMT-0500 (Central Daylight Time),454222.40000000596,A,appl,I,l,174,3,733.1000000238419,453489.2999999821,8076,WL,A,8.0
4,9.363999843597412,learn,50636.00015640259,Tue Apr 21 2026 17:58:10 GMT-0500 (Central Daylight Time),454339.0,A,apple,I,e,110,3,849.7000000178814,453489.2999999821,8076,WL,A,8.0
4,9.613999843597412,learn,50386.00015640259,Tue Apr 21 2026 17:58:10 GMT-0500 (Central Daylight Time),454589.0,A,appleenter,I,enter,242,3,1099.7000000178814,453489.2999999821,8076,WL,A,8.0
4,10.013999938964844,learn,49986.000061035156,Tue Apr 21 2026 17:58:10 GMT-0500 (Central Daylight Time),454988.6999999881,A,f,I,f,391,3,399.2999999821186,454589.40000000596,8076,WL,A,9.0
4,10.13099980354309,learn,49869.00019645691,Tue Apr 21 2026 17:58:10 GMT-0500 (Central Daylight Time),455105.59999999404,A,fi,I,i,96,3,516.1999999880791,454589.40000000596,8076,WL,A,9.0
4,10.196999788284302,learn,49803.0002117157,Tue Apr 21 2026 17:58:10 GMT-0500 (Central Daylight Time),455171.90000000596,A,fin,I,n,59,3,582.5,454589.40000000596,8076,WL,A,9.0
4,10.363999843597412,learn,49636.00015640259,Tue Apr 21 2026 17:58:10 GMT-0500 (Central Daylight Time),455338.7999999821,A,fing,I,g,153,3,749.3999999761581,454589.40000000596,8076,WL,A,9.0
4,10.547999858856201,learn,49452.0001411438,Tue Apr 21 2026 17:58:10 GMT-0500 (Central Daylight Time),455522.90000000596,A,finge,I,e,178,3,933.5,454589.40000000596,8076,WL,A,9.0
4,10.613999843597412,learn,49386.00015640259,Tue Apr 21 2026 17:58:10 GMT-0500 (Central Daylight Time),455588.5,A,finger,I,r,58,3,999.0999999940395,454589.40000000596,8076,WL,A,9.0
4,11.02999997138977,learn,48970.00002861023,Tue Apr 21 2026 17:58:10 GMT-0500 (Central Daylight Time),456005.0,A,fingerenter,I,enter,409,3,1415.5999999940395,454589.40000000596,8076,WL,A,9.0
4,11.479999780654907,learn,48520.00021934509,Tue Apr 21 2026 17:58:10 GMT-0500 (Central Daylight Time),456455.09999999404,A,t,I,t,432,3,449.80000001192093,456005.2999999821,8076,WL,A,10.0
4,11.646999835968018,learn,48353.00016403198,Tue Apr 21 2026 17:58:10 GMT-0500 (Central Daylight Time),456621.1999999881,A,tr,I,r,150,3,615.9000000059605,456005.2999999821,8076,WL,A,10.0
4,11.696999788284302,learn,48303.0002117157,Tue Apr 21 2026 17:58:10 GMT-0500 (Central Daylight Time),456671.2999999821,A,tra,I,a,31,3,666.0,456005.2999999821,8076,WL,A,10.0
4,11.762999773025513,learn,48237.00022697449,Tue Apr 21 2026 17:58:10 GMT-0500 (Central Daylight Time),456738.0,A,trai,I,i,53,3,732.7000000178814,456005.2999999821,8076,WL,A,10.0
4,11.846999883651733,learn,48153.00011634827,Tue Apr 21 2026 17:58:10 GMT-0500 (Central Daylight Time),456821.2999999821,A,train,I,n,66,3,816.0,456005.2999999821,8076,WL,A,10.0
4,12.596999883651733,learn,47403.00011634827,Tue Apr 21 2026 17:58:10 GMT-0500 (Central Daylight Time),457571.40000000596,A,trainenter,I,enter,743,3,1566.1000000238419,456005.2999999821,8076,WL,A,10.0
4,13.762999773025513,learn,46237.00022697449,Tue Apr 21 2026 17:58:10 GMT-0500 (Central Daylight Time),458737.40000000596,A,f,I,f,1153,3,1165.7000000178814,457571.6999999881,8076,WL,A,11.0
4,13.895999908447266,learn,46104.000091552734,Tue Apr 21 2026 17:58:10 GMT-0500 (Central Daylight Time),458870.90000000596,A,fl,I,l,115,3,1299.2000000178814,457571.6999999881,8076,WL,A,11.0
4,14.030999898910522,learn,45969.00010108948,Tue Apr 21 2026 17:58:10 GMT-0500 (Central Daylight Time),459005.1999999881,A,flo,I,o,126,3,1433.5,457571.6999999881,8076,WL,A,11.0
4,14.11299991607666,learn,45887.00008392334,Tue Apr 21 2026 17:58:10 GMT-0500 (Central Daylight Time),459087.59999999404,A,flow,I,w,72,3,1515.9000000059605,457571.6999999881,8076,WL,A,11.0
4,14.178999900817871,learn,45821.00009918213,Tue Apr 21 2026 17:58:10 GMT-0500 (Central Daylight Time),459154.0,A,flowe,I,e,54,3,1582.300000011921,457571.6999999881,8076,WL,A,11.0
4,14.27899980545044,learn,45721.00019454956,Tue Apr 21 2026 17:58:10 GMT-0500 (Central Daylight Time),459253.90000000596,A,flower,I,r,92,3,1682.2000000178814,457571.6999999881,8076,WL,A,11.0
4,15.994999885559082,learn,44005.00011444092,Tue Apr 21 2026 17:58:10 GMT-0500 (Central Daylight Time),460970.09999999404,A,flowerenter,I,enter,1710,3,3398.4000000059605,457571.6999999881,8076,WL,A,11.0
4,16.311999797821045,learn,43688.000202178955,Tue Apr 21 2026 17:58:10 GMT-0500 (Central Daylight Time),461286.90000000596,A,b,I,b,299,3,316.7000000178814,460970.1999999881,8076,WL,A,12.0
4,16.42899990081787,learn,43571.00009918213,Tue Apr 21 2026 17:58:10 GMT-0500 (Central Daylight Time),461403.40000000596,A,bo,I,o,111,3,433.2000000178814,460970.1999999881,8076,WL,A,12.0
4,16.59499979019165,learn,43405.00020980835,Tue Apr 21 2026 17:58:10 GMT-0500 (Central Daylight Time),461569.7999999821,A,boo,I,o,161,3,599.5999999940395,460970.1999999881,8076,WL,A,12.0
4,16.978999853134155,learn,43021.000146865845,Tue Apr 21 2026 17:58:10 GMT-0500 (Central Daylight Time),461953.1999999881,A,book,I,k,363,3,983.0,460970.1999999881,8076,WL,A,12.0
4,17.42799997329712,learn,42572.00002670288,Tue Apr 21 2026 17:58:10 GMT-0500 (Central Daylight Time),462403.1999999881,A,bookenter,I,enter,443,3,1433.0,460970.1999999881,8076,WL,A,12.0
4,17.744999885559082,learn,42255.00011444092,Tue Apr 21 2026 17:58:10 GMT-0500 (Central Daylight Time),462719.6999999881,A,m,I,m,298,3,316.19999998807907,462403.5,8076,WL,A,13.0
4,17.82799983024597,learn,42172.00016975403,Tue Apr 21 2026 17:58:10 GMT-0500 (Central Daylight Time),462803.09999999404,A,me,I,e,69,3,399.59999999403954,462403.5,8076,WL,A,13.0
4,17.894999980926514,learn,42105.000019073486,Tue Apr 21 2026 17:58:10 GMT-0500 (Central Daylight Time),462869.7999999821,A,mea,I,a,49,3,466.2999999821186,462403.5,8076,WL,A,13.0
4,18.044999837875366,learn,41955.000162124634,Tue Apr 21 2026 17:58:10 GMT-0500 (Central Daylight Time),463019.6999999881,A,mead,I,d,135,3,616.1999999880791,462403.5,8076,WL,A,13.0
4,18.17899990081787,learn,41821.00009918213,Tue Apr 21 2026 17:58:10 GMT-0500 (Central Daylight Time),463153.5,A,meado,I,o,129,3,750.0,462403.5,8076,WL,A,13.0
4,18.311999797821045,learn,41688.000202178955,Tue Apr 21 2026 17:58:10 GMT-0500 (Central Daylight Time),463286.5,A,meadow,I,w,123,3,883.0,462403.5,8076,WL,A,13.0
4,18.560999870300293,learn,41439.00012969971,Tue Apr 21 2026 17:58:10 GMT-0500 (Central Daylight Time),463536.09999999404,A,meadowenter,I,enter,240,3,1132.5999999940395,462403.5,8076,WL,A,13.0
4,18.893999814987183,learn,41106.00018501282,Tue Apr 21 2026 17:58:10 GMT-0500 (Central Daylight Time),463869.1999999881,A,h,I,h,325,3,332.69999998807907,463536.5,8076,WL,A,14.0
4,18.99399995803833,learn,41006.00004196167,Tue Apr 21 2026 17:58:10 GMT-0500 (Central Daylight Time),463969.09999999404,A,ha,I,a,95,3,432.59999999403954,463536.5,8076,WL,A,14.0
4,19.227999925613403,learn,40772.0000743866,Tue Apr 21 2026 17:58:10 GMT-0500 (Central Daylight Time),464202.5,A,har,I,r,221,3,666.0,463536.5,8076,WL,A,14.0
4,19.394999980926514,learn,40605.000019073486,Tue Apr 21 2026 17:58:10 GMT-0500 (Central Daylight Time),464369.5,A,harp,I,p,155,3,833.0,463536.5,8076,WL,A,14.0
4,19.8439998626709,learn,40156.0001373291,Tue Apr 21 2026 17:58:10 GMT-0500 (Central Daylight Time),464819.0,A,harpenter,I,enter,443,3,1282.5,463536.5,8076,WL,A,14.0
4,20.07699990272522,learn,39923.00009727478,Tue Apr 21 2026 17:58:10 GMT-0500 (Central Daylight Time),465052.09999999404,A,r,I,r,227,3,232.69999998807907,464819.40000000596,8076,WL,A,15.0
4,20.193999767303467,learn,39806.00023269653,Tue Apr 21 2026 17:58:10 GMT-0500 (Central Daylight Time),465168.90000000596,A,ru,I,u,97,3,349.5,464819.40000000596,8076,WL,A,15.0
4,20.310999870300293,learn,39689.00012969971,Tue Apr 21 2026 17:58:10 GMT-0500 (Central Daylight Time),465285.40000000596,A,rug,I,g,109,3,466.0,464819.40000000596,8076,WL,A,15.0
4,20.926999807357788,learn,39073.00019264221,Tue Apr 21 2026 17:58:10 GMT-0500 (Central Daylight Time),465902.09999999404,A,rugenter,I,enter,600,3,1082.699999988079,464819.40000000596,8076,WL,A,15.0
5,0.4829998016357422,learn,60000.0,Tue Apr 21 2026 17:58:10 GMT-0500 (Central Daylight Time),532264.900000006,A,r,I,r,463,3,483.40000000596046,531781.5,8076,WL,A,1.0
5,0.5829999446868896,learn,60000.0,Tue Apr 21 2026 17:58:10 GMT-0500 (Central Daylight Time),532364.599999994,A,ra,I,a,83,3,583.0999999940395,531781.5,8076,WL,A,1.0
5,0.7329998016357422,learn,60000.0,Tue Apr 21 2026 17:58:10 GMT-0500 (Central Daylight Time),532514.6999999881,A,rat,I,t,138,3,733.1999999880791,531781.5,8076,WL,A,1.0
5,0.8999998569488525,learn,60000.0,Tue Apr 21 2026 17:58:10 GMT-0500 (Central Daylight Time),532681.2999999821,A,ratt,I,t,155,3,899.7999999821186,531781.5,8076,WL,A,1.0
5,1.0329999923706055,learn,60000.0,Tue Apr 21 2026 17:58:10 GMT-0500 (Central Daylight Time),532814.5,A,rattl,I,l,116,3,1033.0,531781.5,8076,WL,A,1.0
5,1.1659998893737793,learn,60000.0,Tue Apr 21 2026 17:58:10 GMT-0500 (Central Daylight Time),532947.7999999821,A,rattle,I,e,127,3,1166.2999999821186,531781.5,8076,WL,A,1.0
5,1.3829998970031738,learn,60000.0,Tue Apr 21 2026 17:58:10 GMT-0500 (Central Daylight Time),533164.2999999821,A,rattleenter,I,enter,201,3,1382.7999999821186,531781.5,8076,WL,A,1.0
5,1.6329998970031738,learn,60000.0,Tue Apr 21 2026 17:58:10 GMT-0500 (Central Daylight Time),533414.599999994,A,g,I,g,234,3,250.09999999403954,533164.5,8076,WL,A,2.0
5,1.7329998016357422,learn,60000.0,Tue Apr 21 2026 17:58:10 GMT-0500 (Central Daylight Time),533514.099999994,A,go,I,o,78,3,349.59999999403954,533164.5,8076,WL,A,2.0
5,1.9159998893737793,learn,60000.0,Tue Apr 21 2026 17:58:10 GMT-0500 (Central Daylight Time),533697.400000006,A,gol,I,l,170,3,532.9000000059605,533164.5,8076,WL,A,2.0
5,1.9829998016357422,learn,60000.0,Tue Apr 21 2026 17:58:10 GMT-0500 (Central Daylight Time),533764.1999999881,A,gold,I,d,60,3,599.6999999880791,533164.5,8076,WL,A,2.0
5,2.182999849319458,learn,60000.0,Tue Apr 21 2026 17:58:10 GMT-0500 (Central Daylight Time),533964.2999999821,A,goldenter,I,enter,185,3,799.7999999821186,533164.5,8076,WL,A,2.0
5,2.4159998893737793,learn,60000.0,Tue Apr 21 2026 17:58:10 GMT-0500 (Central Daylight Time),534197.5,A,k,I,k,217,3,232.80000001192093,533964.6999999881,8076,WL,A,3.0
5,2.498999834060669,learn,60000.0,Tue Apr 21 2026 17:58:10 GMT-0500 (Central Daylight Time),534280.599999994,A,ke,I,e,63,3,315.90000000596046,533964.6999999881,8076,WL,A,3.0
5,2.6489999294281006,learn,60000.0,Tue Apr 21 2026 17:58:10 GMT-0500 (Central Daylight Time),534430.599999994,A,key,I,y,141,3,465.90000000596046,533964.6999999881,8076,WL,A,3.0
5,2.931999921798706,learn,60000.0,Tue Apr 21 2026 17:58:10 GMT-0500 (Central Daylight Time),534713.7999999821,A,keyenter,I,enter,262,3,749.0999999940395,533964.6999999881,8076,WL,A,3.0
5,3.3489999771118164,learn,60000.0,Tue Apr 21 2026 17:58:10 GMT-0500 (Central Daylight Time),535130.6999999881,A,c,I,c,404,3,416.59999999403954,534714.099999994,8076,WL,A,4.0
5,3.4819998741149902,learn,60000.0,Tue Apr 21 2026 17:58:10 GMT-0500 (Central Daylight Time),535263.7999999821,A,ch,I,h,114,3,549.6999999880791,534714.099999994,8076,WL,A,4.0
5,3.565999984741211,learn,60000.0,Tue Apr 21 2026 17:58:10 GMT-0500 (Central Daylight Time),535347.0,A,chi,I,i,69,3,632.9000000059605,534714.099999994,8076,WL,A,4.0
5,3.6989998817443848,learn,60000.0,Tue Apr 21 2026 17:58:10 GMT-0500 (Central Daylight Time),535480.400000006,A,chim,I,m,122,3,766.3000000119209,534714.099999994,8076,WL,A,4.0
5,3.865000009536743,learn,60000.0,Tue Apr 21 2026 17:58:10 GMT-0500 (Central Daylight Time),535646.7999999821,A,chimn,I,n,156,3,932.6999999880791,534714.099999994,8076,WL,A,4.0
5,3.931999921798706,learn,60000.0,Tue Apr 21 2026 17:58:10 GMT-0500 (Central Daylight Time),535713.6999999881,A,chimne,I,e,54,3,999.5999999940395,534714.099999994,8076,WL,A,4.0
5,4.131999969482422,learn,60000.0,Tue Apr 21 2026 17:58:10 GMT-0500 (Central Daylight Time),535913.2999999821,A,chimney,I,y,195,3,1199.199999988079,534714.099999994,8076,WL,A,4.0
5,4.581999778747559,learn,60000.0,Tue Apr 21 2026 17:58:10 GMT-0500 (Central Daylight Time),536363.2999999821,A,chimneyenter,I,enter,435,3,1649.199999988079,534714.099999994,8076,WL,A,4.0
5,4.914999961853027,learn,60000.0,Tue Apr 21 2026 17:58:10 GMT-0500 (Central Daylight Time),536696.400000006,A,b,I,b,321,3,332.80000001192093,536363.599999994,8076,WL,A,5.0
5,5.014999866485596,learn,60000.0,Tue Apr 21 2026 17:58:10 GMT-0500 (Central Daylight Time),536796.599999994,A,bu,I,u,93,3,433.0,536363.599999994,8076,WL,A,5.0
5,5.165999889373779,learn,60000.0,Tue Apr 21 2026 17:58:10 GMT-0500 (Central Daylight Time),536947.5,A,but,I,t,144,3,583.9000000059605,536363.599999994,8076,WL,A,5.0
5,5.31499981880188,learn,60000.0,Tue Apr 21 2026 17:58:10 GMT-0500 (Central Daylight Time),537096.5,A,butt,I,t,138,3,732.9000000059605,536363.599999994,8076,WL,A,5.0
5,5.398000001907349,learn,60000.0,Tue Apr 21 2026 17:58:10 GMT-0500 (Central Daylight Time),537179.900000006,A,butto,I,o,68,3,816.3000000119209,536363.599999994,8076,WL,A,5.0
5,5.797999858856201,learn,60000.0,Tue Apr 21 2026 17:58:10 GMT-0500 (Central Daylight Time),537579.5,A,button,I,n,386,3,1215.9000000059605,536363.599999994,8076,WL,A,5.0
5,6.06499981880188,learn,60000.0,Tue Apr 21 2026 17:58:10 GMT-0500 (Central Daylight Time),537846.099999994,A,buttonenter,I,enter,250,3,1482.5,536363.599999994,8076,WL,A,5.0
5,6.430999994277954,learn,60000.0,Tue Apr 21 2026 17:58:10 GMT-0500 (Central Daylight Time),538212.6999999881,A,l,I,l,351,3,366.19999998807907,537846.5,8076,WL,A,6.0
5,6.613999843597412,learn,60000.0,Tue Apr 21 2026 17:58:10 GMT-0500 (Central Daylight Time),538396.0,A,lo,I,o,168,3,549.5,537846.5,8076,WL,A,6.0
5,6.746999979019165,learn,60000.0,Tue Apr 21 2026 17:58:10 GMT-0500 (Central Daylight Time),538529.099999994,A,log,I,g,113,3,682.5999999940395,537846.5,8076,WL,A,6.0
5,7.11299991607666,learn,60000.0,Tue Apr 21 2026 17:58:10 GMT-0500 (Central Daylight Time),538895.6999999881,A,logenter,I,enter,347,3,1049.199999988079,537846.5,8076,WL,A,6.0
5,7.496999979019165,learn,60000.0,Tue Apr 21 2026 17:58:10 GMT-0500 (Central Daylight Time),539279.1999999881,A,f,I,f,365,3,383.09999999403954,538896.099999994,8076,WL,A,7.0
5,7.562999963760376,learn,60000.0,Tue Apr 21 2026 17:58:10 GMT-0500 (Central Daylight Time),539345.400000006,A,fi,I,i,61,3,449.30000001192093,538896.099999994,8076,WL,A,7.0
5,7.663999795913696,learn,60000.0,Tue Apr 21 2026 17:58:10 GMT-0500 (Central Daylight Time),539445.900000006,A,fin,I,n,84,3,549.8000000119209,538896.099999994,8076,WL,A,7.0
5,7.996999979019165,learn,60000.0,Tue Apr 21 2026 17:58:10 GMT-0500 (Central Daylight Time),539778.7999999821,A,fing,I,g,326,3,882.6999999880791,538896.099999994,8076,WL,A,7.0
5,8.179999828338623,learn,60000.0,Tue Apr 21 2026 17:58:10 GMT-0500 (Central Daylight Time),539962.1999999881,A,finge,I,e,170,3,1066.0999999940395,538896.099999994,8076,WL,A,7.0
5,8.246999979019165,learn,60000.0,Tue Apr 21 2026 17:58:10 GMT-0500 (Central Daylight Time),540028.7999999821,A,finger,I,r,50,3,1132.699999988079,538896.099999994,8076,WL,A,7.0
5,8.44599986076355,learn,60000.0,Tue Apr 21 2026 17:58:10 GMT-0500 (Central Daylight Time),540228.599999994,A,fingerenter,I,enter,192,3,1332.5,538896.099999994,8076,WL,A,7.0
5,8.61299991607666,learn,60000.0,Tue Apr 21 2026 17:58:10 GMT-0500 (Central Daylight Time),540395.2999999821,A,s,I,s,160,3,166.5,540228.7999999821,8076,WL,A,8.0
5,8.746999979019165,learn,60000.0,Tue Apr 21 2026 17:58:10 GMT-0500 (Central Daylight Time),540528.7999999821,A,sa,I,a,113,3,300.0,540228.7999999821,8076,WL,A,8.0
5,8.895999908447266,learn,60000.0,Tue Apr 21 2026 17:58:10 GMT-0500 (Central Daylight Time),540678.400000006,A,sal,I,l,141,3,449.60000002384186,540228.7999999821,8076,WL,A,8.0
5,9.079999923706055,learn,60000.0,Tue Apr 21 2026 17:58:10 GMT-0500 (Central Daylight Time),540861.7999999821,A,salt,I,t,166,3,633.0,540228.7999999821,8076,WL,A,8.0
5,9.228999853134155,learn,60000.0,Tue Apr 21 2026 17:58:10 GMT-0500 (Central Daylight Time),541011.7999999821,A,saltenter,I,enter,143,3,783.0,540228.7999999821,8076,WL,A,8.0
5,9.412999868392944,learn,60000.0,Tue Apr 21 2026 17:58:10 GMT-0500 (Central Daylight Time),541195.099999994,A,a,I,a,177,3,183.0,541012.099999994,8076,WL,A,9.0
5,9.645999908447266,learn,60000.0,Tue Apr 21 2026 17:58:10 GMT-0500 (Central Daylight Time),541428.2999999821,A,ap,I,p,225,3,416.19999998807907,541012.099999994,8076,WL,A,9.0
5,9.77899980545044,learn,60000.0,Tue Apr 21 2026 17:58:10 GMT-0500 (Central Daylight Time),541561.599999994,A,app,I,p,112,3,549.5,541012.099999994,8076,WL,A,9.0
5,10.046000003814697,learn,60000.0,Tue Apr 21 2026 17:58:10 GMT-0500 (Central Daylight Time),541828.1999999881,A,appl,I,l,259,3,816.0999999940395,541012.099999994,8076,WL,A,9.0
5,10.212999820709229,learn,60000.0,Tue Apr 21 2026 17:58:10 GMT-0500 (Central Daylight Time),541995.099999994,A,apple,I,e,153,3,983.0,541012.099999994,8076,WL,A,9.0
5,10.878999948501587,learn,60000.0,Tue Apr 21 2026 17:58:10 GMT-0500 (Central Daylight Time),542661.5,A,appleenter,I,enter,650,3,1649.4000000059605,541012.099999994,8076,WL,A,9.0
5,11.745999813079834,learn,60000.0,Tue Apr 21 2026 17:58:10 GMT-0500 (Central Daylight Time),543528.6999999881,A,t,I,t,847,3,866.9000000059605,542661.7999999821,8076,WL,A,10.0
5,11.911999940872192,learn,60000.0,Tue Apr 21 2026 17:58:10 GMT-0500 (Central Daylight Time),543694.1999999881,A,tr,I,r,148,3,1032.4000000059605,542661.7999999821,8076,WL,A,10.0
5,11.944999933242798,learn,60000.0,Tue Apr 21 2026 17:58:10 GMT-0500 (Central Daylight Time),543727.599999994,A,tra,I,a,22,3,1065.800000011921,542661.7999999821,8076,WL,A,10.0
5,12.02999997138977,learn,60000.0,Tue Apr 21 2026 17:58:10 GMT-0500 (Central Daylight Time),543812.0,A,trai,I,i,78,3,1150.2000000178814,542661.7999999821,8076,WL,A,10.0
5,12.09499979019165,learn,60000.0,Tue Apr 21 2026 17:58:10 GMT-0500 (Central Daylight Time),543877.6999999881,A,train,I,n,58,3,1215.9000000059605,542661.7999999821,8076,WL,A,10.0
5,12.34499979019165,learn,60000.0,Tue Apr 21 2026 17:58:10 GMT-0500 (Central Daylight Time),544127.400000006,A,trainenter,I,enter,239,3,1465.6000000238419,542661.7999999821,8076,WL,A,10.0
5,12.794999837875366,learn,60000.0,Tue Apr 21 2026 17:58:10 GMT-0500 (Central Daylight Time),544577.5,A,b,I,b,438,3,449.80000001192093,544127.6999999881,8076,WL,A,11.0
5,12.994999885559082,learn,60000.0,Tue Apr 21 2026 17:58:10 GMT-0500 (Central Daylight Time),544777.5,A,bo,I,o,187,3,649.8000000119209,544127.6999999881,8076,WL,A,11.0
5,13.194999933242798,learn,60000.0,Tue Apr 21 2026 17:58:10 GMT-0500 (Central Daylight Time),544977.400000006,A,boo,I,o,187,3,849.7000000178814,544127.6999999881,8076,WL,A,11.0
5,13.394999980926514,learn,60000.0,Tue Apr 21 2026 17:58:10 GMT-0500 (Central Daylight Time),545177.2999999821,A,book,I,k,179,3,1049.5999999940395,544127.6999999881,8076,WL,A,11.0
5,13.744999885559082,learn,60000.0,Tue Apr 21 2026 17:58:10 GMT-0500 (Central Daylight Time),545527.0,A,bookenter,I,enter,333,3,1399.300000011921,544127.6999999881,8076,WL,A,11.0
5,14.610999822616577,learn,60000.0,Tue Apr 21 2026 17:58:10 GMT-0500 (Central Daylight Time),546393.599999994,A,f,I,f,862,3,866.3000000119209,545527.2999999821,8076,WL,A,12.0
5,14.760999917984009,learn,60000.0,Tue Apr 21 2026 17:58:10 GMT-0500 (Central Daylight Time),546543.2999999821,A,fl,I,l,139,3,1016.0,545527.2999999821,8076,WL,A,12.0
5,14.944999933242798,learn,60000.0,Tue Apr 21 2026 17:58:10 GMT-0500 (Central Daylight Time),546727.6999999881,A,flo,I,o,165,3,1200.4000000059605,545527.2999999821,8076,WL,A,12.0
5,15.027999877929688,learn,60000.0,Tue Apr 21 2026 17:58:10 GMT-0500 (Central Daylight Time),546809.900000006,A,flow,I,w,77,3,1282.6000000238419,545527.2999999821,8076,WL,A,12.0
5,15.110999822616577,learn,60000.0,Tue Apr 21 2026 17:58:10 GMT-0500 (Central Daylight Time),546893.2999999821,A,flowe,I,e,68,3,1366.0,545527.2999999821,8076,WL,A,12.0
5,15.194000005722046,learn,60000.0,Tue Apr 21 2026 17:58:10 GMT-0500 (Central Daylight Time),546976.6999999881,A,flower,I,r,73,3,1449.4000000059605,545527.2999999821,8076,WL,A,12.0
5,15.460999965667725,learn,60000.0,Tue Apr 21 2026 17:58:10 GMT-0500 (Central Daylight Time),547243.1999999881,A,flowerenter,I,enter,252,3,1715.9000000059605,545527.2999999821,8076,WL,A,12.0
5,16.060999870300293,learn,60000.0,Tue Apr 21 2026 17:58:10 GMT-0500 (Central Daylight Time),547843.0,A,r,I,r,586,3,599.4000000059605,547243.599999994,8076,WL,A,13.0
5,16.194000005722046,learn,60000.0,Tue Apr 21 2026 17:58:10 GMT-0500 (Central Daylight Time),547976.5,A,ru,I,u,122,3,732.9000000059605,547243.599999994,8076,WL,A,13.0
5,16.310999870300293,learn,60000.0,Tue Apr 21 2026 17:58:10 GMT-0500 (Central Daylight Time),548093.599999994,A,rug,I,g,108,3,850.0,547243.599999994,8076,WL,A,13.0
5,16.527999877929688,learn,60000.0,Tue Apr 21 2026 17:58:10 GMT-0500 (Central Daylight Time),548310.2999999821,A,rugenter,I,enter,199,3,1066.699999988079,547243.599999994,8076,WL,A,13.0
5,16.84499979019165,learn,60000.0,Tue Apr 21 2026 17:58:10 GMT-0500 (Central Daylight Time),548627.1999999881,A,m,I,m,310,3,316.69999998807907,548310.5,8076,WL,A,14.0
5,16.926999807357788,learn,60000.0,Tue Apr 21 2026 17:58:10 GMT-0500 (Central Daylight Time),548709.5,A,me,I,e,66,3,399.0,548310.5,8076,WL,A,14.0
5,16.99399995803833,learn,60000.0,Tue Apr 21 2026 17:58:10 GMT-0500 (Central Daylight Time),548776.1999999881,A,mea,I,a,47,3,465.69999998807907,548310.5,8076,WL,A,14.0
5,17.126999855041504,learn,60000.0,Tue Apr 21 2026 17:58:10 GMT-0500 (Central Daylight Time),548909.1999999881,A,mead,I,d,124,3,598.6999999880791,548310.5,8076,WL,A,14.0
5,17.32699990272522,learn,60000.0,Tue Apr 21 2026 17:58:10 GMT-0500 (Central Daylight Time),549109.5,A,meado,I,o,183,3,799.0,548310.5,8076,WL,A,14.0
5,17.426999807357788,learn,60000.0,Tue Apr 21 2026 17:58:10 GMT-0500 (Central Daylight Time),549209.099999994,A,meadow,I,w,87,3,898.5999999940395,548310.5,8076,WL,A,14.0
5,17.64299988746643,learn,60000.0,Tue Apr 21 2026 17:58:10 GMT-0500 (Central Daylight Time),549425.6999999881,A,meadowenter,I,enter,205,3,1115.199999988079,548310.5,8076,WL,A,14.0
5,17.89299988746643,learn,60000.0,Tue Apr 21 2026 17:58:10 GMT-0500 (Central Daylight Time),549675.599999994,A,h,I,h,244,3,249.59999999403954,549426.0,8076,WL,A,15.0
5,17.99399995803833,learn,60000.0,Tue Apr 21 2026 17:58:10 GMT-0500 (Central Daylight Time),549775.900000006,A,ha,I,a,82,3,349.90000000596046,549426.0,8076,WL,A,15.0
5,18.109999895095825,learn,60000.0,Tue Apr 21 2026 17:58:10 GMT-0500 (Central Daylight Time),549892.599999994,A,har,I,r,100,3,466.59999999403954,549426.0,8076,WL,A,15.0
5,18.242999792099,learn,60000.0,Tue Apr 21 2026 17:58:10 GMT-0500 (Central Daylight Time),550025.400000006,A,harp,I,p,128,3,599.4000000059605,549426.0,8076,WL,A,15.0
5,18.609999895095825,learn,60000.0,Tue Apr 21 2026 17:58:10 GMT-0500 (Central Daylight Time),550392.2999999821,A,harpenter,I,enter,347,3,966.2999999821186,549426.0,8076,WL,A,15.0
6,0.41700005531311035,distr,59582.99994468689,Tue Apr 21 2026 17:58:10 GMT-0500 (Central Daylight Time),631000.599999994,B,c,I,c,397,3,416.59999999403954,630584.0,8076,WL,A,1.0
6,0.5659999847412109,distr,59434.00001525879,Tue Apr 21 2026 17:58:10 GMT-0500 (Central Daylight Time),631150.099999994,B,co,I,o,132,3,566.0999999940395,630584.0,8076,WL,A,1.0
6,0.6830000877380371,distr,59316.99991226196,Tue Apr 21 2026 17:58:10 GMT-0500 (Central Daylight Time),631266.900000006,B,cot,I,t,102,3,682.9000000059605,630584.0,8076,WL,A,1.0
6,0.8329999446868896,distr,59167.00005531311,Tue Apr 21 2026 17:58:10 GMT-0500 (Central Daylight Time),631416.6999999881,B,cott,I,t,138,3,832.6999999880791,630584.0,8076,WL,A,1.0
6,0.9660000801086426,distr,59033.99991989136,Tue Apr 21 2026 17:58:10 GMT-0500 (Central Daylight Time),631550.099999994,B,cottl,I,l,116,3,966.0999999940395,630584.0,8076,WL,A,1.0
6,1.1500000953674316,distr,58849.99990463257,Tue Apr 21 2026 17:58:10 GMT-0500 (Central Daylight Time),631733.5,B,cottle,I,e,167,3,1149.5,630584.0,8076,WL,A,1.0
6,1.3499999046325684,distr,58650.00009536743,Tue Apr 21 2026 17:58:10 GMT-0500 (Central Daylight Time),631933.599999994,B,cottleenter,I,enter,183,3,1349.5999999940395,630584.0,8076,WL,A,1.0
6,1.5989999771118164,distr,58401.00002288818,Tue Apr 21 2026 17:58:10 GMT-0500 (Central Daylight Time),632183.099999994,B,b,I,b,240,3,249.09999999403954,631934.0,8076,WL,A,2.0
6,1.7320001125335693,distr,58267.99988746643,Tue Apr 21 2026 17:58:10 GMT-0500 (Central Daylight Time),632316.400000006,B,bo,I,o,126,3,382.40000000596046,631934.0,8076,WL,A,2.0
6,1.8829998970031738,distr,58117.000102996826,Tue Apr 21 2026 17:58:10 GMT-0500 (Central Daylight Time),632466.599999994,B,bot,I,t,137,3,532.5999999940395,631934.0,8076,WL,A,2.0
6,3.0490000247955322,distr,56950.99997520447,Tue Apr 21 2026 17:58:10 GMT-0500 (Central Daylight Time),633632.900000006,B,bo,I,backspace,1146,3,1698.9000000059605,631934.0,8076,WL,A,2.0
6,3.2990000247955322,distr,56700.99997520447,Tue Apr 21 2026 17:58:10 GMT-0500 (Central Daylight Time),633882.599999994,B,b,I,backspace,236,3,1948.5999999940395,631934.0,8076,WL,A,2.0
6,3.499000072479248,distr,56500.99992752075,Tue Apr 21 2026 17:58:10 GMT-0500 (Central Daylight Time),634082.6999999881,B,,I,backspace,186,3,2148.699999988079,631934.0,8076,WL,A,2.0
6,3.699000120162964,distr,56300.999879837036,Tue Apr 21 2026 17:58:10 GMT-0500 (Central Daylight Time),634282.599999994,B,c,I,c,194,3,2348.5999999940395,631934.0,8076,WL,A,2.0
6,3.8320000171661377,distr,56167.99998283386,Tue Apr 21 2026 17:58:10 GMT-0500 (Central Daylight Time),634415.7999999821,B,co,I,o,122,3,2481.7999999821186,631934.0,8076,WL,A,2.0
6,3.9649999141693115,distr,56035.00008583069,Tue Apr 21 2026 17:58:10 GMT-0500 (Central Daylight Time),634549.1999999881,B,coa,I,a,118,3,2615.199999988079,631934.0,8076,WL,A,2.0
6,4.065000057220459,distr,55934.99994277954,Tue Apr 21 2026 17:58:10 GMT-0500 (Central Daylight Time),634649.1999999881,B,coat,I,t,88,3,2715.199999988079,631934.0,8076,WL,A,2.0
6,4.381999969482422,distr,55618.00003051758,Tue Apr 21 2026 17:58:10 GMT-0500 (Central Daylight Time),634965.7999999821,B,coatenter,I,enter,308,3,3031.7999999821186,631934.0,8076,WL,A,2.0
6,4.79800009727478,distr,55201.99990272522,Tue Apr 21 2026 17:58:10 GMT-0500 (Central Daylight Time),635382.400000006,B,b,I,b,400,3,416.2000000178814,634966.1999999881,8076,WL,A,3.0
6,4.914999961853027,distr,55085.00003814697,Tue Apr 21 2026 17:58:10 GMT-0500 (Central Daylight Time),635498.900000006,B,bo,I,o,110,3,532.7000000178814,634966.1999999881,8076,WL,A,3.0
6,5.0320000648498535,distr,54967.99993515015,Tue Apr 21 2026 17:58:10 GMT-0500 (Central Daylight Time),635615.599999994,B,bot,I,t,99,3,649.4000000059605,634966.1999999881,8076,WL,A,3.0
6,5.180999994277954,distr,54819.000005722046,Tue Apr 21 2026 17:58:10 GMT-0500 (Central Daylight Time),635765.400000006,B,bott,I,t,133,3,799.2000000178814,634966.1999999881,8076,WL,A,3.0
6,5.2820000648498535,distr,54717.99993515015,Tue Apr 21 2026 17:58:10 GMT-0500 (Central Daylight Time),635865.5,B,bottl,I,l,95,3,899.3000000119209,634966.1999999881,8076,WL,A,3.0
6,5.430999994277954,distr,54569.000005722046,Tue Apr 21 2026 17:58:10 GMT-0500 (Central Daylight Time),636015.2999999821,B,bottle,I,e,139,3,1049.0999999940395,634966.1999999881,8076,WL,A,3.0
6,5.664999961853027,distr,54335.00003814697,Tue Apr 21 2026 17:58:10 GMT-0500 (Central Daylight Time),636248.6999999881,B,bottleenter,I,enter,221,3,1282.5,634966.1999999881,8076,WL,A,3.0
6,6.664000034332275,distr,53335.999965667725,Tue Apr 21 2026 17:58:10 GMT-0500 (Central Daylight Time),637248.400000006,B,s,I,s,980,3,999.3000000119209,636249.099999994,8076,WL,A,4.0
6,6.71399998664856,distr,53286.00001335144,Tue Apr 21 2026 17:58:10 GMT-0500 (Central Daylight Time),637297.900000006,B,sh,I,h,45,3,1048.800000011921,636249.099999994,8076,WL,A,4.0
6,6.88100004196167,distr,53118.99995803833,Tue Apr 21 2026 17:58:10 GMT-0500 (Central Daylight Time),637464.7999999821,B,she,I,e,156,3,1215.699999988079,636249.099999994,8076,WL,A,4.0
6,7.0309998989105225,distr,52969.00010108948,Tue Apr 21 2026 17:58:10 GMT-0500 (Central Daylight Time),637614.900000006,B,shee,I,e,140,3,1365.800000011921,636249.099999994,8076,WL,A,4.0
6,7.148000001907349,distr,52851.99999809265,Tue Apr 21 2026 17:58:10 GMT-0500 (Central Daylight Time),637731.5,B,sheep,I,p,102,3,1482.4000000059605,636249.099999994,8076,WL,A,4.0
6,7.996999979019165,distr,52003.000020980835,Tue Apr 21 2026 17:58:10 GMT-0500 (Central Daylight Time),638581.5,B,sheepenter,I,enter,841,3,2332.4000000059605,636249.099999994,8076,WL,A,4.0
6,8.913000106811523,distr,51086.99989318848,Tue Apr 21 2026 17:58:10 GMT-0500 (Central Daylight Time),639497.400000006,B,b,I,b,904,3,915.6000000238419,638581.7999999821,8076,WL,A,5.0
6,9.04699993133545,distr,50953.00006866455,Tue Apr 21 2026 17:58:10 GMT-0500 (Central Daylight Time),639630.900000006,B,bo,I,o,123,3,1049.1000000238419,638581.7999999821,8076,WL,A,5.0
6,9.163000106811523,distr,50836.99989318848,Tue Apr 21 2026 17:58:10 GMT-0500 (Central Daylight Time),639747.400000006,B,bow,I,w,111,3,1165.6000000238419,638581.7999999821,8076,WL,A,5.0
6,9.380000114440918,distr,50619.99988555908,Tue Apr 21 2026 17:58:10 GMT-0500 (Central Daylight Time),639964.1999999881,B,bowl,I,l,201,3,1382.4000000059605,638581.7999999821,8076,WL,A,5.0
6,9.597000122070312,distr,50402.99987792969,Tue Apr 21 2026 17:58:10 GMT-0500 (Central Daylight Time),640180.7999999821,B,bowlenter,I,enter,201,3,1599.0,638581.7999999821,8076,WL,A,5.0
6,9.763000011444092,distr,50236.99998855591,Tue Apr 21 2026 17:58:10 GMT-0500 (Central Daylight Time),640347.2999999821,B,d,I,d,161,3,166.2999999821186,640181.0,8076,WL,A,6.0
6,9.880000114440918,distr,50119.99988555908,Tue Apr 21 2026 17:58:10 GMT-0500 (Central Daylight Time),640464.099999994,B,da,I,a,105,3,283.09999999403954,640181.0,8076,WL,A,6.0
6,10.013000011444092,distr,49986.99998855591,Tue Apr 21 2026 17:58:10 GMT-0500 (Central Daylight Time),640597.400000006,B,daw,I,w,118,3,416.40000000596046,640181.0,8076,WL,A,6.0
6,10.196000099182129,distr,49803.99990081787,Tue Apr 21 2026 17:58:10 GMT-0500 (Central Daylight Time),640780.400000006,B,dawn,I,n,175,3,599.4000000059605,640181.0,8076,WL,A,6.0
6,10.513000011444092,distr,49486.99998855591,Tue Apr 21 2026 17:58:10 GMT-0500 (Central Daylight Time),641097.1999999881,B,dawnenter,I,enter,296,3,916.1999999880791,640181.0,8076,WL,A,6.0
6,10.763000011444092,distr,49236.99998855591,Tue Apr 21 2026 17:58:10 GMT-0500 (Central Daylight Time),641347.0,B,j,I,j,236,3,249.59999999403954,641097.400000006,8076,WL,A,7.0
6,10.928999900817871,distr,49071.00009918213,Tue Apr 21 2026 17:58:10 GMT-0500 (Central Daylight Time),641513.400000006,B,ju,I,u,161,3,416.0,641097.400000006,8076,WL,A,7.0
6,11.02999997138977,distr,48970.00002861023,Tue Apr 21 2026 17:58:10 GMT-0500 (Central Daylight Time),641613.5,B,jud,I,d,91,3,516.0999999940395,641097.400000006,8076,WL,A,7.0
6,11.145999908447266,distr,48854.000091552734,Tue Apr 21 2026 17:58:10 GMT-0500 (Central Daylight Time),641730.1999999881,B,judg,I,g,112,3,632.7999999821186,641097.400000006,8076,WL,A,7.0
6,11.36299991607666,distr,48637.00008392334,Tue Apr 21 2026 17:58:10 GMT-0500 (Central Daylight Time),641946.7999999821,B,judge,I,e,204,3,849.3999999761581,641097.400000006,8076,WL,A,7.0
6,12.128999948501587,distr,47871.00005149841,Tue Apr 21 2026 17:58:10 GMT-0500 (Central Daylight Time),642713.1999999881,B,judgeenter,I,enter,762,3,1615.7999999821186,641097.400000006,8076,WL,A,7.0
6,12.678999900817871,distr,47321.00009918213,Tue Apr 21 2026 17:58:10 GMT-0500 (Central Daylight Time),643263.1999999881,B,i,I,i,532,3,549.7999999821186,642713.400000006,8076,WL,A,8.0
6,12.828999996185303,distr,47171.0000038147,Tue Apr 21 2026 17:58:10 GMT-0500 (Central Daylight Time),643413.099999994,B,in,I,n,141,3,699.6999999880791,642713.400000006,8076,WL,A,8.0
6,12.928999900817871,distr,47071.00009918213,Tue Apr 21 2026 17:58:10 GMT-0500 (Central Daylight Time),643513.099999994,B,ins,I,s,89,3,799.6999999880791,642713.400000006,8076,WL,A,8.0
6,13.361999988555908,distr,46638.00001144409,Tue Apr 21 2026 17:58:10 GMT-0500 (Central Daylight Time),643946.099999994,B,inse,I,e,412,3,1232.699999988079,642713.400000006,8076,WL,A,8.0
6,13.578999996185303,distr,46421.0000038147,Tue Apr 21 2026 17:58:10 GMT-0500 (Central Daylight Time),644162.7999999821,B,insec,I,c,203,3,1449.3999999761581,642713.400000006,8076,WL,A,8.0
6,13.779000043869019,distr,46220.99995613098,Tue Apr 21 2026 17:58:10 GMT-0500 (Central Daylight Time),644362.7999999821,B,insect,I,t,186,3,1649.3999999761581,642713.400000006,8076,WL,A,8.0
6,14.394999980926514,distr,45605.000019073486,Tue Apr 21 2026 17:58:10 GMT-0500 (Central Daylight Time),644979.2999999821,B,insectenter,I,enter,602,3,2265.899999976158,642713.400000006,8076,WL,A,8.0
6,16.996000051498413,distr,43003.99994850159,Tue Apr 21 2026 17:58:10 GMT-0500 (Central Daylight Time),647579.5,B,c,I,c,2593,3,2599.9000000059605,644979.599999994,8076,WL,A,9.0
6,17.16100001335144,distr,42838.99998664856,Tue Apr 21 2026 17:58:10 GMT-0500 (Central Daylight Time),647745.0,B,co,I,o,153,3,2765.4000000059605,644979.599999994,8076,WL,A,9.0
6,17.227999925613403,distr,42772.0000743866,Tue Apr 21 2026 17:58:10 GMT-0500 (Central Daylight Time),647811.599999994,B,cou,I,u,51,3,2832.0,644979.599999994,8076,WL,A,9.0
6,17.42799997329712,distr,42572.00002670288,Tue Apr 21 2026 17:58:10 GMT-0500 (Central Daylight Time),648011.6999999881,B,coun,I,n,194,3,3032.0999999940395,644979.599999994,8076,WL,A,9.0
6,17.561000108718872,distr,42438.99989128113,Tue Apr 21 2026 17:58:10 GMT-0500 (Central Daylight Time),648144.599999994,B,count,I,t,113,3,3165.0,644979.599999994,8076,WL,A,9.0
6,17.727999925613403,distr,42272.0000743866,Tue Apr 21 2026 17:58:10 GMT-0500 (Central Daylight Time),648311.599999994,B,county,I,y,148,3,3332.0,644979.599999994,8076,WL,A,9.0
6,18.043999910354614,distr,41956.000089645386,Tue Apr 21 2026 17:58:10 GMT-0500 (Central Daylight Time),648628.1999999881,B,countyenter,I,enter,310,3,3648.5999999940395,644979.599999994,8076,WL,A,9.0
6,18.289999961853027,distr,41710.00003814697,Tue Apr 21 2026 17:58:10 GMT-0500 (Central Daylight Time),648874.2999999821,B,g,I,g,241,3,245.69999998807907,648628.599999994,8076,WL,A,10.0
6,18.437000036239624,distr,41562.999963760376,Tue Apr 21 2026 17:58:10 GMT-0500 (Central Daylight Time),649021.400000006,B,gr,I,r,142,3,392.80000001192093,648628.599999994,8076,WL,A,10.0
6,18.496999979019165,distr,41503.000020980835,Tue Apr 21 2026 17:58:10 GMT-0500 (Central Daylight Time),649080.7999999821,B,gra,I,a,39,3,452.19999998807907,648628.599999994,8076,WL,A,10.0
6,18.661999940872192,distr,41338.00005912781,Tue Apr 21 2026 17:58:10 GMT-0500 (Central Daylight Time),649245.6999999881,B,gran,I,n,153,3,617.0999999940395,648628.599999994,8076,WL,A,10.0
6,18.844000101089478,distr,41155.99989891052,Tue Apr 21 2026 17:58:10 GMT-0500 (Central Daylight Time),649427.900000006,B,grant,I,t,176,3,799.3000000119209,648628.599999994,8076,WL,A,10.0
6,19.877000093460083,distr,40122.99990653992,Tue Apr 21 2026 17:58:10 GMT-0500 (Central Daylight Time),650460.7999999821,B,grantenter,I,enter,1026,3,1832.199999988079,648628.599999994,8076,WL,A,10.0
6,27.5239999294281,distr,32476.0000705719,Tue Apr 21 2026 17:58:10 GMT-0500 (Central Daylight Time),658108.400000006,B,p,I,p,7641,3,7647.300000011921,650461.099999994,8076,WL,A,11.0
6,27.740000009536743,distr,32259.999990463257,Tue Apr 21 2026 17:58:10 GMT-0500 (Central Daylight Time),658325.1999999881,B,po,I,o,199,3,7864.0999999940395,650461.099999994,8076,WL,A,11.0
6,27.94000005722046,distr,32059.99994277954,Tue Apr 21 2026 17:58:10 GMT-0500 (Central Daylight Time),658525.0,B,poo,I,o,192,3,8063.9000000059605,650461.099999994,8076,WL,A,11.0
6,28.207000017166138,distr,31792.999982833862,Tue Apr 21 2026 17:58:10 GMT-0500 (Central Daylight Time),658791.5,B,pool,I,l,248,3,8330.40000000596,650461.099999994,8076,WL,A,11.0
6,28.58999991416931,distr,31410.00008583069,Tue Apr 21 2026 17:58:10 GMT-0500 (Central Daylight Time),659175.0,B,poolenter,I,enter,372,3,8713.90000000596,650461.099999994,8076,WL,A,11.0
6,60.013999938964844,distr,-13.99993896484375,Tue Apr 21 2026 17:58:10 GMT-0500 (Central Daylight Time),690598.400000006,B,None,I,None,31419,3,31423.100000023842,659175.2999999821,8076,WL,A,12.0
7,0.38300013542175293,immed,59616.99986457825,Tue Apr 21 2026 17:58:10 GMT-0500 (Central Daylight Time),710158.6999999881,A,g,I,g,374,3,382.7999999821186,709775.900000006,8076,WL,A,1.0
7,0.4830000400543213,immed,59516.99995994568,Tue Apr 21 2026 17:58:10 GMT-0500 (Central Daylight Time),710258.7999999821,A,go,I,o,85,3,482.89999997615814,709775.900000006,8076,WL,A,1.0
7,0.7160000801086426,immed,59283.99991989136,Tue Apr 21 2026 17:58:10 GMT-0500 (Central Daylight Time),710492.099999994,A,gol,I,l,226,3,716.1999999880791,709775.900000006,8076,WL,A,1.0
7,1.0329999923706055,immed,58967.000007629395,Tue Apr 21 2026 17:58:10 GMT-0500 (Central Daylight Time),710808.400000006,A,gold,I,d,296,3,1032.5,709775.900000006,8076,WL,A,1.0
7,1.4490001201629639,immed,58550.999879837036,Tue Apr 21 2026 17:58:10 GMT-0500 (Central Daylight Time),711225.1999999881,A,goldenter,I,enter,405,3,1449.2999999821186,709775.900000006,8076,WL,A,1.0
7,1.7999999523162842,immed,58200.000047683716,Tue Apr 21 2026 17:58:10 GMT-0500 (Central Daylight Time),711575.1999999881,A,r,I,r,332,3,349.69999998807907,711225.5,8076,WL,A,2.0
7,1.8659999370574951,immed,58134.000062942505,Tue Apr 21 2026 17:58:10 GMT-0500 (Central Daylight Time),711641.7999999821,A,ra,I,a,53,3,416.2999999821186,711225.5,8076,WL,A,2.0
7,2.065999984741211,immed,57934.00001525879,Tue Apr 21 2026 17:58:10 GMT-0500 (Central Daylight Time),711841.599999994,A,rat,I,t,195,3,616.0999999940395,711225.5,8076,WL,A,2.0
7,2.2160000801086426,immed,57783.99991989136,Tue Apr 21 2026 17:58:10 GMT-0500 (Central Daylight Time),711991.599999994,A,ratt,I,t,139,3,766.0999999940395,711225.5,8076,WL,A,2.0
7,2.315999984741211,immed,57684.00001525879,Tue Apr 21 2026 17:58:10 GMT-0500 (Central Daylight Time),712091.5,A,rattl,I,l,93,3,866.0,711225.5,8076,WL,A,2.0
7,2.5329999923706055,immed,57467.000007629395,Tue Apr 21 2026 17:58:10 GMT-0500 (Central Daylight Time),712308.2999999821,A,rattle,I,e,209,3,1082.7999999821186,711225.5,8076,WL,A,2.0
7,2.815999984741211,immed,57184.00001525879,Tue Apr 21 2026 17:58:10 GMT-0500 (Central Daylight Time),712591.5,A,rattleenter,I,enter,272,3,1366.0,711225.5,8076,WL,A,2.0
7,3.131999969482422,immed,56868.00003051758,Tue Apr 21 2026 17:58:10 GMT-0500 (Central Daylight Time),712908.0,A,k,I,k,310,3,316.30000001192093,712591.6999999881,8076,WL,A,3.0
7,3.183000087738037,immed,56816.99991226196,Tue Apr 21 2026 17:58:10 GMT-0500 (Central Daylight Time),712958.1999999881,A,ke,I,e,33,3,366.5,712591.6999999881,8076,WL,A,3.0
7,3.381999969482422,immed,56618.00003051758,Tue Apr 21 2026 17:58:10 GMT-0500 (Central Daylight Time),713158.0,A,key,I,y,184,3,566.3000000119209,712591.6999999881,8076,WL,A,3.0
7,3.7149999141693115,immed,56285.00008583069,Tue Apr 21 2026 17:58:10 GMT-0500 (Central Daylight Time),713491.0,A,keyenter,I,enter,320,3,899.3000000119209,712591.6999999881,8076,WL,A,3.0
7,3.999000072479248,immed,56000.99992752075,Tue Apr 21 2026 17:58:10 GMT-0500 (Central Daylight Time),713774.2999999821,A,c,I,c,275,3,283.0,713491.2999999821,8076,WL,A,4.0
7,4.098999977111816,immed,55901.00002288818,Tue Apr 21 2026 17:58:10 GMT-0500 (Central Daylight Time),713874.400000006,A,ch,I,h,87,3,383.10000002384186,713491.2999999821,8076,WL,A,4.0
7,4.265000104904175,immed,55734.999895095825,Tue Apr 21 2026 17:58:10 GMT-0500 (Central Daylight Time),714040.900000006,A,chi,I,i,155,3,549.6000000238419,713491.2999999821,8076,WL,A,4.0
7,4.447999954223633,immed,55552.00004577637,Tue Apr 21 2026 17:58:10 GMT-0500 (Central Daylight Time),714224.1999999881,A,chim,I,m,172,3,732.9000000059605,713491.2999999821,8076,WL,A,4.0
7,4.664999961853027,immed,55335.00003814697,Tue Apr 21 2026 17:58:10 GMT-0500 (Central Daylight Time),714440.6999999881,A,chimn,I,n,196,3,949.4000000059605,713491.2999999821,8076,WL,A,4.0
7,5.082000017166138,immed,54917.99998283386,Tue Apr 21 2026 17:58:10 GMT-0500 (Central Daylight Time),714857.2999999821,A,chimne,I,e,396,3,1366.0,713491.2999999821,8076,WL,A,4.0
7,5.265000104904175,immed,54734.999895095825,Tue Apr 21 2026 17:58:10 GMT-0500 (Central Daylight Time),715041.0,A,chimney,I,y,163,3,1549.7000000178814,713491.2999999821,8076,WL,A,4.0
7,5.697999954223633,immed,54302.00004577637,Tue Apr 21 2026 17:58:10 GMT-0500 (Central Daylight Time),715474.0,A,chimneyenter,I,enter,420,3,1982.7000000178814,713491.2999999821,8076,WL,A,4.0
7,8.513000011444092,immed,51486.99998855591,Tue Apr 21 2026 17:58:10 GMT-0500 (Central Daylight Time),718289.5,A,l,I,l,2795,3,2815.2000000178814,715474.2999999821,8076,WL,A,5.0
7,8.69700002670288,immed,51302.99997329712,Tue Apr 21 2026 17:58:10 GMT-0500 (Central Daylight Time),718472.900000006,A,lo,I,o,163,3,2998.600000023842,715474.2999999821,8076,WL,A,5.0
7,8.829999923706055,immed,51170.000076293945,Tue Apr 21 2026 17:58:10 GMT-0500 (Central Daylight Time),718606.1999999881,A,log,I,g,124,3,3131.9000000059605,715474.2999999821,8076,WL,A,5.0
7,9.395999908447266,immed,50604.000091552734,Tue Apr 21 2026 17:58:10 GMT-0500 (Central Daylight Time),719172.6999999881,A,logenter,I,enter,552,3,3698.4000000059605,715474.2999999821,8076,WL,A,5.0
7,9.827000141143799,immed,50172.9998588562,Tue Apr 21 2026 17:58:10 GMT-0500 (Central Daylight Time),719603.5,A,b,I,b,280,3,430.40000000596046,719173.099999994,8076,WL,A,6.0
7,9.83299994468689,immed,50167.00005531311,Tue Apr 21 2026 17:58:10 GMT-0500 (Central Daylight Time),719609.2999999821,A,bu,I,u,1,3,436.19999998807907,719173.099999994,8076,WL,A,6.0
7,9.975000143051147,immed,50024.99985694885,Tue Apr 21 2026 17:58:10 GMT-0500 (Central Daylight Time),719751.6999999881,A,but,I,t,98,3,578.5999999940395,719173.099999994,8076,WL,A,6.0
7,10.095999956130981,immed,49904.00004386902,Tue Apr 21 2026 17:58:10 GMT-0500 (Central Daylight Time),719872.099999994,A,butt,I,t,107,3,699.0,719173.099999994,8076,WL,A,6.0
7,10.246000051498413,immed,49753.99994850159,Tue Apr 21 2026 17:58:10 GMT-0500 (Central Daylight Time),720022.400000006,A,butto,I,o,131,3,849.3000000119209,719173.099999994,8076,WL,A,6.0
7,10.395999908447266,immed,49604.000091552734,Tue Apr 21 2026 17:58:10 GMT-0500 (Central Daylight Time),720172.400000006,A,button,I,n,134,3,999.3000000119209,719173.099999994,8076,WL,A,6.0
7,11.046000003814697,immed,48953.9999961853,Tue Apr 21 2026 17:58:10 GMT-0500 (Central Daylight Time),720822.1999999881,A,buttonenter,I,enter,632,3,1649.0999999940395,719173.099999994,8076,WL,A,6.0
7,13.245000123977661,immed,46754.99987602234,Tue Apr 21 2026 17:58:10 GMT-0500 (Central Daylight Time),723021.6999999881,A,m,I,m,2183,3,2199.199999988079,720822.5,8076,WL,A,7.0
7,13.361999988555908,immed,46638.00001144409,Tue Apr 21 2026 17:58:10 GMT-0500 (Central Daylight Time),723138.1999999881,A,me,I,e,95,3,2315.699999988079,720822.5,8076,WL,A,7.0
7,13.411999940872192,immed,46588.00005912781,Tue Apr 21 2026 17:58:10 GMT-0500 (Central Daylight Time),723188.0,A,mea,I,a,43,3,2365.5,720822.5,8076,WL,A,7.0
7,13.562000036239624,immed,46437.999963760376,Tue Apr 21 2026 17:58:10 GMT-0500 (Central Daylight Time),723338.1999999881,A,mead,I,d,138,3,2515.699999988079,720822.5,8076,WL,A,7.0
7,13.694999933242798,immed,46305.0000667572,Tue Apr 21 2026 17:58:10 GMT-0500 (Central Daylight Time),723471.2999999821,A,meado,I,o,115,3,2648.7999999821186,720822.5,8076,WL,A,7.0
7,13.82800006866455,immed,46171.99993133545,Tue Apr 21 2026 17:58:10 GMT-0500 (Central Daylight Time),723604.599999994,A,meadow,I,w,118,3,2782.0999999940395,720822.5,8076,WL,A,7.0
7,14.17799997329712,immed,45822.00002670288,Tue Apr 21 2026 17:58:10 GMT-0500 (Central Daylight Time),723954.1999999881,A,meadowenter,I,enter,345,3,3131.699999988079,720822.5,8076,WL,A,7.0
7,14.42799997329712,immed,45572.00002670288,Tue Apr 21 2026 17:58:10 GMT-0500 (Central Daylight Time),724204.400000006,A,r,I,r,235,3,250.0,723954.400000006,8076,WL,A,8.0
7,14.561000108718872,immed,45438.99989128113,Tue Apr 21 2026 17:58:10 GMT-0500 (Central Daylight Time),724337.400000006,A,ru,I,u,128,3,383.0,723954.400000006,8076,WL,A,8.0
7,14.710999965667725,immed,45289.000034332275,Tue Apr 21 2026 17:58:10 GMT-0500 (Central Daylight Time),724487.5,A,rug,I,g,131,3,533.0999999940395,723954.400000006,8076,WL,A,8.0
