block_c,block_dur,condition,countdown,datetime,endtime,list,multichar_response,project,response,response_time,session_number,start_end,starttime,subject_id,task,task_vers,trial
,,,,Wed May 07 2025 11:22:45 GMT-0400 (Eastern Daylight Time),,,,I,space,1439,1,,,9017,WL,A,
prac,,0,,Wed May 07 2025 11:22:45 GMT-0400 (Eastern Daylight Time),,NA,b,I,b,4461,1,,,9017,WL,A,1.0
prac,,0,,Wed May 07 2025 11:22:45 GMT-0400 (Eastern Daylight Time),,NA,bo,I,o,1164,1,,,9017,WL,A,1.0
prac,,0,,Wed May 07 2025 11:22:45 GMT-0400 (Eastern Daylight Time),,NA,boo,I,o,140,1,,,9017,WL,A,1.0
prac,,0,,Wed May 07 2025 11:22:45 GMT-0400 (Eastern Daylight Time),,NA,boos,I,s,96,1,,,9017,WL,A,1.0
prac,,0,,Wed May 07 2025 11:22:45 GMT-0400 (Eastern Daylight Time),,NA,boost,I,t,193,1,,,9017,WL,A,1.0
prac,,0,,Wed May 07 2025 11:22:45 GMT-0400 (Eastern Daylight Time),,NA,boostenter,I,enter,1329,1,,,9017,WL,A,1.0
1,3.1999998092651367,learn,56800.00019073486,Wed May 07 2025 11:22:45 GMT-0400 (Eastern Daylight Time),154974.60000038147,A,t,I,t,3186,1,3199.199999809265,151775.4000005722,9017,WL,A,1.0
1,3.482999801635742,learn,56517.00019836426,Wed May 07 2025 11:22:45 GMT-0400 (Eastern Daylight Time),155258.10000038147,A,tr,I,r,257,1,3482.699999809265,151775.4000005722,9017,WL,A,1.0
1,3.565999984741211,learn,56434.00001525879,Wed May 07 2025 11:22:45 GMT-0400 (Eastern Daylight Time),155340.4000005722,A,tra,I,a,70,1,3565.0,151775.4000005722,9017,WL,A,1.0
1,3.799999952316284,learn,56200.000047683716,Wed May 07 2025 11:22:45 GMT-0400 (Eastern Daylight Time),155574.4000005722,A,trai,I,i,214,1,3799.0,151775.4000005722,9017,WL,A,1.0
1,3.932999849319458,learn,56067.00015068054,Wed May 07 2025 11:22:45 GMT-0400 (Eastern Daylight Time),155707.70000076294,A,train,I,n,114,1,3932.300000190735,151775.4000005722,9017,WL,A,1.0
1,6.581999778747559,learn,53418.00022125244,Wed May 07 2025 11:22:45 GMT-0400 (Eastern Daylight Time),158357.0,A,trainenter,I,enter,2637,1,6581.599999427795,151775.4000005722,9017,WL,A,1.0
1,9.115999937057495,learn,50884.000062942505,Wed May 07 2025 11:22:45 GMT-0400 (Eastern Daylight Time),160891.20000076294,A,f,I,f,2518,1,2533.4000005722046,158357.80000019073,9017,WL,A,2.0
1,10.965999841690063,learn,49034.00015830994,Wed May 07 2025 11:22:45 GMT-0400 (Eastern Daylight Time),162740.9000005722,A,fl,I,l,1822,1,4383.10000038147,158357.80000019073,9017,WL,A,2.0
1,11.199999809265137,learn,48800.00019073486,Wed May 07 2025 11:22:45 GMT-0400 (Eastern Daylight Time),162974.4000005722,A,flo,I,o,220,1,4616.60000038147,158357.80000019073,9017,WL,A,2.0
1,12.08299994468689,learn,47917.00005531311,Wed May 07 2025 11:22:45 GMT-0400 (Eastern Daylight Time),163857.70000076294,A,flow,I,w,859,1,5499.900000572205,158357.80000019073,9017,WL,A,2.0
1,12.25,learn,47750.0,Wed May 07 2025 11:22:45 GMT-0400 (Eastern Daylight Time),164024.30000019073,A,flowe,I,e,149,1,5666.5,158357.80000019073,9017,WL,A,2.0
1,12.365999937057495,learn,47634.000062942505,Wed May 07 2025 11:22:45 GMT-0400 (Eastern Daylight Time),164140.70000076294,A,flower,I,r,90,1,5782.900000572205,158357.80000019073,9017,WL,A,2.0
1,13.098999977111816,learn,46901.00002288818,Wed May 07 2025 11:22:45 GMT-0400 (Eastern Daylight Time),164873.9000005722,A,flowerenter,I,enter,714,1,6516.10000038147,158357.80000019073,9017,WL,A,2.0
1,14.765999794006348,learn,45234.00020599365,Wed May 07 2025 11:22:45 GMT-0400 (Eastern Daylight Time),166541.10000038147,A,m,I,m,1650,1,1666.6000003814697,164874.5,9017,WL,A,3.0
1,14.882999897003174,learn,45117.000102996826,Wed May 07 2025 11:22:45 GMT-0400 (Eastern Daylight Time),166657.9000005722,A,me,I,e,100,1,1783.4000005722046,164874.5,9017,WL,A,3.0
1,15.149999856948853,learn,44850.00014305115,Wed May 07 2025 11:22:45 GMT-0400 (Eastern Daylight Time),166924.5,A,med,I,d,230,1,2050.0,164874.5,9017,WL,A,3.0
1,15.316999912261963,learn,44683.00008773804,Wed May 07 2025 11:22:45 GMT-0400 (Eastern Daylight Time),167091.20000076294,A,meda,I,a,148,1,2216.7000007629395,164874.5,9017,WL,A,3.0
1,15.532999992370605,learn,44467.000007629395,Wed May 07 2025 11:22:45 GMT-0400 (Eastern Daylight Time),167307.70000076294,A,medao,I,o,189,1,2433.2000007629395,164874.5,9017,WL,A,3.0
1,15.699999809265137,learn,44300.00019073486,Wed May 07 2025 11:22:45 GMT-0400 (Eastern Daylight Time),167474.30000019073,A,medaow,I,w,143,1,2599.800000190735,164874.5,9017,WL,A,3.0
1,16.56599998474121,learn,43434.00001525879,Wed May 07 2025 11:22:45 GMT-0400 (Eastern Daylight Time),168340.80000019073,A,medao,I,backspace,856,1,3466.300000190735,164874.5,9017,WL,A,3.0
1,16.6489999294281,learn,43351.0000705719,Wed May 07 2025 11:22:45 GMT-0400 (Eastern Daylight Time),168424.10000038147,A,meda,I,backspace,61,1,3549.6000003814697,164874.5,9017,WL,A,3.0
1,16.84999990463257,learn,43150.00009536743,Wed May 07 2025 11:22:45 GMT-0400 (Eastern Daylight Time),168624.30000019073,A,med,I,backspace,176,1,3749.800000190735,164874.5,9017,WL,A,3.0
1,17.032999992370605,learn,42967.000007629395,Wed May 07 2025 11:22:45 GMT-0400 (Eastern Daylight Time),168807.70000076294,A,me,I,backspace,161,1,3933.2000007629395,164874.5,9017,WL,A,3.0
1,17.16599988937378,learn,42834.00011062622,Wed May 07 2025 11:22:45 GMT-0400 (Eastern Daylight Time),168941.20000076294,A,mea,I,a,113,1,4066.7000007629395,164874.5,9017,WL,A,3.0
1,17.365999937057495,learn,42634.000062942505,Wed May 07 2025 11:22:45 GMT-0400 (Eastern Daylight Time),169141.0,A,meaw,I,w,168,1,4266.5,164874.5,9017,WL,A,3.0
1,17.865000009536743,learn,42134.99999046326,Wed May 07 2025 11:22:45 GMT-0400 (Eastern Daylight Time),169640.10000038147,A,mea,I,backspace,474,1,4765.60000038147,164874.5,9017,WL,A,3.0
1,17.8989999294281,learn,42101.0000705719,Wed May 07 2025 11:22:45 GMT-0400 (Eastern Daylight Time),169673.70000076294,A,mead,I,d,12,1,4799.200000762939,164874.5,9017,WL,A,3.0
1,18.115999937057495,learn,41884.000062942505,Wed May 07 2025 11:22:45 GMT-0400 (Eastern Daylight Time),169891.10000038147,A,meado,I,o,202,1,5016.60000038147,164874.5,9017,WL,A,3.0
1,18.33299994468689,learn,41667.00005531311,Wed May 07 2025 11:22:45 GMT-0400 (Eastern Daylight Time),170107.5,A,meadow,I,w,181,1,5233.0,164874.5,9017,WL,A,3.0
1,18.631999969482422,learn,41368.00003051758,Wed May 07 2025 11:22:45 GMT-0400 (Eastern Daylight Time),170407.20000076294,A,meadowenter,I,enter,278,1,5532.700000762939,164874.5,9017,WL,A,3.0
1,19.199999809265137,learn,40800.00019073486,Wed May 07 2025 11:22:45 GMT-0400 (Eastern Daylight Time),170974.30000019073,A,r,I,r,557,1,566.6999998092651,170407.60000038147,9017,WL,A,4.0
1,19.682999849319458,learn,40317.00015068054,Wed May 07 2025 11:22:45 GMT-0400 (Eastern Daylight Time),171457.80000019073,A,ru,I,u,460,1,1050.1999998092651,170407.60000038147,9017,WL,A,4.0
1,19.882999897003174,learn,40117.000102996826,Wed May 07 2025 11:22:45 GMT-0400 (Eastern Daylight Time),171657.60000038147,A,rug,I,g,183,1,1250.0,170407.60000038147,9017,WL,A,4.0
1,21.948999881744385,learn,38051.000118255615,Wed May 07 2025 11:22:45 GMT-0400 (Eastern Daylight Time),173723.80000019073,A,rugenter,I,enter,2040,1,3316.199999809265,170407.60000038147,9017,WL,A,4.0
1,22.965999841690063,learn,37034.00015830994,Wed May 07 2025 11:22:45 GMT-0400 (Eastern Daylight Time),174740.80000019073,A,g,I,g,990,1,1016.5999994277954,173724.20000076294,9017,WL,A,5.0
1,23.25,learn,36750.0,Wed May 07 2025 11:22:45 GMT-0400 (Eastern Daylight Time),175024.30000019073,A,go,I,o,266,1,1300.0999994277954,173724.20000076294,9017,WL,A,5.0
1,23.448999881744385,learn,36551.000118255615,Wed May 07 2025 11:22:45 GMT-0400 (Eastern Daylight Time),175224.30000019073,A,gol,I,l,178,1,1500.0999994277954,173724.20000076294,9017,WL,A,5.0
1,23.56599998474121,learn,36434.00001525879,Wed May 07 2025 11:22:45 GMT-0400 (Eastern Daylight Time),175340.60000038147,A,gold,I,d,89,1,1616.3999996185303,173724.20000076294,9017,WL,A,5.0
1,25.115999937057495,learn,34884.000062942505,Wed May 07 2025 11:22:45 GMT-0400 (Eastern Daylight Time),176890.5,A,goldenter,I,enter,1534,1,3166.2999992370605,173724.20000076294,9017,WL,A,5.0
1,25.81599998474121,learn,34184.00001525879,Wed May 07 2025 11:22:45 GMT-0400 (Eastern Daylight Time),177590.80000019073,A,b,I,b,682,1,699.8000001907349,176891.0,9017,WL,A,6.0
1,25.8989999294281,learn,34101.0000705719,Wed May 07 2025 11:22:45 GMT-0400 (Eastern Daylight Time),177674.0,A,bu,I,u,66,1,783.0,176891.0,9017,WL,A,6.0
1,26.115999937057495,learn,33884.000062942505,Wed May 07 2025 11:22:45 GMT-0400 (Eastern Daylight Time),177891.0,A,but,I,t,200,1,1000.0,176891.0,9017,WL,A,6.0
1,26.265999794006348,learn,33734.00020599365,Wed May 07 2025 11:22:45 GMT-0400 (Eastern Daylight Time),178040.9000005722,A,butt,I,t,135,1,1149.9000005722046,176891.0,9017,WL,A,6.0
1,26.383999824523926,learn,33616.000175476074,Wed May 07 2025 11:22:45 GMT-0400 (Eastern Daylight Time),178158.60000038147,A,butto,I,o,96,1,1267.6000003814697,176891.0,9017,WL,A,6.0
1,26.482999801635742,learn,33517.00019836426,Wed May 07 2025 11:22:45 GMT-0400 (Eastern Daylight Time),178257.5,A,button,I,n,74,1,1366.5,176891.0,9017,WL,A,6.0
1,27.16699981689453,learn,32833.00018310547,Wed May 07 2025 11:22:45 GMT-0400 (Eastern Daylight Time),178941.60000038147,A,buttonenter,I,enter,673,1,2050.6000003814697,176891.0,9017,WL,A,6.0
1,30.66599988937378,learn,29334.00011062622,Wed May 07 2025 11:22:45 GMT-0400 (Eastern Daylight Time),182441.0,A,f,I,f,3487,1,3499.0,178942.0,9017,WL,A,7.0
1,30.84999990463257,learn,29150.00009536743,Wed May 07 2025 11:22:45 GMT-0400 (Eastern Daylight Time),182624.30000019073,A,fi,I,i,160,1,3682.300000190735,178942.0,9017,WL,A,7.0
1,30.983999967575073,learn,29016.000032424927,Wed May 07 2025 11:22:45 GMT-0400 (Eastern Daylight Time),182758.80000019073,A,fir,I,r,122,1,3816.800000190735,178942.0,9017,WL,A,7.0
1,31.115999937057495,learn,28884.000062942505,Wed May 07 2025 11:22:45 GMT-0400 (Eastern Daylight Time),182891.10000038147,A,fire,I,e,106,1,3949.1000003814697,178942.0,9017,WL,A,7.0
1,31.798999786376953,learn,28201.000213623047,Wed May 07 2025 11:22:45 GMT-0400 (Eastern Daylight Time),183573.9000005722,A,fireenter,I,enter,653,1,4631.900000572205,178942.0,9017,WL,A,7.0
1,33.43299984931946,learn,26567.000150680542,Wed May 07 2025 11:22:45 GMT-0400 (Eastern Daylight Time),185207.70000076294,A,l,I,l,1614,1,1633.5,183574.20000076294,9017,WL,A,8.0
1,33.59999990463257,learn,26400.00009536743,Wed May 07 2025 11:22:45 GMT-0400 (Eastern Daylight Time),185374.4000005722,A,lo,I,o,146,1,1800.1999998092651,183574.20000076294,9017,WL,A,8.0
1,33.71599984169006,learn,26284.000158309937,Wed May 07 2025 11:22:45 GMT-0400 (Eastern Daylight Time),185491.10000038147,A,log,I,g,90,1,1916.8999996185303,183574.20000076294,9017,WL,A,8.0
1,33.96599984169006,learn,26034.000158309937,Wed May 07 2025 11:22:45 GMT-0400 (Eastern Daylight Time),185740.5,A,logenter,I,enter,225,1,2166.2999992370605,183574.20000076294,9017,WL,A,8.0
1,41.58299994468689,learn,18417.00005531311,Wed May 07 2025 11:22:45 GMT-0400 (Eastern Daylight Time),193357.80000019073,A,r,I,r,7600,1,7617.099999427795,185740.70000076294,9017,WL,A,9.0
1,41.71599984169006,learn,18284.000158309937,Wed May 07 2025 11:22:45 GMT-0400 (Eastern Daylight Time),193490.80000019073,A,ru,I,u,107,1,7750.099999427795,185740.70000076294,9017,WL,A,9.0
1,41.865999937057495,learn,18134.000062942505,Wed May 07 2025 11:22:45 GMT-0400 (Eastern Daylight Time),193641.10000038147,A,rug,I,g,127,1,7900.39999961853,185740.70000076294,9017,WL,A,9.0
1,42.04899978637695,learn,17951.000213623047,Wed May 07 2025 11:22:45 GMT-0400 (Eastern Daylight Time),193823.70000076294,A,rugenter,I,enter,153,1,8083.0,185740.70000076294,9017,WL,A,9.0
1,48.48299980163574,learn,11517.000198364258,Wed May 07 2025 11:22:45 GMT-0400 (Eastern Daylight Time),200257.60000038147,A,h,I,h,6412,1,6433.5,193824.10000038147,9017,WL,A,10.0
1,48.615999937057495,learn,11384.000062942505,Wed May 07 2025 11:22:45 GMT-0400 (Eastern Daylight Time),200391.10000038147,A,ha,I,a,113,1,6567.0,193824.10000038147,9017,WL,A,10.0
1,48.76599979400635,learn,11234.000205993652,Wed May 07 2025 11:22:45 GMT-0400 (Eastern Daylight Time),200540.80000019073,A,har,I,r,132,1,6716.699999809265,193824.10000038147,9017,WL,A,10.0
1,48.91599988937378,learn,11084.00011062622,Wed May 07 2025 11:22:45 GMT-0400 (Eastern Daylight Time),200691.0,A,harp,I,p,126,1,6866.89999961853,193824.10000038147,9017,WL,A,10.0
1,49.16699981689453,learn,10833.000183105469,Wed May 07 2025 11:22:45 GMT-0400 (Eastern Daylight Time),200941.5,A,harpenter,I,enter,238,1,7117.39999961853,193824.10000038147,9017,WL,A,10.0
1,51.68299984931946,learn,8317.000150680542,Wed May 07 2025 11:22:45 GMT-0400 (Eastern Daylight Time),203457.60000038147,A,c,I,c,2495,1,2515.800000190735,200941.80000019073,9017,WL,A,11.0
1,51.76599979400635,learn,8234.000205993652,Wed May 07 2025 11:22:45 GMT-0400 (Eastern Daylight Time),203540.30000019073,A,ch,I,h,70,1,2598.5,200941.80000019073,9017,WL,A,11.0
1,52.18299984931946,learn,7817.000150680542,Wed May 07 2025 11:22:45 GMT-0400 (Eastern Daylight Time),203957.70000076294,A,chi,I,i,399,1,3015.9000005722046,200941.80000019073,9017,WL,A,11.0
1,52.382999897003174,learn,7617.000102996826,Wed May 07 2025 11:22:45 GMT-0400 (Eastern Daylight Time),204157.4000005722,A,chim,I,m,187,1,3215.6000003814697,200941.80000019073,9017,WL,A,11.0
1,52.615999937057495,learn,7384.000062942505,Wed May 07 2025 11:22:45 GMT-0400 (Eastern Daylight Time),204391.10000038147,A,chimn,I,n,220,1,3449.300000190735,200941.80000019073,9017,WL,A,11.0
1,52.76599979400635,learn,7234.000205993652,Wed May 07 2025 11:22:45 GMT-0400 (Eastern Daylight Time),204540.9000005722,A,chimne,I,e,121,1,3599.1000003814697,200941.80000019073,9017,WL,A,11.0
1,53.51599979400635,learn,6484.000205993652,Wed May 07 2025 11:22:45 GMT-0400 (Eastern Daylight Time),205291.0,A,chimney,I,y,724,1,4349.199999809265,200941.80000019073,9017,WL,A,11.0
1,54.26599979400635,learn,5734.000205993652,Wed May 07 2025 11:22:45 GMT-0400 (Eastern Daylight Time),206040.5,A,chimneyenter,I,enter,726,1,5098.699999809265,200941.80000019073,9017,WL,A,11.0
1,57.299999952316284,learn,2700.000047683716,Wed May 07 2025 11:22:45 GMT-0400 (Eastern Daylight Time),209074.30000019073,A,f,I,f,3012,1,3033.5,206040.80000019073,9017,WL,A,12.0
1,57.36500000953674,learn,2634.999990463257,Wed May 07 2025 11:22:45 GMT-0400 (Eastern Daylight Time),209140.20000076294,A,fl,I,l,54,1,3099.4000005722046,206040.80000019073,9017,WL,A,12.0
1,57.54899978637695,learn,2451.000213623047,Wed May 07 2025 11:22:45 GMT-0400 (Eastern Daylight Time),209324.30000019073,A,flo,I,o,169,1,3283.5,206040.80000019073,9017,WL,A,12.0
1,57.6489999294281,learn,2351.0000705718994,Wed May 07 2025 11:22:45 GMT-0400 (Eastern Daylight Time),209424.20000076294,A,flow,I,w,78,1,3383.4000005722046,206040.80000019073,9017,WL,A,12.0
1,57.83199977874756,learn,2168.0002212524414,Wed May 07 2025 11:22:45 GMT-0400 (Eastern Daylight Time),209607.10000038147,A,flowe,I,e,161,1,3566.300000190735,206040.80000019073,9017,WL,A,12.0
1,57.93299984931946,learn,2067.000150680542,Wed May 07 2025 11:22:45 GMT-0400 (Eastern Daylight Time),209707.60000038147,A,flower,I,r,74,1,3666.800000190735,206040.80000019073,9017,WL,A,12.0
1,58.098999977111816,learn,1901.0000228881836,Wed May 07 2025 11:22:45 GMT-0400 (Eastern Daylight Time),209873.80000019073,A,flowerenter,I,enter,148,1,3833.0,206040.80000019073,9017,WL,A,12.0
1,60.01599979400635,learn,-15.999794006347656,Wed May 07 2025 11:22:45 GMT-0400 (Eastern Daylight Time),211790.60000038147,A,None,I,None,1909,1,1916.3999996185303,209874.20000076294,9017,WL,A,13.0
2,3.749000072479248,learn,56250.99992752075,Wed May 07 2025 11:22:45 GMT-0400 (Eastern Daylight Time),289506.70000076294,A,k,I,k,3733,1,3748.800000190735,285757.9000005722,9017,WL,A,1.0
2,3.871000051498413,learn,56128.99994850159,Wed May 07 2025 11:22:45 GMT-0400 (Eastern Daylight Time),289628.20000076294,A,ke,I,e,114,1,3870.300000190735,285757.9000005722,9017,WL,A,1.0
2,4.049000024795532,learn,55950.99997520447,Wed May 07 2025 11:22:45 GMT-0400 (Eastern Daylight Time),289807.10000038147,A,key,I,y,168,1,4049.199999809265,285757.9000005722,9017,WL,A,1.0
2,4.916000127792358,learn,55083.99987220764,Wed May 07 2025 11:22:45 GMT-0400 (Eastern Daylight Time),290673.70000076294,A,keyenter,I,enter,852,1,4915.800000190735,285757.9000005722,9017,WL,A,1.0
2,6.666000127792358,learn,53333.99987220764,Wed May 07 2025 11:22:45 GMT-0400 (Eastern Daylight Time),292424.10000038147,A,t,I,t,1739,1,1750.0,290674.10000038147,9017,WL,A,2.0
2,6.900000095367432,learn,53099.99990463257,Wed May 07 2025 11:22:45 GMT-0400 (Eastern Daylight Time),292657.30000019073,A,tr,I,r,210,1,1983.1999998092651,290674.10000038147,9017,WL,A,2.0
2,6.999000072479248,learn,53000.99992752075,Wed May 07 2025 11:22:45 GMT-0400 (Eastern Daylight Time),292756.9000005722,A,tra,I,a,90,1,2082.800000190735,290674.10000038147,9017,WL,A,2.0
2,7.166000127792358,learn,52833.99987220764,Wed May 07 2025 11:22:45 GMT-0400 (Eastern Daylight Time),292924.20000076294,A,trai,I,i,142,1,2250.1000003814697,290674.10000038147,9017,WL,A,2.0
2,7.266000032424927,learn,52733.99996757507,Wed May 07 2025 11:22:45 GMT-0400 (Eastern Daylight Time),293024.20000076294,A,train,I,n,86,1,2350.1000003814697,290674.10000038147,9017,WL,A,2.0
2,7.616000175476074,learn,52383.999824523926,Wed May 07 2025 11:22:45 GMT-0400 (Eastern Daylight Time),293373.60000038147,A,trainenter,I,enter,330,1,2699.5,290674.10000038147,9017,WL,A,2.0
2,9.199000120162964,learn,50800.999879837036,Wed May 07 2025 11:22:45 GMT-0400 (Eastern Daylight Time),294957.0,A,b,I,b,1575,1,1582.8999996185303,293374.10000038147,9017,WL,A,3.0
2,9.300000190734863,learn,50699.99980926514,Wed May 07 2025 11:22:45 GMT-0400 (Eastern Daylight Time),295057.5,A,bo,I,o,85,1,1683.3999996185303,293374.10000038147,9017,WL,A,3.0
2,9.466000080108643,learn,50533.99991989136,Wed May 07 2025 11:22:45 GMT-0400 (Eastern Daylight Time),295224.10000038147,A,boo,I,o,152,1,1850.0,293374.10000038147,9017,WL,A,3.0
2,9.700000047683716,learn,50299.999952316284,Wed May 07 2025 11:22:45 GMT-0400 (Eastern Daylight Time),295457.5,A,book,I,k,209,1,2083.3999996185303,293374.10000038147,9017,WL,A,3.0
2,9.966000080108643,learn,50033.99991989136,Wed May 07 2025 11:22:45 GMT-0400 (Eastern Daylight Time),295723.70000076294,A,bookenter,I,enter,255,1,2349.6000003814697,293374.10000038147,9017,WL,A,3.0
2,10.633000135421753,learn,49366.99986457825,Wed May 07 2025 11:22:45 GMT-0400 (Eastern Daylight Time),296390.70000076294,A,r,I,r,658,1,666.7000007629395,295724.0,9017,WL,A,4.0
2,10.782999992370605,learn,49217.000007629395,Wed May 07 2025 11:22:45 GMT-0400 (Eastern Daylight Time),296540.9000005722,A,ru,I,u,131,1,816.9000005722046,295724.0,9017,WL,A,4.0
2,10.983000040054321,learn,49016.99995994568,Wed May 07 2025 11:22:45 GMT-0400 (Eastern Daylight Time),296740.60000038147,A,rug,I,g,187,1,1016.6000003814697,295724.0,9017,WL,A,4.0
2,11.299000024795532,learn,48700.99997520447,Wed May 07 2025 11:22:45 GMT-0400 (Eastern Daylight Time),297056.9000005722,A,rugenter,I,enter,284,1,1332.9000005722046,295724.0,9017,WL,A,4.0
2,14.450000047683716,learn,45549.999952316284,Wed May 07 2025 11:22:45 GMT-0400 (Eastern Daylight Time),300207.5,A,f,I,f,3140,1,3150.199999809265,297057.30000019073,9017,WL,A,5.0
2,14.549000024795532,learn,45450.99997520447,Wed May 07 2025 11:22:45 GMT-0400 (Eastern Daylight Time),300307.20000076294,A,fl,I,l,74,1,3249.9000005722046,297057.30000019073,9017,WL,A,5.0
2,14.700000047683716,learn,45299.999952316284,Wed May 07 2025 11:22:45 GMT-0400 (Eastern Daylight Time),300457.4000005722,A,flo,I,o,127,1,3400.1000003814697,297057.30000019073,9017,WL,A,5.0
2,15.300000190734863,learn,44699.99980926514,Wed May 07 2025 11:22:45 GMT-0400 (Eastern Daylight Time),301057.5,A,flow,I,w,567,1,4000.199999809265,297057.30000019073,9017,WL,A,5.0
2,15.450000047683716,learn,44549.999952316284,Wed May 07 2025 11:22:45 GMT-0400 (Eastern Daylight Time),301207.4000005722,A,flowe,I,e,135,1,4150.10000038147,297057.30000019073,9017,WL,A,5.0
2,15.532999992370605,learn,44467.000007629395,Wed May 07 2025 11:22:45 GMT-0400 (Eastern Daylight Time),301290.4000005722,A,flower,I,r,57,1,4233.10000038147,297057.30000019073,9017,WL,A,5.0
2,15.766000032424927,learn,44233.99996757507,Wed May 07 2025 11:22:45 GMT-0400 (Eastern Daylight Time),301523.60000038147,A,flowerenter,I,enter,213,1,4466.300000190735,297057.30000019073,9017,WL,A,5.0
2,16.799000024795532,learn,43200.99997520447,Wed May 07 2025 11:22:45 GMT-0400 (Eastern Daylight Time),302557.0,A,c,I,c,1025,1,1033.0,301524.0,9017,WL,A,6.0
2,16.90000009536743,learn,43099.99990463257,Wed May 07 2025 11:22:45 GMT-0400 (Eastern Daylight Time),302657.4000005722,A,ch,I,h,77,1,1133.4000005722046,301524.0,9017,WL,A,6.0
2,16.966000080108643,learn,43033.99991989136,Wed May 07 2025 11:22:45 GMT-0400 (Eastern Daylight Time),302723.60000038147,A,chi,I,i,38,1,1199.6000003814697,301524.0,9017,WL,A,6.0
2,17.16600012779236,learn,42833.99987220764,Wed May 07 2025 11:22:45 GMT-0400 (Eastern Daylight Time),302924.10000038147,A,chim,I,m,176,1,1400.1000003814697,301524.0,9017,WL,A,6.0
2,17.367000102996826,learn,42632.999897003174,Wed May 07 2025 11:22:45 GMT-0400 (Eastern Daylight Time),303124.5,A,chime,I,e,190,1,1600.5,301524.0,9017,WL,A,6.0
2,17.550000190734863,learn,42449.99980926514,Wed May 07 2025 11:22:45 GMT-0400 (Eastern Daylight Time),303307.5,A,chimen,I,n,150,1,1783.5,301524.0,9017,WL,A,6.0
2,17.81599998474121,learn,42184.00001525879,Wed May 07 2025 11:22:45 GMT-0400 (Eastern Daylight Time),303574.10000038147,A,chimeny,I,y,254,1,2050.1000003814697,301524.0,9017,WL,A,6.0
2,18.633000135421753,learn,41366.99986457825,Wed May 07 2025 11:22:45 GMT-0400 (Eastern Daylight Time),304390.80000019073,A,chimen,I,backspace,796,1,2866.800000190735,301524.0,9017,WL,A,6.0
2,18.782999992370605,learn,41217.000007629395,Wed May 07 2025 11:22:45 GMT-0400 (Eastern Daylight Time),304540.80000019073,A,chime,I,backspace,140,1,3016.800000190735,301524.0,9017,WL,A,6.0
2,18.950000047683716,learn,41049.999952316284,Wed May 07 2025 11:22:45 GMT-0400 (Eastern Daylight Time),304707.5,A,chim,I,backspace,139,1,3183.5,301524.0,9017,WL,A,6.0
2,19.433000087738037,learn,40566.99991226196,Wed May 07 2025 11:22:45 GMT-0400 (Eastern Daylight Time),305190.70000076294,A,chimn,I,n,471,1,3666.7000007629395,301524.0,9017,WL,A,6.0
2,19.58300018310547,learn,40416.99981689453,Wed May 07 2025 11:22:45 GMT-0400 (Eastern Daylight Time),305340.70000076294,A,chimne,I,e,124,1,3816.7000007629395,301524.0,9017,WL,A,6.0
2,20.282999992370605,learn,39717.000007629395,Wed May 07 2025 11:22:45 GMT-0400 (Eastern Daylight Time),306040.70000076294,A,chimney,I,y,685,1,4516.700000762939,301524.0,9017,WL,A,6.0
2,20.64900016784668,learn,39350.99983215332,Wed May 07 2025 11:22:45 GMT-0400 (Eastern Daylight Time),306407.0,A,chimneyenter,I,enter,344,1,4883.0,301524.0,9017,WL,A,6.0
2,23.716000080108643,learn,36283.99991989136,Wed May 07 2025 11:22:45 GMT-0400 (Eastern Daylight Time),309474.10000038147,A,g,I,g,3046,1,3066.699999809265,306407.4000005722,9017,WL,A,7.0
2,23.799000024795532,learn,36200.99997520447,Wed May 07 2025 11:22:45 GMT-0400 (Eastern Daylight Time),309557.0,A,go,I,o,63,1,3149.5999994277954,306407.4000005722,9017,WL,A,7.0
2,24.0,learn,36000.0,Wed May 07 2025 11:22:45 GMT-0400 (Eastern Daylight Time),309757.4000005722,A,gol,I,l,182,1,3350.0,306407.4000005722,9017,WL,A,7.0
2,24.383000135421753,learn,35616.99986457825,Wed May 07 2025 11:22:45 GMT-0400 (Eastern Daylight Time),310140.5,A,gold,I,d,362,1,3733.0999994277954,306407.4000005722,9017,WL,A,7.0
2,24.633000135421753,learn,35366.99986457825,Wed May 07 2025 11:22:45 GMT-0400 (Eastern Daylight Time),310390.4000005722,A,goldenter,I,enter,238,1,3983.0,306407.4000005722,9017,WL,A,7.0
2,30.532999992370605,learn,29467.000007629395,Wed May 07 2025 11:22:45 GMT-0400 (Eastern Daylight Time),316290.9000005722,A,h,I,h,5878,1,5900.10000038147,310390.80000019073,9017,WL,A,8.0
2,30.65000009536743,learn,29349.99990463257,Wed May 07 2025 11:22:45 GMT-0400 (Eastern Daylight Time),316407.5,A,ha,I,a,94,1,6016.699999809265,310390.80000019073,9017,WL,A,8.0
2,30.933000087738037,learn,29066.999912261963,Wed May 07 2025 11:22:45 GMT-0400 (Eastern Daylight Time),316690.9000005722,A,hap,I,p,258,1,6300.10000038147,310390.80000019073,9017,WL,A,8.0
2,31.318000078201294,learn,28681.999921798706,Wed May 07 2025 11:22:45 GMT-0400 (Eastern Daylight Time),317075.60000038147,A,ha,I,backspace,359,1,6684.800000190735,310390.80000019073,9017,WL,A,8.0
2,31.41600012779236,learn,28583.99987220764,Wed May 07 2025 11:22:45 GMT-0400 (Eastern Daylight Time),317173.80000019073,A,har,I,r,87,1,6783.0,310390.80000019073,9017,WL,A,8.0
2,31.58300018310547,learn,28416.99981689453,Wed May 07 2025 11:22:45 GMT-0400 (Eastern Daylight Time),317340.80000019073,A,harp,I,p,148,1,6950.0,310390.80000019073,9017,WL,A,8.0
2,31.848999977111816,learn,28151.000022888184,Wed May 07 2025 11:22:45 GMT-0400 (Eastern Daylight Time),317607.0,A,harpenter,I,enter,251,1,7216.199999809265,310390.80000019073,9017,WL,A,8.0
2,36.83300018310547,learn,23166.99981689453,Wed May 07 2025 11:22:45 GMT-0400 (Eastern Daylight Time),322590.80000019073,A,r,I,r,4974,1,4983.39999961853,317607.4000005722,9017,WL,A,9.0
2,36.93300008773804,learn,23066.999912261963,Wed May 07 2025 11:22:45 GMT-0400 (Eastern Daylight Time),322690.70000076294,A,ru,I,u,74,1,5083.300000190735,317607.4000005722,9017,WL,A,9.0
2,37.06599998474121,learn,22934.00001525879,Wed May 07 2025 11:22:45 GMT-0400 (Eastern Daylight Time),322824.10000038147,A,rug,I,g,120,1,5216.699999809265,317607.4000005722,9017,WL,A,9.0
2,37.26600003242493,learn,22733.999967575073,Wed May 07 2025 11:22:45 GMT-0400 (Eastern Daylight Time),323023.60000038147,A,rugenter,I,enter,184,1,5416.199999809265,317607.4000005722,9017,WL,A,9.0
2,38.58300018310547,learn,21416.99981689453,Wed May 07 2025 11:22:45 GMT-0400 (Eastern Daylight Time),324340.70000076294,A,g,I,g,1293,1,1316.8000001907349,323023.9000005722,9017,WL,A,10.0
2,39.0,learn,21000.0,Wed May 07 2025 11:22:45 GMT-0400 (Eastern Daylight Time),324757.60000038147,A,go,I,o,398,1,1733.6999998092651,323023.9000005722,9017,WL,A,10.0
2,39.282999992370605,learn,20717.000007629395,Wed May 07 2025 11:22:45 GMT-0400 (Eastern Daylight Time),325040.70000076294,A,g,I,backspace,267,1,2016.8000001907349,323023.9000005722,9017,WL,A,10.0
2,39.450000047683716,learn,20549.999952316284,Wed May 07 2025 11:22:45 GMT-0400 (Eastern Daylight Time),325207.30000019073,A,,I,backspace,146,1,2183.3999996185303,323023.9000005722,9017,WL,A,10.0
2,39.700000047683716,learn,20299.999952316284,Wed May 07 2025 11:22:45 GMT-0400 (Eastern Daylight Time),325457.4000005722,A,b,I,b,227,1,2433.5,323023.9000005722,9017,WL,A,10.0
2,39.81599998474121,learn,20184.00001525879,Wed May 07 2025 11:22:45 GMT-0400 (Eastern Daylight Time),325574.10000038147,A,bo,I,o,96,1,2550.199999809265,323023.9000005722,9017,WL,A,10.0
2,39.96600008010864,learn,20033.999919891357,Wed May 07 2025 11:22:45 GMT-0400 (Eastern Daylight Time),325724.0,A,boo,I,o,124,1,2700.0999994277954,323023.9000005722,9017,WL,A,10.0
2,40.10000014305115,learn,19899.999856948853,Wed May 07 2025 11:22:45 GMT-0400 (Eastern Daylight Time),325857.30000019073,A,booo,I,o,102,1,2833.3999996185303,323023.9000005722,9017,WL,A,10.0
2,40.55000019073486,learn,19449.999809265137,Wed May 07 2025 11:22:45 GMT-0400 (Eastern Daylight Time),326307.5,A,boo,I,backspace,433,1,3283.5999994277954,323023.9000005722,9017,WL,A,10.0
2,40.76600003242493,learn,19233.999967575073,Wed May 07 2025 11:22:45 GMT-0400 (Eastern Daylight Time),326524.10000038147,A,book,I,k,199,1,3500.199999809265,323023.9000005722,9017,WL,A,10.0
2,40.99900007247925,learn,19000.999927520752,Wed May 07 2025 11:22:45 GMT-0400 (Eastern Daylight Time),326756.9000005722,A,bookenter,I,enter,212,1,3733.0,323023.9000005722,9017,WL,A,10.0
2,41.33300018310547,learn,18666.99981689453,Wed May 07 2025 11:22:45 GMT-0400 (Eastern Daylight Time),327090.70000076294,A,f,I,f,312,1,333.5,326757.20000076294,9017,WL,A,11.0
2,41.41600012779236,learn,18583.99987220764,Wed May 07 2025 11:22:45 GMT-0400 (Eastern Daylight Time),327173.70000076294,A,fl,I,l,63,1,416.5,326757.20000076294,9017,WL,A,11.0
2,41.58300018310547,learn,18416.99981689453,Wed May 07 2025 11:22:45 GMT-0400 (Eastern Daylight Time),327340.60000038147,A,flo,I,o,155,1,583.3999996185303,326757.20000076294,9017,WL,A,11.0
2,41.73300004005432,learn,18266.99995994568,Wed May 07 2025 11:22:45 GMT-0400 (Eastern Daylight Time),327490.9000005722,A,flow,I,w,125,1,733.6999998092651,326757.20000076294,9017,WL,A,11.0
2,41.91600012779236,learn,18083.99987220764,Wed May 07 2025 11:22:45 GMT-0400 (Eastern Daylight Time),327673.9000005722,A,flowe,I,e,159,1,916.6999998092651,326757.20000076294,9017,WL,A,11.0
2,41.98300004005432,learn,18016.99995994568,Wed May 07 2025 11:22:45 GMT-0400 (Eastern Daylight Time),327740.60000038147,A,flower,I,r,56,1,983.3999996185303,326757.20000076294,9017,WL,A,11.0
2,42.199000120162964,learn,17800.999879837036,Wed May 07 2025 11:22:45 GMT-0400 (Eastern Daylight Time),327956.9000005722,A,flowerenter,I,enter,196,1,1199.6999998092651,326757.20000076294,9017,WL,A,11.0
2,47.38300013542175,learn,12616.999864578247,Wed May 07 2025 11:22:45 GMT-0400 (Eastern Daylight Time),333140.70000076294,A,a,I,a,5168,1,5183.400000572205,327957.30000019073,9017,WL,A,12.0
2,47.48300004005432,learn,12516.999959945679,Wed May 07 2025 11:22:45 GMT-0400 (Eastern Daylight Time),333240.5,A,ap,I,p,85,1,5283.199999809265,327957.30000019073,9017,WL,A,12.0
2,47.68300008773804,learn,12316.999912261963,Wed May 07 2025 11:22:45 GMT-0400 (Eastern Daylight Time),333440.80000019073,A,app,I,p,179,1,5483.5,327957.30000019073,9017,WL,A,12.0
2,47.89900016784668,learn,12100.99983215332,Wed May 07 2025 11:22:45 GMT-0400 (Eastern Daylight Time),333656.9000005722,A,appl,I,l,185,1,5699.60000038147,327957.30000019073,9017,WL,A,12.0
2,48.06599998474121,learn,11934.000015258789,Wed May 07 2025 11:22:45 GMT-0400 (Eastern Daylight Time),333823.9000005722,A,apple,I,e,148,1,5866.60000038147,327957.30000019073,9017,WL,A,12.0
2,48.24900007247925,learn,11750.999927520752,Wed May 07 2025 11:22:45 GMT-0400 (Eastern Daylight Time),334006.80000019073,A,appleenter,I,enter,168,1,6049.5,327957.30000019073,9017,WL,A,12.0
2,51.532999992370605,learn,8467.000007629395,Wed May 07 2025 11:22:45 GMT-0400 (Eastern Daylight Time),337290.80000019073,A,m,I,m,3263,1,3283.5999994277954,334007.20000076294,9017,WL,A,13.0
2,51.63300013542175,learn,8366.999864578247,Wed May 07 2025 11:22:45 GMT-0400 (Eastern Daylight Time),337390.30000019073,A,me,I,e,88,1,3383.0999994277954,334007.20000076294,9017,WL,A,13.0
2,51.782999992370605,learn,8217.000007629395,Wed May 07 2025 11:22:45 GMT-0400 (Eastern Daylight Time),337540.80000019073,A,mea,I,a,133,1,3533.5999994277954,334007.20000076294,9017,WL,A,13.0
2,51.93300008773804,learn,8066.999912261963,Wed May 07 2025 11:22:45 GMT-0400 (Eastern Daylight Time),337690.9000005722,A,mead,I,d,126,1,3683.699999809265,334007.20000076294,9017,WL,A,13.0
2,52.116000175476074,learn,7883.999824523926,Wed May 07 2025 11:22:45 GMT-0400 (Eastern Daylight Time),337874.10000038147,A,meado,I,o,167,1,3866.8999996185303,334007.20000076294,9017,WL,A,13.0
2,52.33300018310547,learn,7666.999816894531,Wed May 07 2025 11:22:45 GMT-0400 (Eastern Daylight Time),338090.80000019073,A,meadow,I,w,191,1,4083.5999994277954,334007.20000076294,9017,WL,A,13.0
2,52.532999992370605,learn,7467.0000076293945,Wed May 07 2025 11:22:45 GMT-0400 (Eastern Daylight Time),338290.30000019073,A,meadowenter,I,enter,183,1,4283.099999427795,334007.20000076294,9017,WL,A,13.0
2,59.83300018310547,learn,166.99981689453125,Wed May 07 2025 11:22:45 GMT-0400 (Eastern Daylight Time),345590.5,A,f,I,f,7283,1,7299.89999961853,338290.60000038147,9017,WL,A,14.0
2,60.01600003242493,learn,-16.000032424926758,Wed May 07 2025 11:22:45 GMT-0400 (Eastern Daylight Time),345774.10000038147,A,fNone,I,None,173,1,7483.5,338290.60000038147,9017,WL,A,14.0
3,1.5339999198913574,learn,58466.00008010864,Wed May 07 2025 11:22:45 GMT-0400 (Eastern Daylight Time),419907.4000005722,A,k,I,k,1509,1,1532.9000005722046,418374.5,9017,WL,A,1.0
3,1.6999998092651367,learn,58300.00019073486,Wed May 07 2025 11:22:45 GMT-0400 (Eastern Daylight Time),420073.80000019073,A,ke,I,e,139,1,1699.3000001907349,418374.5,9017,WL,A,1.0
3,1.8829998970031738,learn,58117.000102996826,Wed May 07 2025 11:22:45 GMT-0400 (Eastern Daylight Time),420257.20000076294,A,key,I,y,153,1,1882.7000007629395,418374.5,9017,WL,A,1.0
3,2.982999801635742,learn,57017.00019836426,Wed May 07 2025 11:22:45 GMT-0400 (Eastern Daylight Time),421356.70000076294,A,keyenter,I,enter,1088,1,2982.2000007629395,418374.5,9017,WL,A,1.0
3,4.0329999923706055,learn,55967.000007629395,Wed May 07 2025 11:22:45 GMT-0400 (Eastern Daylight Time),422407.10000038147,A,t,I,t,1032,1,1050.1000003814697,421357.0,9017,WL,A,2.0
3,4.199999809265137,learn,55800.00019073486,Wed May 07 2025 11:22:45 GMT-0400 (Eastern Daylight Time),422574.0,A,tr,I,r,155,1,1217.0,421357.0,9017,WL,A,2.0
3,4.333999872207642,learn,55666.00012779236,Wed May 07 2025 11:22:45 GMT-0400 (Eastern Daylight Time),422707.5,A,tra,I,a,100,1,1350.5,421357.0,9017,WL,A,2.0
3,4.5329999923706055,learn,55467.000007629395,Wed May 07 2025 11:22:45 GMT-0400 (Eastern Daylight Time),422907.20000076294,A,trai,I,i,174,1,1550.2000007629395,421357.0,9017,WL,A,2.0
3,4.616999864578247,learn,55383.00013542175,Wed May 07 2025 11:22:45 GMT-0400 (Eastern Daylight Time),422990.30000019073,A,train,I,n,70,1,1633.3000001907349,421357.0,9017,WL,A,2.0
3,4.9659998416900635,learn,55034.00015830994,Wed May 07 2025 11:22:45 GMT-0400 (Eastern Daylight Time),423339.80000019073,A,trainenter,I,enter,338,1,1982.8000001907349,421357.0,9017,WL,A,2.0
3,5.549999952316284,learn,54450.000047683716,Wed May 07 2025 11:22:45 GMT-0400 (Eastern Daylight Time),423924.0,A,g,I,g,561,1,583.8999996185303,423340.10000038147,9017,WL,A,3.0
3,5.682999849319458,learn,54317.00015068054,Wed May 07 2025 11:22:45 GMT-0400 (Eastern Daylight Time),424057.20000076294,A,go,I,o,119,1,717.1000003814697,423340.10000038147,9017,WL,A,3.0
3,5.882999897003174,learn,54117.000102996826,Wed May 07 2025 11:22:45 GMT-0400 (Eastern Daylight Time),424257.30000019073,A,gol,I,l,177,1,917.1999998092651,423340.10000038147,9017,WL,A,3.0
3,6.016999959945679,learn,53983.00004005432,Wed May 07 2025 11:22:45 GMT-0400 (Eastern Daylight Time),424390.60000038147,A,gold,I,d,120,1,1050.5,423340.10000038147,9017,WL,A,3.0
3,6.382999897003174,learn,53617.000102996826,Wed May 07 2025 11:22:45 GMT-0400 (Eastern Daylight Time),424756.80000019073,A,goldenter,I,enter,347,1,1416.6999998092651,423340.10000038147,9017,WL,A,3.0
3,9.816999912261963,learn,50183.00008773804,Wed May 07 2025 11:22:45 GMT-0400 (Eastern Daylight Time),428190.70000076294,A,a,I,a,3417,1,3433.6000003814697,424757.10000038147,9017,WL,A,4.0
3,9.967000007629395,learn,50032.999992370605,Wed May 07 2025 11:22:45 GMT-0400 (Eastern Daylight Time),428340.60000038147,A,ap,I,p,140,1,3583.5,424757.10000038147,9017,WL,A,4.0
3,10.149999856948853,learn,49850.00014305115,Wed May 07 2025 11:22:45 GMT-0400 (Eastern Daylight Time),428524.0,A,app,I,p,164,1,3766.8999996185303,424757.10000038147,9017,WL,A,4.0
3,10.349999904632568,learn,49650.00009536743,Wed May 07 2025 11:22:45 GMT-0400 (Eastern Daylight Time),428723.80000019073,A,appl,I,l,183,1,3966.699999809265,424757.10000038147,9017,WL,A,4.0
3,10.5,learn,49500.0,Wed May 07 2025 11:22:45 GMT-0400 (Eastern Daylight Time),428874.0,A,apple,I,e,126,1,4116.89999961853,424757.10000038147,9017,WL,A,4.0
3,10.715999841690063,learn,49284.00015830994,Wed May 07 2025 11:22:45 GMT-0400 (Eastern Daylight Time),429090.10000038147,A,appleenter,I,enter,199,1,4333.0,424757.10000038147,9017,WL,A,4.0
3,11.049999952316284,learn,48950.000047683716,Wed May 07 2025 11:22:45 GMT-0400 (Eastern Daylight Time),429423.5,A,s,I,s,314,1,333.0,429090.5,9017,WL,A,5.0
3,11.16599988937378,learn,48834.00011062622,Wed May 07 2025 11:22:45 GMT-0400 (Eastern Daylight Time),429539.9000005722,A,sa,I,a,106,1,449.4000005722046,429090.5,9017,WL,A,5.0
3,11.333999872207642,learn,48666.00012779236,Wed May 07 2025 11:22:45 GMT-0400 (Eastern Daylight Time),429707.5,A,sal,I,l,143,1,617.0,429090.5,9017,WL,A,5.0
3,11.549999952316284,learn,48450.000047683716,Wed May 07 2025 11:22:45 GMT-0400 (Eastern Daylight Time),429923.9000005722,A,salt,I,t,191,1,833.4000005722046,429090.5,9017,WL,A,5.0
3,11.91599988937378,learn,48084.00011062622,Wed May 07 2025 11:22:45 GMT-0400 (Eastern Daylight Time),430290.20000076294,A,saltenter,I,enter,341,1,1199.7000007629395,429090.5,9017,WL,A,5.0
3,13.916999816894531,learn,46083.00018310547,Wed May 07 2025 11:22:45 GMT-0400 (Eastern Daylight Time),432290.60000038147,A,b,I,b,1987,1,2000.1000003814697,430290.5,9017,WL,A,6.0
3,14.049999952316284,learn,45950.000047683716,Wed May 07 2025 11:22:45 GMT-0400 (Eastern Daylight Time),432423.9000005722,A,bo,I,o,111,1,2133.4000005722046,430290.5,9017,WL,A,6.0
3,14.199999809265137,learn,45800.00019073486,Wed May 07 2025 11:22:45 GMT-0400 (Eastern Daylight Time),432573.9000005722,A,boo,I,o,121,1,2283.4000005722046,430290.5,9017,WL,A,6.0
3,14.416999816894531,learn,45583.00018310547,Wed May 07 2025 11:22:45 GMT-0400 (Eastern Daylight Time),432790.60000038147,A,book,I,k,187,1,2500.1000003814697,430290.5,9017,WL,A,6.0
3,14.682999849319458,learn,45317.00015068054,Wed May 07 2025 11:22:45 GMT-0400 (Eastern Daylight Time),433056.70000076294,A,bookenter,I,enter,251,1,2766.2000007629395,430290.5,9017,WL,A,6.0
3,15.0,learn,45000.0,Wed May 07 2025 11:22:45 GMT-0400 (Eastern Daylight Time),433373.80000019073,A,r,I,r,309,1,316.69999980926514,433057.10000038147,9017,WL,A,7.0
3,15.116999864578247,learn,44883.00013542175,Wed May 07 2025 11:22:45 GMT-0400 (Eastern Daylight Time),433490.4000005722,A,ru,I,u,92,1,433.30000019073486,433057.10000038147,9017,WL,A,7.0
3,15.349999904632568,learn,44650.00009536743,Wed May 07 2025 11:22:45 GMT-0400 (Eastern Daylight Time),433724.0,A,rug,I,g,200,1,666.8999996185303,433057.10000038147,9017,WL,A,7.0
3,15.58299994468689,learn,44417.00005531311,Wed May 07 2025 11:22:45 GMT-0400 (Eastern Daylight Time),433956.70000076294,A,rugenter,I,enter,205,1,899.6000003814697,433057.10000038147,9017,WL,A,7.0
3,18.59999990463257,learn,41400.00009536743,Wed May 07 2025 11:22:45 GMT-0400 (Eastern Daylight Time),436973.80000019073,A,h,I,h,3008,1,3016.699999809265,433957.10000038147,9017,WL,A,8.0
3,18.682999849319458,learn,41317.00015068054,Wed May 07 2025 11:22:45 GMT-0400 (Eastern Daylight Time),437057.20000076294,A,ha,I,a,59,1,3100.1000003814697,433957.10000038147,9017,WL,A,8.0
3,18.91699981689453,learn,41083.00018310547,Wed May 07 2025 11:22:45 GMT-0400 (Eastern Daylight Time),437290.60000038147,A,hap,I,p,217,1,3333.5,433957.10000038147,9017,WL,A,8.0
3,19.5,learn,40500.0,Wed May 07 2025 11:22:45 GMT-0400 (Eastern Daylight Time),437873.9000005722,A,ha,I,backspace,560,1,3916.800000190735,433957.10000038147,9017,WL,A,8.0
3,19.566999912261963,learn,40433.00008773804,Wed May 07 2025 11:22:45 GMT-0400 (Eastern Daylight Time),437941.20000076294,A,har,I,r,55,1,3984.1000003814697,433957.10000038147,9017,WL,A,8.0
3,19.799999952316284,learn,40200.000047683716,Wed May 07 2025 11:22:45 GMT-0400 (Eastern Daylight Time),438173.9000005722,A,harp,I,p,224,1,4216.800000190735,433957.10000038147,9017,WL,A,8.0
3,20.115999937057495,learn,39884.000062942505,Wed May 07 2025 11:22:45 GMT-0400 (Eastern Daylight Time),438490.10000038147,A,harpenter,I,enter,298,1,4533.0,433957.10000038147,9017,WL,A,8.0
3,20.632999897003174,learn,39367.000102996826,Wed May 07 2025 11:22:45 GMT-0400 (Eastern Daylight Time),439007.20000076294,A,c,I,c,499,1,516.7000007629395,438490.5,9017,WL,A,9.0
3,20.733999967575073,learn,39266.00003242493,Wed May 07 2025 11:22:45 GMT-0400 (Eastern Daylight Time),439107.60000038147,A,ch,I,h,83,1,617.1000003814697,438490.5,9017,WL,A,9.0
3,20.816999912261963,learn,39183.00008773804,Wed May 07 2025 11:22:45 GMT-0400 (Eastern Daylight Time),439190.5,A,chi,I,i,63,1,700.0,438490.5,9017,WL,A,9.0
3,21.033999919891357,learn,38966.00008010864,Wed May 07 2025 11:22:45 GMT-0400 (Eastern Daylight Time),439407.4000005722,A,chim,I,m,188,1,916.9000005722046,438490.5,9017,WL,A,9.0
3,21.232999801635742,learn,38767.00019836426,Wed May 07 2025 11:22:45 GMT-0400 (Eastern Daylight Time),439607.30000019073,A,chime,I,e,180,1,1116.8000001907349,438490.5,9017,WL,A,9.0
3,21.41699981689453,learn,38583.00018310547,Wed May 07 2025 11:22:45 GMT-0400 (Eastern Daylight Time),439790.60000038147,A,chimen,I,n,164,1,1300.1000003814697,438490.5,9017,WL,A,9.0
3,21.68400001525879,learn,38315.99998474121,Wed May 07 2025 11:22:45 GMT-0400 (Eastern Daylight Time),440057.30000019073,A,chimeny,I,y,243,1,1566.8000001907349,438490.5,9017,WL,A,9.0
3,22.33399987220764,learn,37666.00012779236,Wed May 07 2025 11:22:45 GMT-0400 (Eastern Daylight Time),440707.30000019073,A,chimen,I,backspace,625,1,2216.800000190735,438490.5,9017,WL,A,9.0
3,22.5,learn,37500.0,Wed May 07 2025 11:22:45 GMT-0400 (Eastern Daylight Time),440873.9000005722,A,chime,I,backspace,141,1,2383.4000005722046,438490.5,9017,WL,A,9.0
3,22.649999856948853,learn,37350.00014305115,Wed May 07 2025 11:22:45 GMT-0400 (Eastern Daylight Time),441023.5,A,chim,I,backspace,120,1,2533.0,438490.5,9017,WL,A,9.0
3,22.866999864578247,learn,37133.00013542175,Wed May 07 2025 11:22:45 GMT-0400 (Eastern Daylight Time),441240.60000038147,A,chimn,I,n,198,1,2750.1000003814697,438490.5,9017,WL,A,9.0
3,23.033999919891357,learn,36966.00008010864,Wed May 07 2025 11:22:45 GMT-0400 (Eastern Daylight Time),441407.30000019073,A,chimne,I,e,146,1,2916.800000190735,438490.5,9017,WL,A,9.0
3,23.699999809265137,learn,36300.00019073486,Wed May 07 2025 11:22:45 GMT-0400 (Eastern Daylight Time),442073.70000076294,A,chimney,I,y,642,1,3583.2000007629395,438490.5,9017,WL,A,9.0
3,24.115999937057495,learn,35884.000062942505,Wed May 07 2025 11:22:45 GMT-0400 (Eastern Daylight Time),442490.0,A,chimneyenter,I,enter,392,1,3999.5,438490.5,9017,WL,A,9.0
3,32.049999952316284,learn,27950.000047683716,Wed May 07 2025 11:22:45 GMT-0400 (Eastern Daylight Time),450423.9000005722,A,r,I,r,7924,1,7933.5,442490.4000005722,9017,WL,A,10.0
3,32.16699981689453,learn,27833.00018310547,Wed May 07 2025 11:22:45 GMT-0400 (Eastern Daylight Time),450540.5,A,ru,I,u,102,1,8050.099999427795,442490.4000005722,9017,WL,A,10.0
3,32.34999990463257,learn,27650.00009536743,Wed May 07 2025 11:22:45 GMT-0400 (Eastern Daylight Time),450724.0,A,rug,I,g,158,1,8233.599999427795,442490.4000005722,9017,WL,A,10.0
3,32.549999952316284,learn,27450.000047683716,Wed May 07 2025 11:22:45 GMT-0400 (Eastern Daylight Time),450923.5,A,rugenter,I,enter,182,1,8433.099999427795,442490.4000005722,9017,WL,A,10.0
3,38.11699986457825,learn,21883.000135421753,Wed May 07 2025 11:22:45 GMT-0400 (Eastern Daylight Time),456490.5,A,m,I,m,5554,1,5566.799999237061,450923.70000076294,9017,WL,A,11.0
3,38.19999980926514,learn,21800.000190734863,Wed May 07 2025 11:22:45 GMT-0400 (Eastern Daylight Time),456573.70000076294,A,me,I,e,68,1,5650.0,450923.70000076294,9017,WL,A,11.0
3,38.33299994468689,learn,21667.00005531311,Wed May 07 2025 11:22:45 GMT-0400 (Eastern Daylight Time),456707.20000076294,A,mea,I,a,110,1,5783.5,450923.70000076294,9017,WL,A,11.0
3,38.5,learn,21500.0,Wed May 07 2025 11:22:45 GMT-0400 (Eastern Daylight Time),456873.70000076294,A,mead,I,d,143,1,5950.0,450923.70000076294,9017,WL,A,11.0
3,38.632999897003174,learn,21367.000102996826,Wed May 07 2025 11:22:45 GMT-0400 (Eastern Daylight Time),457007.20000076294,A,meado,I,o,119,1,6083.5,450923.70000076294,9017,WL,A,11.0
3,38.83299994468689,learn,21167.00005531311,Wed May 07 2025 11:22:45 GMT-0400 (Eastern Daylight Time),457207.20000076294,A,meadow,I,w,187,1,6283.5,450923.70000076294,9017,WL,A,11.0
3,39.14999985694885,learn,20850.000143051147,Wed May 07 2025 11:22:45 GMT-0400 (Eastern Daylight Time),457523.4000005722,A,meadowenter,I,enter,298,1,6599.699999809265,450923.70000076294,9017,WL,A,11.0
3,39.69999980926514,learn,20300.000190734863,Wed May 07 2025 11:22:45 GMT-0400 (Eastern Daylight Time),458073.70000076294,A,l,I,l,530,1,550.0,457523.70000076294,9017,WL,A,12.0
3,39.882999897003174,learn,20117.000102996826,Wed May 07 2025 11:22:45 GMT-0400 (Eastern Daylight Time),458257.20000076294,A,lo,I,o,158,1,733.5,457523.70000076294,9017,WL,A,12.0
3,40.049999952316284,learn,19950.000047683716,Wed May 07 2025 11:22:45 GMT-0400 (Eastern Daylight Time),458423.70000076294,A,log,I,g,145,1,900.0,457523.70000076294,9017,WL,A,12.0
3,40.31599998474121,learn,19684.00001525879,Wed May 07 2025 11:22:45 GMT-0400 (Eastern Daylight Time),458689.9000005722,A,logenter,I,enter,241,1,1166.1999998092651,457523.70000076294,9017,WL,A,12.0
3,43.59999990463257,learn,16400.00009536743,Wed May 07 2025 11:22:45 GMT-0400 (Eastern Daylight Time),461974.0,A,f,I,f,3274,1,3283.7999992370605,458690.20000076294,9017,WL,A,13.0
3,43.717000007629395,learn,16282.999992370605,Wed May 07 2025 11:22:45 GMT-0400 (Eastern Daylight Time),462090.60000038147,A,fi,I,i,99,1,3400.3999996185303,458690.20000076294,9017,WL,A,13.0
3,43.84999990463257,learn,16150.000095367432,Wed May 07 2025 11:22:45 GMT-0400 (Eastern Daylight Time),462224.0,A,fir,I,r,102,1,3533.7999992370605,458690.20000076294,9017,WL,A,13.0
3,43.967000007629395,learn,16032.999992370605,Wed May 07 2025 11:22:45 GMT-0400 (Eastern Daylight Time),462340.20000076294,A,fire,I,e,92,1,3650.0,458690.20000076294,9017,WL,A,13.0
3,44.115999937057495,learn,15884.000062942505,Wed May 07 2025 11:22:45 GMT-0400 (Eastern Daylight Time),462490.20000076294,A,fireenter,I,enter,125,1,3800.0,458690.20000076294,9017,WL,A,13.0
3,47.032999992370605,learn,12967.000007629395,Wed May 07 2025 11:22:45 GMT-0400 (Eastern Daylight Time),465407.20000076294,A,r,I,r,2899,1,2916.7000007629395,462490.5,9017,WL,A,14.0
3,47.18299984931946,learn,12817.000150680542,Wed May 07 2025 11:22:45 GMT-0400 (Eastern Daylight Time),465557.20000076294,A,ra,I,a,131,1,3066.7000007629395,462490.5,9017,WL,A,14.0
3,47.532999992370605,learn,12467.000007629395,Wed May 07 2025 11:22:45 GMT-0400 (Eastern Daylight Time),465907.20000076294,A,rat,I,t,333,1,3416.7000007629395,462490.5,9017,WL,A,14.0
3,47.782999992370605,learn,12217.000007629395,Wed May 07 2025 11:22:45 GMT-0400 (Eastern Daylight Time),466157.30000019073,A,ratt,I,t,231,1,3666.800000190735,462490.5,9017,WL,A,14.0
3,47.94999980926514,learn,12050.000190734863,Wed May 07 2025 11:22:45 GMT-0400 (Eastern Daylight Time),466323.9000005722,A,rattl,I,l,142,1,3833.4000005722046,462490.5,9017,WL,A,14.0
3,48.11699986457825,learn,11883.000135421753,Wed May 07 2025 11:22:45 GMT-0400 (Eastern Daylight Time),466490.5,A,rattle,I,e,140,1,4000.0,462490.5,9017,WL,A,14.0
3,48.26600003242493,learn,11733.999967575073,Wed May 07 2025 11:22:45 GMT-0400 (Eastern Daylight Time),466640.10000038147,A,rattleenter,I,enter,126,1,4149.60000038147,462490.5,9017,WL,A,14.0
3,52.799999952316284,learn,7200.000047683716,Wed May 07 2025 11:22:45 GMT-0400 (Eastern Daylight Time),471173.70000076294,A,g,I,g,4517,1,4533.200000762939,466640.5,9017,WL,A,15.0
3,52.882999897003174,learn,7117.000102996826,Wed May 07 2025 11:22:45 GMT-0400 (Eastern Daylight Time),471257.0,A,go,I,o,60,1,4616.5,466640.5,9017,WL,A,15.0
3,53.09999990463257,learn,6900.000095367432,Wed May 07 2025 11:22:45 GMT-0400 (Eastern Daylight Time),471474.0,A,gol,I,l,186,1,4833.5,466640.5,9017,WL,A,15.0
3,53.23299980163574,learn,6767.000198364258,Wed May 07 2025 11:22:45 GMT-0400 (Eastern Daylight Time),471607.10000038147,A,gold,I,d,112,1,4966.60000038147,466640.5,9017,WL,A,15.0
3,53.34999990463257,learn,6650.000095367432,Wed May 07 2025 11:22:45 GMT-0400 (Eastern Daylight Time),471723.30000019073,A,goldenter,I,enter,100,1,5082.800000190735,466640.5,9017,WL,A,15.0
4,1.751000165939331,learn,58248.99983406067,Wed May 07 2025 11:22:45 GMT-0400 (Eastern Daylight Time),544340.6000003815,A,c,I,c,1733,1,1750.0,542590.6000003815,9017,WL,A,1.0
4,1.817000150680542,learn,58182.99984931946,Wed May 07 2025 11:22:45 GMT-0400 (Eastern Daylight Time),544406.7000007629,A,ch,I,h,52,1,1816.1000003814697,542590.6000003815,9017,WL,A,1.0
4,1.9010000228881836,learn,58098.99997711182,Wed May 07 2025 11:22:45 GMT-0400 (Eastern Daylight Time),544490.5,A,chi,I,i,69,1,1899.8999996185303,542590.6000003815,9017,WL,A,1.0
4,2.134000062942505,learn,57865.999937057495,Wed May 07 2025 11:22:45 GMT-0400 (Eastern Daylight Time),544723.7000007629,A,chim,I,m,216,1,2133.1000003814697,542590.6000003815,9017,WL,A,1.0
4,2.884000062942505,learn,57115.999937057495,Wed May 07 2025 11:22:45 GMT-0400 (Eastern Daylight Time),545473.8000001907,A,chimn,I,n,726,1,2883.199999809265,542590.6000003815,9017,WL,A,1.0
4,3.0169999599456787,learn,56983.00004005432,Wed May 07 2025 11:22:45 GMT-0400 (Eastern Daylight Time),545607.1000003815,A,chimne,I,e,120,1,3016.5,542590.6000003815,9017,WL,A,1.0
4,3.4839999675750732,learn,56516.00003242493,Wed May 07 2025 11:22:45 GMT-0400 (Eastern Daylight Time),546073.8000001907,A,chimney,I,y,439,1,3483.199999809265,542590.6000003815,9017,WL,A,1.0
4,3.7669999599456787,learn,56233.00004005432,Wed May 07 2025 11:22:45 GMT-0400 (Eastern Daylight Time),546356.6000003815,A,chimneyenter,I,enter,263,1,3766.0,542590.6000003815,9017,WL,A,1.0
4,4.5340001583099365,learn,55465.99984169006,Wed May 07 2025 11:22:45 GMT-0400 (Eastern Daylight Time),547123.7000007629,A,t,I,t,745,1,766.8000001907349,546356.9000005722,9017,WL,A,2.0
4,4.684000015258789,learn,55315.99998474121,Wed May 07 2025 11:22:45 GMT-0400 (Eastern Daylight Time),547273.6000003815,A,tr,I,r,133,1,916.6999998092651,546356.9000005722,9017,WL,A,2.0
4,4.7840001583099365,learn,55215.99984169006,Wed May 07 2025 11:22:45 GMT-0400 (Eastern Daylight Time),547373.5,A,tra,I,a,79,1,1016.5999994277954,546356.9000005722,9017,WL,A,2.0
4,4.934000015258789,learn,55065.99998474121,Wed May 07 2025 11:22:45 GMT-0400 (Eastern Daylight Time),547523.8000001907,A,trai,I,i,119,1,1166.8999996185303,546356.9000005722,9017,WL,A,2.0
4,5.101000070571899,learn,54898.9999294281,Wed May 07 2025 11:22:45 GMT-0400 (Eastern Daylight Time),547690.5,A,train,I,n,141,1,1333.5999994277954,546356.9000005722,9017,WL,A,2.0
4,5.450000047683716,learn,54549.999952316284,Wed May 07 2025 11:22:45 GMT-0400 (Eastern Daylight Time),548040.0,A,trainenter,I,enter,334,1,1683.0999994277954,546356.9000005722,9017,WL,A,2.0
4,7.568000078201294,learn,52431.999921798706,Wed May 07 2025 11:22:45 GMT-0400 (Eastern Daylight Time),550158.0,A,g,I,g,2109,1,2117.5999994277954,548040.4000005722,9017,WL,A,3.0
4,7.66700005531311,learn,52332.99994468689,Wed May 07 2025 11:22:45 GMT-0400 (Eastern Daylight Time),550256.7000007629,A,go,I,o,75,1,2216.300000190735,548040.4000005722,9017,WL,A,3.0
4,7.884000062942505,learn,52115.999937057495,Wed May 07 2025 11:22:45 GMT-0400 (Eastern Daylight Time),550473.6000003815,A,gol,I,l,195,1,2433.199999809265,548040.4000005722,9017,WL,A,3.0
4,8.001000165939331,learn,51998.99983406067,Wed May 07 2025 11:22:45 GMT-0400 (Eastern Daylight Time),550590.3000001907,A,gold,I,d,104,1,2549.8999996185303,548040.4000005722,9017,WL,A,3.0
4,8.284000158309937,learn,51715.99984169006,Wed May 07 2025 11:22:45 GMT-0400 (Eastern Daylight Time),550873.3000001907,A,goldenter,I,enter,258,1,2832.8999996185303,548040.4000005722,9017,WL,A,3.0
4,11.717000007629395,learn,48282.999992370605,Wed May 07 2025 11:22:45 GMT-0400 (Eastern Daylight Time),554307.1000003815,A,t,I,t,3420,1,3433.3999996185303,550873.7000007629,9017,WL,A,4.0
4,11.867000102996826,learn,48132.999897003174,Wed May 07 2025 11:22:45 GMT-0400 (Eastern Daylight Time),554457.2000007629,A,tr,I,r,126,1,3583.5,550873.7000007629,9017,WL,A,4.0
4,11.950999975204468,learn,48049.00002479553,Wed May 07 2025 11:22:45 GMT-0400 (Eastern Daylight Time),554540.5,A,tra,I,a,65,1,3666.7999992370605,550873.7000007629,9017,WL,A,4.0
4,12.016999959945679,learn,47983.00004005432,Wed May 07 2025 11:22:45 GMT-0400 (Eastern Daylight Time),554606.6000003815,A,trai,I,i,53,1,3732.8999996185303,550873.7000007629,9017,WL,A,4.0
4,12.117000102996826,learn,47882.999897003174,Wed May 07 2025 11:22:45 GMT-0400 (Eastern Daylight Time),554707.0,A,train,I,n,77,1,3833.2999992370605,550873.7000007629,9017,WL,A,4.0
4,12.33400011062622,learn,47665.99988937378,Wed May 07 2025 11:22:45 GMT-0400 (Eastern Daylight Time),554923.2000007629,A,trainenter,I,enter,191,1,4049.5,550873.7000007629,9017,WL,A,4.0
4,14.367000102996826,learn,45632.999897003174,Wed May 07 2025 11:22:45 GMT-0400 (Eastern Daylight Time),556957.3000001907,A,a,I,a,2018,1,2033.6999998092651,554923.6000003815,9017,WL,A,5.0
4,14.450999975204468,learn,45549.00002479553,Wed May 07 2025 11:22:45 GMT-0400 (Eastern Daylight Time),557040.5,A,ap,I,p,69,1,2116.8999996185303,554923.6000003815,9017,WL,A,5.0
4,14.6010000705719,learn,45398.9999294281,Wed May 07 2025 11:22:45 GMT-0400 (Eastern Daylight Time),557190.4000005722,A,app,I,p,135,1,2266.800000190735,554923.6000003815,9017,WL,A,5.0
4,14.801000118255615,learn,45198.999881744385,Wed May 07 2025 11:22:45 GMT-0400 (Eastern Daylight Time),557390.4000005722,A,appl,I,l,172,1,2466.800000190735,554923.6000003815,9017,WL,A,5.0
4,14.934000015258789,learn,45065.99998474121,Wed May 07 2025 11:22:45 GMT-0400 (Eastern Daylight Time),557523.7000007629,A,apple,I,e,107,1,2600.1000003814697,554923.6000003815,9017,WL,A,5.0
4,15.100000143051147,learn,44899.99985694885,Wed May 07 2025 11:22:45 GMT-0400 (Eastern Daylight Time),557690.0,A,appleenter,I,enter,141,1,2766.3999996185303,554923.6000003815,9017,WL,A,5.0
4,15.934000015258789,learn,44065.99998474121,Wed May 07 2025 11:22:45 GMT-0400 (Eastern Daylight Time),558523.8000001907,A,s,I,s,811,1,833.5,557690.3000001907,9017,WL,A,6.0
4,16.067000150680542,learn,43932.99984931946,Wed May 07 2025 11:22:45 GMT-0400 (Eastern Daylight Time),558656.8000001907,A,sa,I,a,111,1,966.5,557690.3000001907,9017,WL,A,6.0
4,16.18400001525879,learn,43815.99998474121,Wed May 07 2025 11:22:45 GMT-0400 (Eastern Daylight Time),558773.5,A,sal,I,l,104,1,1083.1999998092651,557690.3000001907,9017,WL,A,6.0
4,16.317000150680542,learn,43682.99984931946,Wed May 07 2025 11:22:45 GMT-0400 (Eastern Daylight Time),558906.9000005722,A,salt,I,t,116,1,1216.6000003814697,557690.3000001907,9017,WL,A,6.0
4,16.567000150680542,learn,43432.99984931946,Wed May 07 2025 11:22:45 GMT-0400 (Eastern Daylight Time),559156.6000003815,A,saltenter,I,enter,225,1,1466.3000001907349,557690.3000001907,9017,WL,A,6.0
4,17.051000118255615,learn,42948.999881744385,Wed May 07 2025 11:22:45 GMT-0400 (Eastern Daylight Time),559640.4000005722,A,f,I,f,464,1,483.5,559156.9000005722,9017,WL,A,7.0
4,17.117000102996826,learn,42882.999897003174,Wed May 07 2025 11:22:45 GMT-0400 (Eastern Daylight Time),559706.8000001907,A,fi,I,i,49,1,549.8999996185303,559156.9000005722,9017,WL,A,7.0
4,17.233999967575073,learn,42766.00003242493,Wed May 07 2025 11:22:45 GMT-0400 (Eastern Daylight Time),559823.7000007629,A,fin,I,n,96,1,666.8000001907349,559156.9000005722,9017,WL,A,7.0
4,17.33400011062622,learn,42665.99988937378,Wed May 07 2025 11:22:45 GMT-0400 (Eastern Daylight Time),559923.3000001907,A,fing,I,g,80,1,766.3999996185303,559156.9000005722,9017,WL,A,7.0
4,17.50100016593933,learn,42498.99983406067,Wed May 07 2025 11:22:45 GMT-0400 (Eastern Daylight Time),560090.4000005722,A,finge,I,e,153,1,933.5,559156.9000005722,9017,WL,A,7.0
4,17.567000150680542,learn,42432.99984931946,Wed May 07 2025 11:22:45 GMT-0400 (Eastern Daylight Time),560156.5,A,finger,I,r,55,1,999.5999994277954,559156.9000005722,9017,WL,A,7.0
4,17.733999967575073,learn,42266.00003242493,Wed May 07 2025 11:22:45 GMT-0400 (Eastern Daylight Time),560323.2000007629,A,fingerenter,I,enter,142,1,1166.3000001907349,559156.9000005722,9017,WL,A,7.0
4,22.26699995994568,learn,37733.00004005432,Wed May 07 2025 11:22:45 GMT-0400 (Eastern Daylight Time),564857.0,A,h,I,h,4522,1,4533.39999961853,560323.6000003815,9017,WL,A,8.0
4,22.41700005531311,learn,37582.99994468689,Wed May 07 2025 11:22:45 GMT-0400 (Eastern Daylight Time),565007.1000003815,A,ha,I,a,134,1,4683.5,560323.6000003815,9017,WL,A,8.0
4,22.617000102996826,learn,37382.999897003174,Wed May 07 2025 11:22:45 GMT-0400 (Eastern Daylight Time),565207.1000003815,A,har,I,r,179,1,4883.5,560323.6000003815,9017,WL,A,8.0
4,22.801000118255615,learn,37198.999881744385,Wed May 07 2025 11:22:45 GMT-0400 (Eastern Daylight Time),565390.4000005722,A,harp,I,p,163,1,5066.800000190735,560323.6000003815,9017,WL,A,8.0
4,23.067000150680542,learn,36932.99984931946,Wed May 07 2025 11:22:45 GMT-0400 (Eastern Daylight Time),565656.5,A,harpenter,I,enter,251,1,5332.89999961853,560323.6000003815,9017,WL,A,8.0
4,23.651000022888184,learn,36348.99997711182,Wed May 07 2025 11:22:45 GMT-0400 (Eastern Daylight Time),566240.4000005722,A,m,I,m,565,1,583.5,565656.9000005722,9017,WL,A,9.0
4,23.75100016593933,learn,36248.99983406067,Wed May 07 2025 11:22:45 GMT-0400 (Eastern Daylight Time),566340.3000001907,A,me,I,e,73,1,683.3999996185303,565656.9000005722,9017,WL,A,9.0
4,23.867000102996826,learn,36132.999897003174,Wed May 07 2025 11:22:45 GMT-0400 (Eastern Daylight Time),566457.0,A,mea,I,a,86,1,800.0999994277954,565656.9000005722,9017,WL,A,9.0
4,24.01699995994568,learn,35983.00004005432,Wed May 07 2025 11:22:45 GMT-0400 (Eastern Daylight Time),566607.1000003815,A,mead,I,d,129,1,950.1999998092651,565656.9000005722,9017,WL,A,9.0
4,24.16700005531311,learn,35832.99994468689,Wed May 07 2025 11:22:45 GMT-0400 (Eastern Daylight Time),566757.1000003815,A,meado,I,o,130,1,1100.1999998092651,565656.9000005722,9017,WL,A,9.0
4,24.33400011062622,learn,35665.99988937378,Wed May 07 2025 11:22:45 GMT-0400 (Eastern Daylight Time),566924.1000003815,A,meadow,I,w,156,1,1267.1999998092651,565656.9000005722,9017,WL,A,9.0
4,24.567000150680542,learn,35432.99984931946,Wed May 07 2025 11:22:45 GMT-0400 (Eastern Daylight Time),567156.6000003815,A,meadowenter,I,enter,215,1,1499.6999998092651,565656.9000005722,9017,WL,A,9.0
4,24.884000062942505,learn,35115.999937057495,Wed May 07 2025 11:22:45 GMT-0400 (Eastern Daylight Time),567473.7000007629,A,l,I,l,304,1,316.80000019073486,567156.9000005722,9017,WL,A,10.0
4,25.08400011062622,learn,34915.99988937378,Wed May 07 2025 11:22:45 GMT-0400 (Eastern Daylight Time),567673.6000003815,A,lo,I,o,177,1,516.6999998092651,567156.9000005722,9017,WL,A,10.0
4,25.217000007629395,learn,34782.999992370605,Wed May 07 2025 11:22:45 GMT-0400 (Eastern Daylight Time),567807.0,A,log,I,g,113,1,650.0999994277954,567156.9000005722,9017,WL,A,10.0
4,25.43400001525879,learn,34565.99998474121,Wed May 07 2025 11:22:45 GMT-0400 (Eastern Daylight Time),568023.2000007629,A,logenter,I,enter,194,1,866.3000001907349,567156.9000005722,9017,WL,A,10.0
4,34.03400015830994,learn,25965.999841690063,Wed May 07 2025 11:22:45 GMT-0400 (Eastern Daylight Time),576623.8000001907,A,r,I,r,8589,1,8600.199999809265,568023.6000003815,9017,WL,A,11.0
4,34.134000062942505,learn,25865.999937057495,Wed May 07 2025 11:22:45 GMT-0400 (Eastern Daylight Time),576723.6000003815,A,ru,I,u,81,1,8700.0,568023.6000003815,9017,WL,A,11.0
4,34.28400015830994,learn,25715.999841690063,Wed May 07 2025 11:22:45 GMT-0400 (Eastern Daylight Time),576873.7000007629,A,rug,I,g,126,1,8850.10000038147,568023.6000003815,9017,WL,A,11.0
4,34.467000007629395,learn,25532.999992370605,Wed May 07 2025 11:22:45 GMT-0400 (Eastern Daylight Time),577056.6000003815,A,rugenter,I,enter,160,1,9033.0,568023.6000003815,9017,WL,A,11.0
4,34.75100016593933,learn,25248.99983406067,Wed May 07 2025 11:22:45 GMT-0400 (Eastern Daylight Time),577340.4000005722,A,b,I,b,277,1,283.5,577056.9000005722,9017,WL,A,12.0
4,34.91700005531311,learn,25082.99994468689,Wed May 07 2025 11:22:45 GMT-0400 (Eastern Daylight Time),577507.1000003815,A,bo,I,o,141,1,450.19999980926514,577056.9000005722,9017,WL,A,12.0
4,35.06700015068054,learn,24932.999849319458,Wed May 07 2025 11:22:45 GMT-0400 (Eastern Daylight Time),577657.1000003815,A,boo,I,o,134,1,600.1999998092651,577056.9000005722,9017,WL,A,12.0
4,35.28400015830994,learn,24715.999841690063,Wed May 07 2025 11:22:45 GMT-0400 (Eastern Daylight Time),577873.7000007629,A,book,I,k,194,1,816.8000001907349,577056.9000005722,9017,WL,A,12.0
4,35.51699995994568,learn,24483.00004005432,Wed May 07 2025 11:22:45 GMT-0400 (Eastern Daylight Time),578106.6000003815,A,bookenter,I,enter,216,1,1049.6999998092651,577056.9000005722,9017,WL,A,12.0
4,35.81700015068054,learn,24182.999849319458,Wed May 07 2025 11:22:45 GMT-0400 (Eastern Daylight Time),578407.0,A,f,I,f,282,1,300.0999994277954,578106.9000005722,9017,WL,A,13.0
4,35.91700005531311,learn,24082.99994468689,Wed May 07 2025 11:22:45 GMT-0400 (Eastern Daylight Time),578507.1000003815,A,fl,I,l,74,1,400.19999980926514,578106.9000005722,9017,WL,A,13.0
4,36.06700015068054,learn,23932.999849319458,Wed May 07 2025 11:22:45 GMT-0400 (Eastern Daylight Time),578657.1000003815,A,flo,I,o,120,1,550.1999998092651,578106.9000005722,9017,WL,A,13.0
4,36.23399996757507,learn,23766.000032424927,Wed May 07 2025 11:22:45 GMT-0400 (Eastern Daylight Time),578823.7000007629,A,flow,I,w,144,1,716.8000001907349,578106.9000005722,9017,WL,A,13.0
4,36.401000022888184,learn,23598.999977111816,Wed May 07 2025 11:22:45 GMT-0400 (Eastern Daylight Time),578990.4000005722,A,flowe,I,e,147,1,883.5,578106.9000005722,9017,WL,A,13.0
4,36.467000007629395,learn,23532.999992370605,Wed May 07 2025 11:22:45 GMT-0400 (Eastern Daylight Time),579056.4000005722,A,flower,I,r,43,1,949.5,578106.9000005722,9017,WL,A,13.0
4,36.68300008773804,learn,23316.999912261963,Wed May 07 2025 11:22:45 GMT-0400 (Eastern Daylight Time),579273.2000007629,A,flowerenter,I,enter,194,1,1166.3000001907349,578106.9000005722,9017,WL,A,13.0
4,52.58400011062622,learn,7415.999889373779,Wed May 07 2025 11:22:45 GMT-0400 (Eastern Daylight Time),595173.6000003815,A,r,I,r,15883,1,15900.0,579273.6000003815,9017,WL,A,14.0
4,52.75100016593933,learn,7248.999834060669,Wed May 07 2025 11:22:45 GMT-0400 (Eastern Daylight Time),595340.4000005722,A,ra,I,a,138,1,16066.800000190735,579273.6000003815,9017,WL,A,14.0
4,52.93400001525879,learn,7065.999984741211,Wed May 07 2025 11:22:45 GMT-0400 (Eastern Daylight Time),595523.8000001907,A,rat,I,t,150,1,16250.199999809265,579273.6000003815,9017,WL,A,14.0
4,53.26699995994568,learn,6733.000040054321,Wed May 07 2025 11:22:45 GMT-0400 (Eastern Daylight Time),595857.1000003815,A,ratl,I,l,311,1,16583.5,579273.6000003815,9017,WL,A,14.0
4,53.50100016593933,learn,6498.999834060669,Wed May 07 2025 11:22:45 GMT-0400 (Eastern Daylight Time),596090.3000001907,A,ratll,I,l,217,1,16816.699999809265,579273.6000003815,9017,WL,A,14.0
4,54.01699995994568,learn,5983.000040054321,Wed May 07 2025 11:22:45 GMT-0400 (Eastern Daylight Time),596607.1000003815,A,ratl,I,backspace,488,1,17333.5,579273.6000003815,9017,WL,A,14.0
4,54.15000009536743,learn,5849.999904632568,Wed May 07 2025 11:22:45 GMT-0400 (Eastern Daylight Time),596740.3000001907,A,rat,I,backspace,123,1,17466.699999809265,579273.6000003815,9017,WL,A,14.0
4,54.384000062942505,learn,5615.999937057495,Wed May 07 2025 11:22:45 GMT-0400 (Eastern Daylight Time),596973.7000007629,A,ratt,I,t,215,1,17700.10000038147,579273.6000003815,9017,WL,A,14.0
4,54.551000118255615,learn,5448.999881744385,Wed May 07 2025 11:22:45 GMT-0400 (Eastern Daylight Time),597140.3000001907,A,rattl,I,l,131,1,17866.699999809265,579273.6000003815,9017,WL,A,14.0
4,54.75100016593933,learn,5248.999834060669,Wed May 07 2025 11:22:45 GMT-0400 (Eastern Daylight Time),597340.4000005722,A,rattle,I,e,175,1,18066.800000190735,579273.6000003815,9017,WL,A,14.0
4,54.88499999046326,learn,5115.000009536743,Wed May 07 2025 11:22:45 GMT-0400 (Eastern Daylight Time),597474.3000001907,A,rattleenter,I,enter,101,1,18200.699999809265,579273.6000003815,9017,WL,A,14.0
4,60.01699995994568,learn,-16.99995994567871,Wed May 07 2025 11:22:45 GMT-0400 (Eastern Daylight Time),602607.0,A,None,I,None,5126,1,5132.299999237061,597474.7000007629,9017,WL,A,15.0
5,1.1000001430511475,learn,60000.0,Wed May 07 2025 11:22:45 GMT-0400 (Eastern Daylight Time),675956.8000001907,A,b,I,b,1091,1,1099.6999998092651,674857.1000003815,9017,WL,A,1.0
5,1.2670001983642578,learn,60000.0,Wed May 07 2025 11:22:45 GMT-0400 (Eastern Daylight Time),676123.8000001907,A,bo,I,o,149,1,1266.6999998092651,674857.1000003815,9017,WL,A,1.0
5,1.4660000801086426,learn,60000.0,Wed May 07 2025 11:22:45 GMT-0400 (Eastern Daylight Time),676323.2000007629,A,boo,I,o,174,1,1466.1000003814697,674857.1000003815,9017,WL,A,1.0
5,1.8500001430511475,learn,60000.0,Wed May 07 2025 11:22:45 GMT-0400 (Eastern Daylight Time),676707.1000003815,A,book,I,k,357,1,1850.0,674857.1000003815,9017,WL,A,1.0
5,2.1500000953674316,learn,60000.0,Wed May 07 2025 11:22:45 GMT-0400 (Eastern Daylight Time),677006.5,A,bookenter,I,enter,285,1,2149.3999996185303,674857.1000003815,9017,WL,A,1.0
5,2.8000001907348633,learn,60000.0,Wed May 07 2025 11:22:45 GMT-0400 (Eastern Daylight Time),677656.9000005722,A,f,I,f,639,1,650.0,677006.9000005722,9017,WL,A,2.0
5,2.9170000553131104,learn,60000.0,Wed May 07 2025 11:22:45 GMT-0400 (Eastern Daylight Time),677773.5,A,fl,I,l,98,1,766.5999994277954,677006.9000005722,9017,WL,A,2.0
5,3.1000001430511475,learn,60000.0,Wed May 07 2025 11:22:45 GMT-0400 (Eastern Daylight Time),677956.9000005722,A,flo,I,o,164,1,950.0,677006.9000005722,9017,WL,A,2.0
5,3.2830002307891846,learn,60000.0,Wed May 07 2025 11:22:45 GMT-0400 (Eastern Daylight Time),678140.2000007629,A,flow,I,w,154,1,1133.3000001907349,677006.9000005722,9017,WL,A,2.0
5,3.434000015258789,learn,60000.0,Wed May 07 2025 11:22:45 GMT-0400 (Eastern Daylight Time),678290.3000001907,A,flowe,I,e,125,1,1283.3999996185303,677006.9000005722,9017,WL,A,2.0
5,3.5,learn,60000.0,Wed May 07 2025 11:22:45 GMT-0400 (Eastern Daylight Time),678356.3000001907,A,flower,I,r,46,1,1349.3999996185303,677006.9000005722,9017,WL,A,2.0
5,4.5,learn,60000.0,Wed May 07 2025 11:22:45 GMT-0400 (Eastern Daylight Time),679356.3000001907,A,flowerenter,I,enter,991,1,2349.3999996185303,677006.9000005722,9017,WL,A,2.0
5,5.367000102996826,learn,60000.0,Wed May 07 2025 11:22:45 GMT-0400 (Eastern Daylight Time),680223.5,A,r,I,r,848,1,866.7999992370605,679356.7000007629,9017,WL,A,3.0
5,5.484000205993652,learn,60000.0,Wed May 07 2025 11:22:45 GMT-0400 (Eastern Daylight Time),680340.3000001907,A,ru,I,u,107,1,983.5999994277954,679356.7000007629,9017,WL,A,3.0
5,5.650000095367432,learn,60000.0,Wed May 07 2025 11:22:45 GMT-0400 (Eastern Daylight Time),680507.0,A,rug,I,g,149,1,1150.2999992370605,679356.7000007629,9017,WL,A,3.0
5,5.9670000076293945,learn,60000.0,Wed May 07 2025 11:22:45 GMT-0400 (Eastern Daylight Time),680824.2000007629,A,rugenter,I,enter,293,1,1467.5,679356.7000007629,9017,WL,A,3.0
5,13.25,learn,60000.0,Wed May 07 2025 11:22:45 GMT-0400 (Eastern Daylight Time),688106.9000005722,A,r,I,r,7261,1,7282.400000572205,680824.5,9017,WL,A,4.0
5,13.41700005531311,learn,60000.0,Wed May 07 2025 11:22:45 GMT-0400 (Eastern Daylight Time),688273.6000003815,A,ru,I,u,151,1,7449.10000038147,680824.5,9017,WL,A,4.0
5,13.550000190734863,learn,60000.0,Wed May 07 2025 11:22:45 GMT-0400 (Eastern Daylight Time),688406.8000001907,A,rug,I,g,112,1,7582.300000190735,680824.5,9017,WL,A,4.0
5,13.783000230789185,learn,60000.0,Wed May 07 2025 11:22:45 GMT-0400 (Eastern Daylight Time),688639.7000007629,A,rugenter,I,enter,203,1,7815.200000762939,680824.5,9017,WL,A,4.0
5,15.550000190734863,learn,60000.0,Wed May 07 2025 11:22:45 GMT-0400 (Eastern Daylight Time),690406.8000001907,A,a,I,a,1750,1,1766.8000001907349,688640.0,9017,WL,A,5.0
5,15.684000015258789,learn,60000.0,Wed May 07 2025 11:22:45 GMT-0400 (Eastern Daylight Time),690540.3000001907,A,ap,I,p,107,1,1900.3000001907349,688640.0,9017,WL,A,5.0
5,15.817000150680542,learn,60000.0,Wed May 07 2025 11:22:45 GMT-0400 (Eastern Daylight Time),690673.6000003815,A,app,I,p,118,1,2033.6000003814697,688640.0,9017,WL,A,5.0
5,16.033000230789185,learn,60000.0,Wed May 07 2025 11:22:45 GMT-0400 (Eastern Daylight Time),690890.2000007629,A,appl,I,l,185,1,2250.2000007629395,688640.0,9017,WL,A,5.0
5,16.15000009536743,learn,60000.0,Wed May 07 2025 11:22:45 GMT-0400 (Eastern Daylight Time),691007.1000003815,A,apple,I,e,87,1,2367.1000003814697,688640.0,9017,WL,A,5.0
5,16.300000190734863,learn,60000.0,Wed May 07 2025 11:22:45 GMT-0400 (Eastern Daylight Time),691156.4000005722,A,appleenter,I,enter,130,1,2516.4000005722046,688640.0,9017,WL,A,5.0
5,16.68400001525879,learn,60000.0,Wed May 07 2025 11:22:45 GMT-0400 (Eastern Daylight Time),691540.3000001907,A,s,I,s,369,1,383.5999994277954,691156.7000007629,9017,WL,A,6.0
5,16.83300018310547,learn,60000.0,Wed May 07 2025 11:22:45 GMT-0400 (Eastern Daylight Time),691690.3000001907,A,sa,I,a,134,1,533.5999994277954,691156.7000007629,9017,WL,A,6.0
5,16.98300004005432,learn,60000.0,Wed May 07 2025 11:22:45 GMT-0400 (Eastern Daylight Time),691840.2000007629,A,sal,I,l,128,1,683.5,691156.7000007629,9017,WL,A,6.0
5,17.15000009536743,learn,60000.0,Wed May 07 2025 11:22:45 GMT-0400 (Eastern Daylight Time),692006.9000005722,A,salt,I,t,152,1,850.1999998092651,691156.7000007629,9017,WL,A,6.0
5,17.633000135421753,learn,60000.0,Wed May 07 2025 11:22:45 GMT-0400 (Eastern Daylight Time),692489.8000001907,A,saltenter,I,enter,466,1,1333.0999994277954,691156.7000007629,9017,WL,A,6.0
5,17.933000087738037,learn,60000.0,Wed May 07 2025 11:22:45 GMT-0400 (Eastern Daylight Time),692790.2000007629,A,f,I,f,292,1,300.1000003814697,692490.1000003815,9017,WL,A,7.0
5,18.017000198364258,learn,60000.0,Wed May 07 2025 11:22:45 GMT-0400 (Eastern Daylight Time),692873.3000001907,A,fi,I,i,67,1,383.19999980926514,692490.1000003815,9017,WL,A,7.0
5,18.133000135421753,learn,60000.0,Wed May 07 2025 11:22:45 GMT-0400 (Eastern Daylight Time),692990.3000001907,A,fin,I,n,97,1,500.19999980926514,692490.1000003815,9017,WL,A,7.0
5,18.283000230789185,learn,60000.0,Wed May 07 2025 11:22:45 GMT-0400 (Eastern Daylight Time),693140.3000001907,A,fing,I,g,116,1,650.1999998092651,692490.1000003815,9017,WL,A,7.0
5,18.467000007629395,learn,60000.0,Wed May 07 2025 11:22:45 GMT-0400 (Eastern Daylight Time),693323.5,A,finge,I,e,157,1,833.3999996185303,692490.1000003815,9017,WL,A,7.0
5,18.550000190734863,learn,60000.0,Wed May 07 2025 11:22:45 GMT-0400 (Eastern Daylight Time),693406.8000001907,A,finger,I,r,63,1,916.6999998092651,692490.1000003815,9017,WL,A,7.0
5,18.800000190734863,learn,60000.0,Wed May 07 2025 11:22:45 GMT-0400 (Eastern Daylight Time),693656.4000005722,A,fingerenter,I,enter,227,1,1166.3000001907349,692490.1000003815,9017,WL,A,7.0
5,20.967000007629395,learn,60000.0,Wed May 07 2025 11:22:45 GMT-0400 (Eastern Daylight Time),695823.6000003815,A,c,I,c,2157,1,2166.699999809265,693656.9000005722,9017,WL,A,8.0
5,21.050000190734863,learn,60000.0,Wed May 07 2025 11:22:45 GMT-0400 (Eastern Daylight Time),695906.9000005722,A,ch,I,h,57,1,2250.0,693656.9000005722,9017,WL,A,8.0
5,21.116000175476074,learn,60000.0,Wed May 07 2025 11:22:45 GMT-0400 (Eastern Daylight Time),695973.0,A,chi,I,i,55,1,2316.0999994277954,693656.9000005722,9017,WL,A,8.0
5,21.283000230789185,learn,60000.0,Wed May 07 2025 11:22:45 GMT-0400 (Eastern Daylight Time),696140.2000007629,A,chim,I,m,149,1,2483.300000190735,693656.9000005722,9017,WL,A,8.0
5,21.433000087738037,learn,60000.0,Wed May 07 2025 11:22:45 GMT-0400 (Eastern Daylight Time),696290.2000007629,A,chime,I,e,132,1,2633.300000190735,693656.9000005722,9017,WL,A,8.0
5,21.567000150680542,learn,60000.0,Wed May 07 2025 11:22:45 GMT-0400 (Eastern Daylight Time),696423.4000005722,A,chimen,I,n,111,1,2766.5,693656.9000005722,9017,WL,A,8.0
5,22.18400001525879,learn,60000.0,Wed May 07 2025 11:22:45 GMT-0400 (Eastern Daylight Time),697040.4000005722,A,chime,I,backspace,601,1,3383.5,693656.9000005722,9017,WL,A,8.0
5,22.33300018310547,learn,60000.0,Wed May 07 2025 11:22:45 GMT-0400 (Eastern Daylight Time),697190.1000003815,A,chim,I,backspace,136,1,3533.199999809265,693656.9000005722,9017,WL,A,8.0
5,22.550000190734863,learn,60000.0,Wed May 07 2025 11:22:45 GMT-0400 (Eastern Daylight Time),697406.9000005722,A,chimn,I,n,195,1,3750.0,693656.9000005722,9017,WL,A,8.0
5,22.65000009536743,learn,60000.0,Wed May 07 2025 11:22:45 GMT-0400 (Eastern Daylight Time),697506.6000003815,A,chimne,I,e,74,1,3849.699999809265,693656.9000005722,9017,WL,A,8.0
5,22.800000190734863,learn,60000.0,Wed May 07 2025 11:22:45 GMT-0400 (Eastern Daylight Time),697656.8000001907,A,chimney,I,y,126,1,3999.8999996185303,693656.9000005722,9017,WL,A,8.0
5,23.40000009536743,learn,60000.0,Wed May 07 2025 11:22:45 GMT-0400 (Eastern Daylight Time),698256.5,A,chimneyenter,I,enter,577,1,4599.599999427795,693656.9000005722,9017,WL,A,8.0
5,25.216000080108643,learn,60000.0,Wed May 07 2025 11:22:45 GMT-0400 (Eastern Daylight Time),700072.7000007629,A,b,I,b,1802,1,1815.9000005722046,698256.8000001907,9017,WL,A,9.0
5,25.31600022315979,learn,60000.0,Wed May 07 2025 11:22:45 GMT-0400 (Eastern Daylight Time),700173.2000007629,A,bu,I,u,91,1,1916.4000005722046,698256.8000001907,9017,WL,A,9.0
5,25.484000205993652,learn,60000.0,Wed May 07 2025 11:22:45 GMT-0400 (Eastern Daylight Time),700340.3000001907,A,but,I,t,149,1,2083.5,698256.8000001907,9017,WL,A,9.0
5,25.65000009536743,learn,60000.0,Wed May 07 2025 11:22:45 GMT-0400 (Eastern Daylight Time),700507.0,A,butt,I,t,141,1,2250.199999809265,698256.8000001907,9017,WL,A,9.0
5,25.783000230789185,learn,60000.0,Wed May 07 2025 11:22:45 GMT-0400 (Eastern Daylight Time),700640.0,A,butto,I,o,111,1,2383.199999809265,698256.8000001907,9017,WL,A,9.0
5,25.883000135421753,learn,60000.0,Wed May 07 2025 11:22:45 GMT-0400 (Eastern Daylight Time),700739.9000005722,A,button,I,n,72,1,2483.1000003814697,698256.8000001907,9017,WL,A,9.0
5,26.133000135421753,learn,60000.0,Wed May 07 2025 11:22:45 GMT-0400 (Eastern Daylight Time),700989.7000007629,A,buttonenter,I,enter,236,1,2732.9000005722046,698256.8000001907,9017,WL,A,9.0
5,27.017000198364258,learn,60000.0,Wed May 07 2025 11:22:45 GMT-0400 (Eastern Daylight Time),701873.6000003815,A,h,I,h,863,1,883.6000003814697,700990.0,9017,WL,A,10.0
5,27.08300018310547,learn,60000.0,Wed May 07 2025 11:22:45 GMT-0400 (Eastern Daylight Time),701940.1000003815,A,ha,I,a,55,1,950.1000003814697,700990.0,9017,WL,A,10.0
5,27.299000024795532,learn,60000.0,Wed May 07 2025 11:22:45 GMT-0400 (Eastern Daylight Time),702156.2000007629,A,hap,I,p,206,1,1166.2000007629395,700990.0,9017,WL,A,10.0
5,27.800000190734863,learn,60000.0,Wed May 07 2025 11:22:45 GMT-0400 (Eastern Daylight Time),702656.8000001907,A,ha,I,backspace,480,1,1666.8000001907349,700990.0,9017,WL,A,10.0
5,27.883000135421753,learn,60000.0,Wed May 07 2025 11:22:45 GMT-0400 (Eastern Daylight Time),702739.5,A,har,I,r,72,1,1749.5,700990.0,9017,WL,A,10.0
5,28.050000190734863,learn,60000.0,Wed May 07 2025 11:22:45 GMT-0400 (Eastern Daylight Time),702906.8000001907,A,harp,I,p,143,1,1916.8000001907349,700990.0,9017,WL,A,10.0
5,28.284000158309937,learn,60000.0,Wed May 07 2025 11:22:45 GMT-0400 (Eastern Daylight Time),703140.7000007629,A,harpenter,I,enter,222,1,2150.7000007629395,700990.0,9017,WL,A,10.0
5,32.13300013542175,learn,60000.0,Wed May 07 2025 11:22:45 GMT-0400 (Eastern Daylight Time),706990.2000007629,A,g,I,g,3832,1,3849.1000003814697,703141.1000003815,9017,WL,A,11.0
5,32.21600008010864,learn,60000.0,Wed May 07 2025 11:22:45 GMT-0400 (Eastern Daylight Time),707073.2000007629,A,go,I,o,68,1,3932.1000003814697,703141.1000003815,9017,WL,A,11.0
5,32.41700005531311,learn,60000.0,Wed May 07 2025 11:22:45 GMT-0400 (Eastern Daylight Time),707273.5,A,gol,I,l,186,1,4132.39999961853,703141.1000003815,9017,WL,A,11.0
5,32.533000230789185,learn,60000.0,Wed May 07 2025 11:22:45 GMT-0400 (Eastern Daylight Time),707390.2000007629,A,gold,I,d,105,1,4249.10000038147,703141.1000003815,9017,WL,A,11.0
5,32.71600008010864,learn,60000.0,Wed May 07 2025 11:22:45 GMT-0400 (Eastern Daylight Time),707573.0,A,goldenter,I,enter,163,1,4431.89999961853,703141.1000003815,9017,WL,A,11.0
5,36.56700015068054,learn,60000.0,Wed May 07 2025 11:22:45 GMT-0400 (Eastern Daylight Time),711423.7000007629,A,l,I,l,3840,1,3850.300000190735,707573.4000005722,9017,WL,A,12.0
5,36.73300004005432,learn,60000.0,Wed May 07 2025 11:22:45 GMT-0400 (Eastern Daylight Time),711590.2000007629,A,lo,I,o,144,1,4016.800000190735,707573.4000005722,9017,WL,A,12.0
5,36.85000014305115,learn,60000.0,Wed May 07 2025 11:22:45 GMT-0400 (Eastern Daylight Time),711706.7000007629,A,log,I,g,91,1,4133.300000190735,707573.4000005722,9017,WL,A,12.0
5,37.06600022315979,learn,60000.0,Wed May 07 2025 11:22:45 GMT-0400 (Eastern Daylight Time),711923.2000007629,A,logenter,I,enter,206,1,4349.800000190735,707573.4000005722,9017,WL,A,12.0
5,37.43300008773804,learn,60000.0,Wed May 07 2025 11:22:45 GMT-0400 (Eastern Daylight Time),712290.2000007629,A,m,I,m,346,1,366.9000005722046,711923.3000001907,9017,WL,A,13.0
5,37.5,learn,60000.0,Wed May 07 2025 11:22:45 GMT-0400 (Eastern Daylight Time),712356.7000007629,A,me,I,e,48,1,433.4000005722046,711923.3000001907,9017,WL,A,13.0
5,37.617000102996826,learn,60000.0,Wed May 07 2025 11:22:45 GMT-0400 (Eastern Daylight Time),712473.5,A,mea,I,a,92,1,550.1999998092651,711923.3000001907,9017,WL,A,13.0
5,37.75,learn,60000.0,Wed May 07 2025 11:22:45 GMT-0400 (Eastern Daylight Time),712606.8000001907,A,mead,I,d,119,1,683.5,711923.3000001907,9017,WL,A,13.0
5,37.93300008773804,learn,60000.0,Wed May 07 2025 11:22:45 GMT-0400 (Eastern Daylight Time),712790.2000007629,A,meado,I,o,171,1,866.9000005722046,711923.3000001907,9017,WL,A,13.0
5,38.16700005531311,learn,60000.0,Wed May 07 2025 11:22:45 GMT-0400 (Eastern Daylight Time),713023.5,A,meadow,I,w,211,1,1100.1999998092651,711923.3000001907,9017,WL,A,13.0
5,38.533000230789185,learn,60000.0,Wed May 07 2025 11:22:45 GMT-0400 (Eastern Daylight Time),713389.6000003815,A,meadowenter,I,enter,346,1,1466.3000001907349,711923.3000001907,9017,WL,A,13.0
5,48.18300008773804,learn,60000.0,Wed May 07 2025 11:22:45 GMT-0400 (Eastern Daylight Time),723039.9000005722,A,f,I,f,9639,1,9649.800000190735,713390.1000003815,9017,WL,A,14.0
5,48.26700019836426,learn,60000.0,Wed May 07 2025 11:22:45 GMT-0400 (Eastern Daylight Time),723123.5,A,fi,I,i,65,1,9733.39999961853,713390.1000003815,9017,WL,A,14.0
5,48.35000014305115,learn,60000.0,Wed May 07 2025 11:22:45 GMT-0400 (Eastern Daylight Time),723206.8000001907,A,fin,I,n,62,1,9816.699999809265,713390.1000003815,9017,WL,A,14.0
5,48.56700015068054,learn,60000.0,Wed May 07 2025 11:22:45 GMT-0400 (Eastern Daylight Time),723423.5,A,fine,I,e,188,1,10033.39999961853,713390.1000003815,9017,WL,A,14.0
5,48.65000009536743,learn,60000.0,Wed May 07 2025 11:22:45 GMT-0400 (Eastern Daylight Time),723506.5,A,finer,I,r,58,1,10116.39999961853,713390.1000003815,9017,WL,A,14.0
5,49.099000215530396,learn,60000.0,Wed May 07 2025 11:22:45 GMT-0400 (Eastern Daylight Time),723956.0,A,fine,I,backspace,433,1,10565.89999961853,713390.1000003815,9017,WL,A,14.0
5,49.26600003242493,learn,60000.0,Wed May 07 2025 11:22:45 GMT-0400 (Eastern Daylight Time),724122.9000005722,A,fin,I,backspace,152,1,10732.800000190735,713390.1000003815,9017,WL,A,14.0
5,49.33300018310547,learn,60000.0,Wed May 07 2025 11:22:45 GMT-0400 (Eastern Daylight Time),724190.1000003815,A,fing,I,g,57,1,10800.0,713390.1000003815,9017,WL,A,14.0
5,49.467000007629395,learn,60000.0,Wed May 07 2025 11:22:45 GMT-0400 (Eastern Daylight Time),724323.2000007629,A,finge,I,e,116,1,10933.10000038147,713390.1000003815,9017,WL,A,14.0
5,49.56700015068054,learn,60000.0,Wed May 07 2025 11:22:45 GMT-0400 (Eastern Daylight Time),724423.5,A,finger,I,r,87,1,11033.39999961853,713390.1000003815,9017,WL,A,14.0
5,49.65000009536743,learn,60000.0,Wed May 07 2025 11:22:45 GMT-0400 (Eastern Daylight Time),724506.3000001907,A,fingerenter,I,enter,66,1,11116.199999809265,713390.1000003815,9017,WL,A,14.0
5,56.55000019073486,learn,60000.0,Wed May 07 2025 11:22:45 GMT-0400 (Eastern Daylight Time),731406.9000005722,A,k,I,k,6882,1,6900.300000190735,724506.6000003815,9017,WL,A,15.0
5,56.65000009536743,learn,60000.0,Wed May 07 2025 11:22:45 GMT-0400 (Eastern Daylight Time),731506.8000001907,A,ke,I,e,72,1,7000.199999809265,724506.6000003815,9017,WL,A,15.0
5,56.81700015068054,learn,60000.0,Wed May 07 2025 11:22:45 GMT-0400 (Eastern Daylight Time),731673.4000005722,A,key,I,y,144,1,7166.800000190735,724506.6000003815,9017,WL,A,15.0
5,56.99900007247925,learn,60000.0,Wed May 07 2025 11:22:45 GMT-0400 (Eastern Daylight Time),731856.2000007629,A,keyenter,I,enter,169,1,7349.60000038147,724506.6000003815,9017,WL,A,15.0
6,0.6670000553131104,distr,59332.99994468689,Wed May 07 2025 11:22:45 GMT-0400 (Eastern Daylight Time),820156.9000005722,B,s,I,s,648,1,666.6999998092651,819490.2000007629,9017,WL,A,1.0
6,0.7829999923706055,distr,59217.000007629395,Wed May 07 2025 11:22:45 GMT-0400 (Eastern Daylight Time),820272.5,B,sh,I,h,91,1,782.2999992370605,819490.2000007629,9017,WL,A,1.0
6,1.066999912261963,distr,58933.00008773804,Wed May 07 2025 11:22:45 GMT-0400 (Eastern Daylight Time),820556.6000003815,B,she,I,e,265,1,1066.3999996185303,819490.2000007629,9017,WL,A,1.0
6,1.2330000400543213,distr,58766.99995994568,Wed May 07 2025 11:22:45 GMT-0400 (Eastern Daylight Time),820722.8000001907,B,shee,I,e,141,1,1232.5999994277954,819490.2000007629,9017,WL,A,1.0
6,1.4000000953674316,distr,58599.99990463257,Wed May 07 2025 11:22:45 GMT-0400 (Eastern Daylight Time),820890.0,B,sheep,I,p,154,1,1399.7999992370605,819490.2000007629,9017,WL,A,1.0
6,1.7000000476837158,distr,58299.999952316284,Wed May 07 2025 11:22:45 GMT-0400 (Eastern Daylight Time),821189.6000003815,B,sheepenter,I,enter,271,1,1699.3999996185303,819490.2000007629,9017,WL,A,1.0
6,4.266999959945679,distr,55733.00004005432,Wed May 07 2025 11:22:45 GMT-0400 (Eastern Daylight Time),823756.8000001907,B,c,I,c,2551,1,2566.8999996185303,821189.9000005722,9017,WL,A,2.0
6,4.349999904632568,distr,55650.00009536743,Wed May 07 2025 11:22:45 GMT-0400 (Eastern Daylight Time),823839.7000007629,B,co,I,o,67,1,2649.800000190735,821189.9000005722,9017,WL,A,2.0
6,4.516999959945679,distr,55483.00004005432,Wed May 07 2025 11:22:45 GMT-0400 (Eastern Daylight Time),824006.7000007629,B,cou,I,u,152,1,2816.800000190735,821189.9000005722,9017,WL,A,2.0
6,4.599999904632568,distr,55400.00009536743,Wed May 07 2025 11:22:45 GMT-0400 (Eastern Daylight Time),824089.7000007629,B,coun,I,n,59,1,2899.800000190735,821189.9000005722,9017,WL,A,2.0
6,4.7170000076293945,distr,55282.999992370605,Wed May 07 2025 11:22:45 GMT-0400 (Eastern Daylight Time),824206.8000001907,B,count,I,t,106,1,3016.8999996185303,821189.9000005722,9017,WL,A,2.0
6,4.91700005531311,distr,55082.99994468689,Wed May 07 2025 11:22:45 GMT-0400 (Eastern Daylight Time),824406.7000007629,B,county,I,y,186,1,3216.800000190735,821189.9000005722,9017,WL,A,2.0
6,5.150000095367432,distr,54849.99990463257,Wed May 07 2025 11:22:45 GMT-0400 (Eastern Daylight Time),824639.5,B,countyenter,I,enter,204,1,3449.5999994277954,821189.9000005722,9017,WL,A,2.0
6,7.900000095367432,distr,52099.99990463257,Wed May 07 2025 11:22:45 GMT-0400 (Eastern Daylight Time),827390.1000003815,B,b,I,b,2732,1,2750.199999809265,824639.9000005722,9017,WL,A,3.0
6,7.983999967575073,distr,52016.00003242493,Wed May 07 2025 11:22:45 GMT-0400 (Eastern Daylight Time),827473.3000001907,B,bo,I,o,59,1,2833.3999996185303,824639.9000005722,9017,WL,A,3.0
6,8.200000047683716,distr,51799.999952316284,Wed May 07 2025 11:22:45 GMT-0400 (Eastern Daylight Time),827690.0,B,bow,I,w,186,1,3050.0999994277954,824639.9000005722,9017,WL,A,3.0
6,8.450000047683716,distr,51549.999952316284,Wed May 07 2025 11:22:45 GMT-0400 (Eastern Daylight Time),827940.0,B,bown,I,n,221,1,3300.0999994277954,824639.9000005722,9017,WL,A,3.0
6,9.25,distr,50750.0,Wed May 07 2025 11:22:45 GMT-0400 (Eastern Daylight Time),828740.1000003815,B,bow,I,backspace,774,1,4100.199999809265,824639.9000005722,9017,WL,A,3.0
6,9.516999959945679,distr,50483.00004005432,Wed May 07 2025 11:22:45 GMT-0400 (Eastern Daylight Time),829006.7000007629,B,bowl,I,l,245,1,4366.800000190735,824639.9000005722,9017,WL,A,3.0
6,10.632999897003174,distr,49367.000102996826,Wed May 07 2025 11:22:45 GMT-0400 (Eastern Daylight Time),830122.9000005722,B,bowlenter,I,enter,1099,1,5483.0,824639.9000005722,9017,WL,A,3.0
6,13.66599988937378,distr,46334.00011062622,Wed May 07 2025 11:22:45 GMT-0400 (Eastern Daylight Time),833156.2000007629,B,j,I,j,3026,1,3033.0,830123.2000007629,9017,WL,A,4.0
6,13.849999904632568,distr,46150.00009536743,Wed May 07 2025 11:22:45 GMT-0400 (Eastern Daylight Time),833340.0,B,ju,I,u,164,1,3216.7999992370605,830123.2000007629,9017,WL,A,4.0
6,14.099999904632568,distr,45900.00009536743,Wed May 07 2025 11:22:45 GMT-0400 (Eastern Daylight Time),833589.9000005722,B,jud,I,d,238,1,3466.699999809265,830123.2000007629,9017,WL,A,4.0
6,14.333999872207642,distr,45666.00012779236,Wed May 07 2025 11:22:45 GMT-0400 (Eastern Daylight Time),833823.3000001907,B,jude,I,e,211,1,3700.0999994277954,830123.2000007629,9017,WL,A,4.0
6,14.684000015258789,distr,45315.99998474121,Wed May 07 2025 11:22:45 GMT-0400 (Eastern Daylight Time),834173.3000001907,B,jud,I,backspace,330,1,4050.0999994277954,830123.2000007629,9017,WL,A,4.0
6,14.766999959945679,distr,45233.00004005432,Wed May 07 2025 11:22:45 GMT-0400 (Eastern Daylight Time),834256.5,B,judg,I,g,58,1,4133.299999237061,830123.2000007629,9017,WL,A,4.0
6,14.882999897003174,distr,45117.000102996826,Wed May 07 2025 11:22:45 GMT-0400 (Eastern Daylight Time),834373.2000007629,B,judge,I,e,101,1,4250.0,830123.2000007629,9017,WL,A,4.0
6,15.016999959945679,distr,44983.00004005432,Wed May 07 2025 11:22:45 GMT-0400 (Eastern Daylight Time),834506.3000001907,B,judgeenter,I,enter,115,1,4383.099999427795,830123.2000007629,9017,WL,A,4.0
6,19.91700005531311,distr,40082.99994468689,Wed May 07 2025 11:22:45 GMT-0400 (Eastern Daylight Time),839406.8000001907,B,i,I,i,4882,1,4900.199999809265,834506.6000003815,9017,WL,A,5.0
6,20.01699995994568,distr,39983.00004005432,Wed May 07 2025 11:22:45 GMT-0400 (Eastern Daylight Time),839506.7000007629,B,in,I,n,74,1,5000.10000038147,834506.6000003815,9017,WL,A,5.0
6,20.134000062942505,distr,39865.999937057495,Wed May 07 2025 11:22:45 GMT-0400 (Eastern Daylight Time),839623.3000001907,B,ins,I,s,95,1,5116.699999809265,834506.6000003815,9017,WL,A,5.0
6,20.366999864578247,distr,39633.00013542175,Wed May 07 2025 11:22:45 GMT-0400 (Eastern Daylight Time),839856.5,B,inse,I,e,211,1,5349.89999961853,834506.6000003815,9017,WL,A,5.0
6,20.58399987220764,distr,39416.00012779236,Wed May 07 2025 11:22:45 GMT-0400 (Eastern Daylight Time),840073.3000001907,B,insec,I,c,193,1,5566.699999809265,834506.6000003815,9017,WL,A,5.0
6,20.816999912261963,distr,39183.00008773804,Wed May 07 2025 11:22:45 GMT-0400 (Eastern Daylight Time),840306.6000003815,B,insect,I,t,209,1,5800.0,834506.6000003815,9017,WL,A,5.0
6,21.0,distr,39000.0,Wed May 07 2025 11:22:45 GMT-0400 (Eastern Daylight Time),840489.6000003815,B,insectenter,I,enter,165,1,5983.0,834506.6000003815,9017,WL,A,5.0
6,21.299999952316284,distr,38700.000047683716,Wed May 07 2025 11:22:45 GMT-0400 (Eastern Daylight Time),840790.0,B,d,I,d,290,1,300.0999994277954,840489.9000005722,9017,WL,A,6.0
6,21.467000007629395,distr,38532.999992370605,Wed May 07 2025 11:22:45 GMT-0400 (Eastern Daylight Time),840956.7000007629,B,da,I,a,146,1,466.80000019073486,840489.9000005722,9017,WL,A,6.0
6,21.632999897003174,distr,38367.000102996826,Wed May 07 2025 11:22:45 GMT-0400 (Eastern Daylight Time),841123.2000007629,B,daw,I,w,141,1,633.3000001907349,840489.9000005722,9017,WL,A,6.0
6,21.782999992370605,distr,38217.000007629395,Wed May 07 2025 11:22:45 GMT-0400 (Eastern Daylight Time),841273.3000001907,B,dawn,I,n,124,1,783.3999996185303,840489.9000005722,9017,WL,A,6.0
6,22.01699995994568,distr,37983.00004005432,Wed May 07 2025 11:22:45 GMT-0400 (Eastern Daylight Time),841506.2000007629,B,dawnenter,I,enter,201,1,1016.3000001907349,840489.9000005722,9017,WL,A,6.0
6,36.11699986457825,distr,23883.000135421753,Wed May 07 2025 11:22:45 GMT-0400 (Eastern Daylight Time),855606.7000007629,B,j,I,j,14091,1,14100.20000076294,841506.5,9017,WL,A,7.0
6,36.25,distr,23750.0,Wed May 07 2025 11:22:45 GMT-0400 (Eastern Daylight Time),855740.0,B,ja,I,a,106,1,14233.5,841506.5,9017,WL,A,7.0
6,36.40000009536743,distr,23599.99990463257,Wed May 07 2025 11:22:45 GMT-0400 (Eastern Daylight Time),855890.0,B,jac,I,c,126,1,14383.5,841506.5,9017,WL,A,7.0
6,36.5,distr,23500.0,Wed May 07 2025 11:22:45 GMT-0400 (Eastern Daylight Time),855989.9000005722,B,jack,I,k,72,1,14483.400000572205,841506.5,9017,WL,A,7.0
6,36.61699986457825,distr,23383.000135421753,Wed May 07 2025 11:22:45 GMT-0400 (Eastern Daylight Time),856106.4000005722,B,jacke,I,e,100,1,14599.900000572205,841506.5,9017,WL,A,7.0
6,36.73399996757507,distr,23266.000032424927,Wed May 07 2025 11:22:45 GMT-0400 (Eastern Daylight Time),856223.4000005722,B,jacket,I,t,95,1,14716.900000572205,841506.5,9017,WL,A,7.0
6,36.93300008773804,distr,23066.999912261963,Wed May 07 2025 11:22:45 GMT-0400 (Eastern Daylight Time),856422.9000005722,B,jacketenter,I,enter,185,1,14916.400000572205,841506.5,9017,WL,A,7.0
6,60.01699995994568,distr,-16.99995994567871,Wed May 07 2025 11:22:45 GMT-0400 (Eastern Daylight Time),879506.8000001907,B,None,I,None,23075,1,23083.5,856423.3000001907,9017,WL,A,8.0
7,1.4670000076293945,immed,58532.999992370605,Wed May 07 2025 11:22:45 GMT-0400 (Eastern Daylight Time),899823.3000001907,A,b,I,b,1445,1,1466.0999994277954,898357.2000007629,9017,WL,A,1.0
7,1.9830000400543213,immed,58016.99995994568,Wed May 07 2025 11:22:45 GMT-0400 (Eastern Daylight Time),900340.1000003815,A,bo,I,o,503,1,1982.8999996185303,898357.2000007629,9017,WL,A,1.0
7,2.2330000400543213,immed,57766.99995994568,Wed May 07 2025 11:22:45 GMT-0400 (Eastern Daylight Time),900589.9000005722,A,boo,I,o,227,1,2232.699999809265,898357.2000007629,9017,WL,A,1.0
7,2.5160000324249268,immed,57483.99996757507,Wed May 07 2025 11:22:45 GMT-0400 (Eastern Daylight Time),900872.9000005722,A,book,I,k,263,1,2515.699999809265,898357.2000007629,9017,WL,A,1.0
7,2.7830002307891846,immed,57216.999769210815,Wed May 07 2025 11:22:45 GMT-0400 (Eastern Daylight Time),901139.5,A,bookenter,I,enter,250,1,2782.2999992370605,898357.2000007629,9017,WL,A,1.0
7,3.4830000400543213,immed,56516.99995994568,Wed May 07 2025 11:22:45 GMT-0400 (Eastern Daylight Time),901840.0,A,t,I,t,681,1,700.1999998092651,901139.8000001907,9017,WL,A,2.0
7,3.633000135421753,immed,56366.99986457825,Wed May 07 2025 11:22:45 GMT-0400 (Eastern Daylight Time),901989.9000005722,A,tr,I,r,136,1,850.1000003814697,901139.8000001907,9017,WL,A,2.0
7,3.7330000400543213,immed,56266.99995994568,Wed May 07 2025 11:22:45 GMT-0400 (Eastern Daylight Time),902089.5,A,tra,I,a,67,1,949.6999998092651,901139.8000001907,9017,WL,A,2.0
7,5.450000047683716,immed,54549.999952316284,Wed May 07 2025 11:22:45 GMT-0400 (Eastern Daylight Time),903806.7000007629,A,trai,I,i,1704,1,2666.9000005722046,901139.8000001907,9017,WL,A,2.0
7,5.56600022315979,immed,54433.99977684021,Wed May 07 2025 11:22:45 GMT-0400 (Eastern Daylight Time),903923.2000007629,A,train,I,n,99,1,2783.4000005722046,901139.8000001907,9017,WL,A,2.0
7,5.833000183105469,immed,54166.99981689453,Wed May 07 2025 11:22:45 GMT-0400 (Eastern Daylight Time),904189.4000005722,A,trainenter,I,enter,246,1,3049.6000003814697,901139.8000001907,9017,WL,A,2.0
7,6.233000040054321,immed,53766.99995994568,Wed May 07 2025 11:22:45 GMT-0400 (Eastern Daylight Time),904589.7000007629,A,f,I,f,383,1,399.80000019073486,904189.9000005722,9017,WL,A,3.0
7,6.31600022315979,immed,53683.99977684021,Wed May 07 2025 11:22:45 GMT-0400 (Eastern Daylight Time),904673.0,A,fl,I,l,60,1,483.0999994277954,904189.9000005722,9017,WL,A,3.0
7,6.5,immed,53500.0,Wed May 07 2025 11:22:45 GMT-0400 (Eastern Daylight Time),904856.6000003815,A,flo,I,o,153,1,666.6999998092651,904189.9000005722,9017,WL,A,3.0
7,6.8500001430511475,immed,53149.99985694885,Wed May 07 2025 11:22:45 GMT-0400 (Eastern Daylight Time),905206.7000007629,A,flow,I,w,328,1,1016.8000001907349,904189.9000005722,9017,WL,A,3.0
7,7.033000230789185,immed,52966.999769210815,Wed May 07 2025 11:22:45 GMT-0400 (Eastern Daylight Time),905390.0,A,flowe,I,e,161,1,1200.0999994277954,904189.9000005722,9017,WL,A,3.0
7,7.0990002155303955,immed,52900.999784469604,Wed May 07 2025 11:22:45 GMT-0400 (Eastern Daylight Time),905456.3000001907,A,flower,I,r,49,1,1266.3999996185303,904189.9000005722,9017,WL,A,3.0
7,7.333000183105469,immed,52666.99981689453,Wed May 07 2025 11:22:45 GMT-0400 (Eastern Daylight Time),905689.4000005722,A,flowerenter,I,enter,210,1,1499.5,904189.9000005722,9017,WL,A,3.0
7,7.533000230789185,immed,52466.999769210815,Wed May 07 2025 11:22:45 GMT-0400 (Eastern Daylight Time),905889.9000005722,A,r,I,r,187,1,200.10000038146973,905689.8000001907,9017,WL,A,4.0
7,7.700000047683716,immed,52299.999952316284,Wed May 07 2025 11:22:45 GMT-0400 (Eastern Daylight Time),906056.6000003815,A,ru,I,u,151,1,366.80000019073486,905689.8000001907,9017,WL,A,4.0
7,7.833000183105469,immed,52166.99981689453,Wed May 07 2025 11:22:45 GMT-0400 (Eastern Daylight Time),906189.7000007629,A,rug,I,g,113,1,499.9000005722046,905689.8000001907,9017,WL,A,4.0
7,8.083000183105469,immed,51916.99981689453,Wed May 07 2025 11:22:45 GMT-0400 (Eastern Daylight Time),906439.4000005722,A,rugenter,I,enter,234,1,749.6000003814697,905689.8000001907,9017,WL,A,4.0
7,10.583000183105469,immed,49416.99981689453,Wed May 07 2025 11:22:45 GMT-0400 (Eastern Daylight Time),908939.9000005722,A,h,I,h,2478,1,2500.199999809265,906439.7000007629,9017,WL,A,5.0
7,10.666000127792358,immed,49333.99987220764,Wed May 07 2025 11:22:45 GMT-0400 (Eastern Daylight Time),909023.0,A,ha,I,a,69,1,2583.2999992370605,906439.7000007629,9017,WL,A,5.0
7,10.850000143051147,immed,49149.99985694885,Wed May 07 2025 11:22:45 GMT-0400 (Eastern Daylight Time),909206.5,A,hap,I,p,172,1,2766.7999992370605,906439.7000007629,9017,WL,A,5.0
7,11.0,immed,49000.0,Wed May 07 2025 11:22:45 GMT-0400 (Eastern Daylight Time),909356.3000001907,A,hapr,I,r,139,1,2916.5999994277954,906439.7000007629,9017,WL,A,5.0
7,11.25,immed,48750.0,Wed May 07 2025 11:22:45 GMT-0400 (Eastern Daylight Time),909606.4000005722,A,hap,I,backspace,229,1,3166.699999809265,906439.7000007629,9017,WL,A,5.0
7,11.416000127792358,immed,48583.99987220764,Wed May 07 2025 11:22:45 GMT-0400 (Eastern Daylight Time),909773.3000001907,A,ha,I,backspace,144,1,3333.5999994277954,906439.7000007629,9017,WL,A,5.0
7,11.516000032424927,immed,48483.99996757507,Wed May 07 2025 11:22:45 GMT-0400 (Eastern Daylight Time),909873.2000007629,A,har,I,r,82,1,3433.5,906439.7000007629,9017,WL,A,5.0
7,11.616000175476074,immed,48383.999824523926,Wed May 07 2025 11:22:45 GMT-0400 (Eastern Daylight Time),909973.2000007629,A,harp,I,p,74,1,3533.5,906439.7000007629,9017,WL,A,5.0
7,11.849000215530396,immed,48150.999784469604,Wed May 07 2025 11:22:45 GMT-0400 (Eastern Daylight Time),910206.0,A,harpenter,I,enter,221,1,3766.2999992370605,906439.7000007629,9017,WL,A,5.0
7,11.983000040054321,immed,48016.99995994568,Wed May 07 2025 11:22:45 GMT-0400 (Eastern Daylight Time),910340.1000003815,A,a,I,a,126,1,133.69999980926514,910206.4000005722,9017,WL,A,6.0
7,12.183000087738037,immed,47816.99991226196,Wed May 07 2025 11:22:45 GMT-0400 (Eastern Daylight Time),910539.7000007629,A,ap,I,p,180,1,333.30000019073486,910206.4000005722,9017,WL,A,6.0
7,12.333000183105469,immed,47666.99981689453,Wed May 07 2025 11:22:45 GMT-0400 (Eastern Daylight Time),910689.9000005722,A,app,I,p,126,1,483.5,910206.4000005722,9017,WL,A,6.0
7,12.516000032424927,immed,47483.99996757507,Wed May 07 2025 11:22:45 GMT-0400 (Eastern Daylight Time),910873.2000007629,A,appl,I,l,168,1,666.8000001907349,910206.4000005722,9017,WL,A,6.0
7,12.66700005531311,immed,47332.99994468689,Wed May 07 2025 11:22:45 GMT-0400 (Eastern Daylight Time),911023.2000007629,A,apple,I,e,128,1,816.8000001907349,910206.4000005722,9017,WL,A,6.0
7,13.016000032424927,immed,46983.99996757507,Wed May 07 2025 11:22:45 GMT-0400 (Eastern Daylight Time),911372.8000001907,A,appleenter,I,enter,323,1,1166.3999996185303,910206.4000005722,9017,WL,A,6.0
7,13.25,immed,46750.0,Wed May 07 2025 11:22:45 GMT-0400 (Eastern Daylight Time),911606.5,A,f,I,f,215,1,233.29999923706055,911373.2000007629,9017,WL,A,7.0
7,13.333000183105469,immed,46666.99981689453,Wed May 07 2025 11:22:45 GMT-0400 (Eastern Daylight Time),911689.6000003815,A,fi,I,i,56,1,316.3999996185303,911373.2000007629,9017,WL,A,7.0
7,13.416000127792358,immed,46583.99987220764,Wed May 07 2025 11:22:45 GMT-0400 (Eastern Daylight Time),911772.7000007629,A,fin,I,n,58,1,399.5,911373.2000007629,9017,WL,A,7.0
7,13.583000183105469,immed,46416.99981689453,Wed May 07 2025 11:22:45 GMT-0400 (Eastern Daylight Time),911939.9000005722,A,fing,I,g,150,1,566.6999998092651,911373.2000007629,9017,WL,A,7.0
7,13.75,immed,46250.0,Wed May 07 2025 11:22:45 GMT-0400 (Eastern Daylight Time),912106.4000005722,A,finge,I,e,140,1,733.1999998092651,911373.2000007629,9017,WL,A,7.0
7,13.800000190734863,immed,46199.99980926514,Wed May 07 2025 11:22:45 GMT-0400 (Eastern Daylight Time),912156.5,A,finger,I,r,32,1,783.2999992370605,911373.2000007629,9017,WL,A,7.0
7,14.033000230789185,immed,45966.999769210815,Wed May 07 2025 11:22:45 GMT-0400 (Eastern Daylight Time),912389.5,A,fingerenter,I,enter,211,1,1016.2999992370605,911373.2000007629,9017,WL,A,7.0
7,14.866000175476074,immed,45133.999824523926,Wed May 07 2025 11:22:45 GMT-0400 (Eastern Daylight Time),913223.2000007629,A,s,I,s,815,1,833.4000005722046,912389.8000001907,9017,WL,A,8.0
7,15.0,immed,45000.0,Wed May 07 2025 11:22:45 GMT-0400 (Eastern Daylight Time),913356.6000003815,A,sa,I,a,115,1,966.8000001907349,912389.8000001907,9017,WL,A,8.0
7,15.116000175476074,immed,44883.999824523926,Wed May 07 2025 11:22:45 GMT-0400 (Eastern Daylight Time),913473.2000007629,A,sal,I,l,94,1,1083.4000005722046,912389.8000001907,9017,WL,A,8.0
7,15.266000032424927,immed,44733.99996757507,Wed May 07 2025 11:22:45 GMT-0400 (Eastern Daylight Time),913622.8000001907,A,salt,I,t,127,1,1233.0,912389.8000001907,9017,WL,A,8.0
7,15.433000087738037,immed,44566.99991226196,Wed May 07 2025 11:22:45 GMT-0400 (Eastern Daylight Time),913789.4000005722,A,saltenter,I,enter,156,1,1399.6000003814697,912389.8000001907,9017,WL,A,8.0
7,19.516000032424927,immed,40483.99996757507,Wed May 07 2025 11:22:45 GMT-0400 (Eastern Daylight Time),917873.2000007629,A,m,I,m,4071,1,4083.5,913789.7000007629,9017,WL,A,9.0
7,19.599000215530396,immed,40400.999784469604,Wed May 07 2025 11:22:45 GMT-0400 (Eastern Daylight Time),917956.1000003815,A,me,I,e,72,1,4166.39999961853,913789.7000007629,9017,WL,A,9.0
7,19.75,immed,40250.0,Wed May 07 2025 11:22:45 GMT-0400 (Eastern Daylight Time),918106.5,A,mea,I,a,118,1,4316.799999237061,913789.7000007629,9017,WL,A,9.0
7,19.90000009536743,immed,40099.99990463257,Wed May 07 2025 11:22:45 GMT-0400 (Eastern Daylight Time),918256.5,A,mead,I,d,125,1,4466.799999237061,913789.7000007629,9017,WL,A,9.0
7,20.06600022315979,immed,39933.99977684021,Wed May 07 2025 11:22:45 GMT-0400 (Eastern Daylight Time),918423.0,A,meado,I,o,137,1,4633.299999237061,913789.7000007629,9017,WL,A,9.0
7,20.216000080108643,immed,39783.99991989136,Wed May 07 2025 11:22:45 GMT-0400 (Eastern Daylight Time),918573.0,A,meadow,I,w,138,1,4783.299999237061,913789.7000007629,9017,WL,A,9.0
7,20.66600012779236,immed,39333.99987220764,Wed May 07 2025 11:22:45 GMT-0400 (Eastern Daylight Time),919022.8000001907,A,meadowenter,I,enter,429,1,5233.099999427795,913789.7000007629,9017,WL,A,9.0
7,22.350000143051147,immed,37649.99985694885,Wed May 07 2025 11:22:45 GMT-0400 (Eastern Daylight Time),920706.6000003815,A,l,I,l,1661,1,1683.6000003814697,919023.0,9017,WL,A,10.0
7,22.516000032424927,immed,37483.99996757507,Wed May 07 2025 11:22:45 GMT-0400 (Eastern Daylight Time),920873.1000003815,A,lo,I,o,141,1,1850.1000003814697,919023.0,9017,WL,A,10.0
7,22.616000175476074,immed,37383.999824523926,Wed May 07 2025 11:22:45 GMT-0400 (Eastern Daylight Time),920973.1000003815,A,log,I,g,82,1,1950.1000003814697,919023.0,9017,WL,A,10.0
