block_c,block_dur,condition,countdown,datetime,endtime,list,multichar_response,project,response,response_time,session_number,start_end,starttime,subject_id,task,task_vers,trial
,,,,Wed Dec 17 2025 16:41:33 GMT-0600 (Central Standard Time),,,,O,space,600,1,,,7732,WL,C,
prac,,0,,Wed Dec 17 2025 16:41:33 GMT-0600 (Central Standard Time),,NA,b,O,b,1883,1,,,7732,WL,C,1.0
prac,,0,,Wed Dec 17 2025 16:41:33 GMT-0600 (Central Standard Time),,NA,bo,O,o,1380,1,,,7732,WL,C,1.0
prac,,0,,Wed Dec 17 2025 16:41:33 GMT-0600 (Central Standard Time),,NA,boo,O,o,153,1,,,7732,WL,C,1.0
prac,,0,,Wed Dec 17 2025 16:41:33 GMT-0600 (Central Standard Time),,NA,boos,O,s,201,1,,,7732,WL,C,1.0
prac,,0,,Wed Dec 17 2025 16:41:33 GMT-0600 (Central Standard Time),,NA,boosy,O,y,206,1,,,7732,WL,C,1.0
prac,,0,,Wed Dec 17 2025 16:41:33 GMT-0600 (Central Standard Time),,NA,boos,O,backspace,1862,1,,,7732,WL,C,1.0
prac,,0,,Wed Dec 17 2025 16:41:33 GMT-0600 (Central Standard Time),,NA,boost,O,t,613,1,,,7732,WL,C,1.0
prac,,0,,Wed Dec 17 2025 16:41:33 GMT-0600 (Central Standard Time),,NA,boostenter,O,enter,3214,1,,,7732,WL,C,1.0
1,4.5980000495910645,learn,55401.999950408936,Wed Dec 17 2025 16:41:33 GMT-0600 (Central Standard Time),188008.40000009537,A,w,O,w,4587,1,4597.0,183411.40000009537,7732,WL,C,1.0
1,4.747999906539917,learn,55252.00009346008,Wed Dec 17 2025 16:41:33 GMT-0600 (Central Standard Time),188158.5,A,wh,O,h,127,1,4747.099999904633,183411.40000009537,7732,WL,C,1.0
1,5.264999866485596,learn,54735.000133514404,Wed Dec 17 2025 16:41:33 GMT-0600 (Central Standard Time),188675.20000004768,A,whe,O,e,502,1,5263.799999952316,183411.40000009537,7732,WL,C,1.0
1,5.7149999141693115,learn,54285.00008583069,Wed Dec 17 2025 16:41:33 GMT-0600 (Central Standard Time),189124.80000007153,A,whea,O,a,434,1,5713.399999976158,183411.40000009537,7732,WL,C,1.0
1,6.297999858856201,learn,53702.0001411438,Wed Dec 17 2025 16:41:33 GMT-0600 (Central Standard Time),189708.20000004768,A,wheat,O,t,562,1,6296.799999952316,183411.40000009537,7732,WL,C,1.0
1,8.997999906539917,learn,51002.00009346008,Wed Dec 17 2025 16:41:33 GMT-0600 (Central Standard Time),192408.10000002384,A,wheatt,O,t,2674,1,8996.699999928474,183411.40000009537,7732,WL,C,1.0
1,9.180000066757202,learn,50819.9999332428,Wed Dec 17 2025 16:41:33 GMT-0600 (Central Standard Time),192590.30000007153,A,wheatto,O,o,160,1,9178.899999976158,183411.40000009537,7732,WL,C,1.0
1,12.831000089645386,learn,47168.999910354614,Wed Dec 17 2025 16:41:33 GMT-0600 (Central Standard Time),196240.80000007153,A,wheatt,O,backspace,3629,1,12829.399999976158,183411.40000009537,7732,WL,C,1.0
1,13.411999940872192,learn,46588.00005912781,Wed Dec 17 2025 16:41:33 GMT-0600 (Central Standard Time),196822.40000009537,A,wheat,O,backspace,558,1,13411.0,183411.40000009537,7732,WL,C,1.0
1,14.779000043869019,learn,45220.99995613098,Wed Dec 17 2025 16:41:33 GMT-0600 (Central Standard Time),198188.90000009537,A,wheatenter,O,enter,1352,1,14777.5,183411.40000009537,7732,WL,C,1.0
1,16.227999925613403,learn,43772.0000743866,Wed Dec 17 2025 16:41:33 GMT-0600 (Central Standard Time),199637.80000007153,A,t,O,t,1436,1,1448.6000000238419,198189.20000004768,7732,WL,C,2.0
1,16.527999877929688,learn,43472.00012207031,Wed Dec 17 2025 16:41:33 GMT-0600 (Central Standard Time),199938.10000002384,A,to,O,o,285,1,1748.8999999761581,198189.20000004768,7732,WL,C,2.0
1,16.977999925613403,learn,43022.0000743866,Wed Dec 17 2025 16:41:33 GMT-0600 (Central Standard Time),200388.60000002384,A,tow,O,w,439,1,2199.399999976158,198189.20000004768,7732,WL,C,2.0
1,17.310999870300293,learn,42689.00012969971,Wed Dec 17 2025 16:41:33 GMT-0600 (Central Standard Time),200721.30000007153,A,towe,O,e,319,1,2532.100000023842,198189.20000004768,7732,WL,C,2.0
1,17.662999868392944,learn,42337.000131607056,Wed Dec 17 2025 16:41:33 GMT-0600 (Central Standard Time),201073.0,A,tower,O,r,345,1,2883.7999999523163,198189.20000004768,7732,WL,C,2.0
1,21.526999950408936,learn,38473.000049591064,Wed Dec 17 2025 16:41:33 GMT-0600 (Central Standard Time),204936.70000004768,A,towerenter,O,enter,3853,1,6747.5,198189.20000004768,7732,WL,C,2.0
1,22.55900001525879,learn,37440.99998474121,Wed Dec 17 2025 16:41:33 GMT-0600 (Central Standard Time),205969.0,A,q,O,q,1018,1,1031.8999999761581,204937.10000002384,7732,WL,C,3.0
1,22.72499990463257,learn,37275.00009536743,Wed Dec 17 2025 16:41:33 GMT-0600 (Central Standard Time),206135.5,A,qu,O,u,147,1,1198.3999999761581,204937.10000002384,7732,WL,C,3.0
1,23.075999975204468,learn,36924.00002479553,Wed Dec 17 2025 16:41:33 GMT-0600 (Central Standard Time),206486.40000009537,A,que,O,e,339,1,1549.3000000715256,204937.10000002384,7732,WL,C,3.0
1,23.292999982833862,learn,36707.00001716614,Wed Dec 17 2025 16:41:33 GMT-0600 (Central Standard Time),206702.90000009537,A,quee,O,e,195,1,1765.8000000715256,204937.10000002384,7732,WL,C,3.0
1,23.70899987220764,learn,36291.00012779236,Wed Dec 17 2025 16:41:33 GMT-0600 (Central Standard Time),207118.80000007153,A,queen,O,n,394,1,2181.7000000476837,204937.10000002384,7732,WL,C,3.0
1,24.842000007629395,learn,35157.999992370605,Wed Dec 17 2025 16:41:33 GMT-0600 (Central Standard Time),208252.40000009537,A,queenenter,O,enter,1113,1,3315.3000000715256,204937.10000002384,7732,WL,C,3.0
1,25.741999864578247,learn,34258.00013542175,Wed Dec 17 2025 16:41:33 GMT-0600 (Central Standard Time),209152.10000002384,A,c,O,c,894,1,899.2999999523163,208252.80000007153,7732,WL,C,4.0
1,25.924999952316284,learn,34075.000047683716,Wed Dec 17 2025 16:41:33 GMT-0600 (Central Standard Time),209335.40000009537,A,co,O,o,171,1,1082.6000000238419,208252.80000007153,7732,WL,C,4.0
1,26.14199995994568,learn,33858.00004005432,Wed Dec 17 2025 16:41:33 GMT-0600 (Central Standard Time),209551.70000004768,A,cor,O,r,211,1,1298.8999999761581,208252.80000007153,7732,WL,C,4.0
1,26.39199995994568,learn,33608.00004005432,Wed Dec 17 2025 16:41:33 GMT-0600 (Central Standard Time),209801.80000007153,A,corn,O,n,233,1,1549.0,208252.80000007153,7732,WL,C,4.0
1,27.674000024795532,learn,32325.999975204468,Wed Dec 17 2025 16:41:33 GMT-0600 (Central Standard Time),211084.5,A,cornenter,O,enter,1259,1,2831.6999999284744,208252.80000007153,7732,WL,C,4.0
1,28.20799994468689,learn,31792.00005531311,Wed Dec 17 2025 16:41:33 GMT-0600 (Central Standard Time),211618.5,A,c,O,c,518,1,533.6999999284744,211084.80000007153,7732,WL,C,5.0
1,28.375999927520752,learn,31624.000072479248,Wed Dec 17 2025 16:41:33 GMT-0600 (Central Standard Time),211786.0,A,ca,O,a,157,1,701.1999999284744,211084.80000007153,7732,WL,C,5.0
1,28.740000009536743,learn,31259.999990463257,Wed Dec 17 2025 16:41:33 GMT-0600 (Central Standard Time),212150.5,A,cat,O,t,351,1,1065.6999999284744,211084.80000007153,7732,WL,C,5.0
1,28.891000032424927,learn,31108.999967575073,Wed Dec 17 2025 16:41:33 GMT-0600 (Central Standard Time),212301.0,A,catt,O,t,132,1,1216.1999999284744,211084.80000007153,7732,WL,C,5.0
1,29.19099998474121,learn,30809.00001525879,Wed Dec 17 2025 16:41:33 GMT-0600 (Central Standard Time),212601.0,A,cattl,O,l,282,1,1516.1999999284744,211084.80000007153,7732,WL,C,5.0
1,29.341000080108643,learn,30658.999919891357,Wed Dec 17 2025 16:41:33 GMT-0600 (Central Standard Time),212750.90000009537,A,cattle,O,e,127,1,1666.1000000238419,211084.80000007153,7732,WL,C,5.0
1,29.872999906539917,learn,30127.000093460083,Wed Dec 17 2025 16:41:33 GMT-0600 (Central Standard Time),213282.80000007153,A,cattleenter,O,enter,519,1,2198.0,211084.80000007153,7732,WL,C,5.0
1,30.707000017166138,learn,29292.999982833862,Wed Dec 17 2025 16:41:33 GMT-0600 (Central Standard Time),214116.80000007153,A,b,O,b,815,1,833.7000000476837,213283.10000002384,7732,WL,C,6.0
1,30.956000089645386,learn,29043.999910354614,Wed Dec 17 2025 16:41:33 GMT-0600 (Central Standard Time),214366.30000007153,A,bo,O,o,229,1,1083.2000000476837,213283.10000002384,7732,WL,C,6.0
1,31.306999921798706,learn,28693.000078201294,Wed Dec 17 2025 16:41:33 GMT-0600 (Central Standard Time),214717.40000009537,A,boy,O,y,331,1,1434.3000000715256,213283.10000002384,7732,WL,C,6.0
1,32.139999866485596,learn,27860.000133514404,Wed Dec 17 2025 16:41:33 GMT-0600 (Central Standard Time),215550.60000002384,A,boyenter,O,enter,821,1,2267.5,213283.10000002384,7732,WL,C,6.0
1,33.32299995422363,learn,26677.000045776367,Wed Dec 17 2025 16:41:33 GMT-0600 (Central Standard Time),216732.60000002384,A,s,O,s,1164,1,1181.6999999284744,215550.90000009537,7732,WL,C,7.0
1,33.43899989128113,learn,26561.000108718872,Wed Dec 17 2025 16:41:33 GMT-0600 (Central Standard Time),216849.5,A,sh,O,h,97,1,1298.5999999046326,215550.90000009537,7732,WL,C,7.0
1,33.75600004196167,learn,26243.99995803833,Wed Dec 17 2025 16:41:33 GMT-0600 (Central Standard Time),217166.5,A,sho,O,o,296,1,1615.5999999046326,215550.90000009537,7732,WL,C,7.0
1,33.888999938964844,learn,26111.000061035156,Wed Dec 17 2025 16:41:33 GMT-0600 (Central Standard Time),217299.20000004768,A,shor,O,r,125,1,1748.2999999523163,215550.90000009537,7732,WL,C,7.0
1,34.1729998588562,learn,25827.0001411438,Wed Dec 17 2025 16:41:33 GMT-0600 (Central Standard Time),217582.90000009537,A,shore,O,e,265,1,2032.0,215550.90000009537,7732,WL,C,7.0
1,35.32099986076355,learn,24679.00013923645,Wed Dec 17 2025 16:41:33 GMT-0600 (Central Standard Time),218731.60000002384,A,shoreenter,O,enter,1130,1,3180.6999999284744,215550.90000009537,7732,WL,C,7.0
1,36.23900008201599,learn,23760.99991798401,Wed Dec 17 2025 16:41:33 GMT-0600 (Central Standard Time),219649.10000002384,A,l,O,l,910,1,917.1999999284744,218731.90000009537,7732,WL,C,8.0
1,36.371999979019165,learn,23628.000020980835,Wed Dec 17 2025 16:41:33 GMT-0600 (Central Standard Time),219782.30000007153,A,le,O,e,120,1,1050.3999999761581,218731.90000009537,7732,WL,C,8.0
1,36.67199993133545,learn,23328.00006866455,Wed Dec 17 2025 16:41:33 GMT-0600 (Central Standard Time),220082.10000002384,A,let,O,t,283,1,1350.1999999284744,218731.90000009537,7732,WL,C,8.0
1,36.82299995422363,learn,23177.000045776367,Wed Dec 17 2025 16:41:33 GMT-0600 (Central Standard Time),220232.70000004768,A,lett,O,t,135,1,1500.7999999523163,218731.90000009537,7732,WL,C,8.0
1,37.0550000667572,learn,22944.999933242798,Wed Dec 17 2025 16:41:33 GMT-0600 (Central Standard Time),220465.10000002384,A,lette,O,e,226,1,1733.1999999284744,218731.90000009537,7732,WL,C,8.0
1,37.18899989128113,learn,22811.000108718872,Wed Dec 17 2025 16:41:33 GMT-0600 (Central Standard Time),220599.10000002384,A,letter,O,r,114,1,1867.1999999284744,218731.90000009537,7732,WL,C,8.0
1,37.787999868392944,learn,22212.000131607056,Wed Dec 17 2025 16:41:33 GMT-0600 (Central Standard Time),221198.5,A,letterenter,O,enter,585,1,2466.5999999046326,218731.90000009537,7732,WL,C,8.0
1,60.013999938964844,learn,-13.99993896484375,Wed Dec 17 2025 16:41:33 GMT-0600 (Central Standard Time),243424.90000009537,A,None,O,None,22221,1,22226.0,221198.90000009537,7732,WL,C,9.0
2,1.9189999103546143,learn,58081.000089645386,Wed Dec 17 2025 16:41:33 GMT-0600 (Central Standard Time),313238.40000009537,A,c,O,c,1905,1,1918.5,311319.90000009537,7732,WL,C,1.0
2,2.115999937057495,learn,57884.000062942505,Wed Dec 17 2025 16:41:33 GMT-0600 (Central Standard Time),313435.5,A,ca,O,a,185,1,2115.5999999046326,311319.90000009537,7732,WL,C,1.0
2,2.4819998741149902,learn,57518.00012588501,Wed Dec 17 2025 16:41:33 GMT-0600 (Central Standard Time),313801.7000000477,A,cat,O,t,352,1,2481.7999999523163,311319.90000009537,7732,WL,C,1.0
2,2.616999864578247,learn,57383.00013542175,Wed Dec 17 2025 16:41:33 GMT-0600 (Central Standard Time),313936.60000002384,A,catt,O,t,118,1,2616.6999999284744,311319.90000009537,7732,WL,C,1.0
2,2.865999937057495,learn,57134.000062942505,Wed Dec 17 2025 16:41:33 GMT-0600 (Central Standard Time),314185.60000002384,A,cattl,O,l,230,1,2865.6999999284744,311319.90000009537,7732,WL,C,1.0
2,3.0329999923706055,learn,56967.000007629395,Wed Dec 17 2025 16:41:33 GMT-0600 (Central Standard Time),314352.2000000477,A,cattle,O,e,152,1,3032.2999999523163,311319.90000009537,7732,WL,C,1.0
2,4.233000040054321,learn,55766.99995994568,Wed Dec 17 2025 16:41:33 GMT-0600 (Central Standard Time),315552.2000000477,A,cattleenter,O,enter,1177,1,4232.299999952316,311319.90000009537,7732,WL,C,1.0
2,5.349999904632568,learn,54650.00009536743,Wed Dec 17 2025 16:41:33 GMT-0600 (Central Standard Time),316669.5,A,c,O,c,1098,1,1117.0,315552.5,7732,WL,C,2.0
2,5.546999931335449,learn,54453.00006866455,Wed Dec 17 2025 16:41:33 GMT-0600 (Central Standard Time),316867.0,A,co,O,o,176,1,1314.5,315552.5,7732,WL,C,2.0
2,5.7799999713897705,learn,54220.00002861023,Wed Dec 17 2025 16:41:33 GMT-0600 (Central Standard Time),317100.10000002384,A,cor,O,r,221,1,1547.6000000238419,315552.5,7732,WL,C,2.0
2,5.980999946594238,learn,54019.00005340576,Wed Dec 17 2025 16:41:33 GMT-0600 (Central Standard Time),317301.0,A,corn,O,n,189,1,1748.5,315552.5,7732,WL,C,2.0
2,6.4649999141693115,learn,53535.00008583069,Wed Dec 17 2025 16:41:33 GMT-0600 (Central Standard Time),317784.5,A,cornenter,O,enter,468,1,2232.0,315552.5,7732,WL,C,2.0
2,7.230999946594238,learn,52769.00005340576,Wed Dec 17 2025 16:41:33 GMT-0600 (Central Standard Time),318550.3000000715,A,w,O,w,754,1,765.6000000238419,317784.7000000477,7732,WL,C,3.0
2,7.412999868392944,learn,52587.000131607056,Wed Dec 17 2025 16:41:33 GMT-0600 (Central Standard Time),318733.2000000477,A,wh,O,h,170,1,948.5,317784.7000000477,7732,WL,C,3.0
2,7.596999883651733,learn,52403.00011634827,Wed Dec 17 2025 16:41:33 GMT-0600 (Central Standard Time),318916.90000009537,A,whe,O,e,171,1,1132.2000000476837,317784.7000000477,7732,WL,C,3.0
2,7.831000089645386,learn,52168.999910354614,Wed Dec 17 2025 16:41:33 GMT-0600 (Central Standard Time),319150.2000000477,A,whea,O,a,211,1,1365.5,317784.7000000477,7732,WL,C,3.0
2,8.04800009727478,learn,51951.99990272522,Wed Dec 17 2025 16:41:33 GMT-0600 (Central Standard Time),319368.7000000477,A,wheat,O,t,204,1,1584.0,317784.7000000477,7732,WL,C,3.0
2,8.496000051498413,learn,51503.99994850159,Wed Dec 17 2025 16:41:33 GMT-0600 (Central Standard Time),319816.0,A,wheatenter,O,enter,442,1,2031.2999999523163,317784.7000000477,7732,WL,C,3.0
2,9.299000024795532,learn,50700.99997520447,Wed Dec 17 2025 16:41:33 GMT-0600 (Central Standard Time),320618.60000002384,A,b,O,b,795,1,802.2999999523163,319816.3000000715,7732,WL,C,4.0
2,9.496999979019165,learn,50503.000020980835,Wed Dec 17 2025 16:41:33 GMT-0600 (Central Standard Time),320816.7000000477,A,bo,O,o,191,1,1000.3999999761581,319816.3000000715,7732,WL,C,4.0
2,9.812999963760376,learn,50187.000036239624,Wed Dec 17 2025 16:41:33 GMT-0600 (Central Standard Time),321133.10000002384,A,boy,O,y,299,1,1316.7999999523163,319816.3000000715,7732,WL,C,4.0
2,10.397000074386597,learn,49602.9999256134,Wed Dec 17 2025 16:41:33 GMT-0600 (Central Standard Time),321716.40000009537,A,boyenter,O,enter,564,1,1900.1000000238419,319816.3000000715,7732,WL,C,4.0
2,12.378000020980835,learn,47621.999979019165,Wed Dec 17 2025 16:41:33 GMT-0600 (Central Standard Time),323698.10000002384,A,q,O,q,1975,1,1981.5,321716.60000002384,7732,WL,C,5.0
2,12.611999988555908,learn,47388.00001144409,Wed Dec 17 2025 16:41:33 GMT-0600 (Central Standard Time),323931.3000000715,A,qu,O,u,224,1,2214.7000000476837,321716.60000002384,7732,WL,C,5.0
2,12.894999980926514,learn,47105.000019073486,Wed Dec 17 2025 16:41:33 GMT-0600 (Central Standard Time),324214.3000000715,A,que,O,e,270,1,2497.7000000476837,321716.60000002384,7732,WL,C,5.0
2,13.062999963760376,learn,46937.000036239624,Wed Dec 17 2025 16:41:33 GMT-0600 (Central Standard Time),324382.40000009537,A,quee,O,e,149,1,2665.8000000715256,321716.60000002384,7732,WL,C,5.0
2,13.295000076293945,learn,46704.999923706055,Wed Dec 17 2025 16:41:33 GMT-0600 (Central Standard Time),324614.8000000715,A,queen,O,n,211,1,2898.2000000476837,321716.60000002384,7732,WL,C,5.0
2,13.861999988555908,learn,46138.00001144409,Wed Dec 17 2025 16:41:33 GMT-0600 (Central Standard Time),325181.8000000715,A,queenenter,O,enter,556,1,3465.2000000476837,321716.60000002384,7732,WL,C,5.0
2,15.328999996185303,learn,44671.0000038147,Wed Dec 17 2025 16:41:33 GMT-0600 (Central Standard Time),326648.3000000715,A,f,O,f,1445,1,1466.3000000715256,325182.0,7732,WL,C,6.0
2,15.496000051498413,learn,44503.99994850159,Wed Dec 17 2025 16:41:33 GMT-0600 (Central Standard Time),326815.3000000715,A,fl,O,l,161,1,1633.3000000715256,325182.0,7732,WL,C,6.0
2,15.727999925613403,learn,44272.0000743866,Wed Dec 17 2025 16:41:33 GMT-0600 (Central Standard Time),327047.5,A,fla,O,a,219,1,1865.5,325182.0,7732,WL,C,6.0
2,15.960999965667725,learn,44039.000034332275,Wed Dec 17 2025 16:41:33 GMT-0600 (Central Standard Time),327281.0,A,flag,O,g,226,1,2099.0,325182.0,7732,WL,C,6.0
2,16.76099991798401,learn,43239.00008201599,Wed Dec 17 2025 16:41:33 GMT-0600 (Central Standard Time),328080.60000002384,A,flagenter,O,enter,783,1,2898.600000023842,325182.0,7732,WL,C,6.0
2,17.51099991798401,learn,42489.00008201599,Wed Dec 17 2025 16:41:33 GMT-0600 (Central Standard Time),328831.10000002384,A,c,O,c,730,1,750.1999999284744,328080.90000009537,7732,WL,C,7.0
2,17.74399995803833,learn,42256.00004196167,Wed Dec 17 2025 16:41:33 GMT-0600 (Central Standard Time),329063.7000000477,A,ca,O,a,212,1,982.7999999523163,328080.90000009537,7732,WL,C,7.0
2,17.91100001335144,learn,42088.99998664856,Wed Dec 17 2025 16:41:33 GMT-0600 (Central Standard Time),329230.60000002384,A,cam,O,m,156,1,1149.6999999284744,328080.90000009537,7732,WL,C,7.0
2,18.259999990463257,learn,41740.00000953674,Wed Dec 17 2025 16:41:33 GMT-0600 (Central Standard Time),329580.0,A,camp,O,p,340,1,1499.0999999046326,328080.90000009537,7732,WL,C,7.0
2,19.026999950408936,learn,40973.000049591064,Wed Dec 17 2025 16:41:33 GMT-0600 (Central Standard Time),330346.5,A,campenter,O,enter,757,1,2265.5999999046326,328080.90000009537,7732,WL,C,7.0
2,19.609999895095825,learn,40390.000104904175,Wed Dec 17 2025 16:41:33 GMT-0600 (Central Standard Time),330929.7000000477,A,s,O,s,569,1,582.8999999761581,330346.8000000715,7732,WL,C,8.0
2,19.777999877929688,learn,40222.00012207031,Wed Dec 17 2025 16:41:33 GMT-0600 (Central Standard Time),331097.7000000477,A,su,O,u,150,1,750.8999999761581,330346.8000000715,7732,WL,C,8.0
2,20.027999877929688,learn,39972.00012207031,Wed Dec 17 2025 16:41:33 GMT-0600 (Central Standard Time),331347.60000002384,A,sug,O,g,241,1,1000.7999999523163,330346.8000000715,7732,WL,C,8.0
2,20.24399995803833,learn,39756.00004196167,Wed Dec 17 2025 16:41:33 GMT-0600 (Central Standard Time),331563.7000000477,A,suga,O,a,198,1,1216.8999999761581,330346.8000000715,7732,WL,C,8.0
2,20.443000078201294,learn,39556.999921798706,Wed Dec 17 2025 16:41:33 GMT-0600 (Central Standard Time),331762.3000000715,A,sugar,O,r,190,1,1415.5,330346.8000000715,7732,WL,C,8.0
2,21.009000062942505,learn,38990.999937057495,Wed Dec 17 2025 16:41:33 GMT-0600 (Central Standard Time),332328.90000009537,A,sugarenter,O,enter,551,1,1982.1000000238419,330346.8000000715,7732,WL,C,8.0
2,21.609999895095825,learn,38390.000104904175,Wed Dec 17 2025 16:41:33 GMT-0600 (Central Standard Time),332929.2000000477,A,d,O,d,589,1,600.1000000238419,332329.10000002384,7732,WL,C,9.0
2,21.825999975204468,learn,38174.00002479553,Wed Dec 17 2025 16:41:33 GMT-0600 (Central Standard Time),333145.40000009537,A,do,O,o,199,1,816.3000000715256,332329.10000002384,7732,WL,C,9.0
2,21.99399995803833,learn,38006.00004196167,Wed Dec 17 2025 16:41:33 GMT-0600 (Central Standard Time),333313.40000009537,A,doc,O,c,159,1,984.3000000715256,332329.10000002384,7732,WL,C,9.0
2,22.377000093460083,learn,37622.99990653992,Wed Dec 17 2025 16:41:33 GMT-0600 (Central Standard Time),333696.90000009537,A,doct,O,t,359,1,1367.8000000715256,332329.10000002384,7732,WL,C,9.0
2,22.55999994277954,learn,37440.00005722046,Wed Dec 17 2025 16:41:33 GMT-0600 (Central Standard Time),333879.2000000477,A,docto,O,o,170,1,1550.1000000238419,332329.10000002384,7732,WL,C,9.0
2,22.759000062942505,learn,37240.999937057495,Wed Dec 17 2025 16:41:33 GMT-0600 (Central Standard Time),334078.7000000477,A,doctor,O,r,187,1,1749.6000000238419,332329.10000002384,7732,WL,C,9.0
2,23.325000047683716,learn,36674.999952316284,Wed Dec 17 2025 16:41:33 GMT-0600 (Central Standard Time),334645.10000002384,A,doctorenter,O,enter,547,1,2316.0,332329.10000002384,7732,WL,C,9.0
2,25.592000007629395,learn,34407.999992370605,Wed Dec 17 2025 16:41:33 GMT-0600 (Central Standard Time),336912.10000002384,A,n,O,n,2262,1,2266.7999999523163,334645.3000000715,7732,WL,C,10.0
2,25.858999967575073,learn,34141.00003242493,Wed Dec 17 2025 16:41:33 GMT-0600 (Central Standard Time),337178.7000000477,A,na,O,a,251,1,2533.399999976158,334645.3000000715,7732,WL,C,10.0
2,26.075000047683716,learn,33924.999952316284,Wed Dec 17 2025 16:41:33 GMT-0600 (Central Standard Time),337394.3000000715,A,nai,O,i,211,1,2749.0,334645.3000000715,7732,WL,C,10.0
2,26.323999881744385,learn,33676.000118255615,Wed Dec 17 2025 16:41:33 GMT-0600 (Central Standard Time),337644.0,A,nail,O,l,240,1,2998.6999999284744,334645.3000000715,7732,WL,C,10.0
2,27.14199995994568,learn,32858.00004005432,Wed Dec 17 2025 16:41:33 GMT-0600 (Central Standard Time),338461.5,A,nailenter,O,enter,798,1,3816.1999999284744,334645.3000000715,7732,WL,C,10.0
2,32.539000034332275,learn,27460.999965667725,Wed Dec 17 2025 16:41:33 GMT-0600 (Central Standard Time),343858.3000000715,A,b,O,b,5389,1,5396.5,338461.8000000715,7732,WL,C,11.0
2,32.69000005722046,learn,27309.99994277954,Wed Dec 17 2025 16:41:33 GMT-0600 (Central Standard Time),344009.2000000477,A,bo,O,o,138,1,5547.399999976158,338461.8000000715,7732,WL,C,11.0
2,32.99000000953674,learn,27009.999990463257,Wed Dec 17 2025 16:41:33 GMT-0600 (Central Standard Time),344309.10000002384,A,boy,O,y,281,1,5847.299999952316,338461.8000000715,7732,WL,C,11.0
2,33.456000089645386,learn,26543.999910354614,Wed Dec 17 2025 16:41:33 GMT-0600 (Central Standard Time),344775.90000009537,A,boyenter,O,enter,460,1,6314.100000023842,338461.8000000715,7732,WL,C,11.0
2,41.1029999256134,learn,18897.000074386597,Wed Dec 17 2025 16:41:33 GMT-0600 (Central Standard Time),352422.5,A,b,O,b,7635,1,7646.299999952316,344776.2000000477,7732,WL,C,12.0
2,41.269999980926514,learn,18730.000019073486,Wed Dec 17 2025 16:41:33 GMT-0600 (Central Standard Time),352589.40000009537,A,bo,O,o,147,1,7813.200000047684,344776.2000000477,7732,WL,C,12.0
2,41.687000036239624,learn,18312.999963760376,Wed Dec 17 2025 16:41:33 GMT-0600 (Central Standard Time),353007.10000002384,A,bod,O,d,406,1,8230.899999976158,344776.2000000477,7732,WL,C,12.0
2,41.88499999046326,learn,18115.000009536743,Wed Dec 17 2025 16:41:33 GMT-0600 (Central Standard Time),353204.8000000715,A,body,O,y,181,1,8428.600000023842,344776.2000000477,7732,WL,C,12.0
2,42.7720000743866,learn,17227.999925613403,Wed Dec 17 2025 16:41:33 GMT-0600 (Central Standard Time),354091.7000000477,A,bodyenter,O,enter,872,1,9315.5,344776.2000000477,7732,WL,C,12.0
2,43.61899995803833,learn,16381.00004196167,Wed Dec 17 2025 16:41:33 GMT-0600 (Central Standard Time),354938.60000002384,A,h,O,h,841,1,846.6999999284744,354091.90000009537,7732,WL,C,13.0
2,43.819000005722046,learn,16180.999994277954,Wed Dec 17 2025 16:41:33 GMT-0600 (Central Standard Time),355138.8000000715,A,ho,O,o,191,1,1046.8999999761581,354091.90000009537,7732,WL,C,13.0
2,44.15700006484985,learn,15842.999935150146,Wed Dec 17 2025 16:41:33 GMT-0600 (Central Standard Time),355476.3000000715,A,hom,O,m,330,1,1384.3999999761581,354091.90000009537,7732,WL,C,13.0
2,44.38499999046326,learn,15615.000009536743,Wed Dec 17 2025 16:41:33 GMT-0600 (Central Standard Time),355705.2000000477,A,home,O,e,215,1,1613.2999999523163,354091.90000009537,7732,WL,C,13.0
2,44.9689998626709,learn,15031.000137329102,Wed Dec 17 2025 16:41:33 GMT-0600 (Central Standard Time),356289.0,A,homeenter,O,enter,576,1,2197.0999999046326,354091.90000009537,7732,WL,C,13.0
2,54.23099994659424,learn,5769.000053405762,Wed Dec 17 2025 16:41:33 GMT-0600 (Central Standard Time),365551.90000009537,A,t,O,t,9242,1,9262.600000023842,356289.3000000715,7732,WL,C,14.0
2,54.56500005722046,learn,5434.999942779541,Wed Dec 17 2025 16:41:33 GMT-0600 (Central Standard Time),365885.40000009537,A,to,O,o,322,1,9596.100000023842,356289.3000000715,7732,WL,C,14.0
2,54.930999994277954,learn,5069.000005722046,Wed Dec 17 2025 16:41:33 GMT-0600 (Central Standard Time),366251.7000000477,A,tow,O,w,350,1,9962.399999976158,356289.3000000715,7732,WL,C,14.0
2,55.28099989891052,learn,4719.0001010894775,Wed Dec 17 2025 16:41:33 GMT-0600 (Central Standard Time),366601.0,A,towe,O,e,334,1,10311.699999928474,356289.3000000715,7732,WL,C,14.0
2,55.56500005722046,learn,4434.999942779541,Wed Dec 17 2025 16:41:33 GMT-0600 (Central Standard Time),366885.0,A,tower,O,r,266,1,10595.699999928474,356289.3000000715,7732,WL,C,14.0
2,55.94799995422363,learn,4052.000045776367,Wed Dec 17 2025 16:41:33 GMT-0600 (Central Standard Time),367268.7000000477,A,towerenter,O,enter,366,1,10979.399999976158,356289.3000000715,7732,WL,C,14.0
2,59.17899990081787,learn,821.0000991821289,Wed Dec 17 2025 16:41:33 GMT-0600 (Central Standard Time),370499.8000000715,A,l,O,l,3214,1,3230.8000000715256,367269.0,7732,WL,C,15.0
2,59.44799995422363,learn,552.0000457763672,Wed Dec 17 2025 16:41:33 GMT-0600 (Central Standard Time),370768.10000002384,A,le,O,e,248,1,3499.100000023842,367269.0,7732,WL,C,15.0
2,59.8970000743866,learn,102.99992561340332,Wed Dec 17 2025 16:41:33 GMT-0600 (Central Standard Time),371217.10000002384,A,let,O,t,434,1,3948.100000023842,367269.0,7732,WL,C,15.0
2,60.013999938964844,learn,-13.99993896484375,Wed Dec 17 2025 16:41:33 GMT-0600 (Central Standard Time),371334.8000000715,A,letNone,O,None,114,1,4065.8000000715256,367269.0,7732,WL,C,15.0
3,1.6649999618530273,learn,58335.00003814697,Wed Dec 17 2025 16:41:33 GMT-0600 (Central Standard Time),448275.7000000477,A,c,O,c,1647,1,1665.1000000238419,446610.60000002384,7732,WL,C,1.0
3,1.8489999771118164,learn,58151.00002288818,Wed Dec 17 2025 16:41:33 GMT-0600 (Central Standard Time),448459.60000002384,A,co,O,o,172,1,1849.0,446610.60000002384,7732,WL,C,1.0
3,2.1469998359680176,learn,57853.00016403198,Wed Dec 17 2025 16:41:33 GMT-0600 (Central Standard Time),448756.90000009537,A,cor,O,r,277,1,2146.3000000715256,446610.60000002384,7732,WL,C,1.0
3,2.5139999389648438,learn,57486.000061035156,Wed Dec 17 2025 16:41:33 GMT-0600 (Central Standard Time),449124.3000000715,A,corn,O,n,359,1,2513.7000000476837,446610.60000002384,7732,WL,C,1.0
3,3.315000057220459,learn,56684.99994277954,Wed Dec 17 2025 16:41:33 GMT-0600 (Central Standard Time),449925.60000002384,A,cornenter,O,enter,791,1,3315.0,446610.60000002384,7732,WL,C,1.0
3,4.23199987411499,learn,55768.00012588501,Wed Dec 17 2025 16:41:33 GMT-0600 (Central Standard Time),450841.8000000715,A,w,O,w,909,1,916.0,449925.8000000715,7732,WL,C,2.0
3,4.549000024795532,learn,55450.99997520447,Wed Dec 17 2025 16:41:33 GMT-0600 (Central Standard Time),451159.10000002384,A,wh,O,h,296,1,1233.2999999523163,449925.8000000715,7732,WL,C,2.0
3,4.764999866485596,learn,55235.000133514404,Wed Dec 17 2025 16:41:33 GMT-0600 (Central Standard Time),451375.3000000715,A,whe,O,e,201,1,1449.5,449925.8000000715,7732,WL,C,2.0
3,5.281999826431274,learn,54718.000173568726,Wed Dec 17 2025 16:41:33 GMT-0600 (Central Standard Time),451892.40000009537,A,whea,O,a,498,1,1966.6000000238419,449925.8000000715,7732,WL,C,2.0
3,5.63100004196167,learn,54368.99995803833,Wed Dec 17 2025 16:41:33 GMT-0600 (Central Standard Time),452241.2000000477,A,wheat,O,t,333,1,2315.399999976158,449925.8000000715,7732,WL,C,2.0
3,6.263999938964844,learn,53736.000061035156,Wed Dec 17 2025 16:41:33 GMT-0600 (Central Standard Time),452874.2000000477,A,wheatenter,O,enter,625,1,2948.399999976158,449925.8000000715,7732,WL,C,2.0
3,6.914999961853027,learn,53085.00003814697,Wed Dec 17 2025 16:41:33 GMT-0600 (Central Standard Time),453525.60000002384,A,c,O,c,633,1,651.1999999284744,452874.40000009537,7732,WL,C,3.0
3,7.4709999561309814,learn,52529.00004386902,Wed Dec 17 2025 16:41:33 GMT-0600 (Central Standard Time),454081.7000000477,A,ca,O,a,549,1,1207.2999999523163,452874.40000009537,7732,WL,C,3.0
3,8.02999997138977,learn,51970.00002861023,Wed Dec 17 2025 16:41:33 GMT-0600 (Central Standard Time),454640.60000002384,A,cat,O,t,546,1,1766.1999999284744,452874.40000009537,7732,WL,C,3.0
3,8.230000019073486,learn,51769.999980926514,Wed Dec 17 2025 16:41:33 GMT-0600 (Central Standard Time),454840.5,A,catt,O,t,185,1,1966.0999999046326,452874.40000009537,7732,WL,C,3.0
3,8.562999963760376,learn,51437.000036239624,Wed Dec 17 2025 16:41:33 GMT-0600 (Central Standard Time),455173.10000002384,A,cattl,O,l,315,1,2298.6999999284744,452874.40000009537,7732,WL,C,3.0
3,8.797999858856201,learn,51202.0001411438,Wed Dec 17 2025 16:41:33 GMT-0600 (Central Standard Time),455408.7000000477,A,cattle,O,e,220,1,2534.2999999523163,452874.40000009537,7732,WL,C,3.0
3,9.263999938964844,learn,50736.000061035156,Wed Dec 17 2025 16:41:33 GMT-0600 (Central Standard Time),455874.2000000477,A,cattleenter,O,enter,457,1,2999.7999999523163,452874.40000009537,7732,WL,C,3.0
3,10.379999876022339,learn,49620.00012397766,Wed Dec 17 2025 16:41:33 GMT-0600 (Central Standard Time),456989.90000009537,A,t,O,t,1096,1,1115.5,455874.40000009537,7732,WL,C,4.0
3,10.649999856948853,learn,49350.00014305115,Wed Dec 17 2025 16:41:33 GMT-0600 (Central Standard Time),457259.7000000477,A,to,O,o,264,1,1385.2999999523163,455874.40000009537,7732,WL,C,4.0
3,10.978999853134155,learn,49021.000146865845,Wed Dec 17 2025 16:41:33 GMT-0600 (Central Standard Time),457589.7000000477,A,tow,O,w,319,1,1715.2999999523163,455874.40000009537,7732,WL,C,4.0
3,11.26199984550476,learn,48738.00015449524,Wed Dec 17 2025 16:41:33 GMT-0600 (Central Standard Time),457872.60000002384,A,towe,O,e,274,1,1998.1999999284744,455874.40000009537,7732,WL,C,4.0
3,11.563999891281128,learn,48436.00010871887,Wed Dec 17 2025 16:41:33 GMT-0600 (Central Standard Time),458173.7000000477,A,tower,O,r,282,1,2299.2999999523163,455874.40000009537,7732,WL,C,4.0
3,11.961999893188477,learn,48038.00010681152,Wed Dec 17 2025 16:41:33 GMT-0600 (Central Standard Time),458572.5,A,towerenter,O,enter,380,1,2698.0999999046326,455874.40000009537,7732,WL,C,4.0
3,13.077999830245972,learn,46922.00016975403,Wed Dec 17 2025 16:41:33 GMT-0600 (Central Standard Time),459688.8000000715,A,c,O,c,1102,1,1115.0,458573.8000000715,7732,WL,C,5.0
3,13.36299991607666,learn,46637.00008392334,Wed Dec 17 2025 16:41:33 GMT-0600 (Central Standard Time),459973.0,A,ca,O,a,266,1,1399.1999999284744,458573.8000000715,7732,WL,C,5.0
3,13.530999898910522,learn,46469.00010108948,Wed Dec 17 2025 16:41:33 GMT-0600 (Central Standard Time),460141.7000000477,A,cam,O,m,149,1,1567.8999999761581,458573.8000000715,7732,WL,C,5.0
3,14.04699993133545,learn,45953.00006866455,Wed Dec 17 2025 16:41:33 GMT-0600 (Central Standard Time),460656.90000009537,A,camp,O,p,509,1,2083.100000023842,458573.8000000715,7732,WL,C,5.0
3,14.661999940872192,learn,45338.00005912781,Wed Dec 17 2025 16:41:33 GMT-0600 (Central Standard Time),461272.7000000477,A,campenter,O,enter,610,1,2698.899999976158,458573.8000000715,7732,WL,C,5.0
3,15.760999917984009,learn,44239.00008201599,Wed Dec 17 2025 16:41:33 GMT-0600 (Central Standard Time),462371.10000002384,A,f,O,f,1090,1,1098.1000000238419,461273.0,7732,WL,C,6.0
3,15.944000005722046,learn,44055.999994277954,Wed Dec 17 2025 16:41:33 GMT-0600 (Central Standard Time),462553.8000000715,A,fl,O,l,174,1,1280.8000000715256,461273.0,7732,WL,C,6.0
3,16.16100001335144,learn,43838.99998664856,Wed Dec 17 2025 16:41:33 GMT-0600 (Central Standard Time),462771.60000002384,A,fla,O,a,208,1,1498.6000000238419,461273.0,7732,WL,C,6.0
3,16.41100001335144,learn,43588.99998664856,Wed Dec 17 2025 16:41:33 GMT-0600 (Central Standard Time),463021.60000002384,A,flag,O,g,230,1,1748.6000000238419,461273.0,7732,WL,C,6.0
3,16.876999855041504,learn,43123.000144958496,Wed Dec 17 2025 16:41:33 GMT-0600 (Central Standard Time),463487.40000009537,A,flagenter,O,enter,442,1,2214.4000000953674,461273.0,7732,WL,C,6.0
3,17.444000005722046,learn,42555.999994277954,Wed Dec 17 2025 16:41:33 GMT-0600 (Central Standard Time),464054.0,A,s,O,s,547,1,566.2999999523163,463487.7000000477,7732,WL,C,7.0
3,17.609999895095825,learn,42390.000104904175,Wed Dec 17 2025 16:41:33 GMT-0600 (Central Standard Time),464220.2000000477,A,su,O,u,147,1,732.5,463487.7000000477,7732,WL,C,7.0
3,17.82799983024597,learn,42172.00016975403,Wed Dec 17 2025 16:41:33 GMT-0600 (Central Standard Time),464438.0,A,sug,O,g,206,1,950.2999999523163,463487.7000000477,7732,WL,C,7.0
3,18.026999950408936,learn,41973.000049591064,Wed Dec 17 2025 16:41:33 GMT-0600 (Central Standard Time),464637.2000000477,A,suga,O,a,188,1,1149.5,463487.7000000477,7732,WL,C,7.0
3,18.26199984550476,learn,41738.00015449524,Wed Dec 17 2025 16:41:33 GMT-0600 (Central Standard Time),464872.2000000477,A,sugar,O,r,227,1,1384.5,463487.7000000477,7732,WL,C,7.0
3,18.72599983215332,learn,41274.00016784668,Wed Dec 17 2025 16:41:33 GMT-0600 (Central Standard Time),465336.3000000715,A,sugarenter,O,enter,450,1,1848.6000000238419,463487.7000000477,7732,WL,C,7.0
3,19.41100001335144,learn,40588.99998664856,Wed Dec 17 2025 16:41:33 GMT-0600 (Central Standard Time),466021.2000000477,A,h,O,h,666,1,684.7000000476837,465336.5,7732,WL,C,8.0
3,19.609999895095825,learn,40390.000104904175,Wed Dec 17 2025 16:41:33 GMT-0600 (Central Standard Time),466220.0,A,ho,O,o,179,1,883.5,465336.5,7732,WL,C,8.0
3,19.908999919891357,learn,40091.00008010864,Wed Dec 17 2025 16:41:33 GMT-0600 (Central Standard Time),466518.8000000715,A,hom,O,m,286,1,1182.3000000715256,465336.5,7732,WL,C,8.0
3,20.14400005340576,learn,39855.99994659424,Wed Dec 17 2025 16:41:33 GMT-0600 (Central Standard Time),466754.40000009537,A,home,O,e,222,1,1417.9000000953674,465336.5,7732,WL,C,8.0
3,20.493000030517578,learn,39506.99996948242,Wed Dec 17 2025 16:41:33 GMT-0600 (Central Standard Time),467102.8000000715,A,homeenter,O,enter,326,1,1766.3000000715256,465336.5,7732,WL,C,8.0
3,22.16100001335144,learn,37838.99998664856,Wed Dec 17 2025 16:41:33 GMT-0600 (Central Standard Time),468771.2000000477,A,q,O,q,1661,1,1668.1000000238419,467103.10000002384,7732,WL,C,9.0
3,22.359999895095825,learn,37640.000104904175,Wed Dec 17 2025 16:41:33 GMT-0600 (Central Standard Time),468970.0,A,qu,O,u,193,1,1866.8999999761581,467103.10000002384,7732,WL,C,9.0
3,22.575999975204468,learn,37424.00002479553,Wed Dec 17 2025 16:41:33 GMT-0600 (Central Standard Time),469186.7000000477,A,que,O,e,201,1,2083.600000023842,467103.10000002384,7732,WL,C,9.0
3,22.759000062942505,learn,37240.999937057495,Wed Dec 17 2025 16:41:33 GMT-0600 (Central Standard Time),469369.3000000715,A,quee,O,e,169,1,2266.2000000476837,467103.10000002384,7732,WL,C,9.0
3,22.97699999809265,learn,37023.00000190735,Wed Dec 17 2025 16:41:33 GMT-0600 (Central Standard Time),469587.0,A,queen,O,n,200,1,2483.899999976158,467103.10000002384,7732,WL,C,9.0
3,23.54200005531311,learn,36457.99994468689,Wed Dec 17 2025 16:41:33 GMT-0600 (Central Standard Time),470152.10000002384,A,queenenter,O,enter,561,1,3049.0,467103.10000002384,7732,WL,C,9.0
3,24.125999927520752,learn,35874.00007247925,Wed Dec 17 2025 16:41:33 GMT-0600 (Central Standard Time),470735.90000009537,A,d,O,d,571,1,583.3000000715256,470152.60000002384,7732,WL,C,10.0
3,24.325000047683716,learn,35674.999952316284,Wed Dec 17 2025 16:41:33 GMT-0600 (Central Standard Time),470935.2000000477,A,do,O,o,188,1,782.6000000238419,470152.60000002384,7732,WL,C,10.0
3,26.60800004005432,learn,33391.99995994568,Wed Dec 17 2025 16:41:33 GMT-0600 (Central Standard Time),473218.0,A,d,O,backspace,2267,1,3065.399999976158,470152.60000002384,7732,WL,C,10.0
3,26.872999906539917,learn,33127.00009346008,Wed Dec 17 2025 16:41:33 GMT-0600 (Central Standard Time),473483.60000002384,A,,O,backspace,260,1,3331.0,470152.60000002384,7732,WL,C,10.0
3,27.792999982833862,learn,32207.000017166138,Wed Dec 17 2025 16:41:33 GMT-0600 (Central Standard Time),474402.90000009537,A,b,O,b,912,1,4250.300000071526,470152.60000002384,7732,WL,C,10.0
3,28.090999841690063,learn,31909.000158309937,Wed Dec 17 2025 16:41:33 GMT-0600 (Central Standard Time),474701.0,A,bo,O,o,287,1,4548.399999976158,470152.60000002384,7732,WL,C,10.0
3,28.54200005531311,learn,31457.99994468689,Wed Dec 17 2025 16:41:33 GMT-0600 (Central Standard Time),475152.3000000715,A,bod,O,d,437,1,4999.700000047684,470152.60000002384,7732,WL,C,10.0
3,28.707000017166138,learn,31292.999982833862,Wed Dec 17 2025 16:41:33 GMT-0600 (Central Standard Time),475317.3000000715,A,body,O,y,146,1,5164.700000047684,470152.60000002384,7732,WL,C,10.0
3,29.287999868392944,learn,30712.000131607056,Wed Dec 17 2025 16:41:33 GMT-0600 (Central Standard Time),475899.5,A,bodyenter,O,enter,564,1,5746.899999976158,470152.60000002384,7732,WL,C,10.0
3,30.021999835968018,learn,29978.000164031982,Wed Dec 17 2025 16:41:33 GMT-0600 (Central Standard Time),476633.3000000715,A,d,O,d,729,1,733.5,475899.8000000715,7732,WL,C,11.0
3,30.271999835968018,learn,29728.000164031982,Wed Dec 17 2025 16:41:33 GMT-0600 (Central Standard Time),476883.5,A,do,O,o,242,1,983.6999999284744,475899.8000000715,7732,WL,C,11.0
3,30.471999883651733,learn,29528.000116348267,Wed Dec 17 2025 16:41:33 GMT-0600 (Central Standard Time),477083.40000009537,A,doc,O,c,191,1,1183.6000000238419,475899.8000000715,7732,WL,C,11.0
3,30.855000019073486,learn,29144.999980926514,Wed Dec 17 2025 16:41:33 GMT-0600 (Central Standard Time),477466.10000002384,A,doct,O,t,375,1,1566.2999999523163,475899.8000000715,7732,WL,C,11.0
3,31.088000059127808,learn,28911.999940872192,Wed Dec 17 2025 16:41:33 GMT-0600 (Central Standard Time),477698.90000009537,A,docto,O,o,226,1,1799.1000000238419,475899.8000000715,7732,WL,C,11.0
3,31.305999994277954,learn,28694.000005722046,Wed Dec 17 2025 16:41:33 GMT-0600 (Central Standard Time),477917.3000000715,A,doctor,O,r,199,1,2017.5,475899.8000000715,7732,WL,C,11.0
3,31.75499987602234,learn,28245.00012397766,Wed Dec 17 2025 16:41:33 GMT-0600 (Central Standard Time),478365.60000002384,A,doctorenter,O,enter,429,1,2465.7999999523163,475899.8000000715,7732,WL,C,11.0
3,36.00399994850159,learn,23996.000051498413,Wed Dec 17 2025 16:41:33 GMT-0600 (Central Standard Time),482615.0,A,h,O,h,4244,1,4249.099999904633,478365.90000009537,7732,WL,C,12.0
3,36.33699989318848,learn,23663.000106811523,Wed Dec 17 2025 16:41:33 GMT-0600 (Central Standard Time),482947.5,A,ho,O,o,325,1,4581.599999904633,478365.90000009537,7732,WL,C,12.0
3,36.75499987602234,learn,23245.00012397766,Wed Dec 17 2025 16:41:33 GMT-0600 (Central Standard Time),483365.7000000477,A,hom,O,m,398,1,4999.799999952316,478365.90000009537,7732,WL,C,12.0
3,36.90299987792969,learn,23097.000122070312,Wed Dec 17 2025 16:41:33 GMT-0600 (Central Standard Time),483514.3000000715,A,home,O,e,140,1,5148.399999976158,478365.90000009537,7732,WL,C,12.0
3,37.43599987030029,learn,22564.000129699707,Wed Dec 17 2025 16:41:33 GMT-0600 (Central Standard Time),484046.7000000477,A,homeenter,O,enter,519,1,5680.799999952316,478365.90000009537,7732,WL,C,12.0
3,38.704999923706055,learn,21295.000076293945,Wed Dec 17 2025 16:41:33 GMT-0600 (Central Standard Time),485315.8000000715,A,b,O,b,1264,1,1268.8999999761581,484046.90000009537,7732,WL,C,13.0
3,38.83800005912781,learn,21161.999940872192,Wed Dec 17 2025 16:41:33 GMT-0600 (Central Standard Time),485448.7000000477,A,bo,O,o,118,1,1401.7999999523163,484046.90000009537,7732,WL,C,13.0
3,39.121999979019165,learn,20878.000020980835,Wed Dec 17 2025 16:41:33 GMT-0600 (Central Standard Time),485733.2000000477,A,boy,O,y,265,1,1686.2999999523163,484046.90000009537,7732,WL,C,13.0
3,39.569000005722046,learn,20430.999994277954,Wed Dec 17 2025 16:41:33 GMT-0600 (Central Standard Time),486180.2000000477,A,boyenter,O,enter,438,1,2133.2999999523163,484046.90000009537,7732,WL,C,13.0
3,41.18599987030029,learn,18814.000129699707,Wed Dec 17 2025 16:41:33 GMT-0600 (Central Standard Time),487796.90000009537,A,l,O,l,1598,1,1616.5,486180.40000009537,7732,WL,C,14.0
3,41.36999988555908,learn,18630.000114440918,Wed Dec 17 2025 16:41:33 GMT-0600 (Central Standard Time),487980.7000000477,A,le,O,e,164,1,1800.2999999523163,486180.40000009537,7732,WL,C,14.0
3,41.651999950408936,learn,18348.000049591064,Wed Dec 17 2025 16:41:33 GMT-0600 (Central Standard Time),488262.60000002384,A,let,O,t,278,1,2082.1999999284744,486180.40000009537,7732,WL,C,14.0
3,41.817999839782715,learn,18182.000160217285,Wed Dec 17 2025 16:41:33 GMT-0600 (Central Standard Time),488429.2000000477,A,lett,O,t,149,1,2248.7999999523163,486180.40000009537,7732,WL,C,14.0
3,42.05200004577637,learn,17947.999954223633,Wed Dec 17 2025 16:41:33 GMT-0600 (Central Standard Time),488662.90000009537,A,lette,O,e,228,1,2482.5,486180.40000009537,7732,WL,C,14.0
3,42.168999910354614,learn,17831.000089645386,Wed Dec 17 2025 16:41:33 GMT-0600 (Central Standard Time),488780.10000002384,A,letter,O,r,99,1,2599.6999999284744,486180.40000009537,7732,WL,C,14.0
3,42.91799998283386,learn,17082.000017166138,Wed Dec 17 2025 16:41:33 GMT-0600 (Central Standard Time),489529.10000002384,A,letterenter,O,enter,742,1,3348.6999999284744,486180.40000009537,7732,WL,C,14.0
3,48.41700005531311,learn,11582.99994468689,Wed Dec 17 2025 16:41:33 GMT-0600 (Central Standard Time),495028.0,A,n,O,n,5481,1,5498.599999904633,489529.40000009537,7732,WL,C,15.0
3,48.66599988937378,learn,11334.00011062622,Wed Dec 17 2025 16:41:33 GMT-0600 (Central Standard Time),495277.40000009537,A,na,O,a,238,1,5748.0,489529.40000009537,7732,WL,C,15.0
3,48.882999897003174,learn,11117.000102996826,Wed Dec 17 2025 16:41:33 GMT-0600 (Central Standard Time),495493.90000009537,A,nai,O,i,204,1,5964.5,489529.40000009537,7732,WL,C,15.0
3,49.18299984931946,learn,10817.000150680542,Wed Dec 17 2025 16:41:33 GMT-0600 (Central Standard Time),495793.60000002384,A,nail,O,l,293,1,6264.199999928474,489529.40000009537,7732,WL,C,15.0
3,50.1489999294281,learn,9851.0000705719,Wed Dec 17 2025 16:41:33 GMT-0600 (Central Standard Time),496759.60000002384,A,nailenter,O,enter,954,1,7230.199999928474,489529.40000009537,7732,WL,C,15.0
4,1.498999834060669,learn,58501.00016593933,Wed Dec 17 2025 16:41:33 GMT-0600 (Central Standard Time),574851.1000000238,A,c,O,c,1492,1,1498.7999999523163,573352.3000000715,7732,WL,C,1.0
4,1.9670000076293945,learn,58032.999992370605,Wed Dec 17 2025 16:41:33 GMT-0600 (Central Standard Time),575319.2000000477,A,co,O,o,453,1,1966.8999999761581,573352.3000000715,7732,WL,C,1.0
4,2.184000015258789,learn,57815.99998474121,Wed Dec 17 2025 16:41:33 GMT-0600 (Central Standard Time),575536.1000000238,A,cor,O,r,212,1,2183.7999999523163,573352.3000000715,7732,WL,C,1.0
4,2.4189999103546143,learn,57581.000089645386,Wed Dec 17 2025 16:41:33 GMT-0600 (Central Standard Time),575770.5,A,corn,O,n,226,1,2418.1999999284744,573352.3000000715,7732,WL,C,1.0
4,2.816999912261963,learn,57183.00008773804,Wed Dec 17 2025 16:41:33 GMT-0600 (Central Standard Time),576169.3000000715,A,cornenter,O,enter,393,1,2817.0,573352.3000000715,7732,WL,C,1.0
4,3.4659998416900635,learn,56534.00015830994,Wed Dec 17 2025 16:41:33 GMT-0600 (Central Standard Time),576817.9000000954,A,w,O,w,633,1,648.4000000953674,576169.5,7732,WL,C,2.0
4,3.6659998893737793,learn,56334.00011062622,Wed Dec 17 2025 16:41:33 GMT-0600 (Central Standard Time),577018.1000000238,A,wh,O,h,192,1,848.6000000238419,576169.5,7732,WL,C,2.0
4,3.9659998416900635,learn,56034.00015830994,Wed Dec 17 2025 16:41:33 GMT-0600 (Central Standard Time),577317.4000000954,A,whe,O,e,279,1,1147.9000000953674,576169.5,7732,WL,C,2.0
4,4.248999834060669,learn,55751.00016593933,Wed Dec 17 2025 16:41:33 GMT-0600 (Central Standard Time),577600.9000000954,A,whea,O,a,269,1,1431.4000000953674,576169.5,7732,WL,C,2.0
4,4.800999879837036,learn,55199.000120162964,Wed Dec 17 2025 16:41:33 GMT-0600 (Central Standard Time),578152.3000000715,A,wheat,O,t,531,1,1982.8000000715256,576169.5,7732,WL,C,2.0
4,5.332000017166138,learn,54667.99998283386,Wed Dec 17 2025 16:41:33 GMT-0600 (Central Standard Time),578684.2000000477,A,wheatenter,O,enter,521,1,2514.7000000476837,576169.5,7732,WL,C,2.0
4,5.983000040054321,learn,54016.99995994568,Wed Dec 17 2025 16:41:33 GMT-0600 (Central Standard Time),579334.6000000238,A,c,O,c,630,1,650.1000000238419,578684.5,7732,WL,C,3.0
4,6.200000047683716,learn,53799.999952316284,Wed Dec 17 2025 16:41:33 GMT-0600 (Central Standard Time),579551.6000000238,A,ca,O,a,204,1,867.1000000238419,578684.5,7732,WL,C,3.0
4,6.497999906539917,learn,53502.00009346008,Wed Dec 17 2025 16:41:33 GMT-0600 (Central Standard Time),579850.1000000238,A,cat,O,t,292,1,1165.6000000238419,578684.5,7732,WL,C,3.0
4,6.648000001907349,learn,53351.99999809265,Wed Dec 17 2025 16:41:33 GMT-0600 (Central Standard Time),579999.7000000477,A,catt,O,t,146,1,1315.2000000476837,578684.5,7732,WL,C,3.0
4,6.915999889373779,learn,53084.00011062622,Wed Dec 17 2025 16:41:33 GMT-0600 (Central Standard Time),580267.5,A,cattl,O,l,263,1,1583.0,578684.5,7732,WL,C,3.0
4,7.164999961853027,learn,52835.00003814697,Wed Dec 17 2025 16:41:33 GMT-0600 (Central Standard Time),580516.4000000954,A,cattle,O,e,237,1,1831.9000000953674,578684.5,7732,WL,C,3.0
4,7.615000009536743,learn,52384.99999046326,Wed Dec 17 2025 16:41:33 GMT-0600 (Central Standard Time),580967.0,A,cattleenter,O,enter,439,1,2282.5,578684.5,7732,WL,C,3.0
4,8.181999921798706,learn,51818.000078201294,Wed Dec 17 2025 16:41:33 GMT-0600 (Central Standard Time),581534.3000000715,A,s,O,s,556,1,566.8999999761581,580967.4000000954,7732,WL,C,4.0
4,8.330999851226807,learn,51669.00014877319,Wed Dec 17 2025 16:41:33 GMT-0600 (Central Standard Time),581682.9000000954,A,sh,O,h,132,1,715.5,580967.4000000954,7732,WL,C,4.0
4,8.598000049591064,learn,51401.999950408936,Wed Dec 17 2025 16:41:33 GMT-0600 (Central Standard Time),581950.1000000238,A,sho,O,o,257,1,982.6999999284744,580967.4000000954,7732,WL,C,4.0
4,8.797999858856201,learn,51202.0001411438,Wed Dec 17 2025 16:41:33 GMT-0600 (Central Standard Time),582149.9000000954,A,shor,O,r,189,1,1182.5,580967.4000000954,7732,WL,C,4.0
4,9.082000017166138,learn,50917.99998283386,Wed Dec 17 2025 16:41:33 GMT-0600 (Central Standard Time),582433.3000000715,A,shore,O,e,268,1,1465.8999999761581,580967.4000000954,7732,WL,C,4.0
4,9.464999914169312,learn,50535.00008583069,Wed Dec 17 2025 16:41:33 GMT-0600 (Central Standard Time),582816.7000000477,A,shoreenter,O,enter,367,1,1849.2999999523163,580967.4000000954,7732,WL,C,4.0
4,10.030999898910522,learn,49969.00010108948,Wed Dec 17 2025 16:41:33 GMT-0600 (Central Standard Time),583382.6000000238,A,n,O,n,546,1,565.5,582817.1000000238,7732,WL,C,5.0
4,10.214999914169312,learn,49785.00008583069,Wed Dec 17 2025 16:41:33 GMT-0600 (Central Standard Time),583566.3000000715,A,na,O,a,171,1,749.2000000476837,582817.1000000238,7732,WL,C,5.0
4,10.363999843597412,learn,49636.00015640259,Wed Dec 17 2025 16:41:33 GMT-0600 (Central Standard Time),583716.3000000715,A,nai,O,i,139,1,899.2000000476837,582817.1000000238,7732,WL,C,5.0
4,10.964999914169312,learn,49035.00008583069,Wed Dec 17 2025 16:41:33 GMT-0600 (Central Standard Time),584316.4000000954,A,nail,O,l,583,1,1499.3000000715256,582817.1000000238,7732,WL,C,5.0
4,11.430999994277954,learn,48569.000005722046,Wed Dec 17 2025 16:41:33 GMT-0600 (Central Standard Time),584783.1000000238,A,nailenter,O,enter,446,1,1966.0,582817.1000000238,7732,WL,C,5.0
4,12.179999828338623,learn,47820.00017166138,Wed Dec 17 2025 16:41:33 GMT-0600 (Central Standard Time),585532.0,A,q,O,q,739,1,748.5999999046326,584783.4000000954,7732,WL,C,6.0
4,12.46399998664856,learn,47536.00001335144,Wed Dec 17 2025 16:41:33 GMT-0600 (Central Standard Time),585815.9000000954,A,qu,O,u,262,1,1032.5,584783.4000000954,7732,WL,C,6.0
4,12.730999946594238,learn,47269.00005340576,Wed Dec 17 2025 16:41:33 GMT-0600 (Central Standard Time),586083.0,A,que,O,e,248,1,1299.5999999046326,584783.4000000954,7732,WL,C,6.0
4,12.896999835968018,learn,47103.00016403198,Wed Dec 17 2025 16:41:33 GMT-0600 (Central Standard Time),586249.2000000477,A,quee,O,e,158,1,1465.7999999523163,584783.4000000954,7732,WL,C,6.0
4,13.062999963760376,learn,46937.000036239624,Wed Dec 17 2025 16:41:33 GMT-0600 (Central Standard Time),586414.6000000238,A,queen,O,n,153,1,1631.1999999284744,584783.4000000954,7732,WL,C,6.0
4,13.52999997138977,learn,46470.00002861023,Wed Dec 17 2025 16:41:33 GMT-0600 (Central Standard Time),586881.9000000954,A,queenenter,O,enter,461,1,2098.5,584783.4000000954,7732,WL,C,6.0
4,14.096999883651733,learn,45903.00011634827,Wed Dec 17 2025 16:41:33 GMT-0600 (Central Standard Time),587448.4000000954,A,l,O,l,553,1,566.2000000476837,586882.2000000477,7732,WL,C,7.0
4,14.29699993133545,learn,45703.00006866455,Wed Dec 17 2025 16:41:33 GMT-0600 (Central Standard Time),587648.6000000238,A,le,O,e,186,1,766.3999999761581,586882.2000000477,7732,WL,C,7.0
4,14.579999923706055,learn,45420.000076293945,Wed Dec 17 2025 16:41:33 GMT-0600 (Central Standard Time),587932.2000000477,A,let,O,t,266,1,1050.0,586882.2000000477,7732,WL,C,7.0
4,14.728999853134155,learn,45271.000146865845,Wed Dec 17 2025 16:41:33 GMT-0600 (Central Standard Time),588081.3000000715,A,lett,O,t,142,1,1199.1000000238419,586882.2000000477,7732,WL,C,7.0
4,14.961999893188477,learn,45038.00010681152,Wed Dec 17 2025 16:41:33 GMT-0600 (Central Standard Time),588313.8000000715,A,lette,O,e,223,1,1431.6000000238419,586882.2000000477,7732,WL,C,7.0
4,15.095999956130981,learn,44904.00004386902,Wed Dec 17 2025 16:41:33 GMT-0600 (Central Standard Time),588447.9000000954,A,letter,O,r,113,1,1565.7000000476837,586882.2000000477,7732,WL,C,7.0
4,15.578999996185303,learn,44421.0000038147,Wed Dec 17 2025 16:41:33 GMT-0600 (Central Standard Time),588931.1000000238,A,letterenter,O,enter,475,1,2048.899999976158,586882.2000000477,7732,WL,C,7.0
4,16.313999891281128,learn,43686.00010871887,Wed Dec 17 2025 16:41:33 GMT-0600 (Central Standard Time),589665.6000000238,A,t,O,t,711,1,734.1999999284744,588931.4000000954,7732,WL,C,8.0
4,16.513000011444092,learn,43486.99998855591,Wed Dec 17 2025 16:41:33 GMT-0600 (Central Standard Time),589865.2000000477,A,to,O,o,191,1,933.7999999523163,588931.4000000954,7732,WL,C,8.0
4,17.394999980926514,learn,42605.000019073486,Wed Dec 17 2025 16:41:33 GMT-0600 (Central Standard Time),590746.5,A,tow,O,w,864,1,1815.0999999046326,588931.4000000954,7732,WL,C,8.0
4,17.744999885559082,learn,42255.00011444092,Wed Dec 17 2025 16:41:33 GMT-0600 (Central Standard Time),591097.2000000477,A,towe,O,e,334,1,2165.7999999523163,588931.4000000954,7732,WL,C,8.0
4,17.96299982070923,learn,42037.00017929077,Wed Dec 17 2025 16:41:33 GMT-0600 (Central Standard Time),591314.8000000715,A,tower,O,r,200,1,2383.399999976158,588931.4000000954,7732,WL,C,8.0
4,18.427000045776367,learn,41572.99995422363,Wed Dec 17 2025 16:41:33 GMT-0600 (Central Standard Time),591779.0,A,towerenter,O,enter,448,1,2847.5999999046326,588931.4000000954,7732,WL,C,8.0
4,19.628000020980835,learn,40371.999979019165,Wed Dec 17 2025 16:41:33 GMT-0600 (Central Standard Time),592980.2000000477,A,h,O,h,1183,1,1200.8999999761581,591779.3000000715,7732,WL,C,9.0
4,19.829999923706055,learn,40170.000076293945,Wed Dec 17 2025 16:41:33 GMT-0600 (Central Standard Time),593181.3000000715,A,ho,O,o,181,1,1402.0,591779.3000000715,7732,WL,C,9.0
4,20.128000020980835,learn,39871.999979019165,Wed Dec 17 2025 16:41:33 GMT-0600 (Central Standard Time),593479.7000000477,A,hom,O,m,293,1,1700.3999999761581,591779.3000000715,7732,WL,C,9.0
4,20.52900004386902,learn,39470.99995613098,Wed Dec 17 2025 16:41:33 GMT-0600 (Central Standard Time),593881.1000000238,A,home,O,e,381,1,2101.7999999523163,591779.3000000715,7732,WL,C,9.0
4,20.92799997329712,learn,39072.00002670288,Wed Dec 17 2025 16:41:33 GMT-0600 (Central Standard Time),594279.3000000715,A,homeenter,O,enter,385,1,2500.0,591779.3000000715,7732,WL,C,9.0
4,22.080999851226807,learn,37919.00014877319,Wed Dec 17 2025 16:41:33 GMT-0600 (Central Standard Time),595432.6000000238,A,b,O,b,1144,1,1153.1000000238419,594279.5,7732,WL,C,10.0
4,22.64299988746643,learn,37357.00011253357,Wed Dec 17 2025 16:41:33 GMT-0600 (Central Standard Time),595995.7000000477,A,bo,O,o,556,1,1716.2000000476837,594279.5,7732,WL,C,10.0
4,22.97699999809265,learn,37023.00000190735,Wed Dec 17 2025 16:41:33 GMT-0600 (Central Standard Time),596329.2000000477,A,boy,O,y,327,1,2049.7000000476837,594279.5,7732,WL,C,10.0
4,23.55999994277954,learn,36440.00005722046,Wed Dec 17 2025 16:41:33 GMT-0600 (Central Standard Time),596912.5,A,boyenter,O,enter,577,1,2633.0,594279.5,7732,WL,C,10.0
4,24.109999895095825,learn,35890.000104904175,Wed Dec 17 2025 16:41:33 GMT-0600 (Central Standard Time),597462.9000000954,A,d,O,d,530,1,550.2000000476837,596912.7000000477,7732,WL,C,11.0
4,24.29199981689453,learn,35708.00018310547,Wed Dec 17 2025 16:41:33 GMT-0600 (Central Standard Time),597644.7000000477,A,do,O,o,167,1,732.0,596912.7000000477,7732,WL,C,11.0
4,24.527999877929688,learn,35472.00012207031,Wed Dec 17 2025 16:41:33 GMT-0600 (Central Standard Time),597880.7000000477,A,doc,O,c,231,1,968.0,596912.7000000477,7732,WL,C,11.0
4,24.925999879837036,learn,35074.000120162964,Wed Dec 17 2025 16:41:33 GMT-0600 (Central Standard Time),598278.4000000954,A,doct,O,t,385,1,1365.7000000476837,596912.7000000477,7732,WL,C,11.0
4,25.108999967575073,learn,34891.00003242493,Wed Dec 17 2025 16:41:33 GMT-0600 (Central Standard Time),598461.1000000238,A,docto,O,o,163,1,1548.3999999761581,596912.7000000477,7732,WL,C,11.0
4,25.325000047683716,learn,34674.999952316284,Wed Dec 17 2025 16:41:33 GMT-0600 (Central Standard Time),598678.0,A,doctor,O,r,206,1,1765.2999999523163,596912.7000000477,7732,WL,C,11.0
4,25.774999856948853,learn,34225.00014305115,Wed Dec 17 2025 16:41:33 GMT-0600 (Central Standard Time),599127.1000000238,A,doctorenter,O,enter,437,1,2214.399999976158,596912.7000000477,7732,WL,C,11.0
4,31.10599994659424,learn,28894.00005340576,Wed Dec 17 2025 16:41:33 GMT-0600 (Central Standard Time),604459.0,A,c,O,c,5326,1,5331.799999952316,599127.2000000477,7732,WL,C,12.0
4,31.555999994277954,learn,28444.000005722046,Wed Dec 17 2025 16:41:33 GMT-0600 (Central Standard Time),604908.7000000477,A,ca,O,a,439,1,5781.5,599127.2000000477,7732,WL,C,12.0
4,31.721999883651733,learn,28278.000116348267,Wed Dec 17 2025 16:41:33 GMT-0600 (Central Standard Time),605074.4000000954,A,cam,O,m,151,1,5947.200000047684,599127.2000000477,7732,WL,C,12.0
4,32.12299990653992,learn,27877.000093460083,Wed Dec 17 2025 16:41:33 GMT-0600 (Central Standard Time),605475.2000000477,A,camp,O,p,393,1,6348.0,599127.2000000477,7732,WL,C,12.0
4,32.70599985122681,learn,27294.000148773193,Wed Dec 17 2025 16:41:33 GMT-0600 (Central Standard Time),606058.7000000477,A,campenter,O,enter,578,1,6931.5,599127.2000000477,7732,WL,C,12.0
4,34.10599994659424,learn,25894.00005340576,Wed Dec 17 2025 16:41:33 GMT-0600 (Central Standard Time),607458.4000000954,A,f,O,f,1392,1,1399.3000000715256,606059.1000000238,7732,WL,C,13.0
4,34.258999824523926,learn,25741.000175476074,Wed Dec 17 2025 16:41:33 GMT-0600 (Central Standard Time),607611.2000000477,A,fl,O,l,136,1,1552.1000000238419,606059.1000000238,7732,WL,C,13.0
4,34.406999826431274,learn,25593.000173568726,Wed Dec 17 2025 16:41:33 GMT-0600 (Central Standard Time),607760.0,A,fla,O,a,136,1,1700.8999999761581,606059.1000000238,7732,WL,C,13.0
4,34.789000034332275,learn,25210.999965667725,Wed Dec 17 2025 16:41:33 GMT-0600 (Central Standard Time),608141.4000000954,A,flag,O,g,364,1,2082.3000000715256,606059.1000000238,7732,WL,C,13.0
4,35.14100003242493,learn,24858.999967575073,Wed Dec 17 2025 16:41:33 GMT-0600 (Central Standard Time),608493.4000000954,A,flagenter,O,enter,343,1,2434.3000000715256,606059.1000000238,7732,WL,C,13.0
4,38.65499997138977,learn,21345.00002861023,Wed Dec 17 2025 16:41:33 GMT-0600 (Central Standard Time),612007.1000000238,A,n,O,n,3496,1,3513.399999976158,608493.7000000477,7732,WL,C,14.0
4,38.90400004386902,learn,21095.99995613098,Wed Dec 17 2025 16:41:33 GMT-0600 (Central Standard Time),612256.7000000477,A,na,O,a,243,1,3763.0,608493.7000000477,7732,WL,C,14.0
4,39.139999866485596,learn,20860.000133514404,Wed Dec 17 2025 16:41:33 GMT-0600 (Central Standard Time),612492.3000000715,A,nai,O,i,216,1,3998.600000023842,608493.7000000477,7732,WL,C,14.0
4,39.40299987792969,learn,20597.000122070312,Wed Dec 17 2025 16:41:33 GMT-0600 (Central Standard Time),612755.5,A,nail,O,l,244,1,4261.799999952316,608493.7000000477,7732,WL,C,14.0
4,39.87100005149841,learn,20128.999948501587,Wed Dec 17 2025 16:41:33 GMT-0600 (Central Standard Time),613223.1000000238,A,nailenter,O,enter,448,1,4729.399999976158,608493.7000000477,7732,WL,C,14.0
4,43.40299987792969,learn,16597.000122070312,Wed Dec 17 2025 16:41:33 GMT-0600 (Central Standard Time),616755.8000000715,A,b,O,b,3524,1,3532.3000000715256,613223.5,7732,WL,C,15.0
4,43.65400004386902,learn,16345.999956130981,Wed Dec 17 2025 16:41:33 GMT-0600 (Central Standard Time),617006.8000000715,A,bo,O,o,230,1,3783.3000000715256,613223.5,7732,WL,C,15.0
4,44.0699999332428,learn,15930.000066757202,Wed Dec 17 2025 16:41:33 GMT-0600 (Central Standard Time),617422.1000000238,A,bod,O,d,395,1,4198.600000023842,613223.5,7732,WL,C,15.0
4,44.23599982261658,learn,15764.000177383423,Wed Dec 17 2025 16:41:33 GMT-0600 (Central Standard Time),617588.3000000715,A,body,O,y,157,1,4364.800000071526,613223.5,7732,WL,C,15.0
4,44.72000002861023,learn,15279.99997138977,Wed Dec 17 2025 16:41:33 GMT-0600 (Central Standard Time),618073.0,A,bodyenter,O,enter,479,1,4849.5,613223.5,7732,WL,C,15.0
5,1.249000072479248,learn,60000.0,Wed Dec 17 2025 16:41:33 GMT-0600 (Central Standard Time),692347.6000000238,A,c,O,c,1232,1,1249.3999999761581,691098.2000000477,7732,WL,C,1.0
5,1.3990001678466797,learn,60000.0,Wed Dec 17 2025 16:41:33 GMT-0600 (Central Standard Time),692497.4000000954,A,co,O,o,141,1,1399.2000000476837,691098.2000000477,7732,WL,C,1.0
5,1.6500000953674316,learn,60000.0,Wed Dec 17 2025 16:41:33 GMT-0600 (Central Standard Time),692748.0,A,cor,O,r,235,1,1649.7999999523163,691098.2000000477,7732,WL,C,1.0
5,1.8489999771118164,learn,60000.0,Wed Dec 17 2025 16:41:33 GMT-0600 (Central Standard Time),692947.7000000477,A,corn,O,n,190,1,1849.5,691098.2000000477,7732,WL,C,1.0
5,2.3500001430511475,learn,60000.0,Wed Dec 17 2025 16:41:33 GMT-0600 (Central Standard Time),693448.2000000477,A,cornenter,O,enter,487,1,2350.0,691098.2000000477,7732,WL,C,1.0
5,3.383000135421753,learn,60000.0,Wed Dec 17 2025 16:41:33 GMT-0600 (Central Standard Time),694481.0,A,w,O,w,1027,1,1032.5,693448.5,7732,WL,C,2.0
5,3.615999937057495,learn,60000.0,Wed Dec 17 2025 16:41:33 GMT-0600 (Central Standard Time),694714.4000000954,A,wh,O,h,227,1,1265.9000000953674,693448.5,7732,WL,C,2.0
5,3.883000135421753,learn,60000.0,Wed Dec 17 2025 16:41:33 GMT-0600 (Central Standard Time),694981.5,A,whe,O,e,255,1,1533.0,693448.5,7732,WL,C,2.0
5,4.465000152587891,learn,60000.0,Wed Dec 17 2025 16:41:33 GMT-0600 (Central Standard Time),695563.5,A,whea,O,a,566,1,2115.0,693448.5,7732,WL,C,2.0
5,4.749000072479248,learn,60000.0,Wed Dec 17 2025 16:41:33 GMT-0600 (Central Standard Time),695847.4000000954,A,wheat,O,t,268,1,2398.9000000953674,693448.5,7732,WL,C,2.0
5,5.332000017166138,learn,60000.0,Wed Dec 17 2025 16:41:33 GMT-0600 (Central Standard Time),696430.6000000238,A,wheatenter,O,enter,572,1,2982.100000023842,693448.5,7732,WL,C,2.0
5,5.998000144958496,learn,60000.0,Wed Dec 17 2025 16:41:33 GMT-0600 (Central Standard Time),697096.7000000477,A,c,O,c,652,1,665.7999999523163,696430.9000000954,7732,WL,C,3.0
5,6.515000104904175,learn,60000.0,Wed Dec 17 2025 16:41:33 GMT-0600 (Central Standard Time),697613.3000000715,A,ca,O,a,497,1,1182.3999999761581,696430.9000000954,7732,WL,C,3.0
5,7.031000137329102,learn,60000.0,Wed Dec 17 2025 16:41:33 GMT-0600 (Central Standard Time),698129.7000000477,A,cat,O,t,502,1,1698.7999999523163,696430.9000000954,7732,WL,C,3.0
5,7.21399998664856,learn,60000.0,Wed Dec 17 2025 16:41:33 GMT-0600 (Central Standard Time),698312.6000000238,A,catt,O,t,176,1,1881.6999999284744,696430.9000000954,7732,WL,C,3.0
5,7.398000001907349,learn,60000.0,Wed Dec 17 2025 16:41:33 GMT-0600 (Central Standard Time),698496.0,A,cattl,O,l,177,1,2065.0999999046326,696430.9000000954,7732,WL,C,3.0
5,7.914000034332275,learn,60000.0,Wed Dec 17 2025 16:41:33 GMT-0600 (Central Standard Time),699012.5,A,cattle,O,e,506,1,2581.5999999046326,696430.9000000954,7732,WL,C,3.0
5,8.246999979019165,learn,60000.0,Wed Dec 17 2025 16:41:33 GMT-0600 (Central Standard Time),699345.8000000715,A,cattleenter,O,enter,328,1,2914.899999976158,696430.9000000954,7732,WL,C,3.0
5,9.565000057220459,learn,60000.0,Wed Dec 17 2025 16:41:33 GMT-0600 (Central Standard Time),700663.2000000477,A,d,O,d,1298,1,1317.1000000238419,699346.1000000238,7732,WL,C,4.0
5,9.814000129699707,learn,60000.0,Wed Dec 17 2025 16:41:33 GMT-0600 (Central Standard Time),700911.9000000954,A,do,O,o,235,1,1565.8000000715256,699346.1000000238,7732,WL,C,4.0
5,10.065000057220459,learn,60000.0,Wed Dec 17 2025 16:41:33 GMT-0600 (Central Standard Time),701163.2000000477,A,doc,O,c,243,1,1817.1000000238419,699346.1000000238,7732,WL,C,4.0
5,10.432000160217285,learn,60000.0,Wed Dec 17 2025 16:41:33 GMT-0600 (Central Standard Time),701530.2000000477,A,doct,O,t,360,1,2184.100000023842,699346.1000000238,7732,WL,C,4.0
5,10.64900016784668,learn,60000.0,Wed Dec 17 2025 16:41:33 GMT-0600 (Central Standard Time),701747.0,A,docto,O,o,200,1,2400.899999976158,699346.1000000238,7732,WL,C,4.0
5,10.897000074386597,learn,60000.0,Wed Dec 17 2025 16:41:33 GMT-0600 (Central Standard Time),701995.5,A,doctor,O,r,231,1,2649.399999976158,699346.1000000238,7732,WL,C,4.0
5,11.248000144958496,learn,60000.0,Wed Dec 17 2025 16:41:33 GMT-0600 (Central Standard Time),702346.2000000477,A,doctorenter,O,enter,341,1,3000.100000023842,699346.1000000238,7732,WL,C,4.0
5,12.230000019073486,learn,60000.0,Wed Dec 17 2025 16:41:33 GMT-0600 (Central Standard Time),703328.3000000715,A,b,O,b,961,1,981.8000000715256,702346.5,7732,WL,C,5.0
5,12.430999994277954,learn,60000.0,Wed Dec 17 2025 16:41:33 GMT-0600 (Central Standard Time),703529.0,A,bo,O,o,177,1,1182.5,702346.5,7732,WL,C,5.0
5,12.680999994277954,learn,60000.0,Wed Dec 17 2025 16:41:33 GMT-0600 (Central Standard Time),703779.0,A,bod,O,d,242,1,1432.5,702346.5,7732,WL,C,5.0
5,12.878999948501587,learn,60000.0,Wed Dec 17 2025 16:41:33 GMT-0600 (Central Standard Time),703977.6000000238,A,body,O,y,184,1,1631.1000000238419,702346.5,7732,WL,C,5.0
5,13.328999996185303,learn,60000.0,Wed Dec 17 2025 16:41:33 GMT-0600 (Central Standard Time),704427.7000000477,A,bodyenter,O,enter,434,1,2081.2000000476837,702346.5,7732,WL,C,5.0
5,13.946000099182129,learn,60000.0,Wed Dec 17 2025 16:41:33 GMT-0600 (Central Standard Time),705044.0,A,s,O,s,608,1,616.0999999046326,704427.9000000954,7732,WL,C,6.0
5,14.161999940872192,learn,60000.0,Wed Dec 17 2025 16:41:33 GMT-0600 (Central Standard Time),705260.1000000238,A,su,O,u,207,1,832.1999999284744,704427.9000000954,7732,WL,C,6.0
5,14.648000001907349,learn,60000.0,Wed Dec 17 2025 16:41:33 GMT-0600 (Central Standard Time),705746.3000000715,A,sug,O,g,480,1,1318.3999999761581,704427.9000000954,7732,WL,C,6.0
5,14.996000051498413,learn,60000.0,Wed Dec 17 2025 16:41:33 GMT-0600 (Central Standard Time),706094.4000000954,A,suga,O,a,328,1,1666.5,704427.9000000954,7732,WL,C,6.0
5,16.628000020980835,learn,60000.0,Wed Dec 17 2025 16:41:33 GMT-0600 (Central Standard Time),707726.6000000238,A,sugar,O,r,1621,1,3298.6999999284744,704427.9000000954,7732,WL,C,6.0
5,17.295000076293945,learn,60000.0,Wed Dec 17 2025 16:41:33 GMT-0600 (Central Standard Time),708393.1000000238,A,sugarenter,O,enter,653,1,3965.1999999284744,704427.9000000954,7732,WL,C,6.0
5,18.460000038146973,learn,60000.0,Wed Dec 17 2025 16:41:33 GMT-0600 (Central Standard Time),709558.4000000954,A,h,O,h,1145,1,1165.0,708393.4000000954,7732,WL,C,7.0
5,18.663000106811523,learn,60000.0,Wed Dec 17 2025 16:41:33 GMT-0600 (Central Standard Time),709761.0,A,ho,O,o,199,1,1367.5999999046326,708393.4000000954,7732,WL,C,7.0
5,18.996999979019165,learn,60000.0,Wed Dec 17 2025 16:41:33 GMT-0600 (Central Standard Time),710094.9000000954,A,hom,O,m,323,1,1701.5,708393.4000000954,7732,WL,C,7.0
5,19.193000078201294,learn,60000.0,Wed Dec 17 2025 16:41:33 GMT-0600 (Central Standard Time),710291.7000000477,A,home,O,e,188,1,1898.2999999523163,708393.4000000954,7732,WL,C,7.0
5,19.528000116348267,learn,60000.0,Wed Dec 17 2025 16:41:33 GMT-0600 (Central Standard Time),710626.1000000238,A,homeenter,O,enter,329,1,2232.6999999284744,708393.4000000954,7732,WL,C,7.0
5,20.094000101089478,learn,60000.0,Wed Dec 17 2025 16:41:33 GMT-0600 (Central Standard Time),711192.7000000477,A,b,O,b,545,1,566.3999999761581,710626.3000000715,7732,WL,C,8.0
5,20.30999994277954,learn,60000.0,Wed Dec 17 2025 16:41:33 GMT-0600 (Central Standard Time),711408.3000000715,A,bo,O,o,194,1,782.0,710626.3000000715,7732,WL,C,8.0
5,20.62600016593933,learn,60000.0,Wed Dec 17 2025 16:41:33 GMT-0600 (Central Standard Time),711724.4000000954,A,boy,O,y,305,1,1098.1000000238419,710626.3000000715,7732,WL,C,8.0
5,21.210000038146973,learn,60000.0,Wed Dec 17 2025 16:41:33 GMT-0600 (Central Standard Time),712308.6000000238,A,boyenter,O,enter,566,1,1682.2999999523163,710626.3000000715,7732,WL,C,8.0
5,21.743000030517578,learn,60000.0,Wed Dec 17 2025 16:41:33 GMT-0600 (Central Standard Time),712841.7000000477,A,c,O,c,529,1,532.7999999523163,712308.9000000954,7732,WL,C,9.0
5,21.993000030517578,learn,60000.0,Wed Dec 17 2025 16:41:33 GMT-0600 (Central Standard Time),713091.2000000477,A,ca,O,a,233,1,782.2999999523163,712308.9000000954,7732,WL,C,9.0
5,22.14300012588501,learn,60000.0,Wed Dec 17 2025 16:41:33 GMT-0600 (Central Standard Time),713241.4000000954,A,cam,O,m,135,1,932.5,712308.9000000954,7732,WL,C,9.0
5,22.48099994659424,learn,60000.0,Wed Dec 17 2025 16:41:33 GMT-0600 (Central Standard Time),713578.8000000715,A,camp,O,p,316,1,1269.8999999761581,712308.9000000954,7732,WL,C,9.0
5,23.259000062942505,learn,60000.0,Wed Dec 17 2025 16:41:33 GMT-0600 (Central Standard Time),714357.2000000477,A,campenter,O,enter,769,1,2048.2999999523163,712308.9000000954,7732,WL,C,9.0
5,24.075999975204468,learn,60000.0,Wed Dec 17 2025 16:41:33 GMT-0600 (Central Standard Time),715174.5,A,f,O,f,806,1,817.0,714357.5,7732,WL,C,10.0
5,24.259999990463257,learn,60000.0,Wed Dec 17 2025 16:41:33 GMT-0600 (Central Standard Time),715358.4000000954,A,fl,O,l,162,1,1000.9000000953674,714357.5,7732,WL,C,10.0
5,24.442000150680542,learn,60000.0,Wed Dec 17 2025 16:41:33 GMT-0600 (Central Standard Time),715540.8000000715,A,fla,O,a,163,1,1183.3000000715256,714357.5,7732,WL,C,10.0
5,24.69099998474121,learn,60000.0,Wed Dec 17 2025 16:41:33 GMT-0600 (Central Standard Time),715790.6000000238,A,flag,O,g,235,1,1433.1000000238419,714357.5,7732,WL,C,10.0
5,24.975000143051147,learn,60000.0,Wed Dec 17 2025 16:41:33 GMT-0600 (Central Standard Time),716073.6000000238,A,flagenter,O,enter,275,1,1716.1000000238419,714357.5,7732,WL,C,10.0
5,25.508000135421753,learn,60000.0,Wed Dec 17 2025 16:41:33 GMT-0600 (Central Standard Time),716606.7000000477,A,l,O,l,522,1,532.8999999761581,716073.8000000715,7732,WL,C,11.0
5,25.70799994468689,learn,60000.0,Wed Dec 17 2025 16:41:33 GMT-0600 (Central Standard Time),716807.5,A,le,O,e,180,1,733.6999999284744,716073.8000000715,7732,WL,C,11.0
5,25.992000102996826,learn,60000.0,Wed Dec 17 2025 16:41:33 GMT-0600 (Central Standard Time),717091.4000000954,A,let,O,t,275,1,1017.6000000238419,716073.8000000715,7732,WL,C,11.0
5,26.159000158309937,learn,60000.0,Wed Dec 17 2025 16:41:33 GMT-0600 (Central Standard Time),717258.3000000715,A,lett,O,t,160,1,1184.5,716073.8000000715,7732,WL,C,11.0
5,26.44099998474121,learn,60000.0,Wed Dec 17 2025 16:41:33 GMT-0600 (Central Standard Time),717539.7000000477,A,lette,O,e,272,1,1465.8999999761581,716073.8000000715,7732,WL,C,11.0
5,26.591000080108643,learn,60000.0,Wed Dec 17 2025 16:41:33 GMT-0600 (Central Standard Time),717689.6000000238,A,letter,O,r,136,1,1615.7999999523163,716073.8000000715,7732,WL,C,11.0
5,28.223999977111816,learn,60000.0,Wed Dec 17 2025 16:41:33 GMT-0600 (Central Standard Time),719322.7000000477,A,letterenter,O,enter,1626,1,3248.899999976158,716073.8000000715,7732,WL,C,11.0
5,29.34000015258789,learn,60000.0,Wed Dec 17 2025 16:41:33 GMT-0600 (Central Standard Time),720439.6000000238,A,n,O,n,1104,1,1116.6000000238419,719323.0,7732,WL,C,12.0
5,29.539000034332275,learn,60000.0,Wed Dec 17 2025 16:41:33 GMT-0600 (Central Standard Time),720638.6000000238,A,na,O,a,187,1,1315.6000000238419,719323.0,7732,WL,C,12.0
5,29.707000017166138,learn,60000.0,Wed Dec 17 2025 16:41:33 GMT-0600 (Central Standard Time),720805.9000000954,A,nai,O,i,156,1,1482.9000000953674,719323.0,7732,WL,C,12.0
5,29.92300009727478,learn,60000.0,Wed Dec 17 2025 16:41:33 GMT-0600 (Central Standard Time),721022.2000000477,A,nail,O,l,196,1,1699.2000000476837,719323.0,7732,WL,C,12.0
5,30.4060001373291,learn,60000.0,Wed Dec 17 2025 16:41:33 GMT-0600 (Central Standard Time),721505.2000000477,A,nailenter,O,enter,463,1,2182.2000000476837,719323.0,7732,WL,C,12.0
5,31.23900008201599,learn,60000.0,Wed Dec 17 2025 16:41:33 GMT-0600 (Central Standard Time),722338.5,A,t,O,t,817,1,833.0,721505.5,7732,WL,C,13.0
5,31.439000129699707,learn,60000.0,Wed Dec 17 2025 16:41:33 GMT-0600 (Central Standard Time),722538.3000000715,A,to,O,o,181,1,1032.8000000715256,721505.5,7732,WL,C,13.0
5,31.624000072479248,learn,60000.0,Wed Dec 17 2025 16:41:33 GMT-0600 (Central Standard Time),722723.0,A,tow,O,w,176,1,1217.5,721505.5,7732,WL,C,13.0
5,31.92300009727478,learn,60000.0,Wed Dec 17 2025 16:41:33 GMT-0600 (Central Standard Time),723022.5,A,towe,O,e,289,1,1517.0,721505.5,7732,WL,C,13.0
5,32.09000015258789,learn,60000.0,Wed Dec 17 2025 16:41:33 GMT-0600 (Central Standard Time),723189.0,A,tower,O,r,149,1,1683.5,721505.5,7732,WL,C,13.0
5,32.48900008201599,learn,60000.0,Wed Dec 17 2025 16:41:33 GMT-0600 (Central Standard Time),723588.0,A,towerenter,O,enter,389,1,2082.5,721505.5,7732,WL,C,13.0
5,33.65499997138977,learn,60000.0,Wed Dec 17 2025 16:41:33 GMT-0600 (Central Standard Time),724753.9000000954,A,q,O,q,1159,1,1165.6000000238419,723588.3000000715,7732,WL,C,14.0
5,33.92199993133545,learn,60000.0,Wed Dec 17 2025 16:41:33 GMT-0600 (Central Standard Time),725020.9000000954,A,qu,O,u,256,1,1432.6000000238419,723588.3000000715,7732,WL,C,14.0
5,34.1560001373291,learn,60000.0,Wed Dec 17 2025 16:41:33 GMT-0600 (Central Standard Time),725255.1000000238,A,que,O,e,213,1,1666.7999999523163,723588.3000000715,7732,WL,C,14.0
5,34.33800005912781,learn,60000.0,Wed Dec 17 2025 16:41:33 GMT-0600 (Central Standard Time),725437.4000000954,A,quee,O,e,171,1,1849.1000000238419,723588.3000000715,7732,WL,C,14.0
5,34.57100009918213,learn,60000.0,Wed Dec 17 2025 16:41:33 GMT-0600 (Central Standard Time),725670.5,A,queen,O,n,221,1,2082.1999999284744,723588.3000000715,7732,WL,C,14.0
5,35.18900012969971,learn,60000.0,Wed Dec 17 2025 16:41:33 GMT-0600 (Central Standard Time),726287.8000000715,A,queenenter,O,enter,605,1,2699.5,723588.3000000715,7732,WL,C,14.0
5,40.85300016403198,learn,60000.0,Wed Dec 17 2025 16:41:33 GMT-0600 (Central Standard Time),731952.4000000954,A,s,O,s,5652,1,5664.400000095367,726288.0,7732,WL,C,15.0
5,41.00399994850159,learn,60000.0,Wed Dec 17 2025 16:41:33 GMT-0600 (Central Standard Time),732102.8000000715,A,sh,O,h,138,1,5814.800000071526,726288.0,7732,WL,C,15.0
5,41.269999980926514,learn,60000.0,Wed Dec 17 2025 16:41:33 GMT-0600 (Central Standard Time),732369.4000000954,A,sho,O,o,251,1,6081.400000095367,726288.0,7732,WL,C,15.0
5,41.45300006866455,learn,60000.0,Wed Dec 17 2025 16:41:33 GMT-0600 (Central Standard Time),732551.8000000715,A,shor,O,r,174,1,6263.800000071526,726288.0,7732,WL,C,15.0
5,41.72000002861023,learn,60000.0,Wed Dec 17 2025 16:41:33 GMT-0600 (Central Standard Time),732819.2000000477,A,shore,O,e,250,1,6531.200000047684,726288.0,7732,WL,C,15.0
5,42.003000020980835,learn,60000.0,Wed Dec 17 2025 16:41:33 GMT-0600 (Central Standard Time),733101.9000000954,A,shoreenter,O,enter,270,1,6813.900000095367,726288.0,7732,WL,C,15.0
6,1.499000072479248,distr,58500.99992752075,Wed Dec 17 2025 16:41:33 GMT-0600 (Central Standard Time),826822.0,B,s,O,s,1481,1,1499.5,825322.5,7732,WL,C,1.0
6,1.8680000305175781,distr,58131.99996948242,Wed Dec 17 2025 16:41:33 GMT-0600 (Central Standard Time),827190.6000000238,B,sk,O,k,354,1,1868.1000000238419,825322.5,7732,WL,C,1.0
6,2.3320000171661377,distr,57667.99998283386,Wed Dec 17 2025 16:41:33 GMT-0600 (Central Standard Time),827655.1000000238,B,sky,O,y,451,1,2332.600000023842,825322.5,7732,WL,C,1.0
6,2.931999921798706,distr,57068.000078201294,Wed Dec 17 2025 16:41:33 GMT-0600 (Central Standard Time),828255.1000000238,B,skyenter,O,enter,586,1,2932.600000023842,825322.5,7732,WL,C,1.0
6,4.680999994277954,distr,55319.000005722046,Wed Dec 17 2025 16:41:33 GMT-0600 (Central Standard Time),830003.5,B,v,O,v,1731,1,1748.1999999284744,828255.3000000715,7732,WL,C,2.0
6,4.914999961853027,distr,55085.00003814697,Wed Dec 17 2025 16:41:33 GMT-0600 (Central Standard Time),830237.5,B,va,O,a,223,1,1982.1999999284744,828255.3000000715,7732,WL,C,2.0
6,5.398000001907349,distr,54601.99999809265,Wed Dec 17 2025 16:41:33 GMT-0600 (Central Standard Time),830721.2000000477,B,val,O,l,477,1,2465.899999976158,828255.3000000715,7732,WL,C,2.0
6,5.582000017166138,distr,54417.99998283386,Wed Dec 17 2025 16:41:33 GMT-0600 (Central Standard Time),830905.3000000715,B,vall,O,l,170,1,2650.0,828255.3000000715,7732,WL,C,2.0
6,5.9690001010894775,distr,54030.99989891052,Wed Dec 17 2025 16:41:33 GMT-0600 (Central Standard Time),831291.6000000238,B,valle,O,e,381,1,3036.2999999523163,828255.3000000715,7732,WL,C,2.0
6,6.263999938964844,distr,53736.000061035156,Wed Dec 17 2025 16:41:33 GMT-0600 (Central Standard Time),831587.1000000238,B,valley,O,y,288,1,3331.7999999523163,828255.3000000715,7732,WL,C,2.0
6,6.897000074386597,distr,53102.9999256134,Wed Dec 17 2025 16:41:33 GMT-0600 (Central Standard Time),832219.6000000238,B,valleyenter,O,enter,624,1,3964.2999999523163,828255.3000000715,7732,WL,C,2.0
6,7.713000059127808,distr,52286.99994087219,Wed Dec 17 2025 16:41:33 GMT-0600 (Central Standard Time),833035.4000000954,B,c,O,c,809,1,815.5,832219.9000000954,7732,WL,C,3.0
6,7.880000114440918,distr,52119.99988555908,Wed Dec 17 2025 16:41:33 GMT-0600 (Central Standard Time),833203.3000000715,B,ch,O,h,160,1,983.3999999761581,832219.9000000954,7732,WL,C,3.0
6,8.147000074386597,distr,51852.9999256134,Wed Dec 17 2025 16:41:33 GMT-0600 (Central Standard Time),833470.3000000715,B,chr,O,r,244,1,1250.3999999761581,832219.9000000954,7732,WL,C,3.0
6,8.296000003814697,distr,51703.9999961853,Wed Dec 17 2025 16:41:33 GMT-0600 (Central Standard Time),833618.9000000954,B,chri,O,i,139,1,1399.0,832219.9000000954,7732,WL,C,3.0
6,8.496999979019165,distr,51503.000020980835,Wed Dec 17 2025 16:41:33 GMT-0600 (Central Standard Time),833820.2000000477,B,chris,O,s,184,1,1600.2999999523163,832219.9000000954,7732,WL,C,3.0
6,8.848000049591064,distr,51151.999950408936,Wed Dec 17 2025 16:41:33 GMT-0600 (Central Standard Time),834170.7000000477,B,christ,O,t,335,1,1950.7999999523163,832219.9000000954,7732,WL,C,3.0
6,9.130000114440918,distr,50869.99988555908,Wed Dec 17 2025 16:41:33 GMT-0600 (Central Standard Time),834452.3000000715,B,christm,O,m,263,1,2232.399999976158,832219.9000000954,7732,WL,C,3.0
6,9.296000003814697,distr,50703.9999961853,Wed Dec 17 2025 16:41:33 GMT-0600 (Central Standard Time),834618.9000000954,B,christma,O,a,149,1,2399.0,832219.9000000954,7732,WL,C,3.0
6,9.579999923706055,distr,50420.000076293945,Wed Dec 17 2025 16:41:33 GMT-0600 (Central Standard Time),834902.9000000954,B,christmas,O,s,263,1,2683.0,832219.9000000954,7732,WL,C,3.0
6,9.996999979019165,distr,50003.000020980835,Wed Dec 17 2025 16:41:33 GMT-0600 (Central Standard Time),835320.3000000715,B,christmasenter,O,enter,404,1,3100.399999976158,832219.9000000954,7732,WL,C,3.0
6,11.812999963760376,distr,48187.000036239624,Wed Dec 17 2025 16:41:33 GMT-0600 (Central Standard Time),837136.3000000715,B,t,O,t,1802,1,1815.8000000715256,835320.5,7732,WL,C,4.0
6,11.977999925613403,distr,48022.0000743866,Wed Dec 17 2025 16:41:33 GMT-0600 (Central Standard Time),837301.3000000715,B,to,O,o,154,1,1980.8000000715256,835320.5,7732,WL,C,4.0
6,12.144000053405762,distr,47855.99994659424,Wed Dec 17 2025 16:41:33 GMT-0600 (Central Standard Time),837468.0,B,too,O,o,157,1,2147.5,835320.5,7732,WL,C,4.0
6,12.711999893188477,distr,47288.00010681152,Wed Dec 17 2025 16:41:33 GMT-0600 (Central Standard Time),838035.3000000715,B,tool,O,l,551,1,2714.8000000715256,835320.5,7732,WL,C,4.0
6,13.213000059127808,distr,46786.99994087219,Wed Dec 17 2025 16:41:33 GMT-0600 (Central Standard Time),838536.9000000954,B,toolenter,O,enter,497,1,3216.4000000953674,835320.5,7732,WL,C,4.0
6,15.276999950408936,distr,44723.000049591064,Wed Dec 17 2025 16:41:33 GMT-0600 (Central Standard Time),840600.1000000238,B,d,O,d,2058,1,2062.899999976158,838537.2000000477,7732,WL,C,5.0
6,15.427000045776367,distr,44572.99995422363,Wed Dec 17 2025 16:41:33 GMT-0600 (Central Standard Time),840750.6000000238,B,di,O,i,141,1,2213.399999976158,838537.2000000477,7732,WL,C,5.0
6,15.894999980926514,distr,44105.000019073486,Wed Dec 17 2025 16:41:33 GMT-0600 (Central Standard Time),841218.4000000954,B,dia,O,a,463,1,2681.2000000476837,838537.2000000477,7732,WL,C,5.0
6,16.19600009918213,distr,43803.99990081787,Wed Dec 17 2025 16:41:33 GMT-0600 (Central Standard Time),841520.1000000238,B,diam,O,m,297,1,2982.899999976158,838537.2000000477,7732,WL,C,5.0
6,16.39400005340576,distr,43605.99994659424,Wed Dec 17 2025 16:41:33 GMT-0600 (Central Standard Time),841717.7000000477,B,diamo,O,o,188,1,3180.5,838537.2000000477,7732,WL,C,5.0
6,16.594000101089478,distr,43405.99989891052,Wed Dec 17 2025 16:41:33 GMT-0600 (Central Standard Time),841917.7000000477,B,diamon,O,n,181,1,3380.5,838537.2000000477,7732,WL,C,5.0
6,16.89400005340576,distr,43105.99994659424,Wed Dec 17 2025 16:41:33 GMT-0600 (Central Standard Time),842217.4000000954,B,diamond,O,d,294,1,3680.2000000476837,838537.2000000477,7732,WL,C,5.0
6,17.259999990463257,distr,42740.00000953674,Wed Dec 17 2025 16:41:33 GMT-0600 (Central Standard Time),842583.6000000238,B,diamondenter,O,enter,345,1,4046.399999976158,838537.2000000477,7732,WL,C,5.0
6,20.594000101089478,distr,39405.99989891052,Wed Dec 17 2025 16:41:33 GMT-0600 (Central Standard Time),845917.4000000954,B,d,O,d,3323,1,3333.600000023842,842583.8000000715,7732,WL,C,6.0
6,21.22499990463257,distr,38775.00009536743,Wed Dec 17 2025 16:41:33 GMT-0600 (Central Standard Time),846548.4000000954,B,do,O,o,622,1,3964.600000023842,842583.8000000715,7732,WL,C,6.0
6,21.52500009536743,distr,38474.99990463257,Wed Dec 17 2025 16:41:33 GMT-0600 (Central Standard Time),846848.5,B,dol,O,l,286,1,4264.699999928474,842583.8000000715,7732,WL,C,6.0
6,21.70799994468689,distr,38292.00005531311,Wed Dec 17 2025 16:41:33 GMT-0600 (Central Standard Time),847031.4000000954,B,doll,O,l,172,1,4447.600000023842,842583.8000000715,7732,WL,C,6.0
6,21.891000032424927,distr,38108.99996757507,Wed Dec 17 2025 16:41:33 GMT-0600 (Central Standard Time),847215.0,B,dolla,O,a,164,1,4631.199999928474,842583.8000000715,7732,WL,C,6.0
6,22.10800004005432,distr,37891.99995994568,Wed Dec 17 2025 16:41:33 GMT-0600 (Central Standard Time),847431.4000000954,B,dollar,O,r,205,1,4847.600000023842,842583.8000000715,7732,WL,C,6.0
6,22.72499990463257,distr,37275.00009536743,Wed Dec 17 2025 16:41:33 GMT-0600 (Central Standard Time),848048.4000000954,B,dollarenter,O,enter,605,1,5464.600000023842,842583.8000000715,7732,WL,C,6.0
6,24.5239999294281,distr,35476.0000705719,Wed Dec 17 2025 16:41:33 GMT-0600 (Central Standard Time),849847.6000000238,B,m,O,m,1782,1,1799.0,848048.6000000238,7732,WL,C,7.0
6,24.957000017166138,distr,35042.99998283386,Wed Dec 17 2025 16:41:33 GMT-0600 (Central Standard Time),850281.0,B,mo,O,o,420,1,2232.399999976158,848048.6000000238,7732,WL,C,7.0
6,25.240000009536743,distr,34759.99999046326,Wed Dec 17 2025 16:41:33 GMT-0600 (Central Standard Time),850564.0,B,mon,O,n,267,1,2515.399999976158,848048.6000000238,7732,WL,C,7.0
6,25.44099998474121,distr,34559.00001525879,Wed Dec 17 2025 16:41:33 GMT-0600 (Central Standard Time),850764.5,B,mone,O,e,191,1,2715.899999976158,848048.6000000238,7732,WL,C,7.0
6,25.592000007629395,distr,34407.999992370605,Wed Dec 17 2025 16:41:33 GMT-0600 (Central Standard Time),850915.2000000477,B,money,O,y,146,1,2866.600000023842,848048.6000000238,7732,WL,C,7.0
6,26.407000064849854,distr,33592.99993515015,Wed Dec 17 2025 16:41:33 GMT-0600 (Central Standard Time),851730.7000000477,B,moneyenter,O,enter,809,1,3682.100000023842,848048.6000000238,7732,WL,C,7.0
6,40.503000020980835,distr,19496.999979019165,Wed Dec 17 2025 16:41:33 GMT-0600 (Central Standard Time),865827.1000000238,B,m,O,m,14081,1,14096.199999928474,851730.9000000954,7732,WL,C,8.0
6,40.8529999256134,distr,19147.000074386597,Wed Dec 17 2025 16:41:33 GMT-0600 (Central Standard Time),866176.9000000954,B,mo,O,o,337,1,14446.0,851730.9000000954,7732,WL,C,8.0
6,41.07100009918213,distr,18928.99990081787,Wed Dec 17 2025 16:41:33 GMT-0600 (Central Standard Time),866394.2000000477,B,mot,O,t,210,1,14663.299999952316,851730.9000000954,7732,WL,C,8.0
6,41.20300006866455,distr,18796.99993133545,Wed Dec 17 2025 16:41:33 GMT-0600 (Central Standard Time),866526.4000000954,B,moth,O,h,112,1,14795.5,851730.9000000954,7732,WL,C,8.0
6,41.401999950408936,distr,18598.000049591064,Wed Dec 17 2025 16:41:33 GMT-0600 (Central Standard Time),866726.0,B,mothe,O,e,189,1,14995.099999904633,851730.9000000954,7732,WL,C,8.0
6,41.5699999332428,distr,18430.000066757202,Wed Dec 17 2025 16:41:33 GMT-0600 (Central Standard Time),866894.0,B,mother,O,r,149,1,15163.099999904633,851730.9000000954,7732,WL,C,8.0
6,41.78500008583069,distr,18214.99991416931,Wed Dec 17 2025 16:41:33 GMT-0600 (Central Standard Time),867108.2000000477,B,motherenter,O,enter,204,1,15377.299999952316,851730.9000000954,7732,WL,C,8.0
6,60.013999938964844,distr,-13.99993896484375,Wed Dec 17 2025 16:41:33 GMT-0600 (Central Standard Time),885337.6000000238,B,None,O,None,18224,1,18229.199999928474,867108.4000000954,7732,WL,C,9.0
7,1.8650000095367432,immed,58134.99999046326,Wed Dec 17 2025 16:41:33 GMT-0600 (Central Standard Time),907979.4000000954,A,c,O,c,1853,1,1864.5,906114.9000000954,7732,WL,C,1.0
7,2.365000009536743,immed,57634.99999046326,Wed Dec 17 2025 16:41:33 GMT-0600 (Central Standard Time),908479.3000000715,A,co,O,o,484,1,2364.399999976158,906114.9000000954,7732,WL,C,1.0
7,2.8480000495910645,immed,57151.999950408936,Wed Dec 17 2025 16:41:33 GMT-0600 (Central Standard Time),908962.4000000954,A,cor,O,r,475,1,2847.5,906114.9000000954,7732,WL,C,1.0
7,3.0980000495910645,immed,56901.999950408936,Wed Dec 17 2025 16:41:33 GMT-0600 (Central Standard Time),909211.9000000954,A,corn,O,n,230,1,3097.0,906114.9000000954,7732,WL,C,1.0
7,3.5310001373291016,immed,56468.9998626709,Wed Dec 17 2025 16:41:33 GMT-0600 (Central Standard Time),909645.8000000715,A,cornenter,O,enter,422,1,3530.899999976158,906114.9000000954,7732,WL,C,1.0
7,4.763999938964844,immed,55236.000061035156,Wed Dec 17 2025 16:41:33 GMT-0600 (Central Standard Time),910878.4000000954,A,w,O,w,1212,1,1232.4000000953674,909646.0,7732,WL,C,2.0
7,4.897000074386597,immed,55102.9999256134,Wed Dec 17 2025 16:41:33 GMT-0600 (Central Standard Time),911011.5,A,wh,O,h,111,1,1365.5,909646.0,7732,WL,C,2.0
7,5.730999946594238,immed,54269.00005340576,Wed Dec 17 2025 16:41:33 GMT-0600 (Central Standard Time),911845.7000000477,A,whe,O,e,821,1,2199.7000000476837,909646.0,7732,WL,C,2.0
7,5.947000026702881,immed,54052.99997329712,Wed Dec 17 2025 16:41:33 GMT-0600 (Central Standard Time),912061.1000000238,A,whea,O,a,201,1,2415.100000023842,909646.0,7732,WL,C,2.0
7,6.3480000495910645,immed,53651.999950408936,Wed Dec 17 2025 16:41:33 GMT-0600 (Central Standard Time),912462.4000000954,A,wheat,O,t,377,1,2816.4000000953674,909646.0,7732,WL,C,2.0
7,7.378999948501587,immed,52621.00005149841,Wed Dec 17 2025 16:41:33 GMT-0600 (Central Standard Time),913493.3000000715,A,wheatenter,O,enter,1010,1,3847.3000000715256,909646.0,7732,WL,C,2.0
7,7.812999963760376,immed,52187.000036239624,Wed Dec 17 2025 16:41:33 GMT-0600 (Central Standard Time),913926.9000000954,A,c,O,c,421,1,433.3000000715256,913493.6000000238,7732,WL,C,3.0
7,8.279000043869019,immed,51720.99995613098,Wed Dec 17 2025 16:41:33 GMT-0600 (Central Standard Time),914393.8000000715,A,ca,O,a,456,1,900.2000000476837,913493.6000000238,7732,WL,C,3.0
7,8.812999963760376,immed,51187.000036239624,Wed Dec 17 2025 16:41:33 GMT-0600 (Central Standard Time),914927.2000000477,A,cat,O,t,521,1,1433.6000000238419,913493.6000000238,7732,WL,C,3.0
7,9.013000011444092,immed,50986.99998855591,Wed Dec 17 2025 16:41:33 GMT-0600 (Central Standard Time),915127.1000000238,A,catt,O,t,176,1,1633.5,913493.6000000238,7732,WL,C,3.0
7,9.164000034332275,immed,50835.999965667725,Wed Dec 17 2025 16:41:33 GMT-0600 (Central Standard Time),915278.3000000715,A,cattl,O,l,135,1,1784.7000000476837,913493.6000000238,7732,WL,C,3.0
7,9.546000003814697,immed,50453.9999961853,Wed Dec 17 2025 16:41:33 GMT-0600 (Central Standard Time),915660.4000000954,A,cattle,O,e,359,1,2166.8000000715256,913493.6000000238,7732,WL,C,3.0
7,9.878999948501587,immed,50121.00005149841,Wed Dec 17 2025 16:41:33 GMT-0600 (Central Standard Time),915993.2000000477,A,cattleenter,O,enter,323,1,2499.600000023842,913493.6000000238,7732,WL,C,3.0
7,10.727999925613403,immed,49272.0000743866,Wed Dec 17 2025 16:41:33 GMT-0600 (Central Standard Time),916842.8000000715,A,q,O,q,842,1,849.3999999761581,915993.4000000954,7732,WL,C,4.0
7,10.92900013923645,immed,49070.99986076355,Wed Dec 17 2025 16:41:33 GMT-0600 (Central Standard Time),917043.3000000715,A,qu,O,u,189,1,1049.8999999761581,915993.4000000954,7732,WL,C,4.0
7,11.212000131607056,immed,48787.999868392944,Wed Dec 17 2025 16:41:33 GMT-0600 (Central Standard Time),917326.0,A,que,O,e,263,1,1332.5999999046326,915993.4000000954,7732,WL,C,4.0
7,11.396000146865845,immed,48603.999853134155,Wed Dec 17 2025 16:41:33 GMT-0600 (Central Standard Time),917510.2000000477,A,quee,O,e,159,1,1516.7999999523163,915993.4000000954,7732,WL,C,4.0
7,11.562000036239624,immed,48437.999963760376,Wed Dec 17 2025 16:41:33 GMT-0600 (Central Standard Time),917676.4000000954,A,queen,O,n,147,1,1683.0,915993.4000000954,7732,WL,C,4.0
7,12.07800006866455,immed,47921.99993133545,Wed Dec 17 2025 16:41:33 GMT-0600 (Central Standard Time),918192.6000000238,A,queenenter,O,enter,509,1,2199.1999999284744,915993.4000000954,7732,WL,C,4.0
7,15.57800006866455,immed,44421.99993133545,Wed Dec 17 2025 16:41:33 GMT-0600 (Central Standard Time),921692.1000000238,A,s,O,s,3482,1,3499.1999999284744,918192.9000000954,7732,WL,C,5.0
7,15.761000156402588,immed,44238.99984359741,Wed Dec 17 2025 16:41:33 GMT-0600 (Central Standard Time),921875.3000000715,A,su,O,u,177,1,3682.399999976158,918192.9000000954,7732,WL,C,5.0
7,16.210999965667725,immed,43789.000034332275,Wed Dec 17 2025 16:41:33 GMT-0600 (Central Standard Time),922325.4000000954,A,sug,O,g,439,1,4132.5,918192.9000000954,7732,WL,C,5.0
7,16.477999925613403,immed,43522.0000743866,Wed Dec 17 2025 16:41:33 GMT-0600 (Central Standard Time),922592.5,A,suga,O,a,261,1,4399.599999904633,918192.9000000954,7732,WL,C,5.0
7,16.778000116348267,immed,43221.99988365173,Wed Dec 17 2025 16:41:33 GMT-0600 (Central Standard Time),922891.9000000954,A,sugar,O,r,289,1,4699.0,918192.9000000954,7732,WL,C,5.0
7,17.444000005722046,immed,42555.999994277954,Wed Dec 17 2025 16:41:33 GMT-0600 (Central Standard Time),923558.1000000238,A,sugarh,O,h,646,1,5365.199999928474,918192.9000000954,7732,WL,C,5.0
7,17.55999994277954,immed,42440.00005722046,Wed Dec 17 2025 16:41:33 GMT-0600 (Central Standard Time),923674.4000000954,A,sugarho,O,o,110,1,5481.5,918192.9000000954,7732,WL,C,5.0
7,17.875999927520752,immed,42124.00007247925,Wed Dec 17 2025 16:41:33 GMT-0600 (Central Standard Time),923990.6000000238,A,sugarhom,O,m,304,1,5797.699999928474,918192.9000000954,7732,WL,C,5.0
7,18.193000078201294,immed,41806.999921798706,Wed Dec 17 2025 16:41:33 GMT-0600 (Central Standard Time),924307.2000000477,A,sugarhome,O,e,310,1,6114.299999952316,918192.9000000954,7732,WL,C,5.0
7,18.66000008583069,immed,41339.99991416931,Wed Dec 17 2025 16:41:33 GMT-0600 (Central Standard Time),924774.2000000477,A,sugarhomeenter,O,enter,447,1,6581.299999952316,918192.9000000954,7732,WL,C,5.0
7,19.926000118255615,immed,40073.999881744385,Wed Dec 17 2025 16:41:33 GMT-0600 (Central Standard Time),926040.8000000715,A,b,O,b,1253,1,1266.3999999761581,924774.4000000954,7732,WL,C,6.0
7,20.05900001525879,immed,39940.99998474121,Wed Dec 17 2025 16:41:33 GMT-0600 (Central Standard Time),926173.9000000954,A,bo,O,o,123,1,1399.5,924774.4000000954,7732,WL,C,6.0
7,20.39300012588501,immed,39606.99987411499,Wed Dec 17 2025 16:41:33 GMT-0600 (Central Standard Time),926507.1000000238,A,boy,O,y,315,1,1732.6999999284744,924774.4000000954,7732,WL,C,6.0
7,20.89300012588501,immed,39106.99987411499,Wed Dec 17 2025 16:41:33 GMT-0600 (Central Standard Time),927006.9000000954,A,boyenter,O,enter,479,1,2232.5,924774.4000000954,7732,WL,C,6.0
7,22.858999967575073,immed,37141.00003242493,Wed Dec 17 2025 16:41:33 GMT-0600 (Central Standard Time),928973.4000000954,A,d,O,d,1947,1,1966.2000000476837,927007.2000000477,7732,WL,C,7.0
7,23.026000022888184,immed,36973.99997711182,Wed Dec 17 2025 16:41:33 GMT-0600 (Central Standard Time),929139.9000000954,A,do,O,o,147,1,2132.7000000476837,927007.2000000477,7732,WL,C,7.0
7,23.258000135421753,immed,36741.99986457825,Wed Dec 17 2025 16:41:33 GMT-0600 (Central Standard Time),929372.7000000477,A,doc,O,c,223,1,2365.5,927007.2000000477,7732,WL,C,7.0
7,23.64199995994568,immed,36358.00004005432,Wed Dec 17 2025 16:41:33 GMT-0600 (Central Standard Time),929756.2000000477,A,doct,O,t,366,1,2749.0,927007.2000000477,7732,WL,C,7.0
7,23.80999994277954,immed,36190.00005722046,Wed Dec 17 2025 16:41:33 GMT-0600 (Central Standard Time),929924.1000000238,A,docto,O,o,146,1,2916.899999976158,927007.2000000477,7732,WL,C,7.0
7,24.0239999294281,immed,35976.0000705719,Wed Dec 17 2025 16:41:33 GMT-0600 (Central Standard Time),930138.5,A,doctor,O,r,196,1,3131.2999999523163,927007.2000000477,7732,WL,C,7.0
7,24.391000032424927,immed,35608.99996757507,Wed Dec 17 2025 16:41:33 GMT-0600 (Central Standard Time),930505.7000000477,A,doctorenter,O,enter,354,1,3498.5,927007.2000000477,7732,WL,C,7.0
7,27.124000072479248,immed,32875.99992752075,Wed Dec 17 2025 16:41:33 GMT-0600 (Central Standard Time),933238.5,A,b,O,b,2720,1,2732.5999999046326,930505.9000000954,7732,WL,C,8.0
7,27.324000120162964,immed,32675.999879837036,Wed Dec 17 2025 16:41:33 GMT-0600 (Central Standard Time),933437.9000000954,A,bo,O,o,178,1,2932.0,930505.9000000954,7732,WL,C,8.0
7,27.625,immed,32375.0,Wed Dec 17 2025 16:41:33 GMT-0600 (Central Standard Time),933739.0,A,bod,O,d,294,1,3233.0999999046326,930505.9000000954,7732,WL,C,8.0
7,27.79100012779236,immed,32208.99987220764,Wed Dec 17 2025 16:41:33 GMT-0600 (Central Standard Time),933905.6000000238,A,body,O,y,159,1,3399.6999999284744,930505.9000000954,7732,WL,C,8.0
7,28.32200002670288,immed,31677.99997329712,Wed Dec 17 2025 16:41:33 GMT-0600 (Central Standard Time),934436.6000000238,A,bodyenter,O,enter,512,1,3930.6999999284744,930505.9000000954,7732,WL,C,8.0
7,29.140000104904175,immed,30859.999895095825,Wed Dec 17 2025 16:41:33 GMT-0600 (Central Standard Time),935253.9000000954,A,n,O,n,807,1,817.1000000238419,934436.8000000715,7732,WL,C,9.0
7,29.375,immed,30625.0,Wed Dec 17 2025 16:41:33 GMT-0600 (Central Standard Time),935489.2000000477,A,na,O,a,214,1,1052.3999999761581,934436.8000000715,7732,WL,C,9.0
7,29.555999994277954,immed,30444.000005722046,Wed Dec 17 2025 16:41:33 GMT-0600 (Central Standard Time),935670.3000000715,A,nai,O,i,162,1,1233.5,934436.8000000715,7732,WL,C,9.0
7,29.7739999294281,immed,30226.0000705719,Wed Dec 17 2025 16:41:33 GMT-0600 (Central Standard Time),935887.9000000954,A,nail,O,l,212,1,1451.1000000238419,934436.8000000715,7732,WL,C,9.0
7,30.456000089645386,immed,29543.999910354614,Wed Dec 17 2025 16:41:33 GMT-0600 (Central Standard Time),936570.5,A,nailenter,O,enter,665,1,2133.6999999284744,934436.8000000715,7732,WL,C,9.0
7,31.240000009536743,immed,28759.999990463257,Wed Dec 17 2025 16:41:33 GMT-0600 (Central Standard Time),937353.9000000954,A,l,O,l,767,1,783.1000000238419,936570.8000000715,7732,WL,C,10.0
7,31.437999963760376,immed,28562.000036239624,Wed Dec 17 2025 16:41:33 GMT-0600 (Central Standard Time),937552.6000000238,A,le,O,e,194,1,981.7999999523163,936570.8000000715,7732,WL,C,10.0
7,31.73900008201599,immed,28260.99991798401,Wed Dec 17 2025 16:41:33 GMT-0600 (Central Standard Time),937853.2000000477,A,let,O,t,284,1,1282.3999999761581,936570.8000000715,7732,WL,C,10.0
7,31.92199993133545,immed,28078.00006866455,Wed Dec 17 2025 16:41:33 GMT-0600 (Central Standard Time),938036.5,A,lett,O,t,171,1,1465.6999999284744,936570.8000000715,7732,WL,C,10.0
7,32.28800010681152,immed,27711.999893188477,Wed Dec 17 2025 16:41:33 GMT-0600 (Central Standard Time),938402.8000000715,A,lette,O,e,349,1,1832.0,936570.8000000715,7732,WL,C,10.0
7,32.456000089645386,immed,27543.999910354614,Wed Dec 17 2025 16:41:33 GMT-0600 (Central Standard Time),938570.6000000238,A,letter,O,r,160,1,1999.7999999523163,936570.8000000715,7732,WL,C,10.0
7,32.82299995422363,immed,27177.000045776367,Wed Dec 17 2025 16:41:33 GMT-0600 (Central Standard Time),938937.0,A,letterenter,O,enter,358,1,2366.1999999284744,936570.8000000715,7732,WL,C,10.0
7,52.78200006484985,immed,7217.9999351501465,Wed Dec 17 2025 16:41:33 GMT-0600 (Central Standard Time),958896.9000000954,A,s,O,s,19946,1,19959.700000047684,938937.2000000477,7732,WL,C,11.0
7,52.949000120162964,immed,7050.999879837036,Wed Dec 17 2025 16:41:33 GMT-0600 (Central Standard Time),959063.9000000954,A,sh,O,h,146,1,20126.700000047684,938937.2000000477,7732,WL,C,11.0
7,53.263999938964844,immed,6736.000061035156,Wed Dec 17 2025 16:41:33 GMT-0600 (Central Standard Time),959379.5,A,sho,O,o,297,1,20442.299999952316,938937.2000000477,7732,WL,C,11.0
7,53.46300005912781,immed,6536.999940872192,Wed Dec 17 2025 16:41:33 GMT-0600 (Central Standard Time),959578.2000000477,A,shor,O,r,192,1,20641.0,938937.2000000477,7732,WL,C,11.0
7,53.746999979019165,immed,6253.000020980835,Wed Dec 17 2025 16:41:33 GMT-0600 (Central Standard Time),959862.3000000715,A,shore,O,e,274,1,20925.100000023842,938937.2000000477,7732,WL,C,11.0
7,54.081000089645386,immed,5918.999910354614,Wed Dec 17 2025 16:41:33 GMT-0600 (Central Standard Time),960196.0,A,shoreenter,O,enter,318,1,21258.799999952316,938937.2000000477,7732,WL,C,11.0
7,60.01300001144409,immed,-13.000011444091797,Wed Dec 17 2025 16:41:33 GMT-0600 (Central Standard Time),966128.1000000238,A,None,O,None,5927,1,5931.899999976158,960196.2000000477,7732,WL,C,12.0
