acc_sum,block,block_c,change,condition,correct,correct_response,datetime,endtime,face,project,response,response_time,row_sel,session_number,start_end,starttime,subject_id,task,task_vers,trial
0,prac,1,,1-Back,,,Thu Nov 06 2025 16:18:37 GMT-0600 (Central Standard Time),,093_m_f_n_a.png,O,space,1389,1,1,,,7235,NNB,C,0
1,prac,1,0.0,1-Back,1.0,m,Thu Nov 06 2025 16:18:37 GMT-0600 (Central Standard Time),124562.39999999106,098_y_f_n_a.png,O,m,1410,2,1,2258.8999999910593,122303.5,7235,NNB,C,1
2,prac,1,1.0,1-Back,1.0,z,Thu Nov 06 2025 16:18:37 GMT-0600 (Central Standard Time),126844.59999999404,098_y_f_n_a.png,O,z,1500,3,1,2276.5,124568.09999999404,7235,NNB,C,2
3,prac,1,0.0,1-Back,1.0,m,Thu Nov 06 2025 16:18:37 GMT-0600 (Central Standard Time),129243.09999999404,059_o_m_n_a.png,O,m,1540,4,1,2393.0999999940395,126850.0,7235,NNB,C,3
4,prac,1,0.0,1-Back,1.0,m,Thu Nov 06 2025 16:18:37 GMT-0600 (Central Standard Time),131976.89999999106,092_m_m_n_a.png,O,m,1891,5,1,2726.7000000029802,129250.19999998808,7235,NNB,C,4
5,prac,1,1.0,1-Back,1.0,z,Thu Nov 06 2025 16:18:37 GMT-0600 (Central Standard Time),133559.59999999404,092_m_m_n_a.png,O,z,805,6,1,1576.5,131983.09999999404,7235,NNB,C,5
6,prac,1,0.0,1-Back,1.0,m,Thu Nov 06 2025 16:18:37 GMT-0600 (Central Standard Time),136224.5,130_o_f_n_a.png,O,m,1803,7,1,2658.800000011921,133565.69999998808,7235,NNB,C,6
7,prac,1,0.0,1-Back,1.0,m,Thu Nov 06 2025 16:18:37 GMT-0600 (Central Standard Time),138823.5,082_m_m_n_a.png,O,m,1751,8,1,2591.800000011921,136231.69999998808,7235,NNB,C,7
8,prac,1,0.0,1-Back,1.0,m,Thu Nov 06 2025 16:18:37 GMT-0600 (Central Standard Time),140740.0,093_m_f_n_a.png,O,m,1134,9,1,1910.0,138830.0,7235,NNB,C,8
9,prac,1,1.0,1-Back,1.0,z,Thu Nov 06 2025 16:18:37 GMT-0600 (Central Standard Time),142306.59999999404,093_m_f_n_a.png,O,z,802,10,1,1561.2999999970198,140745.29999999702,7235,NNB,C,9
10,prac,1,0.0,1-Back,1.0,m,Thu Nov 06 2025 16:18:37 GMT-0600 (Central Standard Time),144538.59999999404,059_o_m_n_a.png,O,m,1443,11,1,2225.7999999970198,142312.79999999702,7235,NNB,C,10
11,prac,1,0.0,1-Back,1.0,m,Thu Nov 06 2025 16:18:37 GMT-0600 (Central Standard Time),146404.5,028_y_f_n_a.png,O,m,1016,12,1,1860.800000011921,144543.69999998808,7235,NNB,C,11
0,test,1,0.0,1-Back,,,Thu Nov 06 2025 16:18:37 GMT-0600 (Central Standard Time),146404.5,098_y_f_n_a.png,O,space,2675,1,1,1860.800000011921,144543.69999998808,7235,NNB,C,0
1,test,1,0.0,1-Back,1.0,m,Thu Nov 06 2025 16:18:37 GMT-0600 (Central Standard Time),158484.69999998808,006_m_f_n_a.png,O,m,899,2,1,1927.5999999940395,156557.09999999404,7235,NNB,C,1
2,test,1,0.0,1-Back,1.0,m,Thu Nov 06 2025 16:18:37 GMT-0600 (Central Standard Time),160316.69999998808,028_y_f_n_a.png,O,m,815,3,1,1829.199999988079,158487.5,7235,NNB,C,2
3,test,1,1.0,1-Back,1.0,z,Thu Nov 06 2025 16:18:37 GMT-0600 (Central Standard Time),161866.5,028_y_f_n_a.png,O,z,517,4,1,1546.4000000059605,160320.09999999404,7235,NNB,C,3
4,test,1,0.0,1-Back,1.0,m,Thu Nov 06 2025 16:18:37 GMT-0600 (Central Standard Time),163649.29999999702,006_m_f_n_a.png,O,m,753,5,1,1779.5,161869.79999999702,7235,NNB,C,4
5,test,1,0.0,1-Back,1.0,m,Thu Nov 06 2025 16:18:37 GMT-0600 (Central Standard Time),165515.29999999702,059_o_m_n_a.png,O,m,843,6,1,1862.7999999970198,163652.5,7235,NNB,C,5
6,test,1,1.0,1-Back,1.0,z,Thu Nov 06 2025 16:18:37 GMT-0600 (Central Standard Time),167265.39999999106,059_o_m_n_a.png,O,z,728,7,1,1746.5,165518.89999999106,7235,NNB,C,6
7,test,1,0.0,1-Back,1.0,m,Thu Nov 06 2025 16:18:37 GMT-0600 (Central Standard Time),169181.19999998808,092_m_m_n_a.png,O,m,891,8,1,1911.7999999970198,167269.39999999106,7235,NNB,C,7
8,test,1,0.0,1-Back,1.0,m,Thu Nov 06 2025 16:18:37 GMT-0600 (Central Standard Time),170966.59999999404,130_o_f_n_a.png,O,m,758,9,1,1781.2000000029802,169185.39999999106,7235,NNB,C,8
9,test,1,0.0,1-Back,1.0,m,Thu Nov 06 2025 16:18:37 GMT-0600 (Central Standard Time),172996.19999998808,092_m_m_n_a.png,O,m,1008,10,1,2026.0999999940395,170970.09999999404,7235,NNB,C,9
10,test,1,0.0,1-Back,1.0,m,Thu Nov 06 2025 16:18:37 GMT-0600 (Central Standard Time),174879.39999999106,057_y_m_n_a.png,O,m,863,11,1,1880.0,172999.39999999106,7235,NNB,C,10
11,test,1,1.0,1-Back,1.0,z,Thu Nov 06 2025 16:18:37 GMT-0600 (Central Standard Time),176378.0,057_y_m_n_a.png,O,z,468,12,1,1495.7000000029802,174882.29999999702,7235,NNB,C,11
12,test,1,0.0,1-Back,1.0,m,Thu Nov 06 2025 16:18:37 GMT-0600 (Central Standard Time),178211.0,030_o_f_n_a.png,O,m,809,13,1,1829.2000000029802,176381.79999999702,7235,NNB,C,12
13,test,1,1.0,1-Back,1.0,z,Thu Nov 06 2025 16:18:37 GMT-0600 (Central Standard Time),180044.19999998808,030_o_f_n_a.png,O,z,800,14,1,1829.5,178214.69999998808,7235,NNB,C,13
14,test,1,0.0,1-Back,1.0,m,Thu Nov 06 2025 16:18:37 GMT-0600 (Central Standard Time),182160.39999999106,031_y_m_n_a.png,O,m,1095,15,1,2112.5999999940395,180047.79999999702,7235,NNB,C,14
15,test,1,0.0,1-Back,1.0,m,Thu Nov 06 2025 16:18:37 GMT-0600 (Central Standard Time),183910.5,093_m_f_n_a.png,O,m,724,16,1,1746.6000000089407,182163.89999999106,7235,NNB,C,15
16,test,1,0.0,1-Back,1.0,m,Thu Nov 06 2025 16:18:37 GMT-0600 (Central Standard Time),185708.89999999106,146_o_m_n_a.png,O,m,782,17,1,1796.0,183912.89999999106,7235,NNB,C,16
17,test,1,0.0,1-Back,1.0,m,Thu Nov 06 2025 16:18:37 GMT-0600 (Central Standard Time),187392.0,093_m_f_n_a.png,O,m,664,18,1,1680.1000000089407,185711.89999999106,7235,NNB,C,17
0,test,2,0.0,1-Back,,,Thu Nov 06 2025 16:18:37 GMT-0600 (Central Standard Time),187392.0,092_m_m_n_a.png,O,space,2019,1,1,1680.1000000089407,185711.89999999106,7235,NNB,C,0
1,test,2,0.0,1-Back,1.0,m,Thu Nov 06 2025 16:18:37 GMT-0600 (Central Standard Time),193356.5,006_m_f_n_a.png,O,m,899,2,1,1912.2000000029802,191444.29999999702,7235,NNB,C,1
2,test,2,1.0,1-Back,1.0,z,Thu Nov 06 2025 16:18:37 GMT-0600 (Central Standard Time),195239.19999998808,006_m_f_n_a.png,O,z,855,3,1,1879.7999999970198,193359.39999999106,7235,NNB,C,2
3,test,2,0.0,1-Back,1.0,m,Thu Nov 06 2025 16:18:37 GMT-0600 (Central Standard Time),197038.29999999702,092_m_m_n_a.png,O,m,773,4,1,1795.4000000059605,195242.89999999106,7235,NNB,C,3
4,test,2,0.0,1-Back,1.0,m,Thu Nov 06 2025 16:18:37 GMT-0600 (Central Standard Time),198788.0,057_y_m_n_a.png,O,m,725,5,1,1746.5,197041.5,7235,NNB,C,4
5,test,2,0.0,1-Back,1.0,m,Thu Nov 06 2025 16:18:37 GMT-0600 (Central Standard Time),200438.19999998808,098_y_f_n_a.png,O,m,625,6,1,1647.2999999970198,198790.89999999106,7235,NNB,C,5
6,test,2,1.0,1-Back,1.0,z,Thu Nov 06 2025 16:18:37 GMT-0600 (Central Standard Time),202120.79999999702,098_y_f_n_a.png,O,z,662,7,1,1678.9000000059605,200441.89999999106,7235,NNB,C,6
7,test,2,0.0,1-Back,1.0,m,Thu Nov 06 2025 16:18:37 GMT-0600 (Central Standard Time),203937.39999999106,057_y_m_n_a.png,O,m,787,8,1,1813.2999999970198,202124.09999999404,7235,NNB,C,7
8,test,2,0.0,1-Back,1.0,m,Thu Nov 06 2025 16:18:37 GMT-0600 (Central Standard Time),205753.5,030_o_f_n_a.png,O,m,786,9,1,1813.300000011921,203940.19999998808,7235,NNB,C,8
9,test,2,0.0,1-Back,1.0,m,Thu Nov 06 2025 16:18:37 GMT-0600 (Central Standard Time),207452.09999999404,082_m_m_n_a.png,O,m,676,10,1,1695.9000000059605,205756.19999998808,7235,NNB,C,9
10,test,2,1.0,1-Back,1.0,z,Thu Nov 06 2025 16:18:37 GMT-0600 (Central Standard Time),209201.0,082_m_m_n_a.png,O,z,727,11,1,1745.9000000059605,207455.09999999404,7235,NNB,C,10
11,test,2,0.0,1-Back,1.0,m,Thu Nov 06 2025 16:18:37 GMT-0600 (Central Standard Time),210918.19999998808,030_o_f_n_a.png,O,m,690,12,1,1713.7999999970198,209204.39999999106,7235,NNB,C,11
12,test,2,0.0,1-Back,1.0,m,Thu Nov 06 2025 16:18:37 GMT-0600 (Central Standard Time),212600.5,130_o_f_n_a.png,O,m,654,13,1,1679.300000011921,210921.19999998808,7235,NNB,C,12
13,test,2,0.0,1-Back,1.0,m,Thu Nov 06 2025 16:18:37 GMT-0600 (Central Standard Time),214300.39999999106,059_o_m_n_a.png,O,m,667,14,1,1695.2999999970198,212605.09999999404,7235,NNB,C,13
14,test,2,0.0,1-Back,1.0,m,Thu Nov 06 2025 16:18:37 GMT-0600 (Central Standard Time),216199.19999998808,146_o_m_n_a.png,O,m,879,15,1,1896.199999988079,214303.0,7235,NNB,C,14
15,test,2,1.0,1-Back,1.0,z,Thu Nov 06 2025 16:18:37 GMT-0600 (Central Standard Time),217715.79999999702,146_o_m_n_a.png,O,z,485,16,1,1513.4000000059605,216202.39999999106,7235,NNB,C,15
16,test,2,0.0,1-Back,1.0,m,Thu Nov 06 2025 16:18:37 GMT-0600 (Central Standard Time),219432.0,031_y_m_n_a.png,O,m,697,17,1,1712.800000011921,217719.19999998808,7235,NNB,C,16
17,test,2,1.0,1-Back,1.0,z,Thu Nov 06 2025 16:18:37 GMT-0600 (Central Standard Time),221014.89999999106,031_y_m_n_a.png,O,z,565,18,1,1579.7000000029802,219435.19999998808,7235,NNB,C,17
0,test,3,1.0,1-Back,,,Thu Nov 06 2025 16:18:37 GMT-0600 (Central Standard Time),221014.89999999106,028_y_f_n_a.png,O,space,1533,1,1,1579.7000000029802,219435.19999998808,7235,NNB,C,0
1,test,3,0.0,1-Back,1.0,m,Thu Nov 06 2025 16:18:37 GMT-0600 (Central Standard Time),227512.0,146_o_m_n_a.png,O,m,1838,1,1,2861.2000000029802,224650.79999999702,7235,NNB,C,1
2,test,3,1.0,1-Back,1.0,z,Thu Nov 06 2025 16:18:37 GMT-0600 (Central Standard Time),229462.09999999404,146_o_m_n_a.png,O,z,922,1,1,1946.7999999970198,227515.29999999702,7235,NNB,C,2
3,test,3,0.0,1-Back,1.0,m,Thu Nov 06 2025 16:18:37 GMT-0600 (Central Standard Time),231944.5,093_m_f_n_a.png,O,m,1454,1,1,2479.5,229465.0,7235,NNB,C,3
4,test,3,1.0,1-Back,1.0,z,Thu Nov 06 2025 16:18:37 GMT-0600 (Central Standard Time),233677.59999999404,093_m_f_n_a.png,O,z,709,1,1,1730.2999999970198,231947.29999999702,7235,NNB,C,4
5,test,3,0.0,1-Back,1.0,m,Thu Nov 06 2025 16:18:37 GMT-0600 (Central Standard Time),235709.59999999404,030_o_f_n_a.png,O,m,1015,1,1,2029.0999999940395,233680.5,7235,NNB,C,5
6,test,3,0.0,1-Back,1.0,m,Thu Nov 06 2025 16:18:37 GMT-0600 (Central Standard Time),237376.5,057_y_m_n_a.png,O,m,646,1,1,1663.7000000029802,235712.79999999702,7235,NNB,C,6
7,test,3,0.0,1-Back,1.0,m,Thu Nov 06 2025 16:18:37 GMT-0600 (Central Standard Time),239375.39999999106,030_o_f_n_a.png,O,m,971,1,1,1995.7000000029802,237379.69999998808,7235,NNB,C,7
8,test,3,0.0,1-Back,1.0,m,Thu Nov 06 2025 16:18:37 GMT-0600 (Central Standard Time),241208.29999999702,031_y_m_n_a.png,O,m,812,1,1,1829.9000000059605,239378.39999999106,7235,NNB,C,8
9,test,3,1.0,1-Back,1.0,z,Thu Nov 06 2025 16:18:37 GMT-0600 (Central Standard Time),242791.39999999106,031_y_m_n_a.png,O,z,556,1,1,1578.2999999970198,241213.09999999404,7235,NNB,C,9
10,test,3,0.0,1-Back,1.0,m,Thu Nov 06 2025 16:18:37 GMT-0600 (Central Standard Time),244807.79999999702,006_m_f_n_a.png,O,m,988,1,1,2013.2999999970198,242794.5,7235,NNB,C,10
11,test,3,0.0,1-Back,1.0,m,Thu Nov 06 2025 16:18:37 GMT-0600 (Central Standard Time),246439.89999999106,098_y_f_n_a.png,O,m,606,1,1,1629.0999999940395,244810.79999999702,7235,NNB,C,11
12,test,3,1.0,1-Back,1.0,z,Thu Nov 06 2025 16:18:37 GMT-0600 (Central Standard Time),248205.89999999106,098_y_f_n_a.png,O,z,740,1,1,1763.0,246442.89999999106,7235,NNB,C,12
13,test,3,0.0,1-Back,1.0,m,Thu Nov 06 2025 16:18:37 GMT-0600 (Central Standard Time),250055.5,006_m_f_n_a.png,O,m,823,1,1,1846.1000000089407,248209.39999999106,7235,NNB,C,13
14,test,3,0.0,1-Back,1.0,m,Thu Nov 06 2025 16:18:37 GMT-0600 (Central Standard Time),251854.5,092_m_m_n_a.png,O,m,782,1,1,1795.6000000089407,250058.89999999106,7235,NNB,C,14
15,test,3,1.0,1-Back,1.0,z,Thu Nov 06 2025 16:18:37 GMT-0600 (Central Standard Time),253471.0,092_m_m_n_a.png,O,z,598,1,1,1613.4000000059605,251857.59999999404,7235,NNB,C,15
16,test,3,0.0,1-Back,1.0,m,Thu Nov 06 2025 16:18:37 GMT-0600 (Central Standard Time),255553.59999999404,130_o_f_n_a.png,O,m,1061,1,1,2079.2000000029802,253474.39999999106,7235,NNB,C,16
17,test,3,1.0,1-Back,1.0,z,Thu Nov 06 2025 16:18:37 GMT-0600 (Central Standard Time),257352.59999999404,130_o_f_n_a.png,O,z,779,1,1,1796.4000000059605,255556.19999998808,7235,NNB,C,17
0,test,4,1.0,1-Back,,,Thu Nov 06 2025 16:18:37 GMT-0600 (Central Standard Time),257352.59999999404,093_m_f_n_a.png,O,space,1667,1,1,1796.4000000059605,255556.19999998808,7235,NNB,C,0
1,test,4,0.0,1-Back,1.0,m,Thu Nov 06 2025 16:18:37 GMT-0600 (Central Standard Time),262950.59999999404,146_o_m_n_a.png,O,m,813,2,1,1829.5999999940395,261121.0,7235,NNB,C,1
2,test,4,0.0,1-Back,1.0,m,Thu Nov 06 2025 16:18:37 GMT-0600 (Central Standard Time),265017.6999999881,093_m_f_n_a.png,O,m,1037,3,1,2063.199999988079,262954.5,7235,NNB,C,2
3,test,4,0.0,1-Back,1.0,m,Thu Nov 06 2025 16:18:37 GMT-0600 (Central Standard Time),266966.5,030_o_f_n_a.png,O,m,932,4,1,1945.4000000059605,265021.09999999404,7235,NNB,C,3
3,test,4,1.0,1-Back,0.0,z,Thu Nov 06 2025 16:18:37 GMT-0600 (Central Standard Time),268899.09999999404,030_o_f_n_a.png,O,m,900,5,1,1929.5999999940395,266969.5,7235,NNB,C,4
4,test,4,0.0,1-Back,1.0,m,Thu Nov 06 2025 16:18:37 GMT-0600 (Central Standard Time),270714.799999997,098_y_f_n_a.png,O,m,792,6,1,1812.2999999970198,268902.5,7235,NNB,C,5
5,test,4,0.0,1-Back,1.0,m,Thu Nov 06 2025 16:18:37 GMT-0600 (Central Standard Time),272398.0,057_y_m_n_a.png,O,m,650,7,1,1680.2000000029802,270717.799999997,7235,NNB,C,6
5,test,4,1.0,1-Back,0.0,z,Thu Nov 06 2025 16:18:37 GMT-0600 (Central Standard Time),274364.5,057_y_m_n_a.png,O,m,949,8,1,1962.800000011921,272401.6999999881,7235,NNB,C,7
6,test,4,0.0,1-Back,1.0,m,Thu Nov 06 2025 16:18:37 GMT-0600 (Central Standard Time),275981.299999997,098_y_f_n_a.png,O,m,592,9,1,1613.9000000059605,274367.39999999106,7235,NNB,C,8
7,test,4,0.0,1-Back,1.0,m,Thu Nov 06 2025 16:18:37 GMT-0600 (Central Standard Time),277696.09999999404,082_m_m_n_a.png,O,m,688,10,1,1712.2999999970198,275983.799999997,7235,NNB,C,9
7,test,4,1.0,1-Back,0.0,z,Thu Nov 06 2025 16:18:37 GMT-0600 (Central Standard Time),279412.39999999106,082_m_m_n_a.png,O,m,699,11,1,1712.8999999910593,277699.5,7235,NNB,C,10
8,test,4,0.0,1-Back,1.0,m,Thu Nov 06 2025 16:18:37 GMT-0600 (Central Standard Time),281794.39999999106,130_o_f_n_a.png,O,m,1359,12,1,2375.7999999970198,279418.59999999404,7235,NNB,C,11
9,test,4,0.0,1-Back,1.0,m,Thu Nov 06 2025 16:18:37 GMT-0600 (Central Standard Time),283478.0,059_o_m_n_a.png,O,m,649,13,1,1681.1000000089407,281796.89999999106,7235,NNB,C,12
10,test,4,0.0,1-Back,1.0,m,Thu Nov 06 2025 16:18:37 GMT-0600 (Central Standard Time),285327.299999997,130_o_f_n_a.png,O,m,817,14,1,1845.1000000089407,283482.1999999881,7235,NNB,C,13
11,test,4,0.0,1-Back,1.0,m,Thu Nov 06 2025 16:18:37 GMT-0600 (Central Standard Time),286959.1999999881,028_y_f_n_a.png,O,m,613,15,1,1628.199999988079,285331.0,7235,NNB,C,14
12,test,4,1.0,1-Back,1.0,z,Thu Nov 06 2025 16:18:37 GMT-0600 (Central Standard Time),288442.799999997,028_y_f_n_a.png,O,z,460,16,1,1478.7000000029802,286964.09999999404,7235,NNB,C,15
13,test,4,0.0,1-Back,1.0,m,Thu Nov 06 2025 16:18:37 GMT-0600 (Central Standard Time),290325.6999999881,006_m_f_n_a.png,O,m,858,17,1,1879.5,288446.1999999881,7235,NNB,C,16
14,test,4,1.0,1-Back,1.0,z,Thu Nov 06 2025 16:18:37 GMT-0600 (Central Standard Time),291859.5,006_m_f_n_a.png,O,z,501,18,1,1530.0,290329.5,7235,NNB,C,17
0,test,5,1.0,1-Back,,,Thu Nov 06 2025 16:18:37 GMT-0600 (Central Standard Time),291859.5,059_o_m_n_a.png,O,space,1609,1,1,1530.0,290329.5,7235,NNB,C,0
1,test,5,1.0,1-Back,1.0,z,Thu Nov 06 2025 16:18:37 GMT-0600 (Central Standard Time),297057.799999997,059_o_m_n_a.png,O,z,545,2,1,1563.9000000059605,295493.89999999106,7235,NNB,C,1
2,test,5,0.0,1-Back,1.0,m,Thu Nov 06 2025 16:18:37 GMT-0600 (Central Standard Time),298989.6999999881,098_y_f_n_a.png,O,m,915,3,1,1929.0,297060.6999999881,7235,NNB,C,2
3,test,5,0.0,1-Back,1.0,m,Thu Nov 06 2025 16:18:37 GMT-0600 (Central Standard Time),301255.59999999404,057_y_m_n_a.png,O,m,1237,4,1,2261.9000000059605,298993.6999999881,7235,NNB,C,3
4,test,5,0.0,1-Back,1.0,m,Thu Nov 06 2025 16:18:37 GMT-0600 (Central Standard Time),303055.1999999881,098_y_f_n_a.png,O,m,780,5,1,1795.0999999940395,301260.09999999404,7235,NNB,C,4
5,test,5,0.0,1-Back,1.0,m,Thu Nov 06 2025 16:18:37 GMT-0600 (Central Standard Time),304820.6999999881,092_m_m_n_a.png,O,m,748,6,1,1762.3999999910593,303058.299999997,7235,NNB,C,5
6,test,5,1.0,1-Back,1.0,z,Thu Nov 06 2025 16:18:37 GMT-0600 (Central Standard Time),306553.6999999881,092_m_m_n_a.png,O,z,711,7,1,1728.5,304825.1999999881,7235,NNB,C,6
7,test,5,0.0,1-Back,1.0,m,Thu Nov 06 2025 16:18:37 GMT-0600 (Central Standard Time),308369.6999999881,028_y_f_n_a.png,O,m,786,8,1,1812.7999999970198,306556.89999999106,7235,NNB,C,7
8,test,5,0.0,1-Back,1.0,m,Thu Nov 06 2025 16:18:37 GMT-0600 (Central Standard Time),310170.09999999404,031_y_m_n_a.png,O,m,771,9,1,1797.5999999940395,308372.5,7235,NNB,C,8
9,test,5,0.0,1-Back,1.0,m,Thu Nov 06 2025 16:18:37 GMT-0600 (Central Standard Time),311852.1999999881,028_y_f_n_a.png,O,m,650,10,1,1678.699999988079,310173.5,7235,NNB,C,9
10,test,5,0.0,1-Back,1.0,m,Thu Nov 06 2025 16:18:37 GMT-0600 (Central Standard Time),313568.39999999106,130_o_f_n_a.png,O,m,697,11,1,1713.2999999970198,311855.09999999404,7235,NNB,C,10
10,test,5,1.0,1-Back,0.0,z,Thu Nov 06 2025 16:18:37 GMT-0600 (Central Standard Time),315351.1999999881,130_o_f_n_a.png,O,m,764,12,1,1779.0,313572.1999999881,7235,NNB,C,11
11,test,5,0.0,1-Back,1.0,m,Thu Nov 06 2025 16:18:37 GMT-0600 (Central Standard Time),317650.299999997,146_o_m_n_a.png,O,m,1276,13,1,2295.9000000059605,315354.39999999106,7235,NNB,C,12
12,test,5,0.0,1-Back,1.0,m,Thu Nov 06 2025 16:18:37 GMT-0600 (Central Standard Time),319249.6999999881,093_m_f_n_a.png,O,m,569,14,1,1595.7999999970198,317653.89999999106,7235,NNB,C,13
12,test,5,1.0,1-Back,0.0,z,Thu Nov 06 2025 16:18:37 GMT-0600 (Central Standard Time),321416.09999999404,093_m_f_n_a.png,O,m,1147,15,1,2162.4000000059605,319253.6999999881,7235,NNB,C,14
13,test,5,0.0,1-Back,1.0,m,Thu Nov 06 2025 16:18:37 GMT-0600 (Central Standard Time),323982.299999997,146_o_m_n_a.png,O,m,1539,16,1,2563.1000000089407,321419.1999999881,7235,NNB,C,15
14,test,5,0.0,1-Back,1.0,m,Thu Nov 06 2025 16:18:37 GMT-0600 (Central Standard Time),325548.39999999106,006_m_f_n_a.png,O,m,534,17,1,1562.8999999910593,323985.5,7235,NNB,C,16
15,test,5,0.0,1-Back,1.0,m,Thu Nov 06 2025 16:18:37 GMT-0600 (Central Standard Time),327247.6999999881,082_m_m_n_a.png,O,m,681,18,1,1696.199999988079,325551.5,7235,NNB,C,17
0,prac,1,0.0,2-Back,,,Thu Nov 06 2025 16:18:37 GMT-0600 (Central Standard Time),327247.6999999881,031_y_m_n_a.png,O,space,6825,1,1,1696.199999988079,325551.5,7235,NNB,C,0
0,prac,1,0.0,2-Back,,,Thu Nov 06 2025 16:18:37 GMT-0600 (Central Standard Time),327247.6999999881,006_m_f_n_a.png,O,space,6825,2,1,1696.199999988079,325551.5,7235,NNB,C,0
1,prac,1,1.0,2-Back,1.0,m,Thu Nov 06 2025 16:18:37 GMT-0600 (Central Standard Time),424833.0,146_o_m_n_a.png,O,m,1326,3,1,2175.0,422658.0,7235,NNB,C,1
2,prac,1,0.0,2-Back,1.0,m,Thu Nov 06 2025 16:18:37 GMT-0600 (Central Standard Time),427066.89999999106,130_o_f_n_a.png,O,m,1362,4,1,2228.0999999940395,424838.799999997,7235,NNB,C,2
3,prac,1,0.0,2-Back,1.0,z,Thu Nov 06 2025 16:18:37 GMT-0600 (Central Standard Time),429381.6999999881,146_o_m_n_a.png,O,z,1554,5,1,2307.5,427074.1999999881,7235,NNB,C,3
3,prac,1,1.0,2-Back,0.0,z,Thu Nov 06 2025 16:18:37 GMT-0600 (Central Standard Time),431531.09999999404,130_o_f_n_a.png,O,m,1369,6,1,2143.9000000059605,429387.1999999881,7235,NNB,C,4
3,prac,1,0.0,2-Back,0.0,m,Thu Nov 06 2025 16:18:37 GMT-0600 (Central Standard Time),434313.39999999106,082_m_m_n_a.png,O,None,2011,7,1,2776.3999999910593,431537.0,7235,NNB,C,5
3,prac,1,0.0,2-Back,0.0,m,Thu Nov 06 2025 16:18:37 GMT-0600 (Central Standard Time),437078.6999999881,059_o_m_n_a.png,O,z,1908,8,1,2759.5,434319.1999999881,7235,NNB,C,6
4,prac,1,0.0,2-Back,1.0,m,Thu Nov 06 2025 16:18:37 GMT-0600 (Central Standard Time),439694.5,028_y_f_n_a.png,O,m,1758,9,1,2608.5,437086.0,7235,NNB,C,7
5,prac,1,1.0,2-Back,1.0,z,Thu Nov 06 2025 16:18:37 GMT-0600 (Central Standard Time),441961.799999997,059_o_m_n_a.png,O,z,1478,10,1,2260.2000000029802,439701.59999999404,7235,NNB,C,8
6,prac,1,0.0,2-Back,1.0,m,Thu Nov 06 2025 16:18:37 GMT-0600 (Central Standard Time),444126.59999999404,098_y_f_n_a.png,O,m,1307,11,1,2159.5,441967.09999999404,7235,NNB,C,9
6,prac,1,0.0,2-Back,0.0,m,Thu Nov 06 2025 16:18:37 GMT-0600 (Central Standard Time),446309.0,082_m_m_n_a.png,O,z,1399,12,1,2176.7000000029802,444132.299999997,7235,NNB,C,10
0,prac,2,0.0,2-Back,,,Thu Nov 06 2025 16:18:37 GMT-0600 (Central Standard Time),446309.0,031_y_m_n_a.png,O,a,6757,1,1,2176.7000000029802,444132.299999997,7235,NNB,C,0
0,prac,2,0.0,2-Back,,,Thu Nov 06 2025 16:18:37 GMT-0600 (Central Standard Time),446309.0,006_m_f_n_a.png,O,a,6757,2,1,2176.7000000029802,444132.299999997,7235,NNB,C,0
1,prac,2,1.0,2-Back,1.0,m,Thu Nov 06 2025 16:18:37 GMT-0600 (Central Standard Time),460156.0,146_o_m_n_a.png,O,m,1044,3,1,1894.6000000089407,458261.39999999106,7235,NNB,C,1
2,prac,2,0.0,2-Back,1.0,m,Thu Nov 06 2025 16:18:37 GMT-0600 (Central Standard Time),462455.39999999106,130_o_f_n_a.png,O,m,1454,4,1,2293.0,460162.39999999106,7235,NNB,C,2
3,prac,2,0.0,2-Back,1.0,z,Thu Nov 06 2025 16:18:37 GMT-0600 (Central Standard Time),464437.5,146_o_m_n_a.png,O,z,1207,5,1,1975.4000000059605,462462.09999999404,7235,NNB,C,3
4,prac,2,1.0,2-Back,1.0,z,Thu Nov 06 2025 16:18:37 GMT-0600 (Central Standard Time),466602.1999999881,130_o_f_n_a.png,O,z,1376,6,1,2159.0,464443.1999999881,7235,NNB,C,4
5,prac,2,0.0,2-Back,1.0,m,Thu Nov 06 2025 16:18:37 GMT-0600 (Central Standard Time),468620.0,082_m_m_n_a.png,O,m,1229,7,1,2013.5,466606.5,7235,NNB,C,5
6,prac,2,0.0,2-Back,1.0,m,Thu Nov 06 2025 16:18:37 GMT-0600 (Central Standard Time),470851.5,059_o_m_n_a.png,O,m,1371,8,1,2225.7000000029802,468625.799999997,7235,NNB,C,6
7,prac,2,0.0,2-Back,1.0,m,Thu Nov 06 2025 16:18:37 GMT-0600 (Central Standard Time),472650.799999997,028_y_f_n_a.png,O,m,946,9,1,1794.2999999970198,470856.5,7235,NNB,C,7
8,prac,2,1.0,2-Back,1.0,z,Thu Nov 06 2025 16:18:37 GMT-0600 (Central Standard Time),474517.39999999106,059_o_m_n_a.png,O,z,1078,10,1,1861.0,472656.39999999106,7235,NNB,C,8
9,prac,2,0.0,2-Back,1.0,m,Thu Nov 06 2025 16:18:37 GMT-0600 (Central Standard Time),476399.59999999404,098_y_f_n_a.png,O,m,1032,11,1,1877.0999999940395,474522.5,7235,NNB,C,9
9,prac,2,0.0,2-Back,0.0,m,Thu Nov 06 2025 16:18:37 GMT-0600 (Central Standard Time),479099.1999999881,082_m_m_n_a.png,O,z,1919,12,1,2693.5999999940395,476405.59999999404,7235,NNB,C,10
0,test,1,0.0,2-Back,,,Thu Nov 06 2025 16:18:37 GMT-0600 (Central Standard Time),479099.1999999881,057_y_m_n_a.png,O,space,2692,1,1,2693.5999999940395,476405.59999999404,7235,NNB,C,0
0,test,1,0.0,2-Back,,,Thu Nov 06 2025 16:18:37 GMT-0600 (Central Standard Time),479099.1999999881,057_y_m_n_a.png,O,space,2692,2,1,2693.5999999940395,476405.59999999404,7235,NNB,C,0
1,test,1,0.0,2-Back,1.0,m,Thu Nov 06 2025 16:18:37 GMT-0600 (Central Standard Time),493944.6999999881,130_o_f_n_a.png,O,m,829,3,1,1846.7999999970198,492097.89999999106,7235,NNB,C,1
2,test,1,0.0,2-Back,1.0,m,Thu Nov 06 2025 16:18:37 GMT-0600 (Central Standard Time),496460.1999999881,092_m_m_n_a.png,O,m,1492,4,1,2512.7999999970198,493947.39999999106,7235,NNB,C,2
3,test,1,1.0,2-Back,1.0,z,Thu Nov 06 2025 16:18:37 GMT-0600 (Central Standard Time),498361.0,130_o_f_n_a.png,O,z,880,5,1,1897.4000000059605,496463.59999999404,7235,NNB,C,3
4,test,1,0.0,2-Back,1.0,m,Thu Nov 06 2025 16:18:37 GMT-0600 (Central Standard Time),500624.6999999881,098_y_f_n_a.png,O,m,1243,6,1,2260.199999988079,498364.5,7235,NNB,C,4
4,test,1,0.0,2-Back,0.0,m,Thu Nov 06 2025 16:18:37 GMT-0600 (Central Standard Time),502925.09999999404,092_m_m_n_a.png,O,z,1275,7,1,2297.7000000029802,500627.39999999106,7235,NNB,C,5
4,test,1,1.0,2-Back,0.0,z,Thu Nov 06 2025 16:18:37 GMT-0600 (Central Standard Time),504923.799999997,098_y_f_n_a.png,O,m,966,8,1,1995.9000000059605,502927.89999999106,7235,NNB,C,6
5,test,1,0.0,2-Back,1.0,m,Thu Nov 06 2025 16:18:37 GMT-0600 (Central Standard Time),507390.0,031_y_m_n_a.png,O,m,1440,9,1,2462.4000000059605,504927.59999999404,7235,NNB,C,7
6,test,1,0.0,2-Back,1.0,m,Thu Nov 06 2025 16:18:37 GMT-0600 (Central Standard Time),509557.1999999881,030_o_f_n_a.png,O,m,1150,10,1,2164.0,507393.1999999881,7235,NNB,C,8
7,test,1,1.0,2-Back,1.0,z,Thu Nov 06 2025 16:18:37 GMT-0600 (Central Standard Time),511705.5,031_y_m_n_a.png,O,z,1127,11,1,2145.4000000059605,509560.09999999404,7235,NNB,C,9
8,test,1,0.0,2-Back,1.0,m,Thu Nov 06 2025 16:18:37 GMT-0600 (Central Standard Time),513788.5,006_m_f_n_a.png,O,m,1065,12,1,2080.0,511708.5,7235,NNB,C,10
9,test,1,0.0,2-Back,1.0,m,Thu Nov 06 2025 16:18:37 GMT-0600 (Central Standard Time),516586.5,006_m_f_n_a.png,O,m,1775,13,1,2795.0,513791.5,7235,NNB,C,11
10,test,1,0.0,2-Back,1.0,m,Thu Nov 06 2025 16:18:37 GMT-0600 (Central Standard Time),518870.5,146_o_m_n_a.png,O,m,1265,14,1,2280.5,516590.0,7235,NNB,C,12
11,test,1,0.0,2-Back,1.0,m,Thu Nov 06 2025 16:18:37 GMT-0600 (Central Standard Time),521086.59999999404,030_o_f_n_a.png,O,m,1198,15,1,2213.0,518873.59999999404,7235,NNB,C,13
12,test,1,1.0,2-Back,1.0,z,Thu Nov 06 2025 16:18:37 GMT-0600 (Central Standard Time),523068.1999999881,146_o_m_n_a.png,O,z,958,16,1,1977.0999999940395,521091.09999999404,7235,NNB,C,14
12,test,1,0.0,2-Back,0.0,m,Thu Nov 06 2025 16:18:37 GMT-0600 (Central Standard Time),526084.8999999911,093_m_f_n_a.png,O,None,2011,17,1,3013.2999999970198,523071.59999999404,7235,NNB,C,15
12,test,1,0.0,2-Back,0.0,m,Thu Nov 06 2025 16:18:37 GMT-0600 (Central Standard Time),529116.6999999881,082_m_m_n_a.png,O,None,2016,18,1,3028.2999999970198,526088.3999999911,7235,NNB,C,16
0,test,2,0.0,2-Back,,,Thu Nov 06 2025 16:18:37 GMT-0600 (Central Standard Time),529116.6999999881,082_m_m_n_a.png,O,space,1344,1,1,3028.2999999970198,526088.3999999911,7235,NNB,C,0
0,test,2,0.0,2-Back,,,Thu Nov 06 2025 16:18:37 GMT-0600 (Central Standard Time),529116.6999999881,028_y_f_n_a.png,O,space,1344,2,1,3028.2999999970198,526088.3999999911,7235,NNB,C,0
1,test,2,1.0,2-Back,1.0,z,Thu Nov 06 2025 16:18:37 GMT-0600 (Central Standard Time),537164.599999994,082_m_m_n_a.png,O,z,558,3,1,1579.0,535585.599999994,7235,NNB,C,1
2,test,2,0.0,2-Back,1.0,m,Thu Nov 06 2025 16:18:37 GMT-0600 (Central Standard Time),539046.3999999911,093_m_f_n_a.png,O,m,865,4,1,1878.5,537167.8999999911,7235,NNB,C,2
3,test,2,0.0,2-Back,1.0,m,Thu Nov 06 2025 16:18:37 GMT-0600 (Central Standard Time),541795.799999997,028_y_f_n_a.png,O,m,1725,5,1,2745.1000000089407,539050.6999999881,7235,NNB,C,3
4,test,2,0.0,2-Back,1.0,m,Thu Nov 06 2025 16:18:37 GMT-0600 (Central Standard Time),544561.8999999911,146_o_m_n_a.png,O,m,1744,6,1,2762.2999999970198,541799.599999994,7235,NNB,C,4
4,test,2,0.0,2-Back,0.0,m,Thu Nov 06 2025 16:18:37 GMT-0600 (Central Standard Time),546961.299999997,098_y_f_n_a.png,O,z,1369,7,1,2395.7000000029802,544565.599999994,7235,NNB,C,5
5,test,2,1.0,2-Back,1.0,z,Thu Nov 06 2025 16:18:37 GMT-0600 (Central Standard Time),549443.299999997,146_o_m_n_a.png,O,z,1451,8,1,2478.1000000089407,546965.1999999881,7235,NNB,C,6
6,test,2,0.0,2-Back,1.0,m,Thu Nov 06 2025 16:18:37 GMT-0600 (Central Standard Time),551542.5,031_y_m_n_a.png,O,m,1081,9,1,2096.1000000089407,549446.3999999911,7235,NNB,C,7
6,test,2,0.0,2-Back,0.0,m,Thu Nov 06 2025 16:18:37 GMT-0600 (Central Standard Time),554024.099999994,031_y_m_n_a.png,O,z,1464,10,1,2478.9000000059605,551545.1999999881,7235,NNB,C,8
7,test,2,0.0,2-Back,1.0,m,Thu Nov 06 2025 16:18:37 GMT-0600 (Central Standard Time),556257.799999997,006_m_f_n_a.png,O,m,1202,11,1,2230.5,554027.299999997,7235,NNB,C,9
7,test,2,0.0,2-Back,0.0,m,Thu Nov 06 2025 16:18:37 GMT-0600 (Central Standard Time),559290.799999997,028_y_f_n_a.png,O,None,2016,12,1,3030.1000000089407,556260.6999999881,7235,NNB,C,10
8,test,2,1.0,2-Back,1.0,z,Thu Nov 06 2025 16:18:37 GMT-0600 (Central Standard Time),561505.8999999911,006_m_f_n_a.png,O,z,1186,13,1,2212.2999999970198,559293.599999994,7235,NNB,C,11
9,test,2,0.0,2-Back,1.0,m,Thu Nov 06 2025 16:18:37 GMT-0600 (Central Standard Time),564355.099999994,059_o_m_n_a.png,O,m,1827,14,1,2845.2000000029802,561509.8999999911,7235,NNB,C,12
10,test,2,0.0,2-Back,1.0,m,Thu Nov 06 2025 16:18:37 GMT-0600 (Central Standard Time),566888.1999999881,059_o_m_n_a.png,O,m,1513,15,1,2530.2999999970198,564357.8999999911,7235,NNB,C,13
10,test,2,0.0,2-Back,0.0,m,Thu Nov 06 2025 16:18:37 GMT-0600 (Central Standard Time),569920.299999997,030_o_f_n_a.png,O,None,2014,16,1,3028.7999999970198,566891.5,7235,NNB,C,14
11,test,2,0.0,2-Back,1.0,m,Thu Nov 06 2025 16:18:37 GMT-0600 (Central Standard Time),571986.099999994,092_m_m_n_a.png,O,m,1044,17,1,2063.2999999970198,569922.799999997,7235,NNB,C,15
12,test,2,1.0,2-Back,1.0,z,Thu Nov 06 2025 16:18:37 GMT-0600 (Central Standard Time),574202.0,030_o_f_n_a.png,O,z,1185,18,1,2213.1000000089407,571988.8999999911,7235,NNB,C,16
0,test,3,1.0,2-Back,,,Thu Nov 06 2025 16:18:37 GMT-0600 (Central Standard Time),574202.0,057_y_m_n_a.png,O,space,1883,1,1,2213.1000000089407,571988.8999999911,7235,NNB,C,0
0,test,3,1.0,2-Back,,,Thu Nov 06 2025 16:18:37 GMT-0600 (Central Standard Time),574202.0,057_y_m_n_a.png,O,space,1883,2,1,2213.1000000089407,571988.8999999911,7235,NNB,C,0
1,test,3,0.0,2-Back,1.0,m,Thu Nov 06 2025 16:18:37 GMT-0600 (Central Standard Time),583832.599999994,030_o_f_n_a.png,O,m,1611,3,1,2629.5999999940395,581203.0,7235,NNB,C,1
2,test,3,0.0,2-Back,1.0,m,Thu Nov 06 2025 16:18:37 GMT-0600 (Central Standard Time),585632.1999999881,082_m_m_n_a.png,O,m,780,4,1,1797.0,583835.1999999881,7235,NNB,C,2
3,test,3,1.0,2-Back,1.0,z,Thu Nov 06 2025 16:18:37 GMT-0600 (Central Standard Time),587414.299999997,030_o_f_n_a.png,O,z,756,5,1,1779.2999999970198,585635.0,7235,NNB,C,3
4,test,3,0.0,2-Back,1.0,m,Thu Nov 06 2025 16:18:37 GMT-0600 (Central Standard Time),589747.299999997,031_y_m_n_a.png,O,m,1310,6,1,2330.2999999970198,587417.0,7235,NNB,C,4
4,test,3,0.0,2-Back,0.0,m,Thu Nov 06 2025 16:18:37 GMT-0600 (Central Standard Time),591862.299999997,082_m_m_n_a.png,O,z,1098,7,1,2112.0,589750.299999997,7235,NNB,C,5
5,test,3,1.0,2-Back,1.0,z,Thu Nov 06 2025 16:18:37 GMT-0600 (Central Standard Time),594195.599999994,031_y_m_n_a.png,O,z,1309,8,1,2330.7999999970198,591864.799999997,7235,NNB,C,6
6,test,3,0.0,2-Back,1.0,m,Thu Nov 06 2025 16:18:37 GMT-0600 (Central Standard Time),596212.1999999881,028_y_f_n_a.png,O,m,984,9,1,2013.5,594198.6999999881,7235,NNB,C,7
7,test,3,0.0,2-Back,1.0,m,Thu Nov 06 2025 16:18:37 GMT-0600 (Central Standard Time),598244.5,092_m_m_n_a.png,O,m,1016,10,1,2029.5,596215.0,7235,NNB,C,8
8,test,3,1.0,2-Back,1.0,z,Thu Nov 06 2025 16:18:37 GMT-0600 (Central Standard Time),599977.099999994,028_y_f_n_a.png,O,z,704,11,1,1728.5,598248.599999994,7235,NNB,C,9
9,test,3,1.0,2-Back,1.0,z,Thu Nov 06 2025 16:18:37 GMT-0600 (Central Standard Time),602226.6999999881,092_m_m_n_a.png,O,z,1219,12,1,2246.699999988079,599980.0,7235,NNB,C,10
10,test,3,0.0,2-Back,1.0,m,Thu Nov 06 2025 16:18:37 GMT-0600 (Central Standard Time),604545.099999994,030_o_f_n_a.png,O,m,1297,13,1,2315.2000000029802,602229.8999999911,7235,NNB,C,11
11,test,3,0.0,2-Back,1.0,m,Thu Nov 06 2025 16:18:37 GMT-0600 (Central Standard Time),606875.099999994,093_m_f_n_a.png,O,m,1309,14,1,2326.7999999970198,604548.299999997,7235,NNB,C,12
12,test,3,0.0,2-Back,1.0,m,Thu Nov 06 2025 16:18:37 GMT-0600 (Central Standard Time),608874.6999999881,146_o_m_n_a.png,O,m,977,15,1,1996.7999999970198,606877.8999999911,7235,NNB,C,13
13,test,3,1.0,2-Back,1.0,z,Thu Nov 06 2025 16:18:37 GMT-0600 (Central Standard Time),610590.099999994,093_m_f_n_a.png,O,z,698,16,1,1712.9000000059605,608877.1999999881,7235,NNB,C,14
14,test,3,0.0,2-Back,1.0,m,Thu Nov 06 2025 16:18:37 GMT-0600 (Central Standard Time),612540.099999994,130_o_f_n_a.png,O,m,916,17,1,1946.9000000059605,610593.1999999881,7235,NNB,C,15
15,test,3,0.0,2-Back,1.0,m,Thu Nov 06 2025 16:18:37 GMT-0600 (Central Standard Time),614539.299999997,130_o_f_n_a.png,O,m,968,18,1,1996.5,612542.799999997,7235,NNB,C,16
0,test,4,0.0,2-Back,,,Thu Nov 06 2025 16:18:37 GMT-0600 (Central Standard Time),614539.299999997,059_o_m_n_a.png,O,space,1816,1,1,1996.5,612542.799999997,7235,NNB,C,0
0,test,4,0.0,2-Back,,,Thu Nov 06 2025 16:18:37 GMT-0600 (Central Standard Time),614539.299999997,098_y_f_n_a.png,O,space,1816,2,1,1996.5,612542.799999997,7235,NNB,C,0
1,test,4,1.0,2-Back,1.0,z,Thu Nov 06 2025 16:18:37 GMT-0600 (Central Standard Time),623319.799999997,059_o_m_n_a.png,O,z,739,3,1,1763.2999999970198,621556.5,7235,NNB,C,1
2,test,4,1.0,2-Back,1.0,z,Thu Nov 06 2025 16:18:37 GMT-0600 (Central Standard Time),625286.799999997,098_y_f_n_a.png,O,z,948,4,1,1963.9000000059605,623322.8999999911,7235,NNB,C,2
3,test,4,0.0,2-Back,1.0,m,Thu Nov 06 2025 16:18:37 GMT-0600 (Central Standard Time),627436.5,030_o_f_n_a.png,O,m,1126,5,1,2146.6000000089407,625289.8999999911,7235,NNB,C,3
4,test,4,0.0,2-Back,1.0,m,Thu Nov 06 2025 16:18:37 GMT-0600 (Central Standard Time),629501.5,030_o_f_n_a.png,O,m,1033,6,1,2061.300000011921,627440.1999999881,7235,NNB,C,4
5,test,4,0.0,2-Back,1.0,m,Thu Nov 06 2025 16:18:37 GMT-0600 (Central Standard Time),631751.6999999881,006_m_f_n_a.png,O,m,1223,7,1,2246.7999999970198,629504.8999999911,7235,NNB,C,5
6,test,4,0.0,2-Back,1.0,m,Thu Nov 06 2025 16:18:37 GMT-0600 (Central Standard Time),633600.6999999881,031_y_m_n_a.png,O,m,822,8,1,1845.5,631755.1999999881,7235,NNB,C,6
7,test,4,1.0,2-Back,1.0,z,Thu Nov 06 2025 16:18:37 GMT-0600 (Central Standard Time),635465.599999994,006_m_f_n_a.png,O,z,834,9,1,1862.2000000029802,633603.3999999911,7235,NNB,C,7
8,test,4,0.0,2-Back,1.0,m,Thu Nov 06 2025 16:18:37 GMT-0600 (Central Standard Time),637965.099999994,092_m_m_n_a.png,O,m,1482,10,1,2495.9000000059605,635469.1999999881,7235,NNB,C,8
8,test,4,0.0,2-Back,0.0,m,Thu Nov 06 2025 16:18:37 GMT-0600 (Central Standard Time),639832.099999994,031_y_m_n_a.png,O,z,847,11,1,1864.4000000059605,637967.6999999881,7235,NNB,C,9
8,test,4,0.0,2-Back,0.0,m,Thu Nov 06 2025 16:18:37 GMT-0600 (Central Standard Time),642029.799999997,130_o_f_n_a.png,O,z,1183,12,1,2194.2000000029802,639835.599999994,7235,NNB,C,10
9,test,4,0.0,2-Back,1.0,m,Thu Nov 06 2025 16:18:37 GMT-0600 (Central Standard Time),644430.0,057_y_m_n_a.png,O,m,1373,13,1,2397.4000000059605,642032.599999994,7235,NNB,C,11
10,test,4,1.0,2-Back,1.0,z,Thu Nov 06 2025 16:18:37 GMT-0600 (Central Standard Time),646613.099999994,130_o_f_n_a.png,O,z,1165,14,1,2179.9000000059605,644433.1999999881,7235,NNB,C,12
11,test,4,1.0,2-Back,1.0,z,Thu Nov 06 2025 16:18:37 GMT-0600 (Central Standard Time),648729.1999999881,057_y_m_n_a.png,O,z,1088,15,1,2113.7999999970198,646615.3999999911,7235,NNB,C,13
12,test,4,0.0,2-Back,1.0,m,Thu Nov 06 2025 16:18:37 GMT-0600 (Central Standard Time),651061.3999999911,082_m_m_n_a.png,O,m,1308,16,1,2329.3999999910593,648732.0,7235,NNB,C,14
13,test,4,0.0,2-Back,1.0,m,Thu Nov 06 2025 16:18:37 GMT-0600 (Central Standard Time),653092.5,093_m_f_n_a.png,O,m,998,17,1,2027.800000011921,651064.6999999881,7235,NNB,C,15
14,test,4,1.0,2-Back,1.0,z,Thu Nov 06 2025 16:18:37 GMT-0600 (Central Standard Time),654926.5,082_m_m_n_a.png,O,z,806,18,1,1831.1000000089407,653095.3999999911,7235,NNB,C,16
0,test,5,1.0,2-Back,,,Thu Nov 06 2025 16:18:37 GMT-0600 (Central Standard Time),654926.5,057_y_m_n_a.png,O,space,1262,1,1,1831.1000000089407,653095.3999999911,7235,NNB,C,0
0,test,5,1.0,2-Back,,,Thu Nov 06 2025 16:18:37 GMT-0600 (Central Standard Time),654926.5,093_m_f_n_a.png,O,space,1262,2,1,1831.1000000089407,653095.3999999911,7235,NNB,C,0
1,test,5,1.0,2-Back,1.0,z,Thu Nov 06 2025 16:18:37 GMT-0600 (Central Standard Time),662857.3999999911,057_y_m_n_a.png,O,z,587,3,1,1613.2000000029802,661244.1999999881,7235,NNB,C,1
2,test,5,1.0,2-Back,1.0,z,Thu Nov 06 2025 16:18:37 GMT-0600 (Central Standard Time),664490.099999994,093_m_f_n_a.png,O,z,611,4,1,1628.9000000059605,662861.1999999881,7235,NNB,C,2
3,test,5,0.0,2-Back,1.0,m,Thu Nov 06 2025 16:18:37 GMT-0600 (Central Standard Time),666339.099999994,130_o_f_n_a.png,O,m,825,5,1,1846.0,664493.099999994,7235,NNB,C,3
3,test,5,0.0,2-Back,0.0,m,Thu Nov 06 2025 16:18:37 GMT-0600 (Central Standard Time),668555.5,057_y_m_n_a.png,O,z,1184,6,1,2213.300000011921,666342.1999999881,7235,NNB,C,4
4,test,5,0.0,2-Back,1.0,m,Thu Nov 06 2025 16:18:37 GMT-0600 (Central Standard Time),670937.3999999911,028_y_f_n_a.png,O,m,1361,7,1,2378.8999999910593,668558.5,7235,NNB,C,5
4,test,5,0.0,2-Back,0.0,m,Thu Nov 06 2025 16:18:37 GMT-0600 (Central Standard Time),672820.8999999911,130_o_f_n_a.png,O,z,867,8,1,1880.8999999910593,670940.0,7235,NNB,C,6
5,test,5,1.0,2-Back,1.0,z,Thu Nov 06 2025 16:18:37 GMT-0600 (Central Standard Time),674769.8999999911,028_y_f_n_a.png,O,z,928,9,1,1946.2000000029802,672823.6999999881,7235,NNB,C,7
6,test,5,0.0,2-Back,1.0,m,Thu Nov 06 2025 16:18:37 GMT-0600 (Central Standard Time),676819.6999999881,146_o_m_n_a.png,O,m,1017,10,1,2046.7999999970198,674772.8999999911,7235,NNB,C,8
7,test,5,0.0,2-Back,1.0,m,Thu Nov 06 2025 16:18:37 GMT-0600 (Central Standard Time),678986.0,006_m_f_n_a.png,O,m,1135,11,1,2163.1000000089407,676822.8999999911,7235,NNB,C,9
8,test,5,0.0,2-Back,1.0,m,Thu Nov 06 2025 16:18:37 GMT-0600 (Central Standard Time),681251.3999999911,092_m_m_n_a.png,O,m,1234,12,1,2262.2999999970198,678989.099999994,7235,NNB,C,10
8,test,5,0.0,2-Back,0.0,m,Thu Nov 06 2025 16:18:37 GMT-0600 (Central Standard Time),682884.1999999881,146_o_m_n_a.png,O,z,602,13,1,1629.7999999970198,681254.3999999911,7235,NNB,C,11
9,test,5,1.0,2-Back,1.0,z,Thu Nov 06 2025 16:18:37 GMT-0600 (Central Standard Time),684800.299999997,092_m_m_n_a.png,O,z,887,14,1,1913.4000000059605,682886.8999999911,7235,NNB,C,12
10,test,5,0.0,2-Back,1.0,m,Thu Nov 06 2025 16:18:37 GMT-0600 (Central Standard Time),686716.8999999911,098_y_f_n_a.png,O,m,900,15,1,1913.5,684803.3999999911,7235,NNB,C,13
11,test,5,0.0,2-Back,1.0,m,Thu Nov 06 2025 16:18:37 GMT-0600 (Central Standard Time),688771.299999997,059_o_m_n_a.png,O,m,1038,16,1,2051.4000000059605,686719.8999999911,7235,NNB,C,14
12,test,5,0.0,2-Back,1.0,m,Thu Nov 06 2025 16:18:37 GMT-0600 (Central Standard Time),690965.8999999911,006_m_f_n_a.png,O,m,1167,17,1,2188.7000000029802,688777.1999999881,7235,NNB,C,15
13,test,5,1.0,2-Back,1.0,z,Thu Nov 06 2025 16:18:37 GMT-0600 (Central Standard Time),692797.5,059_o_m_n_a.png,O,z,815,18,1,1828.300000011921,690969.1999999881,7235,NNB,C,16
