Q,Q1,Q2,Q3,Q4,acc_sum,block,block_c,correct,correct_response,datetime,endtime,project,response,response_time,row_sel,session_number,squiggle1,squiggle1x,squiggle1y,squiggle2,squiggle2x,squiggle2y,squiggle3,squiggle3x,squiggle3y,squiggle4,squiggle4x,squiggle4y,start_end,starttime,subject_id,target_congruent,task,task_vers,testsquiggle,testsquigglex,testsquiggley,time_practice_delay,time_practice_fixation,time_practice_stimuli,time_practice_study,time_test_delay,time_test_fixation,time_test_stimuli,time_test_study,trial
1,1,0,0,0,0,prac,1,0,z,Mon Jan 05 2026 11:10:37 GMT-0600 (Central Standard Time),148251.10000002384,I,None,2016,1,1,116.bmp,-120,-120,117.bmp,120,-120,118.bmp,-120,120,119.bmp,120,120,10827.200000047684,137423.89999997616,8085,yes,SM,A,116.bmp,-120,-120,140754,134725,142770,136739,,,,,1
3,0,0,1,0,1,prac,1,1,m,Mon Jan 05 2026 11:10:37 GMT-0600 (Central Standard Time),158897.39999997616,I,m,1830,2,1,120.bmp,-120,-120,121.bmp,120,-120,122.bmp,-120,120,123.bmp,120,120,10642.5,148254.89999997616,8085,no,SM,A,123.bmp,-120,120,151584,145556,153600,147568,,,,,2
4,0,0,0,1,1,prac,1,0,m,Mon Jan 05 2026 11:10:37 GMT-0600 (Central Standard Time),169727.60000002384,I,None,2015,3,1,124.bmp,-120,-120,125.bmp,120,-120,126.bmp,-120,120,127.bmp,120,120,10826.399999976158,158901.20000004768,8085,no,SM,A,124.bmp,120,120,162230,156202,164247,158215,,,,,3
2,0,1,0,0,1,prac,1,0,z,Mon Jan 05 2026 11:10:37 GMT-0600 (Central Standard Time),180091.0,I,m,1536,4,1,128.bmp,-120,-120,129.bmp,120,-120,130.bmp,-120,120,131.bmp,120,120,10358.299999952316,169732.70000004768,8085,yes,SM,A,129.bmp,120,-120,173060,167034,175077,169045,,,,,4
3,0,0,1,0,2,prac,1,1,z,Mon Jan 05 2026 11:10:37 GMT-0600 (Central Standard Time),190421.10000002384,I,z,1501,5,1,132.bmp,-120,-120,133.bmp,120,-120,134.bmp,-120,120,135.bmp,120,120,10326.700000047684,180094.39999997616,8085,yes,SM,A,134.bmp,-120,120,183424,177396,185440,179408,,,,,5
1,1,0,0,0,2,prac,1,0,m,Mon Jan 05 2026 11:10:37 GMT-0600 (Central Standard Time),201250.80000007153,I,None,2015,6,1,136.bmp,-120,-120,137.bmp,120,-120,138.bmp,-120,120,139.bmp,120,120,10826.0,190424.80000007153,8085,no,SM,A,139.bmp,-120,-120,193754,187726,195770,189738,,,,,6
2,0,1,0,0,3,prac,1,1,m,Mon Jan 05 2026 11:10:37 GMT-0600 (Central Standard Time),211348.0,I,m,1277,7,1,140.bmp,-120,-120,141.bmp,120,-120,142.bmp,-120,120,143.bmp,120,120,10093.0,201255.0,8085,no,SM,A,140.bmp,120,-120,204584,198556,206600,200569,,,,,7
4,0,0,0,1,3,prac,1,0,z,Mon Jan 05 2026 11:10:37 GMT-0600 (Central Standard Time),222177.70000004768,I,None,2015,8,1,144.bmp,-120,-120,145.bmp,120,-120,146.bmp,-120,120,147.bmp,120,120,10825.5,211352.20000004768,8085,yes,SM,A,147.bmp,120,120,214680,208653,216697,210665,,,,,8
4,0,0,0,1,1,test,1,1,m,Mon Jan 05 2026 11:10:37 GMT-0600 (Central Standard Time),248619.70000004768,I,m,1312,1,1,148.bmp,-120,-120,149.bmp,120,-120,150.bmp,-120,120,143.bmp,120,120,9343.899999976158,239275.80000007153,8085,no,SM,A,150.bmp,120,120,214680,208653,216697,210665,242602.0,236577.0,244605.0,238590.0,1
2,0,1,0,0,2,test,1,1,m,Mon Jan 05 2026 11:10:37 GMT-0600 (Central Standard Time),257933.39999997616,I,m,1254,2,1,101.bmp,-120,-120,102.bmp,120,-120,103.bmp,-120,120,104.bmp,120,120,9310.199999928474,248623.20000004768,8085,no,SM,A,103.bmp,120,-120,214680,208653,216697,210665,251952.0,245924.0,253968.0,247937.0,2
1,1,0,0,0,3,test,1,1,z,Mon Jan 05 2026 11:10:37 GMT-0600 (Central Standard Time),266930.39999997616,I,z,947,3,1,105.bmp,-120,-120,106.bmp,120,-120,107.bmp,-120,120,108.bmp,120,120,8993.0,257937.39999997616,8085,yes,SM,A,105.bmp,-120,-120,214680,208653,216697,210665,261266.0,255239.0,263282.0,257250.0,3
3,0,0,1,0,3,test,1,0,m,Mon Jan 05 2026 11:10:37 GMT-0600 (Central Standard Time),276744.0,I,z,1691,4,1,109.bmp,-120,-120,110.bmp,120,-120,111.bmp,-120,120,112.bmp,120,120,9810.0,266934.0,8085,no,SM,A,109.bmp,-120,120,214680,208653,216697,210665,270330.0,264235.0,272346.0,266323.0,4
2,0,1,0,0,4,test,1,1,z,Mon Jan 05 2026 11:10:37 GMT-0600 (Central Standard Time),286024.39999997616,I,z,1217,5,1,113.bmp,-120,-120,114.bmp,120,-120,115.bmp,-120,120,116.bmp,120,120,9277.099999904633,276747.3000000715,8085,yes,SM,A,114.bmp,120,-120,214680,208653,216697,210665,280077.0,274048.0,282093.0,276061.0,5
3,0,0,1,0,5,test,1,1,z,Mon Jan 05 2026 11:10:37 GMT-0600 (Central Standard Time),295271.60000002384,I,z,1184,6,1,117.bmp,-120,-120,118.bmp,120,-120,119.bmp,-120,120,120.bmp,120,120,9243.799999952316,286027.8000000715,8085,yes,SM,A,119.bmp,-120,120,214680,208653,216697,210665,289358.0,283329.0,291373.0,285342.0,6
4,0,0,0,1,6,test,1,1,z,Mon Jan 05 2026 11:10:37 GMT-0600 (Central Standard Time),304352.0,I,z,1025,7,1,121.bmp,-120,-120,122.bmp,120,-120,123.bmp,-120,120,124.bmp,120,120,9076.899999976158,295275.10000002384,8085,yes,SM,A,124.bmp,120,120,214680,208653,216697,210665,298604.0,292576.0,300620.0,294589.0,7
2,0,1,0,0,7,test,1,1,m,Mon Jan 05 2026 11:10:37 GMT-0600 (Central Standard Time),313815.7000000477,I,m,1416,8,1,125.bmp,-120,-120,126.bmp,120,-120,127.bmp,-120,120,128.bmp,120,120,9460.100000023842,304355.60000002384,8085,no,SM,A,125.bmp,120,-120,214680,208653,216697,210665,307685.0,301657.0,309701.0,303669.0,8
3,0,0,1,0,8,test,1,1,m,Mon Jan 05 2026 11:10:37 GMT-0600 (Central Standard Time),323612.89999997616,I,m,1737,9,1,129.bmp,-120,-120,130.bmp,120,-120,131.bmp,-120,120,132.bmp,120,120,9793.599999904633,313819.3000000715,8085,no,SM,A,130.bmp,-120,120,214680,208653,216697,210665,317148.0,311121.0,319164.0,313133.0,9
4,0,0,0,1,8,test,1,0,z,Mon Jan 05 2026 11:10:37 GMT-0600 (Central Standard Time),333676.2000000477,I,None,2016,10,1,137.bmp,-120,-120,138.bmp,120,-120,139.bmp,-120,120,140.bmp,120,120,10060.100000023842,323616.10000002384,8085,yes,SM,A,140.bmp,120,120,214680,208653,216697,210665,326945.0,320917.0,328961.0,322930.0,10
3,0,0,1,0,9,test,1,1,z,Mon Jan 05 2026 11:10:37 GMT-0600 (Central Standard Time),342873.10000002384,I,z,1115,11,1,133.bmp,-120,-120,134.bmp,120,-120,135.bmp,-120,120,136.bmp,120,120,9192.799999952316,333680.3000000715,8085,yes,SM,A,135.bmp,-120,120,214680,208653,216697,210665,337051.0,330982.0,339058.0,332994.0,11
2,0,1,0,0,10,test,1,1,m,Mon Jan 05 2026 11:10:37 GMT-0600 (Central Standard Time),352070.3000000715,I,m,1135,12,1,141.bmp,-120,-120,142.bmp,120,-120,143.bmp,-120,120,144.bmp,120,120,9194.0,342876.3000000715,8085,no,SM,A,141.bmp,120,-120,214680,208653,216697,210665,346206.0,340178.0,348222.0,342191.0,12
3,0,0,1,0,11,test,1,1,m,Mon Jan 05 2026 11:10:37 GMT-0600 (Central Standard Time),361267.39999997616,I,m,1138,13,1,145.bmp,-120,-120,146.bmp,120,-120,147.bmp,-120,120,148.bmp,120,120,9193.399999976158,352074.0,8085,no,SM,A,146.bmp,-120,120,214680,208653,216697,210665,355404.0,349375.0,357419.0,351388.0,13
1,1,0,0,0,12,test,1,1,z,Mon Jan 05 2026 11:10:37 GMT-0600 (Central Standard Time),370647.89999997616,I,z,1258,14,1,149.bmp,-120,-120,150.bmp,120,-120,104.bmp,-120,120,101.bmp,120,120,9377.399999976158,361270.5,8085,yes,SM,A,149.bmp,-120,-120,214680,208653,216697,210665,364666.0,358572.0,366683.0,360663.0,14
4,0,0,0,1,12,test,1,0,m,Mon Jan 05 2026 11:10:37 GMT-0600 (Central Standard Time),379778.3000000715,I,z,1072,15,1,110.bmp,-120,-120,111.bmp,120,-120,112.bmp,-120,120,113.bmp,120,120,9126.900000095367,370651.39999997616,8085,no,SM,A,111.bmp,120,120,214680,208653,216697,210665,373981.0,367953.0,375997.0,369965.0,15
1,1,0,0,0,13,test,1,1,m,Mon Jan 05 2026 11:10:37 GMT-0600 (Central Standard Time),389092.3000000715,I,m,1254,16,1,102.bmp,-120,-120,103.bmp,120,-120,104.bmp,-120,120,105.bmp,120,120,9310.700000047684,379781.60000002384,8085,no,SM,A,105.bmp,-120,-120,214680,208653,216697,210665,383111.0,377083.0,385127.0,379096.0,16
3,0,0,1,0,14,test,1,1,m,Mon Jan 05 2026 11:10:37 GMT-0600 (Central Standard Time),399055.60000002384,I,m,1915,17,1,122.bmp,-120,-120,123.bmp,120,-120,124.bmp,-120,120,125.bmp,120,120,9959.700000047684,389095.89999997616,8085,no,SM,A,122.bmp,-120,120,214680,208653,216697,210665,392425.0,386397.0,394441.0,388409.0,17
1,1,0,0,0,15,test,1,1,z,Mon Jan 05 2026 11:10:37 GMT-0600 (Central Standard Time),408486.0,I,z,1369,18,1,106.bmp,-120,-120,107.bmp,120,-120,108.bmp,-120,120,109.bmp,120,120,9427.100000023842,399058.89999997616,8085,yes,SM,A,106.bmp,-120,-120,214680,208653,216697,210665,402388.0,396360.0,404404.0,398374.0,18
2,0,1,0,0,16,test,1,1,z,Mon Jan 05 2026 11:10:37 GMT-0600 (Central Standard Time),417183.3000000715,I,z,659,19,1,126.bmp,-120,-120,127.bmp,120,-120,128.bmp,-120,120,129.bmp,120,120,8692.100000023842,408491.2000000477,8085,yes,SM,A,127.bmp,120,-120,214680,208653,216697,210665,411802.0,405793.0,413818.0,407799.0,19
3,0,0,1,0,17,test,1,1,z,Mon Jan 05 2026 11:10:37 GMT-0600 (Central Standard Time),426397.10000002384,I,z,1153,20,1,130.bmp,-120,-120,131.bmp,120,-120,132.bmp,-120,120,133.bmp,120,120,9210.5,417186.60000002384,8085,yes,SM,A,132.bmp,-120,120,214680,208653,216697,210665,420516.0,414488.0,422532.0,416501.0,20
1,1,0,0,0,17,test,1,0,m,Mon Jan 05 2026 11:10:37 GMT-0600 (Central Standard Time),435677.3000000715,I,z,1227,21,1,114.bmp,-120,-120,115.bmp,120,-120,116.bmp,-120,120,117.bmp,120,120,9277.200000047684,426400.10000002384,8085,no,SM,A,116.bmp,-120,-120,214680,208653,216697,210665,429729.0,423701.0,431746.0,425714.0,21
4,0,0,0,1,18,test,1,1,z,Mon Jan 05 2026 11:10:37 GMT-0600 (Central Standard Time),444691.3000000715,I,z,963,22,1,118.bmp,-120,-120,119.bmp,120,-120,120.bmp,-120,120,121.bmp,120,120,9010.900000095367,435680.39999997616,8085,yes,SM,A,121.bmp,120,120,214680,208653,216697,210665,439010.0,432982.0,441026.0,434995.0,22
1,1,0,0,0,19,test,1,1,m,Mon Jan 05 2026 11:10:37 GMT-0600 (Central Standard Time),453988.5,I,m,1245,23,1,134.bmp,-120,-120,135.bmp,120,-120,136.bmp,-120,120,137.bmp,120,120,9292.699999928474,444695.8000000715,8085,no,SM,A,137.bmp,-120,-120,214680,208653,216697,210665,448024.0,441997.0,450040.0,444009.0,23
2,0,1,0,0,19,test,1,0,z,Mon Jan 05 2026 11:10:37 GMT-0600 (Central Standard Time),464051.7000000477,I,None,2016,24,1,142.bmp,-120,-120,143.bmp,120,-120,144.bmp,-120,120,145.bmp,120,120,10060.200000047684,453991.5,8085,yes,SM,A,143.bmp,120,-120,214680,208653,216697,210665,457321.0,451293.0,459337.0,453306.0,24
4,0,0,0,1,20,test,1,1,m,Mon Jan 05 2026 11:10:37 GMT-0600 (Central Standard Time),473782.2000000477,I,m,1675,25,1,146.bmp,-120,-120,147.bmp,120,-120,148.bmp,-120,120,149.bmp,120,120,9727.800000071526,464054.39999997616,8085,no,SM,A,148.bmp,120,120,214680,208653,216697,210665,467384.0,461356.0,469401.0,463369.0,25
1,1,0,0,0,20,test,1,0,z,Mon Jan 05 2026 11:10:37 GMT-0600 (Central Standard Time),483645.60000002384,I,m,1810,26,1,138.bmp,-120,-120,139.bmp,120,-120,140.bmp,-120,120,141.bmp,120,120,9860.0,473785.60000002384,8085,yes,SM,A,138.bmp,-120,-120,214680,208653,216697,210665,477115.0,471087.0,479131.0,473099.0,26
4,0,0,0,1,21,test,1,1,z,Mon Jan 05 2026 11:10:37 GMT-0600 (Central Standard Time),492859.8000000715,I,z,1154,27,1,150.bmp,-120,-120,111.bmp,120,-120,101.bmp,-120,120,102.bmp,120,120,9209.700000047684,483650.10000002384,8085,yes,SM,A,102.bmp,120,120,214680,208653,216697,210665,486978.0,480952.0,488994.0,482963.0,27
3,0,0,1,0,22,test,1,1,m,Mon Jan 05 2026 11:10:37 GMT-0600 (Central Standard Time),502056.8000000715,I,m,1141,28,1,103.bmp,-120,-120,104.bmp,120,-120,105.bmp,-120,120,106.bmp,120,120,9193.700000047684,492863.10000002384,8085,no,SM,A,103.bmp,-120,120,214680,208653,216697,210665,496192.0,490164.0,498208.0,492177.0,28
2,0,1,0,0,23,test,1,1,z,Mon Jan 05 2026 11:10:37 GMT-0600 (Central Standard Time),511487.10000002384,I,z,1375,29,1,107.bmp,-120,-120,108.bmp,120,-120,109.bmp,-120,120,110.bmp,120,120,9427.299999952316,502059.8000000715,8085,yes,SM,A,108.bmp,120,-120,214680,208653,216697,210665,505389.0,499361.0,507406.0,501376.0,29
3,0,0,1,0,24,test,1,1,z,Mon Jan 05 2026 11:10:37 GMT-0600 (Central Standard Time),521000.7000000477,I,z,1466,30,1,111.bmp,-120,-120,112.bmp,120,-120,113.bmp,-120,120,114.bmp,120,120,9510.300000071526,511490.39999997616,8085,yes,SM,A,113.bmp,-120,120,214680,208653,216697,210665,514819.0,508792.0,516836.0,510804.0,30
1,1,0,0,0,25,test,1,1,z,Mon Jan 05 2026 11:10:37 GMT-0600 (Central Standard Time),529997.8000000715,I,z,936,31,1,115.bmp,-120,-120,116.bmp,120,-120,117.bmp,-120,120,118.bmp,120,120,8994.200000047684,521003.60000002384,8085,yes,SM,A,115.bmp,-120,-120,214680,208653,216697,210665,524333.0,518305.0,526349.0,520319.0,31
2,0,1,0,0,26,test,1,1,m,Mon Jan 05 2026 11:10:37 GMT-0600 (Central Standard Time),539711.5,I,m,1674,32,1,119.bmp,-120,-120,120.bmp,120,-120,121.bmp,-120,120,122.bmp,120,120,9710.399999976158,530001.1000000238,8085,no,SM,A,119.bmp,120,-120,214680,208653,216697,210665,533330.0,527302.0,535331.0,529315.0,32
4,0,0,0,1,27,test,1,1,z,Mon Jan 05 2026 11:10:37 GMT-0600 (Central Standard Time),549525.2000000477,I,z,1761,33,1,131.bmp,-120,-120,132.bmp,120,-120,133.bmp,-120,120,134.bmp,120,120,9810.899999976158,539714.3000000715,8085,yes,SM,A,134.bmp,120,120,214680,208653,216697,210665,543044.0,537016.0,545060.0,539029.0,33
2,0,1,0,0,28,test,1,1,z,Mon Jan 05 2026 11:10:37 GMT-0600 (Central Standard Time),559488.6000000238,I,z,1915,34,1,123.bmp,-120,-120,124.bmp,120,-120,125.bmp,-120,120,126.bmp,120,120,9960.299999952316,549528.3000000715,8085,yes,SM,A,124.bmp,120,-120,214680,208653,216697,210665,552858.0,546829.0,554874.0,548842.0,34
4,0,0,0,1,29,test,1,1,m,Mon Jan 05 2026 11:10:37 GMT-0600 (Central Standard Time),568835.8999999762,I,m,1296,35,1,127.bmp,-120,-120,128.bmp,120,-120,129.bmp,-120,120,130.bmp,120,120,9343.199999928474,559492.7000000477,8085,no,SM,A,129.bmp,120,120,214680,208653,216697,210665,562821.0,556794.0,564837.0,558806.0,35
3,0,0,1,0,30,test,1,1,m,Mon Jan 05 2026 11:10:37 GMT-0600 (Central Standard Time),578249.7000000477,I,m,1357,36,1,135.bmp,-120,-120,136.bmp,120,-120,137.bmp,-120,120,138.bmp,120,120,9410.200000047684,568839.5,8085,no,SM,A,135.bmp,-120,120,214680,208653,216697,210665,572168.0,566141.0,574184.0,568154.0,36
1,1,0,0,0,31,test,1,1,m,Mon Jan 05 2026 11:10:37 GMT-0600 (Central Standard Time),587529.8000000715,I,m,1223,37,1,139.bmp,-120,-120,140.bmp,120,-120,141.bmp,-120,120,142.bmp,120,120,9276.900000095367,578252.8999999762,8085,no,SM,A,140.bmp,-120,-120,214680,208653,216697,210665,581582.0,575554.0,583598.0,577567.0,37
2,0,1,0,0,32,test,1,1,m,Mon Jan 05 2026 11:10:37 GMT-0600 (Central Standard Time),596776.7000000477,I,m,1198,38,1,143.bmp,-120,-120,144.bmp,120,-120,145.bmp,-120,120,146.bmp,120,120,9243.700000047684,587533.0,8085,no,SM,A,145.bmp,120,-120,214680,208653,216697,210665,590862.0,584834.0,592879.0,586847.0,38
4,0,0,0,1,33,test,1,1,z,Mon Jan 05 2026 11:10:37 GMT-0600 (Central Standard Time),606923.8000000715,I,z,1971,39,1,147.bmp,-120,-120,148.bmp,120,-120,149.bmp,-120,120,150.bmp,120,120,10143.400000095367,596780.3999999762,8085,yes,SM,A,150.bmp,120,120,214680,208653,216697,210665,600226.0,594082.0,602242.0,596209.0,39
3,0,0,1,0,33,test,1,0,m,Mon Jan 05 2026 11:10:37 GMT-0600 (Central Standard Time),616770.3999999762,I,z,1797,40,1,104.bmp,-120,-120,105.bmp,120,-120,106.bmp,-120,120,107.bmp,120,120,9843.099999904633,606927.3000000715,8085,no,SM,A,105.bmp,-120,120,214680,208653,216697,210665,610257.0,604228.0,612272.0,606241.0,40
1,1,0,0,0,34,test,1,1,z,Mon Jan 05 2026 11:10:37 GMT-0600 (Central Standard Time),626667.7000000477,I,z,1844,41,1,108.bmp,-120,-120,109.bmp,120,-120,110.bmp,-120,120,111.bmp,120,120,9894.399999976158,616773.3000000715,8085,yes,SM,A,108.bmp,-120,-120,214680,208653,216697,210665,620103.0,614075.0,622120.0,616088.0,41
4,0,0,0,1,35,test,1,1,z,Mon Jan 05 2026 11:10:37 GMT-0600 (Central Standard Time),636281.0,I,z,1565,42,1,112.bmp,-120,-120,113.bmp,120,-120,114.bmp,-120,120,115.bmp,120,120,9610.199999928474,626670.8000000715,8085,yes,SM,A,115.bmp,120,120,214680,208653,216697,210665,630000.0,623972.0,632016.0,625985.0,42
1,1,0,0,0,35,test,1,0,z,Mon Jan 05 2026 11:10:37 GMT-0600 (Central Standard Time),646329.8999999762,I,None,2001,43,1,116.bmp,-120,-120,117.bmp,120,-120,118.bmp,-120,120,119.bmp,120,120,10045.099999904633,636284.8000000715,8085,yes,SM,A,116.bmp,-120,-120,214680,208653,216697,210665,639614.0,633586.0,641630.0,635599.0,43
4,0,0,0,1,36,test,1,1,m,Mon Jan 05 2026 11:10:37 GMT-0600 (Central Standard Time),656025.0,I,m,1641,44,1,104.bmp,-120,-120,101.bmp,120,-120,102.bmp,-120,120,103.bmp,120,120,9691.799999952316,646333.2000000477,8085,no,SM,A,104.bmp,120,120,214680,208653,216697,210665,649661.0,643634.0,651676.0,645645.0,44
1,1,0,0,0,37,test,1,1,m,Mon Jan 05 2026 11:10:37 GMT-0600 (Central Standard Time),665655.3000000715,I,m,1575,45,1,128.bmp,-120,-120,129.bmp,120,-120,130.bmp,-120,120,131.bmp,120,120,9626.700000047684,656028.6000000238,8085,no,SM,A,131.bmp,-120,-120,214680,208653,216697,210665,659357.0,653330.0,661374.0,655343.0,45
1,1,0,0,0,38,test,1,1,m,Mon Jan 05 2026 11:10:37 GMT-0600 (Central Standard Time),674885.7000000477,I,m,1177,46,1,120.bmp,-120,-120,121.bmp,120,-120,122.bmp,-120,120,123.bmp,120,120,9227.300000071526,665658.3999999762,8085,no,SM,A,121.bmp,-120,-120,214680,208653,216697,210665,668988.0,662960.0,671004.0,664973.0,46
3,0,0,1,0,39,test,1,1,z,Mon Jan 05 2026 11:10:37 GMT-0600 (Central Standard Time),684632.7000000477,I,z,1698,47,1,124.bmp,-120,-120,125.bmp,120,-120,126.bmp,-120,120,127.bmp,120,120,9743.600000023842,674889.1000000238,8085,yes,SM,A,126.bmp,-120,120,214680,208653,216697,210665,678218.0,672190.0,680235.0,674203.0,47
3,0,0,1,0,40,test,1,1,z,Mon Jan 05 2026 11:10:37 GMT-0600 (Central Standard Time),694346.3999999762,I,z,1655,48,1,140.bmp,-120,-120,141.bmp,120,-120,142.bmp,-120,120,143.bmp,120,120,9710.599999904633,684635.8000000715,8085,yes,SM,A,142.bmp,-120,120,214680,208653,216697,210665,687965.0,681937.0,689981.0,683950.0,48
2,0,1,0,0,41,test,1,1,z,Mon Jan 05 2026 11:10:37 GMT-0600 (Central Standard Time),703043.2000000477,I,z,637,49,1,136.bmp,-120,-120,137.bmp,120,-120,138.bmp,-120,120,139.bmp,120,120,8693.700000047684,694349.5,8085,yes,SM,A,137.bmp,120,-120,214680,208653,216697,210665,697679.0,691651.0,699695.0,693664.0,49
3,0,0,1,0,41,test,1,0,m,Mon Jan 05 2026 11:10:37 GMT-0600 (Central Standard Time),712573.8000000715,I,z,1477,50,1,132.bmp,-120,-120,133.bmp,120,-120,134.bmp,-120,120,135.bmp,120,120,9527.400000095367,703046.3999999762,8085,no,SM,A,132.bmp,-120,120,214680,208653,216697,210665,706376.0,700348.0,708392.0,702361.0,50
2,0,1,0,0,42,test,1,1,z,Mon Jan 05 2026 11:10:37 GMT-0600 (Central Standard Time),721254.3999999762,I,z,626,51,1,144.bmp,-120,-120,145.bmp,120,-120,146.bmp,-120,120,147.bmp,120,120,8676.899999976158,712577.5,8085,yes,SM,A,145.bmp,120,-120,214680,208653,216697,210665,715907.0,709879.0,717923.0,711891.0,51
4,0,0,0,1,43,test,1,1,m,Mon Jan 05 2026 11:10:37 GMT-0600 (Central Standard Time),730435.1000000238,I,m,1130,52,1,148.bmp,-120,-120,149.bmp,120,-120,150.bmp,-120,120,131.bmp,120,120,9177.600000023842,721257.5,8085,no,SM,A,148.bmp,120,120,214680,208653,216697,210665,724587.0,718559.0,726603.0,720572.0,52
3,0,0,1,0,44,test,1,1,z,Mon Jan 05 2026 11:10:37 GMT-0600 (Central Standard Time),740182.1000000238,I,z,1684,53,1,101.bmp,-120,-120,102.bmp,120,-120,103.bmp,-120,120,104.bmp,120,120,9743.799999952316,730438.3000000715,8085,yes,SM,A,103.bmp,-120,120,214680,208653,216697,210665,733768.0,727739.0,735784.0,729752.0,53
1,1,0,0,0,44,test,1,0,m,Mon Jan 05 2026 11:10:37 GMT-0600 (Central Standard Time),749045.8999999762,I,z,801,54,1,105.bmp,-120,-120,106.bmp,120,-120,107.bmp,-120,120,108.bmp,120,120,8860.599999904633,740185.3000000715,8085,no,SM,A,107.bmp,-120,-120,214680,208653,216697,210665,743515.0,737487.0,745531.0,739499.0,54
4,0,0,0,1,45,test,1,1,z,Mon Jan 05 2026 11:10:37 GMT-0600 (Central Standard Time),758959.6000000238,I,z,1850,55,1,109.bmp,-120,-120,110.bmp,120,-120,111.bmp,-120,120,112.bmp,120,120,9910.899999976158,749048.7000000477,8085,yes,SM,A,112.bmp,120,120,214680,208653,216697,210665,752378.0,746350.0,754395.0,748363.0,55
2,0,1,0,0,46,test,1,1,m,Mon Jan 05 2026 11:10:37 GMT-0600 (Central Standard Time),768056.2000000477,I,m,1049,56,1,113.bmp,-120,-120,114.bmp,120,-120,115.bmp,-120,120,116.bmp,120,120,9093.300000071526,758962.8999999762,8085,no,SM,A,113.bmp,120,-120,214680,208653,216697,210665,762292.0,756264.0,764308.0,758277.0,56
4,0,0,0,1,46,test,1,0,m,Mon Jan 05 2026 11:10:37 GMT-0600 (Central Standard Time),778103.2000000477,I,z,1992,57,1,117.bmp,-120,-120,118.bmp,120,-120,119.bmp,-120,120,120.bmp,120,120,10044.300000071526,768058.8999999762,8085,no,SM,A,118.bmp,120,120,214680,208653,216697,210665,771389.0,765360.0,773405.0,767374.0,57
3,0,0,1,0,47,test,1,1,z,Mon Jan 05 2026 11:10:37 GMT-0600 (Central Standard Time),787350.6000000238,I,z,1193,58,1,121.bmp,-120,-120,122.bmp,120,-120,123.bmp,-120,120,124.bmp,120,120,9244.5,778106.1000000238,8085,yes,SM,A,123.bmp,-120,120,214680,208653,216697,210665,781436.0,775407.0,783452.0,777421.0,58
2,0,1,0,0,47,test,1,0,m,Mon Jan 05 2026 11:10:37 GMT-0600 (Central Standard Time),797414.1000000238,I,None,2015,59,1,125.bmp,-120,-120,126.bmp,120,-120,127.bmp,-120,120,128.bmp,120,120,10060.0,787354.1000000238,8085,no,SM,A,128.bmp,120,-120,214680,208653,216697,210665,790683.0,784655.0,792700.0,786668.0,59
1,1,0,0,0,48,test,1,1,z,Mon Jan 05 2026 11:10:37 GMT-0600 (Central Standard Time),806344.3999999762,I,z,873,60,1,129.bmp,-120,-120,130.bmp,120,-120,131.bmp,-120,120,132.bmp,120,120,8927.199999928474,797417.2000000477,8085,yes,SM,A,129.bmp,-120,-120,214680,208653,216697,210665,800747.0,794719.0,802763.0,796731.0,60
2,0,1,0,0,48,test,1,0,z,Mon Jan 05 2026 11:10:37 GMT-0600 (Central Standard Time),816391.7000000477,I,m,2000,61,1,133.bmp,-120,-120,134.bmp,120,-120,135.bmp,-120,120,136.bmp,120,120,10044.100000023842,806347.6000000238,8085,yes,SM,A,134.bmp,120,-120,214680,208653,216697,210665,809677.0,803649.0,811693.0,805662.0,61
4,0,0,0,1,49,test,1,1,z,Mon Jan 05 2026 11:10:37 GMT-0600 (Central Standard Time),826188.5,I,z,1737,62,1,141.bmp,-120,-120,142.bmp,120,-120,143.bmp,-120,120,144.bmp,120,120,9793.399999976158,816395.1000000238,8085,yes,SM,A,144.bmp,120,120,214680,208653,216697,210665,819724.0,813696.0,821740.0,815709.0,62
1,1,0,0,0,49,test,1,0,m,Mon Jan 05 2026 11:10:37 GMT-0600 (Central Standard Time),835818.5,I,z,1572,63,1,145.bmp,-120,-120,146.bmp,120,-120,147.bmp,-120,120,148.bmp,120,120,9626.0,826192.5,8085,no,SM,A,145.bmp,-120,120,214680,208653,216697,210665,829521.0,823494.0,831537.0,825506.0,63
2,0,1,0,0,50,test,1,1,z,Mon Jan 05 2026 11:10:37 GMT-0600 (Central Standard Time),845449.0,I,z,1582,64,1,149.bmp,-120,-120,150.bmp,120,-120,112.bmp,-120,120,101.bmp,120,120,9627.0,835822.0,8085,yes,SM,A,150.bmp,120,-120,214680,208653,216697,210665,839151.0,833123.0,841167.0,835136.0,64
4,0,0,0,1,51,test,1,1,m,Mon Jan 05 2026 11:10:37 GMT-0600 (Central Standard Time),854729.3999999762,I,m,1223,65,1,102.bmp,-120,-120,103.bmp,120,-120,104.bmp,-120,120,105.bmp,120,120,9277.699999928474,845451.7000000477,8085,no,SM,A,104.bmp,120,120,214680,208653,216697,210665,848782.0,842753.0,850798.0,844766.0,65
3,0,0,1,0,52,test,1,1,m,Mon Jan 05 2026 11:10:37 GMT-0600 (Central Standard Time),863959.8000000715,I,m,1167,66,1,106.bmp,-120,-120,107.bmp,120,-120,108.bmp,-120,120,109.bmp,120,120,9227.400000095367,854732.3999999762,8085,no,SM,A,109.bmp,-120,120,214680,208653,216697,210665,858062.0,852034.0,860078.0,854047.0,66
2,0,1,0,0,53,test,1,1,m,Mon Jan 05 2026 11:10:37 GMT-0600 (Central Standard Time),873373.5,I,m,1360,67,1,137.bmp,-120,-120,138.bmp,120,-120,139.bmp,-120,120,140.bmp,120,120,9410.899999976158,863962.6000000238,8085,no,SM,A,139.bmp,120,-120,214680,208653,216697,210665,867292.0,861264.0,869309.0,863277.0,67
3,0,0,1,0,54,test,1,1,z,Mon Jan 05 2026 11:10:37 GMT-0600 (Central Standard Time),883120.6000000238,I,z,1698,68,1,110.bmp,-120,-120,111.bmp,120,-120,112.bmp,-120,120,113.bmp,120,120,9744.0,873376.6000000238,8085,yes,SM,A,112.bmp,-120,120,214680,208653,216697,210665,876706.0,870678.0,878722.0,872691.0,68
1,1,0,0,0,55,test,1,1,m,Mon Jan 05 2026 11:10:37 GMT-0600 (Central Standard Time),892567.3999999762,I,m,1392,69,1,114.bmp,-120,-120,115.bmp,120,-120,116.bmp,-120,120,117.bmp,120,120,9443.5,883123.8999999762,8085,no,SM,A,115.bmp,-120,-120,214680,208653,216697,210665,886453.0,880425.0,888469.0,882438.0,69
2,0,1,0,0,56,test,1,1,m,Mon Jan 05 2026 11:10:37 GMT-0600 (Central Standard Time),901914.3999999762,I,m,1296,70,1,118.bmp,-120,-120,119.bmp,120,-120,120.bmp,-120,120,121.bmp,120,120,9343.899999976158,892570.5,8085,no,SM,A,120.bmp,120,-120,214680,208653,216697,210665,895900.0,889872.0,897916.0,891884.0,70
4,0,0,0,1,57,test,1,1,z,Mon Jan 05 2026 11:10:37 GMT-0600 (Central Standard Time),911361.7000000477,I,z,1398,71,1,122.bmp,-120,-120,123.bmp,120,-120,124.bmp,-120,120,125.bmp,120,120,9442.600000023842,901919.1000000238,8085,yes,SM,A,125.bmp,120,120,214680,208653,216697,210665,905247.0,899220.0,907263.0,901232.0,71
1,1,0,0,0,58,test,1,1,z,Mon Jan 05 2026 11:10:37 GMT-0600 (Central Standard Time),921008.3000000715,I,z,1598,72,1,126.bmp,-120,-120,127.bmp,120,-120,128.bmp,-120,120,129.bmp,120,120,9643.700000047684,911364.6000000238,8085,yes,SM,A,126.bmp,-120,-120,214680,208653,216697,210665,914694.0,908666.0,916710.0,910679.0,72
2,0,1,0,0,59,test,1,1,z,Mon Jan 05 2026 11:10:37 GMT-0600 (Central Standard Time),930422.2000000477,I,z,1339,73,1,130.bmp,-120,-120,131.bmp,120,-120,132.bmp,-120,120,133.bmp,120,120,9411.300000071526,921010.8999999762,8085,yes,SM,A,131.bmp,120,-120,214680,208653,216697,210665,924341.0,918312.0,926370.0,920326.0,73
4,0,0,0,1,60,test,1,1,m,Mon Jan 05 2026 11:10:37 GMT-0600 (Central Standard Time),939586.2000000477,I,m,1114,74,1,134.bmp,-120,-120,135.bmp,120,-120,136.bmp,-120,120,137.bmp,120,120,9160.600000023842,930425.6000000238,8085,no,SM,A,136.bmp,120,120,214680,208653,216697,210665,933755.0,927727.0,935771.0,929740.0,74
2,0,1,0,0,61,test,1,1,m,Mon Jan 05 2026 11:10:37 GMT-0600 (Central Standard Time),948766.6000000238,I,m,1118,75,1,138.bmp,-120,-120,139.bmp,120,-120,140.bmp,-120,120,141.bmp,120,120,9177.600000023842,939589.0,8085,no,SM,A,141.bmp,120,-120,214680,208653,216697,210665,942919.0,936890.0,944935.0,938903.0,75
1,1,0,0,0,62,test,1,1,z,Mon Jan 05 2026 11:10:37 GMT-0600 (Central Standard Time),957980.3999999762,I,z,1162,76,1,142.bmp,-120,-120,143.bmp,120,-120,144.bmp,-120,120,145.bmp,120,120,9210.5,948769.8999999762,8085,yes,SM,A,142.bmp,-120,-120,214680,208653,216697,210665,952099.0,946071.0,954115.0,948084.0,76
3,0,0,1,0,63,test,1,1,z,Mon Jan 05 2026 11:10:37 GMT-0600 (Central Standard Time),967428.3999999762,I,z,1388,77,1,150.bmp,-120,-120,111.bmp,120,-120,101.bmp,-120,120,102.bmp,120,120,9444.599999904633,957983.8000000715,8085,yes,SM,A,101.bmp,-120,120,214680,208653,216697,210665,961313.0,955285.0,963329.0,957298.0,77
1,1,0,0,0,64,test,1,1,m,Mon Jan 05 2026 11:10:37 GMT-0600 (Central Standard Time),976807.8999999762,I,m,1325,78,1,146.bmp,-120,-120,147.bmp,120,-120,148.bmp,-120,120,149.bmp,120,120,9376.199999928474,967431.7000000477,8085,no,SM,A,147.bmp,-120,-120,214680,208653,216697,210665,970760.0,964733.0,972776.0,966745.0,78
4,0,0,0,1,65,test,1,1,m,Mon Jan 05 2026 11:10:37 GMT-0600 (Central Standard Time),985971.5,I,m,1105,79,1,107.bmp,-120,-120,108.bmp,120,-120,109.bmp,-120,120,110.bmp,120,120,9158.600000023842,976812.8999999762,8085,no,SM,A,107.bmp,120,120,214680,208653,216697,210665,980140.0,974114.0,982156.0,976125.0,79
3,0,0,1,0,66,test,1,1,m,Mon Jan 05 2026 11:10:37 GMT-0600 (Central Standard Time),995351.8999999762,I,m,1333,80,1,103.bmp,-120,-120,104.bmp,120,-120,105.bmp,-120,120,106.bmp,120,120,9376.799999952316,985975.1000000238,8085,no,SM,A,106.bmp,-120,120,214680,208653,216697,210665,989304.0,983276.0,991320.0,985289.0,80
