acc_sum,block,block_c,change,condition,correct,correct_response,datetime,endtime,face,project,response,response_time,row_sel,session_number,start_end,starttime,subject_id,task,task_vers,trial
0,prac,1,,1-Back,,,Mon Mar 02 2026 13:51:48 GMT-0600 (Central Standard Time),,005_o_f_d_a.png,O,space,5961,1,1,,,7725,VNB,B,0
1,prac,1,0.0,1-Back,1.0,m,Mon Mar 02 2026 13:51:48 GMT-0600 (Central Standard Time),185965.20000001788,020_y_f_n_a.png,O,m,970,2,1,1819.4000000059605,184145.80000001192,7725,VNB,B,1
2,prac,1,0.0,1-Back,1.0,m,Mon Mar 02 2026 13:51:48 GMT-0600 (Central Standard Time),187846.20000001788,007_m_m_h_a.png,O,m,1020,3,1,1875.9000000059605,185970.30000001192,7725,VNB,B,2
2,prac,1,0.0,1-Back,0.0,m,Mon Mar 02 2026 13:51:48 GMT-0600 (Central Standard Time),189329.80000001192,016_y_m_d_a.png,O,z,613,4,1,1478.199999988079,187851.60000002384,7725,VNB,B,3
3,prac,1,0.0,1-Back,1.0,m,Mon Mar 02 2026 13:51:48 GMT-0600 (Central Standard Time),191263.80000001192,005_o_f_n_a.png,O,m,1076,5,1,1928.0,189335.80000001192,7725,VNB,B,4
4,prac,1,1.0,1-Back,1.0,z,Mon Mar 02 2026 13:51:48 GMT-0600 (Central Standard Time),193378.20000001788,016_y_m_n_a.png,O,z,1245,6,1,2101.300000011921,191276.90000000596,7725,VNB,B,5
5,prac,1,0.0,1-Back,1.0,m,Mon Mar 02 2026 13:51:48 GMT-0600 (Central Standard Time),195194.80000001192,004_o_m_h_a.png,O,m,969,7,1,1813.5999999940395,193381.20000001788,7725,VNB,B,6
5,prac,1,0.0,1-Back,0.0,m,Mon Mar 02 2026 13:51:48 GMT-0600 (Central Standard Time),197144.20000001788,011_m_f_d_a.png,O,z,1067,8,1,1939.800000011921,195204.40000000596,7725,VNB,B,7
5,prac,1,1.0,1-Back,0.0,z,Mon Mar 02 2026 13:51:48 GMT-0600 (Central Standard Time),198959.90000000596,020_y_f_d_a.png,O,m,962,9,1,1811.199999988079,197148.70000001788,7725,VNB,B,8
5,prac,1,0.0,1-Back,0.0,m,Mon Mar 02 2026 13:51:48 GMT-0600 (Central Standard Time),201525.0,007_m_m_n_a.png,O,z,1690,10,1,2555.5,198969.5,7725,VNB,B,9
5,prac,1,0.0,1-Back,0.0,m,Mon Mar 02 2026 13:51:48 GMT-0600 (Central Standard Time),203810.60000002384,005_o_f_h_a.png,O,z,1421,11,1,2282.800000011921,201527.80000001192,7725,VNB,B,10
6,prac,1,0.0,1-Back,1.0,m,Mon Mar 02 2026 13:51:48 GMT-0600 (Central Standard Time),205841.80000001192,016_y_m_d_a.png,O,m,1167,12,1,2021.5999999940395,203820.20000001788,7725,VNB,B,11
0,test,1,0.0,1-Back,,,Mon Mar 02 2026 13:51:48 GMT-0600 (Central Standard Time),205841.80000001192,020_y_f_d_a.png,O,space,3614,1,1,2021.5999999940395,203820.20000001788,7725,VNB,B,0
1,test,1,0.0,1-Back,1.0,m,Mon Mar 02 2026 13:51:48 GMT-0600 (Central Standard Time),221119.90000000596,011_m_f_n_a.png,O,m,952,2,1,1971.0999999940395,219148.80000001192,7725,VNB,B,1
2,test,1,0.0,1-Back,1.0,m,Mon Mar 02 2026 13:51:48 GMT-0600 (Central Standard Time),222919.90000000596,004_o_m_h_a.png,O,m,766,3,1,1796.0999999940395,221123.80000001192,7725,VNB,B,2
3,test,1,1.0,1-Back,1.0,z,Mon Mar 02 2026 13:51:48 GMT-0600 (Central Standard Time),224485.10000002384,007_m_m_h_a.png,O,z,544,4,1,1555.300000011921,222929.80000001192,7725,VNB,B,3
4,test,1,0.0,1-Back,1.0,m,Mon Mar 02 2026 13:51:48 GMT-0600 (Central Standard Time),226167.5,005_o_f_n_a.png,O,m,657,5,1,1679.3999999761581,224488.10000002384,7725,VNB,B,4
5,test,1,0.0,1-Back,1.0,m,Mon Mar 02 2026 13:51:48 GMT-0600 (Central Standard Time),228017.5,016_y_m_d_a.png,O,m,817,6,1,1842.2999999821186,226175.20000001788,7725,VNB,B,5
5,test,1,1.0,1-Back,0.0,z,Mon Mar 02 2026 13:51:48 GMT-0600 (Central Standard Time),230383.70000001788,011_m_f_d_a.png,O,m,1333,7,1,2360.5,228023.20000001788,7725,VNB,B,6
6,test,1,0.0,1-Back,1.0,m,Mon Mar 02 2026 13:51:48 GMT-0600 (Central Standard Time),232333.30000001192,020_y_f_h_a.png,O,m,925,8,1,1939.0,230394.30000001192,7725,VNB,B,7
7,test,1,0.0,1-Back,1.0,m,Mon Mar 02 2026 13:51:48 GMT-0600 (Central Standard Time),234665.10000002384,004_o_m_n_a.png,O,m,1307,9,1,2329.9000000059605,232335.20000001788,7725,VNB,B,8
8,test,1,0.0,1-Back,1.0,m,Mon Mar 02 2026 13:51:48 GMT-0600 (Central Standard Time),236398.0,016_y_m_h_a.png,O,m,710,10,1,1723.7999999821186,234674.20000001788,7725,VNB,B,9
9,test,1,0.0,1-Back,1.0,m,Mon Mar 02 2026 13:51:48 GMT-0600 (Central Standard Time),238248.20000001788,004_o_m_d_a.png,O,m,826,11,1,1845.5999999940395,236402.60000002384,7725,VNB,B,10
9,test,1,1.0,1-Back,0.0,z,Mon Mar 02 2026 13:51:48 GMT-0600 (Central Standard Time),240030.10000002384,005_o_f_d_a.png,O,m,761,12,1,1770.6000000238419,238259.5,7725,VNB,B,11
10,test,1,0.0,1-Back,1.0,m,Mon Mar 02 2026 13:51:48 GMT-0600 (Central Standard Time),241929.40000000596,007_m_m_n_a.png,O,m,874,13,1,1894.7999999821186,240034.60000002384,7725,VNB,B,12
11,test,1,1.0,1-Back,1.0,z,Mon Mar 02 2026 13:51:48 GMT-0600 (Central Standard Time),243628.80000001192,020_y_f_n_a.png,O,z,670,14,1,1691.800000011921,241937.0,7725,VNB,B,13
12,test,1,0.0,1-Back,1.0,m,Mon Mar 02 2026 13:51:48 GMT-0600 (Central Standard Time),245595.40000000596,011_m_f_h_a.png,O,m,938,15,1,1963.199999988079,243632.20000001788,7725,VNB,B,14
12,test,1,0.0,1-Back,0.0,m,Mon Mar 02 2026 13:51:48 GMT-0600 (Central Standard Time),247578.5,007_m_m_d_a.png,O,z,966,16,1,1972.699999988079,245605.80000001192,7725,VNB,B,15
12,test,1,0.0,1-Back,0.0,m,Mon Mar 02 2026 13:51:48 GMT-0600 (Central Standard Time),249710.40000000596,016_y_m_n_a.png,O,z,1111,17,1,2126.5,247583.90000000596,7725,VNB,B,16
13,test,1,0.0,1-Back,1.0,m,Mon Mar 02 2026 13:51:48 GMT-0600 (Central Standard Time),251376.90000000596,005_o_f_h_a.png,O,m,642,18,1,1655.199999988079,249721.70000001788,7725,VNB,B,17
0,test,2,0.0,1-Back,,,Mon Mar 02 2026 13:51:48 GMT-0600 (Central Standard Time),251376.90000000596,016_y_m_n_a.png,O,space,2927,1,1,1655.199999988079,249721.70000001788,7725,VNB,B,0
1,test,2,0.0,1-Back,1.0,m,Mon Mar 02 2026 13:51:48 GMT-0600 (Central Standard Time),258241.5,020_y_f_h_a.png,O,m,898,2,1,1909.0,256332.5,7725,VNB,B,1
2,test,2,1.0,1-Back,1.0,m,Mon Mar 02 2026 13:51:48 GMT-0600 (Central Standard Time),260089.5,004_o_m_n_a.png,O,m,821,3,1,1846.199999988079,258243.30000001192,7725,VNB,B,2
3,test,2,0.0,1-Back,1.0,m,Mon Mar 02 2026 13:51:48 GMT-0600 (Central Standard Time),261990.40000000596,011_m_f_d_a.png,O,m,868,4,1,1891.9000000059605,260098.5,7725,VNB,B,3
3,test,2,0.0,1-Back,0.0,z,Mon Mar 02 2026 13:51:48 GMT-0600 (Central Standard Time),264506.3000000119,007_m_m_d_a.png,O,m,1484,5,1,2513.0999999940395,261993.20000001788,7725,VNB,B,4
4,test,2,0.0,1-Back,1.0,m,Mon Mar 02 2026 13:51:48 GMT-0600 (Central Standard Time),266372.40000000596,016_y_m_h_a.png,O,m,838,6,1,1858.2999999821186,264514.10000002384,7725,VNB,B,5
5,test,2,1.0,1-Back,1.0,z,Mon Mar 02 2026 13:51:48 GMT-0600 (Central Standard Time),268338.3000000119,005_o_f_h_a.png,O,z,931,7,1,1964.199999988079,266374.10000002384,7725,VNB,B,6
6,test,2,0.0,1-Back,1.0,m,Mon Mar 02 2026 13:51:48 GMT-0600 (Central Standard Time),269987.40000000596,011_m_f_n_a.png,O,m,630,8,1,1643.2999999821186,268344.10000002384,7725,VNB,B,7
6,test,2,0.0,1-Back,0.0,m,Mon Mar 02 2026 13:51:48 GMT-0600 (Central Standard Time),272087.0,020_y_f_d_a.png,O,z,1066,9,1,2095.5,269991.5,7725,VNB,B,8
7,test,2,0.0,1-Back,1.0,m,Mon Mar 02 2026 13:51:48 GMT-0600 (Central Standard Time),274586.0,007_m_m_n_a.png,O,m,1465,10,1,2490.899999976158,272095.10000002384,7725,VNB,B,9
8,test,2,1.0,1-Back,1.0,m,Mon Mar 02 2026 13:51:48 GMT-0600 (Central Standard Time),276336.0,011_m_f_h_a.png,O,m,717,11,1,1746.199999988079,274589.8000000119,7725,VNB,B,10
9,test,2,0.0,1-Back,1.0,z,Mon Mar 02 2026 13:51:48 GMT-0600 (Central Standard Time),277952.60000002384,004_o_m_h_a.png,O,z,583,12,1,1607.1000000238419,276345.5,7725,VNB,B,11
10,test,2,0.0,1-Back,1.0,m,Mon Mar 02 2026 13:51:48 GMT-0600 (Central Standard Time),279634.40000000596,016_y_m_d_a.png,O,m,656,13,1,1679.5999999940395,277954.8000000119,7725,VNB,B,12
10,test,2,0.0,1-Back,0.0,m,Mon Mar 02 2026 13:51:48 GMT-0600 (Central Standard Time),281900.5,005_o_f_n_a.png,O,z,1246,14,1,2255.699999988079,279644.8000000119,7725,VNB,B,13
11,test,2,0.0,1-Back,1.0,z,Mon Mar 02 2026 13:51:48 GMT-0600 (Central Standard Time),283734.10000002384,020_y_f_n_a.png,O,z,804,15,1,1831.0,281903.10000002384,7725,VNB,B,14
12,test,2,1.0,1-Back,1.0,m,Mon Mar 02 2026 13:51:48 GMT-0600 (Central Standard Time),285332.5,007_m_m_h_a.png,O,m,571,16,1,1589.8999999761581,283742.60000002384,7725,VNB,B,15
13,test,2,0.0,1-Back,1.0,m,Mon Mar 02 2026 13:51:48 GMT-0600 (Central Standard Time),287165.60000002384,005_o_f_d_a.png,O,m,812,17,1,1829.7000000178814,285335.90000000596,7725,VNB,B,16
14,test,2,1.0,1-Back,1.0,z,Mon Mar 02 2026 13:51:48 GMT-0600 (Central Standard Time),289148.60000002384,004_o_m_d_a.png,O,z,956,18,1,1972.9000000059605,287175.7000000179,7725,VNB,B,17
0,test,3,1.0,1-Back,,,Mon Mar 02 2026 13:51:48 GMT-0600 (Central Standard Time),289148.60000002384,005_o_f_h_a.png,O,space,1627,1,1,1972.9000000059605,287175.7000000179,7725,VNB,B,0
0,test,3,0.0,1-Back,0.0,m,Mon Mar 02 2026 13:51:48 GMT-0600 (Central Standard Time),294929.2000000179,011_m_f_d_a.png,O,z,1041,2,1,2053.5999999940395,292875.60000002384,7725,VNB,B,1
1,test,3,1.0,1-Back,1.0,m,Mon Mar 02 2026 13:51:48 GMT-0600 (Central Standard Time),296746.3000000119,007_m_m_n_a.png,O,m,783,3,1,1814.199999988079,294932.10000002384,7725,VNB,B,2
2,test,3,0.0,1-Back,1.0,z,Mon Mar 02 2026 13:51:48 GMT-0600 (Central Standard Time),298696.10000002384,005_o_f_n_a.png,O,z,927,4,1,1942.1000000238419,296754.0,7725,VNB,B,3
2,test,3,1.0,1-Back,0.0,m,Mon Mar 02 2026 13:51:48 GMT-0600 (Central Standard Time),300712.3000000119,004_o_m_d_a.png,O,z,986,5,1,2012.4000000059605,298699.90000000596,7725,VNB,B,4
3,test,3,0.0,1-Back,1.0,m,Mon Mar 02 2026 13:51:48 GMT-0600 (Central Standard Time),302326.8000000119,020_y_f_h_a.png,O,m,583,6,1,1605.9000000059605,300720.90000000596,7725,VNB,B,5
4,test,3,0.0,1-Back,1.0,z,Mon Mar 02 2026 13:51:48 GMT-0600 (Central Standard Time),304144.0,016_y_m_h_a.png,O,z,783,7,1,1815.3999999761581,302328.60000002384,7725,VNB,B,6
5,test,3,0.0,1-Back,1.0,m,Mon Mar 02 2026 13:51:48 GMT-0600 (Central Standard Time),305926.8000000119,011_m_f_n_a.png,O,m,761,8,1,1774.199999988079,304152.60000002384,7725,VNB,B,7
6,test,3,0.0,1-Back,1.0,m,Mon Mar 02 2026 13:51:48 GMT-0600 (Central Standard Time),308258.8000000119,020_y_f_d_a.png,O,m,1306,9,1,2329.0,305929.8000000119,7725,VNB,B,8
7,test,3,1.0,1-Back,1.0,m,Mon Mar 02 2026 13:51:48 GMT-0600 (Central Standard Time),310424.5,004_o_m_n_a.png,O,m,1141,10,1,2154.0,308270.5,7725,VNB,B,9
7,test,3,0.0,1-Back,0.0,m,Mon Mar 02 2026 13:51:48 GMT-0600 (Central Standard Time),312080.10000002384,007_m_m_h_a.png,O,z,638,11,1,1652.5,310427.60000002384,7725,VNB,B,10
8,test,3,0.0,1-Back,1.0,z,Mon Mar 02 2026 13:51:48 GMT-0600 (Central Standard Time),314172.7000000179,011_m_f_h_a.png,O,z,1066,12,1,2090.0999999940395,312082.60000002384,7725,VNB,B,11
9,test,3,1.0,1-Back,1.0,m,Mon Mar 02 2026 13:51:48 GMT-0600 (Central Standard Time),315772.2000000179,005_o_f_d_a.png,O,m,569,13,1,1597.9000000059605,314174.3000000119,7725,VNB,B,12
10,test,3,0.0,1-Back,1.0,z,Mon Mar 02 2026 13:51:48 GMT-0600 (Central Standard Time),318239.3000000119,007_m_m_d_a.png,O,z,1433,14,1,2459.699999988079,315779.60000002384,7725,VNB,B,13
11,test,3,0.0,1-Back,1.0,m,Mon Mar 02 2026 13:51:48 GMT-0600 (Central Standard Time),320571.60000002384,016_y_m_n_a.png,O,m,1316,15,1,2330.300000011921,318241.3000000119,7725,VNB,B,14
11,test,3,1.0,1-Back,0.0,m,Mon Mar 02 2026 13:51:48 GMT-0600 (Central Standard Time),322221.0,004_o_m_h_a.png,O,z,628,16,1,1639.5,320581.5,7725,VNB,B,15
12,test,3,0.0,1-Back,1.0,m,Mon Mar 02 2026 13:51:48 GMT-0600 (Central Standard Time),323987.0,016_y_m_d_a.png,O,m,747,17,1,1763.2999999821186,322223.7000000179,7725,VNB,B,16
13,test,3,1.0,1-Back,1.0,m,Mon Mar 02 2026 13:51:48 GMT-0600 (Central Standard Time),325771.90000000596,020_y_f_n_a.png,O,m,757,18,1,1773.0999999940395,323998.8000000119,7725,VNB,B,17
0,test,4,1.0,1-Back,,,Mon Mar 02 2026 13:51:48 GMT-0600 (Central Standard Time),325771.90000000596,007_m_m_d_a.png,O,space,1415,1,1,1773.0999999940395,323998.8000000119,7725,VNB,B,0
1,test,4,0.0,1-Back,1.0,z,Mon Mar 02 2026 13:51:48 GMT-0600 (Central Standard Time),331283.5,004_o_m_d_a.png,O,z,1043,2,1,2055.2999999821186,329228.2000000179,7725,VNB,B,1
2,test,4,0.0,1-Back,1.0,m,Mon Mar 02 2026 13:51:48 GMT-0600 (Central Standard Time),332918.40000000596,016_y_m_h_a.png,O,m,603,3,1,1633.0,331285.40000000596,7725,VNB,B,2
3,test,4,0.0,1-Back,1.0,m,Mon Mar 02 2026 13:51:48 GMT-0600 (Central Standard Time),334733.5,011_m_f_n_a.png,O,m,786,4,1,1805.8999999761581,332927.60000002384,7725,VNB,B,3
4,test,4,1.0,1-Back,1.0,m,Mon Mar 02 2026 13:51:48 GMT-0600 (Central Standard Time),336500.3000000119,005_o_f_h_a.png,O,m,740,5,1,1763.300000011921,334737.0,7725,VNB,B,4
5,test,4,0.0,1-Back,1.0,m,Mon Mar 02 2026 13:51:48 GMT-0600 (Central Standard Time),338365.8000000119,007_m_m_n_a.png,O,m,845,6,1,1855.5999999940395,336510.2000000179,7725,VNB,B,5
5,test,4,0.0,1-Back,0.0,m,Mon Mar 02 2026 13:51:48 GMT-0600 (Central Standard Time),340149.60000002384,016_y_m_d_a.png,O,z,761,7,1,1780.7000000178814,338368.90000000596,7725,VNB,B,6
6,test,4,1.0,1-Back,1.0,z,Mon Mar 02 2026 13:51:48 GMT-0600 (Central Standard Time),341864.5,020_y_f_d_a.png,O,z,690,8,1,1707.8999999761581,340156.60000002384,7725,VNB,B,7
7,test,4,0.0,1-Back,1.0,m,Mon Mar 02 2026 13:51:48 GMT-0600 (Central Standard Time),343615.10000002384,011_m_f_h_a.png,O,m,728,9,1,1748.0,341867.10000002384,7725,VNB,B,8
7,test,4,0.0,1-Back,0.0,z,Mon Mar 02 2026 13:51:48 GMT-0600 (Central Standard Time),345229.60000002384,004_o_m_h_a.png,O,m,593,10,1,1608.0,343621.60000002384,7725,VNB,B,9
8,test,4,1.0,1-Back,1.0,m,Mon Mar 02 2026 13:51:48 GMT-0600 (Central Standard Time),347212.10000002384,005_o_f_n_a.png,O,m,952,11,1,1980.1000000238419,345232.0,7725,VNB,B,10
8,test,4,0.0,1-Back,0.0,m,Mon Mar 02 2026 13:51:48 GMT-0600 (Central Standard Time),349262.2000000179,011_m_f_d_a.png,O,z,1018,12,1,2042.0,347220.2000000179,7725,VNB,B,11
9,test,4,0.0,1-Back,1.0,m,Mon Mar 02 2026 13:51:48 GMT-0600 (Central Standard Time),351394.8000000119,020_y_f_n_a.png,O,m,1115,13,1,2128.199999988079,349266.60000002384,7725,VNB,B,12
9,test,4,0.0,1-Back,0.0,m,Mon Mar 02 2026 13:51:48 GMT-0600 (Central Standard Time),353394.7000000179,005_o_f_d_a.png,O,z,973,14,1,1991.2000000178814,351403.5,7725,VNB,B,13
10,test,4,0.0,1-Back,1.0,m,Mon Mar 02 2026 13:51:48 GMT-0600 (Central Standard Time),355094.2000000179,020_y_f_h_a.png,O,m,669,15,1,1695.5,353398.7000000179,7725,VNB,B,14
11,test,4,1.0,1-Back,1.0,z,Mon Mar 02 2026 13:51:48 GMT-0600 (Central Standard Time),357009.90000000596,007_m_m_h_a.png,O,z,890,16,1,1907.199999988079,355102.7000000179,7725,VNB,B,15
12,test,4,0.0,1-Back,1.0,m,Mon Mar 02 2026 13:51:48 GMT-0600 (Central Standard Time),359024.40000000596,004_o_m_n_a.png,O,m,991,17,1,2009.5999999940395,357014.8000000119,7725,VNB,B,16
13,test,4,1.0,1-Back,1.0,z,Mon Mar 02 2026 13:51:48 GMT-0600 (Central Standard Time),361106.90000000596,016_y_m_n_a.png,O,z,1052,18,1,2079.4000000059605,359027.5,7725,VNB,B,17
0,test,5,1.0,1-Back,,,Mon Mar 02 2026 13:51:48 GMT-0600 (Central Standard Time),361106.90000000596,004_o_m_n_a.png,O,space,2029,1,1,2079.4000000059605,359027.5,7725,VNB,B,0
1,test,5,1.0,1-Back,1.0,m,Mon Mar 02 2026 13:51:48 GMT-0600 (Central Standard Time),366924.10000002384,005_o_f_h_a.png,O,m,739,2,1,1754.300000011921,365169.8000000119,7725,VNB,B,1
2,test,5,0.0,1-Back,1.0,m,Mon Mar 02 2026 13:51:48 GMT-0600 (Central Standard Time),368757.7000000179,016_y_m_d_a.png,O,m,804,3,1,1830.300000011921,366927.40000000596,7725,VNB,B,2
3,test,5,0.0,1-Back,1.0,z,Mon Mar 02 2026 13:51:48 GMT-0600 (Central Standard Time),370588.60000002384,004_o_m_d_a.png,O,z,803,4,1,1821.1000000238419,368767.5,7725,VNB,B,3
4,test,5,0.0,1-Back,1.0,m,Mon Mar 02 2026 13:51:48 GMT-0600 (Central Standard Time),372438.10000002384,011_m_f_h_a.png,O,m,819,5,1,1844.800000011921,370593.3000000119,7725,VNB,B,4
4,test,5,0.0,1-Back,0.0,m,Mon Mar 02 2026 13:51:48 GMT-0600 (Central Standard Time),374220.60000002384,020_y_f_n_a.png,O,z,753,6,1,1774.9000000059605,372445.7000000179,7725,VNB,B,5
5,test,5,1.0,1-Back,1.0,z,Mon Mar 02 2026 13:51:48 GMT-0600 (Central Standard Time),376236.2000000179,005_o_f_n_a.png,O,z,995,7,1,2012.5,374223.7000000179,7725,VNB,B,6
6,test,5,0.0,1-Back,1.0,m,Mon Mar 02 2026 13:51:48 GMT-0600 (Central Standard Time),378170.7000000179,011_m_f_d_a.png,O,m,902,8,1,1925.4000000059605,376245.3000000119,7725,VNB,B,7
7,test,5,0.0,1-Back,1.0,m,Mon Mar 02 2026 13:51:48 GMT-0600 (Central Standard Time),380019.60000002384,016_y_m_h_a.png,O,m,822,9,1,1846.0,378173.60000002384,7725,VNB,B,8
8,test,5,0.0,1-Back,1.0,m,Mon Mar 02 2026 13:51:48 GMT-0600 (Central Standard Time),381786.7000000179,020_y_f_d_a.png,O,m,735,10,1,1758.2000000178814,380028.5,7725,VNB,B,9
9,test,5,0.0,1-Back,1.0,m,Mon Mar 02 2026 13:51:48 GMT-0600 (Central Standard Time),383469.0,007_m_m_n_a.png,O,m,646,11,1,1679.5999999940395,381789.40000000596,7725,VNB,B,10
10,test,5,1.0,1-Back,1.0,z,Mon Mar 02 2026 13:51:48 GMT-0600 (Central Standard Time),385253.5,011_m_f_n_a.png,O,z,750,12,1,1777.0,383476.5,7725,VNB,B,11
11,test,5,0.0,1-Back,1.0,m,Mon Mar 02 2026 13:51:48 GMT-0600 (Central Standard Time),386967.40000000596,004_o_m_h_a.png,O,m,684,13,1,1710.2999999821186,385257.10000002384,7725,VNB,B,12
12,test,5,0.0,1-Back,1.0,z,Mon Mar 02 2026 13:51:48 GMT-0600 (Central Standard Time),388900.40000000596,007_m_m_h_a.png,O,z,917,14,1,1922.5999999940395,386977.8000000119,7725,VNB,B,13
13,test,5,1.0,1-Back,1.0,m,Mon Mar 02 2026 13:51:48 GMT-0600 (Central Standard Time),390482.8000000119,005_o_f_d_a.png,O,m,549,15,1,1579.0,388903.8000000119,7725,VNB,B,14
14,test,5,0.0,1-Back,1.0,m,Mon Mar 02 2026 13:51:48 GMT-0600 (Central Standard Time),392681.7000000179,016_y_m_n_a.png,O,m,1173,16,1,2191.800000011921,390489.90000000596,7725,VNB,B,15
15,test,5,0.0,1-Back,1.0,m,Mon Mar 02 2026 13:51:48 GMT-0600 (Central Standard Time),394563.0,020_y_f_h_a.png,O,m,852,17,1,1878.0999999940395,392684.90000000596,7725,VNB,B,16
16,test,5,0.0,1-Back,1.0,m,Mon Mar 02 2026 13:51:48 GMT-0600 (Central Standard Time),396431.10000002384,007_m_m_d_a.png,O,m,844,18,1,1865.7000000178814,394565.40000000596,7725,VNB,B,17
0,prac,1,0.0,2-Back,,,Mon Mar 02 2026 13:51:48 GMT-0600 (Central Standard Time),396431.10000002384,011_m_f_n_a.png,O,space,1134,1,1,1865.7000000178814,394565.40000000596,7725,VNB,B,0
0,prac,1,0.0,2-Back,,,Mon Mar 02 2026 13:51:48 GMT-0600 (Central Standard Time),396431.10000002384,005_o_f_h_a.png,O,space,1134,2,1,1865.7000000178814,394565.40000000596,7725,VNB,B,0
1,prac,1,0.0,2-Back,1.0,m,Mon Mar 02 2026 13:51:48 GMT-0600 (Central Standard Time),491267.2000000179,004_o_m_d_a.png,O,m,1649,3,1,2493.0999999940395,488774.10000002384,7725,VNB,B,1
1,prac,1,1.0,2-Back,0.0,z,Mon Mar 02 2026 13:51:48 GMT-0600 (Central Standard Time),494151.90000000596,007_m_m_h_a.png,O,None,2017,4,1,2870.5,491281.40000000596,7725,VNB,B,2
2,prac,1,0.0,2-Back,1.0,m,Mon Mar 02 2026 13:51:48 GMT-0600 (Central Standard Time),496482.10000002384,020_y_f_n_a.png,O,m,1487,5,1,2324.600000023842,494157.5,7725,VNB,B,3
2,prac,1,1.0,2-Back,0.0,z,Mon Mar 02 2026 13:51:48 GMT-0600 (Central Standard Time),498700.7000000179,004_o_m_h_a.png,O,m,1437,6,1,2201.5,496499.2000000179,7725,VNB,B,4
2,prac,1,1.0,2-Back,0.0,z,Mon Mar 02 2026 13:51:48 GMT-0600 (Central Standard Time),501547.90000000596,016_y_m_n_a.png,O,None,2002,7,1,2842.0,498705.90000000596,7725,VNB,B,5
3,prac,1,0.0,2-Back,1.0,m,Mon Mar 02 2026 13:51:48 GMT-0600 (Central Standard Time),504013.3000000119,011_m_f_d_a.png,O,m,1595,8,1,2455.0,501558.3000000119,7725,VNB,B,6
4,prac,1,0.0,2-Back,1.0,m,Mon Mar 02 2026 13:51:48 GMT-0600 (Central Standard Time),506412.10000002384,005_o_f_d_a.png,O,m,1536,9,1,2394.5,504017.60000002384,7725,VNB,B,7
4,prac,1,0.0,2-Back,0.0,m,Mon Mar 02 2026 13:51:48 GMT-0600 (Central Standard Time),508594.7000000179,007_m_m_h_a.png,O,z,1402,10,1,2171.4000000059605,506423.3000000119,7725,VNB,B,8
4,prac,1,1.0,2-Back,0.0,z,Mon Mar 02 2026 13:51:48 GMT-0600 (Central Standard Time),511045.0,020_y_f_d_a.png,O,m,1597,11,1,2444.399999976158,508600.60000002384,7725,VNB,B,9
5,prac,1,0.0,2-Back,1.0,m,Mon Mar 02 2026 13:51:48 GMT-0600 (Central Standard Time),513627.7000000179,004_o_m_n_a.png,O,m,1718,12,1,2571.4000000059605,511056.3000000119,7725,VNB,B,10
0,test,1,0.0,2-Back,,,Mon Mar 02 2026 13:51:48 GMT-0600 (Central Standard Time),513627.7000000179,016_y_m_h_a.png,O,space,2022,1,1,2571.4000000059605,511056.3000000119,7725,VNB,B,0
0,test,1,0.0,2-Back,,,Mon Mar 02 2026 13:51:48 GMT-0600 (Central Standard Time),513627.7000000179,005_o_f_n_a.png,O,space,2022,2,1,2571.4000000059605,511056.3000000119,7725,VNB,B,0
0,test,1,0.0,2-Back,0.0,z,Mon Mar 02 2026 13:51:48 GMT-0600 (Central Standard Time),531587.7000000179,004_o_m_h_a.png,O,m,633,3,1,1644.2000000178814,529943.5,7725,VNB,B,1
0,test,1,0.0,2-Back,0.0,m,Mon Mar 02 2026 13:51:48 GMT-0600 (Central Standard Time),534620.7000000179,011_m_f_d_a.png,O,None,2016,4,1,3029.2000000178814,531591.5,7725,VNB,B,2
0,test,1,1.0,2-Back,0.0,m,Mon Mar 02 2026 13:51:48 GMT-0600 (Central Standard Time),536588.2000000179,016_y_m_n_a.png,O,z,938,5,1,1964.300000011921,534623.900000006,7725,VNB,B,3
1,test,1,0.0,2-Back,1.0,z,Mon Mar 02 2026 13:51:48 GMT-0600 (Central Standard Time),538585.8000000119,020_y_f_d_a.png,O,z,974,6,1,1989.5,536596.3000000119,7725,VNB,B,4
2,test,1,0.0,2-Back,1.0,m,Mon Mar 02 2026 13:51:48 GMT-0600 (Central Standard Time),540418.6000000238,007_m_m_h_a.png,O,m,799,7,1,1829.800000011921,538588.8000000119,7725,VNB,B,5
3,test,1,1.0,2-Back,1.0,m,Mon Mar 02 2026 13:51:48 GMT-0600 (Central Standard Time),542418.6000000238,020_y_f_n_a.png,O,m,968,8,1,1993.5,540425.1000000238,7725,VNB,B,6
4,test,1,0.0,2-Back,1.0,z,Mon Mar 02 2026 13:51:48 GMT-0600 (Central Standard Time),544551.5,005_o_f_h_a.png,O,z,1100,9,1,2129.899999976158,542421.6000000238,7725,VNB,B,7
4,test,1,0.0,2-Back,0.0,m,Mon Mar 02 2026 13:51:48 GMT-0600 (Central Standard Time),546950.1000000238,004_o_m_d_a.png,O,z,1379,10,1,2394.9000000059605,544555.2000000179,7725,VNB,B,8
5,test,1,1.0,2-Back,1.0,m,Mon Mar 02 2026 13:51:48 GMT-0600 (Central Standard Time),549314.900000006,007_m_m_d_a.png,O,m,1338,11,1,2361.5999999940395,546953.3000000119,7725,VNB,B,9
5,test,1,0.0,2-Back,0.0,m,Mon Mar 02 2026 13:51:48 GMT-0600 (Central Standard Time),551432.3000000119,011_m_f_n_a.png,O,z,1086,12,1,2113.5999999940395,549318.7000000179,7725,VNB,B,10
6,test,1,0.0,2-Back,1.0,m,Mon Mar 02 2026 13:51:48 GMT-0600 (Central Standard Time),553580.8000000119,020_y_f_h_a.png,O,m,1121,13,1,2145.800000011921,551435.0,7725,VNB,B,11
6,test,1,0.0,2-Back,0.0,z,Mon Mar 02 2026 13:51:48 GMT-0600 (Central Standard Time),555879.5,007_m_m_n_a.png,O,m,1274,14,1,2292.199999988079,553587.3000000119,7725,VNB,B,12
7,test,1,0.0,2-Back,1.0,m,Mon Mar 02 2026 13:51:48 GMT-0600 (Central Standard Time),558012.6000000238,016_y_m_d_a.png,O,m,1102,15,1,2131.4000000059605,555881.2000000179,7725,VNB,B,13
8,test,1,1.0,2-Back,1.0,m,Mon Mar 02 2026 13:51:48 GMT-0600 (Central Standard Time),560711.2000000179,011_m_f_h_a.png,O,m,1666,16,1,2687.7000000178814,558023.5,7725,VNB,B,14
9,test,1,0.0,2-Back,1.0,z,Mon Mar 02 2026 13:51:48 GMT-0600 (Central Standard Time),562996.3000000119,005_o_f_d_a.png,O,z,1250,17,1,2282.800000011921,560713.5,7725,VNB,B,15
10,test,1,0.0,2-Back,1.0,m,Mon Mar 02 2026 13:51:48 GMT-0600 (Central Standard Time),565042.1000000238,004_o_m_n_a.png,O,m,1027,18,1,2037.2000000178814,563004.900000006,7725,VNB,B,16
0,test,2,0.0,2-Back,,,Mon Mar 02 2026 13:51:48 GMT-0600 (Central Standard Time),565042.1000000238,007_m_m_h_a.png,O,space,2186,1,1,2037.2000000178814,563004.900000006,7725,VNB,B,0
0,test,2,0.0,2-Back,,,Mon Mar 02 2026 13:51:48 GMT-0600 (Central Standard Time),565042.1000000238,020_y_f_n_a.png,O,space,2186,2,1,2037.2000000178814,563004.900000006,7725,VNB,B,0
0,test,2,1.0,2-Back,0.0,z,Mon Mar 02 2026 13:51:48 GMT-0600 (Central Standard Time),574040.900000006,005_o_f_h_a.png,O,m,591,3,1,1613.0,572427.900000006,7725,VNB,B,1
0,test,2,0.0,2-Back,0.0,m,Mon Mar 02 2026 13:51:48 GMT-0600 (Central Standard Time),577073.7000000179,004_o_m_d_a.png,O,None,2016,4,1,3024.7000000178814,574049.0,7725,VNB,B,2
0,test,2,0.0,2-Back,0.0,m,Mon Mar 02 2026 13:51:48 GMT-0600 (Central Standard Time),578956.3000000119,011_m_f_d_a.png,O,z,863,5,1,1880.300000011921,577076.0,7725,VNB,B,3
1,test,2,0.0,2-Back,1.0,m,Mon Mar 02 2026 13:51:48 GMT-0600 (Central Standard Time),581223.3000000119,016_y_m_h_a.png,O,m,1244,6,1,2259.300000011921,578964.0,7725,VNB,B,4
1,test,2,0.0,2-Back,0.0,m,Mon Mar 02 2026 13:51:48 GMT-0600 (Central Standard Time),583187.400000006,005_o_f_n_a.png,O,z,945,7,1,1961.9000000059605,581225.5,7725,VNB,B,5
1,test,2,1.0,2-Back,0.0,z,Mon Mar 02 2026 13:51:48 GMT-0600 (Central Standard Time),584986.0,004_o_m_h_a.png,O,m,778,8,1,1792.7999999821186,583193.2000000179,7725,VNB,B,6
1,test,2,0.0,2-Back,0.0,m,Mon Mar 02 2026 13:51:48 GMT-0600 (Central Standard Time),587236.900000006,020_y_f_d_a.png,O,z,1227,9,1,2249.199999988079,584987.7000000179,7725,VNB,B,7
2,test,2,0.0,2-Back,1.0,m,Mon Mar 02 2026 13:51:48 GMT-0600 (Central Standard Time),589468.7000000179,016_y_m_d_a.png,O,m,1212,10,1,2220.2000000178814,587248.5,7725,VNB,B,8
3,test,2,0.0,2-Back,1.0,m,Mon Mar 02 2026 13:51:48 GMT-0600 (Central Standard Time),591901.3000000119,007_m_m_n_a.png,O,m,1402,11,1,2427.4000000059605,589473.900000006,7725,VNB,B,9
4,test,2,0.0,2-Back,1.0,m,Mon Mar 02 2026 13:51:48 GMT-0600 (Central Standard Time),593734.1000000238,011_m_f_h_a.png,O,m,805,12,1,1823.6000000238419,591910.5,7725,VNB,B,10
4,test,2,1.0,2-Back,0.0,z,Mon Mar 02 2026 13:51:48 GMT-0600 (Central Standard Time),596066.900000006,004_o_m_n_a.png,O,m,1326,13,1,2330.7999999821186,593736.1000000238,7725,VNB,B,11
4,test,2,0.0,2-Back,0.0,m,Mon Mar 02 2026 13:51:48 GMT-0600 (Central Standard Time),597832.7000000179,005_o_f_d_a.png,O,z,740,14,1,1752.9000000059605,596079.8000000119,7725,VNB,B,12
5,test,2,0.0,2-Back,1.0,m,Mon Mar 02 2026 13:51:48 GMT-0600 (Central Standard Time),599965.2000000179,020_y_f_h_a.png,O,m,1103,15,1,2128.300000011921,597836.900000006,7725,VNB,B,13
5,test,2,0.0,2-Back,0.0,z,Mon Mar 02 2026 13:51:48 GMT-0600 (Central Standard Time),602248.0,007_m_m_d_a.png,O,m,1250,16,1,2273.199999988079,599974.8000000119,7725,VNB,B,14
5,test,2,0.0,2-Back,0.0,m,Mon Mar 02 2026 13:51:48 GMT-0600 (Central Standard Time),604131.1000000238,016_y_m_n_a.png,O,z,866,17,1,1877.1000000238419,602254.0,7725,VNB,B,15
5,test,2,1.0,2-Back,0.0,m,Mon Mar 02 2026 13:51:48 GMT-0600 (Central Standard Time),606097.3000000119,011_m_f_n_a.png,O,z,940,18,1,1956.5,604140.8000000119,7725,VNB,B,16
0,test,3,1.0,2-Back,,,Mon Mar 02 2026 13:51:48 GMT-0600 (Central Standard Time),606097.3000000119,004_o_m_n_a.png,O,space,1662,1,1,1956.5,604140.8000000119,7725,VNB,B,0
0,test,3,1.0,2-Back,,,Mon Mar 02 2026 13:51:48 GMT-0600 (Central Standard Time),606097.3000000119,005_o_f_d_a.png,O,space,1662,2,1,1956.5,604140.8000000119,7725,VNB,B,0
0,test,3,0.0,2-Back,0.0,m,Mon Mar 02 2026 13:51:48 GMT-0600 (Central Standard Time),615377.7000000179,020_y_f_h_a.png,O,z,1534,3,1,2561.0,612816.7000000179,7725,VNB,B,1
0,test,3,0.0,2-Back,0.0,z,Mon Mar 02 2026 13:51:48 GMT-0600 (Central Standard Time),618408.2000000179,011_m_f_d_a.png,O,None,2011,4,1,3018.0999999940395,615390.1000000238,7725,VNB,B,2
1,test,3,1.0,2-Back,1.0,m,Mon Mar 02 2026 13:51:48 GMT-0600 (Central Standard Time),620542.5,016_y_m_n_a.png,O,m,1108,5,1,2132.5999999940395,618409.900000006,7725,VNB,B,3
1,test,3,0.0,2-Back,0.0,m,Mon Mar 02 2026 13:51:48 GMT-0600 (Central Standard Time),622458.5,004_o_m_h_a.png,O,z,897,6,1,1909.2999999821186,620549.2000000179,7725,VNB,B,4
1,test,3,0.0,2-Back,0.0,z,Mon Mar 02 2026 13:51:48 GMT-0600 (Central Standard Time),625006.900000006,020_y_f_n_a.png,O,m,1516,7,1,2545.4000000059605,622461.5,7725,VNB,B,5
1,test,3,1.0,2-Back,0.0,m,Mon Mar 02 2026 13:51:48 GMT-0600 (Central Standard Time),627306.400000006,007_m_m_d_a.png,O,z,1279,8,1,2289.4000000059605,625017.0,7725,VNB,B,6
1,test,3,0.0,2-Back,0.0,m,Mon Mar 02 2026 13:51:48 GMT-0600 (Central Standard Time),629707.6000000238,016_y_m_d_a.png,O,z,1384,9,1,2399.100000023842,627308.5,7725,VNB,B,7
2,test,3,0.0,2-Back,1.0,m,Mon Mar 02 2026 13:51:48 GMT-0600 (Central Standard Time),631906.400000006,005_o_f_h_a.png,O,m,1169,10,1,2187.9000000059605,629718.5,7725,VNB,B,8
2,test,3,1.0,2-Back,0.0,m,Mon Mar 02 2026 13:51:48 GMT-0600 (Central Standard Time),633754.900000006,011_m_f_n_a.png,O,z,832,11,1,1845.5,631909.400000006,7725,VNB,B,9
3,test,3,1.0,2-Back,1.0,z,Mon Mar 02 2026 13:51:48 GMT-0600 (Central Standard Time),636271.3000000119,007_m_m_h_a.png,O,z,1484,12,1,2506.300000011921,633765.0,7725,VNB,B,10
4,test,3,0.0,2-Back,1.0,m,Mon Mar 02 2026 13:51:48 GMT-0600 (Central Standard Time),639003.8000000119,020_y_f_d_a.png,O,m,1714,13,1,2728.0999999940395,636275.7000000179,7725,VNB,B,11
4,test,3,0.0,2-Back,0.0,m,Mon Mar 02 2026 13:51:48 GMT-0600 (Central Standard Time),640987.3000000119,005_o_f_n_a.png,O,z,951,14,1,1977.5,639009.8000000119,7725,VNB,B,12
4,test,3,0.0,2-Back,0.0,z,Mon Mar 02 2026 13:51:48 GMT-0600 (Central Standard Time),642985.2000000179,004_o_m_d_a.png,O,m,968,15,1,1994.7000000178814,640990.5,7725,VNB,B,13
5,test,3,1.0,2-Back,1.0,m,Mon Mar 02 2026 13:51:48 GMT-0600 (Central Standard Time),645584.5,011_m_f_h_a.png,O,m,1571,16,1,2591.2999999821186,642993.2000000179,7725,VNB,B,14
5,test,3,0.0,2-Back,0.0,m,Mon Mar 02 2026 13:51:48 GMT-0600 (Central Standard Time),647967.2000000179,007_m_m_n_a.png,O,z,1350,17,1,2381.2000000178814,645586.0,7725,VNB,B,15
5,test,3,0.0,2-Back,0.0,z,Mon Mar 02 2026 13:51:48 GMT-0600 (Central Standard Time),649833.7000000179,016_y_m_h_a.png,O,m,835,18,1,1856.5999999940395,647977.1000000238,7725,VNB,B,16
0,test,4,0.0,2-Back,,,Mon Mar 02 2026 13:51:48 GMT-0600 (Central Standard Time),649833.7000000179,011_m_f_n_a.png,O,space,4606,1,1,1856.5999999940395,647977.1000000238,7725,VNB,B,0
0,test,4,0.0,2-Back,,,Mon Mar 02 2026 13:51:48 GMT-0600 (Central Standard Time),649833.7000000179,004_o_m_n_a.png,O,space,4606,2,1,1856.5999999940395,647977.1000000238,7725,VNB,B,0
0,test,4,1.0,2-Back,0.0,m,Mon Mar 02 2026 13:51:48 GMT-0600 (Central Standard Time),661629.7000000179,016_y_m_h_a.png,O,z,978,3,1,1990.9000000059605,659638.8000000119,7725,VNB,B,1
0,test,4,1.0,2-Back,0.0,m,Mon Mar 02 2026 13:51:48 GMT-0600 (Central Standard Time),663695.7000000179,005_o_f_d_a.png,O,z,1041,4,1,2062.5,661633.2000000179,7725,VNB,B,2
1,test,4,0.0,2-Back,1.0,z,Mon Mar 02 2026 13:51:48 GMT-0600 (Central Standard Time),665566.900000006,004_o_m_h_a.png,O,z,839,5,1,1862.5999999940395,663704.3000000119,7725,VNB,B,3
1,test,4,0.0,2-Back,0.0,m,Mon Mar 02 2026 13:51:48 GMT-0600 (Central Standard Time),667610.900000006,007_m_m_n_a.png,O,z,1022,6,1,2042.2999999821186,665568.6000000238,7725,VNB,B,4
2,test,4,0.0,2-Back,1.0,m,Mon Mar 02 2026 13:51:48 GMT-0600 (Central Standard Time),669643.7000000179,011_m_f_d_a.png,O,m,1005,7,1,2024.5999999940395,667619.1000000238,7725,VNB,B,5
3,test,4,0.0,2-Back,1.0,z,Mon Mar 02 2026 13:51:48 GMT-0600 (Central Standard Time),671626.2000000179,020_y_f_n_a.png,O,z,951,8,1,1980.9000000059605,669645.3000000119,7725,VNB,B,6
3,test,4,1.0,2-Back,0.0,m,Mon Mar 02 2026 13:51:48 GMT-0600 (Central Standard Time),673625.6000000238,005_o_f_h_a.png,O,z,973,9,1,1989.2000000178814,671636.400000006,7725,VNB,B,7
3,test,4,0.0,2-Back,0.0,m,Mon Mar 02 2026 13:51:48 GMT-0600 (Central Standard Time),675408.900000006,007_m_m_h_a.png,O,z,758,10,1,1780.9000000059605,673628.0,7725,VNB,B,8
4,test,4,0.0,2-Back,1.0,m,Mon Mar 02 2026 13:51:48 GMT-0600 (Central Standard Time),677574.3000000119,020_y_f_d_a.png,O,m,1144,11,1,2157.9000000059605,675416.400000006,7725,VNB,B,9
5,test,4,0.0,2-Back,1.0,m,Mon Mar 02 2026 13:51:48 GMT-0600 (Central Standard Time),679589.1000000238,016_y_m_n_a.png,O,m,993,12,1,2012.300000011921,677576.8000000119,7725,VNB,B,10
6,test,4,0.0,2-Back,1.0,z,Mon Mar 02 2026 13:51:48 GMT-0600 (Central Standard Time),681973.8000000119,004_o_m_d_a.png,O,z,1353,13,1,2380.800000011921,679593.0,7725,VNB,B,11
7,test,4,1.0,2-Back,1.0,m,Mon Mar 02 2026 13:51:48 GMT-0600 (Central Standard Time),684072.900000006,011_m_f_h_a.png,O,m,1075,14,1,2096.4000000059605,681976.5,7725,VNB,B,12
8,test,4,1.0,2-Back,1.0,m,Mon Mar 02 2026 13:51:48 GMT-0600 (Central Standard Time),686555.5,020_y_f_h_a.png,O,m,1455,15,1,2473.5999999940395,684081.900000006,7725,VNB,B,13
9,test,4,0.0,2-Back,1.0,m,Mon Mar 02 2026 13:51:48 GMT-0600 (Central Standard Time),688772.1000000238,005_o_f_n_a.png,O,m,1200,16,1,2213.100000023842,686559.0,7725,VNB,B,14
10,test,4,0.0,2-Back,1.0,m,Mon Mar 02 2026 13:51:48 GMT-0600 (Central Standard Time),691120.1000000238,016_y_m_d_a.png,O,m,1317,17,1,2340.9000000059605,688779.2000000179,7725,VNB,B,15
10,test,4,1.0,2-Back,0.0,m,Mon Mar 02 2026 13:51:48 GMT-0600 (Central Standard Time),692952.6000000238,007_m_m_d_a.png,O,z,806,18,1,1828.4000000059605,691124.2000000179,7725,VNB,B,16
0,test,5,1.0,2-Back,,,Mon Mar 02 2026 13:51:48 GMT-0600 (Central Standard Time),692952.6000000238,020_y_f_d_a.png,O,space,3206,1,1,1828.4000000059605,691124.2000000179,7725,VNB,B,0
0,test,5,1.0,2-Back,,,Mon Mar 02 2026 13:51:48 GMT-0600 (Central Standard Time),692952.6000000238,005_o_f_h_a.png,O,space,3206,2,1,1828.4000000059605,691124.2000000179,7725,VNB,B,0
0,test,5,1.0,2-Back,0.0,z,Mon Mar 02 2026 13:51:48 GMT-0600 (Central Standard Time),704133.1000000238,004_o_m_d_a.png,O,m,1762,3,1,2776.600000023842,701356.5,7725,VNB,B,1
1,test,5,1.0,2-Back,1.0,m,Mon Mar 02 2026 13:51:48 GMT-0600 (Central Standard Time),706016.1000000238,011_m_f_n_a.png,O,m,859,4,1,1879.5,704136.6000000238,7725,VNB,B,2
2,test,5,0.0,2-Back,1.0,m,Mon Mar 02 2026 13:51:48 GMT-0600 (Central Standard Time),708098.0,007_m_m_h_a.png,O,m,1063,5,1,2070.899999976158,706027.1000000238,7725,VNB,B,3
3,test,5,0.0,2-Back,1.0,z,Mon Mar 02 2026 13:51:48 GMT-0600 (Central Standard Time),709997.1000000238,020_y_f_n_a.png,O,z,869,6,1,1897.2000000178814,708099.900000006,7725,VNB,B,4
4,test,5,0.0,2-Back,1.0,m,Mon Mar 02 2026 13:51:48 GMT-0600 (Central Standard Time),712163.3000000119,005_o_f_d_a.png,O,m,1147,7,1,2156.0999999940395,710007.2000000179,7725,VNB,B,5
5,test,5,0.0,2-Back,1.0,m,Mon Mar 02 2026 13:51:48 GMT-0600 (Central Standard Time),714029.1000000238,004_o_m_h_a.png,O,m,834,8,1,1860.9000000059605,712168.2000000179,7725,VNB,B,6
5,test,5,1.0,2-Back,0.0,z,Mon Mar 02 2026 13:51:48 GMT-0600 (Central Standard Time),716045.0,011_m_f_d_a.png,O,m,985,9,1,2004.3999999761581,714040.6000000238,7725,VNB,B,7
6,test,5,0.0,2-Back,1.0,m,Mon Mar 02 2026 13:51:48 GMT-0600 (Central Standard Time),718029.1000000238,016_y_m_n_a.png,O,m,962,10,1,1980.4000000059605,716048.7000000179,7725,VNB,B,8
7,test,5,0.0,2-Back,1.0,m,Mon Mar 02 2026 13:51:48 GMT-0600 (Central Standard Time),720160.5,007_m_m_n_a.png,O,m,1108,11,1,2122.2999999821186,718038.2000000179,7725,VNB,B,9
7,test,5,0.0,2-Back,0.0,m,Mon Mar 02 2026 13:51:48 GMT-0600 (Central Standard Time),722043.7000000179,020_y_f_h_a.png,O,z,854,12,1,1879.300000011921,720164.400000006,7725,VNB,B,10
8,test,5,0.0,2-Back,1.0,m,Mon Mar 02 2026 13:51:48 GMT-0600 (Central Standard Time),723708.6000000238,016_y_m_d_a.png,O,m,644,13,1,1655.800000011921,722052.8000000119,7725,VNB,B,11
9,test,5,1.0,2-Back,1.0,z,Mon Mar 02 2026 13:51:48 GMT-0600 (Central Standard Time),725542.1000000238,011_m_f_h_a.png,O,z,801,14,1,1830.300000011921,723711.8000000119,7725,VNB,B,12
10,test,5,0.0,2-Back,1.0,m,Mon Mar 02 2026 13:51:48 GMT-0600 (Central Standard Time),727841.6000000238,004_o_m_n_a.png,O,m,1282,15,1,2287.800000011921,725553.8000000119,7725,VNB,B,13
11,test,5,0.0,2-Back,1.0,m,Mon Mar 02 2026 13:51:48 GMT-0600 (Central Standard Time),729774.3000000119,007_m_m_d_a.png,O,m,902,16,1,1930.9000000059605,727843.400000006,7725,VNB,B,14
11,test,5,0.0,2-Back,0.0,z,Mon Mar 02 2026 13:51:48 GMT-0600 (Central Standard Time),731673.900000006,005_o_f_n_a.png,O,m,869,17,1,1888.199999988079,729785.7000000179,7725,VNB,B,15
11,test,5,1.0,2-Back,0.0,m,Mon Mar 02 2026 13:51:48 GMT-0600 (Central Standard Time),733423.0,016_y_m_h_a.png,O,z,718,18,1,1744.2999999821186,731678.7000000179,7725,VNB,B,16
