acc_sum,block,block_c,change,condition,correct,correct_response,datetime,endtime,face,project,response,response_time,row_sel,session_number,start_end,starttime,subject_id,task,task_vers,trial
0,prac,1,,1-Back,,,Mon Jan 12 2026 11:27:55 GMT-0600 (Central Standard Time),,093_m_f_n_a.png,O,space,11693,1,1,,,7726,NNB,C,0
1,prac,1,0.0,1-Back,1.0,m,Mon Jan 12 2026 11:27:55 GMT-0600 (Central Standard Time),489036.89999985695,098_y_f_n_a.png,O,m,1725,2,1,2573.399999856949,486463.5,7726,NNB,C,1
2,prac,1,1.0,1-Back,1.0,z,Mon Jan 12 2026 11:27:55 GMT-0600 (Central Standard Time),491186.59999990463,098_y_f_n_a.png,O,z,1362,3,1,2139.2999999523163,489047.2999999523,7726,NNB,C,2
3,prac,1,0.0,1-Back,1.0,m,Mon Jan 12 2026 11:27:55 GMT-0600 (Central Standard Time),492935.0,059_o_m_n_a.png,O,m,894,4,1,1740.1000001430511,491194.89999985695,7726,NNB,C,3
4,prac,1,0.0,1-Back,1.0,m,Mon Jan 12 2026 11:27:55 GMT-0600 (Central Standard Time),494668.09999990463,092_m_m_n_a.png,O,m,876,5,1,1725.5999999046326,492942.5,7726,NNB,C,4
5,prac,1,1.0,1-Back,1.0,z,Mon Jan 12 2026 11:27:55 GMT-0600 (Central Standard Time),496300.89999985695,092_m_m_n_a.png,O,z,845,6,1,1623.2999999523163,494677.59999990463,7726,NNB,C,5
6,prac,1,0.0,1-Back,1.0,m,Mon Jan 12 2026 11:27:55 GMT-0600 (Central Standard Time),498236.2999999523,130_o_f_n_a.png,O,m,1066,7,1,1925.9000000953674,496310.39999985695,7726,NNB,C,6
6,prac,1,0.0,1-Back,0.0,m,Mon Jan 12 2026 11:27:55 GMT-0600 (Central Standard Time),501083.5,082_m_m_n_a.png,O,None,2004,8,1,2838.600000143051,498244.89999985695,7726,NNB,C,7
6,prac,1,0.0,1-Back,0.0,m,Mon Jan 12 2026 11:27:55 GMT-0600 (Central Standard Time),503399.59999990463,093_m_f_n_a.png,O,z,1530,9,1,2304.2000000476837,501095.39999985695,7726,NNB,C,8
7,prac,1,1.0,1-Back,1.0,z,Mon Jan 12 2026 11:27:55 GMT-0600 (Central Standard Time),505947.7999999523,093_m_f_n_a.png,O,z,1764,10,1,2533.5999999046326,503414.2000000477,7726,NNB,C,9
8,prac,1,0.0,1-Back,1.0,m,Mon Jan 12 2026 11:27:55 GMT-0600 (Central Standard Time),508014.39999985695,059_o_m_n_a.png,O,m,1276,11,1,2057.699999809265,505956.7000000477,7726,NNB,C,10
9,prac,1,0.0,1-Back,1.0,m,Mon Jan 12 2026 11:27:55 GMT-0600 (Central Standard Time),510664.09999990463,028_y_f_n_a.png,O,m,1799,12,1,2640.899999856949,508023.2000000477,7726,NNB,C,11
0,test,1,0.0,1-Back,,,Mon Jan 12 2026 11:27:55 GMT-0600 (Central Standard Time),510664.09999990463,098_y_f_n_a.png,O,space,4685,1,1,2640.899999856949,508023.2000000477,7726,NNB,C,0
1,test,1,0.0,1-Back,1.0,m,Mon Jan 12 2026 11:27:55 GMT-0600 (Central Standard Time),578808.5,006_m_f_n_a.png,O,m,549,2,1,1571.6000001430511,577236.899999857,7726,NNB,C,1
1,test,1,0.0,1-Back,0.0,m,Mon Jan 12 2026 11:27:55 GMT-0600 (Central Standard Time),581109.7999999523,028_y_f_n_a.png,O,z,1283,3,1,2296.2999999523163,578813.5,7726,NNB,C,2
2,test,1,1.0,1-Back,1.0,z,Mon Jan 12 2026 11:27:55 GMT-0600 (Central Standard Time),582955.7000000477,028_y_f_n_a.png,O,z,829,4,1,1837.7000000476837,581118.0,7726,NNB,C,3
3,test,1,0.0,1-Back,1.0,m,Mon Jan 12 2026 11:27:55 GMT-0600 (Central Standard Time),584854.7999999523,006_m_f_n_a.png,O,m,876,5,1,1895.4000000953674,582959.399999857,7726,NNB,C,4
4,test,1,0.0,1-Back,1.0,m,Mon Jan 12 2026 11:27:55 GMT-0600 (Central Standard Time),586904.0,059_o_m_n_a.png,O,m,1015,6,1,2044.9000000953674,584859.0999999046,7726,NNB,C,5
5,test,1,1.0,1-Back,1.0,z,Mon Jan 12 2026 11:27:55 GMT-0600 (Central Standard Time),588788.5999999046,059_o_m_n_a.png,O,z,864,7,1,1876.7999999523163,586911.7999999523,7726,NNB,C,6
6,test,1,0.0,1-Back,1.0,m,Mon Jan 12 2026 11:27:55 GMT-0600 (Central Standard Time),590654.5999999046,092_m_m_n_a.png,O,m,845,8,1,1858.0999999046326,588796.5,7726,NNB,C,7
7,test,1,0.0,1-Back,1.0,m,Mon Jan 12 2026 11:27:55 GMT-0600 (Central Standard Time),592886.0999999046,130_o_f_n_a.png,O,m,1211,9,1,2224.0999999046326,590662.0,7726,NNB,C,8
8,test,1,0.0,1-Back,1.0,m,Mon Jan 12 2026 11:27:55 GMT-0600 (Central Standard Time),595354.2000000477,092_m_m_n_a.png,O,m,1441,10,1,2461.9000000953674,592892.2999999523,7726,NNB,C,9
9,test,1,0.0,1-Back,1.0,m,Mon Jan 12 2026 11:27:55 GMT-0600 (Central Standard Time),597319.2999999523,057_y_m_n_a.png,O,m,938,11,1,1962.4000000953674,595356.899999857,7726,NNB,C,10
10,test,1,1.0,1-Back,1.0,z,Mon Jan 12 2026 11:27:55 GMT-0600 (Central Standard Time),599017.7000000477,057_y_m_n_a.png,O,z,674,12,1,1692.1000001430511,597325.5999999046,7726,NNB,C,11
11,test,1,0.0,1-Back,1.0,m,Mon Jan 12 2026 11:27:55 GMT-0600 (Central Standard Time),601001.399999857,030_o_f_n_a.png,O,m,958,13,1,1976.2999999523163,599025.0999999046,7726,NNB,C,12
11,test,1,1.0,1-Back,0.0,z,Mon Jan 12 2026 11:27:55 GMT-0600 (Central Standard Time),602667.0,030_o_f_n_a.png,O,m,637,14,1,1657.0,601010.0,7726,NNB,C,13
11,test,1,0.0,1-Back,0.0,m,Mon Jan 12 2026 11:27:55 GMT-0600 (Central Standard Time),604865.2999999523,031_y_m_n_a.png,O,z,1174,15,1,2189.4000000953674,602675.899999857,7726,NNB,C,14
12,test,1,0.0,1-Back,1.0,m,Mon Jan 12 2026 11:27:55 GMT-0600 (Central Standard Time),607414.399999857,093_m_f_n_a.png,O,m,1525,16,1,2542.2999999523163,604872.0999999046,7726,NNB,C,15
13,test,1,0.0,1-Back,1.0,m,Mon Jan 12 2026 11:27:55 GMT-0600 (Central Standard Time),609498.2999999523,146_o_m_n_a.png,O,m,1054,17,1,2080.7000000476837,607417.5999999046,7726,NNB,C,16
14,test,1,0.0,1-Back,1.0,m,Mon Jan 12 2026 11:27:55 GMT-0600 (Central Standard Time),612030.7000000477,093_m_f_n_a.png,O,m,1511,18,1,2526.2000000476837,609504.5,7726,NNB,C,17
0,test,2,0.0,1-Back,,,Mon Jan 12 2026 11:27:55 GMT-0600 (Central Standard Time),612030.7000000477,092_m_m_n_a.png,O,space,17844,1,1,2526.2000000476837,609504.5,7726,NNB,C,0
1,test,2,0.0,1-Back,1.0,m,Mon Jan 12 2026 11:27:55 GMT-0600 (Central Standard Time),634573.2000000477,006_m_f_n_a.png,O,m,1654,2,1,2672.600000143051,631900.5999999046,7726,NNB,C,1
2,test,2,1.0,1-Back,1.0,z,Mon Jan 12 2026 11:27:55 GMT-0600 (Central Standard Time),636540.0999999046,006_m_f_n_a.png,O,z,939,3,1,1959.5,634580.5999999046,7726,NNB,C,2
3,test,2,0.0,1-Back,1.0,m,Mon Jan 12 2026 11:27:55 GMT-0600 (Central Standard Time),638621.0,092_m_m_n_a.png,O,m,1060,4,1,2072.7999999523163,636548.2000000477,7726,NNB,C,3
3,test,2,0.0,1-Back,0.0,m,Mon Jan 12 2026 11:27:55 GMT-0600 (Central Standard Time),640372.0999999046,057_y_m_n_a.png,O,z,730,5,1,1743.0999999046326,638629.0,7726,NNB,C,4
4,test,2,0.0,1-Back,1.0,m,Mon Jan 12 2026 11:27:55 GMT-0600 (Central Standard Time),642787.7000000477,098_y_f_n_a.png,O,m,1390,6,1,2410.800000190735,640376.899999857,7726,NNB,C,5
5,test,2,1.0,1-Back,1.0,z,Mon Jan 12 2026 11:27:55 GMT-0600 (Central Standard Time),644786.5999999046,098_y_f_n_a.png,O,z,982,7,1,1994.3999998569489,642792.2000000477,7726,NNB,C,6
6,test,2,0.0,1-Back,1.0,m,Mon Jan 12 2026 11:27:55 GMT-0600 (Central Standard Time),646836.5999999046,057_y_m_n_a.png,O,m,1019,8,1,2045.0,644791.5999999046,7726,NNB,C,7
7,test,2,0.0,1-Back,1.0,m,Mon Jan 12 2026 11:27:55 GMT-0600 (Central Standard Time),648820.2000000477,030_o_f_n_a.png,O,m,957,9,1,1977.0,646843.2000000477,7726,NNB,C,8
8,test,2,0.0,1-Back,1.0,m,Mon Jan 12 2026 11:27:55 GMT-0600 (Central Standard Time),650818.7999999523,082_m_m_n_a.png,O,m,981,10,1,1991.0999999046326,648827.7000000477,7726,NNB,C,9
9,test,2,1.0,1-Back,1.0,z,Mon Jan 12 2026 11:27:55 GMT-0600 (Central Standard Time),652684.0,082_m_m_n_a.png,O,z,847,11,1,1859.2000000476837,650824.7999999523,7726,NNB,C,10
10,test,2,0.0,1-Back,1.0,m,Mon Jan 12 2026 11:27:55 GMT-0600 (Central Standard Time),654684.7999999523,030_o_f_n_a.png,O,m,982,12,1,1990.7999999523163,652694.0,7726,NNB,C,11
11,test,2,0.0,1-Back,1.0,m,Mon Jan 12 2026 11:27:55 GMT-0600 (Central Standard Time),657150.0999999046,130_o_f_n_a.png,O,m,1438,13,1,2458.7999999523163,654691.2999999523,7726,NNB,C,12
12,test,2,0.0,1-Back,1.0,m,Mon Jan 12 2026 11:27:55 GMT-0600 (Central Standard Time),659165.2999999523,059_o_m_n_a.png,O,m,997,14,1,2007.7999999523163,657157.5,7726,NNB,C,13
13,test,2,0.0,1-Back,1.0,m,Mon Jan 12 2026 11:27:55 GMT-0600 (Central Standard Time),661031.2999999523,146_o_m_n_a.png,O,m,836,15,1,1859.0999999046326,659172.2000000477,7726,NNB,C,14
14,test,2,1.0,1-Back,1.0,z,Mon Jan 12 2026 11:27:55 GMT-0600 (Central Standard Time),662900.2000000477,146_o_m_n_a.png,O,z,833,16,1,1862.3000001907349,661037.899999857,7726,NNB,C,15
15,test,2,0.0,1-Back,1.0,m,Mon Jan 12 2026 11:27:55 GMT-0600 (Central Standard Time),664830.399999857,031_y_m_n_a.png,O,m,912,17,1,1923.3999998569489,662907.0,7726,NNB,C,16
15,test,2,1.0,1-Back,0.0,z,Mon Jan 12 2026 11:27:55 GMT-0600 (Central Standard Time),666480.2000000477,031_y_m_n_a.png,O,m,626,18,1,1642.5,664837.7000000477,7726,NNB,C,17
0,test,3,1.0,1-Back,,,Mon Jan 12 2026 11:27:55 GMT-0600 (Central Standard Time),666480.2000000477,028_y_f_n_a.png,O,space,17777,1,1,1642.5,664837.7000000477,7726,NNB,C,0
1,test,3,0.0,1-Back,1.0,m,Mon Jan 12 2026 11:27:55 GMT-0600 (Central Standard Time),688389.5,146_o_m_n_a.png,O,m,1011,1,1,2025.6000001430511,686363.899999857,7726,NNB,C,1
2,test,3,1.0,1-Back,1.0,z,Mon Jan 12 2026 11:27:55 GMT-0600 (Central Standard Time),690256.7999999523,146_o_m_n_a.png,O,z,843,1,1,1859.7999999523163,688397.0,7726,NNB,C,2
3,test,3,0.0,1-Back,1.0,m,Mon Jan 12 2026 11:27:55 GMT-0600 (Central Standard Time),692371.7999999523,093_m_f_n_a.png,O,m,1099,1,1,2110.0,690261.7999999523,7726,NNB,C,3
4,test,3,1.0,1-Back,1.0,z,Mon Jan 12 2026 11:27:55 GMT-0600 (Central Standard Time),694322.0999999046,093_m_f_n_a.png,O,z,925,1,1,1944.0,692378.0999999046,7726,NNB,C,4
5,test,3,0.0,1-Back,1.0,m,Mon Jan 12 2026 11:27:55 GMT-0600 (Central Standard Time),696554.899999857,030_o_f_n_a.png,O,m,1200,1,1,2227.0999999046326,694327.7999999523,7726,NNB,C,5
6,test,3,0.0,1-Back,1.0,m,Mon Jan 12 2026 11:27:55 GMT-0600 (Central Standard Time),698502.5,057_y_m_n_a.png,O,m,920,1,1,1940.0,696562.5,7726,NNB,C,6
7,test,3,0.0,1-Back,1.0,m,Mon Jan 12 2026 11:27:55 GMT-0600 (Central Standard Time),700669.0,030_o_f_n_a.png,O,m,1144,1,1,2162.2999999523163,698506.7000000477,7726,NNB,C,7
8,test,3,0.0,1-Back,1.0,m,Mon Jan 12 2026 11:27:55 GMT-0600 (Central Standard Time),703069.0,031_y_m_n_a.png,O,m,1382,1,1,2395.0,700674.0,7726,NNB,C,8
9,test,3,1.0,1-Back,1.0,z,Mon Jan 12 2026 11:27:55 GMT-0600 (Central Standard Time),704884.7000000477,031_y_m_n_a.png,O,z,790,1,1,1809.2000000476837,703075.5,7726,NNB,C,9
10,test,3,0.0,1-Back,1.0,m,Mon Jan 12 2026 11:27:55 GMT-0600 (Central Standard Time),706618.899999857,006_m_f_n_a.png,O,m,717,1,1,1728.5999999046326,704890.2999999523,7726,NNB,C,10
11,test,3,0.0,1-Back,1.0,m,Mon Jan 12 2026 11:27:55 GMT-0600 (Central Standard Time),708701.5,098_y_f_n_a.png,O,m,1050,1,1,2075.4000000953674,706626.0999999046,7726,NNB,C,11
12,test,3,1.0,1-Back,1.0,z,Mon Jan 12 2026 11:27:55 GMT-0600 (Central Standard Time),710484.5999999046,098_y_f_n_a.png,O,z,759,1,1,1775.5999999046326,708709.0,7726,NNB,C,12
13,test,3,0.0,1-Back,1.0,m,Mon Jan 12 2026 11:27:55 GMT-0600 (Central Standard Time),712399.2000000477,006_m_f_n_a.png,O,m,887,1,1,1907.2000000476837,710492.0,7726,NNB,C,13
14,test,3,0.0,1-Back,1.0,m,Mon Jan 12 2026 11:27:55 GMT-0600 (Central Standard Time),714215.2999999523,092_m_m_n_a.png,O,m,795,1,1,1809.0,712406.2999999523,7726,NNB,C,14
15,test,3,1.0,1-Back,1.0,z,Mon Jan 12 2026 11:27:55 GMT-0600 (Central Standard Time),716031.2000000477,092_m_m_n_a.png,O,z,795,1,1,1809.1000001430511,714222.0999999046,7726,NNB,C,15
16,test,3,0.0,1-Back,1.0,m,Mon Jan 12 2026 11:27:55 GMT-0600 (Central Standard Time),717847.5999999046,130_o_f_n_a.png,O,m,787,1,1,1810.2999999523163,716037.2999999523,7726,NNB,C,16
16,test,3,1.0,1-Back,0.0,z,Mon Jan 12 2026 11:27:55 GMT-0600 (Central Standard Time),719497.0,130_o_f_n_a.png,O,m,627,1,1,1645.2000000476837,717851.7999999523,7726,NNB,C,17
0,test,4,1.0,1-Back,,,Mon Jan 12 2026 11:27:55 GMT-0600 (Central Standard Time),719497.0,093_m_f_n_a.png,O,space,5273,1,1,1645.2000000476837,717851.7999999523,7726,NNB,C,0
1,test,4,0.0,1-Back,1.0,m,Mon Jan 12 2026 11:27:55 GMT-0600 (Central Standard Time),729094.2000000477,146_o_m_n_a.png,O,m,1205,2,1,2226.7000000476837,726867.5,7726,NNB,C,1
2,test,4,0.0,1-Back,1.0,m,Mon Jan 12 2026 11:27:55 GMT-0600 (Central Standard Time),731825.7999999523,093_m_f_n_a.png,O,m,1708,3,1,2724.7999999523163,729101.0,7726,NNB,C,2
3,test,4,0.0,1-Back,1.0,m,Mon Jan 12 2026 11:27:55 GMT-0600 (Central Standard Time),733758.2000000477,030_o_f_n_a.png,O,m,908,4,1,1923.4000000953674,731834.7999999523,7726,NNB,C,3
4,test,4,1.0,1-Back,1.0,z,Mon Jan 12 2026 11:27:55 GMT-0600 (Central Standard Time),735509.2000000477,030_o_f_n_a.png,O,z,723,5,1,1742.9000000953674,733766.2999999523,7726,NNB,C,4
5,test,4,0.0,1-Back,1.0,m,Mon Jan 12 2026 11:27:55 GMT-0600 (Central Standard Time),737458.7999999523,098_y_f_n_a.png,O,m,925,6,1,1940.2999999523163,735518.5,7726,NNB,C,5
6,test,4,0.0,1-Back,1.0,m,Mon Jan 12 2026 11:27:55 GMT-0600 (Central Standard Time),739275.2999999523,057_y_m_n_a.png,O,m,802,7,1,1808.7000000476837,737466.5999999046,7726,NNB,C,6
7,test,4,1.0,1-Back,1.0,z,Mon Jan 12 2026 11:27:55 GMT-0600 (Central Standard Time),741072.899999857,057_y_m_n_a.png,O,z,768,8,1,1791.6999998092651,739281.2000000477,7726,NNB,C,7
8,test,4,0.0,1-Back,1.0,m,Mon Jan 12 2026 11:27:55 GMT-0600 (Central Standard Time),742824.0,098_y_f_n_a.png,O,m,721,9,1,1744.1000001430511,741079.899999857,7726,NNB,C,8
9,test,4,0.0,1-Back,1.0,m,Mon Jan 12 2026 11:27:55 GMT-0600 (Central Standard Time),744855.0,082_m_m_n_a.png,O,m,1002,10,1,2025.7000000476837,742829.2999999523,7726,NNB,C,9
10,test,4,1.0,1-Back,1.0,z,Mon Jan 12 2026 11:27:55 GMT-0600 (Central Standard Time),747187.7000000477,082_m_m_n_a.png,O,z,1313,11,1,2325.300000190735,744862.399999857,7726,NNB,C,10
11,test,4,0.0,1-Back,1.0,m,Mon Jan 12 2026 11:27:55 GMT-0600 (Central Standard Time),749055.5,130_o_f_n_a.png,O,m,847,12,1,1860.5,747195.0,7726,NNB,C,11
12,test,4,0.0,1-Back,1.0,m,Mon Jan 12 2026 11:27:55 GMT-0600 (Central Standard Time),751152.7999999523,059_o_m_n_a.png,O,m,1067,13,1,2088.0999999046326,749064.7000000477,7726,NNB,C,12
12,test,4,0.0,1-Back,0.0,m,Mon Jan 12 2026 11:27:55 GMT-0600 (Central Standard Time),752936.2000000477,130_o_f_n_a.png,O,z,752,14,1,1780.0,751156.2000000477,7726,NNB,C,13
13,test,4,0.0,1-Back,1.0,m,Mon Jan 12 2026 11:27:55 GMT-0600 (Central Standard Time),755118.399999857,028_y_f_n_a.png,O,m,1154,15,1,2175.0999999046326,752943.2999999523,7726,NNB,C,14
14,test,4,1.0,1-Back,1.0,z,Mon Jan 12 2026 11:27:55 GMT-0600 (Central Standard Time),756717.7000000477,028_y_f_n_a.png,O,z,579,16,1,1593.6000001430511,755124.0999999046,7726,NNB,C,15
15,test,4,0.0,1-Back,1.0,m,Mon Jan 12 2026 11:27:55 GMT-0600 (Central Standard Time),758490.2000000477,006_m_f_n_a.png,O,m,756,17,1,1765.9000000953674,756724.2999999523,7726,NNB,C,16
16,test,4,1.0,1-Back,1.0,z,Mon Jan 12 2026 11:27:55 GMT-0600 (Central Standard Time),760467.0,006_m_f_n_a.png,O,z,956,18,1,1970.5,758496.5,7726,NNB,C,17
0,test,5,1.0,1-Back,,,Mon Jan 12 2026 11:27:55 GMT-0600 (Central Standard Time),760467.0,059_o_m_n_a.png,O,space,6281,1,1,1970.5,758496.5,7726,NNB,C,0
1,test,5,1.0,1-Back,1.0,z,Mon Jan 12 2026 11:27:55 GMT-0600 (Central Standard Time),771096.399999857,059_o_m_n_a.png,O,z,1285,2,1,2311.699999809265,768784.7000000477,7726,NNB,C,1
2,test,5,0.0,1-Back,1.0,m,Mon Jan 12 2026 11:27:55 GMT-0600 (Central Standard Time),772864.7000000477,098_y_f_n_a.png,O,m,745,3,1,1763.9000000953674,771100.7999999523,7726,NNB,C,2
3,test,5,0.0,1-Back,1.0,m,Mon Jan 12 2026 11:27:55 GMT-0600 (Central Standard Time),774996.0999999046,057_y_m_n_a.png,O,m,1115,4,1,2126.2000000476837,772869.899999857,7726,NNB,C,3
4,test,5,0.0,1-Back,1.0,m,Mon Jan 12 2026 11:27:55 GMT-0600 (Central Standard Time),777394.5,098_y_f_n_a.png,O,m,1373,5,1,2391.4000000953674,775003.0999999046,7726,NNB,C,4
5,test,5,0.0,1-Back,1.0,m,Mon Jan 12 2026 11:27:55 GMT-0600 (Central Standard Time),779177.7000000477,092_m_m_n_a.png,O,m,751,6,1,1775.5,777402.2000000477,7726,NNB,C,5
6,test,5,1.0,1-Back,1.0,z,Mon Jan 12 2026 11:27:55 GMT-0600 (Central Standard Time),780960.399999857,092_m_m_n_a.png,O,z,749,7,1,1775.3999998569489,779185.0,7726,NNB,C,6
7,test,5,0.0,1-Back,1.0,m,Mon Jan 12 2026 11:27:55 GMT-0600 (Central Standard Time),782759.7999999523,028_y_f_n_a.png,O,m,778,8,1,1793.7000000476837,780966.0999999046,7726,NNB,C,7
8,test,5,0.0,1-Back,1.0,m,Mon Jan 12 2026 11:27:55 GMT-0600 (Central Standard Time),784643.2999999523,031_y_m_n_a.png,O,m,858,9,1,1877.5,782765.7999999523,7726,NNB,C,8
9,test,5,0.0,1-Back,1.0,m,Mon Jan 12 2026 11:27:55 GMT-0600 (Central Standard Time),787092.0,028_y_f_n_a.png,O,m,1421,10,1,2440.2999999523163,784651.7000000477,7726,NNB,C,9
10,test,5,0.0,1-Back,1.0,m,Mon Jan 12 2026 11:27:55 GMT-0600 (Central Standard Time),789140.7000000477,130_o_f_n_a.png,O,m,1022,11,1,2041.8000001907349,787098.899999857,7726,NNB,C,10
11,test,5,1.0,1-Back,1.0,z,Mon Jan 12 2026 11:27:55 GMT-0600 (Central Standard Time),790774.399999857,130_o_f_n_a.png,O,z,605,12,1,1626.6999998092651,789147.7000000477,7726,NNB,C,11
12,test,5,0.0,1-Back,1.0,m,Mon Jan 12 2026 11:27:55 GMT-0600 (Central Standard Time),792542.0,146_o_m_n_a.png,O,m,738,13,1,1761.6000001430511,790780.399999857,7726,NNB,C,12
13,test,5,0.0,1-Back,1.0,m,Mon Jan 12 2026 11:27:55 GMT-0600 (Central Standard Time),794622.0999999046,093_m_f_n_a.png,O,m,1054,14,1,2074.399999856949,792547.7000000477,7726,NNB,C,13
14,test,5,1.0,1-Back,1.0,z,Mon Jan 12 2026 11:27:55 GMT-0600 (Central Standard Time),796291.0999999046,093_m_f_n_a.png,O,z,631,15,1,1663.0999999046326,794628.0,7726,NNB,C,14
15,test,5,0.0,1-Back,1.0,m,Mon Jan 12 2026 11:27:55 GMT-0600 (Central Standard Time),798120.5,146_o_m_n_a.png,O,m,808,16,1,1820.5,796300.0,7726,NNB,C,15
16,test,5,0.0,1-Back,1.0,m,Mon Jan 12 2026 11:27:55 GMT-0600 (Central Standard Time),800138.899999857,006_m_f_n_a.png,O,m,983,17,1,2011.6999998092651,798127.2000000477,7726,NNB,C,16
17,test,5,0.0,1-Back,1.0,m,Mon Jan 12 2026 11:27:55 GMT-0600 (Central Standard Time),801954.5999999046,082_m_m_n_a.png,O,m,784,18,1,1809.7000000476837,800144.899999857,7726,NNB,C,17
0,prac,1,0.0,2-Back,,,Mon Jan 12 2026 11:27:55 GMT-0600 (Central Standard Time),801954.5999999046,031_y_m_n_a.png,O,space,13462,1,1,1809.7000000476837,800144.899999857,7726,NNB,C,0
0,prac,1,0.0,2-Back,,,Mon Jan 12 2026 11:27:55 GMT-0600 (Central Standard Time),801954.5999999046,006_m_f_n_a.png,O,space,13462,2,1,1809.7000000476837,800144.899999857,7726,NNB,C,0
1,prac,1,1.0,2-Back,1.0,m,Mon Jan 12 2026 11:27:55 GMT-0600 (Central Standard Time),1065819.5999999046,146_o_m_n_a.png,O,m,1252,3,1,2105.2000000476837,1063714.399999857,7726,NNB,C,1
2,prac,1,0.0,2-Back,1.0,m,Mon Jan 12 2026 11:27:55 GMT-0600 (Central Standard Time),1068620.7999999523,130_o_f_n_a.png,O,m,1941,4,1,2789.9000000953674,1065830.899999857,7726,NNB,C,2
3,prac,1,0.0,2-Back,1.0,z,Mon Jan 12 2026 11:27:55 GMT-0600 (Central Standard Time),1071068.2999999523,146_o_m_n_a.png,O,z,1655,5,1,2438.2999999523163,1068630.0,7726,NNB,C,3
4,prac,1,1.0,2-Back,1.0,z,Mon Jan 12 2026 11:27:55 GMT-0600 (Central Standard Time),1073217.399999857,130_o_f_n_a.png,O,z,1372,6,1,2138.5999999046326,1071078.7999999523,7726,NNB,C,4
5,prac,1,0.0,2-Back,1.0,m,Mon Jan 12 2026 11:27:55 GMT-0600 (Central Standard Time),1075234.7999999523,082_m_m_n_a.png,O,m,1169,7,1,2007.9000000953674,1073226.899999857,7726,NNB,C,5
6,prac,1,0.0,2-Back,1.0,m,Mon Jan 12 2026 11:27:55 GMT-0600 (Central Standard Time),1077548.2999999523,059_o_m_n_a.png,O,m,1465,8,1,2306.0999999046326,1075242.2000000477,7726,NNB,C,6
7,prac,1,0.0,2-Back,1.0,m,Mon Jan 12 2026 11:27:55 GMT-0600 (Central Standard Time),1079715.7000000477,028_y_f_n_a.png,O,m,1339,9,1,2162.9000000953674,1077552.7999999523,7726,NNB,C,7
8,prac,1,1.0,2-Back,1.0,z,Mon Jan 12 2026 11:27:55 GMT-0600 (Central Standard Time),1081514.7000000477,059_o_m_n_a.png,O,z,1015,10,1,1791.7000000476837,1079723.0,7726,NNB,C,8
9,prac,1,0.0,2-Back,1.0,m,Mon Jan 12 2026 11:27:55 GMT-0600 (Central Standard Time),1083533.0,098_y_f_n_a.png,O,m,1164,11,1,2008.0,1081525.0,7726,NNB,C,9
9,prac,1,0.0,2-Back,0.0,m,Mon Jan 12 2026 11:27:55 GMT-0600 (Central Standard Time),1085497.5,082_m_m_n_a.png,O,z,1164,12,1,1948.2000000476837,1083549.2999999523,7726,NNB,C,10
0,test,1,0.0,2-Back,,,Mon Jan 12 2026 11:27:55 GMT-0600 (Central Standard Time),1085497.5,057_y_m_n_a.png,O,space,7911,1,1,1948.2000000476837,1083549.2999999523,7726,NNB,C,0
0,test,1,0.0,2-Back,,,Mon Jan 12 2026 11:27:55 GMT-0600 (Central Standard Time),1085497.5,057_y_m_n_a.png,O,space,7911,2,1,1948.2000000476837,1083549.2999999523,7726,NNB,C,0
1,test,1,0.0,2-Back,1.0,m,Mon Jan 12 2026 11:27:55 GMT-0600 (Central Standard Time),1138329.0999999046,130_o_f_n_a.png,O,m,1640,3,1,2658.5,1135670.5999999046,7726,NNB,C,1
2,test,1,0.0,2-Back,1.0,m,Mon Jan 12 2026 11:27:55 GMT-0600 (Central Standard Time),1140745.5,092_m_m_n_a.png,O,m,1384,4,1,2409.9000000953674,1138335.5999999046,7726,NNB,C,2
3,test,1,1.0,2-Back,1.0,z,Mon Jan 12 2026 11:27:55 GMT-0600 (Central Standard Time),1142748.0999999046,130_o_f_n_a.png,O,z,986,5,1,1995.0999999046326,1140753.0,7726,NNB,C,3
4,test,1,0.0,2-Back,1.0,m,Mon Jan 12 2026 11:27:55 GMT-0600 (Central Standard Time),1144596.899999857,098_y_f_n_a.png,O,m,836,6,1,1842.5999999046326,1142754.2999999523,7726,NNB,C,4
4,test,1,0.0,2-Back,0.0,m,Mon Jan 12 2026 11:27:55 GMT-0600 (Central Standard Time),1147360.0,092_m_m_n_a.png,O,z,1744,7,1,2756.600000143051,1144603.399999857,7726,NNB,C,5
5,test,1,1.0,2-Back,1.0,z,Mon Jan 12 2026 11:27:55 GMT-0600 (Central Standard Time),1149726.7000000477,098_y_f_n_a.png,O,z,1345,8,1,2363.300000190735,1147363.399999857,7726,NNB,C,6
6,test,1,0.0,2-Back,1.0,m,Mon Jan 12 2026 11:27:55 GMT-0600 (Central Standard Time),1151858.899999857,031_y_m_n_a.png,O,m,1101,9,1,2127.399999856949,1149731.5,7726,NNB,C,7
7,test,1,0.0,2-Back,1.0,m,Mon Jan 12 2026 11:27:55 GMT-0600 (Central Standard Time),1153858.899999857,030_o_f_n_a.png,O,m,973,10,1,1993.7999999523163,1151865.0999999046,7726,NNB,C,8
8,test,1,1.0,2-Back,1.0,z,Mon Jan 12 2026 11:27:55 GMT-0600 (Central Standard Time),1156024.0999999046,031_y_m_n_a.png,O,z,1133,11,1,2158.2000000476837,1153865.899999857,7726,NNB,C,9
9,test,1,0.0,2-Back,1.0,m,Mon Jan 12 2026 11:27:55 GMT-0600 (Central Standard Time),1158540.7000000477,006_m_f_n_a.png,O,m,1498,12,1,2510.4000000953674,1156030.2999999523,7726,NNB,C,10
9,test,1,0.0,2-Back,0.0,m,Mon Jan 12 2026 11:27:55 GMT-0600 (Central Standard Time),1160475.899999857,006_m_f_n_a.png,O,z,918,13,1,1928.7999999523163,1158547.0999999046,7726,NNB,C,11
10,test,1,0.0,2-Back,1.0,m,Mon Jan 12 2026 11:27:55 GMT-0600 (Central Standard Time),1162406.5999999046,146_o_m_n_a.png,O,m,905,14,1,1926.7000000476837,1160479.899999857,7726,NNB,C,12
11,test,1,0.0,2-Back,1.0,m,Mon Jan 12 2026 11:27:55 GMT-0600 (Central Standard Time),1164637.2999999523,030_o_f_n_a.png,O,m,1203,15,1,2225.9000000953674,1162411.399999857,7726,NNB,C,13
12,test,1,1.0,2-Back,1.0,z,Mon Jan 12 2026 11:27:55 GMT-0600 (Central Standard Time),1166486.5999999046,146_o_m_n_a.png,O,z,827,16,1,1841.7000000476837,1164644.899999857,7726,NNB,C,14
13,test,1,0.0,2-Back,1.0,m,Mon Jan 12 2026 11:27:55 GMT-0600 (Central Standard Time),1168303.7999999523,093_m_f_n_a.png,O,m,784,17,1,1810.4000000953674,1166493.399999857,7726,NNB,C,15
14,test,1,0.0,2-Back,1.0,m,Mon Jan 12 2026 11:27:55 GMT-0600 (Central Standard Time),1171086.0,082_m_m_n_a.png,O,m,1760,18,1,2778.5,1168307.5,7726,NNB,C,16
0,test,2,0.0,2-Back,,,Mon Jan 12 2026 11:27:55 GMT-0600 (Central Standard Time),1171086.0,082_m_m_n_a.png,O,space,5899,1,1,2778.5,1168307.5,7726,NNB,C,0
0,test,2,0.0,2-Back,,,Mon Jan 12 2026 11:27:55 GMT-0600 (Central Standard Time),1171086.0,028_y_f_n_a.png,O,space,5899,2,1,2778.5,1168307.5,7726,NNB,C,0
1,test,2,1.0,2-Back,1.0,z,Mon Jan 12 2026 11:27:55 GMT-0600 (Central Standard Time),1184081.7999999523,082_m_m_n_a.png,O,z,932,3,1,1960.0999999046326,1182121.7000000477,7726,NNB,C,1
2,test,2,0.0,2-Back,1.0,m,Mon Jan 12 2026 11:27:55 GMT-0600 (Central Standard Time),1186131.5,093_m_f_n_a.png,O,m,1031,4,1,2041.7999999523163,1184089.7000000477,7726,NNB,C,2
2,test,2,0.0,2-Back,0.0,m,Mon Jan 12 2026 11:27:55 GMT-0600 (Central Standard Time),1187930.2000000477,028_y_f_n_a.png,O,z,766,5,1,1793.5,1186136.7000000477,7726,NNB,C,3
3,test,2,0.0,2-Back,1.0,m,Mon Jan 12 2026 11:27:55 GMT-0600 (Central Standard Time),1189864.399999857,146_o_m_n_a.png,O,m,903,6,1,1927.8999998569489,1187936.5,7726,NNB,C,4
4,test,2,0.0,2-Back,1.0,m,Mon Jan 12 2026 11:27:55 GMT-0600 (Central Standard Time),1191930.2000000477,098_y_f_n_a.png,O,m,1035,7,1,2058.0,1189872.2000000477,7726,NNB,C,5
5,test,2,1.0,2-Back,1.0,z,Mon Jan 12 2026 11:27:55 GMT-0600 (Central Standard Time),1193811.899999857,146_o_m_n_a.png,O,z,864,8,1,1874.5999999046326,1191937.2999999523,7726,NNB,C,6
6,test,2,0.0,2-Back,1.0,m,Mon Jan 12 2026 11:27:55 GMT-0600 (Central Standard Time),1195828.399999857,031_y_m_n_a.png,O,m,989,9,1,2010.3999998569489,1193818.0,7726,NNB,C,7
6,test,2,0.0,2-Back,0.0,m,Mon Jan 12 2026 11:27:55 GMT-0600 (Central Standard Time),1197845.5,031_y_m_n_a.png,O,z,988,10,1,2011.9000000953674,1195833.5999999046,7726,NNB,C,8
7,test,2,0.0,2-Back,1.0,m,Mon Jan 12 2026 11:27:55 GMT-0600 (Central Standard Time),1200376.2000000477,006_m_f_n_a.png,O,m,1500,11,1,2526.7000000476837,1197849.5,7726,NNB,C,9
8,test,2,0.0,2-Back,1.0,m,Mon Jan 12 2026 11:27:55 GMT-0600 (Central Standard Time),1202609.2999999523,028_y_f_n_a.png,O,m,1210,12,1,2227.7000000476837,1200381.5999999046,7726,NNB,C,10
9,test,2,1.0,2-Back,1.0,z,Mon Jan 12 2026 11:27:55 GMT-0600 (Central Standard Time),1204544.7999999523,006_m_f_n_a.png,O,z,912,13,1,1927.9000000953674,1202616.899999857,7726,NNB,C,11
10,test,2,0.0,2-Back,1.0,m,Mon Jan 12 2026 11:27:55 GMT-0600 (Central Standard Time),1206307.7999999523,059_o_m_n_a.png,O,m,736,14,1,1756.0999999046326,1204551.7000000477,7726,NNB,C,12
10,test,2,0.0,2-Back,0.0,m,Mon Jan 12 2026 11:27:55 GMT-0600 (Central Standard Time),1208439.0,059_o_m_n_a.png,O,z,1108,15,1,2127.0,1206312.0,7726,NNB,C,13
11,test,2,0.0,2-Back,1.0,m,Mon Jan 12 2026 11:27:55 GMT-0600 (Central Standard Time),1210339.7999999523,030_o_f_n_a.png,O,m,882,16,1,1890.4000000953674,1208449.399999857,7726,NNB,C,14
12,test,2,0.0,2-Back,1.0,m,Mon Jan 12 2026 11:27:55 GMT-0600 (Central Standard Time),1212289.7000000477,092_m_m_n_a.png,O,m,926,17,1,1944.5,1210345.2000000477,7726,NNB,C,15
13,test,2,1.0,2-Back,1.0,z,Mon Jan 12 2026 11:27:55 GMT-0600 (Central Standard Time),1214371.899999857,030_o_f_n_a.png,O,z,1055,18,1,2077.0,1212294.899999857,7726,NNB,C,16
0,test,3,1.0,2-Back,,,Mon Jan 12 2026 11:27:55 GMT-0600 (Central Standard Time),1214371.899999857,057_y_m_n_a.png,O,space,3517,1,1,2077.0,1212294.899999857,7726,NNB,C,0
0,test,3,1.0,2-Back,,,Mon Jan 12 2026 11:27:55 GMT-0600 (Central Standard Time),1214371.899999857,057_y_m_n_a.png,O,space,3517,2,1,2077.0,1212294.899999857,7726,NNB,C,0
1,test,3,0.0,2-Back,1.0,m,Mon Jan 12 2026 11:27:55 GMT-0600 (Central Standard Time),1225168.399999857,030_o_f_n_a.png,O,m,1117,3,1,2139.899999856949,1223028.5,7726,NNB,C,1
2,test,3,0.0,2-Back,1.0,m,Mon Jan 12 2026 11:27:55 GMT-0600 (Central Standard Time),1227084.5,082_m_m_n_a.png,O,m,888,4,1,1906.9000000953674,1225177.5999999046,7726,NNB,C,2
3,test,3,1.0,2-Back,1.0,z,Mon Jan 12 2026 11:27:55 GMT-0600 (Central Standard Time),1229133.899999857,030_o_f_n_a.png,O,z,1021,5,1,2042.8999998569489,1227091.0,7726,NNB,C,3
4,test,3,0.0,2-Back,1.0,m,Mon Jan 12 2026 11:27:55 GMT-0600 (Central Standard Time),1231650.7000000477,031_y_m_n_a.png,O,m,1500,6,1,2510.2000000476837,1229140.5,7726,NNB,C,4
4,test,3,0.0,2-Back,0.0,m,Mon Jan 12 2026 11:27:55 GMT-0600 (Central Standard Time),1233900.7000000477,082_m_m_n_a.png,O,z,1231,7,1,2244.300000190735,1231656.399999857,7726,NNB,C,5
5,test,3,1.0,2-Back,1.0,z,Mon Jan 12 2026 11:27:55 GMT-0600 (Central Standard Time),1236165.0,031_y_m_n_a.png,O,z,1239,8,1,2259.9000000953674,1233905.0999999046,7726,NNB,C,6
6,test,3,0.0,2-Back,1.0,m,Mon Jan 12 2026 11:27:55 GMT-0600 (Central Standard Time),1238030.7999999523,028_y_f_n_a.png,O,m,834,9,1,1858.2999999523163,1236172.5,7726,NNB,C,7
7,test,3,0.0,2-Back,1.0,m,Mon Jan 12 2026 11:27:55 GMT-0600 (Central Standard Time),1240013.5,092_m_m_n_a.png,O,m,954,10,1,1977.2999999523163,1238036.2000000477,7726,NNB,C,8
8,test,3,1.0,2-Back,1.0,z,Mon Jan 12 2026 11:27:55 GMT-0600 (Central Standard Time),1241547.7000000477,028_y_f_n_a.png,O,z,516,11,1,1529.9000000953674,1240017.7999999523,7726,NNB,C,9
9,test,3,1.0,2-Back,1.0,z,Mon Jan 12 2026 11:27:55 GMT-0600 (Central Standard Time),1243795.7000000477,092_m_m_n_a.png,O,z,1231,12,1,2240.800000190735,1241554.899999857,7726,NNB,C,10
10,test,3,0.0,2-Back,1.0,m,Mon Jan 12 2026 11:27:55 GMT-0600 (Central Standard Time),1245744.7999999523,030_o_f_n_a.png,O,m,925,13,1,1946.4000000953674,1243798.399999857,7726,NNB,C,11
11,test,3,0.0,2-Back,1.0,m,Mon Jan 12 2026 11:27:55 GMT-0600 (Central Standard Time),1248211.7000000477,093_m_f_n_a.png,O,m,1450,14,1,2464.4000000953674,1245747.2999999523,7726,NNB,C,12
12,test,3,0.0,2-Back,1.0,m,Mon Jan 12 2026 11:27:55 GMT-0600 (Central Standard Time),1250177.7999999523,146_o_m_n_a.png,O,m,944,15,1,1956.9000000953674,1248220.899999857,7726,NNB,C,13
13,test,3,1.0,2-Back,1.0,z,Mon Jan 12 2026 11:27:55 GMT-0600 (Central Standard Time),1252076.5,093_m_f_n_a.png,O,z,880,16,1,1892.7999999523163,1250183.7000000477,7726,NNB,C,14
14,test,3,0.0,2-Back,1.0,m,Mon Jan 12 2026 11:27:55 GMT-0600 (Central Standard Time),1254125.5999999046,130_o_f_n_a.png,O,m,1019,17,1,2041.5999999046326,1252084.0,7726,NNB,C,15
15,test,3,0.0,2-Back,1.0,m,Mon Jan 12 2026 11:27:55 GMT-0600 (Central Standard Time),1255875.2000000477,130_o_f_n_a.png,O,m,724,18,1,1744.2000000476837,1254131.0,7726,NNB,C,16
0,test,4,0.0,2-Back,,,Mon Jan 12 2026 11:27:55 GMT-0600 (Central Standard Time),1255875.2000000477,059_o_m_n_a.png,O,space,3078,1,1,1744.2000000476837,1254131.0,7726,NNB,C,0
0,test,4,0.0,2-Back,,,Mon Jan 12 2026 11:27:55 GMT-0600 (Central Standard Time),1255875.2000000477,098_y_f_n_a.png,O,space,3078,2,1,1744.2000000476837,1254131.0,7726,NNB,C,0
1,test,4,1.0,2-Back,1.0,z,Mon Jan 12 2026 11:27:55 GMT-0600 (Central Standard Time),1266239.0,059_o_m_n_a.png,O,z,1077,3,1,2092.600000143051,1264146.399999857,7726,NNB,C,1
2,test,4,1.0,2-Back,1.0,z,Mon Jan 12 2026 11:27:55 GMT-0600 (Central Standard Time),1269054.2999999523,098_y_f_n_a.png,O,z,1786,4,1,2811.5,1266242.7999999523,7726,NNB,C,2
3,test,4,0.0,2-Back,1.0,m,Mon Jan 12 2026 11:27:55 GMT-0600 (Central Standard Time),1270837.2000000477,030_o_f_n_a.png,O,m,754,5,1,1775.8000001907349,1269061.399999857,7726,NNB,C,3
3,test,4,0.0,2-Back,0.0,m,Mon Jan 12 2026 11:27:55 GMT-0600 (Central Standard Time),1273153.2000000477,030_o_f_n_a.png,O,z,1299,6,1,2311.600000143051,1270841.5999999046,7726,NNB,C,4
4,test,4,0.0,2-Back,1.0,m,Mon Jan 12 2026 11:27:55 GMT-0600 (Central Standard Time),1275069.5,006_m_f_n_a.png,O,m,897,7,1,1911.9000000953674,1273157.5999999046,7726,NNB,C,5
5,test,4,0.0,2-Back,1.0,m,Mon Jan 12 2026 11:27:55 GMT-0600 (Central Standard Time),1277201.2000000477,031_y_m_n_a.png,O,m,1108,8,1,2124.600000143051,1275076.5999999046,7726,NNB,C,6
5,test,4,1.0,2-Back,0.0,z,Mon Jan 12 2026 11:27:55 GMT-0600 (Central Standard Time),1280234.399999857,006_m_f_n_a.png,O,None,2015,9,1,3026.0999999046326,1277208.2999999523,7726,NNB,C,7
5,test,4,0.0,2-Back,0.0,m,Mon Jan 12 2026 11:27:55 GMT-0600 (Central Standard Time),1282217.7999999523,092_m_m_n_a.png,O,z,950,10,1,1976.5999999046326,1280241.2000000477,7726,NNB,C,8
6,test,4,0.0,2-Back,1.0,m,Mon Jan 12 2026 11:27:55 GMT-0600 (Central Standard Time),1284216.0,031_y_m_n_a.png,O,m,974,11,1,1990.2999999523163,1282225.7000000477,7726,NNB,C,9
7,test,4,0.0,2-Back,1.0,m,Mon Jan 12 2026 11:27:55 GMT-0600 (Central Standard Time),1286266.7000000477,130_o_f_n_a.png,O,m,1017,12,1,2045.9000000953674,1284220.7999999523,7726,NNB,C,10
8,test,4,0.0,2-Back,1.0,m,Mon Jan 12 2026 11:27:55 GMT-0600 (Central Standard Time),1288315.2999999523,057_y_m_n_a.png,O,m,1026,13,1,2042.0,1286273.2999999523,7726,NNB,C,11
9,test,4,1.0,2-Back,1.0,z,Mon Jan 12 2026 11:27:55 GMT-0600 (Central Standard Time),1289965.0999999046,130_o_f_n_a.png,O,z,630,14,1,1643.0999999046326,1288322.0,7726,NNB,C,12
10,test,4,1.0,2-Back,1.0,z,Mon Jan 12 2026 11:27:55 GMT-0600 (Central Standard Time),1292363.7999999523,057_y_m_n_a.png,O,z,1373,15,1,2391.2000000476837,1289972.5999999046,7726,NNB,C,13
11,test,4,0.0,2-Back,1.0,m,Mon Jan 12 2026 11:27:55 GMT-0600 (Central Standard Time),1294129.7999999523,082_m_m_n_a.png,O,m,742,16,1,1758.9000000953674,1292370.899999857,7726,NNB,C,14
12,test,4,0.0,2-Back,1.0,m,Mon Jan 12 2026 11:27:55 GMT-0600 (Central Standard Time),1296047.399999857,093_m_f_n_a.png,O,m,897,17,1,1908.6999998092651,1294138.7000000477,7726,NNB,C,15
13,test,4,1.0,2-Back,1.0,z,Mon Jan 12 2026 11:27:55 GMT-0600 (Central Standard Time),1297946.2000000477,082_m_m_n_a.png,O,z,872,18,1,1891.4000000953674,1296054.7999999523,7726,NNB,C,16
0,test,5,1.0,2-Back,,,Mon Jan 12 2026 11:27:55 GMT-0600 (Central Standard Time),1297946.2000000477,057_y_m_n_a.png,O,space,2087,1,1,1891.4000000953674,1296054.7999999523,7726,NNB,C,0
0,test,5,1.0,2-Back,,,Mon Jan 12 2026 11:27:55 GMT-0600 (Central Standard Time),1297946.2000000477,093_m_f_n_a.png,O,space,2087,2,1,1891.4000000953674,1296054.7999999523,7726,NNB,C,0
1,test,5,1.0,2-Back,1.0,z,Mon Jan 12 2026 11:27:55 GMT-0600 (Central Standard Time),1307126.2999999523,057_y_m_n_a.png,O,z,1004,3,1,2028.0,1305098.2999999523,7726,NNB,C,1
2,test,5,1.0,2-Back,1.0,z,Mon Jan 12 2026 11:27:55 GMT-0600 (Central Standard Time),1309241.7999999523,093_m_f_n_a.png,O,z,1093,4,1,2108.7000000476837,1307133.0999999046,7726,NNB,C,2
3,test,5,0.0,2-Back,1.0,m,Mon Jan 12 2026 11:27:55 GMT-0600 (Central Standard Time),1310974.5999999046,130_o_f_n_a.png,O,m,712,5,1,1727.5999999046326,1309247.0,7726,NNB,C,3
4,test,5,0.0,2-Back,1.0,m,Mon Jan 12 2026 11:27:55 GMT-0600 (Central Standard Time),1313190.399999857,057_y_m_n_a.png,O,m,1196,6,1,2209.7999999523163,1310980.5999999046,7726,NNB,C,4
5,test,5,0.0,2-Back,1.0,m,Mon Jan 12 2026 11:27:55 GMT-0600 (Central Standard Time),1315240.7000000477,028_y_f_n_a.png,O,m,1020,7,1,2042.9000000953674,1313197.7999999523,7726,NNB,C,5
5,test,5,0.0,2-Back,0.0,m,Mon Jan 12 2026 11:27:55 GMT-0600 (Central Standard Time),1317123.399999857,130_o_f_n_a.png,O,z,862,8,1,1878.1999998092651,1315245.2000000477,7726,NNB,C,6
6,test,5,1.0,2-Back,1.0,z,Mon Jan 12 2026 11:27:55 GMT-0600 (Central Standard Time),1319323.899999857,028_y_f_n_a.png,O,z,1173,9,1,2191.899999856949,1317132.0,7726,NNB,C,7
7,test,5,0.0,2-Back,1.0,m,Mon Jan 12 2026 11:27:55 GMT-0600 (Central Standard Time),1321071.7000000477,146_o_m_n_a.png,O,m,718,10,1,1743.7000000476837,1319328.0,7726,NNB,C,8
8,test,5,0.0,2-Back,1.0,m,Mon Jan 12 2026 11:27:55 GMT-0600 (Central Standard Time),1323271.5,006_m_f_n_a.png,O,m,1170,11,1,2193.5,1321078.0,7726,NNB,C,9
9,test,5,0.0,2-Back,1.0,m,Mon Jan 12 2026 11:27:55 GMT-0600 (Central Standard Time),1325103.5999999046,092_m_m_n_a.png,O,m,802,12,1,1826.0,1323277.5999999046,7726,NNB,C,10
9,test,5,0.0,2-Back,0.0,m,Mon Jan 12 2026 11:27:55 GMT-0600 (Central Standard Time),1327236.5,146_o_m_n_a.png,O,z,1105,13,1,2127.7999999523163,1325108.7000000477,7726,NNB,C,11
10,test,5,1.0,2-Back,1.0,z,Mon Jan 12 2026 11:27:55 GMT-0600 (Central Standard Time),1329104.399999857,092_m_m_n_a.png,O,z,834,14,1,1862.1999998092651,1327242.2000000477,7726,NNB,C,12
11,test,5,0.0,2-Back,1.0,m,Mon Jan 12 2026 11:27:55 GMT-0600 (Central Standard Time),1331184.5999999046,098_y_f_n_a.png,O,m,1059,15,1,2073.399999856949,1329111.2000000477,7726,NNB,C,13
12,test,5,0.0,2-Back,1.0,m,Mon Jan 12 2026 11:27:55 GMT-0600 (Central Standard Time),1333368.2999999523,059_o_m_n_a.png,O,m,1160,16,1,2177.2999999523163,1331191.0,7726,NNB,C,14
13,test,5,0.0,2-Back,1.0,m,Mon Jan 12 2026 11:27:55 GMT-0600 (Central Standard Time),1335750.899999857,006_m_f_n_a.png,O,m,1354,17,1,2377.199999809265,1333373.7000000477,7726,NNB,C,15
14,test,5,1.0,2-Back,1.0,z,Mon Jan 12 2026 11:27:55 GMT-0600 (Central Standard Time),1337483.0,059_o_m_n_a.png,O,z,717,18,1,1728.0,1335755.0,7726,NNB,C,16
