block_c,block_dur,condition,countdown,datetime,endtime,list,multichar_response,project,response,response_time,session_number,start_end,starttime,subject_id,task,task_vers,trial
,,,,Wed Jan 21 2026 16:43:04 GMT-0500 (Eastern Standard Time),,,,I,space,392,3,,,9010,WL,A,
prac,,0,,Wed Jan 21 2026 16:43:04 GMT-0500 (Eastern Standard Time),,NA,b,I,b,2455,3,,,9010,WL,A,1.0
prac,,0,,Wed Jan 21 2026 16:43:04 GMT-0500 (Eastern Standard Time),,NA,bo,I,o,215,3,,,9010,WL,A,1.0
prac,,0,,Wed Jan 21 2026 16:43:04 GMT-0500 (Eastern Standard Time),,NA,boo,I,o,158,3,,,9010,WL,A,1.0
prac,,0,,Wed Jan 21 2026 16:43:04 GMT-0500 (Eastern Standard Time),,NA,boos,I,s,86,3,,,9010,WL,A,1.0
prac,,0,,Wed Jan 21 2026 16:43:04 GMT-0500 (Eastern Standard Time),,NA,boost,I,t,197,3,,,9010,WL,A,1.0
prac,,0,,Wed Jan 21 2026 16:43:04 GMT-0500 (Eastern Standard Time),,NA,boostenter,I,enter,303,3,,,9010,WL,A,1.0
1,0.8340001106262207,learn,59165.99988937378,Wed Jan 21 2026 16:43:04 GMT-0500 (Eastern Standard Time),105376.19999980927,A,b,I,b,812,3,832.6999998092651,104543.5,9010,WL,A,1.0
1,1.0500001907348633,learn,58949.99980926514,Wed Jan 21 2026 16:43:04 GMT-0500 (Eastern Standard Time),105592.19999980927,A,bo,I,o,202,3,1048.6999998092651,104543.5,9010,WL,A,1.0
1,1.25,learn,58750.0,Wed Jan 21 2026 16:43:04 GMT-0500 (Eastern Standard Time),105792.5,A,boo,I,o,171,3,1249.0,104543.5,9010,WL,A,1.0
1,1.5500001907348633,learn,58449.99980926514,Wed Jan 21 2026 16:43:04 GMT-0500 (Eastern Standard Time),106092.5,A,book,I,k,270,3,1549.0,104543.5,9010,WL,A,1.0
1,1.9830000400543213,learn,58016.99995994568,Wed Jan 21 2026 16:43:04 GMT-0500 (Eastern Standard Time),106525.5,A,bookenter,I,enter,409,3,1982.0,104543.5,9010,WL,A,1.0
1,2.5500001907348633,learn,57449.99980926514,Wed Jan 21 2026 16:43:04 GMT-0500 (Eastern Standard Time),107092.5,A,f,I,f,544,3,566.3999996185303,106526.10000038147,9010,WL,A,2.0
1,2.767000198364258,learn,57232.99980163574,Wed Jan 21 2026 16:43:04 GMT-0500 (Eastern Standard Time),107309.19999980927,A,fl,I,l,199,3,783.0999994277954,106526.10000038147,9010,WL,A,2.0
1,2.9830000400543213,learn,57016.99995994568,Wed Jan 21 2026 16:43:04 GMT-0500 (Eastern Standard Time),107525.9000005722,A,flo,I,o,178,3,999.8000001907349,106526.10000038147,9010,WL,A,2.0
1,3.1670000553131104,learn,56832.99994468689,Wed Jan 21 2026 16:43:04 GMT-0500 (Eastern Standard Time),107709.19999980927,A,flow,I,w,164,3,1183.0999994277954,106526.10000038147,9010,WL,A,2.0
1,3.2160000801086426,learn,56783.99991989136,Wed Jan 21 2026 16:43:04 GMT-0500 (Eastern Standard Time),107758.80000019073,A,flowe,I,e,30,3,1232.6999998092651,106526.10000038147,9010,WL,A,2.0
1,3.3000001907348633,learn,56699.99980926514,Wed Jan 21 2026 16:43:04 GMT-0500 (Eastern Standard Time),107842.19999980927,A,flower,I,r,61,3,1316.0999994277954,106526.10000038147,9010,WL,A,2.0
1,3.7330000400543213,learn,56266.99995994568,Wed Jan 21 2026 16:43:04 GMT-0500 (Eastern Standard Time),108275.4000005722,A,flowerenter,I,enter,409,3,1749.3000001907349,106526.10000038147,9010,WL,A,2.0
1,4.450000047683716,learn,55549.999952316284,Wed Jan 21 2026 16:43:04 GMT-0500 (Eastern Standard Time),108992.5,A,m,I,m,698,3,716.5999994277954,108275.9000005722,9010,WL,A,3.0
1,4.617000102996826,learn,55382.999897003174,Wed Jan 21 2026 16:43:04 GMT-0500 (Eastern Standard Time),109159.19999980927,A,me,I,e,155,3,883.2999992370605,108275.9000005722,9010,WL,A,3.0
1,5.300000190734863,learn,54699.99980926514,Wed Jan 21 2026 16:43:04 GMT-0500 (Eastern Standard Time),109842.60000038147,A,med,I,d,660,3,1566.6999998092651,108275.9000005722,9010,WL,A,3.0
1,5.583000183105469,learn,54416.99981689453,Wed Jan 21 2026 16:43:04 GMT-0500 (Eastern Standard Time),110125.80000019073,A,medo,I,o,255,3,1849.8999996185303,108275.9000005722,9010,WL,A,3.0
1,5.7840001583099365,learn,54215.99984169006,Wed Jan 21 2026 16:43:04 GMT-0500 (Eastern Standard Time),110326.19999980927,A,medow,I,w,189,3,2050.2999992370605,108275.9000005722,9010,WL,A,3.0
1,6.351000070571899,learn,53648.9999294281,Wed Jan 21 2026 16:43:04 GMT-0500 (Eastern Standard Time),110893.10000038147,A,medowenter,I,enter,539,3,2617.199999809265,108275.9000005722,9010,WL,A,3.0
1,8.600000143051147,learn,51399.99985694885,Wed Jan 21 2026 16:43:04 GMT-0500 (Eastern Standard Time),113142.19999980927,A,c,I,c,2241,3,2248.699999809265,110893.5,9010,WL,A,4.0
1,8.867000102996826,learn,51132.999897003174,Wed Jan 21 2026 16:43:04 GMT-0500 (Eastern Standard Time),113409.30000019073,A,ch,I,h,245,3,2515.800000190735,110893.5,9010,WL,A,4.0
1,9.100000143051147,learn,50899.99985694885,Wed Jan 21 2026 16:43:04 GMT-0500 (Eastern Standard Time),113642.5,A,chi,I,i,217,3,2749.0,110893.5,9010,WL,A,4.0
1,9.733000040054321,learn,50266.99995994568,Wed Jan 21 2026 16:43:04 GMT-0500 (Eastern Standard Time),114275.80000019073,A,chin,I,n,608,3,3382.300000190735,110893.5,9010,WL,A,4.0
1,11.100000143051147,learn,48899.99985694885,Wed Jan 21 2026 16:43:04 GMT-0500 (Eastern Standard Time),115642.5,A,chi,I,backspace,1353,3,4749.0,110893.5,9010,WL,A,4.0
1,11.400000095367432,learn,48599.99990463257,Wed Jan 21 2026 16:43:04 GMT-0500 (Eastern Standard Time),115942.19999980927,A,chim,I,m,287,3,5048.699999809265,110893.5,9010,WL,A,4.0
1,11.66700005531311,learn,48332.99994468689,Wed Jan 21 2026 16:43:04 GMT-0500 (Eastern Standard Time),116209.10000038147,A,chimn,I,n,246,3,5315.60000038147,110893.5,9010,WL,A,4.0
1,11.800000190734863,learn,48199.99980926514,Wed Jan 21 2026 16:43:04 GMT-0500 (Eastern Standard Time),116342.60000038147,A,chimne,I,e,123,3,5449.10000038147,110893.5,9010,WL,A,4.0
1,12.16700005531311,learn,47832.99994468689,Wed Jan 21 2026 16:43:04 GMT-0500 (Eastern Standard Time),116709.10000038147,A,chimney,I,y,355,3,5815.60000038147,110893.5,9010,WL,A,4.0
1,12.550000190734863,learn,47449.99980926514,Wed Jan 21 2026 16:43:04 GMT-0500 (Eastern Standard Time),117092.0,A,chimneyenter,I,enter,360,3,6198.5,110893.5,9010,WL,A,4.0
1,15.782999992370605,learn,44217.000007629395,Wed Jan 21 2026 16:43:04 GMT-0500 (Eastern Standard Time),120326.0,A,g,I,g,3226,3,3233.3999996185303,117092.60000038147,9010,WL,A,5.0
1,16.017000198364258,learn,43982.99980163574,Wed Jan 21 2026 16:43:04 GMT-0500 (Eastern Standard Time),120559.19999980927,A,go,I,o,212,3,3466.5999994277954,117092.60000038147,9010,WL,A,5.0
1,16.23300004005432,learn,43766.99995994568,Wed Jan 21 2026 16:43:04 GMT-0500 (Eastern Standard Time),120775.80000019073,A,gol,I,l,203,3,3683.199999809265,117092.60000038147,9010,WL,A,5.0
1,16.450000047683716,learn,43549.999952316284,Wed Jan 21 2026 16:43:04 GMT-0500 (Eastern Standard Time),120992.5,A,gold,I,d,186,3,3899.8999996185303,117092.60000038147,9010,WL,A,5.0
1,16.683000087738037,learn,43316.99991226196,Wed Jan 21 2026 16:43:04 GMT-0500 (Eastern Standard Time),121225.30000019073,A,goldenter,I,enter,218,3,4132.699999809265,117092.60000038147,9010,WL,A,5.0
1,21.617000102996826,learn,38382.999897003174,Wed Jan 21 2026 16:43:04 GMT-0500 (Eastern Standard Time),126159.19999980927,A,c,I,c,4917,3,4933.5,121225.69999980927,9010,WL,A,6.0
1,21.83300018310547,learn,38166.99981689453,Wed Jan 21 2026 16:43:04 GMT-0500 (Eastern Standard Time),126375.69999980927,A,ch,I,h,201,3,5150.0,121225.69999980927,9010,WL,A,6.0
1,22.100000143051147,learn,37899.99985694885,Wed Jan 21 2026 16:43:04 GMT-0500 (Eastern Standard Time),126642.60000038147,A,cha,I,a,234,3,5416.900000572205,121225.69999980927,9010,WL,A,6.0
1,22.200000047683716,learn,37799.999952316284,Wed Jan 21 2026 16:43:04 GMT-0500 (Eastern Standard Time),126742.4000005722,A,chai,I,i,87,3,5516.700000762939,121225.69999980927,9010,WL,A,6.0
1,22.450000047683716,learn,37549.999952316284,Wed Jan 21 2026 16:43:04 GMT-0500 (Eastern Standard Time),126992.60000038147,A,chain,I,n,221,3,5766.900000572205,121225.69999980927,9010,WL,A,6.0
1,22.782999992370605,learn,37217.000007629395,Wed Jan 21 2026 16:43:04 GMT-0500 (Eastern Standard Time),127325.4000005722,A,chainenter,I,enter,315,3,6099.700000762939,121225.69999980927,9010,WL,A,6.0
1,25.40000009536743,learn,34599.99990463257,Wed Jan 21 2026 16:43:04 GMT-0500 (Eastern Standard Time),129942.10000038147,A,k,I,k,2609,3,2616.300000190735,127325.80000019073,9010,WL,A,7.0
1,25.58300018310547,learn,34416.99981689453,Wed Jan 21 2026 16:43:04 GMT-0500 (Eastern Standard Time),130125.9000005722,A,ke,I,e,165,3,2800.1000003814697,127325.80000019073,9010,WL,A,7.0
1,25.782999992370605,learn,34217.000007629395,Wed Jan 21 2026 16:43:04 GMT-0500 (Eastern Standard Time),130325.9000005722,A,key,I,y,189,3,3000.1000003814697,127325.80000019073,9010,WL,A,7.0
1,26.16600012779236,learn,33833.99987220764,Wed Jan 21 2026 16:43:04 GMT-0500 (Eastern Standard Time),130708.69999980927,A,keyenter,I,enter,357,3,3382.8999996185303,127325.80000019073,9010,WL,A,7.0
1,27.81599998474121,learn,32184.00001525879,Wed Jan 21 2026 16:43:04 GMT-0500 (Eastern Standard Time),132358.80000019073,A,t,I,t,1641,3,1649.6999998092651,130709.10000038147,9010,WL,A,8.0
1,28.100000143051147,learn,31899.999856948853,Wed Jan 21 2026 16:43:04 GMT-0500 (Eastern Standard Time),132642.5,A,tr,I,r,261,3,1933.3999996185303,130709.10000038147,9010,WL,A,8.0
1,28.300000190734863,learn,31699.999809265137,Wed Jan 21 2026 16:43:04 GMT-0500 (Eastern Standard Time),132842.4000005722,A,tre,I,e,184,3,2133.300000190735,130709.10000038147,9010,WL,A,8.0
1,28.517000198364258,learn,31482.999801635742,Wed Jan 21 2026 16:43:04 GMT-0500 (Eastern Standard Time),133059.10000038147,A,tree,I,e,183,3,2350.0,130709.10000038147,9010,WL,A,8.0
1,28.699000120162964,learn,31300.999879837036,Wed Jan 21 2026 16:43:04 GMT-0500 (Eastern Standard Time),133242.0,A,treeenter,I,enter,159,3,2532.8999996185303,130709.10000038147,9010,WL,A,8.0
1,47.35000014305115,learn,12649.999856948853,Wed Jan 21 2026 16:43:04 GMT-0500 (Eastern Standard Time),151892.5,A,c,I,c,18629,3,18650.099999427795,133242.4000005722,9010,WL,A,9.0
1,47.51700019836426,learn,12482.999801635742,Wed Jan 21 2026 16:43:04 GMT-0500 (Eastern Standard Time),152059.10000038147,A,ch,I,h,150,3,18816.699999809265,133242.4000005722,9010,WL,A,9.0
1,47.700000047683716,learn,12299.999952316284,Wed Jan 21 2026 16:43:04 GMT-0500 (Eastern Standard Time),152242.60000038147,A,cha,I,a,150,3,19000.199999809265,133242.4000005722,9010,WL,A,9.0
1,47.85000014305115,learn,12149.999856948853,Wed Jan 21 2026 16:43:04 GMT-0500 (Eastern Standard Time),152392.5,A,chai,I,i,137,3,19150.099999427795,133242.4000005722,9010,WL,A,9.0
1,48.10000014305115,learn,11899.999856948853,Wed Jan 21 2026 16:43:04 GMT-0500 (Eastern Standard Time),152642.5,A,chain,I,n,226,3,19400.099999427795,133242.4000005722,9010,WL,A,9.0
1,48.46600008010864,learn,11533.999919891357,Wed Jan 21 2026 16:43:04 GMT-0500 (Eastern Standard Time),153008.60000038147,A,chainenter,I,enter,345,3,19766.199999809265,133242.4000005722,9010,WL,A,9.0
1,54.33300018310547,learn,5666.999816894531,Wed Jan 21 2026 16:43:04 GMT-0500 (Eastern Standard Time),158875.80000019073,A,n,I,n,5854,3,5866.800000190735,153009.0,9010,WL,A,10.0
1,54.5,learn,5500.0,Wed Jan 21 2026 16:43:04 GMT-0500 (Eastern Standard Time),159042.5,A,ne,I,e,143,3,6033.5,153009.0,9010,WL,A,10.0
1,54.76700019836426,learn,5232.999801635742,Wed Jan 21 2026 16:43:04 GMT-0500 (Eastern Standard Time),159309.10000038147,A,nec,I,c,238,3,6300.10000038147,153009.0,9010,WL,A,10.0
1,55.23300004005432,learn,4766.999959945679,Wed Jan 21 2026 16:43:04 GMT-0500 (Eastern Standard Time),159775.4000005722,A,neck,I,k,446,3,6766.400000572205,153009.0,9010,WL,A,10.0
1,55.58300018310547,learn,4416.999816894531,Wed Jan 21 2026 16:43:04 GMT-0500 (Eastern Standard Time),160125.30000019073,A,neckenter,I,enter,332,3,7116.300000190735,153009.0,9010,WL,A,10.0
1,60.01700019836426,learn,-17.000198364257812,Wed Jan 21 2026 16:43:04 GMT-0500 (Eastern Standard Time),164559.4000005722,A,None,I,None,4427,3,4433.60000038147,160125.80000019073,9010,WL,A,11.0
2,0.5169999599456787,learn,59483.00004005432,Wed Jan 21 2026 16:43:04 GMT-0500 (Eastern Standard Time),231792.4000005722,A,g,I,g,496,3,516.3000001907349,231276.10000038147,9010,WL,A,1.0
2,1.0,learn,59000.0,Wed Jan 21 2026 16:43:04 GMT-0500 (Eastern Standard Time),232275.60000038147,A,go,I,o,456,3,999.5,231276.10000038147,9010,WL,A,1.0
2,1.2170000076293945,learn,58782.999992370605,Wed Jan 21 2026 16:43:04 GMT-0500 (Eastern Standard Time),232492.5,A,gol,I,l,199,3,1216.3999996185303,231276.10000038147,9010,WL,A,1.0
2,1.5499999523162842,learn,58450.000047683716,Wed Jan 21 2026 16:43:04 GMT-0500 (Eastern Standard Time),232825.69999980927,A,gold,I,d,310,3,1549.5999994277954,231276.10000038147,9010,WL,A,1.0
2,1.7660000324249268,learn,58233.99996757507,Wed Jan 21 2026 16:43:04 GMT-0500 (Eastern Standard Time),233041.9000005722,A,goldenter,I,enter,195,3,1765.8000001907349,231276.10000038147,9010,WL,A,1.0
2,2.2829999923706055,learn,57717.000007629395,Wed Jan 21 2026 16:43:04 GMT-0500 (Eastern Standard Time),233558.60000038147,A,r,I,r,508,3,516.3000001907349,233042.30000019073,9010,WL,A,2.0
2,2.633000135421753,learn,57366.99986457825,Wed Jan 21 2026 16:43:04 GMT-0500 (Eastern Standard Time),233908.9000005722,A,ru,I,u,341,3,866.6000003814697,233042.30000019073,9010,WL,A,2.0
2,3.3329999446868896,learn,56667.00005531311,Wed Jan 21 2026 16:43:04 GMT-0500 (Eastern Standard Time),234608.5,A,rug,I,g,680,3,1566.1999998092651,233042.30000019073,9010,WL,A,2.0
2,3.8329999446868896,learn,56167.00005531311,Wed Jan 21 2026 16:43:04 GMT-0500 (Eastern Standard Time),235108.60000038147,A,rugenter,I,enter,476,3,2066.300000190735,233042.30000019073,9010,WL,A,2.0
2,4.450000047683716,learn,55549.999952316284,Wed Jan 21 2026 16:43:04 GMT-0500 (Eastern Standard Time),235725.9000005722,A,l,I,l,602,3,617.1000003814697,235108.80000019073,9010,WL,A,3.0
2,4.683000087738037,learn,55316.99991226196,Wed Jan 21 2026 16:43:04 GMT-0500 (Eastern Standard Time),235958.69999980927,A,lo,I,o,222,3,849.8999996185303,235108.80000019073,9010,WL,A,3.0
2,4.933000087738037,learn,55066.99991226196,Wed Jan 21 2026 16:43:04 GMT-0500 (Eastern Standard Time),236209.0,A,log,I,g,228,3,1100.1999998092651,235108.80000019073,9010,WL,A,3.0
2,5.266000032424927,learn,54733.99996757507,Wed Jan 21 2026 16:43:04 GMT-0500 (Eastern Standard Time),236541.9000005722,A,logenter,I,enter,314,3,1433.1000003814697,235108.80000019073,9010,WL,A,3.0
2,5.8500001430511475,learn,54149.99985694885,Wed Jan 21 2026 16:43:04 GMT-0500 (Eastern Standard Time),237125.60000038147,A,k,I,k,560,3,583.4000005722046,236542.19999980927,9010,WL,A,4.0
2,6.0,learn,54000.0,Wed Jan 21 2026 16:43:04 GMT-0500 (Eastern Standard Time),237275.80000019073,A,ke,I,e,134,3,733.6000003814697,236542.19999980927,9010,WL,A,4.0
2,6.266000032424927,learn,53733.99996757507,Wed Jan 21 2026 16:43:04 GMT-0500 (Eastern Standard Time),237542.0,A,key,I,y,246,3,999.8000001907349,236542.19999980927,9010,WL,A,4.0
2,6.633000135421753,learn,53366.99986457825,Wed Jan 21 2026 16:43:04 GMT-0500 (Eastern Standard Time),237908.5,A,keyenter,I,enter,340,3,1366.3000001907349,236542.19999980927,9010,WL,A,4.0
2,7.7170000076293945,learn,52282.999992370605,Wed Jan 21 2026 16:43:04 GMT-0500 (Eastern Standard Time),238992.30000019073,A,t,I,t,1066,3,1083.5,237908.80000019073,9010,WL,A,5.0
2,7.91700005531311,learn,52082.99994468689,Wed Jan 21 2026 16:43:04 GMT-0500 (Eastern Standard Time),239192.30000019073,A,tr,I,r,187,3,1283.5,237908.80000019073,9010,WL,A,5.0
2,8.049999952316284,learn,51950.000047683716,Wed Jan 21 2026 16:43:04 GMT-0500 (Eastern Standard Time),239325.69999980927,A,tra,I,a,114,3,1416.8999996185303,237908.80000019073,9010,WL,A,5.0
2,8.299000024795532,learn,51700.99997520447,Wed Jan 21 2026 16:43:04 GMT-0500 (Eastern Standard Time),239574.9000005722,A,trai,I,i,238,3,1666.1000003814697,237908.80000019073,9010,WL,A,5.0
2,8.532999992370605,learn,51467.000007629395,Wed Jan 21 2026 16:43:04 GMT-0500 (Eastern Standard Time),239809.10000038147,A,train,I,n,216,3,1900.3000001907349,237908.80000019073,9010,WL,A,5.0
2,8.850000143051147,learn,51149.99985694885,Wed Jan 21 2026 16:43:04 GMT-0500 (Eastern Standard Time),240125.19999980927,A,trainenter,I,enter,298,3,2216.3999996185303,237908.80000019073,9010,WL,A,5.0
2,10.400000095367432,learn,49599.99990463257,Wed Jan 21 2026 16:43:04 GMT-0500 (Eastern Standard Time),241675.69999980927,A,a,I,a,1539,3,1550.1999998092651,240125.5,9010,WL,A,6.0
2,10.617000102996826,learn,49382.999897003174,Wed Jan 21 2026 16:43:04 GMT-0500 (Eastern Standard Time),241892.4000005722,A,ap,I,p,192,3,1766.9000005722046,240125.5,9010,WL,A,6.0
2,10.799999952316284,learn,49200.000047683716,Wed Jan 21 2026 16:43:04 GMT-0500 (Eastern Standard Time),242075.69999980927,A,app,I,p,167,3,1950.1999998092651,240125.5,9010,WL,A,6.0
2,11.016999959945679,learn,48983.00004005432,Wed Jan 21 2026 16:43:04 GMT-0500 (Eastern Standard Time),242292.5,A,appl,I,l,192,3,2167.0,240125.5,9010,WL,A,6.0
2,11.217000007629395,learn,48782.999992370605,Wed Jan 21 2026 16:43:04 GMT-0500 (Eastern Standard Time),242492.4000005722,A,apple,I,e,173,3,2366.9000005722046,240125.5,9010,WL,A,6.0
2,11.58299994468689,learn,48417.00005531311,Wed Jan 21 2026 16:43:04 GMT-0500 (Eastern Standard Time),242858.60000038147,A,appleenter,I,enter,351,3,2733.1000003814697,240125.5,9010,WL,A,6.0
2,12.016999959945679,learn,47983.00004005432,Wed Jan 21 2026 16:43:04 GMT-0500 (Eastern Standard Time),243292.5,A,f,I,f,420,3,433.5999994277954,242858.9000005722,9010,WL,A,7.0
2,12.266999959945679,learn,47733.00004005432,Wed Jan 21 2026 16:43:04 GMT-0500 (Eastern Standard Time),243542.30000019073,A,fi,I,i,224,3,683.3999996185303,242858.9000005722,9010,WL,A,7.0
2,12.467000007629395,learn,47532.999992370605,Wed Jan 21 2026 16:43:04 GMT-0500 (Eastern Standard Time),243742.19999980927,A,fin,I,n,180,3,883.2999992370605,242858.9000005722,9010,WL,A,7.0
2,12.900000095367432,learn,47099.99990463257,Wed Jan 21 2026 16:43:04 GMT-0500 (Eastern Standard Time),244175.69999980927,A,fing,I,g,412,3,1316.7999992370605,242858.9000005722,9010,WL,A,7.0
2,13.117000102996826,learn,46882.999897003174,Wed Jan 21 2026 16:43:04 GMT-0500 (Eastern Standard Time),244392.19999980927,A,finge,I,e,202,3,1533.2999992370605,242858.9000005722,9010,WL,A,7.0
2,13.217000007629395,learn,46782.999992370605,Wed Jan 21 2026 16:43:04 GMT-0500 (Eastern Standard Time),244492.4000005722,A,finger,I,r,83,3,1633.5,242858.9000005722,9010,WL,A,7.0
2,13.5,learn,46500.0,Wed Jan 21 2026 16:43:04 GMT-0500 (Eastern Standard Time),244775.10000038147,A,fingerenter,I,enter,270,3,1916.1999998092651,242858.9000005722,9010,WL,A,7.0
2,14.016999959945679,learn,45983.00004005432,Wed Jan 21 2026 16:43:04 GMT-0500 (Eastern Standard Time),245292.4000005722,A,b,I,b,503,3,516.9000005722046,244775.5,9010,WL,A,8.0
2,14.282999992370605,learn,45717.000007629395,Wed Jan 21 2026 16:43:04 GMT-0500 (Eastern Standard Time),245558.69999980927,A,bo,I,o,256,3,783.1999998092651,244775.5,9010,WL,A,8.0
2,14.467000007629395,learn,45532.999992370605,Wed Jan 21 2026 16:43:04 GMT-0500 (Eastern Standard Time),245742.5,A,boo,I,o,165,3,967.0,244775.5,9010,WL,A,8.0
2,14.66700005531311,learn,45332.99994468689,Wed Jan 21 2026 16:43:04 GMT-0500 (Eastern Standard Time),245942.10000038147,A,book,I,k,178,3,1166.6000003814697,244775.5,9010,WL,A,8.0
2,15.08299994468689,learn,44917.00005531311,Wed Jan 21 2026 16:43:04 GMT-0500 (Eastern Standard Time),246358.5,A,bookenter,I,enter,405,3,1583.0,244775.5,9010,WL,A,8.0
2,15.450000047683716,learn,44549.999952316284,Wed Jan 21 2026 16:43:04 GMT-0500 (Eastern Standard Time),246725.19999980927,A,a,I,a,344,3,366.29999923706055,246358.9000005722,9010,WL,A,9.0
2,16.633000135421753,learn,43366.99986457825,Wed Jan 21 2026 16:43:04 GMT-0500 (Eastern Standard Time),247909.0,A,ap,I,p,1161,3,1550.0999994277954,246358.9000005722,9010,WL,A,9.0
2,16.799999952316284,learn,43200.000047683716,Wed Jan 21 2026 16:43:04 GMT-0500 (Eastern Standard Time),248075.60000038147,A,app,I,p,151,3,1716.6999998092651,246358.9000005722,9010,WL,A,9.0
2,17.032999992370605,learn,42967.000007629395,Wed Jan 21 2026 16:43:04 GMT-0500 (Eastern Standard Time),248309.0,A,appl,I,l,200,3,1950.0999994277954,246358.9000005722,9010,WL,A,9.0
2,17.183000087738037,learn,42816.99991226196,Wed Jan 21 2026 16:43:04 GMT-0500 (Eastern Standard Time),248459.0,A,apple,I,e,134,3,2100.0999994277954,246358.9000005722,9010,WL,A,9.0
2,17.516000032424927,learn,42483.99996757507,Wed Jan 21 2026 16:43:04 GMT-0500 (Eastern Standard Time),248791.9000005722,A,appleenter,I,enter,320,3,2433.0,246358.9000005722,9010,WL,A,9.0
2,18.33299994468689,learn,41667.00005531311,Wed Jan 21 2026 16:43:04 GMT-0500 (Eastern Standard Time),249609.0,A,m,I,m,807,3,816.6999998092651,248792.30000019073,9010,WL,A,10.0
2,18.483999967575073,learn,41516.00003242493,Wed Jan 21 2026 16:43:04 GMT-0500 (Eastern Standard Time),249759.19999980927,A,me,I,e,131,3,966.8999996185303,248792.30000019073,9010,WL,A,10.0
2,19.23300004005432,learn,40766.99995994568,Wed Jan 21 2026 16:43:04 GMT-0500 (Eastern Standard Time),250509.0,A,mea,I,a,722,3,1716.6999998092651,248792.30000019073,9010,WL,A,10.0
2,19.450000047683716,learn,40549.999952316284,Wed Jan 21 2026 16:43:04 GMT-0500 (Eastern Standard Time),250725.60000038147,A,mead,I,d,190,3,1933.3000001907349,248792.30000019073,9010,WL,A,10.0
2,19.633000135421753,learn,40366.99986457825,Wed Jan 21 2026 16:43:04 GMT-0500 (Eastern Standard Time),250909.0,A,meado,I,o,166,3,2116.699999809265,248792.30000019073,9010,WL,A,10.0
2,19.83299994468689,learn,40167.00005531311,Wed Jan 21 2026 16:43:04 GMT-0500 (Eastern Standard Time),251108.9000005722,A,meadow,I,w,166,3,2316.6000003814697,248792.30000019073,9010,WL,A,10.0
2,20.06599998474121,learn,39934.00001525879,Wed Jan 21 2026 16:43:04 GMT-0500 (Eastern Standard Time),251341.9000005722,A,meadowenter,I,enter,206,3,2549.6000003814697,248792.30000019073,9010,WL,A,10.0
2,33.93300008773804,learn,26066.999912261963,Wed Jan 21 2026 16:43:04 GMT-0500 (Eastern Standard Time),265208.69999980927,A,f,I,f,13857,3,13866.5,251342.19999980927,9010,WL,A,11.0
2,34.16700005531311,learn,25832.99994468689,Wed Jan 21 2026 16:43:04 GMT-0500 (Eastern Standard Time),265442.30000019073,A,fi,I,i,210,3,14100.10000038147,251342.19999980927,9010,WL,A,11.0
2,34.40000009536743,learn,25599.99990463257,Wed Jan 21 2026 16:43:04 GMT-0500 (Eastern Standard Time),265675.69999980927,A,fin,I,n,217,3,14333.5,251342.19999980927,9010,WL,A,11.0
2,34.65000009536743,learn,25349.99990463257,Wed Jan 21 2026 16:43:04 GMT-0500 (Eastern Standard Time),265925.69999980927,A,fing,I,g,223,3,14583.5,251342.19999980927,9010,WL,A,11.0
2,34.867000102996826,learn,25132.999897003174,Wed Jan 21 2026 16:43:04 GMT-0500 (Eastern Standard Time),266142.4000005722,A,finge,I,e,198,3,14800.20000076294,251342.19999980927,9010,WL,A,11.0
2,34.967000007629395,learn,25032.999992370605,Wed Jan 21 2026 16:43:04 GMT-0500 (Eastern Standard Time),266242.5,A,finger,I,r,77,3,14900.300000190735,251342.19999980927,9010,WL,A,11.0
2,35.26600003242493,learn,24733.999967575073,Wed Jan 21 2026 16:43:04 GMT-0500 (Eastern Standard Time),266541.80000019073,A,fingerenter,I,enter,272,3,15199.60000038147,251342.19999980927,9010,WL,A,11.0
2,42.367000102996826,learn,17632.999897003174,Wed Jan 21 2026 16:43:04 GMT-0500 (Eastern Standard Time),273642.30000019073,A,f,I,f,7089,3,7100.10000038147,266542.19999980927,9010,WL,A,12.0
2,42.56700015068054,learn,17432.999849319458,Wed Jan 21 2026 16:43:04 GMT-0500 (Eastern Standard Time),273842.4000005722,A,fl,I,l,174,3,7300.200000762939,266542.19999980927,9010,WL,A,12.0
2,42.782999992370605,learn,17217.000007629395,Wed Jan 21 2026 16:43:04 GMT-0500 (Eastern Standard Time),274058.9000005722,A,flo,I,o,201,3,7516.700000762939,266542.19999980927,9010,WL,A,12.0
2,42.967000007629395,learn,17032.999992370605,Wed Jan 21 2026 16:43:04 GMT-0500 (Eastern Standard Time),274242.30000019073,A,flow,I,w,151,3,7700.10000038147,266542.19999980927,9010,WL,A,12.0
2,43.049999952316284,learn,16950.000047683716,Wed Jan 21 2026 16:43:04 GMT-0500 (Eastern Standard Time),274325.5,A,flowe,I,e,57,3,7783.300000190735,266542.19999980927,9010,WL,A,12.0
2,43.117000102996826,learn,16882.999897003174,Wed Jan 21 2026 16:43:04 GMT-0500 (Eastern Standard Time),274392.10000038147,A,flower,I,r,55,3,7849.900000572205,266542.19999980927,9010,WL,A,12.0
2,43.40000009536743,learn,16599.99990463257,Wed Jan 21 2026 16:43:04 GMT-0500 (Eastern Standard Time),274675.19999980927,A,flowerenter,I,enter,259,3,8133.0,266542.19999980927,9010,WL,A,12.0
2,51.83299994468689,learn,8167.00005531311,Wed Jan 21 2026 16:43:04 GMT-0500 (Eastern Standard Time),283108.9000005722,A,t,I,t,8411,3,8433.400000572205,274675.5,9010,WL,A,13.0
2,52.06700015068054,learn,7932.999849319458,Wed Jan 21 2026 16:43:04 GMT-0500 (Eastern Standard Time),283342.30000019073,A,tr,I,r,212,3,8666.800000190735,274675.5,9010,WL,A,13.0
2,52.18400001525879,learn,7815.999984741211,Wed Jan 21 2026 16:43:04 GMT-0500 (Eastern Standard Time),283459.10000038147,A,tre,I,e,93,3,8783.60000038147,274675.5,9010,WL,A,13.0
2,52.43300008773804,learn,7566.999912261963,Wed Jan 21 2026 16:43:04 GMT-0500 (Eastern Standard Time),283708.9000005722,A,tree,I,e,224,3,9033.400000572205,274675.5,9010,WL,A,13.0
2,52.68400001525879,learn,7315.999984741211,Wed Jan 21 2026 16:43:04 GMT-0500 (Eastern Standard Time),283959.69999980927,A,treeenter,I,enter,238,3,9284.199999809265,274675.5,9010,WL,A,13.0
2,59.75,learn,250.0,Wed Jan 21 2026 16:43:04 GMT-0500 (Eastern Standard Time),291025.69999980927,A,,I,backspace,7047,3,7065.699999809265,283960.0,9010,WL,A,14.0
2,60.01699995994568,learn,-16.99995994567871,Wed Jan 21 2026 16:43:04 GMT-0500 (Eastern Standard Time),291292.4000005722,A,None,I,None,252,3,7332.400000572205,283960.0,9010,WL,A,14.0
3,0.6330001354217529,learn,59366.99986457825,Wed Jan 21 2026 16:43:04 GMT-0500 (Eastern Standard Time),362159.0,A,g,I,g,615,3,632.8999996185303,361526.10000038147,9010,WL,A,1.0
3,0.8159999847412109,learn,59184.00001525879,Wed Jan 21 2026 16:43:04 GMT-0500 (Eastern Standard Time),362342.0,A,go,I,o,170,3,815.8999996185303,361526.10000038147,9010,WL,A,1.0
3,1.0329999923706055,learn,58967.000007629395,Wed Jan 21 2026 16:43:04 GMT-0500 (Eastern Standard Time),362558.9000005722,A,gol,I,l,189,3,1032.8000001907349,361526.10000038147,9010,WL,A,1.0
3,1.2000000476837158,learn,58799.999952316284,Wed Jan 21 2026 16:43:04 GMT-0500 (Eastern Standard Time),362725.60000038147,A,gold,I,d,157,3,1199.5,361526.10000038147,9010,WL,A,1.0
3,1.999000072479248,learn,58000.99992752075,Wed Jan 21 2026 16:43:04 GMT-0500 (Eastern Standard Time),363525.0,A,goldenter,I,enter,791,3,1998.8999996185303,361526.10000038147,9010,WL,A,1.0
3,2.617000102996826,learn,57382.999897003174,Wed Jan 21 2026 16:43:04 GMT-0500 (Eastern Standard Time),364142.19999980927,A,b,I,b,602,3,617.0,363525.19999980927,9010,WL,A,2.0
3,2.9000000953674316,learn,57099.99990463257,Wed Jan 21 2026 16:43:04 GMT-0500 (Eastern Standard Time),364425.5,A,bu,I,u,270,3,900.3000001907349,363525.19999980927,9010,WL,A,2.0
3,3.133000135421753,learn,56866.99986457825,Wed Jan 21 2026 16:43:04 GMT-0500 (Eastern Standard Time),364658.9000005722,A,but,I,t,211,3,1133.7000007629395,363525.19999980927,9010,WL,A,2.0
3,3.2829999923706055,learn,56717.000007629395,Wed Jan 21 2026 16:43:04 GMT-0500 (Eastern Standard Time),364808.80000019073,A,butt,I,t,136,3,1283.6000003814697,363525.19999980927,9010,WL,A,2.0
3,3.5,learn,56500.0,Wed Jan 21 2026 16:43:04 GMT-0500 (Eastern Standard Time),365025.60000038147,A,butto,I,o,194,3,1500.4000005722046,363525.19999980927,9010,WL,A,2.0
3,3.75,learn,56250.0,Wed Jan 21 2026 16:43:04 GMT-0500 (Eastern Standard Time),365275.60000038147,A,button,I,n,235,3,1750.4000005722046,363525.19999980927,9010,WL,A,2.0
3,4.183000087738037,learn,55816.99991226196,Wed Jan 21 2026 16:43:04 GMT-0500 (Eastern Standard Time),365708.30000019073,A,buttonenter,I,enter,414,3,2183.1000003814697,363525.19999980927,9010,WL,A,2.0
3,4.7829999923706055,learn,55217.000007629395,Wed Jan 21 2026 16:43:04 GMT-0500 (Eastern Standard Time),366308.4000005722,A,r,I,r,577,3,599.7000007629395,365708.69999980927,9010,WL,A,3.0
3,5.0,learn,55000.0,Wed Jan 21 2026 16:43:04 GMT-0500 (Eastern Standard Time),366525.60000038147,A,ra,I,a,201,3,816.9000005722046,365708.69999980927,9010,WL,A,3.0
3,5.200000047683716,learn,54799.999952316284,Wed Jan 21 2026 16:43:04 GMT-0500 (Eastern Standard Time),366725.60000038147,A,rat,I,t,190,3,1016.9000005722046,365708.69999980927,9010,WL,A,3.0
3,5.383000135421753,learn,54616.99986457825,Wed Jan 21 2026 16:43:04 GMT-0500 (Eastern Standard Time),366909.0,A,ratt,I,t,165,3,1200.3000001907349,365708.69999980927,9010,WL,A,3.0
3,5.58299994468689,learn,54417.00005531311,Wed Jan 21 2026 16:43:04 GMT-0500 (Eastern Standard Time),367108.9000005722,A,rattl,I,l,174,3,1400.2000007629395,365708.69999980927,9010,WL,A,3.0
3,5.75,learn,54250.0,Wed Jan 21 2026 16:43:04 GMT-0500 (Eastern Standard Time),367275.5,A,rattle,I,e,152,3,1566.8000001907349,365708.69999980927,9010,WL,A,3.0
3,6.183000087738037,learn,53816.99991226196,Wed Jan 21 2026 16:43:04 GMT-0500 (Eastern Standard Time),367708.4000005722,A,rattleenter,I,enter,407,3,1999.7000007629395,365708.69999980927,9010,WL,A,3.0
3,6.950000047683716,learn,53049.999952316284,Wed Jan 21 2026 16:43:04 GMT-0500 (Eastern Standard Time),368475.5,A,l,I,l,754,3,766.5999994277954,367708.9000005722,9010,WL,A,4.0
3,7.150000095367432,learn,52849.99990463257,Wed Jan 21 2026 16:43:04 GMT-0500 (Eastern Standard Time),368675.5,A,lo,I,o,175,3,966.5999994277954,367708.9000005722,9010,WL,A,4.0
3,7.367000102996826,learn,52632.999897003174,Wed Jan 21 2026 16:43:04 GMT-0500 (Eastern Standard Time),368892.19999980927,A,log,I,g,200,3,1183.2999992370605,367708.9000005722,9010,WL,A,4.0
3,7.6000001430511475,learn,52399.99985694885,Wed Jan 21 2026 16:43:04 GMT-0500 (Eastern Standard Time),369125.10000038147,A,logenter,I,enter,223,3,1416.1999998092651,367708.9000005722,9010,WL,A,4.0
3,8.467000007629395,learn,51532.999992370605,Wed Jan 21 2026 16:43:04 GMT-0500 (Eastern Standard Time),369992.19999980927,A,k,I,k,858,3,866.8999996185303,369125.30000019073,9010,WL,A,5.0
3,8.633000135421753,learn,51366.99986457825,Wed Jan 21 2026 16:43:04 GMT-0500 (Eastern Standard Time),370158.80000019073,A,ke,I,e,147,3,1033.5,369125.30000019073,9010,WL,A,5.0
3,8.983000040054321,learn,51016.99995994568,Wed Jan 21 2026 16:43:04 GMT-0500 (Eastern Standard Time),370508.9000005722,A,key,I,y,332,3,1383.6000003814697,369125.30000019073,9010,WL,A,5.0
3,9.466000080108643,learn,50533.99991989136,Wed Jan 21 2026 16:43:04 GMT-0500 (Eastern Standard Time),370991.69999980927,A,keyenter,I,enter,462,3,1866.3999996185303,369125.30000019073,9010,WL,A,5.0
3,9.967000007629395,learn,50032.999992370605,Wed Jan 21 2026 16:43:04 GMT-0500 (Eastern Standard Time),371492.19999980927,A,b,I,b,479,3,500.19999980926514,370992.0,9010,WL,A,6.0
3,10.217000007629395,learn,49782.999992370605,Wed Jan 21 2026 16:43:04 GMT-0500 (Eastern Standard Time),371742.19999980927,A,bo,I,o,231,3,750.1999998092651,370992.0,9010,WL,A,6.0
3,10.383000135421753,learn,49616.99986457825,Wed Jan 21 2026 16:43:04 GMT-0500 (Eastern Standard Time),371908.9000005722,A,boo,I,o,141,3,916.9000005722046,370992.0,9010,WL,A,6.0
3,10.58299994468689,learn,49417.00005531311,Wed Jan 21 2026 16:43:04 GMT-0500 (Eastern Standard Time),372108.9000005722,A,book,I,k,182,3,1116.9000005722046,370992.0,9010,WL,A,6.0
3,10.950000047683716,learn,49049.999952316284,Wed Jan 21 2026 16:43:04 GMT-0500 (Eastern Standard Time),372475.10000038147,A,bookenter,I,enter,341,3,1483.1000003814697,370992.0,9010,WL,A,6.0
3,11.41700005531311,learn,48582.99994468689,Wed Jan 21 2026 16:43:04 GMT-0500 (Eastern Standard Time),372942.19999980927,A,f,I,f,451,3,466.69999980926514,372475.5,9010,WL,A,7.0
3,11.58299994468689,learn,48417.00005531311,Wed Jan 21 2026 16:43:04 GMT-0500 (Eastern Standard Time),373108.80000019073,A,fl,I,l,142,3,633.3000001907349,372475.5,9010,WL,A,7.0
3,11.766999959945679,learn,48233.00004005432,Wed Jan 21 2026 16:43:04 GMT-0500 (Eastern Standard Time),373292.30000019073,A,flo,I,o,166,3,816.8000001907349,372475.5,9010,WL,A,7.0
3,11.91700005531311,learn,48082.99994468689,Wed Jan 21 2026 16:43:04 GMT-0500 (Eastern Standard Time),373442.30000019073,A,flow,I,w,122,3,966.8000001907349,372475.5,9010,WL,A,7.0
3,11.983000040054321,learn,48016.99995994568,Wed Jan 21 2026 16:43:04 GMT-0500 (Eastern Standard Time),373508.60000038147,A,flowe,I,e,40,3,1033.1000003814697,372475.5,9010,WL,A,7.0
3,12.032999992370605,learn,47967.000007629395,Wed Jan 21 2026 16:43:04 GMT-0500 (Eastern Standard Time),373558.30000019073,A,flower,I,r,38,3,1082.8000001907349,372475.5,9010,WL,A,7.0
3,12.565999984741211,learn,47434.00001525879,Wed Jan 21 2026 16:43:04 GMT-0500 (Eastern Standard Time),374091.80000019073,A,flowerenter,I,enter,520,3,1616.3000001907349,372475.5,9010,WL,A,7.0
3,13.367000102996826,learn,46632.999897003174,Wed Jan 21 2026 16:43:04 GMT-0500 (Eastern Standard Time),374892.19999980927,A,m,I,m,787,3,800.0,374092.19999980927,9010,WL,A,8.0
3,13.5,learn,46500.0,Wed Jan 21 2026 16:43:04 GMT-0500 (Eastern Standard Time),375025.60000038147,A,me,I,e,111,3,933.4000005722046,374092.19999980927,9010,WL,A,8.0
3,13.650000095367432,learn,46349.99990463257,Wed Jan 21 2026 16:43:04 GMT-0500 (Eastern Standard Time),375175.4000005722,A,mea,I,a,128,3,1083.2000007629395,374092.19999980927,9010,WL,A,8.0
3,13.983000040054321,learn,46016.99995994568,Wed Jan 21 2026 16:43:04 GMT-0500 (Eastern Standard Time),375508.9000005722,A,mead,I,d,309,3,1416.7000007629395,374092.19999980927,9010,WL,A,8.0
3,14.16700005531311,learn,45832.99994468689,Wed Jan 21 2026 16:43:04 GMT-0500 (Eastern Standard Time),375692.19999980927,A,meado,I,o,167,3,1600.0,374092.19999980927,9010,WL,A,8.0
3,14.383000135421753,learn,45616.99986457825,Wed Jan 21 2026 16:43:04 GMT-0500 (Eastern Standard Time),375908.9000005722,A,meadow,I,w,190,3,1816.7000007629395,374092.19999980927,9010,WL,A,8.0
3,14.75,learn,45250.0,Wed Jan 21 2026 16:43:04 GMT-0500 (Eastern Standard Time),376275.10000038147,A,meadowenter,I,enter,335,3,2182.9000005722046,374092.19999980927,9010,WL,A,8.0
3,17.933000087738037,learn,42066.99991226196,Wed Jan 21 2026 16:43:04 GMT-0500 (Eastern Standard Time),379459.0,A,c,I,c,3164,3,3183.5,376275.5,9010,WL,A,9.0
3,18.117000102996826,learn,41882.999897003174,Wed Jan 21 2026 16:43:04 GMT-0500 (Eastern Standard Time),379642.19999980927,A,ch,I,h,168,3,3366.699999809265,376275.5,9010,WL,A,9.0
3,18.367000102996826,learn,41632.999897003174,Wed Jan 21 2026 16:43:04 GMT-0500 (Eastern Standard Time),379892.10000038147,A,chi,I,i,225,3,3616.6000003814697,376275.5,9010,WL,A,9.0
3,18.65000009536743,learn,41349.99990463257,Wed Jan 21 2026 16:43:04 GMT-0500 (Eastern Standard Time),380175.5,A,chim,I,m,262,3,3900.0,376275.5,9010,WL,A,9.0
3,19.0,learn,41000.0,Wed Jan 21 2026 16:43:04 GMT-0500 (Eastern Standard Time),380525.60000038147,A,chimn,I,n,332,3,4250.10000038147,376275.5,9010,WL,A,9.0
3,19.16700005531311,learn,40832.99994468689,Wed Jan 21 2026 16:43:04 GMT-0500 (Eastern Standard Time),380692.30000019073,A,chimne,I,e,140,3,4416.800000190735,376275.5,9010,WL,A,9.0
3,19.40000009536743,learn,40599.99990463257,Wed Jan 21 2026 16:43:04 GMT-0500 (Eastern Standard Time),380925.5,A,chimney,I,y,206,3,4650.0,376275.5,9010,WL,A,9.0
3,19.73300004005432,learn,40266.99995994568,Wed Jan 21 2026 16:43:04 GMT-0500 (Eastern Standard Time),381258.30000019073,A,chimneyenter,I,enter,318,3,4982.800000190735,376275.5,9010,WL,A,9.0
3,20.33299994468689,learn,39667.00005531311,Wed Jan 21 2026 16:43:04 GMT-0500 (Eastern Standard Time),381858.80000019073,A,a,I,a,580,3,600.1000003814697,381258.69999980927,9010,WL,A,10.0
3,20.48300004005432,learn,39516.99995994568,Wed Jan 21 2026 16:43:04 GMT-0500 (Eastern Standard Time),382008.80000019073,A,ap,I,p,128,3,750.1000003814697,381258.69999980927,9010,WL,A,10.0
3,20.683000087738037,learn,39316.99991226196,Wed Jan 21 2026 16:43:04 GMT-0500 (Eastern Standard Time),382208.9000005722,A,app,I,p,169,3,950.2000007629395,381258.69999980927,9010,WL,A,10.0
3,20.883000135421753,learn,39116.99986457825,Wed Jan 21 2026 16:43:04 GMT-0500 (Eastern Standard Time),382408.80000019073,A,appl,I,l,185,3,1150.1000003814697,381258.69999980927,9010,WL,A,10.0
3,21.08299994468689,learn,38917.00005531311,Wed Jan 21 2026 16:43:04 GMT-0500 (Eastern Standard Time),382608.9000005722,A,apple,I,e,180,3,1350.2000007629395,381258.69999980927,9010,WL,A,10.0
3,21.383000135421753,learn,38616.99986457825,Wed Jan 21 2026 16:43:04 GMT-0500 (Eastern Standard Time),382908.30000019073,A,appleenter,I,enter,282,3,1649.6000003814697,381258.69999980927,9010,WL,A,10.0
3,31.23300004005432,learn,28766.99995994568,Wed Jan 21 2026 16:43:04 GMT-0500 (Eastern Standard Time),392758.60000038147,A,r,I,r,9843,3,9849.900000572205,382908.69999980927,9010,WL,A,11.0
3,31.51699995994568,learn,28483.00004005432,Wed Jan 21 2026 16:43:04 GMT-0500 (Eastern Standard Time),393042.10000038147,A,ru,I,u,261,3,10133.400000572205,382908.69999980927,9010,WL,A,11.0
3,31.717000007629395,learn,28282.999992370605,Wed Jan 21 2026 16:43:04 GMT-0500 (Eastern Standard Time),393242.30000019073,A,rug,I,g,185,3,10333.60000038147,382908.69999980927,9010,WL,A,11.0
3,32.115999937057495,learn,27884.000062942505,Wed Jan 21 2026 16:43:04 GMT-0500 (Eastern Standard Time),393641.80000019073,A,rugenter,I,enter,383,3,10733.10000038147,382908.69999980927,9010,WL,A,11.0
3,37.16700005531311,learn,22832.99994468689,Wed Jan 21 2026 16:43:04 GMT-0500 (Eastern Standard Time),398692.10000038147,A,h,I,h,5029,3,5050.0,393642.10000038147,9010,WL,A,12.0
3,37.299999952316284,learn,22700.000047683716,Wed Jan 21 2026 16:43:04 GMT-0500 (Eastern Standard Time),398825.5,A,ha,I,a,119,3,5183.39999961853,393642.10000038147,9010,WL,A,12.0
3,37.43300008773804,learn,22566.999912261963,Wed Jan 21 2026 16:43:04 GMT-0500 (Eastern Standard Time),398958.80000019073,A,har,I,r,107,3,5316.699999809265,393642.10000038147,9010,WL,A,12.0
3,37.90000009536743,learn,22099.99990463257,Wed Jan 21 2026 16:43:04 GMT-0500 (Eastern Standard Time),399425.60000038147,A,harp,I,p,439,3,5783.5,393642.10000038147,9010,WL,A,12.0
3,38.23300004005432,learn,21766.99995994568,Wed Jan 21 2026 16:43:04 GMT-0500 (Eastern Standard Time),399758.4000005722,A,harpenter,I,enter,314,3,6116.300000190735,393642.10000038147,9010,WL,A,12.0
3,44.90000009536743,learn,15099.999904632568,Wed Jan 21 2026 16:43:04 GMT-0500 (Eastern Standard Time),406425.4000005722,A,t,I,t,6657,3,6666.60000038147,399758.80000019073,9010,WL,A,13.0
3,45.10000014305115,learn,14899.999856948853,Wed Jan 21 2026 16:43:04 GMT-0500 (Eastern Standard Time),406625.5,A,tr,I,r,176,3,6866.699999809265,399758.80000019073,9010,WL,A,13.0
3,45.23300004005432,learn,14766.999959945679,Wed Jan 21 2026 16:43:04 GMT-0500 (Eastern Standard Time),406758.60000038147,A,tra,I,a,123,3,6999.800000190735,399758.80000019073,9010,WL,A,13.0
3,45.467000007629395,learn,14532.999992370605,Wed Jan 21 2026 16:43:04 GMT-0500 (Eastern Standard Time),406992.10000038147,A,trai,I,i,205,3,7233.300000190735,399758.80000019073,9010,WL,A,13.0
3,45.68300008773804,learn,14316.999912261963,Wed Jan 21 2026 16:43:04 GMT-0500 (Eastern Standard Time),407208.80000019073,A,train,I,n,197,3,7450.0,399758.80000019073,9010,WL,A,13.0
3,46.04900002479553,learn,13950.999975204468,Wed Jan 21 2026 16:43:04 GMT-0500 (Eastern Standard Time),407575.0,A,trainenter,I,enter,354,3,7816.199999809265,399758.80000019073,9010,WL,A,13.0
3,53.73300004005432,learn,6266.999959945679,Wed Jan 21 2026 16:43:04 GMT-0500 (Eastern Standard Time),415258.9000005722,A,c,I,c,7672,3,7683.60000038147,407575.30000019073,9010,WL,A,14.0
3,53.90000009536743,learn,6099.999904632568,Wed Jan 21 2026 16:43:04 GMT-0500 (Eastern Standard Time),415425.5,A,ch,I,h,141,3,7850.199999809265,407575.30000019073,9010,WL,A,14.0
3,54.13300013542175,learn,5866.999864578247,Wed Jan 21 2026 16:43:04 GMT-0500 (Eastern Standard Time),415658.80000019073,A,chi,I,i,218,3,8083.5,407575.30000019073,9010,WL,A,14.0
3,54.41700005531311,learn,5582.99994468689,Wed Jan 21 2026 16:43:04 GMT-0500 (Eastern Standard Time),415942.10000038147,A,chim,I,m,272,3,8366.800000190735,407575.30000019073,9010,WL,A,14.0
3,54.73300004005432,learn,5266.999959945679,Wed Jan 21 2026 16:43:04 GMT-0500 (Eastern Standard Time),416258.80000019073,A,chimn,I,n,294,3,8683.5,407575.30000019073,9010,WL,A,14.0
3,54.91700005531311,learn,5082.99994468689,Wed Jan 21 2026 16:43:04 GMT-0500 (Eastern Standard Time),416442.10000038147,A,chimne,I,e,168,3,8866.800000190735,407575.30000019073,9010,WL,A,14.0
3,55.117000102996826,learn,4882.999897003174,Wed Jan 21 2026 16:43:04 GMT-0500 (Eastern Standard Time),416642.10000038147,A,chimney,I,y,175,3,9066.800000190735,407575.30000019073,9010,WL,A,14.0
3,55.43300008773804,learn,4566.999912261963,Wed Jan 21 2026 16:43:04 GMT-0500 (Eastern Standard Time),416958.30000019073,A,chimneyenter,I,enter,290,3,9383.0,407575.30000019073,9010,WL,A,14.0
3,60.01699995994568,learn,-16.99995994567871,Wed Jan 21 2026 16:43:04 GMT-0500 (Eastern Standard Time),421542.30000019073,A,None,I,None,4577,3,4583.699999809265,416958.60000038147,9010,WL,A,15.0
4,0.6840000152587891,learn,59315.99998474121,Wed Jan 21 2026 16:43:04 GMT-0500 (Eastern Standard Time),488042.19999980927,A,h,I,h,670,3,683.0,487359.19999980927,9010,WL,A,1.0
4,0.817000150680542,learn,59182.99984931946,Wed Jan 21 2026 16:43:04 GMT-0500 (Eastern Standard Time),488175.4000005722,A,ha,I,a,114,3,816.2000007629395,487359.19999980927,9010,WL,A,1.0
4,0.9830000400543213,learn,59016.99995994568,Wed Jan 21 2026 16:43:04 GMT-0500 (Eastern Standard Time),488341.9000005722,A,har,I,r,148,3,982.7000007629395,487359.19999980927,9010,WL,A,1.0
4,1.3000001907348633,learn,58699.99980926514,Wed Jan 21 2026 16:43:04 GMT-0500 (Eastern Standard Time),488658.69999980927,A,harp,I,p,286,3,1299.5,487359.19999980927,9010,WL,A,1.0
4,1.5830001831054688,learn,58416.99981689453,Wed Jan 21 2026 16:43:04 GMT-0500 (Eastern Standard Time),488941.60000038147,A,harpenter,I,enter,261,3,1582.4000005722046,487359.19999980927,9010,WL,A,1.0
4,1.9670000076293945,learn,58032.999992370605,Wed Jan 21 2026 16:43:04 GMT-0500 (Eastern Standard Time),489325.4000005722,A,s,I,s,369,3,383.5,488941.9000005722,9010,WL,A,2.0
4,2.4670000076293945,learn,57532.999992370605,Wed Jan 21 2026 16:43:04 GMT-0500 (Eastern Standard Time),489825.5,A,sa,I,a,479,3,883.5999994277954,488941.9000005722,9010,WL,A,2.0
4,3.0830001831054688,learn,56916.99981689453,Wed Jan 21 2026 16:43:04 GMT-0500 (Eastern Standard Time),490441.80000019073,A,sal,I,l,603,3,1499.8999996185303,488941.9000005722,9010,WL,A,2.0
4,3.367000102996826,learn,56632.999897003174,Wed Jan 21 2026 16:43:04 GMT-0500 (Eastern Standard Time),490725.4000005722,A,salt,I,t,257,3,1783.5,488941.9000005722,9010,WL,A,2.0
4,3.683000087738037,learn,56316.99991226196,Wed Jan 21 2026 16:43:04 GMT-0500 (Eastern Standard Time),491041.60000038147,A,saltenter,I,enter,293,3,2099.699999809265,488941.9000005722,9010,WL,A,2.0
4,4.233000040054321,learn,55766.99995994568,Wed Jan 21 2026 16:43:04 GMT-0500 (Eastern Standard Time),491592.0,A,b,I,b,541,3,550.1999998092651,491041.80000019073,9010,WL,A,3.0
4,4.4670000076293945,learn,55532.999992370605,Wed Jan 21 2026 16:43:04 GMT-0500 (Eastern Standard Time),491825.5,A,bo,I,o,211,3,783.6999998092651,491041.80000019073,9010,WL,A,3.0
4,4.633000135421753,learn,55366.99986457825,Wed Jan 21 2026 16:43:04 GMT-0500 (Eastern Standard Time),491992.0,A,boo,I,o,154,3,950.1999998092651,491041.80000019073,9010,WL,A,3.0
4,4.8500001430511475,learn,55149.99985694885,Wed Jan 21 2026 16:43:04 GMT-0500 (Eastern Standard Time),492208.80000019073,A,book,I,k,195,3,1167.0,491041.80000019073,9010,WL,A,3.0
4,5.166000127792358,learn,54833.99987220764,Wed Jan 21 2026 16:43:04 GMT-0500 (Eastern Standard Time),492524.9000005722,A,bookenter,I,enter,297,3,1483.1000003814697,491041.80000019073,9010,WL,A,3.0
4,5.75,learn,54250.0,Wed Jan 21 2026 16:43:04 GMT-0500 (Eastern Standard Time),493108.69999980927,A,f,I,f,561,3,583.5,492525.19999980927,9010,WL,A,4.0
4,5.91700005531311,learn,54082.99994468689,Wed Jan 21 2026 16:43:04 GMT-0500 (Eastern Standard Time),493275.4000005722,A,fl,I,l,150,3,750.2000007629395,492525.19999980927,9010,WL,A,4.0
4,6.133000135421753,learn,53866.99986457825,Wed Jan 21 2026 16:43:04 GMT-0500 (Eastern Standard Time),493492.10000038147,A,flo,I,o,192,3,966.9000005722046,492525.19999980927,9010,WL,A,4.0
4,6.2170000076293945,learn,53782.999992370605,Wed Jan 21 2026 16:43:04 GMT-0500 (Eastern Standard Time),493575.30000019073,A,flow,I,w,71,3,1050.1000003814697,492525.19999980927,9010,WL,A,4.0
4,6.2829999923706055,learn,53717.000007629395,Wed Jan 21 2026 16:43:04 GMT-0500 (Eastern Standard Time),493641.4000005722,A,flowe,I,e,43,3,1116.2000007629395,492525.19999980927,9010,WL,A,4.0
4,6.367000102996826,learn,53632.999897003174,Wed Jan 21 2026 16:43:04 GMT-0500 (Eastern Standard Time),493725.4000005722,A,flower,I,r,69,3,1200.2000007629395,492525.19999980927,9010,WL,A,4.0
4,6.666000127792358,learn,53333.99987220764,Wed Jan 21 2026 16:43:04 GMT-0500 (Eastern Standard Time),494024.9000005722,A,flowerenter,I,enter,278,3,1499.7000007629395,492525.19999980927,9010,WL,A,4.0
4,7.16700005531311,learn,52832.99994468689,Wed Jan 21 2026 16:43:04 GMT-0500 (Eastern Standard Time),494525.30000019073,A,t,I,t,486,3,500.1000003814697,494025.19999980927,9010,WL,A,5.0
4,7.367000102996826,learn,52632.999897003174,Wed Jan 21 2026 16:43:04 GMT-0500 (Eastern Standard Time),494725.60000038147,A,tr,I,r,190,3,700.4000005722046,494025.19999980927,9010,WL,A,5.0
4,7.483000040054321,learn,52516.99995994568,Wed Jan 21 2026 16:43:04 GMT-0500 (Eastern Standard Time),494842.0,A,tra,I,a,91,3,816.8000001907349,494025.19999980927,9010,WL,A,5.0
4,7.66700005531311,learn,52332.99994468689,Wed Jan 21 2026 16:43:04 GMT-0500 (Eastern Standard Time),495025.4000005722,A,trai,I,i,153,3,1000.2000007629395,494025.19999980927,9010,WL,A,5.0
4,7.867000102996826,learn,52132.999897003174,Wed Jan 21 2026 16:43:04 GMT-0500 (Eastern Standard Time),495225.4000005722,A,train,I,n,186,3,1200.2000007629395,494025.19999980927,9010,WL,A,5.0
4,8.282999992370605,learn,51717.000007629395,Wed Jan 21 2026 16:43:04 GMT-0500 (Eastern Standard Time),495641.5,A,trainenter,I,enter,393,3,1616.3000001907349,494025.19999980927,9010,WL,A,5.0
4,9.117000102996826,learn,50882.999897003174,Wed Jan 21 2026 16:43:04 GMT-0500 (Eastern Standard Time),496475.4000005722,A,k,I,k,821,3,833.4000005722046,495642.0,9010,WL,A,6.0
4,9.267000198364258,learn,50732.99980163574,Wed Jan 21 2026 16:43:04 GMT-0500 (Eastern Standard Time),496625.4000005722,A,ke,I,e,129,3,983.4000005722046,495642.0,9010,WL,A,6.0
4,9.91700005531311,learn,50082.99994468689,Wed Jan 21 2026 16:43:04 GMT-0500 (Eastern Standard Time),497275.4000005722,A,key,I,y,634,3,1633.4000005722046,495642.0,9010,WL,A,6.0
4,10.416000127792358,learn,49583.99987220764,Wed Jan 21 2026 16:43:04 GMT-0500 (Eastern Standard Time),497774.80000019073,A,keyenter,I,enter,480,3,2132.800000190735,495642.0,9010,WL,A,6.0
4,10.91700005531311,learn,49082.99994468689,Wed Jan 21 2026 16:43:04 GMT-0500 (Eastern Standard Time),498275.4000005722,A,l,I,l,480,3,500.30000019073486,497775.10000038147,9010,WL,A,7.0
4,11.100000143051147,learn,48899.99985694885,Wed Jan 21 2026 16:43:04 GMT-0500 (Eastern Standard Time),498458.69999980927,A,lo,I,o,168,3,683.5999994277954,497775.10000038147,9010,WL,A,7.0
4,11.300000190734863,learn,48699.99980926514,Wed Jan 21 2026 16:43:04 GMT-0500 (Eastern Standard Time),498658.69999980927,A,log,I,g,176,3,883.5999994277954,497775.10000038147,9010,WL,A,7.0
4,11.683000087738037,learn,48316.99991226196,Wed Jan 21 2026 16:43:04 GMT-0500 (Eastern Standard Time),499041.69999980927,A,logenter,I,enter,349,3,1266.5999994277954,497775.10000038147,9010,WL,A,7.0
4,13.484000205993652,learn,46515.99979400635,Wed Jan 21 2026 16:43:04 GMT-0500 (Eastern Standard Time),500842.19999980927,A,m,I,m,1789,3,1800.1999998092651,499042.0,9010,WL,A,8.0
4,13.66700005531311,learn,46332.99994468689,Wed Jan 21 2026 16:43:04 GMT-0500 (Eastern Standard Time),501025.4000005722,A,me,I,e,162,3,1983.4000005722046,499042.0,9010,WL,A,8.0
4,13.800000190734863,learn,46199.99980926514,Wed Jan 21 2026 16:43:04 GMT-0500 (Eastern Standard Time),501158.5,A,mea,I,a,122,3,2116.5,499042.0,9010,WL,A,8.0
4,14.08400011062622,learn,45915.99988937378,Wed Jan 21 2026 16:43:04 GMT-0500 (Eastern Standard Time),501442.10000038147,A,mead,I,d,261,3,2400.1000003814697,499042.0,9010,WL,A,8.0
4,14.333000183105469,learn,45666.99981689453,Wed Jan 21 2026 16:43:04 GMT-0500 (Eastern Standard Time),501692.0,A,meado,I,o,233,3,2650.0,499042.0,9010,WL,A,8.0
4,14.532999992370605,learn,45467.000007629395,Wed Jan 21 2026 16:43:04 GMT-0500 (Eastern Standard Time),501892.0,A,meadow,I,w,176,3,2850.0,499042.0,9010,WL,A,8.0
4,15.0,learn,45000.0,Wed Jan 21 2026 16:43:04 GMT-0500 (Eastern Standard Time),502358.10000038147,A,meadowenter,I,enter,447,3,3316.1000003814697,499042.0,9010,WL,A,8.0
4,15.767000198364258,learn,44232.99980163574,Wed Jan 21 2026 16:43:04 GMT-0500 (Eastern Standard Time),503125.4000005722,A,c,I,c,744,3,766.9000005722046,502358.5,9010,WL,A,9.0
4,16.067000150680542,learn,43932.99984931946,Wed Jan 21 2026 16:43:04 GMT-0500 (Eastern Standard Time),503425.4000005722,A,ch,I,h,278,3,1066.9000005722046,502358.5,9010,WL,A,9.0
4,16.48300004005432,learn,43516.99995994568,Wed Jan 21 2026 16:43:04 GMT-0500 (Eastern Standard Time),503842.0,A,chi,I,i,394,3,1483.5,502358.5,9010,WL,A,9.0
4,16.734000205993652,learn,43265.99979400635,Wed Jan 21 2026 16:43:04 GMT-0500 (Eastern Standard Time),504092.0,A,chim,I,m,232,3,1733.5,502358.5,9010,WL,A,9.0
4,16.98300004005432,learn,43016.99995994568,Wed Jan 21 2026 16:43:04 GMT-0500 (Eastern Standard Time),504341.9000005722,A,chimn,I,n,240,3,1983.4000005722046,502358.5,9010,WL,A,9.0
4,17.15000009536743,learn,42849.99990463257,Wed Jan 21 2026 16:43:04 GMT-0500 (Eastern Standard Time),504508.60000038147,A,chimne,I,e,149,3,2150.1000003814697,502358.5,9010,WL,A,9.0
4,17.367000102996826,learn,42632.999897003174,Wed Jan 21 2026 16:43:04 GMT-0500 (Eastern Standard Time),504725.30000019073,A,chimney,I,y,191,3,2366.800000190735,502358.5,9010,WL,A,9.0
4,17.75,learn,42250.0,Wed Jan 21 2026 16:43:04 GMT-0500 (Eastern Standard Time),505108.30000019073,A,chimneyenter,I,enter,357,3,2749.800000190735,502358.5,9010,WL,A,9.0
4,22.200000047683716,learn,37799.999952316284,Wed Jan 21 2026 16:43:04 GMT-0500 (Eastern Standard Time),509558.4000005722,A,f,I,f,4443,3,4449.800000190735,505108.60000038147,9010,WL,A,10.0
4,22.5,learn,37500.0,Wed Jan 21 2026 16:43:04 GMT-0500 (Eastern Standard Time),509858.69999980927,A,fi,I,i,276,3,4750.099999427795,505108.60000038147,9010,WL,A,10.0
4,22.68400001525879,learn,37315.99998474121,Wed Jan 21 2026 16:43:04 GMT-0500 (Eastern Standard Time),510042.10000038147,A,fin,I,n,169,3,4933.5,505108.60000038147,9010,WL,A,10.0
4,22.83300018310547,learn,37166.99981689453,Wed Jan 21 2026 16:43:04 GMT-0500 (Eastern Standard Time),510192.0,A,fing,I,g,129,3,5083.39999961853,505108.60000038147,9010,WL,A,10.0
4,23.050000190734863,learn,36949.99980926514,Wed Jan 21 2026 16:43:04 GMT-0500 (Eastern Standard Time),510408.60000038147,A,finge,I,e,195,3,5300.0,505108.60000038147,9010,WL,A,10.0
4,23.133000135421753,learn,36866.99986457825,Wed Jan 21 2026 16:43:04 GMT-0500 (Eastern Standard Time),510492.10000038147,A,finger,I,r,66,3,5383.5,505108.60000038147,9010,WL,A,10.0
4,23.40000009536743,learn,36599.99990463257,Wed Jan 21 2026 16:43:04 GMT-0500 (Eastern Standard Time),510758.10000038147,A,fingerenter,I,enter,255,3,5649.5,505108.60000038147,9010,WL,A,10.0
4,29.267000198364258,learn,30732.999801635742,Wed Jan 21 2026 16:43:04 GMT-0500 (Eastern Standard Time),516625.69999980927,A,r,I,r,5848,3,5867.199999809265,510758.5,9010,WL,A,11.0
4,29.433000087738037,learn,30566.999912261963,Wed Jan 21 2026 16:43:04 GMT-0500 (Eastern Standard Time),516792.0,A,ra,I,a,156,3,6033.5,510758.5,9010,WL,A,11.0
4,29.65000009536743,learn,30349.99990463257,Wed Jan 21 2026 16:43:04 GMT-0500 (Eastern Standard Time),517008.69999980927,A,rat,I,t,188,3,6250.199999809265,510758.5,9010,WL,A,11.0
4,29.800000190734863,learn,30199.999809265137,Wed Jan 21 2026 16:43:04 GMT-0500 (Eastern Standard Time),517158.4000005722,A,ratt,I,t,138,3,6399.900000572205,510758.5,9010,WL,A,11.0
4,30.08300018310547,learn,29916.99981689453,Wed Jan 21 2026 16:43:04 GMT-0500 (Eastern Standard Time),517442.0,A,rattl,I,l,261,3,6683.5,510758.5,9010,WL,A,11.0
4,30.267000198364258,learn,29732.999801635742,Wed Jan 21 2026 16:43:04 GMT-0500 (Eastern Standard Time),517625.30000019073,A,rattle,I,e,168,3,6866.800000190735,510758.5,9010,WL,A,11.0
4,30.5,learn,29500.0,Wed Jan 21 2026 16:43:04 GMT-0500 (Eastern Standard Time),517858.19999980927,A,rattleenter,I,enter,200,3,7099.699999809265,510758.5,9010,WL,A,11.0
4,31.050000190734863,learn,28949.999809265137,Wed Jan 21 2026 16:43:04 GMT-0500 (Eastern Standard Time),518408.69999980927,A,g,I,g,540,3,550.1999998092651,517858.5,9010,WL,A,12.0
4,31.366000175476074,learn,28633.999824523926,Wed Jan 21 2026 16:43:04 GMT-0500 (Eastern Standard Time),518724.9000005722,A,go,I,o,290,3,866.4000005722046,517858.5,9010,WL,A,12.0
4,31.617000102996826,learn,28382.999897003174,Wed Jan 21 2026 16:43:04 GMT-0500 (Eastern Standard Time),518975.4000005722,A,god,I,d,231,3,1116.9000005722046,517858.5,9010,WL,A,12.0
4,32.01700019836426,learn,27982.999801635742,Wed Jan 21 2026 16:43:04 GMT-0500 (Eastern Standard Time),519375.4000005722,A,go,I,backspace,381,3,1516.9000005722046,517858.5,9010,WL,A,12.0
4,32.58400011062622,learn,27415.99988937378,Wed Jan 21 2026 16:43:04 GMT-0500 (Eastern Standard Time),519942.10000038147,A,gol,I,l,540,3,2083.6000003814697,517858.5,9010,WL,A,12.0
4,32.73300004005432,learn,27266.99995994568,Wed Jan 21 2026 16:43:04 GMT-0500 (Eastern Standard Time),520092.0,A,gold,I,d,132,3,2233.5,517858.5,9010,WL,A,12.0
4,32.96600008010864,learn,27033.999919891357,Wed Jan 21 2026 16:43:04 GMT-0500 (Eastern Standard Time),520324.69999980927,A,goldenter,I,enter,214,3,2466.199999809265,517858.5,9010,WL,A,12.0
4,41.950000047683716,learn,18049.999952316284,Wed Jan 21 2026 16:43:04 GMT-0500 (Eastern Standard Time),529308.6999998093,A,t,I,t,8970,3,8983.699999809265,520325.0,9010,WL,A,13.0
4,42.18300008773804,learn,17816.999912261963,Wed Jan 21 2026 16:43:04 GMT-0500 (Eastern Standard Time),529542.0,A,tr,I,r,207,3,9217.0,520325.0,9010,WL,A,13.0
4,42.282999992370605,learn,17717.000007629395,Wed Jan 21 2026 16:43:04 GMT-0500 (Eastern Standard Time),529642.0,A,tra,I,a,85,3,9317.0,520325.0,9010,WL,A,13.0
4,42.532999992370605,learn,17467.000007629395,Wed Jan 21 2026 16:43:04 GMT-0500 (Eastern Standard Time),529891.9000005722,A,trai,I,i,224,3,9566.900000572205,520325.0,9010,WL,A,13.0
4,42.73300004005432,learn,17266.99995994568,Wed Jan 21 2026 16:43:04 GMT-0500 (Eastern Standard Time),530092.1000003815,A,train,I,n,183,3,9767.10000038147,520325.0,9010,WL,A,13.0
4,43.032999992370605,learn,16967.000007629395,Wed Jan 21 2026 16:43:04 GMT-0500 (Eastern Standard Time),530391.5,A,trainenter,I,enter,287,3,10066.5,520325.0,9010,WL,A,13.0
4,46.90000009536743,learn,13099.999904632568,Wed Jan 21 2026 16:43:04 GMT-0500 (Eastern Standard Time),534258.6999998093,A,k,I,k,3846,3,3866.7999992370605,530391.9000005722,9010,WL,A,14.0
4,47.06700015068054,learn,12932.999849319458,Wed Jan 21 2026 16:43:04 GMT-0500 (Eastern Standard Time),534425.3000001907,A,ke,I,e,153,3,4033.3999996185303,530391.9000005722,9010,WL,A,14.0
4,47.31700015068054,learn,12682.999849319458,Wed Jan 21 2026 16:43:04 GMT-0500 (Eastern Standard Time),534675.5,A,key,I,y,226,3,4283.599999427795,530391.9000005722,9010,WL,A,14.0
4,48.13300013542175,learn,11866.999864578247,Wed Jan 21 2026 16:43:04 GMT-0500 (Eastern Standard Time),535491.5,A,keyenter,I,enter,788,3,5099.599999427795,530391.9000005722,9010,WL,A,14.0
4,55.08400011062622,learn,4915.999889373779,Wed Jan 21 2026 16:43:04 GMT-0500 (Eastern Standard Time),542442.1000003815,A,g,I,g,6939,3,6950.199999809265,535491.9000005722,9010,WL,A,15.0
4,55.282999992370605,learn,4717.0000076293945,Wed Jan 21 2026 16:43:04 GMT-0500 (Eastern Standard Time),542642.0,A,go,I,o,177,3,7150.099999427795,535491.9000005722,9010,WL,A,15.0
4,55.5,learn,4500.0,Wed Jan 21 2026 16:43:04 GMT-0500 (Eastern Standard Time),542858.6000003815,A,god,I,d,202,3,7366.699999809265,535491.9000005722,9010,WL,A,15.0
4,55.93300008773804,learn,4066.999912261963,Wed Jan 21 2026 16:43:04 GMT-0500 (Eastern Standard Time),543292.1000003815,A,go,I,backspace,416,3,7800.199999809265,535491.9000005722,9010,WL,A,15.0
4,56.367000102996826,learn,3632.999897003174,Wed Jan 21 2026 16:43:04 GMT-0500 (Eastern Standard Time),543725.3000001907,A,gol,I,l,415,3,8233.39999961853,535491.9000005722,9010,WL,A,15.0
4,56.55000019073486,learn,3449.9998092651367,Wed Jan 21 2026 16:43:04 GMT-0500 (Eastern Standard Time),543908.5,A,gold,I,d,159,3,8416.599999427795,535491.9000005722,9010,WL,A,15.0
4,56.76700019836426,learn,3232.999801635742,Wed Jan 21 2026 16:43:04 GMT-0500 (Eastern Standard Time),544126.0,A,goldenter,I,enter,189,3,8634.099999427795,535491.9000005722,9010,WL,A,15.0
5,0.5,learn,60000.0,Wed Jan 21 2026 16:43:04 GMT-0500 (Eastern Standard Time),609908.9000005722,A,r,I,r,476,3,499.80000019073486,609409.1000003815,9010,WL,A,1.0
5,0.7999999523162842,learn,60000.0,Wed Jan 21 2026 16:43:04 GMT-0500 (Eastern Standard Time),610208.6000003815,A,ru,I,u,275,3,799.5,609409.1000003815,9010,WL,A,1.0
5,1.0,learn,60000.0,Wed Jan 21 2026 16:43:04 GMT-0500 (Eastern Standard Time),610408.6000003815,A,rug,I,g,187,3,999.5,609409.1000003815,9010,WL,A,1.0
5,1.2829999923706055,learn,60000.0,Wed Jan 21 2026 16:43:04 GMT-0500 (Eastern Standard Time),610691.4000005722,A,rugenter,I,enter,258,3,1282.3000001907349,609409.1000003815,9010,WL,A,1.0
5,1.7999999523162842,learn,60000.0,Wed Jan 21 2026 16:43:04 GMT-0500 (Eastern Standard Time),611208.6000003815,A,b,I,b,507,3,516.9000005722046,610691.6999998093,9010,WL,A,2.0
5,2.0329999923706055,learn,60000.0,Wed Jan 21 2026 16:43:04 GMT-0500 (Eastern Standard Time),611441.9000005722,A,bo,I,o,210,3,750.2000007629395,610691.6999998093,9010,WL,A,2.0
5,2.1999998092651367,learn,60000.0,Wed Jan 21 2026 16:43:04 GMT-0500 (Eastern Standard Time),611608.6000003815,A,boo,I,o,152,3,916.9000005722046,610691.6999998093,9010,WL,A,2.0
5,2.432999849319458,learn,60000.0,Wed Jan 21 2026 16:43:04 GMT-0500 (Eastern Standard Time),611842.0,A,book,I,k,210,3,1150.3000001907349,610691.6999998093,9010,WL,A,2.0
5,2.8499999046325684,learn,60000.0,Wed Jan 21 2026 16:43:04 GMT-0500 (Eastern Standard Time),612258.1000003815,A,bookenter,I,enter,393,3,1566.4000005722046,610691.6999998093,9010,WL,A,2.0
5,4.2170000076293945,learn,60000.0,Wed Jan 21 2026 16:43:04 GMT-0500 (Eastern Standard Time),613625.1999998093,A,f,I,f,1356,3,1366.7999992370605,612258.4000005722,9010,WL,A,3.0
5,4.382999897003174,learn,60000.0,Wed Jan 21 2026 16:43:04 GMT-0500 (Eastern Standard Time),613792.0,A,fl,I,l,145,3,1533.5999994277954,612258.4000005722,9010,WL,A,3.0
5,4.58299994468689,learn,60000.0,Wed Jan 21 2026 16:43:04 GMT-0500 (Eastern Standard Time),613991.8000001907,A,flo,I,o,185,3,1733.3999996185303,612258.4000005722,9010,WL,A,3.0
5,4.699999809265137,learn,60000.0,Wed Jan 21 2026 16:43:04 GMT-0500 (Eastern Standard Time),614108.6000003815,A,flow,I,w,91,3,1850.1999998092651,612258.4000005722,9010,WL,A,3.0
5,4.766999959945679,learn,60000.0,Wed Jan 21 2026 16:43:04 GMT-0500 (Eastern Standard Time),614175.4000005722,A,flowe,I,e,38,3,1917.0,612258.4000005722,9010,WL,A,3.0
5,4.83299994468689,learn,60000.0,Wed Jan 21 2026 16:43:04 GMT-0500 (Eastern Standard Time),614241.6999998093,A,flower,I,r,47,3,1983.2999992370605,612258.4000005722,9010,WL,A,3.0
5,5.315999984741211,learn,60000.0,Wed Jan 21 2026 16:43:04 GMT-0500 (Eastern Standard Time),614724.8000001907,A,flowerenter,I,enter,448,3,2466.3999996185303,612258.4000005722,9010,WL,A,3.0
5,5.732999801635742,learn,60000.0,Wed Jan 21 2026 16:43:04 GMT-0500 (Eastern Standard Time),615141.5,A,t,I,t,410,3,416.3999996185303,614725.1000003815,9010,WL,A,4.0
5,5.932999849319458,learn,60000.0,Wed Jan 21 2026 16:43:04 GMT-0500 (Eastern Standard Time),615341.9000005722,A,tr,I,r,184,3,616.8000001907349,614725.1000003815,9010,WL,A,4.0
5,6.0329999923706055,learn,60000.0,Wed Jan 21 2026 16:43:04 GMT-0500 (Eastern Standard Time),615442.0,A,tra,I,a,78,3,716.8999996185303,614725.1000003815,9010,WL,A,4.0
5,6.25,learn,60000.0,Wed Jan 21 2026 16:43:04 GMT-0500 (Eastern Standard Time),615658.6000003815,A,trai,I,i,192,3,933.5,614725.1000003815,9010,WL,A,4.0
5,6.449999809265137,learn,60000.0,Wed Jan 21 2026 16:43:04 GMT-0500 (Eastern Standard Time),615858.6000003815,A,train,I,n,177,3,1133.5,614725.1000003815,9010,WL,A,4.0
5,6.799999952316284,learn,60000.0,Wed Jan 21 2026 16:43:04 GMT-0500 (Eastern Standard Time),616208.1000003815,A,trainenter,I,enter,328,3,1483.0,614725.1000003815,9010,WL,A,4.0
5,8.599999904632568,learn,60000.0,Wed Jan 21 2026 16:43:04 GMT-0500 (Eastern Standard Time),618008.5,A,g,I,g,1790,3,1800.0999994277954,616208.4000005722,9010,WL,A,5.0
5,8.782999992370605,learn,60000.0,Wed Jan 21 2026 16:43:04 GMT-0500 (Eastern Standard Time),618191.8000001907,A,go,I,o,163,3,1983.3999996185303,616208.4000005722,9010,WL,A,5.0
5,9.282999992370605,learn,60000.0,Wed Jan 21 2026 16:43:04 GMT-0500 (Eastern Standard Time),618691.9000005722,A,gol,I,l,476,3,2483.5,616208.4000005722,9010,WL,A,5.0
5,9.482999801635742,learn,60000.0,Wed Jan 21 2026 16:43:04 GMT-0500 (Eastern Standard Time),618891.9000005722,A,gold,I,d,184,3,2683.5,616208.4000005722,9010,WL,A,5.0
5,9.849999904632568,learn,60000.0,Wed Jan 21 2026 16:43:04 GMT-0500 (Eastern Standard Time),619258.1999998093,A,goldenter,I,enter,350,3,3049.7999992370605,616208.4000005722,9010,WL,A,5.0
5,10.232999801635742,learn,60000.0,Wed Jan 21 2026 16:43:04 GMT-0500 (Eastern Standard Time),619641.9000005722,A,b,I,b,373,3,383.5,619258.4000005722,9010,WL,A,6.0
5,10.532999992370605,learn,60000.0,Wed Jan 21 2026 16:43:04 GMT-0500 (Eastern Standard Time),619941.6000003815,A,bu,I,u,290,3,683.1999998092651,619258.4000005722,9010,WL,A,6.0
5,10.717000007629395,learn,60000.0,Wed Jan 21 2026 16:43:04 GMT-0500 (Eastern Standard Time),620125.3000001907,A,but,I,t,167,3,866.8999996185303,619258.4000005722,9010,WL,A,6.0
5,10.899999856948853,learn,60000.0,Wed Jan 21 2026 16:43:04 GMT-0500 (Eastern Standard Time),620308.6999998093,A,butt,I,t,158,3,1050.2999992370605,619258.4000005722,9010,WL,A,6.0
5,11.032999992370605,learn,60000.0,Wed Jan 21 2026 16:43:04 GMT-0500 (Eastern Standard Time),620441.6999998093,A,butto,I,o,118,3,1183.2999992370605,619258.4000005722,9010,WL,A,6.0
5,11.282999992370605,learn,60000.0,Wed Jan 21 2026 16:43:04 GMT-0500 (Eastern Standard Time),620691.9000005722,A,button,I,n,225,3,1433.5,619258.4000005722,9010,WL,A,6.0
5,12.0,learn,60000.0,Wed Jan 21 2026 16:43:04 GMT-0500 (Eastern Standard Time),621408.0,A,buttonenter,I,enter,695,3,2149.5999994277954,619258.4000005722,9010,WL,A,6.0
5,12.532999992370605,learn,60000.0,Wed Jan 21 2026 16:43:04 GMT-0500 (Eastern Standard Time),621941.6000003815,A,r,I,r,526,3,533.1999998092651,621408.4000005722,9010,WL,A,7.0
5,12.699999809265137,learn,60000.0,Wed Jan 21 2026 16:43:04 GMT-0500 (Eastern Standard Time),622108.6000003815,A,ra,I,a,150,3,700.1999998092651,621408.4000005722,9010,WL,A,7.0
5,12.916999816894531,learn,60000.0,Wed Jan 21 2026 16:43:04 GMT-0500 (Eastern Standard Time),622325.1999998093,A,rat,I,t,183,3,916.7999992370605,621408.4000005722,9010,WL,A,7.0
5,13.066999912261963,learn,60000.0,Wed Jan 21 2026 16:43:04 GMT-0500 (Eastern Standard Time),622475.1999998093,A,ratt,I,t,135,3,1066.7999992370605,621408.4000005722,9010,WL,A,7.0
5,13.299999952316284,learn,60000.0,Wed Jan 21 2026 16:43:04 GMT-0500 (Eastern Standard Time),622708.1999998093,A,rattl,I,l,200,3,1299.7999992370605,621408.4000005722,9010,WL,A,7.0
5,13.449999809265137,learn,60000.0,Wed Jan 21 2026 16:43:04 GMT-0500 (Eastern Standard Time),622858.6000003815,A,rattle,I,e,138,3,1450.1999998092651,621408.4000005722,9010,WL,A,7.0
5,13.715999841690063,learn,60000.0,Wed Jan 21 2026 16:43:04 GMT-0500 (Eastern Standard Time),623124.6999998093,A,rattleenter,I,enter,248,3,1716.2999992370605,621408.4000005722,9010,WL,A,7.0
5,14.032999992370605,learn,60000.0,Wed Jan 21 2026 16:43:04 GMT-0500 (Eastern Standard Time),623441.9000005722,A,s,I,s,298,3,317.0,623124.9000005722,9010,WL,A,8.0
5,14.199999809265137,learn,60000.0,Wed Jan 21 2026 16:43:04 GMT-0500 (Eastern Standard Time),623608.6000003815,A,sa,I,a,153,3,483.69999980926514,623124.9000005722,9010,WL,A,8.0
5,14.366999864578247,learn,60000.0,Wed Jan 21 2026 16:43:04 GMT-0500 (Eastern Standard Time),623775.1999998093,A,sal,I,l,138,3,650.2999992370605,623124.9000005722,9010,WL,A,8.0
5,14.816999912261963,learn,60000.0,Wed Jan 21 2026 16:43:04 GMT-0500 (Eastern Standard Time),624225.3000001907,A,salt,I,t,425,3,1100.3999996185303,623124.9000005722,9010,WL,A,8.0
5,15.215999841690063,learn,60000.0,Wed Jan 21 2026 16:43:04 GMT-0500 (Eastern Standard Time),624624.8000001907,A,saltenter,I,enter,377,3,1499.8999996185303,623124.9000005722,9010,WL,A,8.0
5,15.632999897003174,learn,60000.0,Wed Jan 21 2026 16:43:04 GMT-0500 (Eastern Standard Time),625041.8000001907,A,f,I,f,398,3,416.69999980926514,624625.1000003815,9010,WL,A,9.0
5,15.899999856948853,learn,60000.0,Wed Jan 21 2026 16:43:04 GMT-0500 (Eastern Standard Time),625308.4000005722,A,fi,I,i,250,3,683.3000001907349,624625.1000003815,9010,WL,A,9.0
5,16.132999897003174,learn,60000.0,Wed Jan 21 2026 16:43:04 GMT-0500 (Eastern Standard Time),625541.9000005722,A,fin,I,n,206,3,916.8000001907349,624625.1000003815,9010,WL,A,9.0
5,16.25,learn,60000.0,Wed Jan 21 2026 16:43:04 GMT-0500 (Eastern Standard Time),625658.6000003815,A,fing,I,g,101,3,1033.5,624625.1000003815,9010,WL,A,9.0
5,16.449999809265137,learn,60000.0,Wed Jan 21 2026 16:43:04 GMT-0500 (Eastern Standard Time),625858.6000003815,A,finge,I,e,168,3,1233.5,624625.1000003815,9010,WL,A,9.0
5,16.532999992370605,learn,60000.0,Wed Jan 21 2026 16:43:04 GMT-0500 (Eastern Standard Time),625941.8000001907,A,finger,I,r,73,3,1316.6999998092651,624625.1000003815,9010,WL,A,9.0
5,16.882999897003174,learn,60000.0,Wed Jan 21 2026 16:43:04 GMT-0500 (Eastern Standard Time),626291.5,A,fingerenter,I,enter,324,3,1666.3999996185303,624625.1000003815,9010,WL,A,9.0
5,17.449999809265137,learn,60000.0,Wed Jan 21 2026 16:43:04 GMT-0500 (Eastern Standard Time),626858.6000003815,A,h,I,h,556,3,566.9000005722046,626291.6999998093,9010,WL,A,10.0
5,17.566999912261963,learn,60000.0,Wed Jan 21 2026 16:43:04 GMT-0500 (Eastern Standard Time),626975.3000001907,A,ha,I,a,95,3,683.6000003814697,626291.6999998093,9010,WL,A,10.0
5,17.732999801635742,learn,60000.0,Wed Jan 21 2026 16:43:04 GMT-0500 (Eastern Standard Time),627141.5,A,har,I,r,130,3,849.8000001907349,626291.6999998093,9010,WL,A,10.0
5,18.649999856948853,learn,60000.0,Wed Jan 21 2026 16:43:04 GMT-0500 (Eastern Standard Time),628058.6000003815,A,harp,I,p,895,3,1766.9000005722046,626291.6999998093,9010,WL,A,10.0
5,18.982999801635742,learn,60000.0,Wed Jan 21 2026 16:43:04 GMT-0500 (Eastern Standard Time),628391.3000001907,A,harpenter,I,enter,321,3,2099.6000003814697,626291.6999998093,9010,WL,A,10.0
5,19.34999990463257,learn,60000.0,Wed Jan 21 2026 16:43:04 GMT-0500 (Eastern Standard Time),628758.1999998093,A,a,I,a,360,3,366.5,628391.6999998093,9010,WL,A,11.0
5,19.59999990463257,learn,60000.0,Wed Jan 21 2026 16:43:04 GMT-0500 (Eastern Standard Time),629008.6000003815,A,ap,I,p,229,3,616.9000005722046,628391.6999998093,9010,WL,A,11.0
5,19.75,learn,60000.0,Wed Jan 21 2026 16:43:04 GMT-0500 (Eastern Standard Time),629158.3000001907,A,app,I,p,138,3,766.6000003814697,628391.6999998093,9010,WL,A,11.0
5,19.967000007629395,learn,60000.0,Wed Jan 21 2026 16:43:04 GMT-0500 (Eastern Standard Time),629375.1999998093,A,appl,I,l,190,3,983.5,628391.6999998093,9010,WL,A,11.0
5,20.132999897003174,learn,60000.0,Wed Jan 21 2026 16:43:04 GMT-0500 (Eastern Standard Time),629541.9000005722,A,apple,I,e,141,3,1150.2000007629395,628391.6999998093,9010,WL,A,11.0
5,20.432999849319458,learn,60000.0,Wed Jan 21 2026 16:43:04 GMT-0500 (Eastern Standard Time),629841.4000005722,A,appleenter,I,enter,267,3,1449.7000007629395,628391.6999998093,9010,WL,A,11.0
5,21.08299994468689,learn,60000.0,Wed Jan 21 2026 16:43:04 GMT-0500 (Eastern Standard Time),630491.9000005722,A,m,I,m,637,3,650.2000007629395,629841.6999998093,9010,WL,A,12.0
5,21.25,learn,60000.0,Wed Jan 21 2026 16:43:04 GMT-0500 (Eastern Standard Time),630658.6000003815,A,me,I,e,144,3,816.9000005722046,629841.6999998093,9010,WL,A,12.0
5,21.399999856948853,learn,60000.0,Wed Jan 21 2026 16:43:04 GMT-0500 (Eastern Standard Time),630808.6999998093,A,mea,I,a,129,3,967.0,629841.6999998093,9010,WL,A,12.0
5,21.649999856948853,learn,60000.0,Wed Jan 21 2026 16:43:04 GMT-0500 (Eastern Standard Time),631058.5,A,mead,I,d,227,3,1216.8000001907349,629841.6999998093,9010,WL,A,12.0
5,22.049999952316284,learn,60000.0,Wed Jan 21 2026 16:43:04 GMT-0500 (Eastern Standard Time),631458.5,A,meado,I,o,377,3,1616.8000001907349,629841.6999998093,9010,WL,A,12.0
5,22.232999801635742,learn,60000.0,Wed Jan 21 2026 16:43:04 GMT-0500 (Eastern Standard Time),631641.9000005722,A,meadow,I,w,170,3,1800.2000007629395,629841.6999998093,9010,WL,A,12.0
5,22.515999794006348,learn,60000.0,Wed Jan 21 2026 16:43:04 GMT-0500 (Eastern Standard Time),631924.6999998093,A,meadowenter,I,enter,272,3,2083.0,629841.6999998093,9010,WL,A,12.0
5,23.182999849319458,learn,60000.0,Wed Jan 21 2026 16:43:04 GMT-0500 (Eastern Standard Time),632592.0,A,c,I,c,650,3,667.0999994277954,631924.9000005722,9010,WL,A,13.0
5,23.5,learn,60000.0,Wed Jan 21 2026 16:43:04 GMT-0500 (Eastern Standard Time),632908.6000003815,A,ch,I,h,296,3,983.6999998092651,631924.9000005722,9010,WL,A,13.0
5,23.732999801635742,learn,60000.0,Wed Jan 21 2026 16:43:04 GMT-0500 (Eastern Standard Time),633141.5,A,chi,I,i,222,3,1216.5999994277954,631924.9000005722,9010,WL,A,13.0
5,25.866999864578247,learn,60000.0,Wed Jan 21 2026 16:43:04 GMT-0500 (Eastern Standard Time),635275.1999998093,A,chim,I,m,2117,3,3350.2999992370605,631924.9000005722,9010,WL,A,13.0
5,26.09999990463257,learn,60000.0,Wed Jan 21 2026 16:43:04 GMT-0500 (Eastern Standard Time),635508.5,A,chimn,I,n,209,3,3583.5999994277954,631924.9000005722,9010,WL,A,13.0
5,26.199999809265137,learn,60000.0,Wed Jan 21 2026 16:43:04 GMT-0500 (Eastern Standard Time),635608.3000001907,A,chimne,I,e,81,3,3683.3999996185303,631924.9000005722,9010,WL,A,13.0
5,26.399999856948853,learn,60000.0,Wed Jan 21 2026 16:43:04 GMT-0500 (Eastern Standard Time),635808.5,A,chimney,I,y,180,3,3883.5999994277954,631924.9000005722,9010,WL,A,13.0
5,26.91599988937378,learn,60000.0,Wed Jan 21 2026 16:43:04 GMT-0500 (Eastern Standard Time),636324.8000001907,A,chimneyenter,I,enter,491,3,4399.89999961853,631924.9000005722,9010,WL,A,13.0
5,29.967000007629395,learn,60000.0,Wed Jan 21 2026 16:43:04 GMT-0500 (Eastern Standard Time),639375.1999998093,A,l,I,l,3033,3,3050.0999994277954,636325.1000003815,9010,WL,A,14.0
5,30.16699981689453,learn,60000.0,Wed Jan 21 2026 16:43:04 GMT-0500 (Eastern Standard Time),639575.1000003815,A,lo,I,o,188,3,3250.0,636325.1000003815,9010,WL,A,14.0
5,30.34999990463257,learn,60000.0,Wed Jan 21 2026 16:43:04 GMT-0500 (Eastern Standard Time),639758.6000003815,A,log,I,g,164,3,3433.5,636325.1000003815,9010,WL,A,14.0
5,30.782999992370605,learn,60000.0,Wed Jan 21 2026 16:43:04 GMT-0500 (Eastern Standard Time),640191.4000005722,A,logenter,I,enter,402,3,3866.300000190735,636325.1000003815,9010,WL,A,14.0
5,32.56699991226196,learn,60000.0,Wed Jan 21 2026 16:43:04 GMT-0500 (Eastern Standard Time),641975.1000003815,A,k,I,k,1776,3,1783.4000005722046,640191.6999998093,9010,WL,A,15.0
5,32.75,learn,60000.0,Wed Jan 21 2026 16:43:04 GMT-0500 (Eastern Standard Time),642158.5,A,ke,I,e,163,3,1966.8000001907349,640191.6999998093,9010,WL,A,15.0
5,32.98299980163574,learn,60000.0,Wed Jan 21 2026 16:43:04 GMT-0500 (Eastern Standard Time),642391.9000005722,A,key,I,y,220,3,2200.2000007629395,640191.6999998093,9010,WL,A,15.0
5,33.44999980926514,learn,60000.0,Wed Jan 21 2026 16:43:04 GMT-0500 (Eastern Standard Time),642858.0,A,keyenter,I,enter,450,3,2666.300000190735,640191.6999998093,9010,WL,A,15.0
6,0.6010000705718994,distr,59398.9999294281,Wed Jan 21 2026 16:43:04 GMT-0500 (Eastern Standard Time),720125.1999998093,B,j,I,j,587,3,600.5999994277954,719524.6000003815,9010,WL,A,1.0
6,0.8009998798370361,distr,59199.000120162964,Wed Jan 21 2026 16:43:04 GMT-0500 (Eastern Standard Time),720325.3000001907,B,ju,I,u,188,3,800.6999998092651,719524.6000003815,9010,WL,A,1.0
6,0.9340000152587891,distr,59065.99998474121,Wed Jan 21 2026 16:43:04 GMT-0500 (Eastern Standard Time),720458.5,B,jud,I,d,109,3,933.8999996185303,719524.6000003815,9010,WL,A,1.0
6,1.184000015258789,distr,58815.99998474121,Wed Jan 21 2026 16:43:04 GMT-0500 (Eastern Standard Time),720708.4000005722,B,judg,I,g,225,3,1183.8000001907349,719524.6000003815,9010,WL,A,1.0
6,1.366999864578247,distr,58633.00013542175,Wed Jan 21 2026 16:43:04 GMT-0500 (Eastern Standard Time),720891.8000001907,B,judge,I,e,164,3,1367.1999998092651,719524.6000003815,9010,WL,A,1.0
6,1.8999998569488525,distr,58100.00014305115,Wed Jan 21 2026 16:43:04 GMT-0500 (Eastern Standard Time),721424.6000003815,B,judgeenter,I,enter,511,3,1900.0,719524.6000003815,9010,WL,A,1.0
6,2.4170000553131104,distr,57582.99994468689,Wed Jan 21 2026 16:43:04 GMT-0500 (Eastern Standard Time),721941.6000003815,B,d,I,d,510,3,516.6000003814697,721425.0,9010,WL,A,2.0
6,2.616999864578247,distr,57383.00013542175,Wed Jan 21 2026 16:43:04 GMT-0500 (Eastern Standard Time),722141.9000005722,B,da,I,a,180,3,716.9000005722046,721425.0,9010,WL,A,2.0
6,3.0839998722076416,distr,56916.00012779236,Wed Jan 21 2026 16:43:04 GMT-0500 (Eastern Standard Time),722608.5,B,dan,I,n,436,3,1183.5,721425.0,9010,WL,A,2.0
6,4.000999927520752,distr,55999.00007247925,Wed Jan 21 2026 16:43:04 GMT-0500 (Eastern Standard Time),723525.1000003815,B,da,I,backspace,892,3,2100.1000003814697,721425.0,9010,WL,A,2.0
6,4.233999967575073,distr,55766.00003242493,Wed Jan 21 2026 16:43:04 GMT-0500 (Eastern Standard Time),723758.4000005722,B,daw,I,w,215,3,2333.4000005722046,721425.0,9010,WL,A,2.0
6,4.41700005531311,distr,55582.99994468689,Wed Jan 21 2026 16:43:04 GMT-0500 (Eastern Standard Time),723941.5,B,dawn,I,n,172,3,2516.5,721425.0,9010,WL,A,2.0
6,4.799999952316284,distr,55200.000047683716,Wed Jan 21 2026 16:43:04 GMT-0500 (Eastern Standard Time),724324.6000003815,B,dawnenter,I,enter,356,3,2899.6000003814697,721425.0,9010,WL,A,2.0
6,5.266999959945679,distr,54733.00004005432,Wed Jan 21 2026 16:43:04 GMT-0500 (Eastern Standard Time),724791.9000005722,B,b,I,b,458,3,467.0,724324.9000005722,9010,WL,A,3.0
6,5.434000015258789,distr,54565.99998474121,Wed Jan 21 2026 16:43:04 GMT-0500 (Eastern Standard Time),724958.5,B,bo,I,o,148,3,633.5999994277954,724324.9000005722,9010,WL,A,3.0
6,5.601000070571899,distr,54398.9999294281,Wed Jan 21 2026 16:43:04 GMT-0500 (Eastern Standard Time),725125.3000001907,B,bow,I,w,157,3,800.3999996185303,724324.9000005722,9010,WL,A,3.0
6,6.266999959945679,distr,53733.00004005432,Wed Jan 21 2026 16:43:04 GMT-0500 (Eastern Standard Time),725791.8000001907,B,bowk,I,k,648,3,1466.8999996185303,724324.9000005722,9010,WL,A,3.0
6,6.91700005531311,distr,53082.99994468689,Wed Jan 21 2026 16:43:04 GMT-0500 (Eastern Standard Time),726441.8000001907,B,bow,I,backspace,635,3,2116.8999996185303,724324.9000005722,9010,WL,A,3.0
6,7.25,distr,52750.0,Wed Jan 21 2026 16:43:04 GMT-0500 (Eastern Standard Time),726775.0,B,bowl,I,l,321,3,2450.0999994277954,724324.9000005722,9010,WL,A,3.0
6,7.5329999923706055,distr,52467.000007629395,Wed Jan 21 2026 16:43:04 GMT-0500 (Eastern Standard Time),727058.0,B,bowlenter,I,enter,259,3,2733.0999994277954,724324.9000005722,9010,WL,A,3.0
6,8.200999975204468,distr,51799.00002479553,Wed Jan 21 2026 16:43:04 GMT-0500 (Eastern Standard Time),727725.1000003815,B,i,I,i,653,3,666.6999998092651,727058.4000005722,9010,WL,A,4.0
6,8.384000062942505,distr,51615.999937057495,Wed Jan 21 2026 16:43:04 GMT-0500 (Eastern Standard Time),727908.4000005722,B,in,I,n,157,3,850.0,727058.4000005722,9010,WL,A,4.0
6,8.634000062942505,distr,51365.999937057495,Wed Jan 21 2026 16:43:04 GMT-0500 (Eastern Standard Time),728158.4000005722,B,ins,I,s,223,3,1100.0,727058.4000005722,9010,WL,A,4.0
6,8.901000022888184,distr,51098.99997711182,Wed Jan 21 2026 16:43:04 GMT-0500 (Eastern Standard Time),728425.1000003815,B,inse,I,e,254,3,1366.6999998092651,727058.4000005722,9010,WL,A,4.0
6,9.151000022888184,distr,50848.99997711182,Wed Jan 21 2026 16:43:04 GMT-0500 (Eastern Standard Time),728675.1000003815,B,insec,I,c,227,3,1616.6999998092651,727058.4000005722,9010,WL,A,4.0
6,9.401000022888184,distr,50598.99997711182,Wed Jan 21 2026 16:43:04 GMT-0500 (Eastern Standard Time),728925.1000003815,B,insect,I,t,232,3,1866.6999998092651,727058.4000005722,9010,WL,A,4.0
6,9.733000040054321,distr,50266.99995994568,Wed Jan 21 2026 16:43:04 GMT-0500 (Eastern Standard Time),729258.0,B,insectenter,I,enter,318,3,2199.5999994277954,727058.4000005722,9010,WL,A,4.0
6,10.250999927520752,distr,49749.00007247925,Wed Jan 21 2026 16:43:04 GMT-0500 (Eastern Standard Time),729775.1000003815,B,p,I,p,500,3,516.8000001907349,729258.3000001907,9010,WL,A,5.0
6,10.467000007629395,distr,49532.999992370605,Wed Jan 21 2026 16:43:04 GMT-0500 (Eastern Standard Time),729991.6999998093,B,pl,I,l,203,3,733.3999996185303,729258.3000001907,9010,WL,A,5.0
6,10.6010000705719,distr,49398.9999294281,Wed Jan 21 2026 16:43:04 GMT-0500 (Eastern Standard Time),730125.1000003815,B,pla,I,a,116,3,866.8000001907349,729258.3000001907,9010,WL,A,5.0
6,10.884000062942505,distr,49115.999937057495,Wed Jan 21 2026 16:43:04 GMT-0500 (Eastern Standard Time),730408.4000005722,B,plan,I,n,263,3,1150.1000003814697,729258.3000001907,9010,WL,A,5.0
6,11.116999864578247,distr,48883.00013542175,Wed Jan 21 2026 16:43:04 GMT-0500 (Eastern Standard Time),730641.8000001907,B,plane,I,e,211,3,1383.5,729258.3000001907,9010,WL,A,5.0
6,11.432999849319458,distr,48567.00015068054,Wed Jan 21 2026 16:43:04 GMT-0500 (Eastern Standard Time),730958.0,B,planeenter,I,enter,287,3,1699.6999998092651,729258.3000001907,9010,WL,A,5.0
6,11.800999879837036,distr,48199.000120162964,Wed Jan 21 2026 16:43:04 GMT-0500 (Eastern Standard Time),731325.1000003815,B,c,I,c,353,3,366.9000005722046,730958.1999998093,9010,WL,A,6.0
6,12.000999927520752,distr,47999.00007247925,Wed Jan 21 2026 16:43:04 GMT-0500 (Eastern Standard Time),731525.1000003815,B,co,I,o,175,3,566.9000005722046,730958.1999998093,9010,WL,A,6.0
6,12.217000007629395,distr,47782.999992370605,Wed Jan 21 2026 16:43:04 GMT-0500 (Eastern Standard Time),731741.8000001907,B,cou,I,u,198,3,783.6000003814697,730958.1999998093,9010,WL,A,6.0
6,12.467000007629395,distr,47532.999992370605,Wed Jan 21 2026 16:43:04 GMT-0500 (Eastern Standard Time),731991.8000001907,B,coun,I,n,239,3,1033.6000003814697,730958.1999998093,9010,WL,A,6.0
6,12.583999872207642,distr,47416.00012779236,Wed Jan 21 2026 16:43:04 GMT-0500 (Eastern Standard Time),732108.4000005722,B,count,I,t,99,3,1150.2000007629395,730958.1999998093,9010,WL,A,6.0
6,12.849999904632568,distr,47150.00009536743,Wed Jan 21 2026 16:43:04 GMT-0500 (Eastern Standard Time),732375.0,B,counte,I,e,247,3,1416.8000001907349,730958.1999998093,9010,WL,A,6.0
6,13.016999959945679,distr,46983.00004005432,Wed Jan 21 2026 16:43:04 GMT-0500 (Eastern Standard Time),732541.6999998093,B,countey,I,y,149,3,1583.5,730958.1999998093,9010,WL,A,6.0
6,13.467000007629395,distr,46532.999992370605,Wed Jan 21 2026 16:43:04 GMT-0500 (Eastern Standard Time),732991.8000001907,B,counte,I,backspace,429,3,2033.6000003814697,730958.1999998093,9010,WL,A,6.0
6,13.616999864578247,distr,46383.00013542175,Wed Jan 21 2026 16:43:04 GMT-0500 (Eastern Standard Time),733141.6000003815,B,count,I,backspace,139,3,2183.4000005722046,730958.1999998093,9010,WL,A,6.0
6,14.266999959945679,distr,45733.00004005432,Wed Jan 21 2026 16:43:04 GMT-0500 (Eastern Standard Time),733791.8000001907,B,countr,I,r,629,3,2833.6000003814697,730958.1999998093,9010,WL,A,6.0
6,14.450999975204468,distr,45549.00002479553,Wed Jan 21 2026 16:43:04 GMT-0500 (Eastern Standard Time),733975.0,B,country,I,y,172,3,3016.800000190735,730958.1999998093,9010,WL,A,6.0
6,15.16700005531311,distr,44832.99994468689,Wed Jan 21 2026 16:43:04 GMT-0500 (Eastern Standard Time),734691.4000005722,B,countryenter,I,enter,682,3,3733.2000007629395,730958.1999998093,9010,WL,A,6.0
6,45.151000022888184,distr,14848.999977111816,Wed Jan 21 2026 16:43:04 GMT-0500 (Eastern Standard Time),764675.1000003815,B,d,I,d,29964,3,29983.5,734691.6000003815,9010,WL,A,7.0
6,45.43400001525879,distr,14565.999984741211,Wed Jan 21 2026 16:43:04 GMT-0500 (Eastern Standard Time),764958.3000001907,B,da,I,a,261,3,30266.699999809265,734691.6000003815,9010,WL,A,7.0
6,46.717000007629395,distr,13282.999992370605,Wed Jan 21 2026 16:43:04 GMT-0500 (Eastern Standard Time),766241.8000001907,B,dan,I,n,1262,3,31550.199999809265,734691.6000003815,9010,WL,A,7.0
6,47.14999985694885,distr,12850.000143051147,Wed Jan 21 2026 16:43:04 GMT-0500 (Eastern Standard Time),766674.6000003815,B,danenter,I,enter,409,3,31983.0,734691.6000003815,9010,WL,A,7.0
6,60.01699995994568,distr,-16.99995994567871,Wed Jan 21 2026 16:43:04 GMT-0500 (Eastern Standard Time),779541.1000003815,B,None,I,None,12859,3,12866.199999809265,766674.9000005722,9010,WL,A,8.0
7,2.7669999599456787,immed,57233.00004005432,Wed Jan 21 2026 16:43:04 GMT-0500 (Eastern Standard Time),784458.4000005722,A,a,I,a,2753,3,2766.4000005722046,781692.0,9010,WL,A,1.0
7,3.0,immed,57000.0,Wed Jan 21 2026 16:43:04 GMT-0500 (Eastern Standard Time),784691.6999998093,A,ap,I,p,209,3,2999.699999809265,781692.0,9010,WL,A,1.0
7,3.1499998569488525,immed,56850.00014305115,Wed Jan 21 2026 16:43:04 GMT-0500 (Eastern Standard Time),784841.8000001907,A,app,I,p,137,3,3149.800000190735,781692.0,9010,WL,A,1.0
7,3.366999864578247,immed,56633.00013542175,Wed Jan 21 2026 16:43:04 GMT-0500 (Eastern Standard Time),785058.4000005722,A,appl,I,l,193,3,3366.4000005722046,781692.0,9010,WL,A,1.0
7,3.482999801635742,immed,56517.00019836426,Wed Jan 21 2026 16:43:04 GMT-0500 (Eastern Standard Time),785174.9000005722,A,apple,I,e,105,3,3482.9000005722046,781692.0,9010,WL,A,1.0
7,3.815999984741211,immed,56184.00001525879,Wed Jan 21 2026 16:43:04 GMT-0500 (Eastern Standard Time),785507.9000005722,A,appleenter,I,enter,309,3,3815.9000005722046,781692.0,9010,WL,A,1.0
7,4.849999904632568,immed,55150.00009536743,Wed Jan 21 2026 16:43:04 GMT-0500 (Eastern Standard Time),786541.6999998093,A,r,I,r,1019,3,1033.5,785508.1999998093,9010,WL,A,2.0
7,5.0329999923706055,immed,54967.000007629395,Wed Jan 21 2026 16:43:04 GMT-0500 (Eastern Standard Time),786725.0,A,ra,I,a,155,3,1216.8000001907349,785508.1999998093,9010,WL,A,2.0
7,5.299999952316284,immed,54700.000047683716,Wed Jan 21 2026 16:43:04 GMT-0500 (Eastern Standard Time),786991.6999998093,A,rat,I,t,245,3,1483.5,785508.1999998093,9010,WL,A,2.0
7,5.482999801635742,immed,54517.00019836426,Wed Jan 21 2026 16:43:04 GMT-0500 (Eastern Standard Time),787174.9000005722,A,ratt,I,t,173,3,1666.7000007629395,785508.1999998093,9010,WL,A,2.0
7,5.616999864578247,immed,54383.00013542175,Wed Jan 21 2026 16:43:04 GMT-0500 (Eastern Standard Time),787308.3000001907,A,ratte,I,e,116,3,1800.1000003814697,785508.1999998093,9010,WL,A,2.0
7,6.1499998569488525,immed,53850.00014305115,Wed Jan 21 2026 16:43:04 GMT-0500 (Eastern Standard Time),787841.8000001907,A,ratt,I,backspace,512,3,2333.6000003814697,785508.1999998093,9010,WL,A,2.0
7,6.3999998569488525,immed,53600.00014305115,Wed Jan 21 2026 16:43:04 GMT-0500 (Eastern Standard Time),788091.8000001907,A,rattl,I,l,234,3,2583.6000003814697,785508.1999998093,9010,WL,A,2.0
7,6.549999952316284,immed,53450.000047683716,Wed Jan 21 2026 16:43:04 GMT-0500 (Eastern Standard Time),788241.6999998093,A,rattle,I,e,124,3,2733.5,785508.1999998093,9010,WL,A,2.0
7,6.83299994468689,immed,53167.00005531311,Wed Jan 21 2026 16:43:04 GMT-0500 (Eastern Standard Time),788524.5,A,rattleenter,I,enter,256,3,3016.300000190735,785508.1999998093,9010,WL,A,2.0
7,8.116999864578247,immed,51883.00013542175,Wed Jan 21 2026 16:43:04 GMT-0500 (Eastern Standard Time),789808.4000005722,A,g,I,g,1267,3,1283.5,788524.9000005722,9010,WL,A,3.0
7,8.282999992370605,immed,51717.000007629395,Wed Jan 21 2026 16:43:04 GMT-0500 (Eastern Standard Time),789974.9000005722,A,go,I,o,155,3,1450.0,788524.9000005722,9010,WL,A,3.0
7,8.533999919891357,immed,51466.00008010864,Wed Jan 21 2026 16:43:04 GMT-0500 (Eastern Standard Time),790225.0,A,gol,I,l,229,3,1700.0999994277954,788524.9000005722,9010,WL,A,3.0
7,8.882999897003174,immed,51117.000102996826,Wed Jan 21 2026 16:43:04 GMT-0500 (Eastern Standard Time),790575.0,A,gold,I,d,330,3,2050.0999994277954,788524.9000005722,9010,WL,A,3.0
7,9.182999849319458,immed,50817.00015068054,Wed Jan 21 2026 16:43:04 GMT-0500 (Eastern Standard Time),790874.6000003815,A,goldenter,I,enter,283,3,2349.699999809265,788524.9000005722,9010,WL,A,3.0
7,10.0,immed,50000.0,Wed Jan 21 2026 16:43:04 GMT-0500 (Eastern Standard Time),791691.6999998093,A,b,I,b,804,3,816.8999996185303,790874.8000001907,9010,WL,A,4.0
7,10.199999809265137,immed,49800.00019073486,Wed Jan 21 2026 16:43:04 GMT-0500 (Eastern Standard Time),791891.6999998093,A,bo,I,o,175,3,1016.8999996185303,790874.8000001907,9010,WL,A,4.0
7,10.382999897003174,immed,49617.000102996826,Wed Jan 21 2026 16:43:04 GMT-0500 (Eastern Standard Time),792075.0,A,boo,I,o,164,3,1200.1999998092651,790874.8000001907,9010,WL,A,4.0
7,10.616999864578247,immed,49383.00013542175,Wed Jan 21 2026 16:43:04 GMT-0500 (Eastern Standard Time),792308.4000005722,A,book,I,k,208,3,1433.6000003814697,790874.8000001907,9010,WL,A,4.0
7,10.965999841690063,immed,49034.00015830994,Wed Jan 21 2026 16:43:04 GMT-0500 (Eastern Standard Time),792657.8000001907,A,bookenter,I,enter,327,3,1783.0,790874.8000001907,9010,WL,A,4.0
7,11.383999824523926,immed,48616.000175476074,Wed Jan 21 2026 16:43:04 GMT-0500 (Eastern Standard Time),793075.1999998093,A,t,I,t,397,3,417.0,792658.1999998093,9010,WL,A,5.0
7,11.599999904632568,immed,48400.00009536743,Wed Jan 21 2026 16:43:04 GMT-0500 (Eastern Standard Time),793291.6999998093,A,tr,I,r,199,3,633.5,792658.1999998093,9010,WL,A,5.0
7,11.783999919891357,immed,48216.00008010864,Wed Jan 21 2026 16:43:04 GMT-0500 (Eastern Standard Time),793475.0,A,tra,I,a,157,3,816.8000001907349,792658.1999998093,9010,WL,A,5.0
7,11.967000007629395,immed,48032.999992370605,Wed Jan 21 2026 16:43:04 GMT-0500 (Eastern Standard Time),793658.3000001907,A,trai,I,i,168,3,1000.1000003814697,792658.1999998093,9010,WL,A,5.0
7,12.182999849319458,immed,47817.00015068054,Wed Jan 21 2026 16:43:04 GMT-0500 (Eastern Standard Time),793875.0,A,train,I,n,192,3,1216.8000001907349,792658.1999998093,9010,WL,A,5.0
7,12.5,immed,47500.0,Wed Jan 21 2026 16:43:04 GMT-0500 (Eastern Standard Time),794191.1999998093,A,trainenter,I,enter,287,3,1533.0,792658.1999998093,9010,WL,A,5.0
7,13.049999952316284,immed,46950.000047683716,Wed Jan 21 2026 16:43:04 GMT-0500 (Eastern Standard Time),794741.6000003815,A,r,I,r,528,3,550.1000003814697,794191.5,9010,WL,A,6.0
7,13.449999809265137,immed,46550.00019073486,Wed Jan 21 2026 16:43:04 GMT-0500 (Eastern Standard Time),795141.6999998093,A,ru,I,u,374,3,950.1999998092651,794191.5,9010,WL,A,6.0
7,13.682999849319458,immed,46317.00015068054,Wed Jan 21 2026 16:43:04 GMT-0500 (Eastern Standard Time),795375.0,A,rug,I,g,213,3,1183.5,794191.5,9010,WL,A,6.0
7,13.932999849319458,immed,46067.00015068054,Wed Jan 21 2026 16:43:04 GMT-0500 (Eastern Standard Time),795624.6000003815,A,rugenter,I,enter,236,3,1433.1000003814697,794191.5,9010,WL,A,6.0
7,14.449999809265137,immed,45550.00019073486,Wed Jan 21 2026 16:43:04 GMT-0500 (Eastern Standard Time),796141.6999998093,A,h,I,h,502,3,516.7999992370605,795624.9000005722,9010,WL,A,7.0
7,14.566999912261963,immed,45433.00008773804,Wed Jan 21 2026 16:43:04 GMT-0500 (Eastern Standard Time),796258.5,A,ha,I,a,94,3,633.5999994277954,795624.9000005722,9010,WL,A,7.0
7,14.733999967575073,immed,45266.00003242493,Wed Jan 21 2026 16:43:04 GMT-0500 (Eastern Standard Time),796425.1000003815,A,har,I,r,154,3,800.1999998092651,795624.9000005722,9010,WL,A,7.0
7,14.983999967575073,immed,45016.00003242493,Wed Jan 21 2026 16:43:04 GMT-0500 (Eastern Standard Time),796675.1000003815,A,harp,I,p,217,3,1050.1999998092651,795624.9000005722,9010,WL,A,7.0
7,15.549999952316284,immed,44450.000047683716,Wed Jan 21 2026 16:43:04 GMT-0500 (Eastern Standard Time),797241.1999998093,A,harpenter,I,enter,551,3,1616.2999992370605,795624.9000005722,9010,WL,A,7.0
7,17.882999897003174,immed,42117.000102996826,Wed Jan 21 2026 16:43:04 GMT-0500 (Eastern Standard Time),799575.0,A,c,I,c,2326,3,2333.5,797241.5,9010,WL,A,8.0
7,18.09999990463257,immed,41900.00009536743,Wed Jan 21 2026 16:43:04 GMT-0500 (Eastern Standard Time),799791.6999998093,A,ch,I,h,197,3,2550.199999809265,797241.5,9010,WL,A,8.0
7,18.932999849319458,immed,41067.00015068054,Wed Jan 21 2026 16:43:04 GMT-0500 (Eastern Standard Time),800625.0,A,chi,I,i,803,3,3383.5,797241.5,9010,WL,A,8.0
7,20.032999992370605,immed,39967.000007629395,Wed Jan 21 2026 16:43:04 GMT-0500 (Eastern Standard Time),801725.0,A,chim,I,m,1081,3,4483.5,797241.5,9010,WL,A,8.0
7,20.282999992370605,immed,39717.000007629395,Wed Jan 21 2026 16:43:04 GMT-0500 (Eastern Standard Time),801975.0,A,chimn,I,n,238,3,4733.5,797241.5,9010,WL,A,8.0
7,20.467000007629395,immed,39532.999992370605,Wed Jan 21 2026 16:43:04 GMT-0500 (Eastern Standard Time),802158.5,A,chimne,I,e,163,3,4917.0,797241.5,9010,WL,A,8.0
7,20.66699981689453,immed,39333.00018310547,Wed Jan 21 2026 16:43:04 GMT-0500 (Eastern Standard Time),802358.3000001907,A,chimney,I,y,181,3,5116.800000190735,797241.5,9010,WL,A,8.0
7,21.050999879837036,immed,38949.000120162964,Wed Jan 21 2026 16:43:04 GMT-0500 (Eastern Standard Time),802742.3000001907,A,chimneyenter,I,enter,373,3,5500.800000190735,797241.5,9010,WL,A,8.0
7,21.482999801635742,immed,38517.00019836426,Wed Jan 21 2026 16:43:04 GMT-0500 (Eastern Standard Time),803174.9000005722,A,f,I,f,424,3,432.30000019073486,802742.6000003815,9010,WL,A,9.0
7,21.68400001525879,immed,38315.99998474121,Wed Jan 21 2026 16:43:04 GMT-0500 (Eastern Standard Time),803375.1000003815,A,fi,I,i,180,3,632.5,802742.6000003815,9010,WL,A,9.0
7,21.84999990463257,immed,38150.00009536743,Wed Jan 21 2026 16:43:04 GMT-0500 (Eastern Standard Time),803541.5,A,fin,I,n,147,3,798.8999996185303,802742.6000003815,9010,WL,A,9.0
7,22.066999912261963,immed,37933.00008773804,Wed Jan 21 2026 16:43:04 GMT-0500 (Eastern Standard Time),803758.3000001907,A,fing,I,g,199,3,1015.6999998092651,802742.6000003815,9010,WL,A,9.0
7,22.25,immed,37750.0,Wed Jan 21 2026 16:43:04 GMT-0500 (Eastern Standard Time),803941.5,A,finge,I,e,174,3,1198.8999996185303,802742.6000003815,9010,WL,A,9.0
7,22.33299994468689,immed,37667.00005531311,Wed Jan 21 2026 16:43:04 GMT-0500 (Eastern Standard Time),804024.6000003815,A,finger,I,r,62,3,1282.0,802742.6000003815,9010,WL,A,9.0
7,22.732999801635742,immed,37267.00019836426,Wed Jan 21 2026 16:43:04 GMT-0500 (Eastern Standard Time),804424.6000003815,A,fingerenter,I,enter,387,3,1682.0,802742.6000003815,9010,WL,A,9.0
7,32.69999980926514,immed,27300.000190734863,Wed Jan 21 2026 16:43:04 GMT-0500 (Eastern Standard Time),814391.6999998093,A,l,I,l,9958,3,9966.79999923706,804424.9000005722,9010,WL,A,10.0
7,32.91699981689453,immed,27083.00018310547,Wed Jan 21 2026 16:43:04 GMT-0500 (Eastern Standard Time),814608.1999998093,A,lo,I,o,196,3,10183.29999923706,804424.9000005722,9010,WL,A,10.0
7,33.06599998474121,immed,26934.00001525879,Wed Jan 21 2026 16:43:04 GMT-0500 (Eastern Standard Time),814758.1000003815,A,log,I,g,130,3,10333.199999809265,804424.9000005722,9010,WL,A,10.0
7,33.34999990463257,immed,26650.00009536743,Wed Jan 21 2026 16:43:04 GMT-0500 (Eastern Standard Time),815041.1999998093,A,logenter,I,enter,253,3,10616.29999923706,804424.9000005722,9010,WL,A,10.0
7,34.132999897003174,immed,25867.000102996826,Wed Jan 21 2026 16:43:04 GMT-0500 (Eastern Standard Time),815824.4000005722,A,k,I,k,764,3,782.8000001907349,815041.6000003815,9010,WL,A,11.0
7,34.282999992370605,immed,25717.000007629395,Wed Jan 21 2026 16:43:04 GMT-0500 (Eastern Standard Time),815974.1999998093,A,ke,I,e,140,3,932.5999994277954,815041.6000003815,9010,WL,A,11.0
7,34.532999992370605,immed,25467.000007629395,Wed Jan 21 2026 16:43:04 GMT-0500 (Eastern Standard Time),816224.8000001907,A,key,I,y,231,3,1183.1999998092651,815041.6000003815,9010,WL,A,11.0
7,34.91599988937378,immed,25084.00011062622,Wed Jan 21 2026 16:43:04 GMT-0500 (Eastern Standard Time),816607.9000005722,A,keyenter,I,enter,362,3,1566.3000001907349,815041.6000003815,9010,WL,A,11.0
7,42.06699991226196,immed,17933.000087738037,Wed Jan 21 2026 16:43:04 GMT-0500 (Eastern Standard Time),823758.3000001907,A,a,I,a,7135,3,7150.0,816608.3000001907,9010,WL,A,12.0
7,42.282999992370605,immed,17717.000007629395,Wed Jan 21 2026 16:43:04 GMT-0500 (Eastern Standard Time),823975.0,A,ap,I,p,203,3,7366.699999809265,816608.3000001907,9010,WL,A,12.0
7,42.48299980163574,immed,17517.000198364258,Wed Jan 21 2026 16:43:04 GMT-0500 (Eastern Standard Time),824174.9000005722,A,app,I,p,172,3,7566.60000038147,816608.3000001907,9010,WL,A,12.0
7,42.66599988937378,immed,17334.00011062622,Wed Jan 21 2026 16:43:04 GMT-0500 (Eastern Standard Time),824358.0,A,appl,I,l,172,3,7749.699999809265,816608.3000001907,9010,WL,A,12.0
7,42.81699991226196,immed,17183.000087738037,Wed Jan 21 2026 16:43:04 GMT-0500 (Eastern Standard Time),824508.3000001907,A,apple,I,e,132,3,7900.0,816608.3000001907,9010,WL,A,12.0
7,43.050999879837036,immed,16949.000120162964,Wed Jan 21 2026 16:43:04 GMT-0500 (Eastern Standard Time),824742.3000001907,A,appleenter,I,enter,219,3,8134.0,816608.3000001907,9010,WL,A,12.0
7,46.032999992370605,immed,13967.000007629395,Wed Jan 21 2026 16:43:04 GMT-0500 (Eastern Standard Time),827725.0,A,c,I,c,2969,3,2982.3999996185303,824742.6000003815,9010,WL,A,13.0
7,46.23299980163574,immed,13767.000198364258,Wed Jan 21 2026 16:43:04 GMT-0500 (Eastern Standard Time),827924.9000005722,A,ch,I,h,175,3,3182.300000190735,824742.6000003815,9010,WL,A,13.0
7,46.5,immed,13500.0,Wed Jan 21 2026 16:43:04 GMT-0500 (Eastern Standard Time),828191.6999998093,A,chi,I,i,237,3,3449.0999994277954,824742.6000003815,9010,WL,A,13.0
7,46.76699995994568,immed,13233.000040054321,Wed Jan 21 2026 16:43:04 GMT-0500 (Eastern Standard Time),828458.5,A,chim,I,m,252,3,3715.8999996185303,824742.6000003815,9010,WL,A,13.0
7,47.33299994468689,immed,12667.00005531311,Wed Jan 21 2026 16:43:04 GMT-0500 (Eastern Standard Time),829025.0,A,chimn,I,n,546,3,4282.39999961853,824742.6000003815,9010,WL,A,13.0
7,47.5,immed,12500.0,Wed Jan 21 2026 16:43:04 GMT-0500 (Eastern Standard Time),829191.6000003815,A,chimne,I,e,155,3,4449.0,824742.6000003815,9010,WL,A,13.0
7,47.717000007629395,immed,12282.999992370605,Wed Jan 21 2026 16:43:04 GMT-0500 (Eastern Standard Time),829408.4000005722,A,chimney,I,y,195,3,4665.800000190735,824742.6000003815,9010,WL,A,13.0
7,48.09999990463257,immed,11900.000095367432,Wed Jan 21 2026 16:43:04 GMT-0500 (Eastern Standard Time),829791.1000003815,A,chimneyenter,I,enter,363,3,5048.5,824742.6000003815,9010,WL,A,13.0
7,56.23299980163574,immed,3767.000198364258,Wed Jan 21 2026 16:43:04 GMT-0500 (Eastern Standard Time),837925.0,A,h,I,h,8112,3,8133.599999427795,829791.4000005722,9010,WL,A,14.0
7,56.34999990463257,immed,3650.0000953674316,Wed Jan 21 2026 16:43:04 GMT-0500 (Eastern Standard Time),838041.6999998093,A,ha,I,a,102,3,8250.29999923706,829791.4000005722,9010,WL,A,14.0
7,56.532999992370605,immed,3467.0000076293945,Wed Jan 21 2026 16:43:04 GMT-0500 (Eastern Standard Time),838224.9000005722,A,har,I,r,163,3,8433.5,829791.4000005722,9010,WL,A,14.0
7,56.91699981689453,immed,3083.0001831054688,Wed Jan 21 2026 16:43:04 GMT-0500 (Eastern Standard Time),838608.4000005722,A,harp,I,p,363,3,8817.0,829791.4000005722,9010,WL,A,14.0
7,57.299999952316284,immed,2700.000047683716,Wed Jan 21 2026 16:43:04 GMT-0500 (Eastern Standard Time),838991.1999998093,A,harpenter,I,enter,362,3,9199.79999923706,829791.4000005722,9010,WL,A,14.0
7,58.26599979400635,immed,1734.0002059936523,Wed Jan 21 2026 16:43:04 GMT-0500 (Eastern Standard Time),839958.0,A,g,I,g,960,3,966.5999994277954,838991.4000005722,9010,WL,A,15.0
7,58.41699981689453,immed,1583.0001831054688,Wed Jan 21 2026 16:43:04 GMT-0500 (Eastern Standard Time),840108.3000001907,A,go,I,o,133,3,1116.8999996185303,838991.4000005722,9010,WL,A,15.0
7,58.633999824523926,immed,1366.0001754760742,Wed Jan 21 2026 16:43:04 GMT-0500 (Eastern Standard Time),840325.1999998093,A,gol,I,l,207,3,1333.7999992370605,838991.4000005722,9010,WL,A,15.0
7,58.882999897003174,immed,1117.0001029968262,Wed Jan 21 2026 16:43:04 GMT-0500 (Eastern Standard Time),840575.0,A,gold,I,d,231,3,1583.5999994277954,838991.4000005722,9010,WL,A,15.0
7,59.23299980163574,immed,767.0001983642578,Wed Jan 21 2026 16:43:04 GMT-0500 (Eastern Standard Time),840924.6000003815,A,goldenter,I,enter,332,3,1933.1999998092651,838991.4000005722,9010,WL,A,15.0
