Number,acc_sum,block,block_c,block_cond,con_img,correct,correct_response,datetime,endtime,jitter,project,response,response_time,row_sel,session_number,start_end,starttime,subject_id,task,task_vers,trial
3,1,prac,1,A,circle.png,1,z,Wed Jun 25 2025 13:08:28 GMT-0500 (Central Daylight Time),70084.20000000298,1200,O,z,802,3,1,2774.3999999910593,67309.80000001192,7178,NTS,C,1
7,2,prac,1,A,circle.png,1,m,Wed Jun 25 2025 13:08:28 GMT-0500 (Central Daylight Time),73231.10000000894,1700,O,m,649,6,1,3139.2999999970198,70091.80000001192,7178,NTS,C,2
6,3,prac,1,A,circle.png,1,m,Wed Jun 25 2025 13:08:28 GMT-0500 (Central Daylight Time),76478.90000000596,1900,O,m,550,5,1,3239.4000000059605,73239.5,7178,NTS,C,3
4,4,prac,1,A,circle.png,1,z,Wed Jun 25 2025 13:08:28 GMT-0500 (Central Daylight Time),79147.5,1400,O,z,497,4,1,2658.3999999910593,76489.10000000894,7178,NTS,C,4
8,5,prac,1,A,circle.png,1,m,Wed Jun 25 2025 13:08:28 GMT-0500 (Central Daylight Time),82112.90000000596,1600,O,m,590,7,1,2958.2999999970198,79154.60000000894,7178,NTS,C,5
8,6,prac,1,A,circle.png,1,m,Wed Jun 25 2025 13:08:28 GMT-0500 (Central Daylight Time),85094.80000001192,1600,O,m,583,7,1,2975.800000011921,82119.0,7178,NTS,C,6
1,7,prac,1,A,circle.png,1,z,Wed Jun 25 2025 13:08:28 GMT-0500 (Central Daylight Time),87444.80000001192,1000,O,z,554,1,1,2344.2000000029802,85100.60000000894,7178,NTS,C,7
1,8,prac,1,A,circle.png,1,z,Wed Jun 25 2025 13:08:28 GMT-0500 (Central Daylight Time),89844.20000000298,1000,O,z,605,1,1,2392.8999999910593,87451.30000001192,7178,NTS,C,8
9,9,prac,1,A,circle.png,1,m,Wed Jun 25 2025 13:08:28 GMT-0500 (Central Daylight Time),92790.90000000596,1500,O,m,649,8,1,2940.0999999940395,89850.80000001192,7178,NTS,C,9
2,10,prac,1,A,circle.png,1,z,Wed Jun 25 2025 13:08:28 GMT-0500 (Central Daylight Time),96139.10000000894,2000,O,z,562,2,1,3340.5,92798.60000000894,7178,NTS,C,10
9,11,prac,1,A,circle.png,1,m,Wed Jun 25 2025 13:08:28 GMT-0500 (Central Daylight Time),99024.0,1500,O,m,590,8,1,2877.8999999910593,96146.10000000894,7178,NTS,C,11
2,12,prac,1,A,circle.png,1,z,Wed Jun 25 2025 13:08:28 GMT-0500 (Central Daylight Time),102289.90000000596,2000,O,z,481,2,1,3259.2000000029802,99030.70000000298,7178,NTS,C,12
7,1,prac,1,B,triangle.png,1,z,Wed Jun 25 2025 13:08:28 GMT-0500 (Central Daylight Time),137859.10000000894,2000,O,z,1287,6,1,4070.7999999970198,133788.30000001192,7178,NTS,C,1
3,2,prac,1,B,triangle.png,1,z,Wed Jun 25 2025 13:08:28 GMT-0500 (Central Daylight Time),141041.10000000894,1600,O,z,779,3,1,3177.7000000029802,137863.40000000596,7178,NTS,C,2
9,3,prac,1,B,triangle.png,1,z,Wed Jun 25 2025 13:08:28 GMT-0500 (Central Daylight Time),143859.70000000298,1400,O,z,638,8,1,2814.3999999910593,141045.30000001192,7178,NTS,C,3
1,4,prac,1,B,triangle.png,1,z,Wed Jun 25 2025 13:08:28 GMT-0500 (Central Daylight Time),147175.10000000894,1900,O,z,633,1,1,3308.6000000089407,143866.5,7178,NTS,C,4
7,5,prac,1,B,triangle.png,1,z,Wed Jun 25 2025 13:08:28 GMT-0500 (Central Daylight Time),150540.60000000894,2000,O,z,580,6,1,3358.7000000029802,147181.90000000596,7178,NTS,C,5
8,6,prac,1,B,triangle.png,1,m,Wed Jun 25 2025 13:08:28 GMT-0500 (Central Daylight Time),153155.70000000298,1200,O,m,620,7,1,2607.2000000029802,150548.5,7178,NTS,C,6
9,7,prac,1,B,triangle.png,1,z,Wed Jun 25 2025 13:08:28 GMT-0500 (Central Daylight Time),155956.0,1400,O,z,616,8,1,2791.0,153165.0,7178,NTS,C,7
2,8,prac,1,B,triangle.png,1,m,Wed Jun 25 2025 13:08:28 GMT-0500 (Central Daylight Time),159171.60000000894,1700,O,m,721,2,1,3207.7000000029802,155963.90000000596,7178,NTS,C,8
8,9,prac,1,B,triangle.png,1,m,Wed Jun 25 2025 13:08:28 GMT-0500 (Central Daylight Time),162054.30000001192,1200,O,m,909,7,1,2874.6000000089407,159179.70000000298,7178,NTS,C,9
3,10,prac,1,B,triangle.png,1,z,Wed Jun 25 2025 13:08:28 GMT-0500 (Central Daylight Time),165120.40000000596,1600,O,z,684,3,1,3057.4000000059605,162063.0,7178,NTS,C,10
6,11,prac,1,B,triangle.png,1,m,Wed Jun 25 2025 13:08:28 GMT-0500 (Central Daylight Time),167651.30000001192,1000,O,m,736,5,1,2525.7000000029802,165125.60000000894,7178,NTS,C,11
4,12,prac,1,B,triangle.png,1,m,Wed Jun 25 2025 13:08:28 GMT-0500 (Central Daylight Time),170716.80000001192,1500,O,m,777,4,1,3058.2000000029802,167658.60000000894,7178,NTS,C,12
2,1,test,1,A,circle.png,1,z,Wed Jun 25 2025 13:08:28 GMT-0500 (Central Daylight Time),195408.0,2000,O,z,1090,2,1,3109.5,192298.5,7178,NTS,C,1
9,2,test,1,A,circle.png,1,m,Wed Jun 25 2025 13:08:28 GMT-0500 (Central Daylight Time),197473.40000000596,1500,O,m,540,8,1,2062.2999999970198,195411.10000000894,7178,NTS,C,2
1,3,test,1,A,circle.png,1,z,Wed Jun 25 2025 13:08:28 GMT-0500 (Central Daylight Time),199025.0,1000,O,z,526,1,1,1548.7999999970198,197476.20000000298,7178,NTS,C,3
2,4,test,1,A,circle.png,1,z,Wed Jun 25 2025 13:08:28 GMT-0500 (Central Daylight Time),201591.70000000298,2000,O,z,534,2,1,2562.8999999910593,199028.80000001192,7178,NTS,C,4
9,5,test,1,A,circle.png,1,m,Wed Jun 25 2025 13:08:28 GMT-0500 (Central Daylight Time),203656.70000000298,1500,O,m,541,8,1,2061.0,201595.70000000298,7178,NTS,C,5
9,6,test,1,A,circle.png,1,m,Wed Jun 25 2025 13:08:28 GMT-0500 (Central Daylight Time),205822.10000000894,1500,O,m,641,8,1,2160.7000000029802,203661.40000000596,7178,NTS,C,6
7,7,test,1,A,circle.png,1,m,Wed Jun 25 2025 13:08:28 GMT-0500 (Central Daylight Time),208153.80000001192,1700,O,m,605,6,1,2327.5,205826.30000001192,7178,NTS,C,7
7,8,test,1,A,circle.png,1,m,Wed Jun 25 2025 13:08:28 GMT-0500 (Central Daylight Time),210403.40000000596,1700,O,m,528,6,1,2245.0,208158.40000000596,7178,NTS,C,8
8,9,test,1,A,circle.png,1,m,Wed Jun 25 2025 13:08:28 GMT-0500 (Central Daylight Time),212687.5,1600,O,m,661,7,1,2279.3999999910593,210408.10000000894,7178,NTS,C,9
7,10,test,1,A,circle.png,1,m,Wed Jun 25 2025 13:08:28 GMT-0500 (Central Daylight Time),214936.60000000894,1700,O,m,526,6,1,2244.7999999970198,212691.80000001192,7178,NTS,C,10
2,11,test,1,A,circle.png,1,z,Wed Jun 25 2025 13:08:28 GMT-0500 (Central Daylight Time),217535.80000001192,2000,O,z,568,2,1,2594.7000000029802,214941.10000000894,7178,NTS,C,11
3,12,test,1,A,circle.png,1,z,Wed Jun 25 2025 13:08:28 GMT-0500 (Central Daylight Time),219401.80000001192,1200,O,z,641,3,1,1860.6000000089407,217541.20000000298,7178,NTS,C,12
4,13,test,1,A,circle.png,1,z,Wed Jun 25 2025 13:08:28 GMT-0500 (Central Daylight Time),221452.10000000894,1400,O,z,632,4,1,2044.2000000029802,219407.90000000596,7178,NTS,C,13
4,14,test,1,A,circle.png,1,z,Wed Jun 25 2025 13:08:28 GMT-0500 (Central Daylight Time),223416.80000001192,1400,O,z,542,4,1,1959.300000011921,221457.5,7178,NTS,C,14
3,15,test,1,A,circle.png,1,z,Wed Jun 25 2025 13:08:28 GMT-0500 (Central Daylight Time),225085.20000000298,1200,O,z,433,3,1,1663.0,223422.20000000298,7178,NTS,C,15
6,16,test,1,A,circle.png,1,m,Wed Jun 25 2025 13:08:28 GMT-0500 (Central Daylight Time),227483.60000000894,1900,O,m,464,5,1,2392.6000000089407,225091.0,7178,NTS,C,16
9,17,test,1,A,circle.png,1,m,Wed Jun 25 2025 13:08:28 GMT-0500 (Central Daylight Time),229597.70000000298,1500,O,m,594,8,1,2107.5999999940395,227490.10000000894,7178,NTS,C,17
1,18,test,1,A,circle.png,1,z,Wed Jun 25 2025 13:08:28 GMT-0500 (Central Daylight Time),231282.10000000894,1000,O,z,648,1,1,1678.7999999970198,229603.30000001192,7178,NTS,C,18
6,19,test,1,A,circle.png,1,m,Wed Jun 25 2025 13:08:28 GMT-0500 (Central Daylight Time),233796.70000000298,1900,O,m,588,5,1,2509.7999999970198,231286.90000000596,7178,NTS,C,19
6,20,test,1,A,circle.png,1,m,Wed Jun 25 2025 13:08:28 GMT-0500 (Central Daylight Time),236249.60000000894,1900,O,m,534,5,1,2447.4000000059605,233802.20000000298,7178,NTS,C,20
3,21,test,1,A,circle.png,1,z,Wed Jun 25 2025 13:08:28 GMT-0500 (Central Daylight Time),238198.0,1200,O,z,732,3,1,1943.0,236255.0,7178,NTS,C,21
7,22,test,1,A,circle.png,1,m,Wed Jun 25 2025 13:08:28 GMT-0500 (Central Daylight Time),240443.80000001192,1700,O,m,520,6,1,2241.800000011921,238202.0,7178,NTS,C,22
1,23,test,1,A,circle.png,1,z,Wed Jun 25 2025 13:08:28 GMT-0500 (Central Daylight Time),242010.90000000596,1000,O,z,529,1,1,1561.5,240449.40000000596,7178,NTS,C,23
8,24,test,1,A,circle.png,1,m,Wed Jun 25 2025 13:08:28 GMT-0500 (Central Daylight Time),244143.60000000894,1600,O,m,502,7,1,2128.1000000089407,242015.5,7178,NTS,C,24
6,1,test,1,B,triangle.png,1,m,Wed Jun 25 2025 13:08:28 GMT-0500 (Central Daylight Time),264504.60000000894,1000,O,m,867,5,1,1896.7000000029802,262607.90000000596,7178,NTS,C,1
2,2,test,1,B,triangle.png,1,m,Wed Jun 25 2025 13:08:28 GMT-0500 (Central Daylight Time),266852.3000000119,1700,O,m,629,2,1,2340.5,264511.8000000119,7178,NTS,C,2
6,3,test,1,B,triangle.png,1,m,Wed Jun 25 2025 13:08:28 GMT-0500 (Central Daylight Time),268918.200000003,1500,O,m,535,13,1,2058.5,266859.700000003,7178,NTS,C,3
3,4,test,1,B,triangle.png,1,z,Wed Jun 25 2025 13:08:28 GMT-0500 (Central Daylight Time),271151.5,1600,O,z,610,3,1,2224.699999988079,268926.8000000119,7178,NTS,C,4
8,5,test,1,B,triangle.png,1,m,Wed Jun 25 2025 13:08:28 GMT-0500 (Central Daylight Time),273515.200000003,1700,O,m,645,15,1,2359.0999999940395,271156.10000000894,7178,NTS,C,5
6,6,test,1,B,triangle.png,1,m,Wed Jun 25 2025 13:08:28 GMT-0500 (Central Daylight Time),275583.3000000119,1500,O,m,543,13,1,2065.300000011921,273518.0,7178,NTS,C,6
4,7,test,1,B,triangle.png,1,m,Wed Jun 25 2025 13:08:28 GMT-0500 (Central Daylight Time),277683.40000000596,1000,O,m,1081,12,1,2094.7999999970198,275588.60000000894,7178,NTS,C,7
7,8,test,1,B,triangle.png,1,z,Wed Jun 25 2025 13:08:28 GMT-0500 (Central Daylight Time),280566.0,2000,O,z,854,6,1,2878.199999988079,277687.8000000119,7178,NTS,C,8
7,9,test,1,B,triangle.png,1,z,Wed Jun 25 2025 13:08:28 GMT-0500 (Central Daylight Time),282863.8000000119,1600,O,z,673,14,1,2289.7000000029802,280574.10000000894,7178,NTS,C,9
2,10,test,1,B,triangle.png,1,m,Wed Jun 25 2025 13:08:28 GMT-0500 (Central Daylight Time),284764.700000003,1200,O,m,670,10,1,1896.0,282868.700000003,7178,NTS,C,10
3,11,test,1,B,triangle.png,1,z,Wed Jun 25 2025 13:08:28 GMT-0500 (Central Daylight Time),287446.200000003,2000,O,z,661,11,1,2675.7000000029802,284770.5,7178,NTS,C,11
7,12,test,1,B,triangle.png,1,z,Wed Jun 25 2025 13:08:28 GMT-0500 (Central Daylight Time),290396.200000003,2000,O,z,923,6,1,2944.7000000029802,287451.5,7178,NTS,C,12
3,13,test,1,B,triangle.png,1,z,Wed Jun 25 2025 13:08:28 GMT-0500 (Central Daylight Time),292562.40000000596,1600,O,z,541,3,1,2159.9000000059605,290402.5,7178,NTS,C,13
7,14,test,1,B,triangle.png,1,z,Wed Jun 25 2025 13:08:28 GMT-0500 (Central Daylight Time),295011.60000000894,1600,O,z,823,14,1,2444.7000000029802,292566.90000000596,7178,NTS,C,14
4,15,test,1,B,triangle.png,1,m,Wed Jun 25 2025 13:08:28 GMT-0500 (Central Daylight Time),297110.0,1500,O,m,570,4,1,2094.0999999940395,295015.90000000596,7178,NTS,C,15
1,16,test,1,B,triangle.png,1,z,Wed Jun 25 2025 13:08:28 GMT-0500 (Central Daylight Time),299142.60000000894,1400,O,z,611,9,1,2028.1000000089407,297114.5,7178,NTS,C,16
9,17,test,1,B,triangle.png,1,z,Wed Jun 25 2025 13:08:28 GMT-0500 (Central Daylight Time),301608.90000000596,1900,O,z,533,16,1,2462.2000000029802,299146.700000003,7178,NTS,C,17
4,18,test,1,B,triangle.png,1,m,Wed Jun 25 2025 13:08:28 GMT-0500 (Central Daylight Time),303141.200000003,1000,O,m,516,12,1,1528.0,301613.200000003,7178,NTS,C,18
2,19,test,1,B,triangle.png,1,m,Wed Jun 25 2025 13:08:28 GMT-0500 (Central Daylight Time),305476.0,1700,O,m,609,2,1,2330.7999999970198,303145.200000003,7178,NTS,C,19
1,20,test,1,B,triangle.png,1,z,Wed Jun 25 2025 13:08:28 GMT-0500 (Central Daylight Time),307456.8000000119,1400,O,z,550,9,1,1976.300000011921,305480.5,7178,NTS,C,20
3,21,test,1,B,triangle.png,1,z,Wed Jun 25 2025 13:08:28 GMT-0500 (Central Daylight Time),310122.60000000894,2000,O,z,641,11,1,2659.9000000059605,307462.700000003,7178,NTS,C,21
8,22,test,1,B,triangle.png,1,m,Wed Jun 25 2025 13:08:28 GMT-0500 (Central Daylight Time),312154.8000000119,1200,O,m,806,7,1,2027.7000000029802,310127.10000000894,7178,NTS,C,22
9,23,test,1,B,triangle.png,1,z,Wed Jun 25 2025 13:08:28 GMT-0500 (Central Daylight Time),314188.3000000119,1400,O,z,606,8,1,2029.4000000059605,312158.90000000596,7178,NTS,C,23
1,24,test,1,B,triangle.png,1,z,Wed Jun 25 2025 13:08:28 GMT-0500 (Central Daylight Time),316651.10000000894,1900,O,z,545,1,1,2458.0,314193.10000000894,7178,NTS,C,24
9,1,prac,1,C,circle.png,1,m,Wed Jun 25 2025 13:08:28 GMT-0500 (Central Daylight Time),364771.3000000119,1900,O,m,995,8,1,3672.800000011921,361098.5,7178,NTS,C,1
2,2,prac,1,C,triangle.png,1,m,Wed Jun 25 2025 13:08:28 GMT-0500 (Central Daylight Time),368137.200000003,1600,O,m,974,2,1,3358.3999999910593,364778.8000000119,7178,NTS,C,2
8,3,prac,1,C,triangle.png,1,m,Wed Jun 25 2025 13:08:28 GMT-0500 (Central Daylight Time),371504.60000000894,1400,O,m,1167,7,1,3361.2999999970198,368143.3000000119,7178,NTS,C,3
3,4,prac,1,C,triangle.png,1,z,Wed Jun 25 2025 13:08:28 GMT-0500 (Central Daylight Time),374651.10000000894,1500,O,z,860,3,1,3138.7999999970198,371512.3000000119,7178,NTS,C,4
3,5,prac,1,C,triangle.png,1,z,Wed Jun 25 2025 13:08:28 GMT-0500 (Central Daylight Time),377732.700000003,1500,O,z,793,3,1,3073.7999999970198,374658.90000000596,7178,NTS,C,5
7,6,prac,1,C,triangle.png,1,z,Wed Jun 25 2025 13:08:28 GMT-0500 (Central Daylight Time),380565.8000000119,1200,O,z,835,6,1,2829.6000000089407,377736.200000003,7178,NTS,C,6
7,7,prac,1,C,triangle.png,1,z,Wed Jun 25 2025 13:08:28 GMT-0500 (Central Daylight Time),383183.8000000119,1200,O,z,633,6,1,2610.300000011921,380573.5,7178,NTS,C,7
8,8,prac,1,C,triangle.png,1,m,Wed Jun 25 2025 13:08:28 GMT-0500 (Central Daylight Time),386115.8000000119,1400,O,m,738,7,1,2923.4000000059605,383192.40000000596,7178,NTS,C,8
4,8,prac,1,C,circle.png,0,z,Wed Jun 25 2025 13:08:28 GMT-0500 (Central Daylight Time),389413.0,1000,O,None,1515,4,1,3289.3999999910593,386123.60000000894,7178,NTS,C,9
9,9,prac,1,C,circle.png,1,m,Wed Jun 25 2025 13:08:28 GMT-0500 (Central Daylight Time),393579.8000000119,1900,O,m,1470,8,1,4162.70000000298,389417.10000000894,7178,NTS,C,10
6,10,prac,1,C,circle.png,1,m,Wed Jun 25 2025 13:08:28 GMT-0500 (Central Daylight Time),397113.60000000894,2000,O,m,748,5,1,3527.6000000089407,393586.0,7178,NTS,C,11
1,11,prac,1,C,circle.png,1,z,Wed Jun 25 2025 13:08:28 GMT-0500 (Central Daylight Time),400361.3000000119,1700,O,z,756,1,1,3236.5,397124.8000000119,7178,NTS,C,12
3,1,test,1,C,circle.png,1,z,Wed Jun 25 2025 13:08:28 GMT-0500 (Central Daylight Time),417836.90000000596,1600,O,z,794,11,1,2409.7999999970198,415427.10000000894,7178,NTS,C,1
7,2,test,1,C,triangle.png,1,z,Wed Jun 25 2025 13:08:28 GMT-0500 (Central Daylight Time),420571.3000000119,1700,O,z,1016,22,1,2727.9000000059605,417843.40000000596,7178,NTS,C,2
1,3,test,1,C,triangle.png,1,z,Wed Jun 25 2025 13:08:28 GMT-0500 (Central Daylight Time),423085.5,1900,O,z,595,17,1,2510.0,420575.5,7178,NTS,C,3
8,3,test,1,C,triangle.png,0,m,Wed Jun 25 2025 13:08:28 GMT-0500 (Central Daylight Time),425452.60000000894,1600,O,z,749,23,1,2362.7000000029802,423089.90000000596,7178,NTS,C,4
9,4,test,1,C,circle.png,1,m,Wed Jun 25 2025 13:08:28 GMT-0500 (Central Daylight Time),427917.60000000894,1500,O,m,936,24,1,2460.7000000029802,425456.90000000596,7178,NTS,C,5
6,5,test,1,C,triangle.png,1,m,Wed Jun 25 2025 13:08:28 GMT-0500 (Central Daylight Time),429719.0,1000,O,m,766,13,1,1796.699999988079,427922.3000000119,7178,NTS,C,6
3,6,test,1,C,circle.png,1,z,Wed Jun 25 2025 13:08:28 GMT-0500 (Central Daylight Time),432150.5,1600,O,z,804,19,1,2427.0,429723.5,7178,NTS,C,7
2,7,test,1,C,circle.png,1,z,Wed Jun 25 2025 13:08:28 GMT-0500 (Central Daylight Time),434816.8000000119,1700,O,z,933,18,1,2662.1000000089407,432154.700000003,7178,NTS,C,8
4,8,test,1,C,triangle.png,1,m,Wed Jun 25 2025 13:08:28 GMT-0500 (Central Daylight Time),437082.8000000119,1500,O,m,743,12,1,2261.9000000059605,434820.90000000596,7178,NTS,C,9
6,9,test,1,C,circle.png,1,m,Wed Jun 25 2025 13:08:28 GMT-0500 (Central Daylight Time),440030.3000000119,1900,O,m,1025,21,1,2943.2000000029802,437087.10000000894,7178,NTS,C,10
8,10,test,1,C,triangle.png,1,m,Wed Jun 25 2025 13:08:28 GMT-0500 (Central Daylight Time),442298.10000000894,1600,O,m,641,7,1,2264.6000000089407,440033.5,7178,NTS,C,11
7,11,test,1,C,triangle.png,1,z,Wed Jun 25 2025 13:08:28 GMT-0500 (Central Daylight Time),444896.3000000119,1700,O,z,876,6,1,2594.2000000029802,442302.10000000894,7178,NTS,C,12
2,12,test,1,C,circle.png,1,z,Wed Jun 25 2025 13:08:28 GMT-0500 (Central Daylight Time),447344.90000000596,1700,O,z,724,10,1,2444.5999999940395,444900.3000000119,7178,NTS,C,13
6,13,test,1,C,circle.png,1,m,Wed Jun 25 2025 13:08:28 GMT-0500 (Central Daylight Time),450110.60000000894,1900,O,m,836,5,1,2761.1000000089407,447349.5,7178,NTS,C,14
1,14,test,1,C,triangle.png,1,z,Wed Jun 25 2025 13:08:28 GMT-0500 (Central Daylight Time),452710.60000000894,1900,O,z,679,9,1,2595.9000000059605,450114.700000003,7178,NTS,C,15
4,15,test,1,C,circle.png,1,z,Wed Jun 25 2025 13:08:28 GMT-0500 (Central Daylight Time),455027.3000000119,1400,O,z,882,4,1,2311.7000000029802,452715.60000000894,7178,NTS,C,16
4,15,test,1,C,triangle.png,0,m,Wed Jun 25 2025 13:08:28 GMT-0500 (Central Daylight Time),457442.60000000894,1500,O,z,893,20,1,2408.4000000059605,455034.200000003,7178,NTS,C,17
1,16,test,1,C,circle.png,1,z,Wed Jun 25 2025 13:08:28 GMT-0500 (Central Daylight Time),459175.3000000119,1000,O,z,711,1,1,1727.0,457448.3000000119,7178,NTS,C,18
2,17,test,1,C,triangle.png,1,m,Wed Jun 25 2025 13:08:28 GMT-0500 (Central Daylight Time),462024.10000000894,2000,O,m,816,2,1,2843.5,459180.60000000894,7178,NTS,C,19
9,18,test,1,C,circle.png,1,m,Wed Jun 25 2025 13:08:28 GMT-0500 (Central Daylight Time),464356.60000000894,1500,O,m,814,8,1,2328.0,462028.60000000894,7178,NTS,C,20
8,19,test,1,C,circle.png,1,m,Wed Jun 25 2025 13:08:28 GMT-0500 (Central Daylight Time),466405.90000000596,1200,O,m,821,15,1,2043.5999999940395,464362.3000000119,7178,NTS,C,21
3,20,test,1,C,triangle.png,1,z,Wed Jun 25 2025 13:08:28 GMT-0500 (Central Daylight Time),468638.0,1200,O,z,1011,3,1,2228.8999999910593,466409.10000000894,7178,NTS,C,22
9,20,test,1,C,triangle.png,0,z,Wed Jun 25 2025 13:08:28 GMT-0500 (Central Daylight Time),470804.5,1400,O,m,737,16,1,2161.7999999970198,468642.700000003,7178,NTS,C,23
7,21,test,1,C,circle.png,1,m,Wed Jun 25 2025 13:08:28 GMT-0500 (Central Daylight Time),474152.700000003,2000,O,m,1323,14,1,3342.8999999910593,470809.8000000119,7178,NTS,C,24
1,0,test,2,C,triangle.png,0,z,Wed Jun 25 2025 13:08:28 GMT-0500 (Central Daylight Time),490515.200000003,1900,O,None,1516,17,1,3426.2000000029802,487089.0,7178,NTS,C,1
6,1,test,2,C,circle.png,1,m,Wed Jun 25 2025 13:08:28 GMT-0500 (Central Daylight Time),493397.8000000119,1900,O,m,953,5,1,2878.7000000029802,490519.10000000894,7178,NTS,C,2
3,2,test,2,C,circle.png,1,z,Wed Jun 25 2025 13:08:28 GMT-0500 (Central Daylight Time),496028.90000000596,1600,O,z,1000,11,1,2626.0999999940395,493402.8000000119,7178,NTS,C,3
9,3,test,2,C,circle.png,1,m,Wed Jun 25 2025 13:08:28 GMT-0500 (Central Daylight Time),498580.40000000596,1500,O,m,1034,8,1,2544.2999999970198,496036.10000000894,7178,NTS,C,4
2,4,test,2,C,circle.png,1,z,Wed Jun 25 2025 13:08:28 GMT-0500 (Central Daylight Time),501028.5,1700,O,z,733,18,1,2442.8999999910593,498585.60000000894,7178,NTS,C,5
2,5,test,2,C,triangle.png,1,m,Wed Jun 25 2025 13:08:28 GMT-0500 (Central Daylight Time),503927.90000000596,2000,O,m,870,2,1,2893.7999999970198,501034.10000000894,7178,NTS,C,6
1,6,test,2,C,circle.png,1,z,Wed Jun 25 2025 13:08:28 GMT-0500 (Central Daylight Time),505776.90000000596,1000,O,z,826,1,1,1843.7000000029802,503933.200000003,7178,NTS,C,7
1,7,test,2,C,triangle.png,1,z,Wed Jun 25 2025 13:08:28 GMT-0500 (Central Daylight Time),508378.40000000596,1900,O,z,677,9,1,2597.0999999940395,505781.3000000119,7178,NTS,C,8
3,8,test,2,C,triangle.png,1,z,Wed Jun 25 2025 13:08:28 GMT-0500 (Central Daylight Time),510308.5,1200,O,z,705,3,1,1925.7999999970198,508382.700000003,7178,NTS,C,9
9,9,test,2,C,triangle.png,1,z,Wed Jun 25 2025 13:08:28 GMT-0500 (Central Daylight Time),513008.5,1400,O,z,1276,16,1,2693.7999999970198,510314.700000003,7178,NTS,C,10
4,10,test,2,C,triangle.png,1,m,Wed Jun 25 2025 13:08:28 GMT-0500 (Central Daylight Time),515473.200000003,1500,O,m,933,20,1,2460.0,513013.200000003,7178,NTS,C,11
8,11,test,2,C,circle.png,1,m,Wed Jun 25 2025 13:08:28 GMT-0500 (Central Daylight Time),517606.8000000119,1200,O,m,903,23,1,2127.800000011921,515479.0,7178,NTS,C,12
4,12,test,2,C,triangle.png,1,m,Wed Jun 25 2025 13:08:28 GMT-0500 (Central Daylight Time),519988.40000000596,1500,O,m,862,12,1,2376.5999999940395,517611.8000000119,7178,NTS,C,13
9,13,test,2,C,triangle.png,1,z,Wed Jun 25 2025 13:08:28 GMT-0500 (Central Daylight Time),522605.8000000119,1400,O,z,1187,24,1,2610.1000000089407,519995.700000003,7178,NTS,C,14
8,14,test,2,C,circle.png,1,m,Wed Jun 25 2025 13:08:28 GMT-0500 (Central Daylight Time),524803.6000000089,1200,O,m,980,15,1,2192.2000000029802,522611.40000000596,7178,NTS,C,15
3,15,test,2,C,circle.png,1,z,Wed Jun 25 2025 13:08:28 GMT-0500 (Central Daylight Time),527403.200000003,1600,O,z,973,19,1,2594.3999999910593,524808.8000000119,7178,NTS,C,16
6,16,test,2,C,triangle.png,1,m,Wed Jun 25 2025 13:08:28 GMT-0500 (Central Daylight Time),529486.400000006,1000,O,m,1054,13,1,2078.5,527407.900000006,7178,NTS,C,17
4,17,test,2,C,circle.png,1,z,Wed Jun 25 2025 13:08:28 GMT-0500 (Central Daylight Time),531884.200000003,1400,O,z,969,4,1,2392.5,529491.700000003,7178,NTS,C,18
2,18,test,2,C,circle.png,1,z,Wed Jun 25 2025 13:08:28 GMT-0500 (Central Daylight Time),534234.700000003,1700,O,z,616,10,1,2345.0999999940395,531889.6000000089,7178,NTS,C,19
8,19,test,2,C,triangle.png,1,m,Wed Jun 25 2025 13:08:28 GMT-0500 (Central Daylight Time),536634.900000006,1600,O,m,774,7,1,2395.0999999940395,534239.8000000119,7178,NTS,C,20
7,20,test,2,C,circle.png,1,m,Wed Jun 25 2025 13:08:28 GMT-0500 (Central Daylight Time),539615.6000000089,2000,O,m,959,22,1,2976.0,536639.6000000089,7178,NTS,C,21
7,21,test,2,C,circle.png,1,m,Wed Jun 25 2025 13:08:28 GMT-0500 (Central Daylight Time),542483.0,2000,O,m,849,14,1,2862.5,539620.5,7178,NTS,C,22
7,22,test,2,C,triangle.png,1,z,Wed Jun 25 2025 13:08:28 GMT-0500 (Central Daylight Time),545263.1000000089,1700,O,z,1058,6,1,2776.0,542487.1000000089,7178,NTS,C,23
6,23,test,2,C,triangle.png,1,m,Wed Jun 25 2025 13:08:28 GMT-0500 (Central Daylight Time),547112.700000003,1000,O,m,816,21,1,1845.5999999940395,545267.1000000089,7178,NTS,C,24
7,1,test,3,C,triangle.png,1,z,Wed Jun 25 2025 13:08:28 GMT-0500 (Central Daylight Time),552412.400000006,1700,O,z,1464,6,1,3176.7000000029802,549235.700000003,7178,NTS,C,1
8,2,test,3,C,triangle.png,1,m,Wed Jun 25 2025 13:08:28 GMT-0500 (Central Daylight Time),554745.900000006,1600,O,m,716,7,1,2328.5999999940395,552417.3000000119,7178,NTS,C,2
4,3,test,3,C,circle.png,1,z,Wed Jun 25 2025 13:08:28 GMT-0500 (Central Daylight Time),556861.6000000089,1400,O,z,700,4,1,2110.4000000059605,554751.200000003,7178,NTS,C,3
9,3,test,3,C,triangle.png,0,z,Wed Jun 25 2025 13:08:28 GMT-0500 (Central Daylight Time),559192.200000003,1400,O,m,907,16,1,2326.7999999970198,556865.400000006,7178,NTS,C,4
2,4,test,3,C,circle.png,1,z,Wed Jun 25 2025 13:08:28 GMT-0500 (Central Daylight Time),561692.3000000119,1700,O,z,772,10,1,2496.6000000089407,559195.700000003,7178,NTS,C,5
2,5,test,3,C,triangle.png,1,m,Wed Jun 25 2025 13:08:28 GMT-0500 (Central Daylight Time),565023.900000006,2000,O,m,1300,2,1,3327.7999999970198,561696.1000000089,7178,NTS,C,6
7,6,test,3,C,circle.png,1,m,Wed Jun 25 2025 13:08:28 GMT-0500 (Central Daylight Time),567857.1000000089,2000,O,m,808,14,1,2828.9000000059605,565028.200000003,7178,NTS,C,7
8,7,test,3,C,triangle.png,1,m,Wed Jun 25 2025 13:08:28 GMT-0500 (Central Daylight Time),570587.8000000119,1600,O,m,1110,23,1,2726.1000000089407,567861.700000003,7178,NTS,C,8
4,8,test,3,C,circle.png,1,z,Wed Jun 25 2025 13:08:28 GMT-0500 (Central Daylight Time),572789.1000000089,1400,O,z,779,20,1,2198.7000000029802,570590.400000006,7178,NTS,C,9
9,9,test,3,C,circle.png,1,m,Wed Jun 25 2025 13:08:28 GMT-0500 (Central Daylight Time),575420.400000006,1500,O,m,1102,8,1,2626.2999999970198,572794.1000000089,7178,NTS,C,10
1,10,test,3,C,triangle.png,1,z,Wed Jun 25 2025 13:08:28 GMT-0500 (Central Daylight Time),578153.6000000089,1900,O,z,798,9,1,2728.2000000029802,575425.400000006,7178,NTS,C,11
3,11,test,3,C,triangle.png,1,z,Wed Jun 25 2025 13:08:28 GMT-0500 (Central Daylight Time),579970.3000000119,1200,O,z,593,19,1,1811.6000000089407,578158.700000003,7178,NTS,C,12
1,12,test,3,C,circle.png,1,z,Wed Jun 25 2025 13:08:28 GMT-0500 (Central Daylight Time),581587.5,1000,O,z,600,17,1,1612.3999999910593,579975.1000000089,7178,NTS,C,13
9,13,test,3,C,circle.png,1,m,Wed Jun 25 2025 13:08:28 GMT-0500 (Central Daylight Time),583701.1000000089,1500,O,m,595,24,1,2108.2000000029802,581592.900000006,7178,NTS,C,14
6,14,test,3,C,triangle.png,1,m,Wed Jun 25 2025 13:08:28 GMT-0500 (Central Daylight Time),585617.1000000089,1000,O,m,892,13,1,1912.1000000089407,583705.0,7178,NTS,C,15
7,15,test,3,C,triangle.png,1,z,Wed Jun 25 2025 13:08:28 GMT-0500 (Central Daylight Time),588233.700000003,1700,O,z,892,22,1,2613.2999999970198,585620.400000006,7178,NTS,C,16
1,16,test,3,C,circle.png,1,z,Wed Jun 25 2025 13:08:28 GMT-0500 (Central Daylight Time),589983.0,1000,O,z,719,1,1,1744.5,588238.5,7178,NTS,C,17
3,17,test,3,C,circle.png,1,z,Wed Jun 25 2025 13:08:28 GMT-0500 (Central Daylight Time),592283.900000006,1600,O,z,682,11,1,2295.9000000059605,589988.0,7178,NTS,C,18
3,18,test,3,C,triangle.png,1,z,Wed Jun 25 2025 13:08:28 GMT-0500 (Central Daylight Time),594564.3000000119,1200,O,z,1063,3,1,2274.2000000029802,592290.1000000089,7178,NTS,C,19
2,19,test,3,C,triangle.png,1,m,Wed Jun 25 2025 13:08:28 GMT-0500 (Central Daylight Time),597413.0,2000,O,m,827,18,1,2842.699999988079,594570.3000000119,7178,NTS,C,20
6,20,test,3,C,circle.png,1,m,Wed Jun 25 2025 13:08:28 GMT-0500 (Central Daylight Time),600164.6000000089,1900,O,m,832,5,1,2747.7999999970198,597416.8000000119,7178,NTS,C,21
8,21,test,3,C,circle.png,1,m,Wed Jun 25 2025 13:08:28 GMT-0500 (Central Daylight Time),602046.200000003,1200,O,m,663,15,1,1876.7999999970198,600169.400000006,7178,NTS,C,22
4,22,test,3,C,triangle.png,1,m,Wed Jun 25 2025 13:08:28 GMT-0500 (Central Daylight Time),604381.3000000119,1500,O,m,817,12,1,2325.5,602055.8000000119,7178,NTS,C,23
6,23,test,3,C,circle.png,1,m,Wed Jun 25 2025 13:08:28 GMT-0500 (Central Daylight Time),607012.1000000089,1900,O,m,704,21,1,2621.9000000059605,604390.200000003,7178,NTS,C,24
9,0,test,4,C,triangle.png,0,z,Wed Jun 25 2025 13:08:28 GMT-0500 (Central Daylight Time),611225.8000000119,1400,O,m,1158,16,1,2570.2000000029802,608655.6000000089,7178,NTS,C,1
3,1,test,4,C,circle.png,1,z,Wed Jun 25 2025 13:08:28 GMT-0500 (Central Daylight Time),613641.8000000119,1600,O,z,789,11,1,2410.6000000089407,611231.200000003,7178,NTS,C,2
1,2,test,4,C,triangle.png,1,z,Wed Jun 25 2025 13:08:28 GMT-0500 (Central Daylight Time),616692.200000003,1900,O,z,1122,9,1,3044.2000000029802,613648.0,7178,NTS,C,3
3,3,test,4,C,triangle.png,1,z,Wed Jun 25 2025 13:08:28 GMT-0500 (Central Daylight Time),618609.0,1200,O,z,693,3,1,1911.2999999970198,616697.700000003,7178,NTS,C,4
8,4,test,4,C,triangle.png,1,m,Wed Jun 25 2025 13:08:28 GMT-0500 (Central Daylight Time),621490.8000000119,1600,O,m,1252,7,1,2871.300000011921,618619.5,7178,NTS,C,5
9,5,test,4,C,circle.png,1,m,Wed Jun 25 2025 13:08:28 GMT-0500 (Central Daylight Time),623773.200000003,1500,O,m,753,24,1,2274.0,621499.200000003,7178,NTS,C,6
3,6,test,4,C,triangle.png,1,z,Wed Jun 25 2025 13:08:28 GMT-0500 (Central Daylight Time),625838.700000003,1200,O,z,845,19,1,2058.2999999970198,623780.400000006,7178,NTS,C,7
4,7,test,4,C,circle.png,1,z,Wed Jun 25 2025 13:08:28 GMT-0500 (Central Daylight Time),628071.0,1400,O,z,808,4,1,2226.5,625844.5,7178,NTS,C,8
2,8,test,4,C,circle.png,1,z,Wed Jun 25 2025 13:08:28 GMT-0500 (Central Daylight Time),630653.6000000089,1700,O,z,852,10,1,2577.7999999970198,628075.8000000119,7178,NTS,C,9
4,8,test,4,C,circle.png,0,z,Wed Jun 25 2025 13:08:28 GMT-0500 (Central Daylight Time),632987.1000000089,1400,O,m,900,20,1,2329.0,630658.1000000089,7178,NTS,C,10
1,9,test,4,C,circle.png,1,z,Wed Jun 25 2025 13:08:28 GMT-0500 (Central Daylight Time),634669.0,1000,O,z,665,17,1,1675.5999999940395,632993.400000006,7178,NTS,C,11
7,10,test,4,C,circle.png,1,m,Wed Jun 25 2025 13:08:28 GMT-0500 (Central Daylight Time),637853.200000003,2000,O,m,1156,14,1,3179.7999999970198,634673.400000006,7178,NTS,C,12
7,11,test,4,C,triangle.png,1,z,Wed Jun 25 2025 13:08:28 GMT-0500 (Central Daylight Time),640750.0,1700,O,z,1168,6,1,2891.8999999910593,637858.1000000089,7178,NTS,C,13
1,12,test,4,C,circle.png,1,z,Wed Jun 25 2025 13:08:28 GMT-0500 (Central Daylight Time),642383.6000000089,1000,O,z,602,1,1,1628.1000000089407,640755.5,7178,NTS,C,14
8,13,test,4,C,triangle.png,1,m,Wed Jun 25 2025 13:08:28 GMT-0500 (Central Daylight Time),644865.700000003,1600,O,m,848,23,1,2477.7000000029802,642388.0,7178,NTS,C,15
4,14,test,4,C,triangle.png,1,m,Wed Jun 25 2025 13:08:28 GMT-0500 (Central Daylight Time),647414.700000003,1500,O,m,1027,12,1,2543.2000000029802,644871.5,7178,NTS,C,16
2,15,test,4,C,triangle.png,1,m,Wed Jun 25 2025 13:08:28 GMT-0500 (Central Daylight Time),650282.0,2000,O,m,851,18,1,2863.3999999910593,647418.6000000089,7178,NTS,C,17
2,16,test,4,C,triangle.png,1,m,Wed Jun 25 2025 13:08:28 GMT-0500 (Central Daylight Time),653147.6000000089,2000,O,m,847,2,1,2861.1000000089407,650286.5,7178,NTS,C,18
6,17,test,4,C,circle.png,1,m,Wed Jun 25 2025 13:08:28 GMT-0500 (Central Daylight Time),656310.6000000089,1900,O,m,1242,5,1,3158.2000000029802,653152.400000006,7178,NTS,C,19
8,18,test,4,C,circle.png,1,m,Wed Jun 25 2025 13:08:28 GMT-0500 (Central Daylight Time),658145.0,1200,O,m,600,15,1,1828.5,656316.5,7178,NTS,C,20
6,19,test,4,C,circle.png,1,m,Wed Jun 25 2025 13:08:28 GMT-0500 (Central Daylight Time),660677.700000003,1900,O,m,601,21,1,2528.7000000029802,658149.0,7178,NTS,C,21
7,20,test,4,C,triangle.png,1,z,Wed Jun 25 2025 13:08:28 GMT-0500 (Central Daylight Time),663559.5,1700,O,z,1151,22,1,2876.699999988079,660682.8000000119,7178,NTS,C,22
6,21,test,4,C,triangle.png,1,m,Wed Jun 25 2025 13:08:28 GMT-0500 (Central Daylight Time),665775.6000000089,1000,O,m,1185,13,1,2211.2000000029802,663564.400000006,7178,NTS,C,23
9,22,test,4,C,circle.png,1,m,Wed Jun 25 2025 13:08:28 GMT-0500 (Central Daylight Time),668091.400000006,1500,O,m,789,8,1,2310.9000000059605,665780.5,7178,NTS,C,24
