acc_sum,block,block_c,change,condition,correct,correct_response,datetime,endtime,face,project,response,response_time,row_sel,session_number,start_end,starttime,subject_id,task,task_vers,trial
0,prac,1,,1-Back,,,Fri Mar 06 2026 15:15:53 GMT-0600 (Central Standard Time),,005_o_f_d_a.png,O,space,6980,1,,,,7755,VNB,B,0
0,prac,1,0.0,1-Back,0.0,m,Fri Mar 06 2026 15:15:53 GMT-0600 (Central Standard Time),227932.59999999404,020_y_f_n_a.png,O,None,2015,2,,2852.9000000059605,225079.69999998808,7755,VNB,B,1
1,prac,1,0.0,1-Back,1.0,m,Fri Mar 06 2026 15:15:53 GMT-0600 (Central Standard Time),230532.90000000596,007_m_m_h_a.png,O,m,1730,3,,2594.300000011921,227938.59999999404,7755,VNB,B,2
2,prac,1,0.0,1-Back,1.0,m,Fri Mar 06 2026 15:15:53 GMT-0600 (Central Standard Time),233152.69999998808,016_y_m_d_a.png,O,m,1735,4,,2606.399999976158,230546.30000001192,7755,VNB,B,3
2,prac,1,0.0,1-Back,0.0,m,Fri Mar 06 2026 15:15:53 GMT-0600 (Central Standard Time),236047.19999998808,005_o_f_n_a.png,O,None,2011,5,,2891.7999999821186,233155.40000000596,7755,VNB,B,4
2,prac,1,1.0,1-Back,0.0,z,Fri Mar 06 2026 15:15:53 GMT-0600 (Central Standard Time),238929.59999999404,016_y_m_n_a.png,O,None,2017,6,,2870.699999988079,236058.90000000596,7755,VNB,B,5
3,prac,1,0.0,1-Back,1.0,m,Fri Mar 06 2026 15:15:53 GMT-0600 (Central Standard Time),241744.5,004_o_m_h_a.png,O,m,1961,7,,2809.4000000059605,238935.09999999404,7755,VNB,B,6
3,prac,1,0.0,1-Back,0.0,m,Fri Mar 06 2026 15:15:53 GMT-0600 (Central Standard Time),244610.0,011_m_f_d_a.png,O,None,2010,8,,2854.5,241755.5,7755,VNB,B,7
3,prac,1,1.0,1-Back,0.0,z,Fri Mar 06 2026 15:15:53 GMT-0600 (Central Standard Time),247460.30000001192,020_y_f_d_a.png,O,None,2009,9,,2842.9000000059605,244617.40000000596,7755,VNB,B,8
3,prac,1,0.0,1-Back,0.0,m,Fri Mar 06 2026 15:15:53 GMT-0600 (Central Standard Time),250341.69999998808,007_m_m_n_a.png,O,None,2018,10,,2870.5,247471.19999998808,7755,VNB,B,9
3,prac,1,0.0,1-Back,0.0,m,Fri Mar 06 2026 15:15:53 GMT-0600 (Central Standard Time),253208.30000001192,005_o_f_h_a.png,O,None,2016,11,,2860.300000011921,250348.0,7755,VNB,B,10
4,prac,1,0.0,1-Back,1.0,m,Fri Mar 06 2026 15:15:53 GMT-0600 (Central Standard Time),255456.80000001192,016_y_m_d_a.png,O,m,1372,12,,2234.300000011921,253222.5,7755,VNB,B,11
0,prac,2,0.0,1-Back,,,Fri Mar 06 2026 15:15:53 GMT-0600 (Central Standard Time),255456.80000001192,005_o_f_d_a.png,O,a,9456,1,,2234.300000011921,253222.5,7755,VNB,B,0
0,prac,2,0.0,1-Back,0.0,m,Fri Mar 06 2026 15:15:53 GMT-0600 (Central Standard Time),270803.59999999404,020_y_f_n_a.png,O,None,2001,2,,2837.699999988079,267965.90000000596,7755,VNB,B,1
0,prac,2,0.0,1-Back,0.0,m,Fri Mar 06 2026 15:15:53 GMT-0600 (Central Standard Time),273668.1999999881,007_m_m_h_a.png,O,None,2008,3,,2858.7999999821186,270809.40000000596,7755,VNB,B,2
1,prac,2,0.0,1-Back,1.0,m,Fri Mar 06 2026 15:15:53 GMT-0600 (Central Standard Time),276116.6999999881,016_y_m_d_a.png,O,m,1665,4,,2437.899999976158,273678.8000000119,7755,VNB,B,3
1,prac,2,0.0,1-Back,0.0,m,Fri Mar 06 2026 15:15:53 GMT-0600 (Central Standard Time),278984.09999999404,005_o_f_n_a.png,O,None,2013,5,,2862.7999999821186,276121.3000000119,7755,VNB,B,4
1,prac,2,1.0,1-Back,0.0,z,Fri Mar 06 2026 15:15:53 GMT-0600 (Central Standard Time),281849.40000000596,016_y_m_n_a.png,O,None,2001,6,,2851.0999999940395,278998.3000000119,7755,VNB,B,5
2,prac,2,0.0,1-Back,1.0,m,Fri Mar 06 2026 15:15:53 GMT-0600 (Central Standard Time),284347.09999999404,004_o_m_h_a.png,O,m,1643,7,,2492.5999999940395,281854.5,7755,VNB,B,6
2,prac,2,0.0,1-Back,0.0,m,Fri Mar 06 2026 15:15:53 GMT-0600 (Central Standard Time),287215.59999999404,011_m_f_d_a.png,O,None,2016,8,,2858.199999988079,284357.40000000596,7755,VNB,B,7
2,prac,2,1.0,1-Back,0.0,z,Fri Mar 06 2026 15:15:53 GMT-0600 (Central Standard Time),290063.6999999881,020_y_f_d_a.png,O,None,2005,9,,2843.7999999821186,287219.90000000596,7755,VNB,B,8
2,prac,2,0.0,1-Back,0.0,m,Fri Mar 06 2026 15:15:53 GMT-0600 (Central Standard Time),292930.1999999881,007_m_m_n_a.png,O,None,2008,10,,2860.399999976158,290069.8000000119,7755,VNB,B,9
3,prac,2,0.0,1-Back,1.0,m,Fri Mar 06 2026 15:15:53 GMT-0600 (Central Standard Time),295262.3000000119,005_o_f_h_a.png,O,m,1467,11,,2324.100000023842,292938.1999999881,7755,VNB,B,10
4,prac,2,0.0,1-Back,1.0,m,Fri Mar 06 2026 15:15:53 GMT-0600 (Central Standard Time),297627.3000000119,016_y_m_d_a.png,O,m,1481,12,,2353.600000023842,295273.6999999881,7755,VNB,B,11
0,test,1,0.0,1-Back,,,Fri Mar 06 2026 15:15:53 GMT-0600 (Central Standard Time),297627.3000000119,020_y_f_d_a.png,O,space,11595,1,,2353.600000023842,295273.6999999881,7755,VNB,B,0
1,test,1,0.0,1-Back,1.0,m,Fri Mar 06 2026 15:15:53 GMT-0600 (Central Standard Time),328283.09999999404,011_m_f_n_a.png,O,m,1896,2,,2902.699999988079,325380.40000000596,7755,VNB,B,1
2,test,1,0.0,1-Back,1.0,m,Fri Mar 06 2026 15:15:53 GMT-0600 (Central Standard Time),330732.1999999881,004_o_m_h_a.png,O,m,1416,3,,2442.899999976158,328289.3000000119,7755,VNB,B,2
3,test,1,1.0,1-Back,1.0,z,Fri Mar 06 2026 15:15:53 GMT-0600 (Central Standard Time),333182.3000000119,007_m_m_h_a.png,O,z,1426,4,,2445.300000011921,330737.0,7755,VNB,B,3
4,test,1,0.0,1-Back,1.0,m,Fri Mar 06 2026 15:15:53 GMT-0600 (Central Standard Time),335647.5,005_o_f_n_a.png,O,m,1442,5,,2461.800000011921,333185.6999999881,7755,VNB,B,4
5,test,1,0.0,1-Back,1.0,m,Fri Mar 06 2026 15:15:53 GMT-0600 (Central Standard Time),338597.1999999881,016_y_m_d_a.png,O,m,1915,6,,2944.7999999821186,335652.40000000596,7755,VNB,B,5
5,test,1,1.0,1-Back,0.0,z,Fri Mar 06 2026 15:15:53 GMT-0600 (Central Standard Time),341629.6999999881,011_m_f_d_a.png,O,None,2016,7,,3028.7999999821186,338600.90000000596,7755,VNB,B,6
6,test,1,0.0,1-Back,1.0,m,Fri Mar 06 2026 15:15:53 GMT-0600 (Central Standard Time),344028.1999999881,020_y_f_h_a.png,O,m,1369,8,,2388.899999976158,341639.3000000119,7755,VNB,B,7
6,test,1,0.0,1-Back,0.0,m,Fri Mar 06 2026 15:15:53 GMT-0600 (Central Standard Time),347027.3000000119,004_o_m_n_a.png,O,z,1969,9,,2995.600000023842,344031.6999999881,7755,VNB,B,8
7,test,1,0.0,1-Back,1.0,m,Fri Mar 06 2026 15:15:53 GMT-0600 (Central Standard Time),349843.8000000119,016_y_m_h_a.png,O,m,1788,10,,2808.100000023842,347035.6999999881,7755,VNB,B,9
8,test,1,0.0,1-Back,1.0,m,Fri Mar 06 2026 15:15:53 GMT-0600 (Central Standard Time),352060.0,004_o_m_d_a.png,O,m,1197,11,,2212.800000011921,349847.1999999881,7755,VNB,B,10
8,test,1,1.0,1-Back,0.0,z,Fri Mar 06 2026 15:15:53 GMT-0600 (Central Standard Time),354859.1999999881,005_o_f_d_a.png,O,m,1769,12,,2789.2999999821186,352069.90000000596,7755,VNB,B,11
8,test,1,0.0,1-Back,0.0,m,Fri Mar 06 2026 15:15:53 GMT-0600 (Central Standard Time),357892.1999999881,007_m_m_n_a.png,O,None,2014,13,,3029.0999999940395,354863.09999999404,7755,VNB,B,12
9,test,1,1.0,1-Back,1.0,z,Fri Mar 06 2026 15:15:53 GMT-0600 (Central Standard Time),360375.3000000119,020_y_f_n_a.png,O,z,1459,14,,2475.9000000059605,357899.40000000596,7755,VNB,B,13
10,test,1,0.0,1-Back,1.0,m,Fri Mar 06 2026 15:15:53 GMT-0600 (Central Standard Time),363289.0,011_m_f_h_a.png,O,m,1895,15,,2909.800000011921,360379.1999999881,7755,VNB,B,14
11,test,1,0.0,1-Back,1.0,m,Fri Mar 06 2026 15:15:53 GMT-0600 (Central Standard Time),366208.09999999404,007_m_m_d_a.png,O,m,1885,16,,2912.699999988079,363295.40000000596,7755,VNB,B,15
12,test,1,0.0,1-Back,1.0,m,Fri Mar 06 2026 15:15:53 GMT-0600 (Central Standard Time),369105.0,016_y_m_n_a.png,O,m,1873,17,,2893.800000011921,366211.1999999881,7755,VNB,B,16
13,test,1,0.0,1-Back,1.0,m,Fri Mar 06 2026 15:15:53 GMT-0600 (Central Standard Time),371669.5,005_o_f_h_a.png,O,m,1533,18,,2560.0999999940395,369109.40000000596,7755,VNB,B,17
0,test,2,0.0,1-Back,,,Fri Mar 06 2026 15:15:53 GMT-0600 (Central Standard Time),371669.5,016_y_m_n_a.png,O,space,32696,1,,2560.0999999940395,369109.40000000596,7755,VNB,B,0
1,test,2,0.0,1-Back,1.0,m,Fri Mar 06 2026 15:15:53 GMT-0600 (Central Standard Time),408872.8000000119,020_y_f_h_a.png,O,m,1377,2,,2389.5,406483.3000000119,7755,VNB,B,1
2,test,2,1.0,1-Back,1.0,m,Fri Mar 06 2026 15:15:53 GMT-0600 (Central Standard Time),411323.90000000596,004_o_m_n_a.png,O,m,1421,3,,2448.9000000059605,408875.0,7755,VNB,B,2
3,test,2,0.0,1-Back,1.0,m,Fri Mar 06 2026 15:15:53 GMT-0600 (Central Standard Time),413889.6999999881,011_m_f_d_a.png,O,m,1540,4,,2554.899999976158,411334.8000000119,7755,VNB,B,3
4,test,2,0.0,1-Back,1.0,z,Fri Mar 06 2026 15:15:53 GMT-0600 (Central Standard Time),416222.40000000596,007_m_m_d_a.png,O,z,1300,5,,2329.4000000059605,413893.0,7755,VNB,B,4
5,test,2,0.0,1-Back,1.0,m,Fri Mar 06 2026 15:15:53 GMT-0600 (Central Standard Time),418640.90000000596,016_y_m_h_a.png,O,m,1385,6,,2408.0999999940395,416232.8000000119,7755,VNB,B,5
6,test,2,1.0,1-Back,1.0,z,Fri Mar 06 2026 15:15:53 GMT-0600 (Central Standard Time),420921.5,005_o_f_h_a.png,O,z,1255,7,,2277.199999988079,418644.3000000119,7755,VNB,B,6
7,test,2,0.0,1-Back,1.0,m,Fri Mar 06 2026 15:15:53 GMT-0600 (Central Standard Time),423386.40000000596,011_m_f_n_a.png,O,m,1436,8,,2456.0,420930.40000000596,7755,VNB,B,7
8,test,2,0.0,1-Back,1.0,m,Fri Mar 06 2026 15:15:53 GMT-0600 (Central Standard Time),425886.1999999881,020_y_f_d_a.png,O,m,1468,9,,2496.199999988079,423390.0,7755,VNB,B,8
9,test,2,0.0,1-Back,1.0,m,Fri Mar 06 2026 15:15:53 GMT-0600 (Central Standard Time),428585.0,007_m_m_n_a.png,O,m,1680,10,,2691.4000000059605,425893.59999999404,7755,VNB,B,9
10,test,2,1.0,1-Back,1.0,m,Fri Mar 06 2026 15:15:53 GMT-0600 (Central Standard Time),430737.3000000119,011_m_f_h_a.png,O,m,1120,11,,2148.300000011921,428589.0,7755,VNB,B,10
11,test,2,0.0,1-Back,1.0,z,Fri Mar 06 2026 15:15:53 GMT-0600 (Central Standard Time),432867.90000000596,004_o_m_h_a.png,O,z,1102,12,,2123.2000000178814,430744.6999999881,7755,VNB,B,11
12,test,2,0.0,1-Back,1.0,m,Fri Mar 06 2026 15:15:53 GMT-0600 (Central Standard Time),435115.59999999404,016_y_m_d_a.png,O,m,1218,13,,2244.5999999940395,432871.0,7755,VNB,B,12
12,test,2,0.0,1-Back,0.0,m,Fri Mar 06 2026 15:15:53 GMT-0600 (Central Standard Time),437715.0,005_o_f_n_a.png,O,z,1570,14,,2591.4000000059605,435123.59999999404,7755,VNB,B,13
13,test,2,0.0,1-Back,1.0,z,Fri Mar 06 2026 15:15:53 GMT-0600 (Central Standard Time),440415.09999999404,020_y_f_n_a.png,O,z,1673,15,,2696.9000000059605,437718.1999999881,7755,VNB,B,14
14,test,2,1.0,1-Back,1.0,m,Fri Mar 06 2026 15:15:53 GMT-0600 (Central Standard Time),442830.5,007_m_m_h_a.png,O,m,1387,16,,2406.4000000059605,440424.09999999404,7755,VNB,B,15
15,test,2,0.0,1-Back,1.0,m,Fri Mar 06 2026 15:15:53 GMT-0600 (Central Standard Time),445302.90000000596,005_o_f_d_a.png,O,m,1451,17,,2469.5,442833.40000000596,7755,VNB,B,16
16,test,2,1.0,1-Back,1.0,z,Fri Mar 06 2026 15:15:53 GMT-0600 (Central Standard Time),448063.0,004_o_m_d_a.png,O,z,1735,18,,2756.800000011921,445306.1999999881,7755,VNB,B,17
0,test,3,1.0,1-Back,,,Fri Mar 06 2026 15:15:53 GMT-0600 (Central Standard Time),448063.0,005_o_f_h_a.png,O,space,1367,1,,2756.800000011921,445306.1999999881,7755,VNB,B,0
1,test,3,0.0,1-Back,1.0,m,Fri Mar 06 2026 15:15:53 GMT-0600 (Central Standard Time),453843.59999999404,011_m_f_d_a.png,O,m,1281,2,,2297.4000000059605,451546.1999999881,7755,VNB,B,1
2,test,3,1.0,1-Back,1.0,m,Fri Mar 06 2026 15:15:53 GMT-0600 (Central Standard Time),456609.09999999404,007_m_m_n_a.png,O,m,1739,3,,2762.7999999821186,453846.3000000119,7755,VNB,B,2
3,test,3,0.0,1-Back,1.0,z,Fri Mar 06 2026 15:15:53 GMT-0600 (Central Standard Time),459177.0,005_o_f_n_a.png,O,z,1549,4,,2560.4000000059605,456616.59999999404,7755,VNB,B,3
4,test,3,1.0,1-Back,1.0,m,Fri Mar 06 2026 15:15:53 GMT-0600 (Central Standard Time),461475.5,004_o_m_d_a.png,O,m,1270,5,,2295.5999999940395,459179.90000000596,7755,VNB,B,4
5,test,3,0.0,1-Back,1.0,m,Fri Mar 06 2026 15:15:53 GMT-0600 (Central Standard Time),463658.09999999404,020_y_f_h_a.png,O,m,1156,6,,2173.0999999940395,461485.0,7755,VNB,B,5
6,test,3,0.0,1-Back,1.0,z,Fri Mar 06 2026 15:15:53 GMT-0600 (Central Standard Time),465839.5,016_y_m_h_a.png,O,z,1148,7,,2178.5999999940395,463660.90000000596,7755,VNB,B,6
7,test,3,0.0,1-Back,1.0,m,Fri Mar 06 2026 15:15:53 GMT-0600 (Central Standard Time),467840.0,011_m_f_n_a.png,O,m,982,8,,1994.9000000059605,465845.09999999404,7755,VNB,B,7
8,test,3,0.0,1-Back,1.0,m,Fri Mar 06 2026 15:15:53 GMT-0600 (Central Standard Time),470587.6999999881,020_y_f_d_a.png,O,m,1730,9,,2745.0999999940395,467842.59999999404,7755,VNB,B,8
9,test,3,1.0,1-Back,1.0,m,Fri Mar 06 2026 15:15:53 GMT-0600 (Central Standard Time),473290.3000000119,004_o_m_n_a.png,O,m,1685,10,,2695.300000011921,470595.0,7755,VNB,B,9
10,test,3,0.0,1-Back,1.0,m,Fri Mar 06 2026 15:15:53 GMT-0600 (Central Standard Time),475369.6999999881,007_m_m_h_a.png,O,m,1054,11,,2076.899999976158,473292.8000000119,7755,VNB,B,10
11,test,3,0.0,1-Back,1.0,z,Fri Mar 06 2026 15:15:53 GMT-0600 (Central Standard Time),477770.0,011_m_f_h_a.png,O,z,1372,12,,2390.699999988079,475379.3000000119,7755,VNB,B,11
12,test,3,1.0,1-Back,1.0,m,Fri Mar 06 2026 15:15:53 GMT-0600 (Central Standard Time),479935.59999999404,005_o_f_d_a.png,O,m,1142,13,,2163.199999988079,477772.40000000596,7755,VNB,B,12
13,test,3,0.0,1-Back,1.0,z,Fri Mar 06 2026 15:15:53 GMT-0600 (Central Standard Time),482768.1999999881,007_m_m_d_a.png,O,z,1808,14,,2825.199999988079,479943.0,7755,VNB,B,13
14,test,3,0.0,1-Back,1.0,m,Fri Mar 06 2026 15:15:53 GMT-0600 (Central Standard Time),485166.6999999881,016_y_m_n_a.png,O,m,1369,15,,2393.399999976158,482773.3000000119,7755,VNB,B,14
15,test,3,1.0,1-Back,1.0,m,Fri Mar 06 2026 15:15:53 GMT-0600 (Central Standard Time),487900.09999999404,004_o_m_h_a.png,O,m,1712,16,,2727.0999999940395,485173.0,7755,VNB,B,15
16,test,3,0.0,1-Back,1.0,m,Fri Mar 06 2026 15:15:53 GMT-0600 (Central Standard Time),489998.40000000596,016_y_m_d_a.png,O,m,1074,17,,2091.9000000059605,487906.5,7755,VNB,B,16
16,test,3,1.0,1-Back,0.0,m,Fri Mar 06 2026 15:15:53 GMT-0600 (Central Standard Time),492780.8000000119,020_y_f_n_a.png,O,z,1760,18,,2773.0,490007.8000000119,7755,VNB,B,17
0,test,4,1.0,1-Back,,,Fri Mar 06 2026 15:15:53 GMT-0600 (Central Standard Time),492780.8000000119,007_m_m_d_a.png,O,space,1498,1,,2773.0,490007.8000000119,7755,VNB,B,0
1,test,4,0.0,1-Back,1.0,z,Fri Mar 06 2026 15:15:53 GMT-0600 (Central Standard Time),498863.1999999881,004_o_m_d_a.png,O,z,1542,2,,2563.699999988079,496299.5,7755,VNB,B,1
2,test,4,0.0,1-Back,1.0,m,Fri Mar 06 2026 15:15:53 GMT-0600 (Central Standard Time),501045.0,016_y_m_h_a.png,O,m,1157,3,,2177.800000011921,498867.1999999881,7755,VNB,B,2
3,test,4,0.0,1-Back,1.0,m,Fri Mar 06 2026 15:15:53 GMT-0600 (Central Standard Time),503662.59999999404,011_m_f_n_a.png,O,m,1586,4,,2606.199999988079,501056.40000000596,7755,VNB,B,3
4,test,4,1.0,1-Back,1.0,m,Fri Mar 06 2026 15:15:53 GMT-0600 (Central Standard Time),505759.09999999404,005_o_f_h_a.png,O,m,1074,5,,2093.5999999940395,503665.5,7755,VNB,B,4
5,test,4,0.0,1-Back,1.0,m,Fri Mar 06 2026 15:15:53 GMT-0600 (Central Standard Time),508159.0,007_m_m_n_a.png,O,m,1374,6,,2390.5999999940395,505768.40000000596,7755,VNB,B,5
5,test,4,0.0,1-Back,0.0,m,Fri Mar 06 2026 15:15:53 GMT-0600 (Central Standard Time),511192.90000000596,016_y_m_d_a.png,O,None,2017,7,,3031.800000011921,508161.09999999404,7755,VNB,B,6
6,test,4,1.0,1-Back,1.0,z,Fri Mar 06 2026 15:15:53 GMT-0600 (Central Standard Time),513691.09999999404,020_y_f_d_a.png,O,z,1478,8,,2488.0999999940395,511203.0,7755,VNB,B,7
7,test,4,0.0,1-Back,1.0,m,Fri Mar 06 2026 15:15:53 GMT-0600 (Central Standard Time),515540.3000000119,011_m_f_h_a.png,O,m,828,9,,1844.2000000178814,513696.09999999404,7755,VNB,B,8
7,test,4,0.0,1-Back,0.0,z,Fri Mar 06 2026 15:15:53 GMT-0600 (Central Standard Time),517373.3000000119,004_o_m_h_a.png,O,m,810,10,,1824.800000011921,515548.5,7755,VNB,B,9
8,test,4,1.0,1-Back,1.0,m,Fri Mar 06 2026 15:15:53 GMT-0600 (Central Standard Time),519972.59999999404,005_o_f_n_a.png,O,m,1576,11,,2596.5,517376.09999999404,7755,VNB,B,10
8,test,4,0.0,1-Back,0.0,m,Fri Mar 06 2026 15:15:53 GMT-0600 (Central Standard Time),522838.09999999404,011_m_f_d_a.png,O,z,1834,12,,2858.7999999821186,519979.3000000119,7755,VNB,B,11
9,test,4,0.0,1-Back,1.0,m,Fri Mar 06 2026 15:15:53 GMT-0600 (Central Standard Time),525404.599999994,020_y_f_n_a.png,O,m,1545,13,,2562.199999988079,522842.40000000596,7755,VNB,B,12
10,test,4,0.0,1-Back,1.0,m,Fri Mar 06 2026 15:15:53 GMT-0600 (Central Standard Time),527985.5,005_o_f_d_a.png,O,m,1563,14,,2573.800000011921,525411.6999999881,7755,VNB,B,13
11,test,4,0.0,1-Back,1.0,m,Fri Mar 06 2026 15:15:53 GMT-0600 (Central Standard Time),530384.599999994,020_y_f_h_a.png,O,m,1371,15,,2396.699999988079,527987.900000006,7755,VNB,B,14
12,test,4,1.0,1-Back,1.0,z,Fri Mar 06 2026 15:15:53 GMT-0600 (Central Standard Time),533234.900000006,007_m_m_h_a.png,O,z,1832,16,,2847.2000000178814,530387.6999999881,7755,VNB,B,15
13,test,4,0.0,1-Back,1.0,m,Fri Mar 06 2026 15:15:53 GMT-0600 (Central Standard Time),535135.6999999881,004_o_m_n_a.png,O,m,866,17,,1898.0999999940395,533237.599999994,7755,VNB,B,16
13,test,4,1.0,1-Back,0.0,z,Fri Mar 06 2026 15:15:53 GMT-0600 (Central Standard Time),537884.0,016_y_m_n_a.png,O,m,1717,18,,2738.800000011921,535145.1999999881,7755,VNB,B,17
0,test,5,1.0,1-Back,,,Fri Mar 06 2026 15:15:53 GMT-0600 (Central Standard Time),537884.0,004_o_m_n_a.png,O,space,8230,1,,2738.800000011921,535145.1999999881,7755,VNB,B,0
1,test,5,1.0,1-Back,1.0,m,Fri Mar 06 2026 15:15:53 GMT-0600 (Central Standard Time),550330.6999999881,005_o_f_h_a.png,O,m,1165,2,,2173.399999976158,548157.3000000119,7755,VNB,B,1
2,test,5,0.0,1-Back,1.0,m,Fri Mar 06 2026 15:15:53 GMT-0600 (Central Standard Time),553261.900000006,016_y_m_d_a.png,O,m,1908,3,,2928.0999999940395,550333.8000000119,7755,VNB,B,2
3,test,5,0.0,1-Back,1.0,z,Fri Mar 06 2026 15:15:53 GMT-0600 (Central Standard Time),556044.8000000119,004_o_m_d_a.png,O,z,1751,4,,2779.300000011921,553265.5,7755,VNB,B,3
4,test,5,0.0,1-Back,1.0,m,Fri Mar 06 2026 15:15:53 GMT-0600 (Central Standard Time),558279.8000000119,011_m_f_h_a.png,O,m,1202,5,,2232.300000011921,556047.5,7755,VNB,B,4
5,test,5,0.0,1-Back,1.0,m,Fri Mar 06 2026 15:15:53 GMT-0600 (Central Standard Time),560926.0,020_y_f_n_a.png,O,m,1626,6,,2640.9000000059605,558285.099999994,7755,VNB,B,5
6,test,5,1.0,1-Back,1.0,z,Fri Mar 06 2026 15:15:53 GMT-0600 (Central Standard Time),563441.1999999881,005_o_f_n_a.png,O,z,1487,7,,2511.699999988079,560929.5,7755,VNB,B,6
7,test,5,0.0,1-Back,1.0,m,Fri Mar 06 2026 15:15:53 GMT-0600 (Central Standard Time),566157.400000006,011_m_f_d_a.png,O,m,1684,8,,2711.7000000178814,563445.6999999881,7755,VNB,B,7
8,test,5,0.0,1-Back,1.0,m,Fri Mar 06 2026 15:15:53 GMT-0600 (Central Standard Time),568340.0,016_y_m_h_a.png,O,m,1160,9,,2180.699999988079,566159.3000000119,7755,VNB,B,8
9,test,5,0.0,1-Back,1.0,m,Fri Mar 06 2026 15:15:53 GMT-0600 (Central Standard Time),570705.900000006,020_y_f_d_a.png,O,m,1348,10,,2357.5,568348.400000006,7755,VNB,B,9
10,test,5,0.0,1-Back,1.0,m,Fri Mar 06 2026 15:15:53 GMT-0600 (Central Standard Time),573290.0,007_m_m_n_a.png,O,m,1557,11,,2580.800000011921,570709.1999999881,7755,VNB,B,10
11,test,5,1.0,1-Back,1.0,z,Fri Mar 06 2026 15:15:53 GMT-0600 (Central Standard Time),576138.3000000119,011_m_f_n_a.png,O,z,1815,12,,2838.0,573300.3000000119,7755,VNB,B,11
12,test,5,0.0,1-Back,1.0,m,Fri Mar 06 2026 15:15:53 GMT-0600 (Central Standard Time),578337.5,004_o_m_h_a.png,O,m,1172,13,,2196.0999999940395,576141.400000006,7755,VNB,B,12
13,test,5,0.0,1-Back,1.0,z,Fri Mar 06 2026 15:15:53 GMT-0600 (Central Standard Time),580620.6999999881,007_m_m_h_a.png,O,z,1255,14,,2277.399999976158,578343.3000000119,7755,VNB,B,13
14,test,5,1.0,1-Back,1.0,m,Fri Mar 06 2026 15:15:53 GMT-0600 (Central Standard Time),582869.5,005_o_f_d_a.png,O,m,1227,15,,2246.4000000059605,580623.099999994,7755,VNB,B,14
14,test,5,0.0,1-Back,0.0,m,Fri Mar 06 2026 15:15:53 GMT-0600 (Central Standard Time),585902.3000000119,016_y_m_n_a.png,O,None,2015,16,,3022.300000011921,582880.0,7755,VNB,B,15
15,test,5,0.0,1-Back,1.0,m,Fri Mar 06 2026 15:15:53 GMT-0600 (Central Standard Time),588351.0,020_y_f_h_a.png,O,m,1433,17,,2443.9000000059605,585907.099999994,7755,VNB,B,16
16,test,5,0.0,1-Back,1.0,m,Fri Mar 06 2026 15:15:53 GMT-0600 (Central Standard Time),591066.1999999881,007_m_m_d_a.png,O,m,1696,18,,2710.399999976158,588355.8000000119,7755,VNB,B,17
0,prac,1,0.0,2-Back,,,Fri Mar 06 2026 15:15:53 GMT-0600 (Central Standard Time),591066.1999999881,011_m_f_n_a.png,O,space,8812,1,,2710.399999976158,588355.8000000119,7755,VNB,B,0
0,prac,1,0.0,2-Back,,,Fri Mar 06 2026 15:15:53 GMT-0600 (Central Standard Time),591066.1999999881,005_o_f_h_a.png,O,space,8812,2,,2710.399999976158,588355.8000000119,7755,VNB,B,0
1,prac,1,0.0,2-Back,1.0,m,Fri Mar 06 2026 15:15:53 GMT-0600 (Central Standard Time),747650.400000006,004_o_m_d_a.png,O,m,1650,3,,2496.7000000178814,745153.6999999881,7755,VNB,B,1
2,prac,1,1.0,2-Back,1.0,z,Fri Mar 06 2026 15:15:53 GMT-0600 (Central Standard Time),750154.1999999881,007_m_m_h_a.png,O,z,1658,4,,2494.5999999940395,747659.599999994,7755,VNB,B,2
2,prac,1,0.0,2-Back,0.0,m,Fri Mar 06 2026 15:15:53 GMT-0600 (Central Standard Time),752949.599999994,020_y_f_n_a.png,O,z,1965,5,,2791.0999999940395,750158.5,7755,VNB,B,3
2,prac,1,1.0,2-Back,0.0,z,Fri Mar 06 2026 15:15:53 GMT-0600 (Central Standard Time),755714.6999999881,004_o_m_h_a.png,O,m,1903,6,,2752.2999999821186,752962.400000006,7755,VNB,B,4
2,prac,1,1.0,2-Back,0.0,z,Fri Mar 06 2026 15:15:53 GMT-0600 (Central Standard Time),758362.900000006,016_y_m_n_a.png,O,m,1778,7,,2642.9000000059605,755720.0,7755,VNB,B,5
2,prac,1,0.0,2-Back,0.0,m,Fri Mar 06 2026 15:15:53 GMT-0600 (Central Standard Time),761215.3000000119,011_m_f_d_a.png,O,None,2010,8,,2841.300000011921,758374.0,7755,VNB,B,6
2,prac,1,0.0,2-Back,0.0,m,Fri Mar 06 2026 15:15:53 GMT-0600 (Central Standard Time),763962.5,005_o_f_d_a.png,O,z,1891,9,,2740.5,761222.0,7755,VNB,B,7
3,prac,1,0.0,2-Back,1.0,m,Fri Mar 06 2026 15:15:53 GMT-0600 (Central Standard Time),766193.8000000119,007_m_m_h_a.png,O,m,1464,10,,2220.600000023842,763973.1999999881,7755,VNB,B,8
3,prac,1,1.0,2-Back,0.0,z,Fri Mar 06 2026 15:15:53 GMT-0600 (Central Standard Time),769042.900000006,020_y_f_d_a.png,O,None,2009,11,,2846.0999999940395,766196.8000000119,7755,VNB,B,9
3,prac,1,0.0,2-Back,0.0,m,Fri Mar 06 2026 15:15:53 GMT-0600 (Central Standard Time),771326.6999999881,004_o_m_n_a.png,O,z,1445,12,,2276.5,769050.1999999881,7755,VNB,B,10
0,prac,2,0.0,2-Back,,,Fri Mar 06 2026 15:15:53 GMT-0600 (Central Standard Time),771326.6999999881,011_m_f_n_a.png,O,a,14917,1,,2276.5,769050.1999999881,7755,VNB,B,0
0,prac,2,0.0,2-Back,,,Fri Mar 06 2026 15:15:53 GMT-0600 (Central Standard Time),771326.6999999881,005_o_f_h_a.png,O,a,14917,2,,2276.5,769050.1999999881,7755,VNB,B,0
1,prac,2,0.0,2-Back,1.0,m,Fri Mar 06 2026 15:15:53 GMT-0600 (Central Standard Time),793888.8000000119,004_o_m_d_a.png,O,m,1602,3,,2430.2000000178814,791458.599999994,7755,VNB,B,1
2,prac,2,1.0,2-Back,1.0,z,Fri Mar 06 2026 15:15:53 GMT-0600 (Central Standard Time),796085.599999994,007_m_m_h_a.png,O,z,1414,4,,2188.5999999940395,793897.0,7755,VNB,B,2
2,prac,2,0.0,2-Back,0.0,m,Fri Mar 06 2026 15:15:53 GMT-0600 (Central Standard Time),798685.0,020_y_f_n_a.png,O,z,1761,5,,2595.5999999940395,796089.400000006,7755,VNB,B,3
3,prac,2,1.0,2-Back,1.0,z,Fri Mar 06 2026 15:15:53 GMT-0600 (Central Standard Time),801017.900000006,004_o_m_h_a.png,O,z,1461,6,,2326.0,798691.900000006,7755,VNB,B,4
4,prac,2,1.0,2-Back,1.0,z,Fri Mar 06 2026 15:15:53 GMT-0600 (Central Standard Time),803766.099999994,016_y_m_n_a.png,O,z,1870,7,,2744.199999988079,801021.900000006,7755,VNB,B,5
4,prac,2,0.0,2-Back,0.0,m,Fri Mar 06 2026 15:15:53 GMT-0600 (Central Standard Time),806631.400000006,011_m_f_d_a.png,O,None,2012,8,,2854.4000000059605,803777.0,7755,VNB,B,6
5,prac,2,0.0,2-Back,1.0,m,Fri Mar 06 2026 15:15:53 GMT-0600 (Central Standard Time),809364.099999994,005_o_f_d_a.png,O,m,1870,9,,2727.5999999940395,806636.5,7755,VNB,B,7
6,prac,2,0.0,2-Back,1.0,m,Fri Mar 06 2026 15:15:53 GMT-0600 (Central Standard Time),811780.6999999881,007_m_m_h_a.png,O,m,1632,10,,2404.899999976158,809375.8000000119,7755,VNB,B,8
6,prac,2,1.0,2-Back,0.0,z,Fri Mar 06 2026 15:15:53 GMT-0600 (Central Standard Time),814630.1999999881,020_y_f_d_a.png,O,None,2007,11,,2844.399999976158,811785.8000000119,7755,VNB,B,9
7,prac,2,0.0,2-Back,1.0,m,Fri Mar 06 2026 15:15:53 GMT-0600 (Central Standard Time),816863.6999999881,004_o_m_n_a.png,O,m,1405,12,,2222.0999999940395,814641.599999994,7755,VNB,B,10
0,test,1,0.0,2-Back,,,Fri Mar 06 2026 15:15:53 GMT-0600 (Central Standard Time),816863.6999999881,016_y_m_h_a.png,O,space,6929,1,,2222.0999999940395,814641.599999994,7755,VNB,B,0
0,test,1,0.0,2-Back,,,Fri Mar 06 2026 15:15:53 GMT-0600 (Central Standard Time),816863.6999999881,005_o_f_n_a.png,O,space,6929,2,,2222.0999999940395,814641.599999994,7755,VNB,B,0
1,test,1,0.0,2-Back,1.0,z,Fri Mar 06 2026 15:15:53 GMT-0600 (Central Standard Time),858197.0,004_o_m_h_a.png,O,z,1317,3,,2343.800000011921,855853.1999999881,7755,VNB,B,1
2,test,1,0.0,2-Back,1.0,m,Fri Mar 06 2026 15:15:53 GMT-0600 (Central Standard Time),860946.8000000119,011_m_f_d_a.png,O,m,1731,4,,2740.0,858206.8000000119,7755,VNB,B,2
3,test,1,1.0,2-Back,1.0,m,Fri Mar 06 2026 15:15:53 GMT-0600 (Central Standard Time),863579.3000000119,016_y_m_n_a.png,O,m,1602,5,,2627.7000000178814,860951.599999994,7755,VNB,B,3
4,test,1,0.0,2-Back,1.0,z,Fri Mar 06 2026 15:15:53 GMT-0600 (Central Standard Time),865960.599999994,020_y_f_d_a.png,O,z,1362,6,,2376.199999988079,863584.400000006,7755,VNB,B,4
5,test,1,0.0,2-Back,1.0,m,Fri Mar 06 2026 15:15:53 GMT-0600 (Central Standard Time),868644.6999999881,007_m_m_h_a.png,O,m,1652,7,,2682.0,865962.6999999881,7755,VNB,B,5
5,test,1,1.0,2-Back,0.0,m,Fri Mar 06 2026 15:15:53 GMT-0600 (Central Standard Time),871477.599999994,020_y_f_n_a.png,O,z,1809,8,,2824.4000000059605,868653.1999999881,7755,VNB,B,6
5,test,1,0.0,2-Back,0.0,z,Fri Mar 06 2026 15:15:53 GMT-0600 (Central Standard Time),874509.0,005_o_f_h_a.png,O,None,2014,9,,3027.699999988079,871481.3000000119,7755,VNB,B,7
5,test,1,0.0,2-Back,0.0,m,Fri Mar 06 2026 15:15:53 GMT-0600 (Central Standard Time),877541.400000006,004_o_m_d_a.png,O,None,2014,10,,3023.0,874518.400000006,7755,VNB,B,8
5,test,1,1.0,2-Back,0.0,m,Fri Mar 06 2026 15:15:53 GMT-0600 (Central Standard Time),880574.599999994,007_m_m_d_a.png,O,None,2016,11,,3028.5999999940395,877546.0,7755,VNB,B,9
5,test,1,0.0,2-Back,0.0,m,Fri Mar 06 2026 15:15:53 GMT-0600 (Central Standard Time),883457.599999994,011_m_f_n_a.png,O,z,1868,12,,2872.5,880585.099999994,7755,VNB,B,10
6,test,1,0.0,2-Back,1.0,m,Fri Mar 06 2026 15:15:53 GMT-0600 (Central Standard Time),886306.099999994,020_y_f_h_a.png,O,m,1821,13,,2844.0999999940395,883462.0,7755,VNB,B,11
6,test,1,0.0,2-Back,0.0,z,Fri Mar 06 2026 15:15:53 GMT-0600 (Central Standard Time),889338.900000006,007_m_m_n_a.png,O,None,2017,14,,3022.300000011921,886316.599999994,7755,VNB,B,12
7,test,1,0.0,2-Back,1.0,m,Fri Mar 06 2026 15:15:53 GMT-0600 (Central Standard Time),891386.1999999881,016_y_m_d_a.png,O,m,1028,15,,2043.0,889343.1999999881,7755,VNB,B,13
7,test,1,1.0,2-Back,0.0,m,Fri Mar 06 2026 15:15:53 GMT-0600 (Central Standard Time),894421.1999999881,011_m_f_h_a.png,O,None,2016,16,,3025.5999999940395,891395.599999994,7755,VNB,B,14
7,test,1,0.0,2-Back,0.0,z,Fri Mar 06 2026 15:15:53 GMT-0600 (Central Standard Time),897318.6999999881,005_o_f_d_a.png,O,m,1874,17,,2893.5,894425.1999999881,7755,VNB,B,15
7,test,1,0.0,2-Back,0.0,m,Fri Mar 06 2026 15:15:53 GMT-0600 (Central Standard Time),900352.3000000119,004_o_m_n_a.png,O,None,2015,18,,3021.800000011921,897330.5,7755,VNB,B,16
0,test,2,0.0,2-Back,,,Fri Mar 06 2026 15:15:53 GMT-0600 (Central Standard Time),900352.3000000119,007_m_m_h_a.png,O,None,60013,1,,3021.800000011921,897330.5,7755,VNB,B,0
0,test,2,0.0,2-Back,,,Fri Mar 06 2026 15:15:53 GMT-0600 (Central Standard Time),900352.3000000119,020_y_f_n_a.png,O,None,60013,2,,3021.800000011921,897330.5,7755,VNB,B,0
0,test,2,1.0,2-Back,0.0,z,Fri Mar 06 2026 15:15:53 GMT-0600 (Central Standard Time),968597.1999999881,005_o_f_h_a.png,O,None,2015,3,,3028.5999999940395,965568.599999994,7755,VNB,B,1
0,test,2,0.0,2-Back,0.0,m,Fri Mar 06 2026 15:15:53 GMT-0600 (Central Standard Time),971629.3000000119,004_o_m_d_a.png,O,None,2016,4,,3027.0,968602.3000000119,7755,VNB,B,2
0,test,2,0.0,2-Back,0.0,m,Fri Mar 06 2026 15:15:53 GMT-0600 (Central Standard Time),974660.8000000119,011_m_f_d_a.png,O,None,2016,5,,3025.2000000178814,971635.599999994,7755,VNB,B,3
0,test,2,0.0,2-Back,0.0,m,Fri Mar 06 2026 15:15:53 GMT-0600 (Central Standard Time),977693.1999999881,016_y_m_h_a.png,O,None,2015,6,,3023.199999988079,974670.0,7755,VNB,B,4
0,test,2,0.0,2-Back,0.0,m,Fri Mar 06 2026 15:15:53 GMT-0600 (Central Standard Time),980726.1999999881,005_o_f_n_a.png,O,None,2015,7,,3030.2999999821186,977695.900000006,7755,VNB,B,5
0,test,2,1.0,2-Back,0.0,z,Fri Mar 06 2026 15:15:53 GMT-0600 (Central Standard Time),983759.400000006,004_o_m_h_a.png,O,None,2015,8,,3025.300000011921,980734.099999994,7755,VNB,B,6
0,test,2,0.0,2-Back,0.0,m,Fri Mar 06 2026 15:15:53 GMT-0600 (Central Standard Time),986790.400000006,020_y_f_d_a.png,O,None,2014,9,,3025.5999999940395,983764.8000000119,7755,VNB,B,7
0,test,2,0.0,2-Back,0.0,m,Fri Mar 06 2026 15:15:53 GMT-0600 (Central Standard Time),989823.099999994,016_y_m_d_a.png,O,None,2016,10,,3022.199999988079,986800.900000006,7755,VNB,B,8
0,test,2,0.0,2-Back,0.0,m,Fri Mar 06 2026 15:15:53 GMT-0600 (Central Standard Time),992855.900000006,007_m_m_n_a.png,O,None,2016,11,,3029.0999999940395,989826.8000000119,7755,VNB,B,9
0,test,2,0.0,2-Back,0.0,m,Fri Mar 06 2026 15:15:53 GMT-0600 (Central Standard Time),995888.5,011_m_f_h_a.png,O,None,2015,12,,3023.0,992865.5,7755,VNB,B,10
0,test,2,1.0,2-Back,0.0,z,Fri Mar 06 2026 15:15:53 GMT-0600 (Central Standard Time),998920.1999999881,004_o_m_n_a.png,O,None,2015,13,,3028.699999988079,995891.5,7755,VNB,B,11
0,test,2,0.0,2-Back,0.0,m,Fri Mar 06 2026 15:15:53 GMT-0600 (Central Standard Time),1001953.599999994,005_o_f_d_a.png,O,None,2017,14,,3023.9000000059605,998929.6999999881,7755,VNB,B,12
0,test,2,0.0,2-Back,0.0,m,Fri Mar 06 2026 15:15:53 GMT-0600 (Central Standard Time),1004984.599999994,020_y_f_h_a.png,O,None,2015,15,,3027.0999999940395,1001957.5,7755,VNB,B,13
0,test,2,0.0,2-Back,0.0,z,Fri Mar 06 2026 15:15:53 GMT-0600 (Central Standard Time),1008017.900000006,007_m_m_d_a.png,O,None,2016,16,,3022.5,1004995.400000006,7755,VNB,B,14
0,test,2,0.0,2-Back,0.0,m,Fri Mar 06 2026 15:15:53 GMT-0600 (Central Standard Time),1011037.0,016_y_m_n_a.png,O,None,2003,17,,3014.699999988079,1008022.3000000119,7755,VNB,B,15
0,test,2,1.0,2-Back,0.0,m,Fri Mar 06 2026 15:15:53 GMT-0600 (Central Standard Time),1014065.099999994,011_m_f_n_a.png,O,None,2015,18,,3021.199999988079,1011043.900000006,7755,VNB,B,16
0,test,3,1.0,2-Back,,,Fri Mar 06 2026 15:15:53 GMT-0600 (Central Standard Time),1014065.099999994,004_o_m_n_a.png,O,space,28910,1,,3021.199999988079,1011043.900000006,7755,VNB,B,0
0,test,3,1.0,2-Back,,,Fri Mar 06 2026 15:15:53 GMT-0600 (Central Standard Time),1014065.099999994,005_o_f_d_a.png,O,space,28910,2,,3021.199999988079,1011043.900000006,7755,VNB,B,0
1,test,3,0.0,2-Back,1.0,m,Fri Mar 06 2026 15:15:53 GMT-0600 (Central Standard Time),1050369.400000006,020_y_f_h_a.png,O,m,1305,3,,2328.0999999940395,1048041.3000000119,7755,VNB,B,1
1,test,3,0.0,2-Back,0.0,z,Fri Mar 06 2026 15:15:53 GMT-0600 (Central Standard Time),1053404.099999994,011_m_f_d_a.png,O,None,2017,4,,3027.2999999821186,1050376.800000012,7755,VNB,B,2
2,test,3,1.0,2-Back,1.0,m,Fri Mar 06 2026 15:15:53 GMT-0600 (Central Standard Time),1055885.400000006,016_y_m_n_a.png,O,m,1460,5,,2477.7000000178814,1053407.699999988,7755,VNB,B,3
3,test,3,0.0,2-Back,1.0,m,Fri Mar 06 2026 15:15:53 GMT-0600 (Central Standard Time),1058121.900000006,004_o_m_h_a.png,O,m,1208,6,,2229.2000000178814,1055892.699999988,7755,VNB,B,4
4,test,3,0.0,2-Back,1.0,z,Fri Mar 06 2026 15:15:53 GMT-0600 (Central Standard Time),1060667.199999988,020_y_f_n_a.png,O,z,1516,7,,2541.7999999821186,1058125.400000006,7755,VNB,B,5
4,test,3,1.0,2-Back,0.0,m,Fri Mar 06 2026 15:15:53 GMT-0600 (Central Standard Time),1063232.900000006,007_m_m_d_a.png,O,z,1548,8,,2557.5,1060675.400000006,7755,VNB,B,6
5,test,3,0.0,2-Back,1.0,m,Fri Mar 06 2026 15:15:53 GMT-0600 (Central Standard Time),1066198.800000012,016_y_m_d_a.png,O,m,1933,9,,2961.4000000059605,1063237.400000006,7755,VNB,B,7
6,test,3,0.0,2-Back,1.0,m,Fri Mar 06 2026 15:15:53 GMT-0600 (Central Standard Time),1068331.599999994,005_o_f_h_a.png,O,m,1111,10,,2126.699999988079,1066204.900000006,7755,VNB,B,8
7,test,3,1.0,2-Back,1.0,m,Fri Mar 06 2026 15:15:53 GMT-0600 (Central Standard Time),1071029.5,011_m_f_n_a.png,O,m,1675,11,,2694.9000000059605,1068334.599999994,7755,VNB,B,9
8,test,3,1.0,2-Back,1.0,z,Fri Mar 06 2026 15:15:53 GMT-0600 (Central Standard Time),1073362.699999988,007_m_m_h_a.png,O,z,1310,12,,2325.5,1071037.199999988,7755,VNB,B,10
9,test,3,0.0,2-Back,1.0,m,Fri Mar 06 2026 15:15:53 GMT-0600 (Central Standard Time),1075760.800000012,020_y_f_d_a.png,O,m,1366,13,,2394.800000011921,1073366.0,7755,VNB,B,11
10,test,3,0.0,2-Back,1.0,m,Fri Mar 06 2026 15:15:53 GMT-0600 (Central Standard Time),1077678.099999994,005_o_f_n_a.png,O,m,885,14,,1911.5999999940395,1075766.5,7755,VNB,B,12
11,test,3,0.0,2-Back,1.0,z,Fri Mar 06 2026 15:15:53 GMT-0600 (Central Standard Time),1080043.900000006,004_o_m_d_a.png,O,z,1335,15,,2362.2000000178814,1077681.699999988,7755,VNB,B,13
12,test,3,1.0,2-Back,1.0,m,Fri Mar 06 2026 15:15:53 GMT-0600 (Central Standard Time),1082477.099999994,011_m_f_h_a.png,O,m,1402,16,,2423.5,1080053.599999994,7755,VNB,B,14
13,test,3,0.0,2-Back,1.0,m,Fri Mar 06 2026 15:15:53 GMT-0600 (Central Standard Time),1085377.800000012,007_m_m_n_a.png,O,m,1874,17,,2898.0,1082479.800000012,7755,VNB,B,15
14,test,3,0.0,2-Back,1.0,z,Fri Mar 06 2026 15:15:53 GMT-0600 (Central Standard Time),1087742.5,016_y_m_h_a.png,O,z,1343,18,,2356.699999988079,1085385.800000012,7755,VNB,B,16
0,test,4,0.0,2-Back,,,Fri Mar 06 2026 15:15:53 GMT-0600 (Central Standard Time),1087742.5,011_m_f_n_a.png,O,space,1352,1,,2356.699999988079,1085385.800000012,7755,VNB,B,0
0,test,4,0.0,2-Back,,,Fri Mar 06 2026 15:15:53 GMT-0600 (Central Standard Time),1087742.5,004_o_m_n_a.png,O,space,1352,2,,2356.699999988079,1085385.800000012,7755,VNB,B,0
1,test,4,1.0,2-Back,1.0,m,Fri Mar 06 2026 15:15:53 GMT-0600 (Central Standard Time),1096323.300000012,016_y_m_h_a.png,O,m,1017,3,,2029.800000011921,1094293.5,7755,VNB,B,1
2,test,4,1.0,2-Back,1.0,m,Fri Mar 06 2026 15:15:53 GMT-0600 (Central Standard Time),1099289.599999994,005_o_f_d_a.png,O,m,1941,4,,2956.2999999821186,1096333.300000012,7755,VNB,B,2
3,test,4,0.0,2-Back,1.0,z,Fri Mar 06 2026 15:15:53 GMT-0600 (Central Standard Time),1101554.400000006,004_o_m_h_a.png,O,z,1238,5,,2261.9000000059605,1099292.5,7755,VNB,B,3
3,test,4,0.0,2-Back,0.0,m,Fri Mar 06 2026 15:15:53 GMT-0600 (Central Standard Time),1104319.300000012,007_m_m_n_a.png,O,z,1738,6,,2754.800000011921,1101564.5,7755,VNB,B,4
4,test,4,0.0,2-Back,1.0,m,Fri Mar 06 2026 15:15:53 GMT-0600 (Central Standard Time),1106534.599999994,011_m_f_d_a.png,O,m,1185,7,,2212.0,1104322.599999994,7755,VNB,B,5
5,test,4,0.0,2-Back,1.0,z,Fri Mar 06 2026 15:15:53 GMT-0600 (Central Standard Time),1108752.300000012,020_y_f_n_a.png,O,z,1191,8,,2214.4000000059605,1106537.900000006,7755,VNB,B,6
6,test,4,1.0,2-Back,1.0,m,Fri Mar 06 2026 15:15:53 GMT-0600 (Central Standard Time),1111269.599999994,005_o_f_h_a.png,O,m,1495,9,,2513.9000000059605,1108755.699999988,7755,VNB,B,7
7,test,4,0.0,2-Back,1.0,m,Fri Mar 06 2026 15:15:53 GMT-0600 (Central Standard Time),1114150.800000012,007_m_m_h_a.png,O,m,1850,10,,2871.300000011921,1111279.5,7755,VNB,B,8
8,test,4,0.0,2-Back,1.0,m,Fri Mar 06 2026 15:15:53 GMT-0600 (Central Standard Time),1116283.5,020_y_f_d_a.png,O,m,1099,11,,2129.4000000059605,1114154.099999994,7755,VNB,B,9
9,test,4,0.0,2-Back,1.0,m,Fri Mar 06 2026 15:15:53 GMT-0600 (Central Standard Time),1118416.699999988,016_y_m_n_a.png,O,m,1105,12,,2123.699999988079,1116293.0,7755,VNB,B,10
10,test,4,0.0,2-Back,1.0,z,Fri Mar 06 2026 15:15:53 GMT-0600 (Central Standard Time),1121064.300000012,004_o_m_d_a.png,O,z,1624,13,,2645.9000000059605,1118418.400000006,7755,VNB,B,11
10,test,4,1.0,2-Back,0.0,m,Fri Mar 06 2026 15:15:53 GMT-0600 (Central Standard Time),1124095.099999994,011_m_f_h_a.png,O,None,2012,14,,3023.4000000059605,1121071.699999988,7755,VNB,B,12
11,test,4,1.0,2-Back,1.0,m,Fri Mar 06 2026 15:15:53 GMT-0600 (Central Standard Time),1126346.300000012,020_y_f_h_a.png,O,m,1232,15,,2249.5,1124096.800000012,7755,VNB,B,13
12,test,4,0.0,2-Back,1.0,m,Fri Mar 06 2026 15:15:53 GMT-0600 (Central Standard Time),1128612.199999988,005_o_f_n_a.png,O,m,1245,16,,2257.399999976158,1126354.800000012,7755,VNB,B,14
13,test,4,0.0,2-Back,1.0,m,Fri Mar 06 2026 15:15:53 GMT-0600 (Central Standard Time),1130560.5,016_y_m_d_a.png,O,m,922,17,,1946.0999999940395,1128614.400000006,7755,VNB,B,15
13,test,4,1.0,2-Back,0.0,m,Fri Mar 06 2026 15:15:53 GMT-0600 (Central Standard Time),1133378.0,007_m_m_d_a.png,O,z,1790,18,,2814.5,1130563.5,7755,VNB,B,16
0,test,5,1.0,2-Back,,,Fri Mar 06 2026 15:15:53 GMT-0600 (Central Standard Time),1133378.0,020_y_f_d_a.png,O,space,1339,1,,2814.5,1130563.5,7755,VNB,B,0
0,test,5,1.0,2-Back,,,Fri Mar 06 2026 15:15:53 GMT-0600 (Central Standard Time),1133378.0,005_o_f_h_a.png,O,space,1339,2,,2814.5,1130563.5,7755,VNB,B,0
0,test,5,1.0,2-Back,0.0,z,Fri Mar 06 2026 15:15:53 GMT-0600 (Central Standard Time),1142641.599999994,004_o_m_d_a.png,O,m,1705,3,,2731.5999999940395,1139910.0,7755,VNB,B,1
1,test,5,1.0,2-Back,1.0,m,Fri Mar 06 2026 15:15:53 GMT-0600 (Central Standard Time),1145057.699999988,011_m_f_n_a.png,O,m,1381,4,,2409.899999976158,1142647.800000012,7755,VNB,B,2
2,test,5,0.0,2-Back,1.0,m,Fri Mar 06 2026 15:15:53 GMT-0600 (Central Standard Time),1147172.800000012,007_m_m_h_a.png,O,m,1087,5,,2111.300000011921,1145061.5,7755,VNB,B,3
3,test,5,0.0,2-Back,1.0,z,Fri Mar 06 2026 15:15:53 GMT-0600 (Central Standard Time),1149506.900000006,020_y_f_n_a.png,O,z,1314,6,,2326.2000000178814,1147180.699999988,7755,VNB,B,4
4,test,5,0.0,2-Back,1.0,m,Fri Mar 06 2026 15:15:53 GMT-0600 (Central Standard Time),1152272.800000012,005_o_f_d_a.png,O,m,1732,7,,2763.300000011921,1149509.5,7755,VNB,B,5
5,test,5,0.0,2-Back,1.0,m,Fri Mar 06 2026 15:15:53 GMT-0600 (Central Standard Time),1154288.400000006,004_o_m_h_a.png,O,m,991,8,,2002.0,1152286.400000006,7755,VNB,B,6
6,test,5,1.0,2-Back,1.0,z,Fri Mar 06 2026 15:15:53 GMT-0600 (Central Standard Time),1156486.699999988,011_m_f_d_a.png,O,z,1175,9,,2195.5999999940395,1154291.099999994,7755,VNB,B,7
6,test,5,0.0,2-Back,0.0,m,Fri Mar 06 2026 15:15:53 GMT-0600 (Central Standard Time),1159470.0,016_y_m_n_a.png,O,z,1958,10,,2974.4000000059605,1156495.599999994,7755,VNB,B,8
6,test,5,0.0,2-Back,0.0,m,Fri Mar 06 2026 15:15:53 GMT-0600 (Central Standard Time),1162101.0,007_m_m_n_a.png,O,z,1601,11,,2628.4000000059605,1159472.599999994,7755,VNB,B,9
7,test,5,0.0,2-Back,1.0,m,Fri Mar 06 2026 15:15:53 GMT-0600 (Central Standard Time),1165001.699999988,020_y_f_h_a.png,O,m,1867,12,,2891.0,1162110.699999988,7755,VNB,B,10
7,test,5,0.0,2-Back,0.0,m,Fri Mar 06 2026 15:15:53 GMT-0600 (Central Standard Time),1168033.400000006,016_y_m_d_a.png,O,None,2015,13,,3029.4000000059605,1165004.0,7755,VNB,B,11
8,test,5,1.0,2-Back,1.0,z,Fri Mar 06 2026 15:15:53 GMT-0600 (Central Standard Time),1170215.900000006,011_m_f_h_a.png,O,z,1150,14,,2178.0999999940395,1168037.800000012,7755,VNB,B,12
9,test,5,0.0,2-Back,1.0,m,Fri Mar 06 2026 15:15:53 GMT-0600 (Central Standard Time),1172816.400000006,004_o_m_n_a.png,O,m,1583,15,,2596.9000000059605,1170219.5,7755,VNB,B,13
10,test,5,0.0,2-Back,1.0,m,Fri Mar 06 2026 15:15:53 GMT-0600 (Central Standard Time),1175247.699999988,007_m_m_d_a.png,O,m,1410,16,,2424.5999999940395,1172823.099999994,7755,VNB,B,14
10,test,5,0.0,2-Back,0.0,z,Fri Mar 06 2026 15:15:53 GMT-0600 (Central Standard Time),1178282.599999994,005_o_f_n_a.png,O,None,2019,17,,3032.0999999940395,1175250.5,7755,VNB,B,15
11,test,5,1.0,2-Back,1.0,m,Fri Mar 06 2026 15:15:53 GMT-0600 (Central Standard Time),1181080.800000012,016_y_m_h_a.png,O,m,1766,18,,2786.4000000059605,1178294.400000006,7755,VNB,B,16
