acc_sum,block,block_c,block_cond,con_img,correct,correct_response,datetime,endtime,face,jitter,line,project,response,response_time,row_sel,session_number,start_end,starttime,subject_id,task,task_vers,trial
1,prac,1,A,haborder.png,1,z,Fri Jul 18 2025 11:57:44 GMT-0500 (Central Daylight Time),158984.70000000298,CFD-BF-039-039-A.jpg,1200,solid,O,z,1173,6,1,3165.7000000029802,155819.0,7176,ATS,A,1
2,prac,1,A,haborder.png,1,m,Fri Jul 18 2025 11:57:44 GMT-0500 (Central Daylight Time),162200.30000000447,CFD-WF-017-016-HC.jpg,1500,solid,O,m,917,11,1,6381.30000000447,155819.0,7176,ATS,A,2
3,prac,1,A,haborder.png,1,z,Fri Jul 18 2025 11:57:44 GMT-0500 (Central Daylight Time),165816.1000000015,CFD-WM-013-015-A.jpg,1900,solid,O,z,917,8,1,9997.10000000149,155819.0,7176,ATS,A,3
4,prac,1,A,haborder.png,1,z,Fri Jul 18 2025 11:57:44 GMT-0500 (Central Daylight Time),168432.1000000015,CFD-WF-019-015-A.jpg,1000,solid,O,z,825,12,1,12613.10000000149,155819.0,7176,ATS,A,4
5,prac,1,A,haborder.png,1,m,Fri Jul 18 2025 11:57:44 GMT-0500 (Central Daylight Time),171830.90000000596,CFD-WM-006-013-HC.jpg,1700,solid,O,m,901,9,1,16011.90000000596,155819.0,7176,ATS,A,5
6,prac,1,A,haborder.png,1,m,Fri Jul 18 2025 11:57:44 GMT-0500 (Central Daylight Time),175579.6000000015,CFD-BF-028-020-HC.jpg,2000,solid,O,m,954,5,1,19760.60000000149,155819.0,7176,ATS,A,6
7,prac,1,A,haborder.png,1,z,Fri Jul 18 2025 11:57:44 GMT-0500 (Central Daylight Time),178962.1000000015,CFD-BM-005-010-A.jpg,1600,solid,O,z,997,2,1,23143.10000000149,155819.0,7176,ATS,A,7
8,prac,1,A,haborder.png,1,m,Fri Jul 18 2025 11:57:44 GMT-0500 (Central Daylight Time),182194.6000000015,CFD-BM-029-026-HC.jpg,1500,solid,O,m,947,3,1,26375.60000000149,155819.0,7176,ATS,A,8
9,prac,1,A,haborder.png,1,m,Fri Jul 18 2025 11:57:44 GMT-0500 (Central Daylight Time),185593.40000000596,CFD-BM-017-052-HC.jpg,1700,solid,O,m,915,1,1,29774.40000000596,155819.0,7176,ATS,A,9
10,prac,1,A,haborder.png,1,z,Fri Jul 18 2025 11:57:44 GMT-0500 (Central Daylight Time),188192.6000000015,CFD-BF-023-013-A.jpg,1000,solid,O,z,808,4,1,32373.60000000149,155819.0,7176,ATS,A,10
11,prac,1,A,haborder.png,1,m,Fri Jul 18 2025 11:57:44 GMT-0500 (Central Daylight Time),191275.20000000298,CFD-WM-004-005-HC.jpg,1400,solid,O,m,889,7,1,35456.20000000298,155819.0,7176,ATS,A,11
12,prac,1,A,haborder.png,1,z,Fri Jul 18 2025 11:57:44 GMT-0500 (Central Daylight Time),194740.20000000298,CFD-WF-003-014-A.jpg,1600,solid,O,z,1070,10,1,38921.20000000298,155819.0,7176,ATS,A,12
0,prac,1,B,mfborder.png,0,z,Fri Jul 18 2025 11:57:44 GMT-0500 (Central Daylight Time),218199.6000000015,CFD-WF-017-016-HC.jpg,1000,dash,O,None,1515,12,1,3298.60000000149,214901.0,7176,ATS,A,1
1,prac,1,B,mfborder.png,1,z,Fri Jul 18 2025 11:57:44 GMT-0500 (Central Daylight Time),221082.1000000015,CFD-BF-023-013-A.jpg,1000,dash,O,z,1096,4,1,6181.10000000149,214901.0,7176,ATS,A,2
2,prac,1,B,mfborder.png,1,m,Fri Jul 18 2025 11:57:44 GMT-0500 (Central Daylight Time),224881.1000000015,CFD-BM-010-019-A.jpg,1600,dash,O,m,1407,2,1,9980.10000000149,214901.0,7176,ATS,A,3
3,prac,1,B,mfborder.png,1,m,Fri Jul 18 2025 11:57:44 GMT-0500 (Central Daylight Time),228713.40000000596,CFD-BM-029-026-HC.jpg,1700,dash,O,m,1340,1,1,13812.40000000596,214901.0,7176,ATS,A,4
4,prac,1,B,mfborder.png,1,m,Fri Jul 18 2025 11:57:44 GMT-0500 (Central Daylight Time),232728.5,CFD-BM-005-010-A.jpg,2000,dash,O,m,1224,5,1,17827.5,214901.0,7176,ATS,A,5
5,prac,1,B,mfborder.png,1,m,Fri Jul 18 2025 11:57:44 GMT-0500 (Central Daylight Time),236244.20000000298,CFD-WM-013-015-A.jpg,1700,dash,O,m,1021,9,1,21343.20000000298,214901.0,7176,ATS,A,6
6,prac,1,B,mfborder.png,1,z,Fri Jul 18 2025 11:57:44 GMT-0500 (Central Daylight Time),239943.0,CFD-WF-003-014-A.jpg,1500,dash,O,z,1409,11,1,25042.0,214901.0,7176,ATS,A,7
7,prac,1,B,mfborder.png,1,z,Fri Jul 18 2025 11:57:44 GMT-0500 (Central Daylight Time),243874.90000000596,CFD-WF-002-008-HC.jpg,1900,dash,O,z,1238,8,1,28973.90000000596,214901.0,7176,ATS,A,8
8,prac,1,B,mfborder.png,1,m,Fri Jul 18 2025 11:57:44 GMT-0500 (Central Daylight Time),247124.30000000447,CFD-WM-019-013-A.jpg,1200,dash,O,m,1262,6,1,32223.30000000447,214901.0,7176,ATS,A,9
9,prac,1,B,mfborder.png,1,m,Fri Jul 18 2025 11:57:44 GMT-0500 (Central Daylight Time),250423.0,CFD-WM-006-013-HC.jpg,1600,dash,O,m,901,10,1,35522.0,214901.0,7176,ATS,A,10
10,prac,1,B,mfborder.png,1,z,Fri Jul 18 2025 11:57:44 GMT-0500 (Central Daylight Time),253905.20000000298,CFD-BF-010-005-HC.jpg,1500,dash,O,z,1198,3,1,39004.20000000298,214901.0,7176,ATS,A,11
11,prac,1,B,mfborder.png,1,z,Fri Jul 18 2025 11:57:44 GMT-0500 (Central Daylight Time),257020.80000000447,CFD-BF-028-020-HC.jpg,1400,dash,O,z,928,7,1,42119.80000000447,214901.0,7176,ATS,A,12
1,test,1,A,haborder.png,1,m,Fri Jul 18 2025 11:57:44 GMT-0500 (Central Daylight Time),282796.200000003,CFD-WM-004-005-HC.jpg,1400,solid,O,m,872,7,1,2299.39999999851,280496.80000000447,7176,ATS,A,1
2,test,1,A,haborder.png,1,m,Fri Jul 18 2025 11:57:44 GMT-0500 (Central Daylight Time),285578.700000003,CFD-BF-028-020-HC.jpg,2000,solid,O,m,758,5,1,5081.89999999851,280496.80000000447,7176,ATS,A,2
3,test,1,A,haborder.png,1,z,Fri Jul 18 2025 11:57:44 GMT-0500 (Central Daylight Time),287378.0,CFD-WF-019-015-A.jpg,1000,solid,O,z,767,12,1,6881.19999999553,280496.80000000447,7176,ATS,A,3
4,test,1,A,haborder.png,1,m,Fri Jul 18 2025 11:57:44 GMT-0500 (Central Daylight Time),289993.90000000596,CFD-WM-006-013-HC.jpg,1700,solid,O,m,883,9,1,9497.10000000149,280496.80000000447,7176,ATS,A,4
5,test,1,A,haborder.png,1,m,Fri Jul 18 2025 11:57:44 GMT-0500 (Central Daylight Time),292476.1000000015,CFD-WF-017-016-HC.jpg,1500,solid,O,m,962,11,1,11979.29999999702,280496.80000000447,7176,ATS,A,5
6,test,1,A,haborder.png,1,z,Fri Jul 18 2025 11:57:44 GMT-0500 (Central Daylight Time),295375.40000000596,CFD-WM-013-015-A.jpg,1900,solid,O,z,977,8,1,14878.60000000149,280496.80000000447,7176,ATS,A,6
7,test,1,A,haborder.png,1,z,Fri Jul 18 2025 11:57:44 GMT-0500 (Central Daylight Time),297124.80000000447,CFD-BF-023-013-A.jpg,1000,solid,O,z,730,4,1,16628.0,280496.80000000447,7176,ATS,A,7
8,test,1,A,haborder.png,1,z,Fri Jul 18 2025 11:57:44 GMT-0500 (Central Daylight Time),299357.6000000015,CFD-BM-005-010-A.jpg,1600,solid,O,z,605,2,1,18860.79999999702,280496.80000000447,7176,ATS,A,8
9,test,1,A,haborder.png,1,m,Fri Jul 18 2025 11:57:44 GMT-0500 (Central Daylight Time),302206.80000000447,CFD-BF-028-020-HC.jpg,2000,solid,O,m,828,5,1,21710.0,280496.80000000447,7176,ATS,A,9
10,test,1,A,haborder.png,1,m,Fri Jul 18 2025 11:57:44 GMT-0500 (Central Daylight Time),304472.6000000015,CFD-BM-029-026-HC.jpg,1500,solid,O,m,735,3,1,23975.79999999702,280496.80000000447,7176,ATS,A,10
10,test,1,A,haborder.png,0,z,Fri Jul 18 2025 11:57:44 GMT-0500 (Central Daylight Time),306771.80000000447,CFD-WF-003-014-A.jpg,1600,solid,O,m,673,10,1,26275.0,280496.80000000447,7176,ATS,A,11
11,test,1,A,haborder.png,1,m,Fri Jul 18 2025 11:57:44 GMT-0500 (Central Daylight Time),309004.40000000596,CFD-WM-004-005-HC.jpg,1400,solid,O,m,805,7,1,28507.60000000149,280496.80000000447,7176,ATS,A,12
12,test,1,A,haborder.png,1,m,Fri Jul 18 2025 11:57:44 GMT-0500 (Central Daylight Time),311270.30000000447,CFD-BM-029-026-HC.jpg,1500,solid,O,m,744,3,1,30773.5,280496.80000000447,7176,ATS,A,13
13,test,1,A,haborder.png,1,z,Fri Jul 18 2025 11:57:44 GMT-0500 (Central Daylight Time),313819.700000003,CFD-BM-005-010-A.jpg,1600,solid,O,z,931,2,1,33322.89999999851,280496.80000000447,7176,ATS,A,14
14,test,1,A,haborder.png,1,m,Fri Jul 18 2025 11:57:44 GMT-0500 (Central Daylight Time),316618.5,CFD-BM-017-052-HC.jpg,1700,solid,O,m,1068,1,1,36121.69999999553,280496.80000000447,7176,ATS,A,15
15,test,1,A,haborder.png,1,m,Fri Jul 18 2025 11:57:44 GMT-0500 (Central Daylight Time),319218.1000000015,CFD-WM-006-013-HC.jpg,1700,solid,O,m,879,9,1,38721.29999999702,280496.80000000447,7176,ATS,A,16
16,test,1,A,haborder.png,1,z,Fri Jul 18 2025 11:57:44 GMT-0500 (Central Daylight Time),321300.6000000015,CFD-BF-023-013-A.jpg,1000,solid,O,z,1063,4,1,40803.79999999702,280496.80000000447,7176,ATS,A,17
17,test,1,A,haborder.png,1,z,Fri Jul 18 2025 11:57:44 GMT-0500 (Central Daylight Time),323933.1000000015,CFD-BF-039-039-A.jpg,1200,solid,O,z,1413,6,1,43436.29999999702,280496.80000000447,7176,ATS,A,18
18,test,1,A,haborder.png,1,z,Fri Jul 18 2025 11:57:44 GMT-0500 (Central Daylight Time),326282.30000000447,CFD-WF-003-014-A.jpg,1600,solid,O,z,716,10,1,45785.5,280496.80000000447,7176,ATS,A,19
19,test,1,A,haborder.png,1,z,Fri Jul 18 2025 11:57:44 GMT-0500 (Central Daylight Time),327932.200000003,CFD-WF-019-015-A.jpg,1000,solid,O,z,623,12,1,47435.39999999851,280496.80000000447,7176,ATS,A,20
20,test,1,A,haborder.png,1,m,Fri Jul 18 2025 11:57:44 GMT-0500 (Central Daylight Time),330314.30000000447,CFD-BM-017-052-HC.jpg,1700,solid,O,m,665,1,1,49817.5,280496.80000000447,7176,ATS,A,21
21,test,1,A,haborder.png,1,m,Fri Jul 18 2025 11:57:44 GMT-0500 (Central Daylight Time),332630.5,CFD-WF-017-016-HC.jpg,1500,solid,O,m,795,11,1,52133.69999999553,280496.80000000447,7176,ATS,A,22
21,test,1,A,haborder.png,0,z,Fri Jul 18 2025 11:57:44 GMT-0500 (Central Daylight Time),334912.90000000596,CFD-BF-039-039-A.jpg,1200,solid,O,m,1059,6,1,54416.10000000149,280496.80000000447,7176,ATS,A,23
22,test,1,A,haborder.png,1,z,Fri Jul 18 2025 11:57:44 GMT-0500 (Central Daylight Time),338012.1000000015,CFD-WM-013-015-A.jpg,1900,solid,O,z,1172,8,1,57515.29999999702,280496.80000000447,7176,ATS,A,24
1,test,1,B,mfborder.png,1,z,Fri Jul 18 2025 11:57:44 GMT-0500 (Central Daylight Time),353340.6000000015,CFD-WF-002-008-HC.jpg,1900,dash,O,z,985,8,1,2915.60000000149,350425.0,7176,ATS,A,1
2,test,1,B,mfborder.png,1,m,Fri Jul 18 2025 11:57:44 GMT-0500 (Central Daylight Time),355856.40000000596,CFD-BM-010-019-A.jpg,1600,dash,O,m,885,2,1,5431.4000000059605,350425.0,7176,ATS,A,2
3,test,1,B,mfborder.png,1,m,Fri Jul 18 2025 11:57:44 GMT-0500 (Central Daylight Time),358555.6000000015,CFD-BM-005-010-A.jpg,2000,dash,O,m,673,5,1,8130.60000000149,350425.0,7176,ATS,A,3
4,test,1,B,mfborder.png,1,m,Fri Jul 18 2025 11:57:44 GMT-0500 (Central Daylight Time),360938.6000000015,CFD-BM-010-019-A.jpg,1600,dash,O,m,753,2,1,10513.60000000149,350425.0,7176,ATS,A,4
5,test,1,B,mfborder.png,1,m,Fri Jul 18 2025 11:57:44 GMT-0500 (Central Daylight Time),363287.40000000596,CFD-WM-006-013-HC.jpg,1600,dash,O,m,727,10,1,12862.40000000596,350425.0,7176,ATS,A,5
6,test,1,B,mfborder.png,1,z,Fri Jul 18 2025 11:57:44 GMT-0500 (Central Daylight Time),365103.40000000596,CFD-BF-023-013-A.jpg,1000,dash,O,z,785,4,1,14678.40000000596,350425.0,7176,ATS,A,6
7,test,1,B,mfborder.png,1,m,Fri Jul 18 2025 11:57:44 GMT-0500 (Central Daylight Time),367136.30000000447,CFD-WM-019-013-A.jpg,1200,dash,O,m,802,6,1,16711.30000000447,350425.0,7176,ATS,A,7
8,test,1,B,mfborder.png,1,z,Fri Jul 18 2025 11:57:44 GMT-0500 (Central Daylight Time),369368.90000000596,CFD-BF-010-005-HC.jpg,1500,dash,O,z,709,3,1,18943.90000000596,350425.0,7176,ATS,A,8
9,test,1,B,mfborder.png,1,m,Fri Jul 18 2025 11:57:44 GMT-0500 (Central Daylight Time),371818.0,CFD-BM-029-026-HC.jpg,1700,dash,O,m,724,1,1,21393.0,350425.0,7176,ATS,A,9
10,test,1,B,mfborder.png,1,z,Fri Jul 18 2025 11:57:44 GMT-0500 (Central Daylight Time),373867.5,CFD-WF-017-016-HC.jpg,1000,dash,O,z,1031,12,1,23442.5,350425.0,7176,ATS,A,10
11,test,1,B,mfborder.png,1,m,Fri Jul 18 2025 11:57:44 GMT-0500 (Central Daylight Time),376183.40000000596,CFD-WM-013-015-A.jpg,1700,dash,O,m,586,9,1,25758.40000000596,350425.0,7176,ATS,A,11
12,test,1,B,mfborder.png,1,z,Fri Jul 18 2025 11:57:44 GMT-0500 (Central Daylight Time),378016.1000000015,CFD-BF-023-013-A.jpg,1000,dash,O,z,802,4,1,27591.10000000149,350425.0,7176,ATS,A,12
13,test,1,B,mfborder.png,1,m,Fri Jul 18 2025 11:57:44 GMT-0500 (Central Daylight Time),379948.90000000596,CFD-WM-019-013-A.jpg,1200,dash,O,m,705,6,1,29523.90000000596,350425.0,7176,ATS,A,13
14,test,1,B,mfborder.png,1,z,Fri Jul 18 2025 11:57:44 GMT-0500 (Central Daylight Time),381815.0,CFD-WF-017-016-HC.jpg,1000,dash,O,z,836,12,1,31390.0,350425.0,7176,ATS,A,14
15,test,1,B,mfborder.png,1,z,Fri Jul 18 2025 11:57:44 GMT-0500 (Central Daylight Time),384047.6000000015,CFD-BF-010-005-HC.jpg,1500,dash,O,z,710,3,1,33622.60000000149,350425.0,7176,ATS,A,15
16,test,1,B,mfborder.png,1,z,Fri Jul 18 2025 11:57:44 GMT-0500 (Central Daylight Time),386197.0,CFD-WF-003-014-A.jpg,1500,dash,O,z,622,11,1,35772.0,350425.0,7176,ATS,A,16
17,test,1,B,mfborder.png,1,z,Fri Jul 18 2025 11:57:44 GMT-0500 (Central Daylight Time),388346.5,CFD-WF-003-014-A.jpg,1500,dash,O,z,632,11,1,37921.5,350425.0,7176,ATS,A,17
18,test,1,B,mfborder.png,1,m,Fri Jul 18 2025 11:57:44 GMT-0500 (Central Daylight Time),390746.1000000015,CFD-WM-006-013-HC.jpg,1600,dash,O,m,783,10,1,40321.10000000149,350425.0,7176,ATS,A,18
19,test,1,B,mfborder.png,1,z,Fri Jul 18 2025 11:57:44 GMT-0500 (Central Daylight Time),393178.200000003,CFD-BF-028-020-HC.jpg,1400,dash,O,z,999,7,1,42753.20000000298,350425.0,7176,ATS,A,19
20,test,1,B,mfborder.png,1,z,Fri Jul 18 2025 11:57:44 GMT-0500 (Central Daylight Time),395860.700000003,CFD-WF-002-008-HC.jpg,1900,dash,O,z,763,8,1,45435.70000000298,350425.0,7176,ATS,A,20
21,test,1,B,mfborder.png,1,m,Fri Jul 18 2025 11:57:44 GMT-0500 (Central Daylight Time),398360.0,CFD-BM-029-026-HC.jpg,1700,dash,O,m,769,1,1,47935.0,350425.0,7176,ATS,A,21
22,test,1,B,mfborder.png,1,z,Fri Jul 18 2025 11:57:44 GMT-0500 (Central Daylight Time),400792.40000000596,CFD-BF-028-020-HC.jpg,1400,dash,O,z,1002,7,1,50367.40000000596,350425.0,7176,ATS,A,22
23,test,1,B,mfborder.png,1,m,Fri Jul 18 2025 11:57:44 GMT-0500 (Central Daylight Time),403258.40000000596,CFD-WM-013-015-A.jpg,1700,dash,O,m,733,9,1,52833.40000000596,350425.0,7176,ATS,A,23
24,test,1,B,mfborder.png,1,m,Fri Jul 18 2025 11:57:44 GMT-0500 (Central Daylight Time),406107.30000000447,CFD-BM-005-010-A.jpg,2000,dash,O,m,823,5,1,55682.30000000447,350425.0,7176,ATS,A,24
0,prac,1,C,haborder.png,0,z,Fri Jul 18 2025 11:57:44 GMT-0500 (Central Daylight Time),446777.700000003,CFD-BF-039-039-A.jpg,1700,solid,O,None,1511,8,1,3998.7000000029802,442779.0,7176,ATS,A,1
1,prac,1,C,haborder.png,1,m,Fri Jul 18 2025 11:57:44 GMT-0500 (Central Daylight Time),450177.0,CFD-BM-029-026-HC.jpg,1500,solid,O,m,1107,10,1,7398.0,442779.0,7176,ATS,A,2
1,prac,1,C,mfborder.png,0,z,Fri Jul 18 2025 11:57:44 GMT-0500 (Central Daylight Time),454075.80000000447,CFD-WF-017-016-HC.jpg,1600,dash,O,None,1515,1,1,11296.80000000447,442779.0,7176,ATS,A,3
1,prac,1,C,mfborder.png,0,m,Fri Jul 18 2025 11:57:44 GMT-0500 (Central Daylight Time),458074.30000000447,CFD-WM-013-015-A.jpg,1700,solid,O,None,1516,6,1,15295.30000000447,442779.0,7176,ATS,A,4
2,prac,1,C,mfborder.png,1,m,Fri Jul 18 2025 11:57:44 GMT-0500 (Central Daylight Time),461073.5,CFD-BM-005-010-A.jpg,1200,dash,O,m,1007,5,1,18294.5,442779.0,7176,ATS,A,5
2,prac,1,C,mfborder.png,0,z,Fri Jul 18 2025 11:57:44 GMT-0500 (Central Daylight Time),464372.40000000596,CFD-BF-028-020-HC.jpg,1000,dash,O,None,1516,3,1,21593.40000000596,442779.0,7176,ATS,A,6
2,prac,1,C,mfborder.png,0,z,Fri Jul 18 2025 11:57:44 GMT-0500 (Central Daylight Time),468171.1000000015,CFD-WF-019-015-A.jpg,1500,solid,O,None,1516,2,1,25392.10000000149,442779.0,7176,ATS,A,7
3,prac,1,C,mfborder.png,1,m,Fri Jul 18 2025 11:57:44 GMT-0500 (Central Daylight Time),472336.6000000015,CFD-BM-017-052-HC.jpg,2000,solid,O,m,1367,4,1,29557.60000000149,442779.0,7176,ATS,A,8
3,prac,1,C,haborder.png,0,m,Fri Jul 18 2025 11:57:44 GMT-0500 (Central Daylight Time),475635.6000000015,CFD-WM-004-005-HC.jpg,1000,dash,O,None,1516,11,1,32856.60000000149,442779.0,7176,ATS,A,9
4,prac,1,C,haborder.png,1,m,Fri Jul 18 2025 11:57:44 GMT-0500 (Central Daylight Time),478834.40000000596,CFD-WM-004-005-HC.jpg,1400,solid,O,m,1014,12,1,36055.40000000596,442779.0,7176,ATS,A,10
5,prac,1,C,haborder.png,1,z,Fri Jul 18 2025 11:57:44 GMT-0500 (Central Daylight Time),483016.5,CFD-BF-023-013-A.jpg,1900,dash,O,z,1491,7,1,40237.5,442779.0,7176,ATS,A,11
5,prac,1,C,haborder.png,0,z,Fri Jul 18 2025 11:57:44 GMT-0500 (Central Daylight Time),486915.30000000447,CFD-WF-003-014-A.jpg,1600,dash,O,None,1516,9,1,44136.30000000447,442779.0,7176,ATS,A,12
1,prac,2,C,haborder.png,1,z,Fri Jul 18 2025 11:57:44 GMT-0500 (Central Daylight Time),494046.40000000596,CFD-BF-039-039-A.jpg,1700,solid,O,z,1485,8,1,51267.40000000596,442779.0,7176,ATS,A,1
2,prac,2,C,mfborder.png,1,m,Fri Jul 18 2025 11:57:44 GMT-0500 (Central Daylight Time),497312.200000003,CFD-BM-005-010-A.jpg,1200,dash,O,m,1267,5,1,54533.20000000298,442779.0,7176,ATS,A,2
2,prac,2,C,haborder.png,0,m,Fri Jul 18 2025 11:57:44 GMT-0500 (Central Daylight Time),501010.90000000596,CFD-WM-004-005-HC.jpg,1400,solid,O,None,1515,12,1,58231.90000000596,442779.0,7176,ATS,A,3
2,prac,2,C,mfborder.png,0,z,Fri Jul 18 2025 11:57:44 GMT-0500 (Central Daylight Time),504309.90000000596,CFD-BF-028-020-HC.jpg,1000,dash,O,None,1515,3,1,61530.90000000596,442779.0,7176,ATS,A,4
2,prac,2,C,mfborder.png,0,z,Fri Jul 18 2025 11:57:44 GMT-0500 (Central Daylight Time),508208.700000003,CFD-WF-017-016-HC.jpg,1600,dash,O,None,1516,1,1,65429.70000000298,442779.0,7176,ATS,A,5
2,prac,2,C,haborder.png,0,m,Fri Jul 18 2025 11:57:44 GMT-0500 (Central Daylight Time),511174.40000000596,CFD-WM-004-005-HC.jpg,1000,dash,O,z,1169,11,1,68395.40000000596,442779.0,7176,ATS,A,6
3,prac,2,C,mfborder.png,1,m,Fri Jul 18 2025 11:57:44 GMT-0500 (Central Daylight Time),514856.5,CFD-WM-013-015-A.jpg,1700,solid,O,m,1191,6,1,72077.5,442779.0,7176,ATS,A,7
3,prac,2,C,haborder.png,0,z,Fri Jul 18 2025 11:57:44 GMT-0500 (Central Daylight Time),518755.5,CFD-WF-003-014-A.jpg,1600,dash,O,None,1516,9,1,75976.5,442779.0,7176,ATS,A,8
3,prac,2,C,haborder.png,0,z,Fri Jul 18 2025 11:57:44 GMT-0500 (Central Daylight Time),522954.0,CFD-BF-023-013-A.jpg,1900,dash,O,None,1516,7,1,80175.0,442779.0,7176,ATS,A,9
3,prac,2,C,mfborder.png,0,m,Fri Jul 18 2025 11:57:44 GMT-0500 (Central Daylight Time),527252.900000006,CFD-BM-017-052-HC.jpg,2000,solid,O,None,1516,4,1,84473.90000000596,442779.0,7176,ATS,A,10
3,prac,2,C,haborder.png,0,m,Fri Jul 18 2025 11:57:44 GMT-0500 (Central Daylight Time),531051.3000000045,CFD-BM-029-026-HC.jpg,1500,solid,O,None,1516,10,1,88272.30000000447,442779.0,7176,ATS,A,11
3,prac,2,C,mfborder.png,0,z,Fri Jul 18 2025 11:57:44 GMT-0500 (Central Daylight Time),534317.0,CFD-WF-019-015-A.jpg,1500,solid,O,m,978,2,1,91538.0,442779.0,7176,ATS,A,12
0,prac,3,C,haborder.png,0,z,Fri Jul 18 2025 11:57:44 GMT-0500 (Central Daylight Time),546996.5,CFD-BF-023-013-A.jpg,1900,dash,O,None,1516,7,1,104217.5,442779.0,7176,ATS,A,1
0,prac,3,C,haborder.png,0,m,Fri Jul 18 2025 11:57:44 GMT-0500 (Central Daylight Time),550295.3000000045,CFD-WM-004-005-HC.jpg,1000,dash,O,None,1516,11,1,107516.30000000447,442779.0,7176,ATS,A,2
1,prac,3,C,mfborder.png,1,m,Fri Jul 18 2025 11:57:44 GMT-0500 (Central Daylight Time),553610.900000006,CFD-BM-005-010-A.jpg,1200,dash,O,m,1322,5,1,110831.90000000596,442779.0,7176,ATS,A,3
1,prac,3,C,haborder.png,0,m,Fri Jul 18 2025 11:57:44 GMT-0500 (Central Daylight Time),557243.400000006,CFD-BM-029-026-HC.jpg,1500,solid,O,z,1339,10,1,114464.40000000596,442779.0,7176,ATS,A,4
2,prac,3,C,haborder.png,1,z,Fri Jul 18 2025 11:57:44 GMT-0500 (Central Daylight Time),561025.200000003,CFD-WF-003-014-A.jpg,1600,dash,O,z,1398,9,1,118246.20000000298,442779.0,7176,ATS,A,5
2,prac,3,C,haborder.png,0,m,Fri Jul 18 2025 11:57:44 GMT-0500 (Central Daylight Time),564724.1000000015,CFD-WM-004-005-HC.jpg,1400,solid,O,None,1516,12,1,121945.10000000149,442779.0,7176,ATS,A,6
3,prac,3,C,mfborder.png,1,m,Fri Jul 18 2025 11:57:44 GMT-0500 (Central Daylight Time),568806.400000006,CFD-BM-017-052-HC.jpg,2000,solid,O,m,1293,4,1,126027.40000000596,442779.0,7176,ATS,A,7
4,prac,3,C,mfborder.png,1,z,Fri Jul 18 2025 11:57:44 GMT-0500 (Central Daylight Time),572255.1000000015,CFD-WF-017-016-HC.jpg,1600,dash,O,z,1051,1,1,129476.10000000149,442779.0,7176,ATS,A,8
4,prac,3,C,haborder.png,0,z,Fri Jul 18 2025 11:57:44 GMT-0500 (Central Daylight Time),576370.5,CFD-BF-039-039-A.jpg,1700,solid,O,None,1639,8,1,133591.5,442779.0,7176,ATS,A,9
4,prac,3,C,mfborder.png,0,z,Fri Jul 18 2025 11:57:44 GMT-0500 (Central Daylight Time),579653.900000006,CFD-BF-028-020-HC.jpg,1000,dash,O,None,1515,3,1,136874.90000000596,442779.0,7176,ATS,A,10
5,prac,3,C,mfborder.png,1,m,Fri Jul 18 2025 11:57:44 GMT-0500 (Central Daylight Time),583401.6000000015,CFD-WM-013-015-A.jpg,1700,solid,O,m,1264,6,1,140622.6000000015,442779.0,7176,ATS,A,11
5,prac,3,C,mfborder.png,0,z,Fri Jul 18 2025 11:57:44 GMT-0500 (Central Daylight Time),587200.3000000045,CFD-WF-019-015-A.jpg,1500,solid,O,None,1516,2,1,144421.30000000447,442779.0,7176,ATS,A,12
0,test,1,C,haborder.png,0,z,Fri Jul 18 2025 11:57:44 GMT-0500 (Central Daylight Time),604612.0,CFD-BM-010-019-A.jpg,1700,solid,O,m,1331,9,1,3049.39999999851,601562.6000000015,7176,ATS,A,1
0,test,1,C,haborder.png,0,m,Fri Jul 18 2025 11:57:44 GMT-0500 (Central Daylight Time),607144.3000000045,CFD-WF-017-016-HC.jpg,1000,solid,O,None,1512,12,1,5581.70000000298,601562.6000000015,7176,ATS,A,2
0,test,1,C,mfborder.png,0,m,Fri Jul 18 2025 11:57:44 GMT-0500 (Central Daylight Time),609676.8000000045,CFD-WM-006-013-HC.jpg,1000,dash,O,None,1516,4,1,8114.20000000298,601562.6000000015,7176,ATS,A,3
0,test,1,C,haborder.png,0,z,Fri Jul 18 2025 11:57:44 GMT-0500 (Central Daylight Time),612908.900000006,CFD-BM-010-019-A.jpg,1700,solid,O,None,1516,9,1,11346.30000000447,601562.6000000015,7176,ATS,A,4
1,test,1,C,mfborder.png,1,z,Fri Jul 18 2025 11:57:44 GMT-0500 (Central Daylight Time),615941.1000000015,CFD-BF-010-005-HC.jpg,1700,dash,O,z,1312,1,1,14378.5,601562.6000000015,7176,ATS,A,5
1,test,1,C,haborder.png,0,m,Fri Jul 18 2025 11:57:44 GMT-0500 (Central Daylight Time),618474.0,CFD-WF-017-016-HC.jpg,1000,solid,O,None,1516,12,1,16911.39999999851,601562.6000000015,7176,ATS,A,6
2,test,1,C,mfborder.png,1,z,Fri Jul 18 2025 11:57:44 GMT-0500 (Central Daylight Time),621322.8000000045,CFD-BF-023-013-A.jpg,1600,dash,O,z,1231,2,1,19760.20000000298,601562.6000000015,7176,ATS,A,7
2,test,1,C,haborder.png,0,z,Fri Jul 18 2025 11:57:44 GMT-0500 (Central Daylight Time),624288.900000006,CFD-WM-013-015-A.jpg,1400,solid,O,None,1510,7,1,22726.30000000447,601562.6000000015,7176,ATS,A,8
3,test,1,C,haborder.png,1,m,Fri Jul 18 2025 11:57:44 GMT-0500 (Central Daylight Time),627254.5,CFD-WF-002-008-HC.jpg,1500,solid,O,m,1437,11,1,25691.89999999851,601562.6000000015,7176,ATS,A,9
3,test,1,C,mfborder.png,0,z,Fri Jul 18 2025 11:57:44 GMT-0500 (Central Daylight Time),630487.0,CFD-BF-010-005-HC.jpg,1700,dash,O,None,1516,1,1,28924.39999999851,601562.6000000015,7176,ATS,A,10
3,test,1,C,haborder.png,0,z,Fri Jul 18 2025 11:57:44 GMT-0500 (Central Daylight Time),633069.3000000045,CFD-WM-013-015-A.jpg,1400,solid,O,m,1163,7,1,31506.70000000298,601562.6000000015,7176,ATS,A,11
3,test,1,C,mfborder.png,0,z,Fri Jul 18 2025 11:57:44 GMT-0500 (Central Daylight Time),636201.8000000045,CFD-BF-023-013-A.jpg,1600,dash,O,None,1516,2,1,34639.20000000298,601562.6000000015,7176,ATS,A,12
3,test,1,C,mfborder.png,0,z,Fri Jul 18 2025 11:57:44 GMT-0500 (Central Daylight Time),639234.1000000015,CFD-WF-003-014-A.jpg,1500,dash,O,None,1516,3,1,37671.5,601562.6000000015,7176,ATS,A,13
4,test,1,C,haborder.png,1,m,Fri Jul 18 2025 11:57:44 GMT-0500 (Central Daylight Time),642249.8000000045,CFD-WF-002-008-HC.jpg,1500,solid,O,m,1491,11,1,40687.20000000298,601562.6000000015,7176,ATS,A,14
5,test,1,C,mfborder.png,1,m,Fri Jul 18 2025 11:57:44 GMT-0500 (Central Daylight Time),644915.6000000015,CFD-BM-029-026-HC.jpg,1200,dash,O,m,1439,6,1,43353.0,601562.6000000015,7176,ATS,A,15
5,test,1,C,mfborder.png,0,m,Fri Jul 18 2025 11:57:44 GMT-0500 (Central Daylight Time),647448.0,CFD-WM-006-013-HC.jpg,1000,dash,O,None,1511,4,1,45885.39999999851,601562.6000000015,7176,ATS,A,16
5,test,1,C,mfborder.png,0,m,Fri Jul 18 2025 11:57:44 GMT-0500 (Central Daylight Time),650980.6000000015,CFD-WM-019-013-A.jpg,2000,dash,O,None,1515,5,1,49418.0,601562.6000000015,7176,ATS,A,17
6,test,1,C,haborder.png,1,m,Fri Jul 18 2025 11:57:44 GMT-0500 (Central Daylight Time),654063.0,CFD-BF-028-020-HC.jpg,1600,solid,O,m,1461,10,1,52500.39999999851,601562.6000000015,7176,ATS,A,18
6,test,1,C,mfborder.png,0,m,Fri Jul 18 2025 11:57:44 GMT-0500 (Central Daylight Time),657595.200000003,CFD-WM-019-013-A.jpg,2000,dash,O,None,1515,5,1,56032.60000000149,601562.6000000015,7176,ATS,A,19
7,test,1,C,mfborder.png,1,z,Fri Jul 18 2025 11:57:44 GMT-0500 (Central Daylight Time),660394.3000000045,CFD-WF-003-014-A.jpg,1500,dash,O,z,1282,3,1,58831.70000000298,601562.6000000015,7176,ATS,A,20
7,test,1,C,haborder.png,0,z,Fri Jul 18 2025 11:57:44 GMT-0500 (Central Daylight Time),663676.400000006,CFD-BM-005-010-A.jpg,1900,solid,O,m,1355,8,1,62113.80000000447,601562.6000000015,7176,ATS,A,21
7,test,1,C,haborder.png,0,m,Fri Jul 18 2025 11:57:44 GMT-0500 (Central Daylight Time),666808.700000003,CFD-BF-028-020-HC.jpg,1600,solid,O,None,1515,10,1,65246.10000000149,601562.6000000015,7176,ATS,A,22
7,test,1,C,haborder.png,0,z,Fri Jul 18 2025 11:57:44 GMT-0500 (Central Daylight Time),670241.200000003,CFD-BM-005-010-A.jpg,1900,solid,O,None,1516,8,1,68678.60000000149,601562.6000000015,7176,ATS,A,23
7,test,1,C,mfborder.png,0,m,Fri Jul 18 2025 11:57:44 GMT-0500 (Central Daylight Time),672973.3000000045,CFD-BM-029-026-HC.jpg,1200,dash,O,None,1512,6,1,71410.70000000298,601562.6000000015,7176,ATS,A,24
1,test,2,C,haborder.png,1,m,Fri Jul 18 2025 11:57:44 GMT-0500 (Central Daylight Time),677522.1000000015,CFD-WM-004-005-HC.jpg,1500,solid,O,m,1141,11,1,2665.7999999970198,674856.3000000045,7176,ATS,A,1
2,test,2,C,haborder.png,1,m,Fri Jul 18 2025 11:57:44 GMT-0500 (Central Daylight Time),679921.400000006,CFD-WM-004-005-HC.jpg,1000,solid,O,m,1371,12,1,5065.10000000149,674856.3000000045,7176,ATS,A,2
3,test,2,C,haborder.png,1,m,Fri Jul 18 2025 11:57:44 GMT-0500 (Central Daylight Time),682986.700000003,CFD-BM-029-026-HC.jpg,1600,solid,O,m,1448,10,1,8130.39999999851,674856.3000000045,7176,ATS,A,3
4,test,2,C,mfborder.png,1,z,Fri Jul 18 2025 11:57:44 GMT-0500 (Central Daylight Time),685986.0,CFD-WF-019-015-A.jpg,1600,dash,O,z,1366,2,1,11129.69999999553,674856.3000000045,7176,ATS,A,4
5,test,2,C,mfborder.png,1,m,Fri Jul 18 2025 11:57:44 GMT-0500 (Central Daylight Time),689451.6000000015,CFD-BM-005-010-A.jpg,2000,dash,O,m,1448,5,1,14595.29999999702,674856.3000000045,7176,ATS,A,5
6,test,2,C,mfborder.png,1,m,Fri Jul 18 2025 11:57:44 GMT-0500 (Central Daylight Time),691500.900000006,CFD-BM-017-052-HC.jpg,1000,dash,O,m,1030,4,1,16644.60000000149,674856.3000000045,7176,ATS,A,6
7,test,2,C,haborder.png,1,m,Fri Jul 18 2025 11:57:44 GMT-0500 (Central Daylight Time),693683.700000003,CFD-WM-004-005-HC.jpg,1000,solid,O,m,1164,12,1,18827.39999999851,674856.3000000045,7176,ATS,A,7
7,test,2,C,mfborder.png,0,z,Fri Jul 18 2025 11:57:44 GMT-0500 (Central Daylight Time),696915.900000006,CFD-WF-017-016-HC.jpg,1700,dash,O,None,1515,1,1,22059.60000000149,674856.3000000045,7176,ATS,A,8
8,test,2,C,mfborder.png,1,z,Fri Jul 18 2025 11:57:44 GMT-0500 (Central Daylight Time),699565.1000000015,CFD-BF-028-020-HC.jpg,1500,dash,O,z,1125,3,1,24708.79999999702,674856.3000000045,7176,ATS,A,9
9,test,2,C,mfborder.png,1,m,Fri Jul 18 2025 11:57:44 GMT-0500 (Central Daylight Time),701964.700000003,CFD-WM-013-015-A.jpg,1200,dash,O,m,1172,6,1,27108.39999999851,674856.3000000045,7176,ATS,A,10
10,test,2,C,haborder.png,1,z,Fri Jul 18 2025 11:57:44 GMT-0500 (Central Daylight Time),704813.400000006,CFD-BF-023-013-A.jpg,1400,solid,O,z,1429,7,1,29957.10000000149,674856.3000000045,7176,ATS,A,11
11,test,2,C,haborder.png,1,z,Fri Jul 18 2025 11:57:44 GMT-0500 (Central Daylight Time),707362.6000000015,CFD-WF-003-014-A.jpg,1700,solid,O,z,824,9,1,32506.29999999702,674856.3000000045,7176,ATS,A,12
12,test,2,C,haborder.png,1,m,Fri Jul 18 2025 11:57:44 GMT-0500 (Central Daylight Time),710078.3000000045,CFD-BM-029-026-HC.jpg,1600,solid,O,m,1087,10,1,35222.0,674856.3000000045,7176,ATS,A,13
12,test,2,C,mfborder.png,0,m,Fri Jul 18 2025 11:57:44 GMT-0500 (Central Daylight Time),713510.6000000015,CFD-BM-005-010-A.jpg,2000,dash,O,z,1411,5,1,38654.29999999702,674856.3000000045,7176,ATS,A,14
13,test,2,C,mfborder.png,1,z,Fri Jul 18 2025 11:57:44 GMT-0500 (Central Daylight Time),716159.900000006,CFD-WF-019-015-A.jpg,1600,dash,O,z,1019,2,1,41303.60000000149,674856.3000000045,7176,ATS,A,15
13,test,2,C,mfborder.png,0,m,Fri Jul 18 2025 11:57:44 GMT-0500 (Central Daylight Time),718642.5,CFD-BM-017-052-HC.jpg,1000,dash,O,z,1465,4,1,43786.19999999553,674856.3000000045,7176,ATS,A,16
13,test,2,C,haborder.png,0,z,Fri Jul 18 2025 11:57:44 GMT-0500 (Central Daylight Time),722075.1000000015,CFD-BF-039-039-A.jpg,1900,solid,O,None,1516,8,1,47218.79999999702,674856.3000000045,7176,ATS,A,17
14,test,2,C,mfborder.png,1,m,Fri Jul 18 2025 11:57:44 GMT-0500 (Central Daylight Time),724708.3000000045,CFD-WM-013-015-A.jpg,1200,dash,O,m,1411,6,1,49852.0,674856.3000000045,7176,ATS,A,18
15,test,2,C,mfborder.png,1,z,Fri Jul 18 2025 11:57:44 GMT-0500 (Central Daylight Time),727256.3000000045,CFD-BF-028-020-HC.jpg,1500,dash,O,z,1018,3,1,52400.0,674856.3000000045,7176,ATS,A,19
16,test,2,C,mfborder.png,1,z,Fri Jul 18 2025 11:57:44 GMT-0500 (Central Daylight Time),730238.700000003,CFD-WF-017-016-HC.jpg,1700,dash,O,z,1253,1,1,55382.39999999851,674856.3000000045,7176,ATS,A,20
17,test,2,C,haborder.png,1,m,Fri Jul 18 2025 11:57:44 GMT-0500 (Central Daylight Time),732788.1000000015,CFD-WM-004-005-HC.jpg,1500,solid,O,m,1022,11,1,57931.79999999702,674856.3000000045,7176,ATS,A,21
18,test,2,C,haborder.png,1,z,Fri Jul 18 2025 11:57:44 GMT-0500 (Central Daylight Time),736037.200000003,CFD-BF-039-039-A.jpg,1900,solid,O,z,1330,8,1,61180.89999999851,674856.3000000045,7176,ATS,A,22
19,test,2,C,haborder.png,1,z,Fri Jul 18 2025 11:57:44 GMT-0500 (Central Daylight Time),738702.8000000045,CFD-BF-023-013-A.jpg,1400,solid,O,z,1244,7,1,63846.5,674856.3000000045,7176,ATS,A,23
20,test,2,C,haborder.png,1,z,Fri Jul 18 2025 11:57:44 GMT-0500 (Central Daylight Time),741551.900000006,CFD-WF-003-014-A.jpg,1700,solid,O,z,1019,9,1,66695.60000000149,674856.3000000045,7176,ATS,A,24
1,test,3,C,haborder.png,1,m,Fri Jul 18 2025 11:57:44 GMT-0500 (Central Daylight Time),745134.6000000015,CFD-WF-017-016-HC.jpg,1000,solid,O,m,1348,12,1,2383.2999999970198,742751.3000000045,7176,ATS,A,1
2,test,3,C,mfborder.png,1,m,Fri Jul 18 2025 11:57:44 GMT-0500 (Central Daylight Time),747750.200000003,CFD-BM-029-026-HC.jpg,1200,dash,O,m,1387,6,1,4998.89999999851,742751.3000000045,7176,ATS,A,2
3,test,3,C,haborder.png,1,z,Fri Jul 18 2025 11:57:44 GMT-0500 (Central Daylight Time),750282.6000000015,CFD-WM-013-015-A.jpg,1400,solid,O,z,1100,7,1,7531.29999999702,742751.3000000045,7176,ATS,A,3
4,test,3,C,haborder.png,1,z,Fri Jul 18 2025 11:57:44 GMT-0500 (Central Daylight Time),753231.6000000015,CFD-BM-005-010-A.jpg,1900,solid,O,z,1019,8,1,10480.29999999702,742751.3000000045,7176,ATS,A,4
5,test,3,C,haborder.png,1,z,Fri Jul 18 2025 11:57:44 GMT-0500 (Central Daylight Time),756230.6000000015,CFD-BM-010-019-A.jpg,1700,solid,O,z,1278,9,1,13479.29999999702,742751.3000000045,7176,ATS,A,5
5,test,3,C,haborder.png,0,m,Fri Jul 18 2025 11:57:44 GMT-0500 (Central Daylight Time),759263.400000006,CFD-WF-002-008-HC.jpg,1500,solid,O,None,1516,11,1,16512.10000000149,742751.3000000045,7176,ATS,A,6
6,test,3,C,haborder.png,1,z,Fri Jul 18 2025 11:57:44 GMT-0500 (Central Daylight Time),761762.400000006,CFD-WM-013-015-A.jpg,1400,solid,O,z,1074,7,1,19011.10000000149,742751.3000000045,7176,ATS,A,7
7,test,3,C,mfborder.png,1,m,Fri Jul 18 2025 11:57:44 GMT-0500 (Central Daylight Time),764778.400000006,CFD-WM-019-013-A.jpg,2000,dash,O,m,991,5,1,22027.10000000149,742751.3000000045,7176,ATS,A,8
8,test,3,C,mfborder.png,1,m,Fri Jul 18 2025 11:57:44 GMT-0500 (Central Daylight Time),767260.200000003,CFD-BM-029-026-HC.jpg,1200,dash,O,m,1262,6,1,24508.89999999851,742751.3000000045,7176,ATS,A,9
9,test,3,C,mfborder.png,1,z,Fri Jul 18 2025 11:57:44 GMT-0500 (Central Daylight Time),770059.700000003,CFD-WF-003-014-A.jpg,1500,dash,O,z,1277,3,1,27308.39999999851,742751.3000000045,7176,ATS,A,10
10,test,3,C,mfborder.png,1,m,Fri Jul 18 2025 11:57:44 GMT-0500 (Central Daylight Time),772175.700000003,CFD-WM-006-013-HC.jpg,1000,dash,O,m,1086,4,1,29424.39999999851,742751.3000000045,7176,ATS,A,11
10,test,3,C,haborder.png,0,m,Fri Jul 18 2025 11:57:44 GMT-0500 (Central Daylight Time),775308.200000003,CFD-BF-028-020-HC.jpg,1600,solid,O,None,1516,10,1,32556.89999999851,742751.3000000045,7176,ATS,A,12
10,test,3,C,haborder.png,0,z,Fri Jul 18 2025 11:57:44 GMT-0500 (Central Daylight Time),778740.200000003,CFD-BM-005-010-A.jpg,1900,solid,O,None,1516,8,1,35988.89999999851,742751.3000000045,7176,ATS,A,13
10,test,3,C,mfborder.png,0,z,Fri Jul 18 2025 11:57:44 GMT-0500 (Central Daylight Time),781872.6000000015,CFD-BF-023-013-A.jpg,1600,dash,O,None,1515,2,1,39121.29999999702,742751.3000000045,7176,ATS,A,14
10,test,3,C,haborder.png,0,m,Fri Jul 18 2025 11:57:44 GMT-0500 (Central Daylight Time),784905.1000000015,CFD-WF-002-008-HC.jpg,1500,solid,O,None,1516,11,1,42153.79999999702,742751.3000000045,7176,ATS,A,15
10,test,3,C,mfborder.png,0,m,Fri Jul 18 2025 11:57:44 GMT-0500 (Central Daylight Time),788437.6000000015,CFD-WM-019-013-A.jpg,2000,dash,O,None,1517,5,1,45686.29999999702,742751.3000000045,7176,ATS,A,16
11,test,3,C,mfborder.png,1,z,Fri Jul 18 2025 11:57:44 GMT-0500 (Central Daylight Time),791352.900000006,CFD-BF-023-013-A.jpg,1600,dash,O,z,1292,2,1,48601.60000000149,742751.3000000045,7176,ATS,A,17
12,test,3,C,mfborder.png,1,z,Fri Jul 18 2025 11:57:44 GMT-0500 (Central Daylight Time),794168.900000006,CFD-BF-010-005-HC.jpg,1700,dash,O,z,1084,1,1,51417.60000000149,742751.3000000045,7176,ATS,A,18
13,test,3,C,mfborder.png,1,z,Fri Jul 18 2025 11:57:44 GMT-0500 (Central Daylight Time),796518.0,CFD-WF-003-014-A.jpg,1500,dash,O,z,829,3,1,53766.69999999553,742751.3000000045,7176,ATS,A,19
13,test,3,C,haborder.png,0,z,Fri Jul 18 2025 11:57:44 GMT-0500 (Central Daylight Time),799733.6000000015,CFD-BM-010-019-A.jpg,1700,solid,O,m,1495,9,1,56982.29999999702,742751.3000000045,7176,ATS,A,20
14,test,3,C,mfborder.png,1,z,Fri Jul 18 2025 11:57:44 GMT-0500 (Central Daylight Time),802782.6000000015,CFD-BF-010-005-HC.jpg,1700,dash,O,z,1328,1,1,60031.29999999702,742751.3000000045,7176,ATS,A,21
14,test,3,C,haborder.png,0,m,Fri Jul 18 2025 11:57:44 GMT-0500 (Central Daylight Time),805315.5,CFD-WF-017-016-HC.jpg,1000,solid,O,None,1516,12,1,62564.19999999553,742751.3000000045,7176,ATS,A,22
14,test,3,C,haborder.png,0,m,Fri Jul 18 2025 11:57:44 GMT-0500 (Central Daylight Time),808447.400000006,CFD-BF-028-020-HC.jpg,1600,solid,O,None,1515,10,1,65696.10000000149,742751.3000000045,7176,ATS,A,23
14,test,3,C,mfborder.png,0,m,Fri Jul 18 2025 11:57:44 GMT-0500 (Central Daylight Time),811039.6000000015,CFD-WM-006-013-HC.jpg,1000,dash,O,None,1575,4,1,68288.29999999702,742751.3000000045,7176,ATS,A,24
0,test,4,C,mfborder.png,0,m,Fri Jul 18 2025 11:57:44 GMT-0500 (Central Daylight Time),815145.400000006,CFD-WM-013-015-A.jpg,1200,dash,O,None,1511,6,1,2732.2000000029802,812413.200000003,7176,ATS,A,1
0,test,4,C,haborder.png,0,m,Fri Jul 18 2025 11:57:44 GMT-0500 (Central Daylight Time),818177.700000003,CFD-WM-004-005-HC.jpg,1500,solid,O,None,1516,11,1,5764.5,812413.200000003,7176,ATS,A,2
1,test,4,C,haborder.png,1,m,Fri Jul 18 2025 11:57:44 GMT-0500 (Central Daylight Time),821126.900000006,CFD-BM-029-026-HC.jpg,1600,solid,O,m,1327,10,1,8713.70000000298,812413.200000003,7176,ATS,A,3
2,test,4,C,haborder.png,1,m,Fri Jul 18 2025 11:57:44 GMT-0500 (Central Daylight Time),823609.3000000045,CFD-BM-029-026-HC.jpg,1600,solid,O,m,859,10,1,11196.10000000149,812413.200000003,7176,ATS,A,4
3,test,4,C,haborder.png,1,z,Fri Jul 18 2025 11:57:44 GMT-0500 (Central Daylight Time),826441.900000006,CFD-BF-039-039-A.jpg,1900,solid,O,z,900,8,1,14028.70000000298,812413.200000003,7176,ATS,A,5
3,test,4,C,mfborder.png,0,z,Fri Jul 18 2025 11:57:44 GMT-0500 (Central Daylight Time),829674.5,CFD-WF-017-016-HC.jpg,1700,dash,O,None,1516,1,1,17261.29999999702,812413.200000003,7176,ATS,A,6
4,test,4,C,mfborder.png,1,z,Fri Jul 18 2025 11:57:44 GMT-0500 (Central Daylight Time),832290.3000000045,CFD-WF-019-015-A.jpg,1600,dash,O,z,999,2,1,19877.10000000149,812413.200000003,7176,ATS,A,7
5,test,4,C,mfborder.png,1,m,Fri Jul 18 2025 11:57:44 GMT-0500 (Central Daylight Time),835439.0,CFD-BM-005-010-A.jpg,2000,dash,O,m,1118,5,1,23025.79999999702,812413.200000003,7176,ATS,A,8
6,test,4,C,mfborder.png,1,z,Fri Jul 18 2025 11:57:44 GMT-0500 (Central Daylight Time),837921.700000003,CFD-WF-019-015-A.jpg,1600,dash,O,z,850,2,1,25508.5,812413.200000003,7176,ATS,A,9
7,test,4,C,mfborder.png,1,m,Fri Jul 18 2025 11:57:44 GMT-0500 (Central Daylight Time),840037.6000000015,CFD-WM-013-015-A.jpg,1200,dash,O,m,888,6,1,27624.39999999851,812413.200000003,7176,ATS,A,10
8,test,4,C,mfborder.png,1,m,Fri Jul 18 2025 11:57:44 GMT-0500 (Central Daylight Time),843003.5,CFD-BM-005-010-A.jpg,2000,dash,O,m,940,5,1,30590.29999999702,812413.200000003,7176,ATS,A,11
9,test,4,C,mfborder.png,1,m,Fri Jul 18 2025 11:57:44 GMT-0500 (Central Daylight Time),844969.700000003,CFD-BM-017-052-HC.jpg,1000,dash,O,m,934,4,1,32556.5,812413.200000003,7176,ATS,A,12
10,test,4,C,haborder.png,1,m,Fri Jul 18 2025 11:57:44 GMT-0500 (Central Daylight Time),847385.200000003,CFD-WM-004-005-HC.jpg,1000,solid,O,m,1392,12,1,34972.0,812413.200000003,7176,ATS,A,13
10,test,4,C,haborder.png,0,z,Fri Jul 18 2025 11:57:44 GMT-0500 (Central Daylight Time),850317.900000006,CFD-BF-023-013-A.jpg,1400,solid,O,None,1516,7,1,37904.70000000298,812413.200000003,7176,ATS,A,14
11,test,4,C,haborder.png,1,z,Fri Jul 18 2025 11:57:44 GMT-0500 (Central Daylight Time),852733.8000000045,CFD-WF-003-014-A.jpg,1700,solid,O,z,688,9,1,40320.60000000149,812413.200000003,7176,ATS,A,15
11,test,4,C,mfborder.png,0,z,Fri Jul 18 2025 11:57:44 GMT-0500 (Central Daylight Time),855766.1000000015,CFD-BF-028-020-HC.jpg,1500,dash,O,None,1516,3,1,43352.89999999851,812413.200000003,7176,ATS,A,16
11,test,4,C,haborder.png,0,m,Fri Jul 18 2025 11:57:44 GMT-0500 (Central Daylight Time),858798.3000000045,CFD-WM-004-005-HC.jpg,1500,solid,O,None,1515,11,1,46385.10000000149,812413.200000003,7176,ATS,A,17
11,test,4,C,haborder.png,0,z,Fri Jul 18 2025 11:57:44 GMT-0500 (Central Daylight Time),862030.8000000045,CFD-WF-003-014-A.jpg,1700,solid,O,None,1516,9,1,49617.60000000149,812413.200000003,7176,ATS,A,18
12,test,4,C,haborder.png,1,z,Fri Jul 18 2025 11:57:44 GMT-0500 (Central Daylight Time),865429.6000000015,CFD-BF-039-039-A.jpg,1900,solid,O,z,1471,8,1,53016.39999999851,812413.200000003,7176,ATS,A,19
13,test,4,C,haborder.png,1,m,Fri Jul 18 2025 11:57:44 GMT-0500 (Central Daylight Time),867295.8000000045,CFD-WM-004-005-HC.jpg,1000,solid,O,m,836,12,1,54882.60000000149,812413.200000003,7176,ATS,A,20
14,test,4,C,mfborder.png,1,m,Fri Jul 18 2025 11:57:44 GMT-0500 (Central Daylight Time),869761.5,CFD-BM-017-052-HC.jpg,1000,dash,O,m,1441,4,1,57348.29999999702,812413.200000003,7176,ATS,A,21
15,test,4,C,haborder.png,1,z,Fri Jul 18 2025 11:57:44 GMT-0500 (Central Daylight Time),872394.1000000015,CFD-BF-023-013-A.jpg,1400,solid,O,z,1216,7,1,59980.89999999851,812413.200000003,7176,ATS,A,22
16,test,4,C,mfborder.png,1,z,Fri Jul 18 2025 11:57:44 GMT-0500 (Central Daylight Time),875293.200000003,CFD-WF-017-016-HC.jpg,1700,dash,O,z,1171,1,1,62880.0,812413.200000003,7176,ATS,A,23
17,test,4,C,mfborder.png,1,z,Fri Jul 18 2025 11:57:44 GMT-0500 (Central Daylight Time),877660.1000000015,CFD-BF-028-020-HC.jpg,1500,dash,O,z,848,3,1,65246.89999999851,812413.200000003,7176,ATS,A,24
