block_c,block_dur,condition,countdown,datetime,endtime,list,multichar_response,project,response,response_time,session_number,start_end,starttime,subject_id,task,task_vers,trial
,,,,Thu Aug 14 2025 15:03:44 GMT-0500 (Central Daylight Time),,,,O,space,582,1,,,7200,WL,C,
prac,,0,,Thu Aug 14 2025 15:03:44 GMT-0500 (Central Daylight Time),,NA,b,O,b,2345,1,,,7200,WL,C,1.0
prac,,0,,Thu Aug 14 2025 15:03:44 GMT-0500 (Central Daylight Time),,NA,bo,O,o,299,1,,,7200,WL,C,1.0
prac,,0,,Thu Aug 14 2025 15:03:44 GMT-0500 (Central Daylight Time),,NA,boo,O,o,123,1,,,7200,WL,C,1.0
prac,,0,,Thu Aug 14 2025 15:03:44 GMT-0500 (Central Daylight Time),,NA,boos,O,s,225,1,,,7200,WL,C,1.0
prac,,0,,Thu Aug 14 2025 15:03:44 GMT-0500 (Central Daylight Time),,NA,boost,O,t,206,1,,,7200,WL,C,1.0
prac,,0,,Thu Aug 14 2025 15:03:44 GMT-0500 (Central Daylight Time),,NA,boostenter,O,enter,629,1,,,7200,WL,C,1.0
1,1.819000005722046,learn,58180.999994277954,Thu Aug 14 2025 15:03:44 GMT-0500 (Central Daylight Time),162295.89999997616,A,s,O,s,1805,1,1818.5999999642372,160477.30000001192,7200,WL,C,1.0
1,2.0829999446868896,learn,57917.00005531311,Thu Aug 14 2025 15:03:44 GMT-0500 (Central Daylight Time),162560.19999998808,A,su,O,u,249,1,2082.899999976158,160477.30000001192,7200,WL,C,1.0
1,2.4000000953674316,learn,57599.99990463257,Thu Aug 14 2025 15:03:44 GMT-0500 (Central Daylight Time),162877.10000002384,A,sug,O,g,297,1,2399.800000011921,160477.30000001192,7200,WL,C,1.0
1,3.183000087738037,learn,56816.99991226196,Thu Aug 14 2025 15:03:44 GMT-0500 (Central Daylight Time),163660.0,A,suga,O,a,771,1,3182.699999988079,160477.30000001192,7200,WL,C,1.0
1,4.450000047683716,learn,55549.999952316284,Thu Aug 14 2025 15:03:44 GMT-0500 (Central Daylight Time),164926.69999998808,A,sugar,O,r,1245,1,4449.399999976158,160477.30000001192,7200,WL,C,1.0
1,5.433000087738037,learn,54566.99991226196,Thu Aug 14 2025 15:03:44 GMT-0500 (Central Daylight Time),165910.0,A,sugarenter,O,enter,962,1,5432.699999988079,160477.30000001192,7200,WL,C,1.0
1,6.58299994468689,learn,53417.00005531311,Thu Aug 14 2025 15:03:44 GMT-0500 (Central Daylight Time),167060.19999998808,A,w,O,w,1131,1,1149.8999999761581,165910.30000001192,7200,WL,C,2.0
1,6.865999937057495,learn,53134.000062942505,Thu Aug 14 2025 15:03:44 GMT-0500 (Central Daylight Time),167342.69999998808,A,wh,O,h,262,1,1432.3999999761581,165910.30000001192,7200,WL,C,2.0
1,7.098999977111816,learn,52901.00002288818,Thu Aug 14 2025 15:03:44 GMT-0500 (Central Daylight Time),167576.30000001192,A,whe,O,e,211,1,1666.0,165910.30000001192,7200,WL,C,2.0
1,7.2820000648498535,learn,52717.99993515015,Thu Aug 14 2025 15:03:44 GMT-0500 (Central Daylight Time),167758.60000002384,A,whea,O,a,167,1,1848.300000011921,165910.30000001192,7200,WL,C,2.0
1,7.482000112533569,learn,52517.99988746643,Thu Aug 14 2025 15:03:44 GMT-0500 (Central Daylight Time),167959.10000002384,A,wheat,O,t,177,1,2048.800000011921,165910.30000001192,7200,WL,C,2.0
1,7.881999969482422,learn,52118.00003051758,Thu Aug 14 2025 15:03:44 GMT-0500 (Central Daylight Time),168359.5,A,wheatenter,O,enter,378,1,2449.199999988079,165910.30000001192,7200,WL,C,2.0
1,9.147000074386597,learn,50852.9999256134,Thu Aug 14 2025 15:03:44 GMT-0500 (Central Daylight Time),169624.10000002384,A,t,O,t,1258,1,1264.300000011921,168359.80000001192,7200,WL,C,3.0
1,9.397000074386597,learn,50602.9999256134,Thu Aug 14 2025 15:03:44 GMT-0500 (Central Daylight Time),169874.39999997616,A,to,O,o,230,1,1514.5999999642372,168359.80000001192,7200,WL,C,3.0
1,9.647000074386597,learn,50352.9999256134,Thu Aug 14 2025 15:03:44 GMT-0500 (Central Daylight Time),170124.0,A,tow,O,w,236,1,1764.199999988079,168359.80000001192,7200,WL,C,3.0
1,9.781000137329102,learn,50218.9998626709,Thu Aug 14 2025 15:03:44 GMT-0500 (Central Daylight Time),170258.0,A,towe,O,e,115,1,1898.199999988079,168359.80000001192,7200,WL,C,3.0
1,10.013000011444092,learn,49986.99998855591,Thu Aug 14 2025 15:03:44 GMT-0500 (Central Daylight Time),170490.30000001192,A,tower,O,r,211,1,2130.5,168359.80000001192,7200,WL,C,3.0
1,10.38100004196167,learn,49618.99995803833,Thu Aug 14 2025 15:03:44 GMT-0500 (Central Daylight Time),170857.60000002384,A,towerenter,O,enter,348,1,2497.800000011921,168359.80000001192,7200,WL,C,3.0
1,11.062000036239624,learn,48937.999963760376,Thu Aug 14 2025 15:03:44 GMT-0500 (Central Daylight Time),171540.0,A,q,O,q,672,1,682.1000000238419,170857.89999997616,7200,WL,C,4.0
1,11.36300015449524,learn,48636.99984550476,Thu Aug 14 2025 15:03:44 GMT-0500 (Central Daylight Time),171840.89999997616,A,qu,O,u,274,1,983.0,170857.89999997616,7200,WL,C,4.0
1,11.495000123977661,learn,48504.99987602234,Thu Aug 14 2025 15:03:44 GMT-0500 (Central Daylight Time),171973.30000001192,A,que,O,e,109,1,1115.4000000357628,170857.89999997616,7200,WL,C,4.0
1,12.411999940872192,learn,47588.00005912781,Thu Aug 14 2025 15:03:44 GMT-0500 (Central Daylight Time),172889.60000002384,A,quee,O,e,899,1,2031.7000000476837,170857.89999997616,7200,WL,C,4.0
1,12.812999963760376,learn,47187.000036239624,Thu Aug 14 2025 15:03:44 GMT-0500 (Central Daylight Time),173290.5,A,queen,O,n,389,1,2432.600000023842,170857.89999997616,7200,WL,C,4.0
1,13.712000131607056,learn,46287.999868392944,Thu Aug 14 2025 15:03:44 GMT-0500 (Central Daylight Time),174189.5,A,queenenter,O,enter,884,1,3331.600000023842,170857.89999997616,7200,WL,C,4.0
1,14.99399995803833,learn,45006.00004196167,Thu Aug 14 2025 15:03:44 GMT-0500 (Central Daylight Time),175471.89999997616,A,d,O,d,1267,1,1282.0999999642372,174189.80000001192,7200,WL,C,5.0
1,15.160000085830688,learn,44839.99991416931,Thu Aug 14 2025 15:03:44 GMT-0500 (Central Daylight Time),175637.89999997616,A,do,O,o,146,1,1448.0999999642372,174189.80000001192,7200,WL,C,5.0
1,15.361000061035156,learn,44638.999938964844,Thu Aug 14 2025 15:03:44 GMT-0500 (Central Daylight Time),175838.80000001192,A,doc,O,c,189,1,1649.0,174189.80000001192,7200,WL,C,5.0
1,15.644999980926514,learn,44355.000019073486,Thu Aug 14 2025 15:03:44 GMT-0500 (Central Daylight Time),176123.10000002384,A,doct,O,t,273,1,1933.300000011921,174189.80000001192,7200,WL,C,5.0
1,16.177000045776367,learn,43822.99995422363,Thu Aug 14 2025 15:03:44 GMT-0500 (Central Daylight Time),176655.39999997616,A,docto,O,o,509,1,2465.599999964237,174189.80000001192,7200,WL,C,5.0
1,16.344000101089478,learn,43655.99989891052,Thu Aug 14 2025 15:03:44 GMT-0500 (Central Daylight Time),176821.80000001192,A,doctor,O,r,144,1,2632.0,174189.80000001192,7200,WL,C,5.0
1,17.627000093460083,learn,42372.99990653992,Thu Aug 14 2025 15:03:44 GMT-0500 (Central Daylight Time),178104.89999997616,A,doctorenter,O,enter,1266,1,3915.099999964237,174189.80000001192,7200,WL,C,5.0
1,20.70900011062622,learn,39290.99988937378,Thu Aug 14 2025 15:03:44 GMT-0500 (Central Daylight Time),181187.30000001192,A,h,O,h,3073,1,3082.100000023842,178105.19999998808,7200,WL,C,6.0
1,20.89199995994568,learn,39108.00004005432,Thu Aug 14 2025 15:03:44 GMT-0500 (Central Daylight Time),181370.19999998808,A,ho,O,o,164,1,3265.0,178105.19999998808,7200,WL,C,6.0
1,21.174999952316284,learn,38825.000047683716,Thu Aug 14 2025 15:03:44 GMT-0500 (Central Daylight Time),181653.30000001192,A,hom,O,m,268,1,3548.100000023842,178105.19999998808,7200,WL,C,6.0
1,21.625999927520752,learn,38374.00007247925,Thu Aug 14 2025 15:03:44 GMT-0500 (Central Daylight Time),182103.60000002384,A,home,O,e,426,1,3998.400000035763,178105.19999998808,7200,WL,C,6.0
1,22.259000062942505,learn,37740.999937057495,Thu Aug 14 2025 15:03:44 GMT-0500 (Central Daylight Time),182736.60000002384,A,homeenter,O,enter,616,1,4631.400000035763,178105.19999998808,7200,WL,C,6.0
1,22.725000143051147,learn,37274.99985694885,Thu Aug 14 2025 15:03:44 GMT-0500 (Central Daylight Time),183202.69999998808,A,b,O,b,449,1,465.69999998807907,182737.0,7200,WL,C,7.0
1,23.125,learn,36875.0,Thu Aug 14 2025 15:03:44 GMT-0500 (Central Daylight Time),183603.0,A,bo,O,o,389,1,866.0,182737.0,7200,WL,C,7.0
1,23.442000150680542,learn,36557.99984931946,Thu Aug 14 2025 15:03:44 GMT-0500 (Central Daylight Time),183919.5,A,boy,O,y,294,1,1182.5,182737.0,7200,WL,C,7.0
1,23.608999967575073,learn,36391.00003242493,Thu Aug 14 2025 15:03:44 GMT-0500 (Central Daylight Time),184086.39999997616,A,boyenter,O,enter,143,1,1349.3999999761581,182737.0,7200,WL,C,7.0
1,42.53699994087219,learn,17463.000059127808,Thu Aug 14 2025 15:03:44 GMT-0500 (Central Daylight Time),203014.60000002384,A,c,O,c,18908,1,18927.900000035763,184086.69999998808,7200,WL,C,8.0
1,42.72000002861023,learn,17279.99997138977,Thu Aug 14 2025 15:03:44 GMT-0500 (Central Daylight Time),203198.39999997616,A,co,O,o,161,1,19111.69999998808,184086.69999998808,7200,WL,C,8.0
1,42.90300011634827,learn,17096.999883651733,Thu Aug 14 2025 15:03:44 GMT-0500 (Central Daylight Time),203380.39999997616,A,cor,O,r,162,1,19293.69999998808,184086.69999998808,7200,WL,C,8.0
1,43.05400013923645,learn,16945.99986076355,Thu Aug 14 2025 15:03:44 GMT-0500 (Central Daylight Time),203531.5,A,corn,O,n,140,1,19444.80000001192,184086.69999998808,7200,WL,C,8.0
1,43.769999980926514,learn,16230.000019073486,Thu Aug 14 2025 15:03:44 GMT-0500 (Central Daylight Time),204247.80000001192,A,cornenter,O,enter,695,1,20161.100000023842,184086.69999998808,7200,WL,C,8.0
1,54.48200011253357,learn,5517.999887466431,Thu Aug 14 2025 15:03:44 GMT-0500 (Central Daylight Time),214960.30000001192,A,c,O,c,10699,1,10712.100000023842,204248.19999998808,7200,WL,C,9.0
1,54.634000062942505,learn,5365.999937057495,Thu Aug 14 2025 15:03:44 GMT-0500 (Central Daylight Time),215111.39999997616,A,ca,O,a,138,1,10863.199999988079,204248.19999998808,7200,WL,C,9.0
1,55.01600003242493,learn,4983.999967575073,Thu Aug 14 2025 15:03:44 GMT-0500 (Central Daylight Time),215494.10000002384,A,cat,O,t,362,1,11245.900000035763,204248.19999998808,7200,WL,C,9.0
1,55.18300008773804,learn,4816.999912261963,Thu Aug 14 2025 15:03:44 GMT-0500 (Central Daylight Time),215661.39999997616,A,catt,O,t,146,1,11413.199999988079,204248.19999998808,7200,WL,C,9.0
1,55.3989999294281,learn,4601.000070571899,Thu Aug 14 2025 15:03:44 GMT-0500 (Central Daylight Time),215876.89999997616,A,cattl,O,l,197,1,11628.699999988079,204248.19999998808,7200,WL,C,9.0
1,55.56599998474121,learn,4434.000015258789,Thu Aug 14 2025 15:03:44 GMT-0500 (Central Daylight Time),216044.10000002384,A,cattle,O,e,148,1,11795.900000035763,204248.19999998808,7200,WL,C,9.0
1,55.94700002670288,learn,4052.999973297119,Thu Aug 14 2025 15:03:44 GMT-0500 (Central Daylight Time),216425.10000002384,A,cattleenter,O,enter,371,1,12176.900000035763,204248.19999998808,7200,WL,C,9.0
1,60.015000104904175,learn,-15.000104904174805,Thu Aug 14 2025 15:03:44 GMT-0500 (Central Daylight Time),220492.60000002384,A,None,O,None,4062,1,4067.2000000476837,216425.39999997616,7200,WL,C,10.0
2,0.8660001754760742,learn,59133.999824523926,Thu Aug 14 2025 15:03:44 GMT-0500 (Central Daylight Time),300915.5,A,c,O,c,854,1,865.8000000119209,300049.6999999881,7200,WL,C,1.0
2,1.0490000247955322,learn,58950.99997520447,Thu Aug 14 2025 15:03:44 GMT-0500 (Central Daylight Time),301098.10000002384,A,ca,O,a,174,1,1048.4000000357628,300049.6999999881,7200,WL,C,1.0
2,1.632000207901001,learn,58367.999792099,Thu Aug 14 2025 15:03:44 GMT-0500 (Central Daylight Time),301681.8000000119,A,cam,O,m,569,1,1632.1000000238419,300049.6999999881,7200,WL,C,1.0
2,1.8490002155303955,learn,58150.999784469604,Thu Aug 14 2025 15:03:44 GMT-0500 (Central Daylight Time),301898.39999997616,A,camp,O,p,210,1,1848.699999988079,300049.6999999881,7200,WL,C,1.0
2,2.199000120162964,learn,57800.999879837036,Thu Aug 14 2025 15:03:44 GMT-0500 (Central Daylight Time),302249.0,A,campenter,O,enter,334,1,2199.300000011921,300049.6999999881,7200,WL,C,1.0
2,3.182000160217285,learn,56817.999839782715,Thu Aug 14 2025 15:03:44 GMT-0500 (Central Daylight Time),303231.89999997616,A,l,O,l,963,1,982.6999999880791,302249.1999999881,7200,WL,C,2.0
2,3.382000207901001,learn,56617.999792099,Thu Aug 14 2025 15:03:44 GMT-0500 (Central Daylight Time),303431.39999997616,A,le,O,e,183,1,1182.199999988079,302249.1999999881,7200,WL,C,2.0
2,3.6490001678466797,learn,56350.99983215332,Thu Aug 14 2025 15:03:44 GMT-0500 (Central Daylight Time),303698.3000000119,A,let,O,t,257,1,1449.1000000238419,302249.1999999881,7200,WL,C,2.0
2,3.7980000972747803,learn,56201.99990272522,Thu Aug 14 2025 15:03:44 GMT-0500 (Central Daylight Time),303847.6999999881,A,lett,O,t,132,1,1598.5,302249.1999999881,7200,WL,C,2.0
2,3.947000026702881,learn,56052.99997329712,Thu Aug 14 2025 15:03:44 GMT-0500 (Central Daylight Time),303996.60000002384,A,lette,O,e,139,1,1747.4000000357628,302249.1999999881,7200,WL,C,2.0
2,4.082000017166138,learn,55917.99998283386,Thu Aug 14 2025 15:03:44 GMT-0500 (Central Daylight Time),304131.1999999881,A,letter,O,r,118,1,1882.0,302249.1999999881,7200,WL,C,2.0
2,5.04800009727478,learn,54951.99990272522,Thu Aug 14 2025 15:03:44 GMT-0500 (Central Daylight Time),305097.6999999881,A,letterenter,O,enter,951,1,2848.5,302249.1999999881,7200,WL,C,2.0
2,6.484000205993652,learn,53515.99979400635,Thu Aug 14 2025 15:03:44 GMT-0500 (Central Daylight Time),306533.5,A,f,O,f,1427,1,1435.5,305098.0,7200,WL,C,3.0
2,6.79800009727478,learn,53201.99990272522,Thu Aug 14 2025 15:03:44 GMT-0500 (Central Daylight Time),306847.6999999881,A,fl,O,l,294,1,1749.699999988079,305098.0,7200,WL,C,3.0
2,6.950000047683716,learn,53049.999952316284,Thu Aug 14 2025 15:03:44 GMT-0500 (Central Daylight Time),306999.6999999881,A,fla,O,a,132,1,1901.699999988079,305098.0,7200,WL,C,3.0
2,7.263000011444092,learn,52736.99998855591,Thu Aug 14 2025 15:03:44 GMT-0500 (Central Daylight Time),307313.0,A,flag,O,g,306,1,2215.0,305098.0,7200,WL,C,3.0
2,7.581000089645386,learn,52418.999910354614,Thu Aug 14 2025 15:03:44 GMT-0500 (Central Daylight Time),307630.5,A,flagenter,O,enter,302,1,2532.5,305098.0,7200,WL,C,3.0
2,7.947000026702881,learn,52052.99997329712,Thu Aug 14 2025 15:03:44 GMT-0500 (Central Daylight Time),307996.3000000119,A,s,O,s,354,1,365.5,307630.8000000119,7200,WL,C,4.0
2,8.115000009536743,learn,51884.99999046326,Thu Aug 14 2025 15:03:44 GMT-0500 (Central Daylight Time),308164.3000000119,A,sh,O,h,159,1,533.5,307630.8000000119,7200,WL,C,4.0
2,8.366000175476074,learn,51633.999824523926,Thu Aug 14 2025 15:03:44 GMT-0500 (Central Daylight Time),308415.60000002384,A,sho,O,o,228,1,784.8000000119209,307630.8000000119,7200,WL,C,4.0
2,8.647000074386597,learn,51352.9999256134,Thu Aug 14 2025 15:03:44 GMT-0500 (Central Daylight Time),308696.0,A,shor,O,r,265,1,1065.199999988079,307630.8000000119,7200,WL,C,4.0
2,8.730000019073486,learn,51269.999980926514,Thu Aug 14 2025 15:03:44 GMT-0500 (Central Daylight Time),308779.5,A,shore,O,e,65,1,1148.699999988079,307630.8000000119,7200,WL,C,4.0
2,9.032000064849854,learn,50967.99993515015,Thu Aug 14 2025 15:03:44 GMT-0500 (Central Daylight Time),309081.1999999881,A,shoreenter,O,enter,281,1,1450.3999999761581,307630.8000000119,7200,WL,C,4.0
2,9.582000017166138,learn,50417.99998283386,Thu Aug 14 2025 15:03:44 GMT-0500 (Central Daylight Time),309631.10000002384,A,n,O,n,529,1,549.6000000238419,309081.5,7200,WL,C,5.0
2,9.731000185012817,learn,50268.99981498718,Thu Aug 14 2025 15:03:44 GMT-0500 (Central Daylight Time),309780.39999997616,A,na,O,a,126,1,698.8999999761581,309081.5,7200,WL,C,5.0
2,9.913000106811523,learn,50086.99989318848,Thu Aug 14 2025 15:03:44 GMT-0500 (Central Daylight Time),309962.8000000119,A,nai,O,i,175,1,881.3000000119209,309081.5,7200,WL,C,5.0
2,10.097000122070312,learn,49902.99987792969,Thu Aug 14 2025 15:03:44 GMT-0500 (Central Daylight Time),310146.8000000119,A,nail,O,l,173,1,1065.300000011921,309081.5,7200,WL,C,5.0
2,10.848000049591064,learn,49151.999950408936,Thu Aug 14 2025 15:03:44 GMT-0500 (Central Daylight Time),310897.0,A,nailenter,O,enter,732,1,1815.5,309081.5,7200,WL,C,5.0
2,11.913000106811523,learn,48086.99989318848,Thu Aug 14 2025 15:03:44 GMT-0500 (Central Daylight Time),311962.6999999881,A,h,O,h,1057,1,1065.3999999761581,310897.3000000119,7200,WL,C,6.0
2,12.097000122070312,learn,47902.99987792969,Thu Aug 14 2025 15:03:44 GMT-0500 (Central Daylight Time),312146.39999997616,A,ho,O,o,161,1,1249.0999999642372,310897.3000000119,7200,WL,C,6.0
2,12.279000043869019,learn,47720.99995613098,Thu Aug 14 2025 15:03:44 GMT-0500 (Central Daylight Time),312328.60000002384,A,hom,O,m,161,1,1431.300000011921,310897.3000000119,7200,WL,C,6.0
2,12.480000019073486,learn,47519.999980926514,Thu Aug 14 2025 15:03:44 GMT-0500 (Central Daylight Time),312529.8000000119,A,home,O,e,177,1,1632.5,310897.3000000119,7200,WL,C,6.0
2,12.813000202178955,learn,47186.999797821045,Thu Aug 14 2025 15:03:44 GMT-0500 (Central Daylight Time),312862.60000002384,A,homeenter,O,enter,322,1,1965.300000011921,310897.3000000119,7200,WL,C,6.0
2,13.331000089645386,learn,46668.999910354614,Thu Aug 14 2025 15:03:44 GMT-0500 (Central Daylight Time),313380.10000002384,A,b,O,b,496,1,517.2000000476837,312862.89999997616,7200,WL,C,7.0
2,13.695000171661377,learn,46304.99982833862,Thu Aug 14 2025 15:03:44 GMT-0500 (Central Daylight Time),313744.60000002384,A,bo,O,o,348,1,881.7000000476837,312862.89999997616,7200,WL,C,7.0
2,14.09500002861023,learn,45904.99997138977,Thu Aug 14 2025 15:03:44 GMT-0500 (Central Daylight Time),314144.3000000119,A,boy,O,y,383,1,1281.4000000357628,312862.89999997616,7200,WL,C,7.0
2,14.328999996185303,learn,45671.0000038147,Thu Aug 14 2025 15:03:44 GMT-0500 (Central Daylight Time),314378.5,A,boyenter,O,enter,223,1,1515.6000000238419,312862.89999997616,7200,WL,C,7.0
2,15.361000061035156,learn,44638.999938964844,Thu Aug 14 2025 15:03:44 GMT-0500 (Central Daylight Time),315410.8000000119,A,t,O,t,1017,1,1032.1000000238419,314378.6999999881,7200,WL,C,8.0
2,15.578999996185303,learn,44421.0000038147,Thu Aug 14 2025 15:03:44 GMT-0500 (Central Daylight Time),315628.60000002384,A,to,O,o,198,1,1249.9000000357628,314378.6999999881,7200,WL,C,8.0
2,15.812000036239624,learn,44187.999963760376,Thu Aug 14 2025 15:03:44 GMT-0500 (Central Daylight Time),315861.3000000119,A,tow,O,w,220,1,1482.6000000238419,314378.6999999881,7200,WL,C,8.0
2,15.92900013923645,learn,44070.99986076355,Thu Aug 14 2025 15:03:44 GMT-0500 (Central Daylight Time),315978.39999997616,A,towe,O,e,101,1,1599.699999988079,314378.6999999881,7200,WL,C,8.0
2,16.145000219345093,learn,43854.99978065491,Thu Aug 14 2025 15:03:44 GMT-0500 (Central Daylight Time),316194.6999999881,A,tower,O,r,204,1,1816.0,314378.6999999881,7200,WL,C,8.0
2,16.427000045776367,learn,43572.99995422363,Thu Aug 14 2025 15:03:44 GMT-0500 (Central Daylight Time),316476.3000000119,A,towerenter,O,enter,262,1,2097.600000023842,314378.6999999881,7200,WL,C,8.0
2,17.04700016975403,learn,42952.99983024597,Thu Aug 14 2025 15:03:44 GMT-0500 (Central Daylight Time),317096.1999999881,A,q,O,q,606,1,619.5999999642372,316476.60000002384,7200,WL,C,9.0
2,17.27900004386902,learn,42720.99995613098,Thu Aug 14 2025 15:03:44 GMT-0500 (Central Daylight Time),317328.3000000119,A,qu,O,u,216,1,851.6999999880791,316476.60000002384,7200,WL,C,9.0
2,17.514000177383423,learn,42485.99982261658,Thu Aug 14 2025 15:03:44 GMT-0500 (Central Daylight Time),317563.60000002384,A,que,O,e,210,1,1087.0,316476.60000002384,7200,WL,C,9.0
2,17.66100001335144,learn,42338.99998664856,Thu Aug 14 2025 15:03:44 GMT-0500 (Central Daylight Time),317710.8000000119,A,quee,O,e,126,1,1234.199999988079,316476.60000002384,7200,WL,C,9.0
2,17.861999988555908,learn,42138.00001144409,Thu Aug 14 2025 15:03:44 GMT-0500 (Central Daylight Time),317911.1999999881,A,queen,O,n,180,1,1434.5999999642372,316476.60000002384,7200,WL,C,9.0
2,18.328999996185303,learn,41671.0000038147,Thu Aug 14 2025 15:03:44 GMT-0500 (Central Daylight Time),318378.1999999881,A,queenenter,O,enter,451,1,1901.5999999642372,316476.60000002384,7200,WL,C,9.0
2,18.677000045776367,learn,41322.99995422363,Thu Aug 14 2025 15:03:44 GMT-0500 (Central Daylight Time),318726.5,A,s,O,s,335,1,348.10000002384186,318378.39999997616,7200,WL,C,10.0
2,19.194000005722046,learn,40805.999994277954,Thu Aug 14 2025 15:03:44 GMT-0500 (Central Daylight Time),319243.8000000119,A,sh,O,h,505,1,865.4000000357628,318378.39999997616,7200,WL,C,10.0
2,19.811000108718872,learn,40188.99989128113,Thu Aug 14 2025 15:03:44 GMT-0500 (Central Daylight Time),319860.89999997616,A,sho,O,o,604,1,1482.5,318378.39999997616,7200,WL,C,10.0
2,20.02900004386902,learn,39970.99995613098,Thu Aug 14 2025 15:03:44 GMT-0500 (Central Daylight Time),320078.89999997616,A,shor,O,r,195,1,1700.5,318378.39999997616,7200,WL,C,10.0
2,20.14400005340576,learn,39855.99994659424,Thu Aug 14 2025 15:03:44 GMT-0500 (Central Daylight Time),320194.0,A,shore,O,e,108,1,1815.6000000238419,318378.39999997616,7200,WL,C,10.0
2,20.259999990463257,learn,39740.00000953674,Thu Aug 14 2025 15:03:44 GMT-0500 (Central Daylight Time),320309.6999999881,A,shoreenter,O,enter,102,1,1931.300000011921,318378.39999997616,7200,WL,C,10.0
2,23.961000204086304,learn,36038.999795913696,Thu Aug 14 2025 15:03:44 GMT-0500 (Central Daylight Time),324010.10000002384,A,w,O,w,3680,1,3700.100000023842,320310.0,7200,WL,C,11.0
2,24.04200005531311,learn,35957.99994468689,Thu Aug 14 2025 15:03:44 GMT-0500 (Central Daylight Time),324091.0,A,wh,O,h,73,1,3781.0,320310.0,7200,WL,C,11.0
2,24.210000038146973,learn,35789.99996185303,Thu Aug 14 2025 15:03:44 GMT-0500 (Central Daylight Time),324259.10000002384,A,whe,O,e,150,1,3949.100000023842,320310.0,7200,WL,C,11.0
2,24.39300012588501,learn,35606.99987411499,Thu Aug 14 2025 15:03:44 GMT-0500 (Central Daylight Time),324442.39999997616,A,whea,O,a,176,1,4132.399999976158,320310.0,7200,WL,C,11.0
2,24.55900001525879,learn,35440.99998474121,Thu Aug 14 2025 15:03:44 GMT-0500 (Central Daylight Time),324608.60000002384,A,wheat,O,t,150,1,4298.600000023842,320310.0,7200,WL,C,11.0
2,24.69100022315979,learn,35308.99977684021,Thu Aug 14 2025 15:03:44 GMT-0500 (Central Daylight Time),324740.60000002384,A,wheatenter,O,enter,121,1,4430.600000023842,320310.0,7200,WL,C,11.0
2,30.04100012779236,learn,29958.99987220764,Thu Aug 14 2025 15:03:44 GMT-0500 (Central Daylight Time),330090.60000002384,A,c,O,c,5330,1,5349.800000011921,324740.8000000119,7200,WL,C,12.0
2,30.157999992370605,learn,29842.000007629395,Thu Aug 14 2025 15:03:44 GMT-0500 (Central Daylight Time),330207.1999999881,A,ca,O,a,95,1,5466.399999976158,324740.8000000119,7200,WL,C,12.0
2,30.491000175476074,learn,29508.999824523926,Thu Aug 14 2025 15:03:44 GMT-0500 (Central Daylight Time),330540.10000002384,A,cat,O,t,314,1,5799.300000011921,324740.8000000119,7200,WL,C,12.0
2,30.640000104904175,learn,29359.999895095825,Thu Aug 14 2025 15:03:44 GMT-0500 (Central Daylight Time),330690.10000002384,A,catt,O,t,134,1,5949.300000011921,324740.8000000119,7200,WL,C,12.0
2,30.85700011253357,learn,29142.99988746643,Thu Aug 14 2025 15:03:44 GMT-0500 (Central Daylight Time),330906.6999999881,A,cattl,O,l,208,1,6165.899999976158,324740.8000000119,7200,WL,C,12.0
2,31.074000120162964,learn,28925.999879837036,Thu Aug 14 2025 15:03:44 GMT-0500 (Central Daylight Time),331123.6999999881,A,cattle,O,e,199,1,6382.899999976158,324740.8000000119,7200,WL,C,12.0
2,31.373000144958496,learn,28626.999855041504,Thu Aug 14 2025 15:03:44 GMT-0500 (Central Daylight Time),331422.6999999881,A,cattleenter,O,enter,285,1,6681.899999976158,324740.8000000119,7200,WL,C,12.0
2,33.789000034332275,learn,26210.999965667725,Thu Aug 14 2025 15:03:44 GMT-0500 (Central Daylight Time),333838.8000000119,A,c,O,c,2395,1,2415.900000035763,331422.89999997616,7200,WL,C,13.0
2,33.9060001373291,learn,26093.9998626709,Thu Aug 14 2025 15:03:44 GMT-0500 (Central Daylight Time),333955.1999999881,A,ca,O,a,104,1,2532.300000011921,331422.89999997616,7200,WL,C,13.0
2,34.08899998664856,learn,25911.00001335144,Thu Aug 14 2025 15:03:44 GMT-0500 (Central Daylight Time),334138.5,A,cam,O,m,165,1,2715.600000023842,331422.89999997616,7200,WL,C,13.0
2,34.32300019264221,learn,25676.999807357788,Thu Aug 14 2025 15:03:44 GMT-0500 (Central Daylight Time),334372.10000002384,A,camp,O,p,223,1,2949.2000000476837,331422.89999997616,7200,WL,C,13.0
2,34.688000202178955,learn,25311.999797821045,Thu Aug 14 2025 15:03:44 GMT-0500 (Central Daylight Time),334737.3000000119,A,campenter,O,enter,347,1,3314.400000035763,331422.89999997616,7200,WL,C,13.0
2,41.20300006866455,learn,18796.99993133545,Thu Aug 14 2025 15:03:44 GMT-0500 (Central Daylight Time),341253.0,A,q,O,q,6497,1,6515.399999976158,334737.60000002384,7200,WL,C,14.0
2,41.47100019454956,learn,18528.99980545044,Thu Aug 14 2025 15:03:44 GMT-0500 (Central Daylight Time),341520.39999997616,A,qu,O,u,245,1,6782.799999952316,334737.60000002384,7200,WL,C,14.0
2,41.736000061035156,learn,18263.999938964844,Thu Aug 14 2025 15:03:44 GMT-0500 (Central Daylight Time),341786.0,A,que,O,e,255,1,7048.399999976158,334737.60000002384,7200,WL,C,14.0
2,41.902000188827515,learn,18097.999811172485,Thu Aug 14 2025 15:03:44 GMT-0500 (Central Daylight Time),341951.6999999881,A,quee,O,e,143,1,7214.099999964237,334737.60000002384,7200,WL,C,14.0
2,42.003000020980835,learn,17996.999979019165,Thu Aug 14 2025 15:03:44 GMT-0500 (Central Daylight Time),342052.8000000119,A,queen,O,n,91,1,7315.199999988079,334737.60000002384,7200,WL,C,14.0
2,42.438000202178955,learn,17561.999797821045,Thu Aug 14 2025 15:03:44 GMT-0500 (Central Daylight Time),342487.10000002384,A,queenenter,O,enter,413,1,7749.5,334737.60000002384,7200,WL,C,14.0
2,60.01400017738342,learn,-14.000177383422852,Thu Aug 14 2025 15:03:44 GMT-0500 (Central Daylight Time),360064.39999997616,A,None,O,None,17572,1,17577.099999964237,342487.3000000119,7200,WL,C,15.0
3,0.8659999370574951,learn,59134.000062942505,Thu Aug 14 2025 15:03:44 GMT-0500 (Central Daylight Time),447669.10000002384,A,b,O,b,854,1,865.7000000476837,446803.39999997616,7200,WL,C,1.0
3,1.1140000820159912,learn,58885.99991798401,Thu Aug 14 2025 15:03:44 GMT-0500 (Central Daylight Time),447917.1999999881,A,bo,O,o,227,1,1113.800000011921,446803.39999997616,7200,WL,C,1.0
3,1.4670000076293945,learn,58532.999992370605,Thu Aug 14 2025 15:03:44 GMT-0500 (Central Daylight Time),448269.8000000119,A,bod,O,d,344,1,1466.4000000357628,446803.39999997616,7200,WL,C,1.0
3,1.7000000476837158,learn,58299.999952316284,Thu Aug 14 2025 15:03:44 GMT-0500 (Central Daylight Time),448503.1999999881,A,body,O,y,214,1,1699.800000011921,446803.39999997616,7200,WL,C,1.0
3,2.3510000705718994,learn,57648.9999294281,Thu Aug 14 2025 15:03:44 GMT-0500 (Central Daylight Time),449153.8000000119,A,bodyenter,O,enter,630,1,2350.400000035763,446803.39999997616,7200,WL,C,1.0
3,3.2820000648498535,learn,56717.99993515015,Thu Aug 14 2025 15:03:44 GMT-0500 (Central Daylight Time),450085.5,A,d,O,d,921,1,931.3999999761581,449154.10000002384,7200,WL,C,2.0
3,3.447999954223633,learn,56552.00004577637,Thu Aug 14 2025 15:03:44 GMT-0500 (Central Daylight Time),450251.10000002384,A,do,O,o,157,1,1097.0,449154.10000002384,7200,WL,C,2.0
3,3.6489999294281006,learn,56351.0000705719,Thu Aug 14 2025 15:03:44 GMT-0500 (Central Daylight Time),450451.6999999881,A,doc,O,c,190,1,1297.5999999642372,449154.10000002384,7200,WL,C,2.0
3,3.8989999294281006,learn,56101.0000705719,Thu Aug 14 2025 15:03:44 GMT-0500 (Central Daylight Time),450701.89999997616,A,doct,O,t,238,1,1547.7999999523163,449154.10000002384,7200,WL,C,2.0
3,4.0309998989105225,learn,55969.00010108948,Thu Aug 14 2025 15:03:44 GMT-0500 (Central Daylight Time),450834.39999997616,A,docto,O,o,125,1,1680.2999999523163,449154.10000002384,7200,WL,C,2.0
3,4.200000047683716,learn,55799.999952316284,Thu Aug 14 2025 15:03:44 GMT-0500 (Central Daylight Time),451002.8000000119,A,doctor,O,r,153,1,1848.699999988079,449154.10000002384,7200,WL,C,2.0
3,4.63100004196167,learn,55368.99995803833,Thu Aug 14 2025 15:03:44 GMT-0500 (Central Daylight Time),451434.39999997616,A,doctorenter,O,enter,415,1,2280.2999999523163,449154.10000002384,7200,WL,C,2.0
3,5.947999954223633,learn,54052.00004577637,Thu Aug 14 2025 15:03:44 GMT-0500 (Central Daylight Time),452751.3000000119,A,q,O,q,1304,1,1316.699999988079,451434.60000002384,7200,WL,C,3.0
3,6.197999954223633,learn,53802.00004577637,Thu Aug 14 2025 15:03:44 GMT-0500 (Central Daylight Time),453001.39999997616,A,qu,O,u,234,1,1566.7999999523163,451434.60000002384,7200,WL,C,3.0
3,6.5970001220703125,learn,53402.99987792969,Thu Aug 14 2025 15:03:44 GMT-0500 (Central Daylight Time),453400.5,A,que,O,e,386,1,1965.8999999761581,451434.60000002384,7200,WL,C,3.0
3,6.765000104904175,learn,53234.999895095825,Thu Aug 14 2025 15:03:44 GMT-0500 (Central Daylight Time),453567.8000000119,A,quen,O,n,143,1,2133.199999988079,451434.60000002384,7200,WL,C,3.0
3,7.180999994277954,learn,52819.000005722046,Thu Aug 14 2025 15:03:44 GMT-0500 (Central Daylight Time),453983.89999997616,A,quenenter,O,enter,396,1,2549.2999999523163,451434.60000002384,7200,WL,C,3.0
3,7.697000026702881,learn,52302.99997329712,Thu Aug 14 2025 15:03:44 GMT-0500 (Central Daylight Time),454499.89999997616,A,w,O,w,499,1,515.7999999523163,453984.10000002384,7200,WL,C,4.0
3,7.864000082015991,learn,52135.99991798401,Thu Aug 14 2025 15:03:44 GMT-0500 (Central Daylight Time),454667.1999999881,A,wh,O,h,156,1,683.0999999642372,453984.10000002384,7200,WL,C,4.0
3,8.197999954223633,learn,51802.00004577637,Thu Aug 14 2025 15:03:44 GMT-0500 (Central Daylight Time),455001.39999997616,A,whe,O,e,315,1,1017.2999999523163,453984.10000002384,7200,WL,C,4.0
3,8.38100004196167,learn,51618.99995803833,Thu Aug 14 2025 15:03:44 GMT-0500 (Central Daylight Time),455183.89999997616,A,whea,O,a,168,1,1199.7999999523163,453984.10000002384,7200,WL,C,4.0
3,8.564000129699707,learn,51435.99987030029,Thu Aug 14 2025 15:03:44 GMT-0500 (Central Daylight Time),455366.89999997616,A,wheat,O,t,160,1,1382.7999999523163,453984.10000002384,7200,WL,C,4.0
3,8.79800009727478,learn,51201.99990272522,Thu Aug 14 2025 15:03:44 GMT-0500 (Central Daylight Time),455600.8000000119,A,wheatenter,O,enter,218,1,1616.699999988079,453984.10000002384,7200,WL,C,4.0
3,9.279000043869019,learn,50720.99995613098,Thu Aug 14 2025 15:03:44 GMT-0500 (Central Daylight Time),456082.5,A,t,O,t,464,1,481.39999997615814,455601.10000002384,7200,WL,C,5.0
3,9.528000116348267,learn,50471.99988365173,Thu Aug 14 2025 15:03:44 GMT-0500 (Central Daylight Time),456331.39999997616,A,to,O,o,232,1,730.2999999523163,455601.10000002384,7200,WL,C,5.0
3,9.69700002670288,learn,50302.99997329712,Thu Aug 14 2025 15:03:44 GMT-0500 (Central Daylight Time),456499.8000000119,A,tow,O,w,160,1,898.6999999880791,455601.10000002384,7200,WL,C,5.0
3,9.79699993133545,learn,50203.00006866455,Thu Aug 14 2025 15:03:44 GMT-0500 (Central Daylight Time),456600.1999999881,A,towe,O,e,79,1,999.0999999642372,455601.10000002384,7200,WL,C,5.0
3,10.013999938964844,learn,49986.000061035156,Thu Aug 14 2025 15:03:44 GMT-0500 (Central Daylight Time),456816.60000002384,A,tower,O,r,194,1,1215.5,455601.10000002384,7200,WL,C,5.0
3,10.295000076293945,learn,49704.999923706055,Thu Aug 14 2025 15:03:44 GMT-0500 (Central Daylight Time),457098.1999999881,A,towerenter,O,enter,270,1,1497.0999999642372,455601.10000002384,7200,WL,C,5.0
3,11.045000076293945,learn,48954.999923706055,Thu Aug 14 2025 15:03:44 GMT-0500 (Central Daylight Time),457847.60000002384,A,s,O,s,729,1,749.2000000476837,457098.39999997616,7200,WL,C,6.0
3,11.246000051498413,learn,48753.99994850159,Thu Aug 14 2025 15:03:44 GMT-0500 (Central Daylight Time),458048.89999997616,A,su,O,u,187,1,950.5,457098.39999997616,7200,WL,C,6.0
3,11.509999990463257,learn,48490.00000953674,Thu Aug 14 2025 15:03:44 GMT-0500 (Central Daylight Time),458313.39999997616,A,sug,O,g,258,1,1215.0,457098.39999997616,7200,WL,C,6.0
3,12.394000053405762,learn,47605.99994659424,Thu Aug 14 2025 15:03:44 GMT-0500 (Central Daylight Time),459197.0,A,suga,O,a,874,1,2098.600000023842,457098.39999997616,7200,WL,C,6.0
3,12.726999998092651,learn,47273.00000190735,Thu Aug 14 2025 15:03:44 GMT-0500 (Central Daylight Time),459529.8000000119,A,sugar,O,r,312,1,2431.400000035763,457098.39999997616,7200,WL,C,6.0
3,13.026000022888184,learn,46973.99997711182,Thu Aug 14 2025 15:03:44 GMT-0500 (Central Daylight Time),459829.3000000119,A,sugarenter,O,enter,275,1,2730.900000035763,457098.39999997616,7200,WL,C,6.0
3,13.427000045776367,learn,46572.99995422363,Thu Aug 14 2025 15:03:44 GMT-0500 (Central Daylight Time),460229.60000002384,A,c,O,c,388,1,400.0,459829.60000002384,7200,WL,C,7.0
3,13.609999895095825,learn,46390.000104904175,Thu Aug 14 2025 15:03:44 GMT-0500 (Central Daylight Time),460412.8000000119,A,ca,O,a,162,1,583.1999999880791,459829.60000002384,7200,WL,C,7.0
3,13.82699990272522,learn,46173.00009727478,Thu Aug 14 2025 15:03:44 GMT-0500 (Central Daylight Time),460629.60000002384,A,cam,O,m,200,1,800.0,459829.60000002384,7200,WL,C,7.0
3,15.226999998092651,learn,44773.00000190735,Thu Aug 14 2025 15:03:44 GMT-0500 (Central Daylight Time),462030.10000002384,A,camp,O,p,1375,1,2200.5,459829.60000002384,7200,WL,C,7.0
3,15.609999895095825,learn,44390.000104904175,Thu Aug 14 2025 15:03:44 GMT-0500 (Central Daylight Time),462413.0,A,campenter,O,enter,369,1,2583.399999976158,459829.60000002384,7200,WL,C,7.0
3,16.028000116348267,learn,43971.99988365173,Thu Aug 14 2025 15:03:44 GMT-0500 (Central Daylight Time),462830.6999999881,A,f,O,f,405,1,417.5,462413.1999999881,7200,WL,C,8.0
3,16.193000078201294,learn,43806.999921798706,Thu Aug 14 2025 15:03:44 GMT-0500 (Central Daylight Time),462996.39999997616,A,fl,O,l,145,1,583.1999999880791,462413.1999999881,7200,WL,C,8.0
3,16.32699990272522,learn,43673.00009727478,Thu Aug 14 2025 15:03:44 GMT-0500 (Central Daylight Time),463130.3000000119,A,fla,O,a,115,1,717.1000000238419,462413.1999999881,7200,WL,C,8.0
3,16.542999982833862,learn,43457.00001716614,Thu Aug 14 2025 15:03:44 GMT-0500 (Central Daylight Time),463346.1999999881,A,flag,O,g,200,1,933.0,462413.1999999881,7200,WL,C,8.0
3,16.677000045776367,learn,43322.99995422363,Thu Aug 14 2025 15:03:44 GMT-0500 (Central Daylight Time),463479.60000002384,A,flagenter,O,enter,126,1,1066.4000000357628,462413.1999999881,7200,WL,C,8.0
3,18.292999982833862,learn,41707.00001716614,Thu Aug 14 2025 15:03:44 GMT-0500 (Central Daylight Time),465096.39999997616,A,c,O,c,1598,1,1616.5,463479.89999997616,7200,WL,C,9.0
3,18.426000118255615,learn,41573.999881744385,Thu Aug 14 2025 15:03:44 GMT-0500 (Central Daylight Time),465229.5,A,ca,O,a,111,1,1749.6000000238419,463479.89999997616,7200,WL,C,9.0
3,18.74399995803833,learn,41256.00004196167,Thu Aug 14 2025 15:03:44 GMT-0500 (Central Daylight Time),465547.10000002384,A,cat,O,t,309,1,2067.2000000476837,463479.89999997616,7200,WL,C,9.0
3,18.89199995994568,learn,41108.00004005432,Thu Aug 14 2025 15:03:44 GMT-0500 (Central Daylight Time),465695.39999997616,A,catt,O,t,127,1,2215.5,463479.89999997616,7200,WL,C,9.0
3,19.04200005531311,learn,40957.99994468689,Thu Aug 14 2025 15:03:44 GMT-0500 (Central Daylight Time),465845.10000002384,A,cattl,O,l,131,1,2365.2000000476837,463479.89999997616,7200,WL,C,9.0
3,19.174999952316284,learn,40825.000047683716,Thu Aug 14 2025 15:03:44 GMT-0500 (Central Daylight Time),465978.3000000119,A,cattle,O,e,117,1,2498.400000035763,463479.89999997616,7200,WL,C,9.0
3,19.39199995994568,learn,40608.00004005432,Thu Aug 14 2025 15:03:44 GMT-0500 (Central Daylight Time),466195.1999999881,A,cattleenter,O,enter,199,1,2715.300000011921,463479.89999997616,7200,WL,C,9.0
3,21.26099991798401,learn,38739.00008201599,Thu Aug 14 2025 15:03:44 GMT-0500 (Central Daylight Time),468064.0,A,h,O,h,1856,1,1868.6000000238419,466195.39999997616,7200,WL,C,10.0
3,21.42799997329712,learn,38572.00002670288,Thu Aug 14 2025 15:03:44 GMT-0500 (Central Daylight Time),468230.60000002384,A,ho,O,o,153,1,2035.2000000476837,466195.39999997616,7200,WL,C,10.0
3,21.594000101089478,learn,38405.99989891052,Thu Aug 14 2025 15:03:44 GMT-0500 (Central Daylight Time),468397.10000002384,A,hom,O,m,154,1,2201.7000000476837,466195.39999997616,7200,WL,C,10.0
3,21.757999897003174,learn,38242.000102996826,Thu Aug 14 2025 15:03:44 GMT-0500 (Central Daylight Time),468560.89999997616,A,home,O,e,149,1,2365.5,466195.39999997616,7200,WL,C,10.0
3,21.94099998474121,learn,38059.00001525879,Thu Aug 14 2025 15:03:44 GMT-0500 (Central Daylight Time),468744.0,A,homeenter,O,enter,179,1,2548.600000023842,466195.39999997616,7200,WL,C,10.0
3,22.41000008583069,learn,37589.99991416931,Thu Aug 14 2025 15:03:44 GMT-0500 (Central Daylight Time),469213.5,A,b,O,b,459,1,469.30000001192093,468744.1999999881,7200,WL,C,11.0
3,22.661999940872192,learn,37338.00005912781,Thu Aug 14 2025 15:03:44 GMT-0500 (Central Daylight Time),469465.0,A,bo,O,o,230,1,720.8000000119209,468744.1999999881,7200,WL,C,11.0
3,22.842999935150146,learn,37157.00006484985,Thu Aug 14 2025 15:03:44 GMT-0500 (Central Daylight Time),469646.5,A,boy,O,y,160,1,902.3000000119209,468744.1999999881,7200,WL,C,11.0
3,23.058000087738037,learn,36941.99991226196,Thu Aug 14 2025 15:03:44 GMT-0500 (Central Daylight Time),469861.3000000119,A,boyenter,O,enter,194,1,1117.1000000238419,468744.1999999881,7200,WL,C,11.0
3,28.439000129699707,learn,31560.999870300293,Thu Aug 14 2025 15:03:44 GMT-0500 (Central Daylight Time),475243.0,A,l,O,l,5366,1,5381.5,469861.5,7200,WL,C,12.0
3,28.60700011253357,learn,31392.99988746643,Thu Aug 14 2025 15:03:44 GMT-0500 (Central Daylight Time),475410.60000002384,A,le,O,e,159,1,5549.100000023842,469861.5,7200,WL,C,12.0
3,28.85800004005432,learn,31141.99995994568,Thu Aug 14 2025 15:03:44 GMT-0500 (Central Daylight Time),475661.89999997616,A,let,O,t,231,1,5800.399999976158,469861.5,7200,WL,C,12.0
3,28.990000009536743,learn,31009.999990463257,Thu Aug 14 2025 15:03:44 GMT-0500 (Central Daylight Time),475794.1999999881,A,lett,O,t,126,1,5932.699999988079,469861.5,7200,WL,C,12.0
3,29.372999906539917,learn,30627.000093460083,Thu Aug 14 2025 15:03:44 GMT-0500 (Central Daylight Time),476177.3000000119,A,lette,O,e,368,1,6315.800000011921,469861.5,7200,WL,C,12.0
3,29.539999961853027,learn,30460.000038146973,Thu Aug 14 2025 15:03:44 GMT-0500 (Central Daylight Time),476344.1999999881,A,letter,O,r,145,1,6482.699999988079,469861.5,7200,WL,C,12.0
3,29.85700011253357,learn,30142.99988746643,Thu Aug 14 2025 15:03:44 GMT-0500 (Central Daylight Time),476660.39999997616,A,letterenter,O,enter,305,1,6798.899999976158,469861.5,7200,WL,C,12.0
3,30.82100009918213,learn,29178.99990081787,Thu Aug 14 2025 15:03:44 GMT-0500 (Central Daylight Time),477624.89999997616,A,n,O,n,958,1,964.2999999523163,476660.60000002384,7200,WL,C,13.0
3,30.973000049591064,learn,29026.999950408936,Thu Aug 14 2025 15:03:44 GMT-0500 (Central Daylight Time),477776.60000002384,A,na,O,a,139,1,1116.0,476660.60000002384,7200,WL,C,13.0
3,31.121999979019165,learn,28878.000020980835,Thu Aug 14 2025 15:03:44 GMT-0500 (Central Daylight Time),477926.10000002384,A,nai,O,i,136,1,1265.5,476660.60000002384,7200,WL,C,13.0
3,31.27300000190735,learn,28726.99999809265,Thu Aug 14 2025 15:03:44 GMT-0500 (Central Daylight Time),478076.6999999881,A,nail,O,l,140,1,1416.0999999642372,476660.60000002384,7200,WL,C,13.0
3,31.689000129699707,learn,28310.999870300293,Thu Aug 14 2025 15:03:44 GMT-0500 (Central Daylight Time),478492.89999997616,A,nailenter,O,enter,404,1,1832.2999999523163,476660.60000002384,7200,WL,C,13.0
3,44.53399991989136,learn,15466.000080108643,Thu Aug 14 2025 15:03:44 GMT-0500 (Central Daylight Time),491338.3000000119,A,d,O,d,12830,1,12845.199999988079,478493.10000002384,7200,WL,C,14.0
3,44.71799993515015,learn,15282.000064849854,Thu Aug 14 2025 15:03:44 GMT-0500 (Central Daylight Time),491522.0,A,do,O,o,167,1,13028.899999976158,478493.10000002384,7200,WL,C,14.0
3,44.901000022888184,learn,15098.999977111816,Thu Aug 14 2025 15:03:44 GMT-0500 (Central Daylight Time),491705.10000002384,A,doc,O,c,163,1,13212.0,478493.10000002384,7200,WL,C,14.0
3,45.21900010108948,learn,14780.999898910522,Thu Aug 14 2025 15:03:44 GMT-0500 (Central Daylight Time),492023.0,A,doct,O,t,297,1,13529.899999976158,478493.10000002384,7200,WL,C,14.0
3,45.33500003814697,learn,14664.999961853027,Thu Aug 14 2025 15:03:44 GMT-0500 (Central Daylight Time),492138.6999999881,A,docto,O,o,106,1,13645.599999964237,478493.10000002384,7200,WL,C,14.0
3,45.568000078201294,learn,14431.999921798706,Thu Aug 14 2025 15:03:44 GMT-0500 (Central Daylight Time),492372.10000002384,A,doctor,O,r,214,1,13879.0,478493.10000002384,7200,WL,C,14.0
3,45.71799993515015,learn,14282.000064849854,Thu Aug 14 2025 15:03:44 GMT-0500 (Central Daylight Time),492522.1999999881,A,doctorenter,O,enter,143,1,14029.099999964237,478493.10000002384,7200,WL,C,14.0
3,52.19799995422363,learn,7802.000045776367,Thu Aug 14 2025 15:03:44 GMT-0500 (Central Daylight Time),499001.8000000119,A,enter,O,enter,6462,1,6479.300000011921,492522.5,7200,WL,C,15.0
4,1.2330000400543213,learn,58766.99995994568,Thu Aug 14 2025 15:03:44 GMT-0500 (Central Daylight Time),566831.6000000238,A,b,O,b,1218,1,1233.0,565598.6000000238,7200,WL,C,1.0
4,1.6480000019073486,learn,58351.99999809265,Thu Aug 14 2025 15:03:44 GMT-0500 (Central Daylight Time),567247.1999999881,A,bo,O,o,401,1,1648.5999999642372,565598.6000000238,7200,WL,C,1.0
4,1.9160001277923584,learn,58083.99987220764,Thu Aug 14 2025 15:03:44 GMT-0500 (Central Daylight Time),567514.6000000238,A,bod,O,d,250,1,1916.0,565598.6000000238,7200,WL,C,1.0
4,2.315000057220459,learn,57684.99994277954,Thu Aug 14 2025 15:03:44 GMT-0500 (Central Daylight Time),567914.0,A,body,O,y,382,1,2315.399999976158,565598.6000000238,7200,WL,C,1.0
4,2.5490000247955322,learn,57450.99997520447,Thu Aug 14 2025 15:03:44 GMT-0500 (Central Daylight Time),568147.5,A,bodyenter,O,enter,221,1,2548.899999976158,565598.6000000238,7200,WL,C,1.0
4,3.0830001831054688,learn,56916.99981689453,Thu Aug 14 2025 15:03:44 GMT-0500 (Central Daylight Time),568681.6000000238,A,s,O,s,528,1,533.8000000119209,568147.8000000119,7200,WL,C,2.0
4,3.2330000400543213,learn,56766.99995994568,Thu Aug 14 2025 15:03:44 GMT-0500 (Central Daylight Time),568831.3000000119,A,sh,O,h,126,1,683.5,568147.8000000119,7200,WL,C,2.0
4,3.4660000801086426,learn,56533.99991989136,Thu Aug 14 2025 15:03:44 GMT-0500 (Central Daylight Time),569064.6999999881,A,sho,O,o,217,1,916.8999999761581,568147.8000000119,7200,WL,C,2.0
4,3.7160000801086426,learn,56283.99991989136,Thu Aug 14 2025 15:03:44 GMT-0500 (Central Daylight Time),569314.1999999881,A,shor,O,r,228,1,1166.3999999761581,568147.8000000119,7200,WL,C,2.0
4,3.7990000247955322,learn,56200.99997520447,Thu Aug 14 2025 15:03:44 GMT-0500 (Central Daylight Time),569397.6999999881,A,shore,O,e,62,1,1249.8999999761581,568147.8000000119,7200,WL,C,2.0
4,3.9639999866485596,learn,56036.00001335144,Thu Aug 14 2025 15:03:44 GMT-0500 (Central Daylight Time),569563.0,A,shoreenter,O,enter,155,1,1415.199999988079,568147.8000000119,7200,WL,C,2.0
4,4.281000137329102,learn,55718.9998626709,Thu Aug 14 2025 15:03:44 GMT-0500 (Central Daylight Time),569880.1999999881,A,c,O,c,303,1,317.0,569563.1999999881,7200,WL,C,3.0
4,4.398000001907349,learn,55601.99999809265,Thu Aug 14 2025 15:03:44 GMT-0500 (Central Daylight Time),569996.6000000238,A,ca,O,a,95,1,433.4000000357628,569563.1999999881,7200,WL,C,3.0
4,4.732000112533569,learn,55267.99988746643,Thu Aug 14 2025 15:03:44 GMT-0500 (Central Daylight Time),570330.6000000238,A,cat,O,t,326,1,767.4000000357628,569563.1999999881,7200,WL,C,3.0
4,4.88100004196167,learn,55118.99995803833,Thu Aug 14 2025 15:03:44 GMT-0500 (Central Daylight Time),570480.1000000238,A,catt,O,t,127,1,916.9000000357628,569563.1999999881,7200,WL,C,3.0
4,5.0320000648498535,learn,54967.99993515015,Thu Aug 14 2025 15:03:44 GMT-0500 (Central Daylight Time),570630.3000000119,A,cattl,O,l,136,1,1067.1000000238419,569563.1999999881,7200,WL,C,3.0
4,5.14900016784668,learn,54850.99983215332,Thu Aug 14 2025 15:03:44 GMT-0500 (Central Daylight Time),570747.3999999762,A,cattle,O,e,107,1,1184.199999988079,569563.1999999881,7200,WL,C,3.0
4,5.3470001220703125,learn,54652.99987792969,Thu Aug 14 2025 15:03:44 GMT-0500 (Central Daylight Time),570945.8000000119,A,cattleenter,O,enter,190,1,1382.6000000238419,569563.1999999881,7200,WL,C,3.0
4,5.582000017166138,learn,54417.99998283386,Thu Aug 14 2025 15:03:44 GMT-0500 (Central Daylight Time),571180.3000000119,A,c,O,c,217,1,234.10000002384186,570946.1999999881,7200,WL,C,4.0
4,5.747000217437744,learn,54252.999782562256,Thu Aug 14 2025 15:03:44 GMT-0500 (Central Daylight Time),571345.6000000238,A,co,O,o,157,1,399.4000000357628,570946.1999999881,7200,WL,C,4.0
4,5.948000192642212,learn,54051.99980735779,Thu Aug 14 2025 15:03:44 GMT-0500 (Central Daylight Time),571546.3999999762,A,cor,O,r,185,1,600.1999999880791,570946.1999999881,7200,WL,C,4.0
4,6.148000001907349,learn,53851.99999809265,Thu Aug 14 2025 15:03:44 GMT-0500 (Central Daylight Time),571746.6999999881,A,corn,O,n,180,1,800.5,570946.1999999881,7200,WL,C,4.0
4,6.498000144958496,learn,53501.999855041504,Thu Aug 14 2025 15:03:44 GMT-0500 (Central Daylight Time),572097.0,A,cornenter,O,enter,328,1,1150.800000011921,570946.1999999881,7200,WL,C,4.0
4,7.180999994277954,learn,52819.000005722046,Thu Aug 14 2025 15:03:44 GMT-0500 (Central Daylight Time),572779.5,A,c,O,c,665,1,682.3000000119209,572097.1999999881,7200,WL,C,5.0
4,7.315000057220459,learn,52684.99994277954,Thu Aug 14 2025 15:03:44 GMT-0500 (Central Daylight Time),572913.3000000119,A,ca,O,a,112,1,816.1000000238419,572097.1999999881,7200,WL,C,5.0
4,7.531000137329102,learn,52468.9998626709,Thu Aug 14 2025 15:03:44 GMT-0500 (Central Daylight Time),573129.3999999762,A,can,O,n,194,1,1032.199999988079,572097.1999999881,7200,WL,C,5.0
4,8.547000169754028,learn,51452.99983024597,Thu Aug 14 2025 15:03:44 GMT-0500 (Central Daylight Time),574145.8999999762,A,ca,O,backspace,1001,1,2048.699999988079,572097.1999999881,7200,WL,C,5.0
4,8.930999994277954,learn,51069.000005722046,Thu Aug 14 2025 15:03:44 GMT-0500 (Central Daylight Time),574529.6000000238,A,cam,O,m,377,1,2432.400000035763,572097.1999999881,7200,WL,C,5.0
4,9.196000099182129,learn,50803.99990081787,Thu Aug 14 2025 15:03:44 GMT-0500 (Central Daylight Time),574794.6000000238,A,camp,O,p,255,1,2697.400000035763,572097.1999999881,7200,WL,C,5.0
4,9.496000051498413,learn,50503.99994850159,Thu Aug 14 2025 15:03:44 GMT-0500 (Central Daylight Time),575095.1000000238,A,campenter,O,enter,278,1,2997.900000035763,572097.1999999881,7200,WL,C,5.0
4,9.94700002670288,learn,50052.99997329712,Thu Aug 14 2025 15:03:44 GMT-0500 (Central Daylight Time),575545.3999999762,A,f,O,f,436,1,450.0999999642372,575095.3000000119,7200,WL,C,6.0
4,10.13100004196167,learn,49868.99995803833,Thu Aug 14 2025 15:03:44 GMT-0500 (Central Daylight Time),575730.1000000238,A,fl,O,l,168,1,634.8000000119209,575095.3000000119,7200,WL,C,6.0
4,10.314000129699707,learn,49685.99987030029,Thu Aug 14 2025 15:03:44 GMT-0500 (Central Daylight Time),575912.3000000119,A,fla,O,a,162,1,817.0,575095.3000000119,7200,WL,C,6.0
4,10.630000114440918,learn,49369.99988555908,Thu Aug 14 2025 15:03:44 GMT-0500 (Central Daylight Time),576229.0,A,flag,O,g,304,1,1133.699999988079,575095.3000000119,7200,WL,C,6.0
4,10.795000076293945,learn,49204.999923706055,Thu Aug 14 2025 15:03:44 GMT-0500 (Central Daylight Time),576393.6000000238,A,flagenter,O,enter,148,1,1298.300000011921,575095.3000000119,7200,WL,C,6.0
4,13.479000091552734,learn,46520.999908447266,Thu Aug 14 2025 15:03:44 GMT-0500 (Central Daylight Time),579077.8000000119,A,q,O,q,2674,1,2683.900000035763,576393.8999999762,7200,WL,C,7.0
4,13.879000186920166,learn,46120.999813079834,Thu Aug 14 2025 15:03:44 GMT-0500 (Central Daylight Time),579477.1999999881,A,qu,O,u,379,1,3083.300000011921,576393.8999999762,7200,WL,C,7.0
4,14.145000219345093,learn,45854.99978065491,Thu Aug 14 2025 15:03:44 GMT-0500 (Central Daylight Time),579744.0,A,que,O,e,252,1,3350.100000023842,576393.8999999762,7200,WL,C,7.0
4,14.295000076293945,learn,45704.999923706055,Thu Aug 14 2025 15:03:44 GMT-0500 (Central Daylight Time),579893.1000000238,A,quee,O,e,137,1,3499.2000000476837,576393.8999999762,7200,WL,C,7.0
4,14.528000116348267,learn,45471.99988365173,Thu Aug 14 2025 15:03:44 GMT-0500 (Central Daylight Time),580126.5,A,queen,O,n,219,1,3732.600000023842,576393.8999999762,7200,WL,C,7.0
4,14.878000020980835,learn,45121.999979019165,Thu Aug 14 2025 15:03:44 GMT-0500 (Central Daylight Time),580476.8999999762,A,queenenter,O,enter,338,1,4083.0,576393.8999999762,7200,WL,C,7.0
4,17.64400005340576,learn,42355.99994659424,Thu Aug 14 2025 15:03:44 GMT-0500 (Central Daylight Time),583242.3999999762,A,w,O,w,2758,1,2765.2999999523163,580477.1000000238,7200,WL,C,8.0
4,17.811000108718872,learn,42188.99989128113,Thu Aug 14 2025 15:03:44 GMT-0500 (Central Daylight Time),583409.3000000119,A,wh,O,h,154,1,2932.199999988079,580477.1000000238,7200,WL,C,8.0
4,17.99400019645691,learn,42005.99980354309,Thu Aug 14 2025 15:03:44 GMT-0500 (Central Daylight Time),583593.0,A,whe,O,e,162,1,3115.899999976158,580477.1000000238,7200,WL,C,8.0
4,18.212000131607056,learn,41787.999868392944,Thu Aug 14 2025 15:03:44 GMT-0500 (Central Daylight Time),583810.3000000119,A,whea,O,a,195,1,3333.199999988079,580477.1000000238,7200,WL,C,8.0
4,18.378000020980835,learn,41621.999979019165,Thu Aug 14 2025 15:03:44 GMT-0500 (Central Daylight Time),583977.0,A,wheat,O,t,149,1,3499.899999976158,580477.1000000238,7200,WL,C,8.0
4,18.56000018119812,learn,41439.99981880188,Thu Aug 14 2025 15:03:44 GMT-0500 (Central Daylight Time),584158.6000000238,A,wheatenter,O,enter,168,1,3681.5,580477.1000000238,7200,WL,C,8.0
4,18.859000205993652,learn,41140.99979400635,Thu Aug 14 2025 15:03:44 GMT-0500 (Central Daylight Time),584458.0,A,t,O,t,284,1,299.10000002384186,584158.8999999762,7200,WL,C,9.0
4,19.06000018119812,learn,40939.99981880188,Thu Aug 14 2025 15:03:44 GMT-0500 (Central Daylight Time),584658.8999999762,A,to,O,o,189,1,500.0,584158.8999999762,7200,WL,C,9.0
4,19.22699999809265,learn,40773.00000190735,Thu Aug 14 2025 15:03:44 GMT-0500 (Central Daylight Time),584825.5,A,tow,O,w,151,1,666.6000000238419,584158.8999999762,7200,WL,C,9.0
4,19.3270001411438,learn,40672.9998588562,Thu Aug 14 2025 15:03:44 GMT-0500 (Central Daylight Time),584925.1999999881,A,towe,O,e,86,1,766.3000000119209,584158.8999999762,7200,WL,C,9.0
4,19.5770001411438,learn,40422.9998588562,Thu Aug 14 2025 15:03:44 GMT-0500 (Central Daylight Time),585176.1999999881,A,tower,O,r,236,1,1017.3000000119209,584158.8999999762,7200,WL,C,9.0
4,19.759999990463257,learn,40240.00000953674,Thu Aug 14 2025 15:03:44 GMT-0500 (Central Daylight Time),585358.3999999762,A,towerenter,O,enter,169,1,1199.5,584158.8999999762,7200,WL,C,9.0
4,20.9280002117157,learn,39071.9997882843,Thu Aug 14 2025 15:03:44 GMT-0500 (Central Daylight Time),586526.1999999881,A,h,O,h,1149,1,1167.5,585358.6999999881,7200,WL,C,10.0
4,21.075000047683716,learn,38924.999952316284,Thu Aug 14 2025 15:03:44 GMT-0500 (Central Daylight Time),586673.5,A,ho,O,o,139,1,1314.800000011921,585358.6999999881,7200,WL,C,10.0
4,21.29200005531311,learn,38707.99994468689,Thu Aug 14 2025 15:03:44 GMT-0500 (Central Daylight Time),586891.1000000238,A,hom,O,m,199,1,1532.4000000357628,585358.6999999881,7200,WL,C,10.0
4,21.493000030517578,learn,38506.99996948242,Thu Aug 14 2025 15:03:44 GMT-0500 (Central Daylight Time),587091.5,A,home,O,e,180,1,1732.800000011921,585358.6999999881,7200,WL,C,10.0
4,21.62600016593933,learn,38373.99983406067,Thu Aug 14 2025 15:03:44 GMT-0500 (Central Daylight Time),587224.8000000119,A,homeenter,O,enter,126,1,1866.1000000238419,585358.6999999881,7200,WL,C,10.0
4,22.042999982833862,learn,37957.00001716614,Thu Aug 14 2025 15:03:44 GMT-0500 (Central Daylight Time),587641.1999999881,A,b,O,b,401,1,416.0999999642372,587225.1000000238,7200,WL,C,11.0
4,22.24400019645691,learn,37755.99980354309,Thu Aug 14 2025 15:03:44 GMT-0500 (Central Daylight Time),587842.1999999881,A,bo,O,o,180,1,617.0999999642372,587225.1000000238,7200,WL,C,11.0
4,23.075000047683716,learn,36924.999952316284,Thu Aug 14 2025 15:03:44 GMT-0500 (Central Daylight Time),588673.6999999881,A,boy,O,y,822,1,1448.5999999642372,587225.1000000238,7200,WL,C,11.0
4,23.457000017166138,learn,36542.99998283386,Thu Aug 14 2025 15:03:44 GMT-0500 (Central Daylight Time),589055.8999999762,A,boyenter,O,enter,369,1,1830.7999999523163,587225.1000000238,7200,WL,C,11.0
4,57.46500015258789,learn,2534.9998474121094,Thu Aug 14 2025 15:03:44 GMT-0500 (Central Daylight Time),623064.6000000238,A,enter,O,enter,33997,1,34008.60000002384,589056.0,7200,WL,C,12.0
4,58.61400008201599,learn,1385.9999179840088,Thu Aug 14 2025 15:03:44 GMT-0500 (Central Daylight Time),624212.8999999762,A,enter,O,enter,1129,1,1147.8999999761581,623065.0,7200,WL,C,13.0
4,58.84700012207031,learn,1152.9998779296875,Thu Aug 14 2025 15:03:44 GMT-0500 (Central Daylight Time),624446.0,A,enter,O,enter,213,1,232.80000001192093,624213.1999999881,7200,WL,C,14.0
4,59.265000104904175,learn,734.9998950958252,Thu Aug 14 2025 15:03:44 GMT-0500 (Central Daylight Time),624864.0,A,enter,O,enter,397,1,417.69999998807907,624446.3000000119,7200,WL,C,15.0
5,0.9340000152587891,learn,60000.0,Thu Aug 14 2025 15:03:44 GMT-0500 (Central Daylight Time),692275.5,A,s,O,s,915,1,933.8000000119209,691341.6999999881,7200,WL,C,1.0
5,1.1669998168945312,learn,60000.0,Thu Aug 14 2025 15:03:44 GMT-0500 (Central Daylight Time),692507.8999999762,A,sh,O,h,218,1,1166.199999988079,691341.6999999881,7200,WL,C,1.0
5,1.5999999046325684,learn,60000.0,Thu Aug 14 2025 15:03:44 GMT-0500 (Central Daylight Time),692940.6999999881,A,sho,O,o,414,1,1599.0,691341.6999999881,7200,WL,C,1.0
5,1.8339998722076416,learn,60000.0,Thu Aug 14 2025 15:03:44 GMT-0500 (Central Daylight Time),693175.5,A,shor,O,r,223,1,1833.800000011921,691341.6999999881,7200,WL,C,1.0
5,1.9169998168945312,learn,60000.0,Thu Aug 14 2025 15:03:44 GMT-0500 (Central Daylight Time),693258.0,A,shore,O,e,74,1,1916.300000011921,691341.6999999881,7200,WL,C,1.0
5,2.2839999198913574,learn,60000.0,Thu Aug 14 2025 15:03:44 GMT-0500 (Central Daylight Time),693625.3000000119,A,shoreenter,O,enter,346,1,2283.600000023842,691341.6999999881,7200,WL,C,1.0
5,2.8339998722076416,learn,60000.0,Thu Aug 14 2025 15:03:44 GMT-0500 (Central Daylight Time),694174.6999999881,A,b,O,b,530,1,549.0999999642372,693625.6000000238,7200,WL,C,2.0
5,3.182999849319458,learn,60000.0,Thu Aug 14 2025 15:03:44 GMT-0500 (Central Daylight Time),694524.1000000238,A,bo,O,o,332,1,898.5,693625.6000000238,7200,WL,C,2.0
5,3.616999864578247,learn,60000.0,Thu Aug 14 2025 15:03:44 GMT-0500 (Central Daylight Time),694957.8000000119,A,bod,O,d,414,1,1332.199999988079,693625.6000000238,7200,WL,C,2.0
5,3.865999937057495,learn,60000.0,Thu Aug 14 2025 15:03:44 GMT-0500 (Central Daylight Time),695207.3000000119,A,body,O,y,227,1,1581.699999988079,693625.6000000238,7200,WL,C,2.0
5,4.2159998416900635,learn,60000.0,Thu Aug 14 2025 15:03:44 GMT-0500 (Central Daylight Time),695556.8000000119,A,bodyenter,O,enter,330,1,1931.199999988079,693625.6000000238,7200,WL,C,2.0
5,4.549999952316284,learn,60000.0,Thu Aug 14 2025 15:03:44 GMT-0500 (Central Daylight Time),695891.1000000238,A,c,O,c,318,1,334.0,695557.1000000238,7200,WL,C,3.0
5,4.648999929428101,learn,60000.0,Thu Aug 14 2025 15:03:44 GMT-0500 (Central Daylight Time),695990.3999999762,A,ca,O,a,86,1,433.2999999523163,695557.1000000238,7200,WL,C,3.0
5,4.948999881744385,learn,60000.0,Thu Aug 14 2025 15:03:44 GMT-0500 (Central Daylight Time),696289.8000000119,A,cat,O,t,284,1,732.6999999880791,695557.1000000238,7200,WL,C,3.0
5,5.082000017166138,learn,60000.0,Thu Aug 14 2025 15:03:44 GMT-0500 (Central Daylight Time),696422.8999999762,A,catt,O,t,119,1,865.7999999523163,695557.1000000238,7200,WL,C,3.0
5,5.281999826431274,learn,60000.0,Thu Aug 14 2025 15:03:44 GMT-0500 (Central Daylight Time),696623.1000000238,A,cattl,O,l,176,1,1066.0,695557.1000000238,7200,WL,C,3.0
5,5.431999921798706,learn,60000.0,Thu Aug 14 2025 15:03:44 GMT-0500 (Central Daylight Time),696773.0,A,cattle,O,e,130,1,1215.8999999761581,695557.1000000238,7200,WL,C,3.0
5,5.7179999351501465,learn,60000.0,Thu Aug 14 2025 15:03:44 GMT-0500 (Central Daylight Time),697058.6000000238,A,cattleenter,O,enter,267,1,1501.5,695557.1000000238,7200,WL,C,3.0
5,6.0329999923706055,learn,60000.0,Thu Aug 14 2025 15:03:44 GMT-0500 (Central Daylight Time),697373.6999999881,A,c,O,c,297,1,315.0,697058.6999999881,7200,WL,C,4.0
5,6.33299994468689,learn,60000.0,Thu Aug 14 2025 15:03:44 GMT-0500 (Central Daylight Time),697673.6999999881,A,co,O,o,283,1,615.0,697058.6999999881,7200,WL,C,4.0
5,6.516999959945679,learn,60000.0,Thu Aug 14 2025 15:03:44 GMT-0500 (Central Daylight Time),697858.6000000238,A,cor,O,r,179,1,799.9000000357628,697058.6999999881,7200,WL,C,4.0
5,6.7159998416900635,learn,60000.0,Thu Aug 14 2025 15:03:44 GMT-0500 (Central Daylight Time),698057.3000000119,A,corn,O,n,178,1,998.6000000238419,697058.6999999881,7200,WL,C,4.0
5,7.014999866485596,learn,60000.0,Thu Aug 14 2025 15:03:44 GMT-0500 (Central Daylight Time),698355.8999999762,A,cornenter,O,enter,289,1,1297.199999988079,697058.6999999881,7200,WL,C,4.0
5,7.431999921798706,learn,60000.0,Thu Aug 14 2025 15:03:44 GMT-0500 (Central Daylight Time),698772.6999999881,A,c,O,c,406,1,416.5,698356.1999999881,7200,WL,C,5.0
5,7.613999843597412,learn,60000.0,Thu Aug 14 2025 15:03:44 GMT-0500 (Central Daylight Time),698954.6000000238,A,ca,O,a,163,1,598.4000000357628,698356.1999999881,7200,WL,C,5.0
5,8.131999969482422,learn,60000.0,Thu Aug 14 2025 15:03:44 GMT-0500 (Central Daylight Time),699473.5,A,cam,O,m,497,1,1117.300000011921,698356.1999999881,7200,WL,C,5.0
5,8.447999954223633,learn,60000.0,Thu Aug 14 2025 15:03:44 GMT-0500 (Central Daylight Time),699789.1000000238,A,camp,O,p,305,1,1432.9000000357628,698356.1999999881,7200,WL,C,5.0
5,8.712999820709229,learn,60000.0,Thu Aug 14 2025 15:03:44 GMT-0500 (Central Daylight Time),700054.3000000119,A,campenter,O,enter,245,1,1698.1000000238419,698356.1999999881,7200,WL,C,5.0
5,9.146999835968018,learn,60000.0,Thu Aug 14 2025 15:03:44 GMT-0500 (Central Daylight Time),700488.3999999762,A,d,O,d,420,1,433.89999997615814,700054.5,7200,WL,C,6.0
5,9.297999858856201,learn,60000.0,Thu Aug 14 2025 15:03:44 GMT-0500 (Central Daylight Time),700639.3000000119,A,do,O,o,137,1,584.8000000119209,700054.5,7200,WL,C,6.0
5,9.480999946594238,learn,60000.0,Thu Aug 14 2025 15:03:44 GMT-0500 (Central Daylight Time),700822.1999999881,A,doc,O,c,162,1,767.6999999880791,700054.5,7200,WL,C,6.0
5,9.747999906539917,learn,60000.0,Thu Aug 14 2025 15:03:44 GMT-0500 (Central Daylight Time),701088.8999999762,A,doct,O,t,251,1,1034.3999999761581,700054.5,7200,WL,C,6.0
5,9.863999843597412,learn,60000.0,Thu Aug 14 2025 15:03:44 GMT-0500 (Central Daylight Time),701204.8999999762,A,docto,O,o,104,1,1150.3999999761581,700054.5,7200,WL,C,6.0
5,10.013999938964844,learn,60000.0,Thu Aug 14 2025 15:03:44 GMT-0500 (Central Daylight Time),701355.6999999881,A,doctor,O,r,132,1,1301.199999988079,700054.5,7200,WL,C,6.0
5,10.19599986076355,learn,60000.0,Thu Aug 14 2025 15:03:44 GMT-0500 (Central Daylight Time),701537.3000000119,A,doctorenter,O,enter,174,1,1482.800000011921,700054.5,7200,WL,C,6.0
5,11.13100004196167,learn,60000.0,Thu Aug 14 2025 15:03:44 GMT-0500 (Central Daylight Time),702471.6000000238,A,q,O,q,922,1,934.1000000238419,701537.5,7200,WL,C,7.0
5,11.447999954223633,learn,60000.0,Thu Aug 14 2025 15:03:44 GMT-0500 (Central Daylight Time),702789.3000000119,A,qu,O,u,306,1,1251.800000011921,701537.5,7200,WL,C,7.0
5,11.69700002670288,learn,60000.0,Thu Aug 14 2025 15:03:44 GMT-0500 (Central Daylight Time),703038.3000000119,A,que,O,e,238,1,1500.800000011921,701537.5,7200,WL,C,7.0
5,11.846999883651733,learn,60000.0,Thu Aug 14 2025 15:03:44 GMT-0500 (Central Daylight Time),703187.8999999762,A,quee,O,e,139,1,1650.3999999761581,701537.5,7200,WL,C,7.0
5,11.94700002670288,learn,60000.0,Thu Aug 14 2025 15:03:44 GMT-0500 (Central Daylight Time),703288.0,A,queen,O,n,85,1,1750.5,701537.5,7200,WL,C,7.0
5,12.263000011444092,learn,60000.0,Thu Aug 14 2025 15:03:44 GMT-0500 (Central Daylight Time),703603.8999999762,A,queenenter,O,enter,296,1,2066.399999976158,701537.5,7200,WL,C,7.0
5,12.895999908447266,learn,60000.0,Thu Aug 14 2025 15:03:44 GMT-0500 (Central Daylight Time),704236.6999999881,A,w,O,w,614,1,632.5,703604.1999999881,7200,WL,C,8.0
5,13.079999923706055,learn,60000.0,Thu Aug 14 2025 15:03:44 GMT-0500 (Central Daylight Time),704420.8999999762,A,wh,O,h,168,1,816.6999999880791,703604.1999999881,7200,WL,C,8.0
5,13.296000003814697,learn,60000.0,Thu Aug 14 2025 15:03:44 GMT-0500 (Central Daylight Time),704637.1000000238,A,whe,O,e,205,1,1032.9000000357628,703604.1999999881,7200,WL,C,8.0
5,13.530999898910522,learn,60000.0,Thu Aug 14 2025 15:03:44 GMT-0500 (Central Daylight Time),704871.6000000238,A,whea,O,a,227,1,1267.4000000357628,703604.1999999881,7200,WL,C,8.0
5,13.661999940872192,learn,60000.0,Thu Aug 14 2025 15:03:44 GMT-0500 (Central Daylight Time),705003.3000000119,A,wheat,O,t,124,1,1399.1000000238419,703604.1999999881,7200,WL,C,8.0
5,13.861999988555908,learn,60000.0,Thu Aug 14 2025 15:03:44 GMT-0500 (Central Daylight Time),705202.6000000238,A,wheatenter,O,enter,182,1,1598.4000000357628,703604.1999999881,7200,WL,C,8.0
5,14.495999813079834,learn,60000.0,Thu Aug 14 2025 15:03:44 GMT-0500 (Central Daylight Time),705836.8000000119,A,t,O,t,616,1,633.9000000357628,705202.8999999762,7200,WL,C,9.0
5,14.679999828338623,learn,60000.0,Thu Aug 14 2025 15:03:44 GMT-0500 (Central Daylight Time),706020.6000000238,A,to,O,o,163,1,817.7000000476837,705202.8999999762,7200,WL,C,9.0
5,15.230000019073486,learn,60000.0,Thu Aug 14 2025 15:03:44 GMT-0500 (Central Daylight Time),706571.3999999762,A,tow,O,w,543,1,1368.5,705202.8999999762,7200,WL,C,9.0
5,15.395999908447266,learn,60000.0,Thu Aug 14 2025 15:03:44 GMT-0500 (Central Daylight Time),706737.5,A,towe,O,e,158,1,1534.6000000238419,705202.8999999762,7200,WL,C,9.0
5,15.596999883651733,learn,60000.0,Thu Aug 14 2025 15:03:44 GMT-0500 (Central Daylight Time),706938.1000000238,A,tower,O,r,186,1,1735.2000000476837,705202.8999999762,7200,WL,C,9.0
5,15.827999830245972,learn,60000.0,Thu Aug 14 2025 15:03:44 GMT-0500 (Central Daylight Time),707169.3000000119,A,towerenter,O,enter,216,1,1966.4000000357628,705202.8999999762,7200,WL,C,9.0
5,16.162999868392944,learn,60000.0,Thu Aug 14 2025 15:03:44 GMT-0500 (Central Daylight Time),707503.8999999762,A,s,O,s,314,1,334.39999997615814,707169.5,7200,WL,C,10.0
5,16.478999853134155,learn,60000.0,Thu Aug 14 2025 15:03:44 GMT-0500 (Central Daylight Time),707820.5,A,su,O,u,296,1,651.0,707169.5,7200,WL,C,10.0
5,16.710999965667725,learn,60000.0,Thu Aug 14 2025 15:03:44 GMT-0500 (Central Daylight Time),708052.1999999881,A,sug,O,g,212,1,882.6999999880791,707169.5,7200,WL,C,10.0
5,16.860999822616577,learn,60000.0,Thu Aug 14 2025 15:03:44 GMT-0500 (Central Daylight Time),708202.6000000238,A,suga,O,a,131,1,1033.1000000238419,707169.5,7200,WL,C,10.0
5,17.01099991798401,learn,60000.0,Thu Aug 14 2025 15:03:44 GMT-0500 (Central Daylight Time),708352.3000000119,A,sugar,O,r,136,1,1182.800000011921,707169.5,7200,WL,C,10.0
5,17.526999950408936,learn,60000.0,Thu Aug 14 2025 15:03:44 GMT-0500 (Central Daylight Time),708868.0,A,sugarenter,O,enter,495,1,1698.5,707169.5,7200,WL,C,10.0
5,18.543999910354614,learn,60000.0,Thu Aug 14 2025 15:03:44 GMT-0500 (Central Daylight Time),709885.6000000238,A,h,O,h,1005,1,1017.3000000119209,708868.3000000119,7200,WL,C,11.0
5,18.727999925613403,learn,60000.0,Thu Aug 14 2025 15:03:44 GMT-0500 (Central Daylight Time),710069.3999999762,A,ho,O,o,166,1,1201.0999999642372,708868.3000000119,7200,WL,C,11.0
5,18.878000020980835,learn,60000.0,Thu Aug 14 2025 15:03:44 GMT-0500 (Central Daylight Time),710219.3000000119,A,hom,O,m,139,1,1351.0,708868.3000000119,7200,WL,C,11.0
5,19.026999950408936,learn,60000.0,Thu Aug 14 2025 15:03:44 GMT-0500 (Central Daylight Time),710367.8999999762,A,home,O,e,134,1,1499.5999999642372,708868.3000000119,7200,WL,C,11.0
5,19.346999883651733,learn,60000.0,Thu Aug 14 2025 15:03:44 GMT-0500 (Central Daylight Time),710688.6000000238,A,homeenter,O,enter,300,1,1820.300000011921,708868.3000000119,7200,WL,C,11.0
5,20.194000005722046,learn,60000.0,Thu Aug 14 2025 15:03:44 GMT-0500 (Central Daylight Time),711535.3999999762,A,b,O,b,828,1,846.5999999642372,710688.8000000119,7200,WL,C,12.0
5,20.526000022888184,learn,60000.0,Thu Aug 14 2025 15:03:44 GMT-0500 (Central Daylight Time),711868.1000000238,A,bo,O,o,323,1,1179.300000011921,710688.8000000119,7200,WL,C,12.0
5,21.26099991798401,learn,60000.0,Thu Aug 14 2025 15:03:44 GMT-0500 (Central Daylight Time),712602.8999999762,A,boy,O,y,719,1,1914.0999999642372,710688.8000000119,7200,WL,C,12.0
5,21.508999824523926,learn,60000.0,Thu Aug 14 2025 15:03:44 GMT-0500 (Central Daylight Time),712850.6000000238,A,boyenter,O,enter,233,1,2161.800000011921,710688.8000000119,7200,WL,C,12.0
5,22.425999879837036,learn,60000.0,Thu Aug 14 2025 15:03:44 GMT-0500 (Central Daylight Time),713768.1000000238,A,d,O,d,904,1,917.3000000119209,712850.8000000119,7200,WL,C,13.0
5,22.542999982833862,learn,60000.0,Thu Aug 14 2025 15:03:44 GMT-0500 (Central Daylight Time),713884.6000000238,A,do,O,o,96,1,1033.800000011921,712850.8000000119,7200,WL,C,13.0
5,22.692999839782715,learn,60000.0,Thu Aug 14 2025 15:03:44 GMT-0500 (Central Daylight Time),714034.8000000119,A,doc,O,c,140,1,1184.0,712850.8000000119,7200,WL,C,13.0
5,22.993000030517578,learn,60000.0,Thu Aug 14 2025 15:03:44 GMT-0500 (Central Daylight Time),714334.3999999762,A,doct,O,t,279,1,1483.5999999642372,712850.8000000119,7200,WL,C,13.0
5,23.108999967575073,learn,60000.0,Thu Aug 14 2025 15:03:44 GMT-0500 (Central Daylight Time),714451.3000000119,A,docto,O,o,108,1,1600.5,712850.8000000119,7200,WL,C,13.0
5,23.241999864578247,learn,60000.0,Thu Aug 14 2025 15:03:44 GMT-0500 (Central Daylight Time),714584.1000000238,A,doctor,O,r,118,1,1733.300000011921,712850.8000000119,7200,WL,C,13.0
5,23.375999927520752,learn,60000.0,Thu Aug 14 2025 15:03:44 GMT-0500 (Central Daylight Time),714718.3000000119,A,doctorenter,O,enter,121,1,1867.5,712850.8000000119,7200,WL,C,13.0
5,27.83999991416931,learn,60000.0,Thu Aug 14 2025 15:03:44 GMT-0500 (Central Daylight Time),719181.3000000119,A,n,O,n,4443,1,4462.800000011921,714718.5,7200,WL,C,14.0
5,27.972999811172485,learn,60000.0,Thu Aug 14 2025 15:03:44 GMT-0500 (Central Daylight Time),719315.1000000238,A,na,O,a,117,1,4596.600000023842,714718.5,7200,WL,C,14.0
5,28.10800004005432,learn,60000.0,Thu Aug 14 2025 15:03:44 GMT-0500 (Central Daylight Time),719450.1000000238,A,nai,O,i,120,1,4731.600000023842,714718.5,7200,WL,C,14.0
5,28.29199981689453,learn,60000.0,Thu Aug 14 2025 15:03:44 GMT-0500 (Central Daylight Time),719633.8000000119,A,nail,O,l,178,1,4915.300000011921,714718.5,7200,WL,C,14.0
5,28.823999881744385,learn,60000.0,Thu Aug 14 2025 15:03:44 GMT-0500 (Central Daylight Time),720166.1000000238,A,nailenter,O,enter,519,1,5447.600000023842,714718.5,7200,WL,C,14.0
5,43.7039999961853,learn,60000.0,Thu Aug 14 2025 15:03:44 GMT-0500 (Central Daylight Time),735045.6999999881,A,c,O,c,14870,1,14879.300000011921,720166.3999999762,7200,WL,C,15.0
5,43.86899995803833,learn,60000.0,Thu Aug 14 2025 15:03:44 GMT-0500 (Central Daylight Time),735210.6999999881,A,ca,O,a,149,1,15044.300000011921,720166.3999999762,7200,WL,C,15.0
5,43.9689998626709,learn,60000.0,Thu Aug 14 2025 15:03:44 GMT-0500 (Central Daylight Time),735311.1000000238,A,cam,O,m,85,1,15144.700000047684,720166.3999999762,7200,WL,C,15.0
5,44.234999895095825,learn,60000.0,Thu Aug 14 2025 15:03:44 GMT-0500 (Central Daylight Time),735577.1000000238,A,camp,O,p,251,1,15410.700000047684,720166.3999999762,7200,WL,C,15.0
5,44.55199980735779,learn,60000.0,Thu Aug 14 2025 15:03:44 GMT-0500 (Central Daylight Time),735893.8000000119,A,campenter,O,enter,298,1,15727.400000035763,720166.3999999762,7200,WL,C,15.0
6,1.0839998722076416,distr,58916.00012779236,Thu Aug 14 2025 15:03:44 GMT-0500 (Central Daylight Time),821183.8000000119,B,s,O,s,1071,1,1083.6000000238419,820100.1999999881,7200,WL,C,1.0
6,1.366999864578247,distr,58633.00013542175,Thu Aug 14 2025 15:03:44 GMT-0500 (Central Daylight Time),821466.8999999762,B,sk,O,k,267,1,1366.699999988079,820100.1999999881,7200,WL,C,1.0
6,1.7170000076293945,distr,58282.999992370605,Thu Aug 14 2025 15:03:44 GMT-0500 (Central Daylight Time),821816.3000000119,B,sky,O,y,328,1,1716.1000000238419,820100.1999999881,7200,WL,C,1.0
6,1.9839999675750732,distr,58016.00003242493,Thu Aug 14 2025 15:03:44 GMT-0500 (Central Daylight Time),822083.8999999762,B,skyenter,O,enter,251,1,1983.699999988079,820100.1999999881,7200,WL,C,1.0
6,2.317999839782715,distr,57682.000160217285,Thu Aug 14 2025 15:03:44 GMT-0500 (Central Daylight Time),822417.6999999881,B,c,O,c,313,1,333.5999999642372,822084.1000000238,7200,WL,C,2.0
6,3.0829999446868896,distr,56917.00005531311,Thu Aug 14 2025 15:03:44 GMT-0500 (Central Daylight Time),823182.1000000238,B,,O,backspace,746,1,1098.0,822084.1000000238,7200,WL,C,2.0
6,3.3499999046325684,distr,56650.00009536743,Thu Aug 14 2025 15:03:44 GMT-0500 (Central Daylight Time),823449.3000000119,B,v,O,v,249,1,1365.199999988079,822084.1000000238,7200,WL,C,2.0
6,3.5169999599456787,distr,56483.00004005432,Thu Aug 14 2025 15:03:44 GMT-0500 (Central Daylight Time),823616.1000000238,B,va,O,a,146,1,1532.0,822084.1000000238,7200,WL,C,2.0
6,4.098999977111816,distr,55901.00002288818,Thu Aug 14 2025 15:03:44 GMT-0500 (Central Daylight Time),824198.8999999762,B,val,O,l,569,1,2114.7999999523163,822084.1000000238,7200,WL,C,2.0
6,4.266999959945679,distr,55733.00004005432,Thu Aug 14 2025 15:03:44 GMT-0500 (Central Daylight Time),824366.3999999762,B,vall,O,l,146,1,2282.2999999523163,822084.1000000238,7200,WL,C,2.0
6,4.483000040054321,distr,55516.99995994568,Thu Aug 14 2025 15:03:44 GMT-0500 (Central Daylight Time),824582.3000000119,B,valle,O,e,203,1,2498.199999988079,822084.1000000238,7200,WL,C,2.0
6,4.799000024795532,distr,55200.99997520447,Thu Aug 14 2025 15:03:44 GMT-0500 (Central Daylight Time),824898.6999999881,B,valley,O,y,308,1,2814.599999964237,822084.1000000238,7200,WL,C,2.0
6,4.980999946594238,distr,55019.00005340576,Thu Aug 14 2025 15:03:44 GMT-0500 (Central Daylight Time),825080.8999999762,B,valleyenter,O,enter,175,1,2996.7999999523163,822084.1000000238,7200,WL,C,2.0
6,5.66700005531311,distr,54332.99994468689,Thu Aug 14 2025 15:03:44 GMT-0500 (Central Daylight Time),825766.8999999762,B,m,O,m,674,1,685.7999999523163,825081.1000000238,7200,WL,C,3.0
6,5.851000070571899,distr,54148.9999294281,Thu Aug 14 2025 15:03:44 GMT-0500 (Central Daylight Time),825950.3999999762,B,mo,O,o,163,1,869.2999999523163,825081.1000000238,7200,WL,C,3.0
6,6.049000024795532,distr,53950.99997520447,Thu Aug 14 2025 15:03:44 GMT-0500 (Central Daylight Time),826148.8999999762,B,mot,O,t,180,1,1067.7999999523163,825081.1000000238,7200,WL,C,3.0
6,6.164999961853027,distr,53835.00003814697,Thu Aug 14 2025 15:03:44 GMT-0500 (Central Daylight Time),826264.5,B,moth,O,h,100,1,1183.3999999761581,825081.1000000238,7200,WL,C,3.0
6,6.297999858856201,distr,53702.0001411438,Thu Aug 14 2025 15:03:44 GMT-0500 (Central Daylight Time),826398.0,B,mothe,O,e,110,1,1316.8999999761581,825081.1000000238,7200,WL,C,3.0
6,6.381999969482422,distr,53618.00003051758,Thu Aug 14 2025 15:03:44 GMT-0500 (Central Daylight Time),826481.1999999881,B,mother,O,r,67,1,1400.0999999642372,825081.1000000238,7200,WL,C,3.0
6,6.58299994468689,distr,53417.00005531311,Thu Aug 14 2025 15:03:44 GMT-0500 (Central Daylight Time),826682.3999999762,B,motherenter,O,enter,179,1,1601.2999999523163,825081.1000000238,7200,WL,C,3.0
6,7.48199987411499,distr,52518.00012588501,Thu Aug 14 2025 15:03:44 GMT-0500 (Central Daylight Time),827581.6000000238,B,d,O,d,880,1,899.0,826682.6000000238,7200,WL,C,4.0
6,7.681999921798706,distr,52318.000078201294,Thu Aug 14 2025 15:03:44 GMT-0500 (Central Daylight Time),827781.5,B,do,O,o,180,1,1098.8999999761581,826682.6000000238,7200,WL,C,4.0
6,7.914999961853027,distr,52085.00003814697,Thu Aug 14 2025 15:03:44 GMT-0500 (Central Daylight Time),828014.8999999762,B,dol,O,l,220,1,1332.2999999523163,826682.6000000238,7200,WL,C,4.0
6,8.065000057220459,distr,51934.99994277954,Thu Aug 14 2025 15:03:44 GMT-0500 (Central Daylight Time),828164.6000000238,B,doll,O,l,140,1,1482.0,826682.6000000238,7200,WL,C,4.0
6,8.147000074386597,distr,51852.9999256134,Thu Aug 14 2025 15:03:44 GMT-0500 (Central Daylight Time),828247.0,B,dolla,O,a,68,1,1564.3999999761581,826682.6000000238,7200,WL,C,4.0
6,8.365999937057495,distr,51634.000062942505,Thu Aug 14 2025 15:03:44 GMT-0500 (Central Daylight Time),828465.3000000119,B,dollar,O,r,205,1,1782.699999988079,826682.6000000238,7200,WL,C,4.0
6,8.480999946594238,distr,51519.00005340576,Thu Aug 14 2025 15:03:44 GMT-0500 (Central Daylight Time),828581.0,B,dollarenter,O,enter,96,1,1898.3999999761581,826682.6000000238,7200,WL,C,4.0
6,27.858999967575073,distr,32141.000032424927,Thu Aug 14 2025 15:03:44 GMT-0500 (Central Daylight Time),847958.8000000119,B,enter,O,enter,19367,1,19377.600000023842,828581.1999999881,7200,WL,C,5.0
6,28.073999881744385,distr,31926.000118255615,Thu Aug 14 2025 15:03:44 GMT-0500 (Central Daylight Time),848174.3000000119,B,enter,O,enter,203,1,215.10000002384186,847959.1999999881,7200,WL,C,6.0
6,28.30999994277954,distr,31690.00005722046,Thu Aug 14 2025 15:03:44 GMT-0500 (Central Daylight Time),848410.0,B,enter,O,enter,215,1,235.30000001192093,848174.6999999881,7200,WL,C,7.0
6,28.58999991416931,distr,31410.00008583069,Thu Aug 14 2025 15:03:44 GMT-0500 (Central Daylight Time),848690.5,B,enter,O,enter,265,1,280.10000002384186,848410.3999999762,7200,WL,C,8.0
6,28.807999849319458,distr,31192.000150680542,Thu Aug 14 2025 15:03:44 GMT-0500 (Central Daylight Time),848908.3000000119,B,enter,O,enter,201,1,217.60000002384186,848690.6999999881,7200,WL,C,9.0
6,28.957000017166138,distr,31042.999982833862,Thu Aug 14 2025 15:03:44 GMT-0500 (Central Daylight Time),849056.8999999762,B,enter,O,enter,133,1,148.29999995231628,848908.6000000238,7200,WL,C,10.0
6,29.14199995994568,distr,30858.00004005432,Thu Aug 14 2025 15:03:44 GMT-0500 (Central Daylight Time),849241.8000000119,B,enter,O,enter,169,1,184.60000002384186,849057.1999999881,7200,WL,C,11.0
6,29.323999881744385,distr,30676.000118255615,Thu Aug 14 2025 15:03:44 GMT-0500 (Central Daylight Time),849424.6000000238,B,enter,O,enter,168,1,182.5,849242.1000000238,7200,WL,C,12.0
6,29.557999849319458,distr,30442.000150680542,Thu Aug 14 2025 15:03:44 GMT-0500 (Central Daylight Time),849657.6999999881,B,enter,O,enter,214,1,232.80000001192093,849424.8999999762,7200,WL,C,13.0
6,29.907000064849854,distr,30092.999935150146,Thu Aug 14 2025 15:03:44 GMT-0500 (Central Daylight Time),850007.6999999881,B,enter,O,enter,331,1,349.5999999642372,849658.1000000238,7200,WL,C,14.0
6,30.240000009536743,distr,29759.999990463257,Thu Aug 14 2025 15:03:44 GMT-0500 (Central Daylight Time),850340.0,B,enter,O,enter,315,1,332.0,850008.0,7200,WL,C,15.0
7,11.578999996185303,immed,48421.0000038147,Thu Aug 14 2025 15:03:44 GMT-0500 (Central Daylight Time),862970.1000000238,A,d,O,d,11562,1,11578.200000047684,851391.8999999762,7200,WL,C,1.0
7,11.763000011444092,immed,48236.99998855591,Thu Aug 14 2025 15:03:44 GMT-0500 (Central Daylight Time),863154.6999999881,A,do,O,o,178,1,11762.800000011921,851391.8999999762,7200,WL,C,1.0
7,11.92900013923645,immed,48070.99986076355,Thu Aug 14 2025 15:03:44 GMT-0500 (Central Daylight Time),863320.0,A,doc,O,c,152,1,11928.100000023842,851391.8999999762,7200,WL,C,1.0
7,12.196000099182129,immed,47803.99990081787,Thu Aug 14 2025 15:03:44 GMT-0500 (Central Daylight Time),863587.1000000238,A,doct,O,t,257,1,12195.200000047684,851391.8999999762,7200,WL,C,1.0
7,12.32800006866455,immed,47671.99993133545,Thu Aug 14 2025 15:03:44 GMT-0500 (Central Daylight Time),863719.3000000119,A,docto,O,o,111,1,12327.400000035763,851391.8999999762,7200,WL,C,1.0
7,13.213000059127808,immed,46786.99994087219,Thu Aug 14 2025 15:03:44 GMT-0500 (Central Daylight Time),864604.5,A,doctor,O,r,879,1,13212.600000023842,851391.8999999762,7200,WL,C,1.0
7,13.412000179290771,immed,46587.99982070923,Thu Aug 14 2025 15:03:44 GMT-0500 (Central Daylight Time),864802.6999999881,A,doctorenter,O,enter,183,1,13410.800000011921,851391.8999999762,7200,WL,C,1.0
7,16.811000108718872,immed,43188.99989128113,Thu Aug 14 2025 15:03:44 GMT-0500 (Central Daylight Time),868201.8000000119,A,w,O,w,3393,1,3398.800000011921,864803.0,7200,WL,C,2.0
7,16.97699999809265,immed,43023.00000190735,Thu Aug 14 2025 15:03:44 GMT-0500 (Central Daylight Time),868368.5,A,wh,O,h,148,1,3565.5,864803.0,7200,WL,C,2.0
7,17.16100001335144,immed,42838.99998664856,Thu Aug 14 2025 15:03:44 GMT-0500 (Central Daylight Time),868552.0,A,whe,O,e,169,1,3749.0,864803.0,7200,WL,C,2.0
7,17.39400005340576,immed,42605.99994659424,Thu Aug 14 2025 15:03:44 GMT-0500 (Central Daylight Time),868784.8000000119,A,whea,O,a,226,1,3981.800000011921,864803.0,7200,WL,C,2.0
7,17.526999950408936,immed,42473.000049591064,Thu Aug 14 2025 15:03:44 GMT-0500 (Central Daylight Time),868918.6000000238,A,wheat,O,t,114,1,4115.600000023842,864803.0,7200,WL,C,2.0
7,17.694000005722046,immed,42305.999994277954,Thu Aug 14 2025 15:03:44 GMT-0500 (Central Daylight Time),869084.6999999881,A,wheatenter,O,enter,147,1,4281.699999988079,864803.0,7200,WL,C,2.0
7,18.344000101089478,immed,41655.99989891052,Thu Aug 14 2025 15:03:44 GMT-0500 (Central Daylight Time),869735.5,A,q,O,q,639,1,650.5,869085.0,7200,WL,C,3.0
7,18.57800006866455,immed,41421.99993133545,Thu Aug 14 2025 15:03:44 GMT-0500 (Central Daylight Time),869968.8999999762,A,qu,O,u,220,1,883.8999999761581,869085.0,7200,WL,C,3.0
7,18.8270001411438,immed,41172.9998588562,Thu Aug 14 2025 15:03:44 GMT-0500 (Central Daylight Time),870218.1000000238,A,que,O,e,229,1,1133.1000000238419,869085.0,7200,WL,C,3.0
7,18.99399995803833,immed,41006.00004196167,Thu Aug 14 2025 15:03:44 GMT-0500 (Central Daylight Time),870385.8000000119,A,quee,O,e,146,1,1300.800000011921,869085.0,7200,WL,C,3.0
7,19.14400005340576,immed,40855.99994659424,Thu Aug 14 2025 15:03:44 GMT-0500 (Central Daylight Time),870534.8999999762,A,queen,O,n,138,1,1449.8999999761581,869085.0,7200,WL,C,3.0
7,19.475000143051147,immed,40524.99985694885,Thu Aug 14 2025 15:03:44 GMT-0500 (Central Daylight Time),870866.1000000238,A,queenenter,O,enter,315,1,1781.1000000238419,869085.0,7200,WL,C,3.0
7,21.37600016593933,immed,38623.99983406067,Thu Aug 14 2025 15:03:44 GMT-0500 (Central Daylight Time),872766.8999999762,A,t,O,t,1890,1,1900.5999999642372,870866.3000000119,7200,WL,C,4.0
7,21.526999950408936,immed,38473.000049591064,Thu Aug 14 2025 15:03:44 GMT-0500 (Central Daylight Time),872917.8000000119,A,to,O,o,139,1,2051.5,870866.3000000119,7200,WL,C,4.0
7,21.693000078201294,immed,38306.999921798706,Thu Aug 14 2025 15:03:44 GMT-0500 (Central Daylight Time),873083.8999999762,A,tow,O,w,148,1,2217.599999964237,870866.3000000119,7200,WL,C,4.0
7,21.858999967575073,immed,38141.00003242493,Thu Aug 14 2025 15:03:44 GMT-0500 (Central Daylight Time),873250.3000000119,A,towe,O,e,161,1,2384.0,870866.3000000119,7200,WL,C,4.0
7,22.52500009536743,immed,37474.99990463257,Thu Aug 14 2025 15:03:44 GMT-0500 (Central Daylight Time),873916.6999999881,A,towes,O,s,656,1,3050.399999976158,870866.3000000119,7200,WL,C,4.0
7,22.943000078201294,immed,37056.999921798706,Thu Aug 14 2025 15:03:44 GMT-0500 (Central Daylight Time),874334.1000000238,A,towe,O,backspace,399,1,3467.800000011921,870866.3000000119,7200,WL,C,4.0
7,23.342000007629395,immed,36657.999992370605,Thu Aug 14 2025 15:03:44 GMT-0500 (Central Daylight Time),874733.6999999881,A,tower,O,r,388,1,3867.399999976158,870866.3000000119,7200,WL,C,4.0
7,24.026000022888184,immed,35973.99997711182,Thu Aug 14 2025 15:03:44 GMT-0500 (Central Daylight Time),875417.1000000238,A,towerenter,O,enter,662,1,4550.800000011921,870866.3000000119,7200,WL,C,4.0
7,24.692000150680542,immed,35307.99984931946,Thu Aug 14 2025 15:03:44 GMT-0500 (Central Daylight Time),876082.6999999881,A,h,O,h,650,1,665.3999999761581,875417.3000000119,7200,WL,C,5.0
7,24.87600016593933,immed,35123.99983406067,Thu Aug 14 2025 15:03:44 GMT-0500 (Central Daylight Time),876266.8000000119,A,ho,O,o,168,1,849.5,875417.3000000119,7200,WL,C,5.0
7,25.075000047683716,immed,34924.999952316284,Thu Aug 14 2025 15:03:44 GMT-0500 (Central Daylight Time),876465.8999999762,A,hom,O,m,181,1,1048.5999999642372,875417.3000000119,7200,WL,C,5.0
7,25.19099998474121,immed,34809.00001525879,Thu Aug 14 2025 15:03:44 GMT-0500 (Central Daylight Time),876582.1999999881,A,home,O,e,103,1,1164.8999999761581,875417.3000000119,7200,WL,C,5.0
7,25.390000104904175,immed,34609.999895095825,Thu Aug 14 2025 15:03:44 GMT-0500 (Central Daylight Time),876781.1999999881,A,homeenter,O,enter,189,1,1363.8999999761581,875417.3000000119,7200,WL,C,5.0
7,25.874000072479248,immed,34125.99992752075,Thu Aug 14 2025 15:03:44 GMT-0500 (Central Daylight Time),877265.6999999881,A,b,O,b,479,1,484.19999998807907,876781.5,7200,WL,C,6.0
7,26.27500009536743,immed,33724.99990463257,Thu Aug 14 2025 15:03:44 GMT-0500 (Central Daylight Time),877666.0,A,bo,O,o,380,1,884.5,876781.5,7200,WL,C,6.0
7,26.84000015258789,immed,33159.99984741211,Thu Aug 14 2025 15:03:44 GMT-0500 (Central Daylight Time),878231.6999999881,A,boy,O,y,552,1,1450.199999988079,876781.5,7200,WL,C,6.0
7,27.04100012779236,immed,32958.99987220764,Thu Aug 14 2025 15:03:44 GMT-0500 (Central Daylight Time),878431.8000000119,A,boyenter,O,enter,186,1,1650.300000011921,876781.5,7200,WL,C,6.0
7,28.424000024795532,immed,31575.999975204468,Thu Aug 14 2025 15:03:44 GMT-0500 (Central Daylight Time),879815.8000000119,A,c,O,c,1371,1,1383.800000011921,878432.0,7200,WL,C,7.0
7,28.575000047683716,immed,31424.999952316284,Thu Aug 14 2025 15:03:44 GMT-0500 (Central Daylight Time),879966.3000000119,A,co,O,o,131,1,1534.300000011921,878432.0,7200,WL,C,7.0
7,28.756999969482422,immed,31243.000030517578,Thu Aug 14 2025 15:03:44 GMT-0500 (Central Daylight Time),880148.3000000119,A,cor,O,r,171,1,1716.300000011921,878432.0,7200,WL,C,7.0
7,29.374000072479248,immed,30625.999927520752,Thu Aug 14 2025 15:03:44 GMT-0500 (Central Daylight Time),880765.3000000119,A,corn,O,n,598,1,2333.300000011921,878432.0,7200,WL,C,7.0
7,29.6560001373291,immed,30343.9998626709,Thu Aug 14 2025 15:03:44 GMT-0500 (Central Daylight Time),881047.5,A,cornenter,O,enter,261,1,2615.5,878432.0,7200,WL,C,7.0
7,30.473999977111816,immed,29526.000022888184,Thu Aug 14 2025 15:03:44 GMT-0500 (Central Daylight Time),881865.3999999762,A,c,O,c,799,1,817.5999999642372,881047.8000000119,7200,WL,C,8.0
7,30.640000104904175,immed,29359.999895095825,Thu Aug 14 2025 15:03:44 GMT-0500 (Central Daylight Time),882031.3000000119,A,ca,O,a,146,1,983.5,881047.8000000119,7200,WL,C,8.0
7,30.805999994277954,immed,29194.000005722046,Thu Aug 14 2025 15:03:44 GMT-0500 (Central Daylight Time),882197.3000000119,A,cam,O,m,153,1,1149.5,881047.8000000119,7200,WL,C,8.0
7,31.038000106811523,immed,28961.999893188477,Thu Aug 14 2025 15:03:44 GMT-0500 (Central Daylight Time),882429.1999999881,A,camp,O,p,220,1,1381.3999999761581,881047.8000000119,7200,WL,C,8.0
7,31.305000066757202,immed,28694.999933242798,Thu Aug 14 2025 15:03:44 GMT-0500 (Central Daylight Time),882696.5,A,campenter,O,enter,264,1,1648.699999988079,881047.8000000119,7200,WL,C,8.0
7,33.10600018501282,immed,26893.999814987183,Thu Aug 14 2025 15:03:44 GMT-0500 (Central Daylight Time),884497.3000000119,A,f,O,f,1780,1,1800.5,882696.8000000119,7200,WL,C,9.0
7,33.305999994277954,immed,26694.000005722046,Thu Aug 14 2025 15:03:44 GMT-0500 (Central Daylight Time),884697.6000000238,A,fl,O,l,193,1,2000.800000011921,882696.8000000119,7200,WL,C,9.0
7,33.42300009727478,immed,26576.99990272522,Thu Aug 14 2025 15:03:44 GMT-0500 (Central Daylight Time),884814.1999999881,A,fla,O,a,107,1,2117.399999976158,882696.8000000119,7200,WL,C,9.0
7,33.68900012969971,immed,26310.999870300293,Thu Aug 14 2025 15:03:44 GMT-0500 (Central Daylight Time),885080.6000000238,A,flag,O,g,252,1,2383.800000011921,882696.8000000119,7200,WL,C,9.0
7,33.80400013923645,immed,26195.99986076355,Thu Aug 14 2025 15:03:44 GMT-0500 (Central Daylight Time),885195.3000000119,A,flagenter,O,enter,106,1,2498.5,882696.8000000119,7200,WL,C,9.0
7,34.49000000953674,immed,25509.999990463257,Thu Aug 14 2025 15:03:44 GMT-0500 (Central Daylight Time),885881.6999999881,A,c,O,c,672,1,686.0999999642372,885195.6000000238,7200,WL,C,10.0
7,34.58899998664856,immed,25411.00001335144,Thu Aug 14 2025 15:03:44 GMT-0500 (Central Daylight Time),885980.0,A,ca,O,a,88,1,784.3999999761581,885195.6000000238,7200,WL,C,10.0
7,34.92200016975403,immed,25077.99983024597,Thu Aug 14 2025 15:03:44 GMT-0500 (Central Daylight Time),886312.8000000119,A,cat,O,t,313,1,1117.199999988079,885195.6000000238,7200,WL,C,10.0
7,35.07299995422363,immed,24927.000045776367,Thu Aug 14 2025 15:03:44 GMT-0500 (Central Daylight Time),886464.3000000119,A,catt,O,t,130,1,1268.699999988079,885195.6000000238,7200,WL,C,10.0
7,35.206000089645386,immed,24793.999910354614,Thu Aug 14 2025 15:03:44 GMT-0500 (Central Daylight Time),886597.6999999881,A,cattl,O,l,118,1,1402.0999999642372,885195.6000000238,7200,WL,C,10.0
7,35.32200002670288,immed,24677.99997329712,Thu Aug 14 2025 15:03:44 GMT-0500 (Central Daylight Time),886713.8000000119,A,cattle,O,e,110,1,1518.199999988079,885195.6000000238,7200,WL,C,10.0
7,35.50500011444092,immed,24494.999885559082,Thu Aug 14 2025 15:03:44 GMT-0500 (Central Daylight Time),886896.1000000238,A,cattleenter,O,enter,159,1,1700.5,885195.6000000238,7200,WL,C,10.0
7,49.348000049591064,immed,10651.999950408936,Thu Aug 14 2025 15:03:44 GMT-0500 (Central Daylight Time),900739.5,A,d,O,d,13825,1,13843.199999988079,886896.3000000119,7200,WL,C,11.0
7,49.598000049591064,immed,10401.999950408936,Thu Aug 14 2025 15:03:44 GMT-0500 (Central Daylight Time),900990.1000000238,A,do,O,o,231,1,14093.800000011921,886896.3000000119,7200,WL,C,11.0
7,49.74900007247925,immed,10250.999927520752,Thu Aug 14 2025 15:03:44 GMT-0500 (Central Daylight Time),901141.1000000238,A,doc,O,c,134,1,14244.800000011921,886896.3000000119,7200,WL,C,11.0
7,50.015000104904175,immed,9984.999895095825,Thu Aug 14 2025 15:03:44 GMT-0500 (Central Daylight Time),901407.3000000119,A,doct,O,t,251,1,14511.0,886896.3000000119,7200,WL,C,11.0
7,50.116000175476074,immed,9883.999824523926,Thu Aug 14 2025 15:03:44 GMT-0500 (Central Daylight Time),901508.0,A,docto,O,o,88,1,14611.699999988079,886896.3000000119,7200,WL,C,11.0
7,50.26600003242493,immed,9733.999967575073,Thu Aug 14 2025 15:03:44 GMT-0500 (Central Daylight Time),901658.1999999881,A,doctor,O,r,143,1,14761.899999976158,886896.3000000119,7200,WL,C,11.0
7,50.43300008773804,immed,9566.999912261963,Thu Aug 14 2025 15:03:44 GMT-0500 (Central Daylight Time),901824.8999999762,A,doctorenter,O,enter,150,1,14928.599999964237,886896.3000000119,7200,WL,C,11.0
7,56.04700016975403,immed,3952.9998302459717,Thu Aug 14 2025 15:03:44 GMT-0500 (Central Daylight Time),907439.1000000238,A,s,O,s,5594,1,5613.900000035763,901825.1999999881,7200,WL,C,12.0
7,56.230000019073486,immed,3769.9999809265137,Thu Aug 14 2025 15:03:44 GMT-0500 (Central Daylight Time),907621.8999999762,A,sh,O,h,169,1,5796.699999988079,901825.1999999881,7200,WL,C,12.0
7,56.646000146865845,immed,3353.9998531341553,Thu Aug 14 2025 15:03:44 GMT-0500 (Central Daylight Time),908038.3000000119,A,sho,O,o,400,1,6213.100000023842,901825.1999999881,7200,WL,C,12.0
7,56.86400008201599,immed,3135.999917984009,Thu Aug 14 2025 15:03:44 GMT-0500 (Central Daylight Time),908256.0,A,shor,O,r,196,1,6430.800000011921,901825.1999999881,7200,WL,C,12.0
7,57.01300001144409,immed,2986.999988555908,Thu Aug 14 2025 15:03:44 GMT-0500 (Central Daylight Time),908405.3999999762,A,shore,O,e,126,1,6580.199999988079,901825.1999999881,7200,WL,C,12.0
7,57.16300010681152,immed,2836.9998931884766,Thu Aug 14 2025 15:03:44 GMT-0500 (Central Daylight Time),908555.1999999881,A,shoreenter,O,enter,138,1,6730.0,901825.1999999881,7200,WL,C,12.0
7,60.01400017738342,immed,-14.000177383422852,Thu Aug 14 2025 15:03:44 GMT-0500 (Central Daylight Time),911405.5,A,None,O,None,2845,1,2850.0,908555.5,7200,WL,C,13.0
