acc_sum,block,block_c,change,condition,correct,correct_response,datetime,endtime,face,project,response,response_time,row_sel,session_number,start_end,starttime,subject_id,task,task_vers,trial
0,prac,1,,1-Back,,,Thu Aug 21 2025 13:41:11 GMT-0500 (Central Daylight Time),,093_m_f_n_a.png,I,space,2868,1,3,,,8030,NNB,C,0
1,prac,1,0.0,1-Back,1.0,m,Thu Aug 21 2025 13:41:11 GMT-0500 (Central Daylight Time),118196.10000002384,098_y_f_n_a.png,I,m,703,2,3,1556.0,116640.10000002384,8030,NNB,C,1
2,prac,1,1.0,1-Back,1.0,z,Thu Aug 21 2025 13:41:11 GMT-0500 (Central Daylight Time),119745.70000004768,098_y_f_n_a.png,I,z,763,3,3,1542.1000000238419,118203.60000002384,8030,NNB,C,2
3,prac,1,0.0,1-Back,1.0,m,Thu Aug 21 2025 13:41:11 GMT-0500 (Central Daylight Time),121511.70000004768,059_o_m_n_a.png,I,m,896,4,3,1758.5,119753.20000004768,8030,NNB,C,3
4,prac,1,0.0,1-Back,1.0,m,Thu Aug 21 2025 13:41:11 GMT-0500 (Central Daylight Time),123411.10000002384,092_m_m_n_a.png,I,m,1026,5,3,1892.1000000238419,121519.0,8030,NNB,C,4
5,prac,1,1.0,1-Back,1.0,z,Thu Aug 21 2025 13:41:11 GMT-0500 (Central Daylight Time),124894.20000004768,092_m_m_n_a.png,I,z,701,6,3,1476.2000000476837,123418.0,8030,NNB,C,5
6,prac,1,0.0,1-Back,1.0,m,Thu Aug 21 2025 13:41:11 GMT-0500 (Central Daylight Time),126693.60000002384,130_o_f_n_a.png,I,m,909,7,3,1792.1000000238419,124901.5,8030,NNB,C,6
7,prac,1,0.0,1-Back,1.0,m,Thu Aug 21 2025 13:41:11 GMT-0500 (Central Daylight Time),128359.70000004768,082_m_m_n_a.png,I,m,796,8,3,1658.2000000476837,126701.5,8030,NNB,C,7
8,prac,1,0.0,1-Back,1.0,m,Thu Aug 21 2025 13:41:11 GMT-0500 (Central Daylight Time),129942.5,093_m_f_n_a.png,I,m,725,9,3,1576.0,128366.5,8030,NNB,C,8
9,prac,1,1.0,1-Back,1.0,z,Thu Aug 21 2025 13:41:11 GMT-0500 (Central Daylight Time),131875.30000007153,093_m_f_n_a.png,I,z,1154,10,3,1925.6000000238419,129949.70000004768,8030,NNB,C,9
10,prac,1,0.0,1-Back,1.0,m,Thu Aug 21 2025 13:41:11 GMT-0500 (Central Daylight Time),133541.0,059_o_m_n_a.png,I,m,874,11,3,1657.0,131884.0,8030,NNB,C,10
11,prac,1,0.0,1-Back,1.0,m,Thu Aug 21 2025 13:41:11 GMT-0500 (Central Daylight Time),135157.60000002384,028_y_f_n_a.png,I,m,750,12,3,1608.7999999523163,133548.80000007153,8030,NNB,C,11
0,test,1,0.0,1-Back,,,Thu Aug 21 2025 13:41:11 GMT-0500 (Central Daylight Time),135157.60000002384,098_y_f_n_a.png,I,space,7052,1,3,1608.7999999523163,133548.80000007153,8030,NNB,C,0
1,test,1,0.0,1-Back,1.0,m,Thu Aug 21 2025 13:41:11 GMT-0500 (Central Daylight Time),153886.5,006_m_f_n_a.png,I,m,752,2,3,1778.3999999761581,152108.10000002384,8030,NNB,C,1
2,test,1,0.0,1-Back,1.0,m,Thu Aug 21 2025 13:41:11 GMT-0500 (Central Daylight Time),156184.20000004768,028_y_f_n_a.png,I,m,1282,3,3,2292.3000000715256,153891.89999997616,8030,NNB,C,2
3,test,1,1.0,1-Back,1.0,z,Thu Aug 21 2025 13:41:11 GMT-0500 (Central Daylight Time),157767.0,028_y_f_n_a.png,I,z,550,4,3,1577.1000000238419,156189.89999997616,8030,NNB,C,3
4,test,1,0.0,1-Back,1.0,m,Thu Aug 21 2025 13:41:11 GMT-0500 (Central Daylight Time),159616.10000002384,006_m_f_n_a.png,I,m,823,5,3,1844.2000000476837,157771.89999997616,8030,NNB,C,4
5,test,1,0.0,1-Back,1.0,m,Thu Aug 21 2025 13:41:11 GMT-0500 (Central Daylight Time),161349.20000004768,059_o_m_n_a.png,I,m,711,6,3,1728.3999999761581,159620.80000007153,8030,NNB,C,5
6,test,1,1.0,1-Back,1.0,z,Thu Aug 21 2025 13:41:11 GMT-0500 (Central Daylight Time),163015.39999997616,059_o_m_n_a.png,I,z,641,7,3,1660.7999999523163,161354.60000002384,8030,NNB,C,6
7,test,1,0.0,1-Back,1.0,m,Thu Aug 21 2025 13:41:11 GMT-0500 (Central Daylight Time),164931.60000002384,092_m_m_n_a.png,I,m,896,8,3,1911.1000000238419,163020.5,8030,NNB,C,7
8,test,1,0.0,1-Back,1.0,m,Thu Aug 21 2025 13:41:11 GMT-0500 (Central Daylight Time),166647.5,130_o_f_n_a.png,I,m,684,9,3,1709.6999999284744,164937.80000007153,8030,NNB,C,8
9,test,1,0.0,1-Back,1.0,m,Thu Aug 21 2025 13:41:11 GMT-0500 (Central Daylight Time),168297.5,092_m_m_n_a.png,I,m,632,10,3,1644.7999999523163,166652.70000004768,8030,NNB,C,9
10,test,1,0.0,1-Back,1.0,m,Thu Aug 21 2025 13:41:11 GMT-0500 (Central Daylight Time),169946.5,057_y_m_n_a.png,I,m,629,11,3,1643.2999999523163,168303.20000004768,8030,NNB,C,10
11,test,1,1.0,1-Back,1.0,z,Thu Aug 21 2025 13:41:11 GMT-0500 (Central Daylight Time),171479.5,057_y_m_n_a.png,I,z,516,12,3,1527.6000000238419,169951.89999997616,8030,NNB,C,11
12,test,1,0.0,1-Back,1.0,m,Thu Aug 21 2025 13:41:11 GMT-0500 (Central Daylight Time),173262.20000004768,030_o_f_n_a.png,I,m,759,13,3,1777.7000000476837,171484.5,8030,NNB,C,12
13,test,1,1.0,1-Back,1.0,z,Thu Aug 21 2025 13:41:11 GMT-0500 (Central Daylight Time),174861.5,030_o_f_n_a.png,I,z,568,14,3,1593.8999999761581,173267.60000002384,8030,NNB,C,13
14,test,1,0.0,1-Back,1.0,m,Thu Aug 21 2025 13:41:11 GMT-0500 (Central Daylight Time),176544.39999997616,031_y_m_n_a.png,I,m,666,15,3,1677.8999999761581,174866.5,8030,NNB,C,14
15,test,1,0.0,1-Back,1.0,m,Thu Aug 21 2025 13:41:11 GMT-0500 (Central Daylight Time),178210.70000004768,093_m_f_n_a.png,I,m,638,16,3,1661.3999999761581,176549.30000007153,8030,NNB,C,15
16,test,1,0.0,1-Back,1.0,m,Thu Aug 21 2025 13:41:11 GMT-0500 (Central Daylight Time),179860.10000002384,146_o_m_n_a.png,I,m,628,17,3,1643.7000000476837,178216.39999997616,8030,NNB,C,16
17,test,1,0.0,1-Back,1.0,m,Thu Aug 21 2025 13:41:11 GMT-0500 (Central Daylight Time),181694.30000007153,093_m_f_n_a.png,I,m,810,18,3,1828.9000000953674,179865.39999997616,8030,NNB,C,17
0,test,2,0.0,1-Back,,,Thu Aug 21 2025 13:41:11 GMT-0500 (Central Daylight Time),181694.30000007153,092_m_m_n_a.png,I,space,1953,1,3,1828.9000000953674,179865.39999997616,8030,NNB,C,0
1,test,2,0.0,1-Back,1.0,m,Thu Aug 21 2025 13:41:11 GMT-0500 (Central Daylight Time),187291.0,006_m_f_n_a.png,I,m,596,2,3,1610.0,185681.0,8030,NNB,C,1
2,test,2,1.0,1-Back,1.0,z,Thu Aug 21 2025 13:41:11 GMT-0500 (Central Daylight Time),188957.30000007153,006_m_f_n_a.png,I,z,635,3,3,1661.2000000476837,187296.10000002384,8030,NNB,C,2
3,test,2,0.0,1-Back,1.0,m,Thu Aug 21 2025 13:41:11 GMT-0500 (Central Daylight Time),190656.70000004768,092_m_m_n_a.png,I,m,673,4,3,1694.5,188962.20000004768,8030,NNB,C,3
4,test,2,0.0,1-Back,1.0,m,Thu Aug 21 2025 13:41:11 GMT-0500 (Central Daylight Time),192356.20000004768,057_y_m_n_a.png,I,m,679,5,3,1693.1000000238419,190663.10000002384,8030,NNB,C,4
5,test,2,0.0,1-Back,1.0,m,Thu Aug 21 2025 13:41:11 GMT-0500 (Central Daylight Time),194038.80000007153,098_y_f_n_a.png,I,m,650,6,3,1677.9000000953674,192360.89999997616,8030,NNB,C,5
6,test,2,1.0,1-Back,1.0,z,Thu Aug 21 2025 13:41:11 GMT-0500 (Central Daylight Time),195705.20000004768,098_y_f_n_a.png,I,z,640,7,3,1660.7000000476837,194044.5,8030,NNB,C,6
7,test,2,0.0,1-Back,1.0,m,Thu Aug 21 2025 13:41:11 GMT-0500 (Central Daylight Time),197454.30000007153,057_y_m_n_a.png,I,m,725,8,3,1744.3000000715256,195710.0,8030,NNB,C,7
8,test,2,0.0,1-Back,1.0,m,Thu Aug 21 2025 13:41:11 GMT-0500 (Central Daylight Time),199154.0,030_o_f_n_a.png,I,m,680,9,3,1694.1000000238419,197459.89999997616,8030,NNB,C,8
9,test,2,0.0,1-Back,1.0,m,Thu Aug 21 2025 13:41:11 GMT-0500 (Central Daylight Time),200771.39999997616,082_m_m_n_a.png,I,m,588,10,3,1612.0,199159.39999997616,8030,NNB,C,9
10,test,2,1.0,1-Back,1.0,z,Thu Aug 21 2025 13:41:11 GMT-0500 (Central Daylight Time),202453.0,082_m_m_n_a.png,I,z,652,11,3,1675.6000000238419,200777.39999997616,8030,NNB,C,10
11,test,2,0.0,1-Back,1.0,m,Thu Aug 21 2025 13:41:11 GMT-0500 (Central Daylight Time),204152.5,030_o_f_n_a.png,I,m,674,12,3,1694.1000000238419,202458.39999997616,8030,NNB,C,11
12,test,2,0.0,1-Back,1.0,m,Thu Aug 21 2025 13:41:11 GMT-0500 (Central Daylight Time),205868.70000004768,130_o_f_n_a.png,I,m,687,13,3,1711.0,204157.70000004768,8030,NNB,C,12
13,test,2,0.0,1-Back,1.0,m,Thu Aug 21 2025 13:41:11 GMT-0500 (Central Daylight Time),207518.10000002384,059_o_m_n_a.png,I,m,627,14,3,1644.2000000476837,205873.89999997616,8030,NNB,C,13
14,test,2,0.0,1-Back,1.0,m,Thu Aug 21 2025 13:41:11 GMT-0500 (Central Daylight Time),209367.5,146_o_m_n_a.png,I,m,824,15,3,1844.0,207523.5,8030,NNB,C,14
15,test,2,1.0,1-Back,1.0,z,Thu Aug 21 2025 13:41:11 GMT-0500 (Central Daylight Time),211067.0,146_o_m_n_a.png,I,z,679,16,3,1694.0,209373.0,8030,NNB,C,15
16,test,2,0.0,1-Back,1.0,m,Thu Aug 21 2025 13:41:11 GMT-0500 (Central Daylight Time),212816.30000007153,031_y_m_n_a.png,I,m,723,17,3,1743.2000000476837,211073.10000002384,8030,NNB,C,16
17,test,2,1.0,1-Back,1.0,z,Thu Aug 21 2025 13:41:11 GMT-0500 (Central Daylight Time),214465.70000004768,031_y_m_n_a.png,I,z,621,18,3,1642.8000000715256,212822.89999997616,8030,NNB,C,17
0,test,3,1.0,1-Back,,,Thu Aug 21 2025 13:41:11 GMT-0500 (Central Daylight Time),214465.70000004768,028_y_f_n_a.png,I,space,1653,1,3,1642.8000000715256,212822.89999997616,8030,NNB,C,0
1,test,3,0.0,1-Back,1.0,m,Thu Aug 21 2025 13:41:11 GMT-0500 (Central Daylight Time),219914.10000002384,146_o_m_n_a.png,I,m,664,1,3,1677.1000000238419,218237.0,8030,NNB,C,1
2,test,3,1.0,1-Back,1.0,z,Thu Aug 21 2025 13:41:11 GMT-0500 (Central Daylight Time),221530.30000007153,146_o_m_n_a.png,I,z,589,1,3,1611.1000000238419,219919.20000004768,8030,NNB,C,2
3,test,3,0.0,1-Back,1.0,m,Thu Aug 21 2025 13:41:11 GMT-0500 (Central Daylight Time),223196.39999997616,093_m_f_n_a.png,I,m,645,1,3,1660.5999999046326,221535.80000007153,8030,NNB,C,3
4,test,3,1.0,1-Back,1.0,z,Thu Aug 21 2025 13:41:11 GMT-0500 (Central Daylight Time),224712.70000004768,093_m_f_n_a.png,I,z,491,1,3,1511.2000000476837,223201.5,8030,NNB,C,4
5,test,3,0.0,1-Back,1.0,m,Thu Aug 21 2025 13:41:11 GMT-0500 (Central Daylight Time),226445.39999997616,030_o_f_n_a.png,I,m,710,1,3,1726.6999999284744,224718.70000004768,8030,NNB,C,5
6,test,3,0.0,1-Back,1.0,m,Thu Aug 21 2025 13:41:11 GMT-0500 (Central Daylight Time),228294.89999997616,057_y_m_n_a.png,I,m,817,1,3,1844.5999999046326,226450.30000007153,8030,NNB,C,6
7,test,3,0.0,1-Back,1.0,m,Thu Aug 21 2025 13:41:11 GMT-0500 (Central Daylight Time),230527.5,030_o_f_n_a.png,I,m,1199,1,3,2227.2999999523163,228300.20000004768,8030,NNB,C,7
8,test,3,0.0,1-Back,1.0,m,Thu Aug 21 2025 13:41:11 GMT-0500 (Central Daylight Time),232660.30000007153,031_y_m_n_a.png,I,m,1112,1,3,2127.3000000715256,230533.0,8030,NNB,C,8
9,test,3,1.0,1-Back,1.0,z,Thu Aug 21 2025 13:41:11 GMT-0500 (Central Daylight Time),234192.89999997616,031_y_m_n_a.png,I,z,507,1,3,1527.0999999046326,232665.80000007153,8030,NNB,C,9
10,test,3,0.0,1-Back,1.0,m,Thu Aug 21 2025 13:41:11 GMT-0500 (Central Daylight Time),235960.39999997616,006_m_f_n_a.png,I,m,733,1,3,1762.0,234198.39999997616,8030,NNB,C,10
11,test,3,0.0,1-Back,1.0,m,Thu Aug 21 2025 13:41:11 GMT-0500 (Central Daylight Time),237575.30000007153,098_y_f_n_a.png,I,m,592,1,3,1608.7000000476837,235966.60000002384,8030,NNB,C,11
12,test,3,1.0,1-Back,1.0,z,Thu Aug 21 2025 13:41:11 GMT-0500 (Central Daylight Time),239058.20000004768,098_y_f_n_a.png,I,z,456,1,3,1477.5,237580.70000004768,8030,NNB,C,12
13,test,3,0.0,1-Back,1.0,m,Thu Aug 21 2025 13:41:11 GMT-0500 (Central Daylight Time),240757.5,006_m_f_n_a.png,I,m,669,1,3,1692.3999999761581,239065.10000002384,8030,NNB,C,13
14,test,3,0.0,1-Back,1.0,m,Thu Aug 21 2025 13:41:11 GMT-0500 (Central Daylight Time),242406.80000007153,092_m_m_n_a.png,I,m,615,1,3,1643.8000000715256,240763.0,8030,NNB,C,14
15,test,3,1.0,1-Back,1.0,z,Thu Aug 21 2025 13:41:11 GMT-0500 (Central Daylight Time),244056.80000007153,092_m_m_n_a.png,I,z,624,1,3,1643.9000000953674,242412.89999997616,8030,NNB,C,15
16,test,3,0.0,1-Back,1.0,m,Thu Aug 21 2025 13:41:11 GMT-0500 (Central Daylight Time),245839.30000007153,130_o_f_n_a.png,I,m,757,1,3,1777.0,244062.30000007153,8030,NNB,C,16
17,test,3,1.0,1-Back,1.0,z,Thu Aug 21 2025 13:41:11 GMT-0500 (Central Daylight Time),247489.10000002384,130_o_f_n_a.png,I,z,631,1,3,1644.2000000476837,245844.89999997616,8030,NNB,C,17
0,test,4,1.0,1-Back,,,Thu Aug 21 2025 13:41:11 GMT-0500 (Central Daylight Time),247489.10000002384,093_m_f_n_a.png,I,space,1965,1,3,1644.2000000476837,245844.89999997616,8030,NNB,C,0
1,test,4,0.0,1-Back,1.0,m,Thu Aug 21 2025 13:41:11 GMT-0500 (Central Daylight Time),253253.70000004768,146_o_m_n_a.png,I,m,661,2,3,1677.3999999761581,251576.30000007153,8030,NNB,C,1
2,test,4,0.0,1-Back,1.0,m,Thu Aug 21 2025 13:41:11 GMT-0500 (Central Daylight Time),255069.5,093_m_f_n_a.png,I,m,785,3,3,1811.1000000238419,253258.39999997616,8030,NNB,C,2
3,test,4,0.0,1-Back,1.0,m,Thu Aug 21 2025 13:41:11 GMT-0500 (Central Daylight Time),256736.0,030_o_f_n_a.png,I,m,642,4,3,1661.3999999761581,255074.60000002384,8030,NNB,C,3
4,test,4,1.0,1-Back,1.0,z,Thu Aug 21 2025 13:41:11 GMT-0500 (Central Daylight Time),258337.39999997616,030_o_f_n_a.png,I,z,574,5,3,1595.7999999523163,256741.60000002384,8030,NNB,C,4
5,test,4,0.0,1-Back,1.0,m,Thu Aug 21 2025 13:41:11 GMT-0500 (Central Daylight Time),260417.89999997616,098_y_f_n_a.png,I,m,1056,6,3,2075.5,258342.39999997616,8030,NNB,C,5
6,test,4,0.0,1-Back,1.0,m,Thu Aug 21 2025 13:41:11 GMT-0500 (Central Daylight Time),262051.0,057_y_m_n_a.png,I,m,604,7,3,1627.8999999761581,260423.10000002384,8030,NNB,C,6
7,test,4,1.0,1-Back,1.0,z,Thu Aug 21 2025 13:41:11 GMT-0500 (Central Daylight Time),263700.60000002384,057_y_m_n_a.png,I,z,628,8,3,1644.3999999761581,262056.20000004768,8030,NNB,C,7
8,test,4,0.0,1-Back,1.0,m,Thu Aug 21 2025 13:41:11 GMT-0500 (Central Daylight Time),265516.5,098_y_f_n_a.png,I,m,794,9,3,1810.1000000238419,263706.39999997616,8030,NNB,C,8
9,test,4,0.0,1-Back,1.0,m,Thu Aug 21 2025 13:41:11 GMT-0500 (Central Daylight Time),267182.60000002384,082_m_m_n_a.png,I,m,634,10,3,1660.6000000238419,265522.0,8030,NNB,C,9
10,test,4,1.0,1-Back,1.0,z,Thu Aug 21 2025 13:41:11 GMT-0500 (Central Daylight Time),268832.2000000477,082_m_m_n_a.png,I,z,616,11,3,1644.2000000476837,267188.0,8030,NNB,C,10
11,test,4,0.0,1-Back,1.0,m,Thu Aug 21 2025 13:41:11 GMT-0500 (Central Daylight Time),270648.10000002384,130_o_f_n_a.png,I,m,790,12,3,1811.1000000238419,268837.0,8030,NNB,C,11
12,test,4,0.0,1-Back,1.0,m,Thu Aug 21 2025 13:41:11 GMT-0500 (Central Daylight Time),272447.7000000477,059_o_m_n_a.png,I,m,774,13,3,1794.6000000238419,270653.10000002384,8030,NNB,C,12
13,test,4,0.0,1-Back,1.0,m,Thu Aug 21 2025 13:41:11 GMT-0500 (Central Daylight Time),274546.89999997616,130_o_f_n_a.png,I,m,1071,14,3,2093.0,272453.89999997616,8030,NNB,C,13
14,test,4,0.0,1-Back,1.0,m,Thu Aug 21 2025 13:41:11 GMT-0500 (Central Daylight Time),276279.7000000477,028_y_f_n_a.png,I,m,716,15,3,1727.2000000476837,274552.5,8030,NNB,C,14
15,test,4,1.0,1-Back,1.0,z,Thu Aug 21 2025 13:41:11 GMT-0500 (Central Daylight Time),277779.3000000715,028_y_f_n_a.png,I,z,477,16,3,1494.2000000476837,276285.10000002384,8030,NNB,C,15
16,test,4,0.0,1-Back,1.0,m,Thu Aug 21 2025 13:41:11 GMT-0500 (Central Daylight Time),279529.8000000715,006_m_f_n_a.png,I,m,732,17,3,1744.8000000715256,277785.0,8030,NNB,C,16
16,test,4,1.0,1-Back,0.0,z,Thu Aug 21 2025 13:41:11 GMT-0500 (Central Daylight Time),281494.8000000715,006_m_f_n_a.png,I,m,934,18,3,1959.7000000476837,279535.10000002384,8030,NNB,C,17
0,test,5,1.0,1-Back,,,Thu Aug 21 2025 13:41:11 GMT-0500 (Central Daylight Time),281494.8000000715,059_o_m_n_a.png,I,space,2529,1,3,1959.7000000476837,279535.10000002384,8030,NNB,C,0
1,test,5,1.0,1-Back,1.0,z,Thu Aug 21 2025 13:41:11 GMT-0500 (Central Daylight Time),287726.10000002384,059_o_m_n_a.png,I,z,659,2,3,1675.2000000476837,286050.89999997616,8030,NNB,C,1
2,test,5,0.0,1-Back,1.0,m,Thu Aug 21 2025 13:41:11 GMT-0500 (Central Daylight Time),289225.8000000715,098_y_f_n_a.png,I,m,481,3,3,1494.5,287731.3000000715,8030,NNB,C,2
3,test,5,0.0,1-Back,1.0,m,Thu Aug 21 2025 13:41:11 GMT-0500 (Central Daylight Time),290858.7000000477,057_y_m_n_a.png,I,m,605,4,3,1627.3000000715256,289231.39999997616,8030,NNB,C,3
4,test,5,0.0,1-Back,1.0,m,Thu Aug 21 2025 13:41:11 GMT-0500 (Central Daylight Time),292525.10000002384,098_y_f_n_a.png,I,m,644,5,3,1660.5,290864.60000002384,8030,NNB,C,4
5,test,5,0.0,1-Back,1.0,m,Thu Aug 21 2025 13:41:11 GMT-0500 (Central Daylight Time),294190.8000000715,092_m_m_n_a.png,I,m,643,6,3,1660.2000000476837,292530.60000002384,8030,NNB,C,5
6,test,5,1.0,1-Back,1.0,z,Thu Aug 21 2025 13:41:11 GMT-0500 (Central Daylight Time),295857.0,092_m_m_n_a.png,I,z,639,7,3,1661.0,294196.0,8030,NNB,C,6
7,test,5,0.0,1-Back,1.0,m,Thu Aug 21 2025 13:41:11 GMT-0500 (Central Daylight Time),297656.39999997616,028_y_f_n_a.png,I,m,772,8,3,1793.6999999284744,295862.7000000477,8030,NNB,C,7
8,test,5,0.0,1-Back,1.0,m,Thu Aug 21 2025 13:41:11 GMT-0500 (Central Daylight Time),299622.3000000715,031_y_m_n_a.png,I,m,942,9,3,1960.7000000476837,297661.60000002384,8030,NNB,C,8
9,test,5,0.0,1-Back,1.0,m,Thu Aug 21 2025 13:41:11 GMT-0500 (Central Daylight Time),301655.3000000715,028_y_f_n_a.png,I,m,1000,10,3,2027.3000000715256,299628.0,8030,NNB,C,9
10,test,5,0.0,1-Back,1.0,m,Thu Aug 21 2025 13:41:11 GMT-0500 (Central Daylight Time),303354.7000000477,130_o_f_n_a.png,I,m,679,11,3,1694.3000000715256,301660.39999997616,8030,NNB,C,10
11,test,5,1.0,1-Back,1.0,z,Thu Aug 21 2025 13:41:11 GMT-0500 (Central Daylight Time),304920.8000000715,130_o_f_n_a.png,I,z,548,12,3,1561.0,303359.8000000715,8030,NNB,C,11
12,test,5,0.0,1-Back,1.0,m,Thu Aug 21 2025 13:41:11 GMT-0500 (Central Daylight Time),306720.7000000477,146_o_m_n_a.png,I,m,781,13,3,1795.3999999761581,304925.3000000715,8030,NNB,C,12
13,test,5,0.0,1-Back,1.0,m,Thu Aug 21 2025 13:41:11 GMT-0500 (Central Daylight Time),308419.8000000715,093_m_f_n_a.png,I,m,671,14,3,1694.0,306725.8000000715,8030,NNB,C,13
14,test,5,1.0,1-Back,1.0,z,Thu Aug 21 2025 13:41:11 GMT-0500 (Central Daylight Time),309919.10000002384,093_m_f_n_a.png,I,z,474,15,3,1494.2000000476837,308424.89999997616,8030,NNB,C,14
15,test,5,0.0,1-Back,1.0,m,Thu Aug 21 2025 13:41:11 GMT-0500 (Central Daylight Time),311635.5,146_o_m_n_a.png,I,m,687,16,3,1711.3999999761581,309924.10000002384,8030,NNB,C,15
16,test,5,0.0,1-Back,1.0,m,Thu Aug 21 2025 13:41:11 GMT-0500 (Central Daylight Time),313401.5,006_m_f_n_a.png,I,m,740,17,3,1760.1999999284744,311641.3000000715,8030,NNB,C,16
17,test,5,0.0,1-Back,1.0,m,Thu Aug 21 2025 13:41:11 GMT-0500 (Central Daylight Time),315050.89999997616,082_m_m_n_a.png,I,m,629,18,3,1644.0999999046326,313406.8000000715,8030,NNB,C,17
0,prac,1,0.0,2-Back,,,Thu Aug 21 2025 13:41:11 GMT-0500 (Central Daylight Time),315050.89999997616,031_y_m_n_a.png,I,space,3470,1,3,1644.0999999046326,313406.8000000715,8030,NNB,C,0
0,prac,1,0.0,2-Back,,,Thu Aug 21 2025 13:41:11 GMT-0500 (Central Daylight Time),315050.89999997616,006_m_f_n_a.png,I,space,3470,2,3,1644.0999999046326,313406.8000000715,8030,NNB,C,0
1,prac,1,1.0,2-Back,1.0,m,Thu Aug 21 2025 13:41:11 GMT-0500 (Central Daylight Time),399341.3000000715,146_o_m_n_a.png,I,m,775,3,3,1641.8000000715256,397699.5,8030,NNB,C,1
2,prac,1,0.0,2-Back,1.0,m,Thu Aug 21 2025 13:41:11 GMT-0500 (Central Daylight Time),400990.7000000477,130_o_f_n_a.png,I,m,769,4,3,1642.3000000715256,399348.39999997616,8030,NNB,C,2
2,prac,1,0.0,2-Back,0.0,z,Thu Aug 21 2025 13:41:11 GMT-0500 (Central Daylight Time),402990.0,146_o_m_n_a.png,I,m,1209,5,3,1992.0,400998.0,8030,NNB,C,3
2,prac,1,1.0,2-Back,0.0,z,Thu Aug 21 2025 13:41:11 GMT-0500 (Central Daylight Time),405672.39999997616,130_o_f_n_a.png,I,m,1897,6,3,2674.5999999046326,402997.8000000715,8030,NNB,C,4
3,prac,1,0.0,2-Back,1.0,m,Thu Aug 21 2025 13:41:11 GMT-0500 (Central Daylight Time),408121.8000000715,082_m_m_n_a.png,I,m,1664,7,3,2442.600000023842,405679.2000000477,8030,NNB,C,5
4,prac,1,0.0,2-Back,1.0,m,Thu Aug 21 2025 13:41:11 GMT-0500 (Central Daylight Time),410471.10000002384,059_o_m_n_a.png,I,m,1480,8,3,2342.2000000476837,408128.89999997616,8030,NNB,C,6
5,prac,1,0.0,2-Back,1.0,m,Thu Aug 21 2025 13:41:11 GMT-0500 (Central Daylight Time),412337.2000000477,028_y_f_n_a.png,I,m,1003,9,3,1859.3999999761581,410477.8000000715,8030,NNB,C,7
6,prac,1,1.0,2-Back,1.0,z,Thu Aug 21 2025 13:41:11 GMT-0500 (Central Daylight Time),413936.7000000477,059_o_m_n_a.png,I,z,822,10,3,1591.5,412345.2000000477,8030,NNB,C,8
7,prac,1,0.0,2-Back,1.0,m,Thu Aug 21 2025 13:41:11 GMT-0500 (Central Daylight Time),415785.89999997616,098_y_f_n_a.png,I,m,982,11,3,1841.2999999523163,413944.60000002384,8030,NNB,C,9
7,prac,1,0.0,2-Back,0.0,m,Thu Aug 21 2025 13:41:11 GMT-0500 (Central Daylight Time),418018.7000000477,082_m_m_n_a.png,I,z,1454,12,3,2226.399999976158,415792.3000000715,8030,NNB,C,10
0,test,1,0.0,2-Back,,,Thu Aug 21 2025 13:41:11 GMT-0500 (Central Daylight Time),418018.7000000477,057_y_m_n_a.png,I,space,5600,1,3,2226.399999976158,415792.3000000715,8030,NNB,C,0
0,test,1,0.0,2-Back,,,Thu Aug 21 2025 13:41:11 GMT-0500 (Central Daylight Time),418018.7000000477,057_y_m_n_a.png,I,space,5600,2,3,2226.399999976158,415792.3000000715,8030,NNB,C,0
1,test,1,0.0,2-Back,1.0,m,Thu Aug 21 2025 13:41:11 GMT-0500 (Central Daylight Time),437929.10000002384,130_o_f_n_a.png,I,m,774,3,3,1794.2999999523163,436134.8000000715,8030,NNB,C,1
2,test,1,0.0,2-Back,1.0,m,Thu Aug 21 2025 13:41:11 GMT-0500 (Central Daylight Time),439728.5,092_m_m_n_a.png,I,m,773,4,3,1794.1999999284744,437934.3000000715,8030,NNB,C,2
3,test,1,1.0,2-Back,1.0,z,Thu Aug 21 2025 13:41:11 GMT-0500 (Central Daylight Time),441527.8000000715,130_o_f_n_a.png,I,z,767,5,3,1794.4000000953674,439733.39999997616,8030,NNB,C,3
4,test,1,0.0,2-Back,1.0,m,Thu Aug 21 2025 13:41:11 GMT-0500 (Central Daylight Time),443777.3000000715,098_y_f_n_a.png,I,m,1222,6,3,2244.5,441532.8000000715,8030,NNB,C,4
4,test,1,0.0,2-Back,0.0,m,Thu Aug 21 2025 13:41:11 GMT-0500 (Central Daylight Time),445759.8000000715,092_m_m_n_a.png,I,z,958,7,3,1977.7000000476837,443782.10000002384,8030,NNB,C,5
5,test,1,1.0,2-Back,1.0,z,Thu Aug 21 2025 13:41:11 GMT-0500 (Central Daylight Time),448276.0,098_y_f_n_a.png,I,z,1486,8,3,2510.399999976158,445765.60000002384,8030,NNB,C,6
6,test,1,0.0,2-Back,1.0,m,Thu Aug 21 2025 13:41:11 GMT-0500 (Central Daylight Time),450375.10000002384,031_y_m_n_a.png,I,m,1066,9,3,2094.399999976158,448280.7000000477,8030,NNB,C,7
6,test,1,0.0,2-Back,0.0,m,Thu Aug 21 2025 13:41:11 GMT-0500 (Central Daylight Time),453407.7000000477,030_o_f_n_a.png,I,None,2015,10,3,3027.600000023842,450380.10000002384,8030,NNB,C,8
7,test,1,1.0,2-Back,1.0,z,Thu Aug 21 2025 13:41:11 GMT-0500 (Central Daylight Time),455123.8000000715,031_y_m_n_a.png,I,z,695,11,3,1711.0,453412.8000000715,8030,NNB,C,9
8,test,1,0.0,2-Back,1.0,m,Thu Aug 21 2025 13:41:11 GMT-0500 (Central Daylight Time),457106.3000000715,006_m_f_n_a.png,I,m,955,12,3,1977.4000000953674,455128.89999997616,8030,NNB,C,10
9,test,1,0.0,2-Back,1.0,m,Thu Aug 21 2025 13:41:11 GMT-0500 (Central Daylight Time),459722.10000002384,006_m_f_n_a.png,I,m,1597,13,3,2610.600000023842,457111.5,8030,NNB,C,11
10,test,1,0.0,2-Back,1.0,m,Thu Aug 21 2025 13:41:11 GMT-0500 (Central Daylight Time),461671.60000002384,146_o_m_n_a.png,I,m,917,14,3,1944.3999999761581,459727.2000000477,8030,NNB,C,12
11,test,1,0.0,2-Back,1.0,m,Thu Aug 21 2025 13:41:11 GMT-0500 (Central Daylight Time),464220.89999997616,030_o_f_n_a.png,I,m,1528,15,3,2544.1999999284744,461676.7000000477,8030,NNB,C,13
11,test,1,1.0,2-Back,0.0,z,Thu Aug 21 2025 13:41:11 GMT-0500 (Central Daylight Time),466820.0,146_o_m_n_a.png,I,m,1578,16,3,2594.2999999523163,464225.7000000477,8030,NNB,C,14
12,test,1,0.0,2-Back,1.0,m,Thu Aug 21 2025 13:41:11 GMT-0500 (Central Daylight Time),468702.8000000715,093_m_f_n_a.png,I,m,858,17,3,1877.9000000953674,466824.89999997616,8030,NNB,C,15
13,test,1,0.0,2-Back,1.0,m,Thu Aug 21 2025 13:41:11 GMT-0500 (Central Daylight Time),470768.7000000477,082_m_m_n_a.png,I,m,1048,18,3,2060.899999976158,468707.8000000715,8030,NNB,C,16
0,test,2,0.0,2-Back,,,Thu Aug 21 2025 13:41:11 GMT-0500 (Central Daylight Time),470768.7000000477,082_m_m_n_a.png,I,space,2470,1,3,2060.899999976158,468707.8000000715,8030,NNB,C,0
0,test,2,0.0,2-Back,,,Thu Aug 21 2025 13:41:11 GMT-0500 (Central Daylight Time),470768.7000000477,028_y_f_n_a.png,I,space,2470,2,3,2060.899999976158,468707.8000000715,8030,NNB,C,0
1,test,2,1.0,2-Back,1.0,z,Thu Aug 21 2025 13:41:11 GMT-0500 (Central Daylight Time),480348.89999997616,082_m_m_n_a.png,I,z,944,3,3,1960.8999999761581,478388.0,8030,NNB,C,1
2,test,2,0.0,2-Back,1.0,m,Thu Aug 21 2025 13:41:11 GMT-0500 (Central Daylight Time),482548.89999997616,093_m_f_n_a.png,I,m,1170,4,3,2195.1999999284744,480353.7000000477,8030,NNB,C,2
2,test,2,0.0,2-Back,0.0,m,Thu Aug 21 2025 13:41:11 GMT-0500 (Central Daylight Time),484680.89999997616,028_y_f_n_a.png,I,z,1106,5,3,2127.0999999046326,482553.8000000715,8030,NNB,C,3
3,test,2,0.0,2-Back,1.0,m,Thu Aug 21 2025 13:41:11 GMT-0500 (Central Daylight Time),486997.0,146_o_m_n_a.png,I,m,1294,6,3,2311.0,484686.0,8030,NNB,C,4
4,test,2,0.0,2-Back,1.0,m,Thu Aug 21 2025 13:41:11 GMT-0500 (Central Daylight Time),488946.3000000715,098_y_f_n_a.png,I,m,930,7,3,1944.3000000715256,487002.0,8030,NNB,C,5
4,test,2,1.0,2-Back,0.0,z,Thu Aug 21 2025 13:41:11 GMT-0500 (Central Daylight Time),491895.60000002384,146_o_m_n_a.png,I,m,1916,8,3,2944.100000023842,488951.5,8030,NNB,C,6
5,test,2,0.0,2-Back,1.0,m,Thu Aug 21 2025 13:41:11 GMT-0500 (Central Daylight Time),494028.2000000477,031_y_m_n_a.png,I,m,1103,9,3,2127.8000000715256,491900.39999997616,8030,NNB,C,7
6,test,2,0.0,2-Back,1.0,m,Thu Aug 21 2025 13:41:11 GMT-0500 (Central Daylight Time),496511.89999997616,031_y_m_n_a.png,I,m,1459,10,3,2478.5999999046326,494033.3000000715,8030,NNB,C,8
7,test,2,0.0,2-Back,1.0,m,Thu Aug 21 2025 13:41:11 GMT-0500 (Central Daylight Time),498659.89999997616,006_m_f_n_a.png,I,m,1129,11,3,2142.0999999046326,496517.8000000715,8030,NNB,C,9
8,test,2,0.0,2-Back,1.0,m,Thu Aug 21 2025 13:41:11 GMT-0500 (Central Daylight Time),500842.7000000477,028_y_f_n_a.png,I,m,1162,12,3,2178.2000000476837,498664.5,8030,NNB,C,10
8,test,2,1.0,2-Back,0.0,z,Thu Aug 21 2025 13:41:11 GMT-0500 (Central Daylight Time),503874.89999997616,006_m_f_n_a.png,I,None,2016,13,3,3027.399999976158,500847.5,8030,NNB,C,11
9,test,2,0.0,2-Back,1.0,m,Thu Aug 21 2025 13:41:11 GMT-0500 (Central Daylight Time),505874.3000000715,059_o_m_n_a.png,I,m,980,14,3,1994.4000000953674,503879.89999997616,8030,NNB,C,12
10,test,2,0.0,2-Back,1.0,m,Thu Aug 21 2025 13:41:11 GMT-0500 (Central Daylight Time),508240.2000000477,059_o_m_n_a.png,I,m,1333,15,3,2361.2000000476837,505879.0,8030,NNB,C,13
11,test,2,0.0,2-Back,1.0,m,Thu Aug 21 2025 13:41:11 GMT-0500 (Central Daylight Time),510089.8000000715,030_o_f_n_a.png,I,m,822,16,3,1844.3000000715256,508245.5,8030,NNB,C,14
12,test,2,0.0,2-Back,1.0,m,Thu Aug 21 2025 13:41:11 GMT-0500 (Central Daylight Time),512155.89999997616,092_m_m_n_a.png,I,m,1038,17,3,2061.5999999046326,510094.3000000715,8030,NNB,C,15
13,test,2,1.0,2-Back,1.0,z,Thu Aug 21 2025 13:41:11 GMT-0500 (Central Daylight Time),514205.10000002384,030_o_f_n_a.png,I,z,1020,18,3,2043.8999999761581,512161.2000000477,8030,NNB,C,16
0,test,3,1.0,2-Back,,,Thu Aug 21 2025 13:41:11 GMT-0500 (Central Daylight Time),514205.10000002384,057_y_m_n_a.png,I,space,2249,1,3,2043.8999999761581,512161.2000000477,8030,NNB,C,0
0,test,3,1.0,2-Back,,,Thu Aug 21 2025 13:41:11 GMT-0500 (Central Daylight Time),514205.10000002384,057_y_m_n_a.png,I,space,2249,2,3,2043.8999999761581,512161.2000000477,8030,NNB,C,0
1,test,3,0.0,2-Back,1.0,m,Thu Aug 21 2025 13:41:11 GMT-0500 (Central Daylight Time),523452.2000000477,030_o_f_n_a.png,I,m,829,3,3,1842.7000000476837,521609.5,8030,NNB,C,1
2,test,3,0.0,2-Back,1.0,m,Thu Aug 21 2025 13:41:11 GMT-0500 (Central Daylight Time),525301.6000000238,082_m_m_n_a.png,I,m,827,4,3,1844.0,523457.60000002384,8030,NNB,C,2
3,test,3,1.0,2-Back,1.0,z,Thu Aug 21 2025 13:41:11 GMT-0500 (Central Daylight Time),527050.8999999762,030_o_f_n_a.png,I,z,721,5,3,1744.0,525306.8999999762,8030,NNB,C,3
4,test,3,0.0,2-Back,1.0,m,Thu Aug 21 2025 13:41:11 GMT-0500 (Central Daylight Time),529983.6000000238,031_y_m_n_a.png,I,m,1915,6,3,2927.7999999523163,527055.8000000715,8030,NNB,C,4
4,test,3,0.0,2-Back,0.0,m,Thu Aug 21 2025 13:41:11 GMT-0500 (Central Daylight Time),531733.3999999762,082_m_m_n_a.png,I,z,727,7,3,1744.3999999761581,529989.0,8030,NNB,C,5
5,test,3,1.0,2-Back,1.0,z,Thu Aug 21 2025 13:41:11 GMT-0500 (Central Daylight Time),534132.1000000238,031_y_m_n_a.png,I,z,1378,8,3,2393.0,531739.1000000238,8030,NNB,C,6
6,test,3,0.0,2-Back,1.0,m,Thu Aug 21 2025 13:41:11 GMT-0500 (Central Daylight Time),535983.1000000238,028_y_f_n_a.png,I,m,827,9,3,1846.2999999523163,534136.8000000715,8030,NNB,C,7
7,test,3,0.0,2-Back,1.0,m,Thu Aug 21 2025 13:41:11 GMT-0500 (Central Daylight Time),538097.6000000238,092_m_m_n_a.png,I,m,1098,10,3,2109.399999976158,535988.2000000477,8030,NNB,C,8
8,test,3,1.0,2-Back,1.0,z,Thu Aug 21 2025 13:41:11 GMT-0500 (Central Daylight Time),540496.5,028_y_f_n_a.png,I,z,1382,11,3,2393.1999999284744,538103.3000000715,8030,NNB,C,9
8,test,3,1.0,2-Back,0.0,z,Thu Aug 21 2025 13:41:11 GMT-0500 (Central Daylight Time),542612.8000000715,092_m_m_n_a.png,I,m,1086,12,3,2111.600000023842,540501.2000000477,8030,NNB,C,10
9,test,3,0.0,2-Back,1.0,m,Thu Aug 21 2025 13:41:11 GMT-0500 (Central Daylight Time),544745.5,030_o_f_n_a.png,I,m,1113,13,3,2127.1999999284744,542618.3000000715,8030,NNB,C,11
10,test,3,0.0,2-Back,1.0,m,Thu Aug 21 2025 13:41:11 GMT-0500 (Central Daylight Time),546595.1000000238,093_m_f_n_a.png,I,m,822,14,3,1844.6000000238419,544750.5,8030,NNB,C,12
11,test,3,0.0,2-Back,1.0,m,Thu Aug 21 2025 13:41:11 GMT-0500 (Central Daylight Time),548644.0,146_o_m_n_a.png,I,m,1027,15,3,2043.6999999284744,546600.3000000715,8030,NNB,C,13
11,test,3,1.0,2-Back,0.0,z,Thu Aug 21 2025 13:41:11 GMT-0500 (Central Daylight Time),551543.5,093_m_f_n_a.png,I,m,1866,16,3,2894.6999999284744,548648.8000000715,8030,NNB,C,14
12,test,3,0.0,2-Back,1.0,m,Thu Aug 21 2025 13:41:11 GMT-0500 (Central Daylight Time),553475.8999999762,130_o_f_n_a.png,I,m,912,17,3,1926.8999999761581,551549.0,8030,NNB,C,15
12,test,3,0.0,2-Back,0.0,m,Thu Aug 21 2025 13:41:11 GMT-0500 (Central Daylight Time),555225.3999999762,130_o_f_n_a.png,I,z,730,18,3,1744.2999999523163,553481.1000000238,8030,NNB,C,16
0,test,4,0.0,2-Back,,,Thu Aug 21 2025 13:41:11 GMT-0500 (Central Daylight Time),555225.3999999762,059_o_m_n_a.png,I,space,2286,1,3,1744.2999999523163,553481.1000000238,8030,NNB,C,0
0,test,4,0.0,2-Back,,,Thu Aug 21 2025 13:41:11 GMT-0500 (Central Daylight Time),555225.3999999762,098_y_f_n_a.png,I,space,2286,2,3,1744.2999999523163,553481.1000000238,8030,NNB,C,0
1,test,4,1.0,2-Back,1.0,z,Thu Aug 21 2025 13:41:11 GMT-0500 (Central Daylight Time),564622.6000000238,059_o_m_n_a.png,I,z,843,3,3,1861.1000000238419,562761.5,8030,NNB,C,1
2,test,4,1.0,2-Back,1.0,z,Thu Aug 21 2025 13:41:11 GMT-0500 (Central Daylight Time),566655.5,098_y_f_n_a.png,I,z,1009,4,3,2028.0,564627.5,8030,NNB,C,2
3,test,4,0.0,2-Back,1.0,m,Thu Aug 21 2025 13:41:11 GMT-0500 (Central Daylight Time),569504.3000000715,030_o_f_n_a.png,I,m,1816,5,3,2843.4000000953674,566660.8999999762,8030,NNB,C,3
4,test,4,0.0,2-Back,1.0,m,Thu Aug 21 2025 13:41:11 GMT-0500 (Central Daylight Time),571736.8000000715,030_o_f_n_a.png,I,m,1207,6,3,2227.3000000715256,569509.5,8030,NNB,C,4
5,test,4,0.0,2-Back,1.0,m,Thu Aug 21 2025 13:41:11 GMT-0500 (Central Daylight Time),573769.7000000477,006_m_f_n_a.png,I,m,1005,7,3,2027.8999999761581,571741.8000000715,8030,NNB,C,5
6,test,4,0.0,2-Back,1.0,m,Thu Aug 21 2025 13:41:11 GMT-0500 (Central Daylight Time),575952.1000000238,031_y_m_n_a.png,I,m,1165,8,3,2176.7999999523163,573775.3000000715,8030,NNB,C,6
7,test,4,1.0,2-Back,1.0,z,Thu Aug 21 2025 13:41:11 GMT-0500 (Central Daylight Time),577569.8000000715,006_m_f_n_a.png,I,z,590,9,3,1612.4000000953674,575957.3999999762,8030,NNB,C,7
8,test,4,0.0,2-Back,1.0,m,Thu Aug 21 2025 13:41:11 GMT-0500 (Central Daylight Time),579717.8000000715,092_m_m_n_a.png,I,m,1127,10,3,2143.100000023842,577574.7000000477,8030,NNB,C,8
9,test,4,0.0,2-Back,1.0,m,Thu Aug 21 2025 13:41:11 GMT-0500 (Central Daylight Time),582133.8000000715,031_y_m_n_a.png,I,m,1393,11,3,2411.100000023842,579722.7000000477,8030,NNB,C,9
10,test,4,0.0,2-Back,1.0,m,Thu Aug 21 2025 13:41:11 GMT-0500 (Central Daylight Time),584582.5,130_o_f_n_a.png,I,m,1425,12,3,2443.7999999523163,582138.7000000477,8030,NNB,C,10
11,test,4,0.0,2-Back,1.0,m,Thu Aug 21 2025 13:41:11 GMT-0500 (Central Daylight Time),586848.7000000477,057_y_m_n_a.png,I,m,1248,13,3,2261.5,584587.2000000477,8030,NNB,C,11
12,test,4,1.0,2-Back,1.0,z,Thu Aug 21 2025 13:41:11 GMT-0500 (Central Daylight Time),588515.0,130_o_f_n_a.png,I,z,637,14,3,1661.6999999284744,586853.3000000715,8030,NNB,C,12
13,test,4,1.0,2-Back,1.0,z,Thu Aug 21 2025 13:41:11 GMT-0500 (Central Daylight Time),590882.3000000715,057_y_m_n_a.png,I,z,1339,15,3,2362.7000000476837,588519.6000000238,8030,NNB,C,13
14,test,4,0.0,2-Back,1.0,m,Thu Aug 21 2025 13:41:11 GMT-0500 (Central Daylight Time),593265.1000000238,082_m_m_n_a.png,I,m,1357,16,3,2377.7999999523163,590887.3000000715,8030,NNB,C,14
15,test,4,0.0,2-Back,1.0,m,Thu Aug 21 2025 13:41:11 GMT-0500 (Central Daylight Time),595246.3999999762,093_m_f_n_a.png,I,m,960,17,3,1976.0,593270.3999999762,8030,NNB,C,15
16,test,4,1.0,2-Back,1.0,z,Thu Aug 21 2025 13:41:11 GMT-0500 (Central Daylight Time),597212.5,082_m_m_n_a.png,I,z,937,18,3,1961.2999999523163,595251.2000000477,8030,NNB,C,16
0,test,5,1.0,2-Back,,,Thu Aug 21 2025 13:41:11 GMT-0500 (Central Daylight Time),597212.5,057_y_m_n_a.png,I,space,2034,1,3,1961.2999999523163,595251.2000000477,8030,NNB,C,0
0,test,5,1.0,2-Back,,,Thu Aug 21 2025 13:41:11 GMT-0500 (Central Daylight Time),597212.5,093_m_f_n_a.png,I,space,2034,2,3,1961.2999999523163,595251.2000000477,8030,NNB,C,0
1,test,5,1.0,2-Back,1.0,z,Thu Aug 21 2025 13:41:11 GMT-0500 (Central Daylight Time),606676.1000000238,057_y_m_n_a.png,I,z,1336,3,3,2361.5,604314.6000000238,8030,NNB,C,1
2,test,5,1.0,2-Back,1.0,z,Thu Aug 21 2025 13:41:11 GMT-0500 (Central Daylight Time),608576.8999999762,093_m_f_n_a.png,I,z,876,4,3,1897.1999999284744,606679.7000000477,8030,NNB,C,2
3,test,5,0.0,2-Back,1.0,m,Thu Aug 21 2025 13:41:11 GMT-0500 (Central Daylight Time),610808.0,130_o_f_n_a.png,I,m,1207,5,3,2226.100000023842,608581.8999999762,8030,NNB,C,3
3,test,5,0.0,2-Back,0.0,m,Thu Aug 21 2025 13:41:11 GMT-0500 (Central Daylight Time),612674.2000000477,057_y_m_n_a.png,I,z,839,6,3,1862.7000000476837,610811.5,8030,NNB,C,4
4,test,5,0.0,2-Back,1.0,m,Thu Aug 21 2025 13:41:11 GMT-0500 (Central Daylight Time),615373.3999999762,028_y_f_n_a.png,I,m,1677,7,3,2695.1999999284744,612678.2000000477,8030,NNB,C,5
4,test,5,0.0,2-Back,0.0,m,Thu Aug 21 2025 13:41:11 GMT-0500 (Central Daylight Time),617206.1000000238,130_o_f_n_a.png,I,z,801,8,3,1829.3999999761581,615376.7000000477,8030,NNB,C,6
5,test,5,1.0,2-Back,1.0,z,Thu Aug 21 2025 13:41:11 GMT-0500 (Central Daylight Time),619172.2000000477,028_y_f_n_a.png,I,z,945,9,3,1962.3999999761581,617209.8000000715,8030,NNB,C,7
6,test,5,0.0,2-Back,1.0,m,Thu Aug 21 2025 13:41:11 GMT-0500 (Central Daylight Time),621254.8000000715,146_o_m_n_a.png,I,m,1050,10,3,2078.9000000953674,619175.8999999762,8030,NNB,C,8
7,test,5,0.0,2-Back,1.0,m,Thu Aug 21 2025 13:41:11 GMT-0500 (Central Daylight Time),623204.1000000238,006_m_f_n_a.png,I,m,927,11,3,1945.0,621259.1000000238,8030,NNB,C,9
8,test,5,0.0,2-Back,1.0,m,Thu Aug 21 2025 13:41:11 GMT-0500 (Central Daylight Time),625903.3000000715,092_m_m_n_a.png,I,m,1675,12,3,2695.3000000715256,623208.0,8030,NNB,C,10
9,test,5,0.0,2-Back,1.0,m,Thu Aug 21 2025 13:41:11 GMT-0500 (Central Daylight Time),628202.6000000238,146_o_m_n_a.png,I,m,1279,13,3,2294.7999999523163,625907.8000000715,8030,NNB,C,11
10,test,5,1.0,2-Back,1.0,z,Thu Aug 21 2025 13:41:11 GMT-0500 (Central Daylight Time),630268.7000000477,092_m_m_n_a.png,I,z,1045,14,3,2062.2000000476837,628206.5,8030,NNB,C,12
11,test,5,0.0,2-Back,1.0,m,Thu Aug 21 2025 13:41:11 GMT-0500 (Central Daylight Time),632384.7000000477,098_y_f_n_a.png,I,m,1083,15,3,2112.399999976158,630272.3000000715,8030,NNB,C,13
12,test,5,0.0,2-Back,1.0,m,Thu Aug 21 2025 13:41:11 GMT-0500 (Central Daylight Time),634550.5,059_o_m_n_a.png,I,m,1134,16,3,2161.6999999284744,632388.8000000715,8030,NNB,C,14
13,test,5,0.0,2-Back,1.0,m,Thu Aug 21 2025 13:41:11 GMT-0500 (Central Daylight Time),636433.3999999762,006_m_f_n_a.png,I,m,857,17,3,1879.1999999284744,634554.2000000477,8030,NNB,C,15
14,test,5,1.0,2-Back,1.0,z,Thu Aug 21 2025 13:41:11 GMT-0500 (Central Daylight Time),638632.7000000477,059_o_m_n_a.png,I,z,1173,18,3,2195.3000000715256,636437.3999999762,8030,NNB,C,16
