block_c,block_dur,condition,countdown,datetime,endtime,list,multichar_response,project,response,response_time,session_number,start_end,starttime,subject_id,task,task_vers,trial
,,,,Tue Apr 07 2026 10:43:41 GMT-0500 (Central Daylight Time),,,,I,space,862,1,,,8102,WL,A,
prac,,0,,Tue Apr 07 2026 10:43:41 GMT-0500 (Central Daylight Time),,NA,b,I,b,2164,1,,,8102,WL,A,1.0
prac,,0,,Tue Apr 07 2026 10:43:41 GMT-0500 (Central Daylight Time),,NA,bo,I,o,240,1,,,8102,WL,A,1.0
prac,,0,,Tue Apr 07 2026 10:43:41 GMT-0500 (Central Daylight Time),,NA,boo,I,o,167,1,,,8102,WL,A,1.0
prac,,0,,Tue Apr 07 2026 10:43:41 GMT-0500 (Central Daylight Time),,NA,boos,I,s,199,1,,,8102,WL,A,1.0
prac,,0,,Tue Apr 07 2026 10:43:41 GMT-0500 (Central Daylight Time),,NA,boost,I,t,1031,1,,,8102,WL,A,1.0
prac,,0,,Tue Apr 07 2026 10:43:41 GMT-0500 (Central Daylight Time),,NA,boostenter,I,enter,1709,1,,,8102,WL,A,1.0
1,0.6500000953674316,learn,59349.99990463257,Tue Apr 07 2026 10:43:41 GMT-0500 (Central Daylight Time),120887.0,A,b,I,b,631,1,649.7000000476837,120237.29999995232,8102,WL,A,1.0
1,0.999000072479248,learn,59000.99992752075,Tue Apr 07 2026 10:43:41 GMT-0500 (Central Daylight Time),121236.39999997616,A,bo,I,o,340,1,999.1000000238419,120237.29999995232,8102,WL,A,1.0
1,1.183000087738037,learn,58816.99991226196,Tue Apr 07 2026 10:43:41 GMT-0500 (Central Daylight Time),121419.89999997616,A,boo,I,o,175,1,1182.6000000238419,120237.29999995232,8102,WL,A,1.0
1,1.7330000400543213,learn,58266.99995994568,Tue Apr 07 2026 10:43:41 GMT-0500 (Central Daylight Time),121969.79999995232,A,book,I,k,536,1,1732.5,120237.29999995232,8102,WL,A,1.0
1,3.5989999771118164,learn,56401.00002288818,Tue Apr 07 2026 10:43:41 GMT-0500 (Central Daylight Time),123835.70000004768,A,bookenter,I,enter,1849,1,3598.4000000953674,120237.29999995232,8102,WL,A,1.0
1,4.181999921798706,learn,55818.000078201294,Tue Apr 07 2026 10:43:41 GMT-0500 (Central Daylight Time),124419.0,A,r,I,r,576,1,582.8999999761581,123836.10000002384,8102,WL,A,2.0
1,4.414999961853027,learn,55585.00003814697,Tue Apr 07 2026 10:43:41 GMT-0500 (Central Daylight Time),124652.29999995232,A,ra,I,a,224,1,816.1999999284744,123836.10000002384,8102,WL,A,2.0
1,4.815000057220459,learn,55184.99994277954,Tue Apr 07 2026 10:43:41 GMT-0500 (Central Daylight Time),125052.10000002384,A,rat,I,t,382,1,1216.0,123836.10000002384,8102,WL,A,2.0
1,4.947999954223633,learn,55052.00004577637,Tue Apr 07 2026 10:43:41 GMT-0500 (Central Daylight Time),125185.29999995232,A,ratt,I,t,128,1,1349.1999999284744,123836.10000002384,8102,WL,A,2.0
1,5.181999921798706,learn,54818.000078201294,Tue Apr 07 2026 10:43:41 GMT-0500 (Central Daylight Time),125419.0,A,rattl,I,l,218,1,1582.8999999761581,123836.10000002384,8102,WL,A,2.0
1,5.3480000495910645,learn,54651.999950408936,Tue Apr 07 2026 10:43:41 GMT-0500 (Central Daylight Time),125585.29999995232,A,rattle,I,e,160,1,1749.1999999284744,123836.10000002384,8102,WL,A,2.0
1,5.680999994277954,learn,54319.000005722046,Tue Apr 07 2026 10:43:41 GMT-0500 (Central Daylight Time),125918.60000002384,A,rattleenter,I,enter,314,1,2082.5,123836.10000002384,8102,WL,A,2.0
1,6.164000034332275,learn,53835.999965667725,Tue Apr 07 2026 10:43:41 GMT-0500 (Central Daylight Time),126401.70000004768,A,k,I,k,461,1,482.60000002384186,125919.10000002384,8102,WL,A,3.0
1,6.414000034332275,learn,53585.999965667725,Tue Apr 07 2026 10:43:41 GMT-0500 (Central Daylight Time),126651.70000004768,A,ke,I,e,241,1,732.6000000238419,125919.10000002384,8102,WL,A,3.0
1,6.664000034332275,learn,53335.999965667725,Tue Apr 07 2026 10:43:41 GMT-0500 (Central Daylight Time),126901.5,A,key,I,y,239,1,982.3999999761581,125919.10000002384,8102,WL,A,3.0
1,7.364000082015991,learn,52635.99991798401,Tue Apr 07 2026 10:43:41 GMT-0500 (Central Daylight Time),127601.39999997616,A,keyenter,I,enter,678,1,1682.2999999523163,125919.10000002384,8102,WL,A,3.0
1,7.697000026702881,learn,52302.99997329712,Tue Apr 07 2026 10:43:41 GMT-0500 (Central Daylight Time),127934.70000004768,A,r,I,r,315,1,333.0,127601.70000004768,8102,WL,A,4.0
1,7.88100004196167,learn,52118.99995803833,Tue Apr 07 2026 10:43:41 GMT-0500 (Central Daylight Time),128117.89999997616,A,ru,I,u,173,1,516.1999999284744,127601.70000004768,8102,WL,A,4.0
1,8.164000034332275,learn,51835.999965667725,Tue Apr 07 2026 10:43:41 GMT-0500 (Central Daylight Time),128400.89999997616,A,rug,I,g,277,1,799.1999999284744,127601.70000004768,8102,WL,A,4.0
1,8.496999979019165,learn,51503.000020980835,Tue Apr 07 2026 10:43:41 GMT-0500 (Central Daylight Time),128734.39999997616,A,rugenter,I,enter,323,1,1132.6999999284744,127601.70000004768,8102,WL,A,4.0
1,8.829999923706055,learn,51170.000076293945,Tue Apr 07 2026 10:43:41 GMT-0500 (Central Daylight Time),129067.60000002384,A,t,I,t,318,1,332.7000000476837,128734.89999997616,8102,WL,A,5.0
1,8.96399998664856,learn,51036.00001335144,Tue Apr 07 2026 10:43:41 GMT-0500 (Central Daylight Time),129201.0,A,tr,I,r,119,1,466.10000002384186,128734.89999997616,8102,WL,A,5.0
1,9.27999997138977,learn,50720.00002861023,Tue Apr 07 2026 10:43:41 GMT-0500 (Central Daylight Time),129517.5,A,tra,I,a,306,1,782.6000000238419,128734.89999997616,8102,WL,A,5.0
1,9.44700002670288,learn,50552.99997329712,Tue Apr 07 2026 10:43:41 GMT-0500 (Central Daylight Time),129684.20000004768,A,trai,I,i,150,1,949.3000000715256,128734.89999997616,8102,WL,A,5.0
1,9.596999883651733,learn,50403.00011634827,Tue Apr 07 2026 10:43:41 GMT-0500 (Central Daylight Time),129834.0,A,train,I,n,143,1,1099.1000000238419,128734.89999997616,8102,WL,A,5.0
1,10.329999923706055,learn,49670.000076293945,Tue Apr 07 2026 10:43:41 GMT-0500 (Central Daylight Time),130567.10000002384,A,trainenter,I,enter,722,1,1832.2000000476837,128734.89999997616,8102,WL,A,5.0
1,10.680000066757202,learn,49319.9999332428,Tue Apr 07 2026 10:43:41 GMT-0500 (Central Daylight Time),130916.89999997616,A,a,I,a,333,1,349.1999999284744,130567.70000004768,8102,WL,A,6.0
1,10.864000082015991,learn,49135.99991798401,Tue Apr 07 2026 10:43:41 GMT-0500 (Central Daylight Time),131101.29999995232,A,ap,I,p,174,1,533.5999999046326,130567.70000004768,8102,WL,A,6.0
1,11.029000043869019,learn,48970.99995613098,Tue Apr 07 2026 10:43:41 GMT-0500 (Central Daylight Time),131266.70000004768,A,app,I,p,159,1,699.0,130567.70000004768,8102,WL,A,6.0
1,11.180000066757202,learn,48819.9999332428,Tue Apr 07 2026 10:43:41 GMT-0500 (Central Daylight Time),131417.29999995232,A,appl,I,l,129,1,849.5999999046326,130567.70000004768,8102,WL,A,6.0
1,11.746000051498413,learn,48253.99994850159,Tue Apr 07 2026 10:43:41 GMT-0500 (Central Daylight Time),131983.10000002384,A,apple,I,e,546,1,1415.3999999761581,130567.70000004768,8102,WL,A,6.0
1,12.661999940872192,learn,47338.00005912781,Tue Apr 07 2026 10:43:41 GMT-0500 (Central Daylight Time),132899.60000002384,A,appleenter,I,enter,908,1,2331.899999976158,130567.70000004768,8102,WL,A,6.0
1,13.013000011444092,learn,46986.99998855591,Tue Apr 07 2026 10:43:41 GMT-0500 (Central Daylight Time),133250.60000002384,A,c,I,c,343,1,350.7000000476837,132899.89999997616,8102,WL,A,7.0
1,13.161999940872192,learn,46838.00005912781,Tue Apr 07 2026 10:43:41 GMT-0500 (Central Daylight Time),133399.5,A,ch,I,h,137,1,499.60000002384186,132899.89999997616,8102,WL,A,7.0
1,13.395999908447266,learn,46604.000091552734,Tue Apr 07 2026 10:43:41 GMT-0500 (Central Daylight Time),133633.10000002384,A,chi,I,i,212,1,733.2000000476837,132899.89999997616,8102,WL,A,7.0
1,13.628999948501587,learn,46371.00005149841,Tue Apr 07 2026 10:43:41 GMT-0500 (Central Daylight Time),133866.0,A,chim,I,m,219,1,966.1000000238419,132899.89999997616,8102,WL,A,7.0
1,13.94700002670288,learn,46052.99997329712,Tue Apr 07 2026 10:43:41 GMT-0500 (Central Daylight Time),134184.10000002384,A,chimn,I,n,313,1,1284.2000000476837,132899.89999997616,8102,WL,A,7.0
1,14.09500002861023,learn,45904.99997138977,Tue Apr 07 2026 10:43:41 GMT-0500 (Central Daylight Time),134332.29999995232,A,chimne,I,e,143,1,1432.3999999761581,132899.89999997616,8102,WL,A,7.0
1,14.263000011444092,learn,45736.99998855591,Tue Apr 07 2026 10:43:41 GMT-0500 (Central Daylight Time),134500.29999995232,A,chimney,I,y,152,1,1600.3999999761581,132899.89999997616,8102,WL,A,7.0
1,15.07800006866455,learn,44921.99993133545,Tue Apr 07 2026 10:43:41 GMT-0500 (Central Daylight Time),135315.70000004768,A,chimneyenter,I,enter,799,1,2415.8000000715256,132899.89999997616,8102,WL,A,7.0
1,16.561000108718872,learn,43438.99989128113,Tue Apr 07 2026 10:43:41 GMT-0500 (Central Daylight Time),136798.39999997616,A,k,I,k,1464,1,1482.2999999523163,135316.10000002384,8102,WL,A,8.0
1,16.92799997329712,learn,43072.00002670288,Tue Apr 07 2026 10:43:41 GMT-0500 (Central Daylight Time),137165.0,A,ke,I,e,349,1,1848.8999999761581,135316.10000002384,8102,WL,A,8.0
1,17.094000101089478,learn,42905.99989891052,Tue Apr 07 2026 10:43:41 GMT-0500 (Central Daylight Time),137331.5,A,key,I,y,151,1,2015.3999999761581,135316.10000002384,8102,WL,A,8.0
1,17.74399995803833,learn,42256.00004196167,Tue Apr 07 2026 10:43:41 GMT-0500 (Central Daylight Time),137981.5,A,keyenter,I,enter,640,1,2665.399999976158,135316.10000002384,8102,WL,A,8.0
1,21.759999990463257,learn,38240.00000953674,Tue Apr 07 2026 10:43:41 GMT-0500 (Central Daylight Time),141997.0,A,t,I,t,4005,1,4015.100000023842,137981.89999997616,8102,WL,A,9.0
1,21.943000078201294,learn,38056.999921798706,Tue Apr 07 2026 10:43:41 GMT-0500 (Central Daylight Time),142180.20000004768,A,tr,I,r,167,1,4198.300000071526,137981.89999997616,8102,WL,A,9.0
1,22.2260000705719,learn,37773.9999294281,Tue Apr 07 2026 10:43:41 GMT-0500 (Central Daylight Time),142463.39999997616,A,tra,I,a,271,1,4481.5,137981.89999997616,8102,WL,A,9.0
1,22.375999927520752,learn,37624.00007247925,Tue Apr 07 2026 10:43:41 GMT-0500 (Central Daylight Time),142613.29999995232,A,trai,I,i,140,1,4631.399999976158,137981.89999997616,8102,WL,A,9.0
1,22.55900001525879,learn,37440.99998474121,Tue Apr 07 2026 10:43:41 GMT-0500 (Central Daylight Time),142796.20000004768,A,train,I,n,174,1,4814.300000071526,137981.89999997616,8102,WL,A,9.0
1,22.89299988746643,learn,37107.00011253357,Tue Apr 07 2026 10:43:41 GMT-0500 (Central Daylight Time),143129.70000004768,A,trainenter,I,enter,319,1,5147.800000071526,137981.89999997616,8102,WL,A,9.0
1,26.407999992370605,learn,33592.000007629395,Tue Apr 07 2026 10:43:41 GMT-0500 (Central Daylight Time),146645.5,A,m,I,m,3507,1,3515.5,143130.0,8102,WL,A,10.0
1,26.575000047683716,learn,33424.999952316284,Tue Apr 07 2026 10:43:41 GMT-0500 (Central Daylight Time),146812.0,A,me,I,e,150,1,3682.0,143130.0,8102,WL,A,10.0
1,26.77500009536743,learn,33224.99990463257,Tue Apr 07 2026 10:43:41 GMT-0500 (Central Daylight Time),147012.10000002384,A,mea,I,a,191,1,3882.100000023842,143130.0,8102,WL,A,10.0
1,26.94099998474121,learn,33059.00001525879,Tue Apr 07 2026 10:43:41 GMT-0500 (Central Daylight Time),147178.60000002384,A,mead,I,d,151,1,4048.600000023842,143130.0,8102,WL,A,10.0
1,27.391000032424927,learn,32608.999967575073,Tue Apr 07 2026 10:43:41 GMT-0500 (Central Daylight Time),147628.60000002384,A,meado,I,o,441,1,4498.600000023842,143130.0,8102,WL,A,10.0
1,27.591000080108643,learn,32408.999919891357,Tue Apr 07 2026 10:43:41 GMT-0500 (Central Daylight Time),147828.39999997616,A,meadow,I,w,191,1,4698.399999976158,143130.0,8102,WL,A,10.0
1,28.841000080108643,learn,31158.999919891357,Tue Apr 07 2026 10:43:41 GMT-0500 (Central Daylight Time),149078.0,A,meadowenter,I,enter,1240,1,5948.0,143130.0,8102,WL,A,10.0
1,30.572999954223633,learn,29427.000045776367,Tue Apr 07 2026 10:43:41 GMT-0500 (Central Daylight Time),150810.60000002384,A,b,I,b,1717,1,1732.2000000476837,149078.39999997616,8102,WL,A,11.0
1,30.756999969482422,learn,29243.000030517578,Tue Apr 07 2026 10:43:41 GMT-0500 (Central Daylight Time),150993.89999997616,A,bl,I,l,177,1,1915.5,149078.39999997616,8102,WL,A,11.0
1,31.073999881744385,learn,28926.000118255615,Tue Apr 07 2026 10:43:41 GMT-0500 (Central Daylight Time),151310.79999995232,A,blo,I,o,305,1,2232.399999976158,149078.39999997616,8102,WL,A,11.0
1,31.44000005722046,learn,28559.99994277954,Tue Apr 07 2026 10:43:41 GMT-0500 (Central Daylight Time),151677.29999995232,A,blos,I,s,358,1,2598.899999976158,149078.39999997616,8102,WL,A,11.0
1,31.60599994659424,learn,28394.00005340576,Tue Apr 07 2026 10:43:41 GMT-0500 (Central Daylight Time),151843.60000002384,A,bloss,I,s,158,1,2765.2000000476837,149078.39999997616,8102,WL,A,11.0
1,31.92300009727478,learn,28076.99990272522,Tue Apr 07 2026 10:43:41 GMT-0500 (Central Daylight Time),152160.29999995232,A,blosso,I,o,304,1,3081.899999976158,149078.39999997616,8102,WL,A,11.0
1,32.07299995422363,learn,27927.000045776367,Tue Apr 07 2026 10:43:41 GMT-0500 (Central Daylight Time),152310.10000002384,A,blossom,I,m,139,1,3231.7000000476837,149078.39999997616,8102,WL,A,11.0
1,32.78999996185303,learn,27210.000038146973,Tue Apr 07 2026 10:43:41 GMT-0500 (Central Daylight Time),153026.70000004768,A,blossomenter,I,enter,709,1,3948.3000000715256,149078.39999997616,8102,WL,A,11.0
1,38.22199988365173,learn,21778.000116348267,Tue Apr 07 2026 10:43:41 GMT-0500 (Central Daylight Time),158459.39999997616,A,w,I,w,5426,1,5432.299999952316,153027.10000002384,8102,WL,A,12.0
1,38.37100005149841,learn,21628.999948501587,Tue Apr 07 2026 10:43:41 GMT-0500 (Central Daylight Time),158608.39999997616,A,wh,I,h,128,1,5581.299999952316,153027.10000002384,8102,WL,A,12.0
1,38.47099995613098,learn,21529.00004386902,Tue Apr 07 2026 10:43:41 GMT-0500 (Central Daylight Time),158708.29999995232,A,whi,I,i,84,1,5681.199999928474,153027.10000002384,8102,WL,A,12.0
1,38.63800001144409,learn,21361.99998855591,Tue Apr 07 2026 10:43:41 GMT-0500 (Central Daylight Time),158874.79999995232,A,whis,I,s,151,1,5847.699999928474,153027.10000002384,8102,WL,A,12.0
1,38.854000091552734,learn,21145.999908447266,Tue Apr 07 2026 10:43:41 GMT-0500 (Central Daylight Time),159091.60000002384,A,whist,I,t,202,1,6064.5,153027.10000002384,8102,WL,A,12.0
1,39.22099995613098,learn,20779.00004386902,Tue Apr 07 2026 10:43:41 GMT-0500 (Central Daylight Time),159457.89999997616,A,whistl,I,l,353,1,6430.799999952316,153027.10000002384,8102,WL,A,12.0
1,39.354000091552734,learn,20645.999908447266,Tue Apr 07 2026 10:43:41 GMT-0500 (Central Daylight Time),159591.29999995232,A,whistle,I,e,121,1,6564.199999928474,153027.10000002384,8102,WL,A,12.0
1,40.020999908447266,learn,19979.000091552734,Tue Apr 07 2026 10:43:41 GMT-0500 (Central Daylight Time),160257.70000004768,A,whistleenter,I,enter,653,1,7230.600000023842,153027.10000002384,8102,WL,A,12.0
1,55.3989999294281,learn,4601.000070571899,Tue Apr 07 2026 10:43:41 GMT-0500 (Central Daylight Time),175636.20000004768,A,g,I,g,15362,1,15378.0,160258.20000004768,8102,WL,A,13.0
1,55.53200006484985,learn,4467.9999351501465,Tue Apr 07 2026 10:43:41 GMT-0500 (Central Daylight Time),175769.5,A,go,I,o,126,1,15511.299999952316,160258.20000004768,8102,WL,A,13.0
1,55.848999977111816,learn,4151.000022888184,Tue Apr 07 2026 10:43:41 GMT-0500 (Central Daylight Time),176086.29999995232,A,gol,I,l,299,1,15828.099999904633,160258.20000004768,8102,WL,A,13.0
1,55.96600008010864,learn,4033.9999198913574,Tue Apr 07 2026 10:43:41 GMT-0500 (Central Daylight Time),176202.89999997616,A,gold,I,d,110,1,15944.699999928474,160258.20000004768,8102,WL,A,13.0
1,56.6489999294281,learn,3351.0000705718994,Tue Apr 07 2026 10:43:41 GMT-0500 (Central Daylight Time),176886.0,A,goldenter,I,enter,673,1,16627.799999952316,160258.20000004768,8102,WL,A,13.0
1,60.013999938964844,learn,-13.99993896484375,Tue Apr 07 2026 10:43:41 GMT-0500 (Central Daylight Time),180251.70000004768,A,None,I,None,3360,1,3365.4000000953674,176886.29999995232,8102,WL,A,14.0
2,0.6489999294281006,learn,59351.0000705719,Tue Apr 07 2026 10:43:41 GMT-0500 (Central Daylight Time),257610.5,A,f,I,f,643,1,648.3999999761581,256962.10000002384,8102,WL,A,1.0
2,0.9820001125335693,learn,59017.99988746643,Tue Apr 07 2026 10:43:41 GMT-0500 (Central Daylight Time),257943.79999995232,A,fl,I,l,320,1,981.6999999284744,256962.10000002384,8102,WL,A,1.0
2,1.2320001125335693,learn,58767.99988746643,Tue Apr 07 2026 10:43:41 GMT-0500 (Central Daylight Time),258193.60000002384,A,flo,I,o,244,1,1231.5,256962.10000002384,8102,WL,A,1.0
2,1.4000000953674316,learn,58599.99990463257,Tue Apr 07 2026 10:43:41 GMT-0500 (Central Daylight Time),258361.5,A,flow,I,w,146,1,1399.3999999761581,256962.10000002384,8102,WL,A,1.0
2,1.6990001201629639,learn,58300.999879837036,Tue Apr 07 2026 10:43:41 GMT-0500 (Central Daylight Time),258660.39999997616,A,flowe,I,e,291,1,1698.2999999523163,256962.10000002384,8102,WL,A,1.0
2,1.7980000972747803,learn,58201.99990272522,Tue Apr 07 2026 10:43:41 GMT-0500 (Central Daylight Time),258760.10000002384,A,flower,I,r,79,1,1798.0,256962.10000002384,8102,WL,A,1.0
2,2.2980000972747803,learn,57701.99990272522,Tue Apr 07 2026 10:43:41 GMT-0500 (Central Daylight Time),259260.0,A,flowerenter,I,enter,493,1,2297.899999976158,256962.10000002384,8102,WL,A,1.0
2,2.6649999618530273,learn,57335.00003814697,Tue Apr 07 2026 10:43:41 GMT-0500 (Central Daylight Time),259626.60000002384,A,l,I,l,359,1,366.3000000715256,259260.29999995232,8102,WL,A,2.0
2,3.0480000972747803,learn,56951.99990272522,Tue Apr 07 2026 10:43:41 GMT-0500 (Central Daylight Time),260009.79999995232,A,lo,I,o,369,1,749.5,259260.29999995232,8102,WL,A,2.0
2,3.697999954223633,learn,56302.00004577637,Tue Apr 07 2026 10:43:41 GMT-0500 (Central Daylight Time),260659.60000002384,A,log,I,g,634,1,1399.3000000715256,259260.29999995232,8102,WL,A,2.0
2,4.0309998989105225,learn,55969.00010108948,Tue Apr 07 2026 10:43:41 GMT-0500 (Central Daylight Time),260992.89999997616,A,logenter,I,enter,321,1,1732.6000000238419,259260.29999995232,8102,WL,A,2.0
2,4.38100004196167,learn,55618.99995803833,Tue Apr 07 2026 10:43:41 GMT-0500 (Central Daylight Time),261342.79999995232,A,b,I,b,339,1,349.59999990463257,260993.20000004768,8102,WL,A,3.0
2,4.581000089645386,learn,55418.999910354614,Tue Apr 07 2026 10:43:41 GMT-0500 (Central Daylight Time),261542.79999995232,A,bo,I,o,190,1,549.5999999046326,260993.20000004768,8102,WL,A,3.0
2,4.747999906539917,learn,55252.00009346008,Tue Apr 07 2026 10:43:41 GMT-0500 (Central Daylight Time),261709.60000002384,A,boo,I,o,148,1,716.3999999761581,260993.20000004768,8102,WL,A,3.0
2,4.88100004196167,learn,55118.99995803833,Tue Apr 07 2026 10:43:41 GMT-0500 (Central Daylight Time),261842.39999997616,A,book,I,k,126,1,849.1999999284744,260993.20000004768,8102,WL,A,3.0
2,5.7799999713897705,learn,54220.00002861023,Tue Apr 07 2026 10:43:41 GMT-0500 (Central Daylight Time),262742.0,A,bookenter,I,enter,889,1,1748.7999999523163,260993.20000004768,8102,WL,A,3.0
2,5.980000019073486,learn,54019.999980926514,Tue Apr 07 2026 10:43:41 GMT-0500 (Central Daylight Time),262941.89999997616,A,r,I,r,189,1,199.69999992847443,262742.2000000477,8102,WL,A,4.0
2,6.180999994277954,learn,53819.000005722046,Tue Apr 07 2026 10:43:41 GMT-0500 (Central Daylight Time),263142.2000000477,A,ra,I,a,181,1,400.0,262742.2000000477,8102,WL,A,4.0
2,6.3470001220703125,learn,53652.99987792969,Tue Apr 07 2026 10:43:41 GMT-0500 (Central Daylight Time),263309.0,A,rat,I,t,149,1,566.7999999523163,262742.2000000477,8102,WL,A,4.0
2,6.4649999141693115,learn,53535.00008583069,Tue Apr 07 2026 10:43:41 GMT-0500 (Central Daylight Time),263426.7000000477,A,ratt,I,t,102,1,684.5,262742.2000000477,8102,WL,A,4.0
2,6.647000074386597,learn,53352.9999256134,Tue Apr 07 2026 10:43:41 GMT-0500 (Central Daylight Time),263608.7000000477,A,rattl,I,l,170,1,866.5,262742.2000000477,8102,WL,A,4.0
2,6.897000074386597,learn,53102.9999256134,Tue Apr 07 2026 10:43:41 GMT-0500 (Central Daylight Time),263858.7000000477,A,rattle,I,e,243,1,1116.5,262742.2000000477,8102,WL,A,4.0
2,8.064000129699707,learn,51935.99987030029,Tue Apr 07 2026 10:43:41 GMT-0500 (Central Daylight Time),265025.2999999523,A,rattleenter,I,enter,1154,1,2283.0999999046326,262742.2000000477,8102,WL,A,4.0
2,8.36299991607666,learn,51637.00008392334,Tue Apr 07 2026 10:43:41 GMT-0500 (Central Daylight Time),265324.7999999523,A,t,I,t,290,1,299.09999990463257,265025.7000000477,8102,WL,A,5.0
2,8.595999956130981,learn,51404.00004386902,Tue Apr 07 2026 10:43:41 GMT-0500 (Central Daylight Time),265558.10000002384,A,tr,I,r,224,1,532.3999999761581,265025.7000000477,8102,WL,A,5.0
2,8.746999979019165,learn,51253.000020980835,Tue Apr 07 2026 10:43:41 GMT-0500 (Central Daylight Time),265708.2999999523,A,tra,I,a,134,1,682.5999999046326,265025.7000000477,8102,WL,A,5.0
2,8.845999956130981,learn,51154.00004386902,Tue Apr 07 2026 10:43:41 GMT-0500 (Central Daylight Time),265808.10000002384,A,trai,I,i,79,1,782.3999999761581,265025.7000000477,8102,WL,A,5.0
2,8.963000059127808,learn,51036.99994087219,Tue Apr 07 2026 10:43:41 GMT-0500 (Central Daylight Time),265924.7000000477,A,train,I,n,107,1,899.0,265025.7000000477,8102,WL,A,5.0
2,9.36299991607666,learn,50637.00008392334,Tue Apr 07 2026 10:43:41 GMT-0500 (Central Daylight Time),266324.5,A,trainenter,I,enter,391,1,1298.7999999523163,265025.7000000477,8102,WL,A,5.0
2,9.61299991607666,learn,50387.00008392334,Tue Apr 07 2026 10:43:41 GMT-0500 (Central Daylight Time),266574.2999999523,A,c,I,c,240,1,249.5,266324.7999999523,8102,WL,A,6.0
2,9.845999956130981,learn,50154.00004386902,Tue Apr 07 2026 10:43:41 GMT-0500 (Central Daylight Time),266807.89999997616,A,ch,I,h,213,1,483.10000002384186,266324.7999999523,8102,WL,A,6.0
2,10.013000011444092,learn,49986.99998855591,Tue Apr 07 2026 10:43:41 GMT-0500 (Central Daylight Time),266974.2999999523,A,chi,I,i,149,1,649.5,266324.7999999523,8102,WL,A,6.0
2,10.213000059127808,learn,49786.99994087219,Tue Apr 07 2026 10:43:41 GMT-0500 (Central Daylight Time),267175.10000002384,A,chim,I,m,190,1,850.3000000715256,266324.7999999523,8102,WL,A,6.0
2,10.496000051498413,learn,49503.99994850159,Tue Apr 07 2026 10:43:41 GMT-0500 (Central Daylight Time),267457.7999999523,A,chimn,I,n,269,1,1133.0,266324.7999999523,8102,WL,A,6.0
2,10.661999940872192,learn,49338.00005912781,Tue Apr 07 2026 10:43:41 GMT-0500 (Central Daylight Time),267624.0,A,chimne,I,e,146,1,1299.2000000476837,266324.7999999523,8102,WL,A,6.0
2,10.845999956130981,learn,49154.00004386902,Tue Apr 07 2026 10:43:41 GMT-0500 (Central Daylight Time),267807.60000002384,A,chimney,I,y,172,1,1482.8000000715256,266324.7999999523,8102,WL,A,6.0
2,11.895999908447266,learn,48104.000091552734,Tue Apr 07 2026 10:43:41 GMT-0500 (Central Daylight Time),268858.2000000477,A,chimneyenter,I,enter,1044,1,2533.4000000953674,266324.7999999523,8102,WL,A,6.0
2,12.279000043869019,learn,47720.99995613098,Tue Apr 07 2026 10:43:41 GMT-0500 (Central Daylight Time),269240.39999997616,A,g,I,g,377,1,381.89999997615814,268858.5,8102,WL,A,7.0
2,12.428999900817871,learn,47571.00009918213,Tue Apr 07 2026 10:43:41 GMT-0500 (Central Daylight Time),269390.5,A,go,I,o,139,1,532.0,268858.5,8102,WL,A,7.0
2,12.67799997329712,learn,47322.00002670288,Tue Apr 07 2026 10:43:41 GMT-0500 (Central Daylight Time),269640.2000000477,A,gol,I,l,237,1,781.7000000476837,268858.5,8102,WL,A,7.0
2,12.928999900817871,learn,47071.00009918213,Tue Apr 07 2026 10:43:41 GMT-0500 (Central Daylight Time),269890.2999999523,A,gold,I,d,236,1,1031.7999999523163,268858.5,8102,WL,A,7.0
2,13.394999980926514,learn,46605.000019073486,Tue Apr 07 2026 10:43:41 GMT-0500 (Central Daylight Time),270356.5,A,goldenter,I,enter,449,1,1498.0,268858.5,8102,WL,A,7.0
2,13.611999988555908,learn,46388.00001144409,Tue Apr 07 2026 10:43:41 GMT-0500 (Central Daylight Time),270573.2000000477,A,s,I,s,199,1,216.30000007152557,270356.89999997616,8102,WL,A,8.0
2,13.995000123977661,learn,46004.99987602234,Tue Apr 07 2026 10:43:41 GMT-0500 (Central Daylight Time),270956.2999999523,A,sa,I,a,366,1,599.3999999761581,270356.89999997616,8102,WL,A,8.0
2,14.16100001335144,learn,45838.99998664856,Tue Apr 07 2026 10:43:41 GMT-0500 (Central Daylight Time),271123.0,A,sal,I,l,160,1,766.1000000238419,270356.89999997616,8102,WL,A,8.0
2,14.34500002861023,learn,45654.99997138977,Tue Apr 07 2026 10:43:41 GMT-0500 (Central Daylight Time),271306.2999999523,A,salt,I,t,177,1,949.3999999761581,270356.89999997616,8102,WL,A,8.0
2,15.260999917984009,learn,44739.00008201599,Tue Apr 07 2026 10:43:41 GMT-0500 (Central Daylight Time),272222.60000002384,A,saltenter,I,enter,896,1,1865.7000000476837,270356.89999997616,8102,WL,A,8.0
2,18.89300012588501,learn,41106.99987411499,Tue Apr 07 2026 10:43:41 GMT-0500 (Central Daylight Time),275854.7000000477,A,m,I,m,3621,1,3631.8000000715256,272222.89999997616,8102,WL,A,9.0
2,19.026000022888184,learn,40973.99997711182,Tue Apr 07 2026 10:43:41 GMT-0500 (Central Daylight Time),275988.2000000477,A,me,I,e,117,1,3765.3000000715256,272222.89999997616,8102,WL,A,9.0
2,19.24399995803833,learn,40756.00004196167,Tue Apr 07 2026 10:43:41 GMT-0500 (Central Daylight Time),276205.60000002384,A,mea,I,a,207,1,3982.7000000476837,272222.89999997616,8102,WL,A,9.0
2,19.375999927520752,learn,40624.00007247925,Tue Apr 07 2026 10:43:41 GMT-0500 (Central Daylight Time),276338.0,A,mead,I,d,118,1,4115.100000023842,272222.89999997616,8102,WL,A,9.0
2,19.776000022888184,learn,40223.99997711182,Tue Apr 07 2026 10:43:41 GMT-0500 (Central Daylight Time),276738.10000002384,A,meado,I,o,394,1,4515.200000047684,272222.89999997616,8102,WL,A,9.0
2,20.026000022888184,learn,39973.99997711182,Tue Apr 07 2026 10:43:41 GMT-0500 (Central Daylight Time),276987.89999997616,A,meadow,I,w,233,1,4765.0,272222.89999997616,8102,WL,A,9.0
2,21.259000062942505,learn,38740.999937057495,Tue Apr 07 2026 10:43:41 GMT-0500 (Central Daylight Time),278221.0,A,meadowenter,I,enter,1215,1,5998.100000023842,272222.89999997616,8102,WL,A,9.0
2,23.575000047683716,learn,36424.999952316284,Tue Apr 07 2026 10:43:41 GMT-0500 (Central Daylight Time),280536.5,A,r,I,r,2310,1,2315.100000023842,278221.39999997616,8102,WL,A,10.0
2,23.710000038146973,learn,36289.99996185303,Tue Apr 07 2026 10:43:41 GMT-0500 (Central Daylight Time),280671.39999997616,A,ru,I,u,123,1,2450.0,278221.39999997616,8102,WL,A,10.0
2,23.924999952316284,learn,36075.000047683716,Tue Apr 07 2026 10:43:41 GMT-0500 (Central Daylight Time),280886.60000002384,A,rug,I,g,196,1,2665.2000000476837,278221.39999997616,8102,WL,A,10.0
2,25.075000047683716,learn,34924.999952316284,Tue Apr 07 2026 10:43:41 GMT-0500 (Central Daylight Time),282036.39999997616,A,rugenter,I,enter,1133,1,3815.0,278221.39999997616,8102,WL,A,10.0
2,27.740000009536743,learn,32259.999990463257,Tue Apr 07 2026 10:43:41 GMT-0500 (Central Daylight Time),284702.0,A,c,I,c,2655,1,2665.2999999523163,282036.7000000477,8102,WL,A,11.0
2,27.957000017166138,learn,32042.999982833862,Tue Apr 07 2026 10:43:41 GMT-0500 (Central Daylight Time),284918.7999999523,A,ch,I,h,207,1,2882.0999999046326,282036.7000000477,8102,WL,A,11.0
2,28.10700011253357,learn,31892.99988746643,Tue Apr 07 2026 10:43:41 GMT-0500 (Central Daylight Time),285068.7000000477,A,chi,I,i,142,1,3032.0,282036.7000000477,8102,WL,A,11.0
2,28.625,learn,31375.0,Tue Apr 07 2026 10:43:41 GMT-0500 (Central Daylight Time),285586.39999997616,A,chim,I,m,510,1,3549.6999999284744,282036.7000000477,8102,WL,A,11.0
2,30.072999954223633,learn,29927.000045776367,Tue Apr 07 2026 10:43:41 GMT-0500 (Central Daylight Time),287034.89999997616,A,chimn,I,n,1442,1,4998.199999928474,282036.7000000477,8102,WL,A,11.0
2,30.35599994659424,learn,29644.00005340576,Tue Apr 07 2026 10:43:41 GMT-0500 (Central Daylight Time),287317.89999997616,A,chimne,I,e,273,1,5281.199999928474,282036.7000000477,8102,WL,A,11.0
2,30.69000005722046,learn,29309.99994277954,Tue Apr 07 2026 10:43:41 GMT-0500 (Central Daylight Time),287651.2999999523,A,chimney,I,y,318,1,5614.599999904633,282036.7000000477,8102,WL,A,11.0
2,32.47200012207031,learn,27527.999877929688,Tue Apr 07 2026 10:43:41 GMT-0500 (Central Daylight Time),289434.10000002384,A,chimneyenter,I,enter,1769,1,7397.399999976158,282036.7000000477,8102,WL,A,11.0
2,32.789000034332275,learn,27210.999965667725,Tue Apr 07 2026 10:43:41 GMT-0500 (Central Daylight Time),289750.5,A,b,I,b,305,1,315.89999997615814,289434.60000002384,8102,WL,A,12.0
2,32.97200012207031,learn,27027.999877929688,Tue Apr 07 2026 10:43:41 GMT-0500 (Central Daylight Time),289933.89999997616,A,bo,I,o,166,1,499.2999999523163,289434.60000002384,8102,WL,A,12.0
2,33.121999979019165,learn,26878.000020980835,Tue Apr 07 2026 10:43:41 GMT-0500 (Central Daylight Time),290083.7000000477,A,boo,I,o,134,1,649.1000000238419,289434.60000002384,8102,WL,A,12.0
2,33.23900008201599,learn,26760.99991798401,Tue Apr 07 2026 10:43:41 GMT-0500 (Central Daylight Time),290200.39999997616,A,book,I,k,96,1,765.7999999523163,289434.60000002384,8102,WL,A,12.0
2,33.50500011444092,learn,26494.999885559082,Tue Apr 07 2026 10:43:41 GMT-0500 (Central Daylight Time),290466.7000000477,A,bookenter,I,enter,260,1,1032.1000000238419,289434.60000002384,8102,WL,A,12.0
2,39.13700008392334,learn,20862.99991607666,Tue Apr 07 2026 10:43:41 GMT-0500 (Central Daylight Time),296098.60000002384,A,b,I,b,5626,1,5631.700000047684,290466.89999997616,8102,WL,A,13.0
2,39.28699994087219,learn,20713.000059127808,Tue Apr 07 2026 10:43:41 GMT-0500 (Central Daylight Time),296248.60000002384,A,bu,I,u,137,1,5781.700000047684,290466.89999997616,8102,WL,A,13.0
2,39.4539999961853,learn,20546.000003814697,Tue Apr 07 2026 10:43:41 GMT-0500 (Central Daylight Time),296415.2000000477,A,but,I,t,145,1,5948.300000071526,290466.89999997616,8102,WL,A,13.0
2,39.6029999256134,learn,20397.000074386597,Tue Apr 07 2026 10:43:41 GMT-0500 (Central Daylight Time),296565.10000002384,A,butt,I,t,132,1,6098.200000047684,290466.89999997616,8102,WL,A,13.0
2,39.72000002861023,learn,20279.99997138977,Tue Apr 07 2026 10:43:41 GMT-0500 (Central Daylight Time),296681.89999997616,A,butto,I,o,102,1,6215.0,290466.89999997616,8102,WL,A,13.0
2,39.920000076293945,learn,20079.999923706055,Tue Apr 07 2026 10:43:41 GMT-0500 (Central Daylight Time),296881.89999997616,A,button,I,n,185,1,6415.0,290466.89999997616,8102,WL,A,13.0
2,41.45300006866455,learn,18546.99993133545,Tue Apr 07 2026 10:43:41 GMT-0500 (Central Daylight Time),298414.60000002384,A,buttonenter,I,enter,1522,1,7947.700000047684,290466.89999997616,8102,WL,A,13.0
2,43.70199990272522,learn,16298.00009727478,Tue Apr 07 2026 10:43:41 GMT-0500 (Central Daylight Time),300664.0,A,k,I,k,2238,1,2249.100000023842,298414.89999997616,8102,WL,A,14.0
2,43.93499994277954,learn,16065.000057220459,Tue Apr 07 2026 10:43:41 GMT-0500 (Central Daylight Time),300897.2999999523,A,ke,I,e,220,1,2482.399999976158,298414.89999997616,8102,WL,A,14.0
2,44.13499999046326,learn,15865.000009536743,Tue Apr 07 2026 10:43:41 GMT-0500 (Central Daylight Time),301097.10000002384,A,key,I,y,186,1,2682.2000000476837,298414.89999997616,8102,WL,A,14.0
2,45.3529999256134,learn,14647.000074386597,Tue Apr 07 2026 10:43:41 GMT-0500 (Central Daylight Time),302314.5,A,keyenter,I,enter,1204,1,3899.600000023842,298414.89999997616,8102,WL,A,14.0
2,46.818000078201294,learn,13181.999921798706,Tue Apr 07 2026 10:43:41 GMT-0500 (Central Daylight Time),303779.5,A,w,I,w,1456,1,1464.5,302315.0,8102,WL,A,15.0
2,47.06699991226196,learn,12933.000087738037,Tue Apr 07 2026 10:43:41 GMT-0500 (Central Daylight Time),304029.2000000477,A,wh,I,h,240,1,1714.2000000476837,302315.0,8102,WL,A,15.0
2,47.20099997520447,learn,12799.000024795532,Tue Apr 07 2026 10:43:41 GMT-0500 (Central Daylight Time),304162.7000000477,A,whi,I,i,126,1,1847.7000000476837,302315.0,8102,WL,A,15.0
2,47.3510000705719,learn,12648.9999294281,Tue Apr 07 2026 10:43:41 GMT-0500 (Central Daylight Time),304312.7999999523,A,whis,I,s,129,1,1997.7999999523163,302315.0,8102,WL,A,15.0
2,47.58400011062622,learn,12415.99988937378,Tue Apr 07 2026 10:43:41 GMT-0500 (Central Daylight Time),304546.0,A,whist,I,t,227,1,2231.0,302315.0,8102,WL,A,15.0
2,47.801000118255615,learn,12198.999881744385,Tue Apr 07 2026 10:43:41 GMT-0500 (Central Daylight Time),304762.7000000477,A,whistl,I,l,201,1,2447.7000000476837,302315.0,8102,WL,A,15.0
2,47.96799993515015,learn,12032.000064849854,Tue Apr 07 2026 10:43:41 GMT-0500 (Central Daylight Time),304929.5,A,whistle,I,e,154,1,2614.5,302315.0,8102,WL,A,15.0
2,48.93499994277954,learn,11065.000057220459,Tue Apr 07 2026 10:43:41 GMT-0500 (Central Daylight Time),305896.7000000477,A,whistleenter,I,enter,955,1,3581.7000000476837,302315.0,8102,WL,A,15.0
3,0.7849998474121094,learn,59215.00015258789,Tue Apr 07 2026 10:43:41 GMT-0500 (Central Daylight Time),374042.0,A,g,I,g,771,1,784.2000000476837,373257.7999999523,8102,WL,A,1.0
3,1.0169999599456787,learn,58983.00004005432,Tue Apr 07 2026 10:43:41 GMT-0500 (Central Daylight Time),374274.0,A,go,I,o,226,1,1016.2000000476837,373257.7999999523,8102,WL,A,1.0
3,1.2999999523162842,learn,58700.000047683716,Tue Apr 07 2026 10:43:41 GMT-0500 (Central Daylight Time),374557.60000002384,A,gol,I,l,275,1,1299.8000000715256,373257.7999999523,8102,WL,A,1.0
3,1.8009998798370361,learn,58199.000120162964,Tue Apr 07 2026 10:43:41 GMT-0500 (Central Daylight Time),375058.2000000477,A,gold,I,d,479,1,1800.4000000953674,373257.7999999523,8102,WL,A,1.0
3,2.049999952316284,learn,57950.000047683716,Tue Apr 07 2026 10:43:41 GMT-0500 (Central Daylight Time),375307.10000002384,A,goldenter,I,enter,242,1,2049.3000000715256,373257.7999999523,8102,WL,A,1.0
3,2.3499999046325684,learn,57650.00009536743,Tue Apr 07 2026 10:43:41 GMT-0500 (Central Daylight Time),375607.0,A,r,I,r,290,1,299.5,375307.5,8102,WL,A,2.0
3,2.75,learn,57250.0,Tue Apr 07 2026 10:43:41 GMT-0500 (Central Daylight Time),376006.7999999523,A,ra,I,a,381,1,699.2999999523163,375307.5,8102,WL,A,2.0
3,2.9670000076293945,learn,57032.999992370605,Tue Apr 07 2026 10:43:41 GMT-0500 (Central Daylight Time),376223.7999999523,A,rat,I,t,206,1,916.2999999523163,375307.5,8102,WL,A,2.0
3,3.132999897003174,learn,56867.000102996826,Tue Apr 07 2026 10:43:41 GMT-0500 (Central Daylight Time),376390.10000002384,A,ratt,I,t,148,1,1082.6000000238419,375307.5,8102,WL,A,2.0
3,3.382999897003174,learn,56617.000102996826,Tue Apr 07 2026 10:43:41 GMT-0500 (Central Daylight Time),376640.10000002384,A,rattl,I,l,237,1,1332.6000000238419,375307.5,8102,WL,A,2.0
3,3.700000047683716,learn,56299.999952316284,Tue Apr 07 2026 10:43:41 GMT-0500 (Central Daylight Time),376956.7000000477,A,rattle,I,e,301,1,1649.2000000476837,375307.5,8102,WL,A,2.0
3,4.948999881744385,learn,55051.000118255615,Tue Apr 07 2026 10:43:41 GMT-0500 (Central Daylight Time),378206.2000000477,A,rattleenter,I,enter,1232,1,2898.7000000476837,375307.5,8102,WL,A,2.0
3,5.414999961853027,learn,54585.00003814697,Tue Apr 07 2026 10:43:41 GMT-0500 (Central Daylight Time),378672.5,A,f,I,f,454,1,466.0,378206.5,8102,WL,A,3.0
3,5.582000017166138,learn,54417.99998283386,Tue Apr 07 2026 10:43:41 GMT-0500 (Central Daylight Time),378839.60000002384,A,fi,I,i,147,1,633.1000000238419,378206.5,8102,WL,A,3.0
3,5.73199987411499,learn,54268.00012588501,Tue Apr 07 2026 10:43:41 GMT-0500 (Central Daylight Time),378989.39999997616,A,fin,I,n,132,1,782.8999999761581,378206.5,8102,WL,A,3.0
3,5.815999984741211,learn,54184.00001525879,Tue Apr 07 2026 10:43:41 GMT-0500 (Central Daylight Time),379072.89999997616,A,fing,I,g,79,1,866.3999999761581,378206.5,8102,WL,A,3.0
3,5.998999834060669,learn,54001.00016593933,Tue Apr 07 2026 10:43:41 GMT-0500 (Central Daylight Time),379255.89999997616,A,finge,I,e,171,1,1049.3999999761581,378206.5,8102,WL,A,3.0
3,6.115000009536743,learn,53884.99999046326,Tue Apr 07 2026 10:43:41 GMT-0500 (Central Daylight Time),379372.39999997616,A,finger,I,r,107,1,1165.8999999761581,378206.5,8102,WL,A,3.0
3,6.431999921798706,learn,53568.000078201294,Tue Apr 07 2026 10:43:41 GMT-0500 (Central Daylight Time),379689.2999999523,A,fingerenter,I,enter,312,1,1482.7999999523163,378206.5,8102,WL,A,3.0
3,6.948999881744385,learn,53051.000118255615,Tue Apr 07 2026 10:43:41 GMT-0500 (Central Daylight Time),380205.7000000477,A,h,I,h,507,1,516.2000000476837,379689.5,8102,WL,A,4.0
3,7.06499981880188,learn,52935.00018119812,Tue Apr 07 2026 10:43:41 GMT-0500 (Central Daylight Time),380322.60000002384,A,ha,I,a,110,1,633.1000000238419,379689.5,8102,WL,A,4.0
3,7.297999858856201,learn,52702.0001411438,Tue Apr 07 2026 10:43:41 GMT-0500 (Central Daylight Time),380555.5,A,har,I,r,225,1,866.0,379689.5,8102,WL,A,4.0
3,7.781999826431274,learn,52218.000173568726,Tue Apr 07 2026 10:43:41 GMT-0500 (Central Daylight Time),381038.89999997616,A,harp,I,p,472,1,1349.3999999761581,379689.5,8102,WL,A,4.0
3,8.23199987411499,learn,51768.00012588501,Tue Apr 07 2026 10:43:41 GMT-0500 (Central Daylight Time),381488.7000000477,A,harpenter,I,enter,429,1,1799.2000000476837,379689.5,8102,WL,A,4.0
3,8.71399998664856,learn,51286.00001335144,Tue Apr 07 2026 10:43:41 GMT-0500 (Central Daylight Time),381971.5,A,b,I,b,467,1,482.5,381489.0,8102,WL,A,5.0
3,8.964999914169312,learn,51035.00008583069,Tue Apr 07 2026 10:43:41 GMT-0500 (Central Daylight Time),382221.7000000477,A,bo,I,o,232,1,732.7000000476837,381489.0,8102,WL,A,5.0
3,9.164999961853027,learn,50835.00003814697,Tue Apr 07 2026 10:43:41 GMT-0500 (Central Daylight Time),382421.7999999523,A,boo,I,o,183,1,932.7999999523163,381489.0,8102,WL,A,5.0
3,9.313999891281128,learn,50686.00010871887,Tue Apr 07 2026 10:43:41 GMT-0500 (Central Daylight Time),382571.2999999523,A,book,I,k,142,1,1082.2999999523163,381489.0,8102,WL,A,5.0
3,9.96399998664856,learn,50036.00001335144,Tue Apr 07 2026 10:43:41 GMT-0500 (Central Daylight Time),383221.39999997616,A,bookenter,I,enter,633,1,1732.3999999761581,381489.0,8102,WL,A,5.0
3,10.38100004196167,learn,49618.99995803833,Tue Apr 07 2026 10:43:41 GMT-0500 (Central Daylight Time),383637.89999997616,A,f,I,f,399,1,416.10000002384186,383221.7999999523,8102,WL,A,6.0
3,10.54699993133545,learn,49453.00006866455,Tue Apr 07 2026 10:43:41 GMT-0500 (Central Daylight Time),383804.5,A,fl,I,l,159,1,582.7000000476837,383221.7999999523,8102,WL,A,6.0
3,10.79699993133545,learn,49203.00006866455,Tue Apr 07 2026 10:43:41 GMT-0500 (Central Daylight Time),384054.39999997616,A,flo,I,o,231,1,832.6000000238419,383221.7999999523,8102,WL,A,6.0
3,10.896999835968018,learn,49103.00016403198,Tue Apr 07 2026 10:43:41 GMT-0500 (Central Daylight Time),384154.2999999523,A,flow,I,w,85,1,932.5,383221.7999999523,8102,WL,A,6.0
3,11.13100004196167,learn,48868.99995803833,Tue Apr 07 2026 10:43:41 GMT-0500 (Central Daylight Time),384387.7999999523,A,flowe,I,e,226,1,1166.0,383221.7999999523,8102,WL,A,6.0
3,11.246999979019165,learn,48753.000020980835,Tue Apr 07 2026 10:43:41 GMT-0500 (Central Daylight Time),384504.10000002384,A,flower,I,r,96,1,1282.3000000715256,383221.7999999523,8102,WL,A,6.0
3,11.71399998664856,learn,48286.00001335144,Tue Apr 07 2026 10:43:41 GMT-0500 (Central Daylight Time),384970.89999997616,A,flowerenter,I,enter,459,1,1749.1000000238419,383221.7999999523,8102,WL,A,6.0
3,12.079999923706055,learn,47920.000076293945,Tue Apr 07 2026 10:43:41 GMT-0500 (Central Daylight Time),385337.39999997616,A,t,I,t,352,1,366.1999999284744,384971.2000000477,8102,WL,A,7.0
3,12.29699993133545,learn,47703.00006866455,Tue Apr 07 2026 10:43:41 GMT-0500 (Central Daylight Time),385554.10000002384,A,tr,I,r,210,1,582.8999999761581,384971.2000000477,8102,WL,A,7.0
3,12.46399998664856,learn,47536.00001335144,Tue Apr 07 2026 10:43:41 GMT-0500 (Central Daylight Time),385720.89999997616,A,tra,I,a,163,1,749.6999999284744,384971.2000000477,8102,WL,A,7.0
3,12.613999843597412,learn,47386.00015640259,Tue Apr 07 2026 10:43:41 GMT-0500 (Central Daylight Time),385870.7999999523,A,trai,I,i,132,1,899.5999999046326,384971.2000000477,8102,WL,A,7.0
3,12.763000011444092,learn,47236.99998855591,Tue Apr 07 2026 10:43:41 GMT-0500 (Central Daylight Time),386020.2999999523,A,train,I,n,140,1,1049.0999999046326,384971.2000000477,8102,WL,A,7.0
3,13.36299991607666,learn,46637.00008392334,Tue Apr 07 2026 10:43:41 GMT-0500 (Central Daylight Time),386620.2999999523,A,trainenter,I,enter,592,1,1649.0999999046326,384971.2000000477,8102,WL,A,7.0
3,13.69700002670288,learn,46302.99997329712,Tue Apr 07 2026 10:43:41 GMT-0500 (Central Daylight Time),386954.39999997616,A,r,I,r,327,1,333.6999999284744,386620.7000000477,8102,WL,A,8.0
3,13.980000019073486,learn,46019.999980926514,Tue Apr 07 2026 10:43:41 GMT-0500 (Central Daylight Time),387236.7000000477,A,ru,I,u,273,1,616.0,386620.7000000477,8102,WL,A,8.0
3,14.263000011444092,learn,45736.99998855591,Tue Apr 07 2026 10:43:41 GMT-0500 (Central Daylight Time),387520.0,A,rug,I,g,263,1,899.2999999523163,386620.7000000477,8102,WL,A,8.0
3,15.078999996185303,learn,44921.0000038147,Tue Apr 07 2026 10:43:41 GMT-0500 (Central Daylight Time),388336.60000002384,A,rugenter,I,enter,797,1,1715.8999999761581,386620.7000000477,8102,WL,A,8.0
3,15.496000051498413,learn,44503.99994850159,Tue Apr 07 2026 10:43:41 GMT-0500 (Central Daylight Time),388753.0,A,l,I,l,396,1,416.10000002384186,388336.89999997616,8102,WL,A,9.0
3,15.728999853134155,learn,44271.000146865845,Tue Apr 07 2026 10:43:41 GMT-0500 (Central Daylight Time),388986.39999997616,A,lo,I,o,228,1,649.5,388336.89999997616,8102,WL,A,9.0
3,16.078999996185303,learn,43921.0000038147,Tue Apr 07 2026 10:43:41 GMT-0500 (Central Daylight Time),389336.10000002384,A,log,I,g,329,1,999.2000000476837,388336.89999997616,8102,WL,A,9.0
3,17.42799997329712,learn,42572.00002670288,Tue Apr 07 2026 10:43:41 GMT-0500 (Central Daylight Time),390685.60000002384,A,logenter,I,enter,1331,1,2348.7000000476837,388336.89999997616,8102,WL,A,9.0
3,20.460999965667725,learn,39539.000034332275,Tue Apr 07 2026 10:43:41 GMT-0500 (Central Daylight Time),393718.10000002384,A,k,I,k,3014,1,3032.2000000476837,390685.89999997616,8102,WL,A,10.0
3,21.293999910354614,learn,38706.000089645386,Tue Apr 07 2026 10:43:41 GMT-0500 (Central Daylight Time),394551.2000000477,A,ke,I,e,814,1,3865.3000000715256,390685.89999997616,8102,WL,A,10.0
3,21.460999965667725,learn,38539.000034332275,Tue Apr 07 2026 10:43:41 GMT-0500 (Central Daylight Time),394717.89999997616,A,key,I,y,148,1,4032.0,390685.89999997616,8102,WL,A,10.0
3,21.793999910354614,learn,38206.000089645386,Tue Apr 07 2026 10:43:41 GMT-0500 (Central Daylight Time),395051.0,A,keyenter,I,enter,319,1,4365.100000023842,390685.89999997616,8102,WL,A,10.0
3,22.177000045776367,learn,37822.99995422363,Tue Apr 07 2026 10:43:41 GMT-0500 (Central Daylight Time),395434.10000002384,A,a,I,a,370,1,382.8000000715256,395051.2999999523,8102,WL,A,11.0
3,22.39400005340576,learn,37605.99994659424,Tue Apr 07 2026 10:43:41 GMT-0500 (Central Daylight Time),395650.7000000477,A,ap,I,p,210,1,599.4000000953674,395051.2999999523,8102,WL,A,11.0
3,22.560999870300293,learn,37439.00012969971,Tue Apr 07 2026 10:43:41 GMT-0500 (Central Daylight Time),395818.39999997616,A,app,I,p,161,1,767.1000000238419,395051.2999999523,8102,WL,A,11.0
3,22.694000005722046,learn,37305.999994277954,Tue Apr 07 2026 10:43:41 GMT-0500 (Central Daylight Time),395950.7999999523,A,appl,I,l,121,1,899.5,395051.2999999523,8102,WL,A,11.0
3,23.626999855041504,learn,36373.000144958496,Tue Apr 07 2026 10:43:41 GMT-0500 (Central Daylight Time),396883.7999999523,A,apple,I,e,926,1,1832.5,395051.2999999523,8102,WL,A,11.0
3,25.109999895095825,learn,34890.000104904175,Tue Apr 07 2026 10:43:41 GMT-0500 (Central Daylight Time),398366.60000002384,A,appleenter,I,enter,1473,1,3315.3000000715256,395051.2999999523,8102,WL,A,11.0
3,28.075000047683716,learn,31924.999952316284,Tue Apr 07 2026 10:43:41 GMT-0500 (Central Daylight Time),401332.39999997616,A,c,I,c,2950,1,2965.5,398366.89999997616,8102,WL,A,12.0
3,28.258999824523926,learn,31741.000175476074,Tue Apr 07 2026 10:43:41 GMT-0500 (Central Daylight Time),401515.7000000477,A,ch,I,h,168,1,3148.8000000715256,398366.89999997616,8102,WL,A,12.0
3,28.441999912261963,learn,31558.000087738037,Tue Apr 07 2026 10:43:41 GMT-0500 (Central Daylight Time),401698.7999999523,A,chi,I,i,168,1,3331.899999976158,398366.89999997616,8102,WL,A,12.0
3,28.674999952316284,learn,31325.000047683716,Tue Apr 07 2026 10:43:41 GMT-0500 (Central Daylight Time),401932.2999999523,A,chim,I,m,226,1,3565.399999976158,398366.89999997616,8102,WL,A,12.0
3,30.240999937057495,learn,29759.000062942505,Tue Apr 07 2026 10:43:41 GMT-0500 (Central Daylight Time),403498.2000000477,A,chimn,I,n,1552,1,5131.300000071526,398366.89999997616,8102,WL,A,12.0
3,30.657999992370605,learn,29342.000007629395,Tue Apr 07 2026 10:43:41 GMT-0500 (Central Daylight Time),403914.7000000477,A,chimne,I,e,401,1,5547.800000071526,398366.89999997616,8102,WL,A,12.0
3,30.840999841690063,learn,29159.000158309937,Tue Apr 07 2026 10:43:41 GMT-0500 (Central Daylight Time),404098.2000000477,A,chimney,I,y,170,1,5731.300000071526,398366.89999997616,8102,WL,A,12.0
3,32.72499990463257,learn,27275.00009536743,Tue Apr 07 2026 10:43:41 GMT-0500 (Central Daylight Time),405982.0,A,chimneyenter,I,enter,1865,1,7615.100000023842,398366.89999997616,8102,WL,A,12.0
3,32.95700001716614,learn,27042.999982833862,Tue Apr 07 2026 10:43:41 GMT-0500 (Central Daylight Time),406214.2000000477,A,w,I,w,222,1,232.0,405982.2000000477,8102,WL,A,13.0
3,33.12399983406067,learn,26876.00016593933,Tue Apr 07 2026 10:43:41 GMT-0500 (Central Daylight Time),406380.89999997616,A,wh,I,h,149,1,398.6999999284744,405982.2000000477,8102,WL,A,13.0
3,33.24000000953674,learn,26759.999990463257,Tue Apr 07 2026 10:43:41 GMT-0500 (Central Daylight Time),406497.2000000477,A,whi,I,i,103,1,515.0,405982.2000000477,8102,WL,A,13.0
3,33.33999991416931,learn,26660.00008583069,Tue Apr 07 2026 10:43:41 GMT-0500 (Central Daylight Time),406597.5,A,whis,I,s,83,1,615.2999999523163,405982.2000000477,8102,WL,A,13.0
3,33.556999921798706,learn,26443.000078201294,Tue Apr 07 2026 10:43:41 GMT-0500 (Central Daylight Time),406813.89999997616,A,whist,I,t,206,1,831.6999999284744,405982.2000000477,8102,WL,A,13.0
3,33.70700001716614,learn,26292.999982833862,Tue Apr 07 2026 10:43:41 GMT-0500 (Central Daylight Time),406963.89999997616,A,whistl,I,l,135,1,981.6999999284744,405982.2000000477,8102,WL,A,13.0
3,33.85699987411499,learn,26143.00012588501,Tue Apr 07 2026 10:43:41 GMT-0500 (Central Daylight Time),407113.7000000477,A,whistle,I,e,136,1,1131.5,405982.2000000477,8102,WL,A,13.0
3,34.9229998588562,learn,25077.0001411438,Tue Apr 07 2026 10:43:41 GMT-0500 (Central Daylight Time),408180.2000000477,A,whistleenter,I,enter,1050,1,2198.0,405982.2000000477,8102,WL,A,13.0
3,39.27199983596802,learn,20728.000164031982,Tue Apr 07 2026 10:43:41 GMT-0500 (Central Daylight Time),412528.7999999523,A,m,I,m,4327,1,4348.199999928474,408180.60000002384,8102,WL,A,14.0
3,39.45599985122681,learn,20544.000148773193,Tue Apr 07 2026 10:43:41 GMT-0500 (Central Daylight Time),412712.89999997616,A,me,I,e,163,1,4532.299999952316,408180.60000002384,8102,WL,A,14.0
3,39.65499997138977,learn,20345.00002861023,Tue Apr 07 2026 10:43:41 GMT-0500 (Central Daylight Time),412912.10000002384,A,mea,I,a,187,1,4731.5,408180.60000002384,8102,WL,A,14.0
3,39.80499982833862,learn,20195.000171661377,Tue Apr 07 2026 10:43:41 GMT-0500 (Central Daylight Time),413061.89999997616,A,mead,I,d,140,1,4881.299999952316,408180.60000002384,8102,WL,A,14.0
3,40.121999979019165,learn,19878.000020980835,Tue Apr 07 2026 10:43:41 GMT-0500 (Central Daylight Time),413378.7000000477,A,meado,I,o,311,1,5198.100000023842,408180.60000002384,8102,WL,A,14.0
3,40.287999868392944,learn,19712.000131607056,Tue Apr 07 2026 10:43:41 GMT-0500 (Central Daylight Time),413545.10000002384,A,meadow,I,w,154,1,5364.5,408180.60000002384,8102,WL,A,14.0
3,40.55499982833862,learn,19445.000171661377,Tue Apr 07 2026 10:43:41 GMT-0500 (Central Daylight Time),413811.7999999523,A,meadowenter,I,enter,251,1,5631.199999928474,408180.60000002384,8102,WL,A,14.0
3,49.36800003051758,learn,10631.999969482422,Tue Apr 07 2026 10:43:41 GMT-0500 (Central Daylight Time),422625.7000000477,A,s,I,s,8801,1,8813.5,413812.2000000477,8102,WL,A,15.0
3,49.651000022888184,learn,10348.999977111816,Tue Apr 07 2026 10:43:41 GMT-0500 (Central Daylight Time),422908.7999999523,A,sa,I,a,274,1,9096.599999904633,413812.2000000477,8102,WL,A,15.0
3,49.85199999809265,learn,10148.000001907349,Tue Apr 07 2026 10:43:41 GMT-0500 (Central Daylight Time),423108.89999997616,A,sal,I,l,192,1,9296.699999928474,413812.2000000477,8102,WL,A,15.0
3,50.30200004577637,learn,9697.999954223633,Tue Apr 07 2026 10:43:41 GMT-0500 (Central Daylight Time),423558.89999997616,A,salt,I,t,440,1,9746.699999928474,413812.2000000477,8102,WL,A,15.0
3,50.66799998283386,learn,9332.000017166138,Tue Apr 07 2026 10:43:41 GMT-0500 (Central Daylight Time),423925.2999999523,A,saltenter,I,enter,349,1,10113.099999904633,413812.2000000477,8102,WL,A,15.0
4,1.0339999198913574,learn,58966.00008010864,Tue Apr 07 2026 10:43:41 GMT-0500 (Central Daylight Time),493337.10000002384,A,r,I,r,1020,1,1033.0,492304.10000002384,8102,WL,A,1.0
4,1.25,learn,58750.0,Tue Apr 07 2026 10:43:41 GMT-0500 (Central Daylight Time),493553.60000002384,A,ra,I,a,202,1,1249.5,492304.10000002384,8102,WL,A,1.0
4,1.4830000400543213,learn,58516.99995994568,Tue Apr 07 2026 10:43:41 GMT-0500 (Central Daylight Time),493786.7000000477,A,rat,I,t,226,1,1482.6000000238419,492304.10000002384,8102,WL,A,1.0
4,1.616999864578247,learn,58383.00013542175,Tue Apr 07 2026 10:43:41 GMT-0500 (Central Daylight Time),493920.0,A,ratt,I,t,121,1,1615.8999999761581,492304.10000002384,8102,WL,A,1.0
4,1.816999912261963,learn,58183.00008773804,Tue Apr 07 2026 10:43:41 GMT-0500 (Central Daylight Time),494120.0,A,rattl,I,l,188,1,1815.8999999761581,492304.10000002384,8102,WL,A,1.0
4,2.115999937057495,learn,57884.000062942505,Tue Apr 07 2026 10:43:41 GMT-0500 (Central Daylight Time),494419.89999997616,A,rattle,I,e,292,1,2115.7999999523163,492304.10000002384,8102,WL,A,1.0
4,2.5329999923706055,learn,57467.000007629395,Tue Apr 07 2026 10:43:41 GMT-0500 (Central Daylight Time),494836.5,A,rattleenter,I,enter,408,1,2532.399999976158,492304.10000002384,8102,WL,A,1.0
4,3.0329999923706055,learn,56967.000007629395,Tue Apr 07 2026 10:43:41 GMT-0500 (Central Daylight Time),495336.2000000477,A,k,I,k,495,1,499.40000009536743,494836.7999999523,8102,WL,A,2.0
4,3.365999937057495,learn,56634.000062942505,Tue Apr 07 2026 10:43:41 GMT-0500 (Central Daylight Time),495669.39999997616,A,ke,I,e,325,1,832.6000000238419,494836.7999999523,8102,WL,A,2.0
4,3.632999897003174,learn,56367.000102996826,Tue Apr 07 2026 10:43:41 GMT-0500 (Central Daylight Time),495935.89999997616,A,key,I,y,245,1,1099.1000000238419,494836.7999999523,8102,WL,A,2.0
4,4.4659998416900635,learn,55534.00015830994,Tue Apr 07 2026 10:43:41 GMT-0500 (Central Daylight Time),496769.39999997616,A,keyenter,I,enter,821,1,1932.6000000238419,494836.7999999523,8102,WL,A,2.0
4,4.781999826431274,learn,55218.000173568726,Tue Apr 07 2026 10:43:41 GMT-0500 (Central Daylight Time),497085.7999999523,A,g,I,g,306,1,316.09999990463257,496769.7000000477,8102,WL,A,3.0
4,4.931999921798706,learn,55068.000078201294,Tue Apr 07 2026 10:43:41 GMT-0500 (Central Daylight Time),497235.60000002384,A,go,I,o,141,1,465.89999997615814,496769.7000000477,8102,WL,A,3.0
4,5.164999961853027,learn,54835.00003814697,Tue Apr 07 2026 10:43:41 GMT-0500 (Central Daylight Time),497468.7000000477,A,gol,I,l,224,1,699.0,496769.7000000477,8102,WL,A,3.0
4,5.31499981880188,learn,54685.00018119812,Tue Apr 07 2026 10:43:41 GMT-0500 (Central Daylight Time),497618.7999999523,A,gold,I,d,136,1,849.0999999046326,496769.7000000477,8102,WL,A,3.0
4,5.848999977111816,learn,54151.00002288818,Tue Apr 07 2026 10:43:41 GMT-0500 (Central Daylight Time),498152.2000000477,A,goldenter,I,enter,521,1,1382.5,496769.7000000477,8102,WL,A,3.0
4,6.281999826431274,learn,53718.000173568726,Tue Apr 07 2026 10:43:41 GMT-0500 (Central Daylight Time),498585.2000000477,A,s,I,s,428,1,432.60000002384186,498152.60000002384,8102,WL,A,4.0
4,6.4649999141693115,learn,53535.00008583069,Tue Apr 07 2026 10:43:41 GMT-0500 (Central Daylight Time),498768.39999997616,A,sa,I,a,163,1,615.7999999523163,498152.60000002384,8102,WL,A,4.0
4,6.648000001907349,learn,53351.99999809265,Tue Apr 07 2026 10:43:41 GMT-0500 (Central Daylight Time),498951.7000000477,A,sal,I,l,171,1,799.1000000238419,498152.60000002384,8102,WL,A,4.0
4,6.881999969482422,learn,53118.00003051758,Tue Apr 07 2026 10:43:41 GMT-0500 (Central Daylight Time),499185.2000000477,A,salt,I,t,221,1,1032.6000000238419,498152.60000002384,8102,WL,A,4.0
4,7.23199987411499,learn,52768.00012588501,Tue Apr 07 2026 10:43:41 GMT-0500 (Central Daylight Time),499535.0,A,saltenter,I,enter,330,1,1382.3999999761581,498152.60000002384,8102,WL,A,4.0
4,7.5980000495910645,learn,52401.999950408936,Tue Apr 07 2026 10:43:41 GMT-0500 (Central Daylight Time),499901.5,A,f,I,f,357,1,366.2999999523163,499535.2000000477,8102,WL,A,5.0
4,7.764999866485596,learn,52235.000133514404,Tue Apr 07 2026 10:43:41 GMT-0500 (Central Daylight Time),500068.2000000477,A,fi,I,i,151,1,533.0,499535.2000000477,8102,WL,A,5.0
4,7.881999969482422,learn,52118.00003051758,Tue Apr 07 2026 10:43:41 GMT-0500 (Central Daylight Time),500184.89999997616,A,fin,I,n,104,1,649.6999999284744,499535.2000000477,8102,WL,A,5.0
4,7.980999946594238,learn,52019.00005340576,Tue Apr 07 2026 10:43:41 GMT-0500 (Central Daylight Time),500284.7999999523,A,fing,I,g,84,1,749.5999999046326,499535.2000000477,8102,WL,A,5.0
4,8.164999961853027,learn,51835.00003814697,Tue Apr 07 2026 10:43:41 GMT-0500 (Central Daylight Time),500468.2999999523,A,finge,I,e,168,1,933.0999999046326,499535.2000000477,8102,WL,A,5.0
4,8.264999866485596,learn,51735.000133514404,Tue Apr 07 2026 10:43:41 GMT-0500 (Central Daylight Time),500568.0,A,finger,I,r,88,1,1032.7999999523163,499535.2000000477,8102,WL,A,5.0
4,8.680999994277954,learn,51319.000005722046,Tue Apr 07 2026 10:43:41 GMT-0500 (Central Daylight Time),500984.60000002384,A,fingerenter,I,enter,404,1,1449.3999999761581,499535.2000000477,8102,WL,A,5.0
4,9.047999858856201,learn,50952.0001411438,Tue Apr 07 2026 10:43:41 GMT-0500 (Central Daylight Time),501351.10000002384,A,h,I,h,356,1,366.2000000476837,500984.89999997616,8102,WL,A,6.0
4,9.480999946594238,learn,50519.00005340576,Tue Apr 07 2026 10:43:41 GMT-0500 (Central Daylight Time),501784.2999999523,A,ha,I,a,412,1,799.3999999761581,500984.89999997616,8102,WL,A,6.0
4,9.648000001907349,learn,50351.99999809265,Tue Apr 07 2026 10:43:41 GMT-0500 (Central Daylight Time),501951.0,A,har,I,r,155,1,966.1000000238419,500984.89999997616,8102,WL,A,6.0
4,10.346999883651733,learn,49653.00011634827,Tue Apr 07 2026 10:43:41 GMT-0500 (Central Daylight Time),502650.5,A,harp,I,p,694,1,1665.6000000238419,500984.89999997616,8102,WL,A,6.0
4,11.312999963760376,learn,48687.000036239624,Tue Apr 07 2026 10:43:41 GMT-0500 (Central Daylight Time),503616.7000000477,A,harpenter,I,enter,961,1,2631.8000000715256,500984.89999997616,8102,WL,A,6.0
4,11.613999843597412,learn,48386.00015640259,Tue Apr 07 2026 10:43:41 GMT-0500 (Central Daylight Time),503917.0,A,c,I,c,283,1,300.0,503617.0,8102,WL,A,7.0
4,11.79699993133545,learn,48203.00006866455,Tue Apr 07 2026 10:43:41 GMT-0500 (Central Daylight Time),504100.2000000477,A,ch,I,h,167,1,483.2000000476837,503617.0,8102,WL,A,7.0
4,11.94700002670288,learn,48052.99997329712,Tue Apr 07 2026 10:43:41 GMT-0500 (Central Daylight Time),504250.10000002384,A,chi,I,i,136,1,633.1000000238419,503617.0,8102,WL,A,7.0
4,12.162999868392944,learn,47837.000131607056,Tue Apr 07 2026 10:43:41 GMT-0500 (Central Daylight Time),504466.7999999523,A,chim,I,m,210,1,849.7999999523163,503617.0,8102,WL,A,7.0
4,12.379999876022339,learn,47620.00012397766,Tue Apr 07 2026 10:43:41 GMT-0500 (Central Daylight Time),504683.39999997616,A,chime,I,e,210,1,1066.3999999761581,503617.0,8102,WL,A,7.0
4,12.546000003814697,learn,47453.9999961853,Tue Apr 07 2026 10:43:41 GMT-0500 (Central Daylight Time),504849.7999999523,A,chimen,I,n,152,1,1232.7999999523163,503617.0,8102,WL,A,7.0
4,13.246000051498413,learn,46753.99994850159,Tue Apr 07 2026 10:43:41 GMT-0500 (Central Daylight Time),505549.60000002384,A,chime,I,backspace,681,1,1932.6000000238419,503617.0,8102,WL,A,7.0
4,13.480000019073486,learn,46519.999980926514,Tue Apr 07 2026 10:43:41 GMT-0500 (Central Daylight Time),505783.0,A,chim,I,backspace,222,1,2166.0,503617.0,8102,WL,A,7.0
4,13.779000043869019,learn,46220.99995613098,Tue Apr 07 2026 10:43:41 GMT-0500 (Central Daylight Time),506082.89999997616,A,chimn,I,n,293,1,2465.899999976158,503617.0,8102,WL,A,7.0
4,13.94700002670288,learn,46052.99997329712,Tue Apr 07 2026 10:43:41 GMT-0500 (Central Daylight Time),506250.2999999523,A,chimne,I,e,161,1,2633.2999999523163,503617.0,8102,WL,A,7.0
4,14.11299991607666,learn,45887.00008392334,Tue Apr 07 2026 10:43:41 GMT-0500 (Central Daylight Time),506416.0,A,chimney,I,y,153,1,2799.0,503617.0,8102,WL,A,7.0
4,14.529000043869019,learn,45470.99995613098,Tue Apr 07 2026 10:43:41 GMT-0500 (Central Daylight Time),506832.7000000477,A,chimneyenter,I,enter,396,1,3215.7000000476837,503617.0,8102,WL,A,7.0
4,14.962999820709229,learn,45037.00017929077,Tue Apr 07 2026 10:43:41 GMT-0500 (Central Daylight Time),507266.2000000477,A,l,I,l,420,1,433.2000000476837,506833.0,8102,WL,A,8.0
4,15.194999933242798,learn,44805.0000667572,Tue Apr 07 2026 10:43:41 GMT-0500 (Central Daylight Time),507499.0,A,lo,I,o,226,1,666.0,506833.0,8102,WL,A,8.0
4,15.461999893188477,learn,44538.00010681152,Tue Apr 07 2026 10:43:41 GMT-0500 (Central Daylight Time),507765.60000002384,A,log,I,g,258,1,932.6000000238419,506833.0,8102,WL,A,8.0
4,16.211999893188477,learn,43788.00010681152,Tue Apr 07 2026 10:43:41 GMT-0500 (Central Daylight Time),508515.2999999523,A,logenter,I,enter,742,1,1682.2999999523163,506833.0,8102,WL,A,8.0
4,16.67899990081787,learn,43321.00009918213,Tue Apr 07 2026 10:43:41 GMT-0500 (Central Daylight Time),508981.89999997616,A,b,I,b,449,1,466.2999999523163,508515.60000002384,8102,WL,A,9.0
4,16.911999940872192,learn,43088.00005912781,Tue Apr 07 2026 10:43:41 GMT-0500 (Central Daylight Time),509215.39999997616,A,bo,I,o,223,1,699.7999999523163,508515.60000002384,8102,WL,A,9.0
4,17.09500002861023,learn,42904.99997138977,Tue Apr 07 2026 10:43:41 GMT-0500 (Central Daylight Time),509398.7000000477,A,boo,I,o,173,1,883.1000000238419,508515.60000002384,8102,WL,A,9.0
4,17.244999885559082,learn,42755.00011444092,Tue Apr 07 2026 10:43:41 GMT-0500 (Central Daylight Time),509548.2000000477,A,book,I,k,134,1,1032.6000000238419,508515.60000002384,8102,WL,A,9.0
4,19.111999988555908,learn,40888.00001144409,Tue Apr 07 2026 10:43:41 GMT-0500 (Central Daylight Time),511415.89999997616,A,bookenter,I,enter,1844,1,2900.2999999523163,508515.60000002384,8102,WL,A,9.0
4,19.876999855041504,learn,40123.000144958496,Tue Apr 07 2026 10:43:41 GMT-0500 (Central Daylight Time),512180.89999997616,A,t,I,t,756,1,764.6000000238419,511416.2999999523,8102,WL,A,10.0
4,20.0939998626709,learn,39906.0001373291,Tue Apr 07 2026 10:43:41 GMT-0500 (Central Daylight Time),512397.5,A,tr,I,r,207,1,981.2000000476837,511416.2999999523,8102,WL,A,10.0
4,20.32699990272522,learn,39673.00009727478,Tue Apr 07 2026 10:43:41 GMT-0500 (Central Daylight Time),512630.89999997616,A,tra,I,a,223,1,1214.6000000238419,511416.2999999523,8102,WL,A,10.0
4,20.51099991798401,learn,39489.00008201599,Tue Apr 07 2026 10:43:41 GMT-0500 (Central Daylight Time),512814.10000002384,A,trai,I,i,165,1,1397.8000000715256,511416.2999999523,8102,WL,A,10.0
4,20.66100001335144,learn,39338.99998664856,Tue Apr 07 2026 10:43:41 GMT-0500 (Central Daylight Time),512964.2000000477,A,train,I,n,141,1,1547.9000000953674,511416.2999999523,8102,WL,A,10.0
4,21.427000045776367,learn,38572.99995422363,Tue Apr 07 2026 10:43:41 GMT-0500 (Central Daylight Time),513730.2999999523,A,trainenter,I,enter,751,1,2314.0,511416.2999999523,8102,WL,A,10.0
4,21.74399995803833,learn,38256.00004196167,Tue Apr 07 2026 10:43:41 GMT-0500 (Central Daylight Time),514047.2000000477,A,f,I,f,297,1,316.5,513730.7000000477,8102,WL,A,11.0
4,21.90999984741211,learn,38090.00015258789,Tue Apr 07 2026 10:43:41 GMT-0500 (Central Daylight Time),514213.89999997616,A,fl,I,l,148,1,483.1999999284744,513730.7000000477,8102,WL,A,11.0
4,22.177000045776367,learn,37822.99995422363,Tue Apr 07 2026 10:43:41 GMT-0500 (Central Daylight Time),514480.2999999523,A,flo,I,o,254,1,749.5999999046326,513730.7000000477,8102,WL,A,11.0
4,22.40999984741211,learn,37590.00015258789,Tue Apr 07 2026 10:43:41 GMT-0500 (Central Daylight Time),514713.39999997616,A,flow,I,w,228,1,982.6999999284744,513730.7000000477,8102,WL,A,11.0
4,22.677000045776367,learn,37322.99995422363,Tue Apr 07 2026 10:43:41 GMT-0500 (Central Daylight Time),514980.0,A,flowe,I,e,259,1,1249.2999999523163,513730.7000000477,8102,WL,A,11.0
4,22.776000022888184,learn,37223.99997711182,Tue Apr 07 2026 10:43:41 GMT-0500 (Central Daylight Time),515079.89999997616,A,flower,I,r,80,1,1349.1999999284744,513730.7000000477,8102,WL,A,11.0
4,23.97599983215332,learn,36024.00016784668,Tue Apr 07 2026 10:43:41 GMT-0500 (Central Daylight Time),516279.60000002384,A,flowerenter,I,enter,1188,1,2548.899999976158,513730.7000000477,8102,WL,A,11.0
4,24.542999982833862,learn,35457.00001716614,Tue Apr 07 2026 10:43:41 GMT-0500 (Central Daylight Time),516846.10000002384,A,r,I,r,556,1,566.3000000715256,516279.7999999523,8102,WL,A,12.0
4,24.776000022888184,learn,35223.99997711182,Tue Apr 07 2026 10:43:41 GMT-0500 (Central Daylight Time),517079.39999997616,A,ru,I,u,221,1,799.6000000238419,516279.7999999523,8102,WL,A,12.0
4,24.97599983215332,learn,35024.00016784668,Tue Apr 07 2026 10:43:41 GMT-0500 (Central Daylight Time),517279.2999999523,A,rug,I,g,188,1,999.5,516279.7999999523,8102,WL,A,12.0
4,25.408999919891357,learn,34591.00008010864,Tue Apr 07 2026 10:43:41 GMT-0500 (Central Daylight Time),517712.89999997616,A,rugenter,I,enter,413,1,1433.1000000238419,516279.7999999523,8102,WL,A,12.0
4,26.342000007629395,learn,33657.999992370605,Tue Apr 07 2026 10:43:41 GMT-0500 (Central Daylight Time),518645.5,A,l,I,l,915,1,932.2999999523163,517713.2000000477,8102,WL,A,13.0
4,26.575999975204468,learn,33424.00002479553,Tue Apr 07 2026 10:43:41 GMT-0500 (Central Daylight Time),518879.0,A,lo,I,o,221,1,1165.7999999523163,517713.2000000477,8102,WL,A,13.0
4,26.842000007629395,learn,33157.999992370605,Tue Apr 07 2026 10:43:41 GMT-0500 (Central Daylight Time),519145.2000000477,A,log,I,g,261,1,1432.0,517713.2000000477,8102,WL,A,13.0
4,29.590999841690063,learn,30409.000158309937,Tue Apr 07 2026 10:43:41 GMT-0500 (Central Daylight Time),521894.7000000477,A,logenter,I,enter,2740,1,4181.5,517713.2000000477,8102,WL,A,13.0
4,32.973000049591064,learn,27026.999950408936,Tue Apr 07 2026 10:43:41 GMT-0500 (Central Daylight Time),525277.0,A,f,I,f,3365,1,3382.100000023842,521894.89999997616,8102,WL,A,14.0
4,33.12399983406067,learn,26876.00016593933,Tue Apr 07 2026 10:43:41 GMT-0500 (Central Daylight Time),525427.0,A,fl,I,l,135,1,3532.100000023842,521894.89999997616,8102,WL,A,14.0
4,33.406999826431274,learn,26593.000173568726,Tue Apr 07 2026 10:43:41 GMT-0500 (Central Daylight Time),525710.1000000238,A,flo,I,o,266,1,3815.2000000476837,521894.89999997616,8102,WL,A,14.0
4,33.57299995422363,learn,26427.000045776367,Tue Apr 07 2026 10:43:41 GMT-0500 (Central Daylight Time),525876.8999999762,A,flow,I,w,149,1,3982.0,521894.89999997616,8102,WL,A,14.0
4,33.82299995422363,learn,26177.000045776367,Tue Apr 07 2026 10:43:41 GMT-0500 (Central Daylight Time),526126.7999999523,A,flowe,I,e,232,1,4231.899999976158,521894.89999997616,8102,WL,A,14.0
4,33.90599989891052,learn,26094.000101089478,Tue Apr 07 2026 10:43:41 GMT-0500 (Central Daylight Time),526209.8999999762,A,flower,I,r,77,1,4315.0,521894.89999997616,8102,WL,A,14.0
4,35.32299995422363,learn,24677.000045776367,Tue Apr 07 2026 10:43:41 GMT-0500 (Central Daylight Time),527626.2000000477,A,flowe,I,backspace,1401,1,5731.300000071526,521894.89999997616,8102,WL,A,14.0
4,35.45700001716614,learn,24542.999982833862,Tue Apr 07 2026 10:43:41 GMT-0500 (Central Daylight Time),527760.3999999762,A,flow,I,backspace,129,1,5865.5,521894.89999997616,8102,WL,A,14.0
4,35.621999979019165,learn,24378.000020980835,Tue Apr 07 2026 10:43:41 GMT-0500 (Central Daylight Time),527925.7999999523,A,flo,I,backspace,156,1,6030.899999976158,521894.89999997616,8102,WL,A,14.0
4,35.805999994277954,learn,24194.000005722046,Tue Apr 07 2026 10:43:41 GMT-0500 (Central Daylight Time),528109.3999999762,A,fl,I,backspace,175,1,6214.5,521894.89999997616,8102,WL,A,14.0
4,35.97199988365173,learn,24028.000116348267,Tue Apr 07 2026 10:43:41 GMT-0500 (Central Daylight Time),528275.7000000477,A,f,I,backspace,159,1,6380.800000071526,521894.89999997616,8102,WL,A,14.0
4,36.289000034332275,learn,23710.999965667725,Tue Apr 07 2026 10:43:41 GMT-0500 (Central Daylight Time),528592.2999999523,A,,I,backspace,296,1,6697.399999976158,521894.89999997616,8102,WL,A,14.0
4,36.93899989128113,learn,23061.000108718872,Tue Apr 07 2026 10:43:41 GMT-0500 (Central Daylight Time),529242.2999999523,A,m,I,m,637,1,7347.399999976158,521894.89999997616,8102,WL,A,14.0
4,37.10599994659424,learn,22894.00005340576,Tue Apr 07 2026 10:43:41 GMT-0500 (Central Daylight Time),529408.8999999762,A,me,I,e,146,1,7514.0,521894.89999997616,8102,WL,A,14.0
4,37.306999921798706,learn,22693.000078201294,Tue Apr 07 2026 10:43:41 GMT-0500 (Central Daylight Time),529610.0,A,mea,I,a,179,1,7715.100000023842,521894.89999997616,8102,WL,A,14.0
4,37.40499997138977,learn,22595.00002861023,Tue Apr 07 2026 10:43:41 GMT-0500 (Central Daylight Time),529708.8999999762,A,mead,I,d,91,1,7814.0,521894.89999997616,8102,WL,A,14.0
4,37.605000019073486,learn,22394.999980926514,Tue Apr 07 2026 10:43:41 GMT-0500 (Central Daylight Time),529908.7999999523,A,meado,I,o,183,1,8013.899999976158,521894.89999997616,8102,WL,A,14.0
4,37.789000034332275,learn,22210.999965667725,Tue Apr 07 2026 10:43:41 GMT-0500 (Central Daylight Time),530092.1000000238,A,meadow,I,w,176,1,8197.200000047684,521894.89999997616,8102,WL,A,14.0
4,38.08799982070923,learn,21912.00017929077,Tue Apr 07 2026 10:43:41 GMT-0500 (Central Daylight Time),530391.7000000477,A,meadowenter,I,enter,288,1,8496.800000071526,521894.89999997616,8102,WL,A,14.0
4,38.55499982833862,learn,21445.000171661377,Tue Apr 07 2026 10:43:41 GMT-0500 (Central Daylight Time),530858.7999999523,A,f,I,f,460,1,466.7999999523163,530392.0,8102,WL,A,15.0
4,38.73799991607666,learn,21262.00008392334,Tue Apr 07 2026 10:43:41 GMT-0500 (Central Daylight Time),531041.5,A,fl,I,l,177,1,649.5,530392.0,8102,WL,A,15.0
4,39.037999868392944,learn,20962.000131607056,Tue Apr 07 2026 10:43:41 GMT-0500 (Central Daylight Time),531341.7999999523,A,flo,I,o,282,1,949.7999999523163,530392.0,8102,WL,A,15.0
4,39.58799982070923,learn,20412.00017929077,Tue Apr 07 2026 10:43:41 GMT-0500 (Central Daylight Time),531891.6000000238,A,flow,I,w,544,1,1499.6000000238419,530392.0,8102,WL,A,15.0
4,39.82099986076355,learn,20179.00013923645,Tue Apr 07 2026 10:43:41 GMT-0500 (Central Daylight Time),532124.7999999523,A,flowe,I,e,217,1,1732.7999999523163,530392.0,8102,WL,A,15.0
4,39.9210000038147,learn,20078.999996185303,Tue Apr 07 2026 10:43:41 GMT-0500 (Central Daylight Time),532224.7999999523,A,flower,I,r,80,1,1832.7999999523163,530392.0,8102,WL,A,15.0
4,40.13800001144409,learn,19861.99998855591,Tue Apr 07 2026 10:43:41 GMT-0500 (Central Daylight Time),532441.3999999762,A,flowerenter,I,enter,204,1,2049.399999976158,530392.0,8102,WL,A,15.0
5,0.9500000476837158,learn,60000.0,Tue Apr 07 2026 10:43:41 GMT-0500 (Central Daylight Time),603469.0,A,f,I,f,942,1,949.2999999523163,602519.7000000477,8102,WL,A,1.0
5,1.432999849319458,learn,60000.0,Tue Apr 07 2026 10:43:41 GMT-0500 (Central Daylight Time),603952.2999999523,A,fi,I,i,462,1,1432.5999999046326,602519.7000000477,8102,WL,A,1.0
5,1.565999984741211,learn,60000.0,Tue Apr 07 2026 10:43:41 GMT-0500 (Central Daylight Time),604085.5,A,fin,I,n,115,1,1565.7999999523163,602519.7000000477,8102,WL,A,1.0
5,1.6670000553131104,learn,60000.0,Tue Apr 07 2026 10:43:41 GMT-0500 (Central Daylight Time),604186.5,A,fing,I,g,94,1,1666.7999999523163,602519.7000000477,8102,WL,A,1.0
5,1.8659999370574951,learn,60000.0,Tue Apr 07 2026 10:43:41 GMT-0500 (Central Daylight Time),604385.8999999762,A,finge,I,e,186,1,1866.1999999284744,602519.7000000477,8102,WL,A,1.0
5,2.0,learn,60000.0,Tue Apr 07 2026 10:43:41 GMT-0500 (Central Daylight Time),604519.0,A,finger,I,r,123,1,1999.2999999523163,602519.7000000477,8102,WL,A,1.0
5,2.5160000324249268,learn,60000.0,Tue Apr 07 2026 10:43:41 GMT-0500 (Central Daylight Time),605035.2999999523,A,fingerenter,I,enter,508,1,2515.5999999046326,602519.7000000477,8102,WL,A,1.0
5,3.0230000019073486,learn,60000.0,Tue Apr 07 2026 10:43:41 GMT-0500 (Central Daylight Time),605542.2999999523,A,s,I,s,457,1,506.59999990463257,605035.7000000477,8102,WL,A,2.0
5,3.188999891281128,learn,60000.0,Tue Apr 07 2026 10:43:41 GMT-0500 (Central Daylight Time),605708.2999999523,A,sa,I,a,157,1,672.5999999046326,605035.7000000477,8102,WL,A,2.0
5,3.381999969482422,learn,60000.0,Tue Apr 07 2026 10:43:41 GMT-0500 (Central Daylight Time),605901.6000000238,A,sal,I,l,175,1,865.8999999761581,605035.7000000477,8102,WL,A,2.0
5,3.615999937057495,learn,60000.0,Tue Apr 07 2026 10:43:41 GMT-0500 (Central Daylight Time),606134.8999999762,A,salt,I,t,223,1,1099.1999999284744,605035.7000000477,8102,WL,A,2.0
5,3.9489998817443848,learn,60000.0,Tue Apr 07 2026 10:43:41 GMT-0500 (Central Daylight Time),606468.1000000238,A,saltenter,I,enter,326,1,1432.3999999761581,605035.7000000477,8102,WL,A,2.0
5,4.398999929428101,learn,60000.0,Tue Apr 07 2026 10:43:41 GMT-0500 (Central Daylight Time),606918.1000000238,A,h,I,h,431,1,449.7000000476837,606468.3999999762,8102,WL,A,3.0
5,4.931999921798706,learn,60000.0,Tue Apr 07 2026 10:43:41 GMT-0500 (Central Daylight Time),607451.2000000477,A,ha,I,a,525,1,982.8000000715256,606468.3999999762,8102,WL,A,3.0
5,5.164999961853027,learn,60000.0,Tue Apr 07 2026 10:43:41 GMT-0500 (Central Daylight Time),607684.3999999762,A,har,I,r,218,1,1216.0,606468.3999999762,8102,WL,A,3.0
5,5.299000024795532,learn,60000.0,Tue Apr 07 2026 10:43:41 GMT-0500 (Central Daylight Time),607817.8999999762,A,harp,I,p,118,1,1349.5,606468.3999999762,8102,WL,A,3.0
5,5.681999921798706,learn,60000.0,Tue Apr 07 2026 10:43:41 GMT-0500 (Central Daylight Time),608201.0,A,harpenter,I,enter,371,1,1732.6000000238419,606468.3999999762,8102,WL,A,3.0
5,6.264999866485596,learn,60000.0,Tue Apr 07 2026 10:43:41 GMT-0500 (Central Daylight Time),608784.1000000238,A,a,I,a,572,1,582.8000000715256,608201.2999999523,8102,WL,A,4.0
5,6.497999906539917,learn,60000.0,Tue Apr 07 2026 10:43:41 GMT-0500 (Central Daylight Time),609017.5,A,ap,I,p,219,1,816.2000000476837,608201.2999999523,8102,WL,A,4.0
5,6.648000001907349,learn,60000.0,Tue Apr 07 2026 10:43:41 GMT-0500 (Central Daylight Time),609167.2999999523,A,app,I,p,130,1,966.0,608201.2999999523,8102,WL,A,4.0
5,6.764999866485596,learn,60000.0,Tue Apr 07 2026 10:43:41 GMT-0500 (Central Daylight Time),609284.0,A,appl,I,l,100,1,1082.7000000476837,608201.2999999523,8102,WL,A,4.0
5,7.014999866485596,learn,60000.0,Tue Apr 07 2026 10:43:41 GMT-0500 (Central Daylight Time),609534.0,A,apple,I,e,233,1,1332.7000000476837,608201.2999999523,8102,WL,A,4.0
5,7.2809998989105225,learn,60000.0,Tue Apr 07 2026 10:43:41 GMT-0500 (Central Daylight Time),609800.7000000477,A,appleenter,I,enter,245,1,1599.4000000953674,608201.2999999523,8102,WL,A,4.0
5,7.563999891281128,learn,60000.0,Tue Apr 07 2026 10:43:41 GMT-0500 (Central Daylight Time),610083.6000000238,A,g,I,g,267,1,282.7000000476837,609800.8999999762,8102,WL,A,5.0
5,7.697999954223633,learn,60000.0,Tue Apr 07 2026 10:43:41 GMT-0500 (Central Daylight Time),610217.2999999523,A,go,I,o,121,1,416.39999997615814,609800.8999999762,8102,WL,A,5.0
5,7.914000034332275,learn,60000.0,Tue Apr 07 2026 10:43:41 GMT-0500 (Central Daylight Time),610433.7999999523,A,gol,I,l,203,1,632.8999999761581,609800.8999999762,8102,WL,A,5.0
5,8.063999891281128,learn,60000.0,Tue Apr 07 2026 10:43:41 GMT-0500 (Central Daylight Time),610583.6000000238,A,gold,I,d,130,1,782.7000000476837,609800.8999999762,8102,WL,A,5.0
5,8.430999994277954,learn,60000.0,Tue Apr 07 2026 10:43:41 GMT-0500 (Central Daylight Time),610950.2000000477,A,goldenter,I,enter,348,1,1149.3000000715256,609800.8999999762,8102,WL,A,5.0
5,8.679999828338623,learn,60000.0,Tue Apr 07 2026 10:43:41 GMT-0500 (Central Daylight Time),611199.7999999523,A,b,I,b,239,1,249.29999995231628,610950.5,8102,WL,A,6.0
5,8.898000001907349,learn,60000.0,Tue Apr 07 2026 10:43:41 GMT-0500 (Central Daylight Time),611417.1000000238,A,bu,I,u,205,1,466.60000002384186,610950.5,8102,WL,A,6.0
5,9.030999898910522,learn,60000.0,Tue Apr 07 2026 10:43:41 GMT-0500 (Central Daylight Time),611549.8999999762,A,but,I,t,122,1,599.3999999761581,610950.5,8102,WL,A,6.0
5,9.164000034332275,learn,60000.0,Tue Apr 07 2026 10:43:41 GMT-0500 (Central Daylight Time),611683.2000000477,A,butt,I,t,127,1,732.7000000476837,610950.5,8102,WL,A,6.0
5,9.246999979019165,learn,60000.0,Tue Apr 07 2026 10:43:41 GMT-0500 (Central Daylight Time),611766.7000000477,A,butto,I,o,73,1,816.2000000476837,610950.5,8102,WL,A,6.0
5,9.38100004196167,learn,60000.0,Tue Apr 07 2026 10:43:41 GMT-0500 (Central Daylight Time),611899.8999999762,A,button,I,n,118,1,949.3999999761581,610950.5,8102,WL,A,6.0
5,11.129999876022339,learn,60000.0,Tue Apr 07 2026 10:43:41 GMT-0500 (Central Daylight Time),613649.2000000477,A,buttonenter,I,enter,1736,1,2698.7000000476837,610950.5,8102,WL,A,6.0
5,11.412999868392944,learn,60000.0,Tue Apr 07 2026 10:43:41 GMT-0500 (Central Daylight Time),613932.5,A,b,I,b,274,1,283.0,613649.5,8102,WL,A,7.0
5,11.61299991607666,learn,60000.0,Tue Apr 07 2026 10:43:41 GMT-0500 (Central Daylight Time),614132.3999999762,A,bo,I,o,183,1,482.89999997615814,613649.5,8102,WL,A,7.0
5,11.763000011444092,learn,60000.0,Tue Apr 07 2026 10:43:41 GMT-0500 (Central Daylight Time),614282.5,A,boo,I,o,143,1,633.0,613649.5,8102,WL,A,7.0
5,11.980000019073486,learn,60000.0,Tue Apr 07 2026 10:43:41 GMT-0500 (Central Daylight Time),614499.0,A,book,I,k,202,1,849.5,613649.5,8102,WL,A,7.0
5,12.746000051498413,learn,60000.0,Tue Apr 07 2026 10:43:41 GMT-0500 (Central Daylight Time),615265.1000000238,A,bookenter,I,enter,746,1,1615.6000000238419,613649.5,8102,WL,A,7.0
5,13.128999948501587,learn,60000.0,Tue Apr 07 2026 10:43:41 GMT-0500 (Central Daylight Time),615648.6000000238,A,f,I,f,372,1,383.3000000715256,615265.2999999523,8102,WL,A,8.0
5,13.279000043869019,learn,60000.0,Tue Apr 07 2026 10:43:41 GMT-0500 (Central Daylight Time),615798.6000000238,A,fl,I,l,131,1,533.3000000715256,615265.2999999523,8102,WL,A,8.0
5,13.496000051498413,learn,60000.0,Tue Apr 07 2026 10:43:41 GMT-0500 (Central Daylight Time),616015.3999999762,A,flo,I,o,206,1,750.1000000238419,615265.2999999523,8102,WL,A,8.0
5,13.645999908447266,learn,60000.0,Tue Apr 07 2026 10:43:41 GMT-0500 (Central Daylight Time),616165.2000000477,A,flow,I,w,140,1,899.9000000953674,615265.2999999523,8102,WL,A,8.0
5,13.911999940872192,learn,60000.0,Tue Apr 07 2026 10:43:41 GMT-0500 (Central Daylight Time),616431.7999999523,A,flowe,I,e,247,1,1166.5,615265.2999999523,8102,WL,A,8.0
5,13.996000051498413,learn,60000.0,Tue Apr 07 2026 10:43:41 GMT-0500 (Central Daylight Time),616515.0,A,flower,I,r,68,1,1249.7000000476837,615265.2999999523,8102,WL,A,8.0
5,14.378999948501587,learn,60000.0,Tue Apr 07 2026 10:43:41 GMT-0500 (Central Daylight Time),616898.0,A,flowerenter,I,enter,377,1,1632.7000000476837,615265.2999999523,8102,WL,A,8.0
5,14.678999900817871,learn,60000.0,Tue Apr 07 2026 10:43:41 GMT-0500 (Central Daylight Time),617198.1000000238,A,t,I,t,282,1,299.89999997615814,616898.2000000477,8102,WL,A,9.0
5,14.812000036239624,learn,60000.0,Tue Apr 07 2026 10:43:41 GMT-0500 (Central Daylight Time),617331.7999999523,A,tr,I,r,126,1,433.59999990463257,616898.2000000477,8102,WL,A,9.0
5,15.078999996185303,learn,60000.0,Tue Apr 07 2026 10:43:41 GMT-0500 (Central Daylight Time),617598.0,A,tra,I,a,256,1,699.7999999523163,616898.2000000477,8102,WL,A,9.0
5,15.211999893188477,learn,60000.0,Tue Apr 07 2026 10:43:41 GMT-0500 (Central Daylight Time),617731.2000000477,A,trai,I,i,119,1,833.0,616898.2000000477,8102,WL,A,9.0
5,15.361999988555908,learn,60000.0,Tue Apr 07 2026 10:43:41 GMT-0500 (Central Daylight Time),617881.2999999523,A,train,I,n,137,1,983.0999999046326,616898.2000000477,8102,WL,A,9.0
5,15.777999877929688,learn,60000.0,Tue Apr 07 2026 10:43:41 GMT-0500 (Central Daylight Time),618297.7000000477,A,trainenter,I,enter,402,1,1399.5,616898.2000000477,8102,WL,A,9.0
5,16.161999940872192,learn,60000.0,Tue Apr 07 2026 10:43:41 GMT-0500 (Central Daylight Time),618681.1000000238,A,r,I,r,363,1,383.0,618298.1000000238,8102,WL,A,10.0
5,16.32799983024597,learn,60000.0,Tue Apr 07 2026 10:43:41 GMT-0500 (Central Daylight Time),618847.2999999523,A,ru,I,u,155,1,549.1999999284744,618298.1000000238,8102,WL,A,10.0
5,17.027999877929688,learn,60000.0,Tue Apr 07 2026 10:43:41 GMT-0500 (Central Daylight Time),619547.3999999762,A,rug,I,g,685,1,1249.2999999523163,618298.1000000238,8102,WL,A,10.0
5,18.24399995803833,learn,60000.0,Tue Apr 07 2026 10:43:41 GMT-0500 (Central Daylight Time),620763.7999999523,A,rugenter,I,enter,1201,1,2465.6999999284744,618298.1000000238,8102,WL,A,10.0
5,18.57799983024597,learn,60000.0,Tue Apr 07 2026 10:43:41 GMT-0500 (Central Daylight Time),621096.7999999523,A,l,I,l,329,1,332.6999999284744,620764.1000000238,8102,WL,A,11.0
5,18.8439998626709,learn,60000.0,Tue Apr 07 2026 10:43:41 GMT-0500 (Central Daylight Time),621363.3999999762,A,lo,I,o,252,1,599.2999999523163,620764.1000000238,8102,WL,A,11.0
5,19.0939998626709,learn,60000.0,Tue Apr 07 2026 10:43:41 GMT-0500 (Central Daylight Time),621613.7000000477,A,log,I,g,241,1,849.6000000238419,620764.1000000238,8102,WL,A,11.0
5,21.210000038146973,learn,60000.0,Tue Apr 07 2026 10:43:41 GMT-0500 (Central Daylight Time),623729.2999999523,A,logenter,I,enter,2111,1,2965.1999999284744,620764.1000000238,8102,WL,A,11.0
5,21.677000045776367,learn,60000.0,Tue Apr 07 2026 10:43:41 GMT-0500 (Central Daylight Time),624196.1000000238,A,k,I,k,450,1,466.5,623729.6000000238,8102,WL,A,12.0
5,23.408999919891357,learn,60000.0,Tue Apr 07 2026 10:43:41 GMT-0500 (Central Daylight Time),625928.6000000238,A,ke,I,e,1727,1,2199.0,623729.6000000238,8102,WL,A,12.0
5,23.625999927520752,learn,60000.0,Tue Apr 07 2026 10:43:41 GMT-0500 (Central Daylight Time),626145.5,A,key,I,y,204,1,2415.899999976158,623729.6000000238,8102,WL,A,12.0
5,24.692999839782715,learn,60000.0,Tue Apr 07 2026 10:43:41 GMT-0500 (Central Daylight Time),627211.8999999762,A,keyenter,I,enter,1058,1,3482.2999999523163,623729.6000000238,8102,WL,A,12.0
5,25.108999967575073,learn,60000.0,Tue Apr 07 2026 10:43:41 GMT-0500 (Central Daylight Time),627628.2000000477,A,m,I,m,401,1,416.10000002384186,627212.1000000238,8102,WL,A,13.0
5,25.259000062942505,learn,60000.0,Tue Apr 07 2026 10:43:41 GMT-0500 (Central Daylight Time),627778.2000000477,A,me,I,e,144,1,566.1000000238419,627212.1000000238,8102,WL,A,13.0
5,25.493000030517578,learn,60000.0,Tue Apr 07 2026 10:43:41 GMT-0500 (Central Daylight Time),628012.2999999523,A,mea,I,a,226,1,800.1999999284744,627212.1000000238,8102,WL,A,13.0
5,25.625,learn,60000.0,Tue Apr 07 2026 10:43:41 GMT-0500 (Central Daylight Time),628144.7999999523,A,mead,I,d,120,1,932.6999999284744,627212.1000000238,8102,WL,A,13.0
5,25.825000047683716,learn,60000.0,Tue Apr 07 2026 10:43:41 GMT-0500 (Central Daylight Time),628344.6000000238,A,meado,I,o,195,1,1132.5,627212.1000000238,8102,WL,A,13.0
5,26.024999856948853,learn,60000.0,Tue Apr 07 2026 10:43:41 GMT-0500 (Central Daylight Time),628544.5,A,meadow,I,w,188,1,1332.3999999761581,627212.1000000238,8102,WL,A,13.0
5,27.14199995994568,learn,60000.0,Tue Apr 07 2026 10:43:41 GMT-0500 (Central Daylight Time),629661.1000000238,A,meadowenter,I,enter,1108,1,2449.0,627212.1000000238,8102,WL,A,13.0
5,33.15599989891052,learn,60000.0,Tue Apr 07 2026 10:43:41 GMT-0500 (Central Daylight Time),635675.7999999523,A,a,I,a,5999,1,6014.399999976158,629661.3999999762,8102,WL,A,14.0
5,33.40599989891052,learn,60000.0,Tue Apr 07 2026 10:43:41 GMT-0500 (Central Daylight Time),635925.6000000238,A,ap,I,p,231,1,6264.200000047684,629661.3999999762,8102,WL,A,14.0
5,33.555999994277954,learn,60000.0,Tue Apr 07 2026 10:43:41 GMT-0500 (Central Daylight Time),636075.6000000238,A,app,I,p,142,1,6414.200000047684,629661.3999999762,8102,WL,A,14.0
5,33.69000005722046,learn,60000.0,Tue Apr 07 2026 10:43:41 GMT-0500 (Central Daylight Time),636208.8999999762,A,appl,I,l,121,1,6547.5,629661.3999999762,8102,WL,A,14.0
5,33.888999938964844,learn,60000.0,Tue Apr 07 2026 10:43:41 GMT-0500 (Central Daylight Time),636408.7999999523,A,apple,I,e,188,1,6747.399999976158,629661.3999999762,8102,WL,A,14.0
5,34.07299995422363,learn,60000.0,Tue Apr 07 2026 10:43:41 GMT-0500 (Central Daylight Time),636592.1000000238,A,appleenter,I,enter,172,1,6930.700000047684,629661.3999999762,8102,WL,A,14.0
5,36.605000019073486,learn,60000.0,Tue Apr 07 2026 10:43:41 GMT-0500 (Central Daylight Time),639124.6000000238,A,f,I,f,2525,1,2532.2000000476837,636592.3999999762,8102,WL,A,15.0
5,36.723000049591064,learn,60000.0,Tue Apr 07 2026 10:43:41 GMT-0500 (Central Daylight Time),639242.2999999523,A,fi,I,i,103,1,2649.899999976158,636592.3999999762,8102,WL,A,15.0
5,36.88800001144409,learn,60000.0,Tue Apr 07 2026 10:43:41 GMT-0500 (Central Daylight Time),639407.7999999523,A,fin,I,n,154,1,2815.399999976158,636592.3999999762,8102,WL,A,15.0
5,39.187999963760376,learn,60000.0,Tue Apr 07 2026 10:43:41 GMT-0500 (Central Daylight Time),641707.1000000238,A,fi,I,backspace,2285,1,5114.700000047684,636592.3999999762,8102,WL,A,15.0
5,39.4210000038147,learn,60000.0,Tue Apr 07 2026 10:43:41 GMT-0500 (Central Daylight Time),641940.2999999523,A,f,I,backspace,224,1,5347.899999976158,636592.3999999762,8102,WL,A,15.0
5,39.603999853134155,learn,60000.0,Tue Apr 07 2026 10:43:41 GMT-0500 (Central Daylight Time),642123.7000000477,A,,I,backspace,176,1,5531.300000071526,636592.3999999762,8102,WL,A,15.0
5,40.47099995613098,learn,60000.0,Tue Apr 07 2026 10:43:41 GMT-0500 (Central Daylight Time),642990.2000000477,A,r,I,r,848,1,6397.800000071526,636592.3999999762,8102,WL,A,15.0
5,40.65400004386902,learn,60000.0,Tue Apr 07 2026 10:43:41 GMT-0500 (Central Daylight Time),643173.1000000238,A,ra,I,a,165,1,6580.700000047684,636592.3999999762,8102,WL,A,15.0
5,40.853999853134155,learn,60000.0,Tue Apr 07 2026 10:43:41 GMT-0500 (Central Daylight Time),643373.3999999762,A,rat,I,t,183,1,6781.0,636592.3999999762,8102,WL,A,15.0
5,41.40400004386902,learn,60000.0,Tue Apr 07 2026 10:43:41 GMT-0500 (Central Daylight Time),643923.0,A,ratt,I,t,543,1,7330.600000023842,636592.3999999762,8102,WL,A,15.0
5,41.58699989318848,learn,60000.0,Tue Apr 07 2026 10:43:41 GMT-0500 (Central Daylight Time),644106.6000000238,A,rattl,I,l,177,1,7514.200000047684,636592.3999999762,8102,WL,A,15.0
5,41.919999837875366,learn,60000.0,Tue Apr 07 2026 10:43:41 GMT-0500 (Central Daylight Time),644439.6000000238,A,rattle,I,e,322,1,7847.200000047684,636592.3999999762,8102,WL,A,15.0
5,42.25399994850159,learn,60000.0,Tue Apr 07 2026 10:43:41 GMT-0500 (Central Daylight Time),644773.0,A,rattleenter,I,enter,325,1,8180.600000023842,636592.3999999762,8102,WL,A,15.0
6,0.38299989700317383,distr,59617.000102996826,Tue Apr 07 2026 10:43:41 GMT-0500 (Central Daylight Time),712884.7000000477,B,c,I,c,366,1,382.90000009536743,712501.7999999523,8102,WL,A,1.0
6,1.0829999446868896,distr,58917.00005531311,Tue Apr 07 2026 10:43:41 GMT-0500 (Central Daylight Time),713584.7000000477,B,co,I,o,686,1,1082.9000000953674,712501.7999999523,8102,WL,A,1.0
6,1.3010001182556152,distr,58698.999881744385,Tue Apr 07 2026 10:43:41 GMT-0500 (Central Daylight Time),713802.7999999523,B,coa,I,a,211,1,1301.0,712501.7999999523,8102,WL,A,1.0
6,1.5160000324249268,distr,58483.99996757507,Tue Apr 07 2026 10:43:41 GMT-0500 (Central Daylight Time),714017.7999999523,B,coat,I,t,200,1,1516.0,712501.7999999523,8102,WL,A,1.0
6,2.683000087738037,distr,57316.99991226196,Tue Apr 07 2026 10:43:41 GMT-0500 (Central Daylight Time),715184.2999999523,B,coa,I,backspace,1154,1,2682.5,712501.7999999523,8102,WL,A,1.0
6,3.6489999294281006,distr,56351.0000705719,Tue Apr 07 2026 10:43:41 GMT-0500 (Central Daylight Time),716150.7000000477,B,coat,I,t,947,1,3648.9000000953674,712501.7999999523,8102,WL,A,1.0
6,3.999000072479248,distr,56000.99992752075,Tue Apr 07 2026 10:43:41 GMT-0500 (Central Daylight Time),716500.3999999762,B,coatenter,I,enter,333,1,3998.600000023842,712501.7999999523,8102,WL,A,1.0
6,4.348999977111816,distr,55651.00002288818,Tue Apr 07 2026 10:43:41 GMT-0500 (Central Daylight Time),716850.2000000477,B,b,I,b,336,1,349.5,716500.7000000477,8102,WL,A,2.0
6,4.549000024795532,distr,55450.99997520447,Tue Apr 07 2026 10:43:41 GMT-0500 (Central Daylight Time),717050.7999999523,B,bo,I,o,187,1,550.0999999046326,716500.7000000477,8102,WL,A,2.0
6,4.749000072479248,distr,55250.99992752075,Tue Apr 07 2026 10:43:41 GMT-0500 (Central Daylight Time),717250.2000000477,B,bot,I,t,193,1,749.5,716500.7000000477,8102,WL,A,2.0
6,4.881999969482422,distr,55118.00003051758,Tue Apr 07 2026 10:43:41 GMT-0500 (Central Daylight Time),717383.7999999523,B,bott,I,t,122,1,883.0999999046326,716500.7000000477,8102,WL,A,2.0
6,5.04800009727478,distr,54951.99990272522,Tue Apr 07 2026 10:43:41 GMT-0500 (Central Daylight Time),717549.8999999762,B,bottl,I,l,148,1,1049.1999999284744,716500.7000000477,8102,WL,A,2.0
6,5.181999921798706,distr,54818.000078201294,Tue Apr 07 2026 10:43:41 GMT-0500 (Central Daylight Time),717683.2999999523,B,bottle,I,e,119,1,1182.5999999046326,716500.7000000477,8102,WL,A,2.0
6,5.549000024795532,distr,54450.99997520447,Tue Apr 07 2026 10:43:41 GMT-0500 (Central Daylight Time),718050.2000000477,B,bottleenter,I,enter,353,1,1549.5,716500.7000000477,8102,WL,A,2.0
6,6.04800009727478,distr,53951.99990272522,Tue Apr 07 2026 10:43:41 GMT-0500 (Central Daylight Time),718549.7000000477,B,p,I,p,481,1,499.2000000476837,718050.5,8102,WL,A,3.0
6,6.265000104904175,distr,53734.999895095825,Tue Apr 07 2026 10:43:41 GMT-0500 (Central Daylight Time),718766.2999999523,B,pe,I,e,199,1,715.7999999523163,718050.5,8102,WL,A,3.0
6,6.614000082015991,distr,53385.99991798401,Tue Apr 07 2026 10:43:41 GMT-0500 (Central Daylight Time),719115.8999999762,B,pea,I,a,333,1,1065.3999999761581,718050.5,8102,WL,A,3.0
6,6.88100004196167,distr,53118.99995803833,Tue Apr 07 2026 10:43:41 GMT-0500 (Central Daylight Time),719383.0,B,peac,I,c,255,1,1332.5,718050.5,8102,WL,A,3.0
6,7.114000082015991,distr,52885.99991798401,Tue Apr 07 2026 10:43:41 GMT-0500 (Central Daylight Time),719616.0,B,peach,I,h,222,1,1565.5,718050.5,8102,WL,A,3.0
6,7.895999908447266,distr,52104.000091552734,Tue Apr 07 2026 10:43:41 GMT-0500 (Central Daylight Time),720399.2000000477,B,peachenter,I,enter,771,1,2348.7000000476837,718050.5,8102,WL,A,3.0
6,8.163000106811523,distr,51836.99989318848,Tue Apr 07 2026 10:43:41 GMT-0500 (Central Daylight Time),720665.8999999762,B,c,I,c,245,1,266.2999999523163,720399.6000000238,8102,WL,A,4.0
6,8.378999948501587,distr,51621.00005149841,Tue Apr 07 2026 10:43:41 GMT-0500 (Central Daylight Time),720882.2000000477,B,ch,I,h,211,1,482.60000002384186,720399.6000000238,8102,WL,A,4.0
6,8.546000003814697,distr,51453.9999961853,Tue Apr 07 2026 10:43:41 GMT-0500 (Central Daylight Time),721049.0,B,cha,I,a,163,1,649.3999999761581,720399.6000000238,8102,WL,A,4.0
6,8.680000066757202,distr,51319.9999332428,Tue Apr 07 2026 10:43:41 GMT-0500 (Central Daylight Time),721182.2999999523,B,chai,I,i,124,1,782.6999999284744,720399.6000000238,8102,WL,A,4.0
6,8.880000114440918,distr,51119.99988555908,Tue Apr 07 2026 10:43:41 GMT-0500 (Central Daylight Time),721382.2999999523,B,chair,I,r,190,1,982.6999999284744,720399.6000000238,8102,WL,A,4.0
6,9.779000043869019,distr,50220.99995613098,Tue Apr 07 2026 10:43:41 GMT-0500 (Central Daylight Time),722281.7999999523,B,chairenter,I,enter,886,1,1882.1999999284744,720399.6000000238,8102,WL,A,4.0
6,12.444999933242798,distr,47555.0000667572,Tue Apr 07 2026 10:43:41 GMT-0500 (Central Daylight Time),724947.8999999762,B,b,I,b,2659,1,2665.7999999523163,722282.1000000238,8102,WL,A,5.0
6,12.67799997329712,distr,47322.00002670288,Tue Apr 07 2026 10:43:41 GMT-0500 (Central Daylight Time),725181.2000000477,B,bo,I,o,224,1,2899.100000023842,722282.1000000238,8102,WL,A,5.0
6,12.960999965667725,distr,47039.000034332275,Tue Apr 07 2026 10:43:41 GMT-0500 (Central Daylight Time),725464.2999999523,B,bow,I,w,262,1,3182.1999999284744,722282.1000000238,8102,WL,A,5.0
6,13.111999988555908,distr,46888.00001144409,Tue Apr 07 2026 10:43:41 GMT-0500 (Central Daylight Time),725614.2999999523,B,bowl,I,l,132,1,3332.1999999284744,722282.1000000238,8102,WL,A,5.0
6,13.59500002861023,distr,46404.99997138977,Tue Apr 07 2026 10:43:41 GMT-0500 (Central Daylight Time),726097.5,B,bowlenter,I,enter,478,1,3815.399999976158,722282.1000000238,8102,WL,A,5.0
6,14.111000061035156,distr,45888.999938964844,Tue Apr 07 2026 10:43:41 GMT-0500 (Central Daylight Time),726613.8999999762,B,j,I,j,500,1,516.1999999284744,726097.7000000477,8102,WL,A,6.0
6,14.378000020980835,distr,45621.999979019165,Tue Apr 07 2026 10:43:41 GMT-0500 (Central Daylight Time),726880.5,B,ju,I,u,255,1,782.7999999523163,726097.7000000477,8102,WL,A,6.0
6,14.66100001335144,distr,45338.99998664856,Tue Apr 07 2026 10:43:41 GMT-0500 (Central Daylight Time),727163.7000000477,B,jud,I,d,275,1,1066.0,726097.7000000477,8102,WL,A,6.0
6,14.927000045776367,distr,45072.99995422363,Tue Apr 07 2026 10:43:41 GMT-0500 (Central Daylight Time),727430.2999999523,B,judg,I,g,248,1,1332.5999999046326,726097.7000000477,8102,WL,A,6.0
6,15.094000101089478,distr,44905.99989891052,Tue Apr 07 2026 10:43:41 GMT-0500 (Central Daylight Time),727596.8999999762,B,judge,I,e,150,1,1499.1999999284744,726097.7000000477,8102,WL,A,6.0
6,15.510999917984009,distr,44489.00008201599,Tue Apr 07 2026 10:43:41 GMT-0500 (Central Daylight Time),728013.6000000238,B,judgeenter,I,enter,399,1,1915.8999999761581,726097.7000000477,8102,WL,A,6.0
6,15.944000005722046,distr,44055.999994277954,Tue Apr 07 2026 10:43:41 GMT-0500 (Central Daylight Time),728446.8999999762,B,g,I,g,423,1,433.10000002384186,728013.7999999523,8102,WL,A,7.0
6,16.127000093460083,distr,43872.99990653992,Tue Apr 07 2026 10:43:41 GMT-0500 (Central Daylight Time),728630.1000000238,B,gr,I,r,174,1,616.3000000715256,728013.7999999523,8102,WL,A,7.0
6,16.344000101089478,distr,43655.99989891052,Tue Apr 07 2026 10:43:41 GMT-0500 (Central Daylight Time),728846.5,B,gra,I,a,206,1,832.7000000476837,728013.7999999523,8102,WL,A,7.0
6,16.55999994277954,distr,43440.00005722046,Tue Apr 07 2026 10:43:41 GMT-0500 (Central Daylight Time),729063.2000000477,B,gran,I,n,198,1,1049.4000000953674,728013.7999999523,8102,WL,A,7.0
6,16.776999950408936,distr,43223.000049591064,Tue Apr 07 2026 10:43:41 GMT-0500 (Central Daylight Time),729279.8999999762,B,grant,I,t,196,1,1266.1000000238419,728013.7999999523,8102,WL,A,7.0
6,17.009999990463257,distr,42990.00000953674,Tue Apr 07 2026 10:43:41 GMT-0500 (Central Daylight Time),729513.1000000238,B,grantenter,I,enter,213,1,1499.3000000715256,728013.7999999523,8102,WL,A,7.0
6,19.109999895095825,distr,40890.000104904175,Tue Apr 07 2026 10:43:41 GMT-0500 (Central Daylight Time),731612.6000000238,B,i,I,i,2092,1,2099.0,729513.6000000238,8102,WL,A,8.0
6,19.342999935150146,distr,40657.00006484985,Tue Apr 07 2026 10:43:41 GMT-0500 (Central Daylight Time),731845.5,B,in,I,n,223,1,2331.899999976158,729513.6000000238,8102,WL,A,8.0
6,19.608999967575073,distr,40391.00003242493,Tue Apr 07 2026 10:43:41 GMT-0500 (Central Daylight Time),732112.2000000477,B,ins,I,s,246,1,2598.600000023842,729513.6000000238,8102,WL,A,8.0
6,19.759000062942505,distr,40240.999937057495,Tue Apr 07 2026 10:43:41 GMT-0500 (Central Daylight Time),732262.2000000477,B,inse,I,e,131,1,2748.600000023842,729513.6000000238,8102,WL,A,8.0
6,19.993000030517578,distr,40006.99996948242,Tue Apr 07 2026 10:43:41 GMT-0500 (Central Daylight Time),732495.5,B,insec,I,c,222,1,2981.899999976158,729513.6000000238,8102,WL,A,8.0
6,20.276000022888184,distr,39723.99997711182,Tue Apr 07 2026 10:43:41 GMT-0500 (Central Daylight Time),732778.8999999762,B,insect,I,t,269,1,3265.2999999523163,729513.6000000238,8102,WL,A,8.0
6,20.55900001525879,distr,39440.99998474121,Tue Apr 07 2026 10:43:41 GMT-0500 (Central Daylight Time),733061.8999999762,B,insectenter,I,enter,266,1,3548.2999999523163,729513.6000000238,8102,WL,A,8.0
6,20.9760000705719,distr,39023.9999294281,Tue Apr 07 2026 10:43:41 GMT-0500 (Central Daylight Time),733479.2999999523,B,m,I,m,405,1,417.0,733062.2999999523,8102,WL,A,9.0
6,21.125999927520752,distr,38874.00007247925,Tue Apr 07 2026 10:43:41 GMT-0500 (Central Daylight Time),733628.6000000238,B,me,I,e,141,1,566.3000000715256,733062.2999999523,8102,WL,A,9.0
6,21.358999967575073,distr,38641.00003242493,Tue Apr 07 2026 10:43:41 GMT-0500 (Central Daylight Time),733861.6000000238,B,mea,I,a,224,1,799.3000000715256,733062.2999999523,8102,WL,A,9.0
6,21.52500009536743,distr,38474.99990463257,Tue Apr 07 2026 10:43:41 GMT-0500 (Central Daylight Time),734028.2999999523,B,meal,I,l,159,1,966.0,733062.2999999523,8102,WL,A,9.0
6,22.308000087738037,distr,37691.99991226196,Tue Apr 07 2026 10:43:41 GMT-0500 (Central Daylight Time),734811.2999999523,B,mealenter,I,enter,768,1,1749.0,733062.2999999523,8102,WL,A,9.0
6,23.54200005531311,distr,36457.99994468689,Tue Apr 07 2026 10:43:41 GMT-0500 (Central Daylight Time),736044.2999999523,B,s,I,s,1225,1,1232.5999999046326,734811.7000000477,8102,WL,A,10.0
6,23.808000087738037,distr,36191.99991226196,Tue Apr 07 2026 10:43:41 GMT-0500 (Central Daylight Time),736310.7999999523,B,sh,I,h,247,1,1499.0999999046326,734811.7000000477,8102,WL,A,10.0
6,24.007999897003174,distr,35992.000102996826,Tue Apr 07 2026 10:43:41 GMT-0500 (Central Daylight Time),736510.8999999762,B,she,I,e,190,1,1699.1999999284744,734811.7000000477,8102,WL,A,10.0
6,24.19099998474121,distr,35809.00001525879,Tue Apr 07 2026 10:43:41 GMT-0500 (Central Daylight Time),736694.2999999523,B,shee,I,e,165,1,1882.5999999046326,734811.7000000477,8102,WL,A,10.0
6,24.35800004005432,distr,35641.99995994568,Tue Apr 07 2026 10:43:41 GMT-0500 (Central Daylight Time),736860.6000000238,B,sheep,I,p,159,1,2048.899999976158,734811.7000000477,8102,WL,A,10.0
6,25.20799994468689,distr,34792.00005531311,Tue Apr 07 2026 10:43:41 GMT-0500 (Central Daylight Time),737710.6000000238,B,sheepenter,I,enter,840,1,2898.899999976158,734811.7000000477,8102,WL,A,10.0
6,44.18499994277954,distr,15815.000057220459,Tue Apr 07 2026 10:43:41 GMT-0500 (Central Daylight Time),756687.7999999523,B,d,I,d,18957,1,18976.899999976158,737710.8999999762,8102,WL,A,11.0
6,44.484999895095825,distr,15515.000104904175,Tue Apr 07 2026 10:43:41 GMT-0500 (Central Daylight Time),756987.8999999762,B,da,I,a,292,1,19277.0,737710.8999999762,8102,WL,A,11.0
6,44.68499994277954,distr,15315.000057220459,Tue Apr 07 2026 10:43:41 GMT-0500 (Central Daylight Time),757187.7000000477,B,daw,I,w,193,1,19476.800000071526,737710.8999999762,8102,WL,A,11.0
6,45.151000022888184,distr,14848.999977111816,Tue Apr 07 2026 10:43:41 GMT-0500 (Central Daylight Time),757654.2000000477,B,dawn,I,n,448,1,19943.300000071526,737710.8999999762,8102,WL,A,11.0
6,46.051000118255615,distr,13948.999881744385,Tue Apr 07 2026 10:43:41 GMT-0500 (Central Daylight Time),758553.8999999762,B,dawnenter,I,enter,886,1,20843.0,737710.8999999762,8102,WL,A,11.0
6,57.831000089645386,distr,2168.9999103546143,Tue Apr 07 2026 10:43:41 GMT-0500 (Central Daylight Time),770333.7000000477,B,t,I,t,11763,1,11779.600000023842,758554.1000000238,8102,WL,A,12.0
6,58.109999895095825,distr,1890.0001049041748,Tue Apr 07 2026 10:43:41 GMT-0500 (Central Daylight Time),770612.3999999762,B,to,I,o,273,1,12058.299999952316,758554.1000000238,8102,WL,A,12.0
6,58.25699996948242,distr,1743.0000305175781,Tue Apr 07 2026 10:43:41 GMT-0500 (Central Daylight Time),770759.7000000477,B,toa,I,a,142,1,12205.600000023842,758554.1000000238,8102,WL,A,12.0
6,58.38100004196167,distr,1618.99995803833,Tue Apr 07 2026 10:43:41 GMT-0500 (Central Daylight Time),770883.3999999762,B,toad,I,d,118,1,12329.299999952316,758554.1000000238,8102,WL,A,12.0
6,58.81399989128113,distr,1186.000108718872,Tue Apr 07 2026 10:43:41 GMT-0500 (Central Daylight Time),771316.7000000477,B,toadenter,I,enter,425,1,12762.600000023842,758554.1000000238,8102,WL,A,12.0
6,59.598000049591064,distr,401.99995040893555,Tue Apr 07 2026 10:43:41 GMT-0500 (Central Daylight Time),772100.8999999762,B,s,I,s,775,1,783.8999999761581,771317.0,8102,WL,A,13.0
6,59.76300001144409,distr,236.9999885559082,Tue Apr 07 2026 10:43:41 GMT-0500 (Central Daylight Time),772266.2000000477,B,sh,I,h,159,1,949.2000000476837,771317.0,8102,WL,A,13.0
6,60.01300001144409,distr,-13.000011444091797,Tue Apr 07 2026 10:43:41 GMT-0500 (Central Daylight Time),772516.2999999523,B,shNone,I,None,245,1,1199.2999999523163,771317.0,8102,WL,A,13.0
7,3.6490001678466797,immed,56350.99983215332,Tue Apr 07 2026 10:43:41 GMT-0500 (Central Daylight Time),787344.7999999523,A,b,I,b,3644,1,3648.399999976158,783696.3999999762,8102,WL,A,1.0
7,4.0320000648498535,immed,55967.99993515015,Tue Apr 07 2026 10:43:41 GMT-0500 (Central Daylight Time),787728.2000000477,A,bo,I,o,371,1,4031.8000000715256,783696.3999999762,8102,WL,A,1.0
7,4.199000120162964,immed,55800.999879837036,Tue Apr 07 2026 10:43:41 GMT-0500 (Central Daylight Time),787894.6000000238,A,boo,I,o,149,1,4198.200000047684,783696.3999999762,8102,WL,A,1.0
7,4.332000017166138,immed,55667.99998283386,Tue Apr 07 2026 10:43:41 GMT-0500 (Central Daylight Time),788028.2000000477,A,book,I,k,118,1,4331.800000071526,783696.3999999762,8102,WL,A,1.0
7,5.29800009727478,immed,54701.99990272522,Tue Apr 07 2026 10:43:41 GMT-0500 (Central Daylight Time),788994.3999999762,A,bookenter,I,enter,953,1,5298.0,783696.3999999762,8102,WL,A,1.0
7,5.631999969482422,immed,54368.00003051758,Tue Apr 07 2026 10:43:41 GMT-0500 (Central Daylight Time),789327.7999999523,A,t,I,t,314,1,333.09999990463257,788994.7000000477,8102,WL,A,2.0
7,5.765000104904175,immed,54234.999895095825,Tue Apr 07 2026 10:43:41 GMT-0500 (Central Daylight Time),789461.1000000238,A,tr,I,r,123,1,466.39999997615814,788994.7000000477,8102,WL,A,2.0
7,6.04800009727478,immed,53951.99990272522,Tue Apr 07 2026 10:43:41 GMT-0500 (Central Daylight Time),789744.2999999523,A,tra,I,a,272,1,749.5999999046326,788994.7000000477,8102,WL,A,2.0
7,6.198000192642212,immed,53801.99980735779,Tue Apr 07 2026 10:43:41 GMT-0500 (Central Daylight Time),789894.1000000238,A,trai,I,i,132,1,899.3999999761581,788994.7000000477,8102,WL,A,2.0
7,6.3480000495910645,immed,53651.999950408936,Tue Apr 07 2026 10:43:41 GMT-0500 (Central Daylight Time),790044.0,A,train,I,n,141,1,1049.2999999523163,788994.7000000477,8102,WL,A,2.0
7,7.481000185012817,immed,52518.99981498718,Tue Apr 07 2026 10:43:41 GMT-0500 (Central Daylight Time),791177.1000000238,A,trainenter,I,enter,1128,1,2182.399999976158,788994.7000000477,8102,WL,A,2.0
7,7.831000089645386,immed,52168.999910354614,Tue Apr 07 2026 10:43:41 GMT-0500 (Central Daylight Time),791526.7999999523,A,f,I,f,332,1,349.5,791177.2999999523,8102,WL,A,3.0
7,7.998000144958496,immed,52001.999855041504,Tue Apr 07 2026 10:43:41 GMT-0500 (Central Daylight Time),791693.6000000238,A,fl,I,l,149,1,516.3000000715256,791177.2999999523,8102,WL,A,3.0
7,8.246999979019165,immed,51753.000020980835,Tue Apr 07 2026 10:43:41 GMT-0500 (Central Daylight Time),791943.5,A,flo,I,o,238,1,766.2000000476837,791177.2999999523,8102,WL,A,3.0
7,8.547000169754028,immed,51452.99983024597,Tue Apr 07 2026 10:43:41 GMT-0500 (Central Daylight Time),792243.3999999762,A,flow,I,w,285,1,1066.1000000238419,791177.2999999523,8102,WL,A,3.0
7,8.847000122070312,immed,51152.99987792969,Tue Apr 07 2026 10:43:41 GMT-0500 (Central Daylight Time),792543.3999999762,A,flowe,I,e,289,1,1366.1000000238419,791177.2999999523,8102,WL,A,3.0
7,8.94700002670288,immed,51052.99997329712,Tue Apr 07 2026 10:43:41 GMT-0500 (Central Daylight Time),792643.3999999762,A,flower,I,r,93,1,1466.1000000238419,791177.2999999523,8102,WL,A,3.0
7,9.364000082015991,immed,50635.99991798401,Tue Apr 07 2026 10:43:41 GMT-0500 (Central Daylight Time),793059.7999999523,A,flowerenter,I,enter,409,1,1882.5,791177.2999999523,8102,WL,A,3.0
