acc_sum,block,block_c,condition,correct,correct_response,datetime,endtime,flanker,jitter,project,response,response_test_buffer_response,response_test_target_response,response_time,response_time_test_buffer_response,response_time_test_target_response,row_sel,session_number,start_end,starttime,subject_id,target,task,task_vers,time_test_buffer,time_test_buffer_response,time_test_constants,time_test_flanker,time_test_jitter,time_test_logger,time_test_target,time_test_target_response,time_test_variables,trial
1,prac,1,inc,1,z,Wed Jan 07 2026 09:10:42 GMT-0600 (Central Standard Time),68958.39999997616,napkin,1100,I,z,,,1123,,,12,3,3527.899999976158,65430.5,8036,friend,AF,B,,,,,,,,,,1
2,prac,1,inc,1,m,Wed Jan 07 2026 09:10:42 GMT-0600 (Central Standard Time),72207.20000004768,elated,900,I,m,,,1047,,,6,3,3242.600000023842,68964.60000002384,8036,napkin,AF,B,,,,,,,,,,2
3,prac,1,con,1,m,Wed Jan 07 2026 09:10:42 GMT-0600 (Central Standard Time),75239.39999997616,bell,1000,I,m,,,730,,,3,3,3027.5999999046326,72211.80000007153,8036,bell,AF,B,,,,,,,,,,3
4,prac,1,con,1,m,Wed Jan 07 2026 09:10:42 GMT-0600 (Central Standard Time),78488.5,jacket,800,I,m,,,1143,,,5,3,3245.0,75243.5,8036,jacket,AF,B,,,,,,,,,,4
5,prac,1,con,1,z,Wed Jan 07 2026 09:10:42 GMT-0600 (Central Standard Time),81804.20000004768,rage,1000,I,z,,,1007,,,15,3,3311.0,78493.20000004768,8036,rage,AF,B,,,,,,,,,,5
6,prac,1,inc,1,z,Wed Jan 07 2026 09:10:42 GMT-0600 (Central Standard Time),84936.60000002384,rock,900,I,z,,,921,,,10,3,3128.100000023842,81808.5,8036,kind,AF,B,,,,,,,,,,6
7,prac,1,inc,1,m,Wed Jan 07 2026 09:10:42 GMT-0600 (Central Standard Time),88119.10000002384,kind,900,I,m,,,979,,,2,3,3177.7000000476837,84941.39999997616,8036,rock,AF,B,,,,,,,,,,7
8,prac,1,inc,1,z,Wed Jan 07 2026 09:10:42 GMT-0600 (Central Standard Time),91467.89999997616,window,1100,I,z,,,941,,,16,3,3344.2999999523163,88123.60000002384,8036,temper,AF,B,,,,,,,,,,8
9,prac,1,con,1,m,Wed Jan 07 2026 09:10:42 GMT-0600 (Central Standard Time),94466.70000004768,remote,1000,I,m,,,693,,,7,3,2994.5,91472.20000004768,8036,remote,AF,B,,,,,,,,,,9
10,prac,1,con,1,z,Wed Jan 07 2026 09:10:42 GMT-0600 (Central Standard Time),97415.89999997616,elated,800,I,z,,,846,,,9,3,2945.0999999046326,94470.80000007153,8036,elated,AF,B,,,,,,,,,,10
11,prac,1,con,1,m,Wed Jan 07 2026 09:10:42 GMT-0600 (Central Standard Time),100465.20000004768,step,800,I,m,,,953,,,1,3,3044.0,97421.20000004768,8036,step,AF,B,,,,,,,,,,11
12,prac,1,con,1,z,Wed Jan 07 2026 09:10:42 GMT-0600 (Central Standard Time),103680.70000004768,love,1000,I,z,,,912,,,11,3,3210.5,100470.20000004768,8036,love,AF,B,,,,,,,,,,12
13,prac,1,inc,1,z,Wed Jan 07 2026 09:10:42 GMT-0600 (Central Standard Time),106729.70000004768,film,900,I,z,,,844,,,14,3,3044.600000023842,103685.10000002384,8036,hate,AF,B,,,,,,,,,,13
14,prac,1,inc,1,m,Wed Jan 07 2026 09:10:42 GMT-0600 (Central Standard Time),110011.60000002384,hate,1100,I,m,,,875,,,4,3,3278.0,106733.60000002384,8036,film,AF,B,,,,,,,,,,14
15,prac,1,con,1,z,Wed Jan 07 2026 09:10:42 GMT-0600 (Central Standard Time),113227.89999997616,brutal,800,I,z,,,1109,,,13,3,3211.5,110016.39999997616,8036,brutal,AF,B,,,,,,,,,,15
16,prac,1,inc,1,m,Wed Jan 07 2026 09:10:42 GMT-0600 (Central Standard Time),116593.0,brutal,1100,I,m,,,951,,,8,3,3360.7999999523163,113232.20000004768,8036,window,AF,B,,,,,,,,,,16
0,test,1,inc,0,m,Wed Jan 07 2026 09:10:42 GMT-0600 (Central Standard Time),127789.80000007153,friend,1100,I,None,None,None,1800,1800.0,200.0,128,3,3629.100000023842,124160.70000004768,8036,window,AF,B,123919,123919,122090,123203,122090,125719,123719,123719,125719,1
1,test,1,inc,1,m,Wed Jan 07 2026 09:10:42 GMT-0600 (Central Standard Time),130172.39999997616,hate,1100,I,m,m,None,734,535.0,199.0,96,3,2377.7999999523163,127794.60000002384,8036,film,AF,B,127552,127552,125724,126835,125724,128101,127352,127352,128101,2
1,test,1,inc,0,m,Wed Jan 07 2026 09:10:42 GMT-0600 (Central Standard Time),132504.89999997616,hate,1100,I,z,z,None,697,497.0,200.0,88,3,2327.1999999284744,130177.70000004768,8036,bell,AF,B,129934,129934,128107,129218,128107,130434,129734,129734,130434,3
2,test,1,con,1,m,Wed Jan 07 2026 09:10:42 GMT-0600 (Central Standard Time),134437.80000007153,bell,800,I,m,m,None,600,400.0,200.0,81,3,1928.8000000715256,132509.0,8036,bell,AF,B,131967,131967,130438,131251,130438,132367,131767,131767,132367,4
3,test,1,con,1,m,Wed Jan 07 2026 09:10:42 GMT-0600 (Central Standard Time),136687.60000002384,remote,1000,I,m,m,None,731,532.0,199.0,115,3,2246.100000023842,134441.5,8036,remote,AF,B,134083,134083,132371,133383,132371,134617,133884,133884,134617,5
4,test,1,inc,1,m,Wed Jan 07 2026 09:10:42 GMT-0600 (Central Standard Time),138769.70000004768,kind,900,I,m,m,None,638,438.0,200.0,78,3,2078.100000023842,136691.60000002384,8036,rock,AF,B,136249,136249,134621,135533,134621,136699,136049,136049,136699,6
5,test,1,con,1,m,Wed Jan 07 2026 09:10:42 GMT-0600 (Central Standard Time),140902.20000004768,jacket,900,I,m,m,None,691,492.0,199.0,98,3,2128.3000000715256,138773.89999997616,8036,jacket,AF,B,138331,138331,136703,137615,136703,138831,138132,138132,138831,7
6,test,1,con,1,m,Wed Jan 07 2026 09:10:42 GMT-0600 (Central Standard Time),143734.5,step,1000,I,m,m,None,1299,1099.0,200.0,67,3,2827.899999976158,140906.60000002384,8036,step,AF,B,140564,140564,138836,139848,138836,141664,140364,140364,141664,8
7,test,1,inc,1,z,Wed Jan 07 2026 09:10:42 GMT-0600 (Central Standard Time),146250.70000004768,remote,1000,I,z,z,None,977,778.0,199.0,63,3,2512.399999976158,143738.30000007153,8036,temper,AF,B,143397,143397,141667,142682,141668,144180,143197,143197,144180,9
8,test,1,con,1,z,Wed Jan 07 2026 09:10:42 GMT-0600 (Central Standard Time),148850.10000002384,elated,1000,I,z,z,None,1053,854.0,199.0,3,3,2595.5,146254.60000002384,8036,elated,AF,B,145913,145913,144184,145196,144184,146779,145713,145713,146779,10
9,test,1,con,1,m,Wed Jan 07 2026 09:10:42 GMT-0600 (Central Standard Time),150982.30000007153,jacket,1000,I,m,m,None,590,391.0,199.0,99,3,2127.600000023842,148854.70000004768,8036,jacket,AF,B,148512,148512,146784,147795,146784,148911,148312,148312,148911,11
9,test,1,con,0,z,Wed Jan 07 2026 09:10:42 GMT-0600 (Central Standard Time),153198.39999997616,rage,1100,I,m,m,None,572,373.0,199.0,52,3,2212.0999999046326,150986.30000007153,8036,rage,AF,B,150745,150745,148915,150028,148916,151127,150545,150545,151127,12
10,test,1,con,1,z,Wed Jan 07 2026 09:10:42 GMT-0600 (Central Standard Time),155131.0,love,800,I,z,z,None,593,394.0,199.0,17,3,1928.7999999523163,153202.20000004768,8036,love,AF,B,152661,152661,151131,151944,151132,153060,152460,152461,153060,13
11,test,1,inc,1,m,Wed Jan 07 2026 09:10:42 GMT-0600 (Central Standard Time),157363.80000007153,love,1000,I,m,m,None,692,493.0,199.0,79,3,2228.600000023842,155135.20000004768,8036,rock,AF,B,154794,154794,153064,154077,153064,155293,154594,154594,155293,14
12,test,1,inc,1,m,Wed Jan 07 2026 09:10:42 GMT-0600 (Central Standard Time),159746.20000004768,temper,1000,I,m,m,None,845,645.0,200.0,119,3,2378.3000000715256,157367.89999997616,8036,remote,AF,B,157026,157026,155297,156310,155297,157675,156826,156826,157675,15
13,test,1,con,1,m,Wed Jan 07 2026 09:10:42 GMT-0600 (Central Standard Time),161928.80000007153,film,800,I,m,m,None,845,646.0,199.0,89,3,2178.2000000476837,159750.60000002384,8036,film,AF,B,159208,159209,157680,158492,157680,159858,159009,159009,159858,16
14,test,1,inc,1,z,Wed Jan 07 2026 09:10:42 GMT-0600 (Central Standard Time),164178.20000004768,remote,1000,I,z,z,None,704,504.0,200.0,31,3,2245.399999976158,161932.80000007153,8036,friend,AF,B,161591,161591,159862,160875,159862,162107,161391,161391,162107,17
15,test,1,inc,1,m,Wed Jan 07 2026 09:10:42 GMT-0600 (Central Standard Time),166627.5,hate,1100,I,m,m,None,811,611.0,200.0,80,3,2445.2999999523163,164182.20000004768,8036,rock,AF,B,163940,163940,162111,163224,162112,164557,163740,163740,164557,18
16,test,1,con,1,m,Wed Jan 07 2026 09:10:42 GMT-0600 (Central Standard Time),168926.70000004768,jacket,800,I,m,m,None,956,757.0,199.0,97,3,2295.600000023842,166631.10000002384,8036,jacket,AF,B,166090,166090,164560,165373,164560,166856,165890,165890,166856,19
17,test,1,inc,1,z,Wed Jan 07 2026 09:10:42 GMT-0600 (Central Standard Time),171176.0,rock,900,I,z,z,None,806,606.0,200.0,22,3,2245.1999999284744,168930.80000007153,8036,love,AF,B,168489,168489,166860,167772,166860,169105,168289,168289,169105,20
18,test,1,inc,1,m,Wed Jan 07 2026 09:10:42 GMT-0600 (Central Standard Time),173708.80000007153,friend,1100,I,m,m,None,893,693.0,200.0,112,3,2528.8000000715256,171180.0,8036,napkin,AF,B,170938,170938,169109,170222,169109,171638,170738,170738,171638,21
19,test,1,inc,1,m,Wed Jan 07 2026 09:10:42 GMT-0600 (Central Standard Time),175991.20000004768,brutal,900,I,m,m,None,839,640.0,199.0,102,3,2276.7000000476837,173714.5,8036,jacket,AF,B,173271,173271,171644,172554,171644,173920,173071,173071,173920,22
20,test,1,con,1,z,Wed Jan 07 2026 09:10:42 GMT-0600 (Central Standard Time),177991.0,temper,800,I,z,z,None,658,458.0,200.0,57,3,1995.6000000238419,175995.39999997616,8036,temper,AF,B,175453,175453,173924,174737,173925,175920,175253,175253,175920,23
21,test,1,con,1,m,Wed Jan 07 2026 09:10:42 GMT-0600 (Central Standard Time),180239.80000007153,napkin,900,I,m,m,None,805,606.0,199.0,106,3,2244.8000000715256,177995.0,8036,napkin,AF,B,177553,177553,175924,176836,175924,178169,177353,177353,178169,24
22,test,1,inc,1,z,Wed Jan 07 2026 09:10:42 GMT-0600 (Central Standard Time),182689.0,napkin,900,I,z,z,None,1005,805.0,200.0,62,3,2445.5,180243.5,8036,temper,AF,B,179802,179802,178173,179086,178173,180618,179602,179602,180618,25
23,test,1,inc,1,z,Wed Jan 07 2026 09:10:42 GMT-0600 (Central Standard Time),185071.5,remote,1000,I,z,z,None,848,648.0,200.0,7,3,2377.899999976158,182693.60000002384,8036,elated,AF,B,182351,182351,180623,181635,180623,183001,182151,182151,183001,26
24,test,1,con,1,z,Wed Jan 07 2026 09:10:42 GMT-0600 (Central Standard Time),187387.89999997616,elated,1100,I,z,z,None,669,469.0,200.0,4,3,2312.399999976158,185075.5,8036,elated,AF,B,184834,184834,183005,184117,183005,185317,184634,184634,185317,27
25,test,1,inc,1,m,Wed Jan 07 2026 09:10:42 GMT-0600 (Central Standard Time),189904.60000002384,friend,1100,I,m,m,None,880,681.0,199.0,104,3,2512.7000000476837,187391.89999997616,8036,jacket,AF,B,187150,187150,185321,186434,185321,187834,186951,186951,187834,28
26,test,1,inc,1,z,Wed Jan 07 2026 09:10:42 GMT-0600 (Central Standard Time),192486.30000007153,window,1100,I,z,z,None,949,750.0,199.0,8,3,2577.0,189909.30000007153,8036,elated,AF,B,189649,189649,187838,188949,187839,190415,189450,189450,190415,29
27,test,1,con,1,m,Wed Jan 07 2026 09:10:42 GMT-0600 (Central Standard Time),194518.80000007153,napkin,800,I,m,m,None,699,499.0,200.0,105,3,2028.1000000238419,192490.70000004768,8036,napkin,AF,B,191948,191948,190420,191232,190420,192448,191748,191748,192448,30
28,test,1,inc,1,z,Wed Jan 07 2026 09:10:42 GMT-0600 (Central Standard Time),196651.60000002384,step,800,I,z,z,None,685,486.0,199.0,45,3,2128.600000023842,194523.0,8036,hate,AF,B,194081,194081,192452,193374,192452,194581,193882,193882,194580,31
29,test,1,con,1,m,Wed Jan 07 2026 09:10:42 GMT-0600 (Central Standard Time),198567.5,window,800,I,m,m,None,580,381.0,199.0,121,3,1912.2999999523163,196655.20000004768,8036,window,AF,B,196114,196114,194584,195397,194585,196497,195914,195914,196497,32
30,test,1,inc,1,z,Wed Jan 07 2026 09:10:42 GMT-0600 (Central Standard Time),200933.5,bell,1000,I,z,z,None,816,617.0,199.0,23,3,2362.1999999284744,198571.30000007153,8036,love,AF,B,198230,198230,196500,197513,196501,198863,198030,198030,198863,33
31,test,1,inc,1,z,Wed Jan 07 2026 09:10:42 GMT-0600 (Central Standard Time),203183.0,napkin,900,I,z,z,None,801,601.0,200.0,6,3,2246.0,200937.0,8036,elated,AF,B,200496,200496,198866,199779,198866,201112,200295,200295,201112,34
32,test,1,inc,1,m,Wed Jan 07 2026 09:10:42 GMT-0600 (Central Standard Time),205465.60000002384,temper,1000,I,m,m,None,737,537.0,200.0,111,3,2279.100000023842,203186.5,8036,napkin,AF,B,202845,202845,201116,202128,201116,203395,202645,202645,203395,35
33,test,1,inc,1,z,Wed Jan 07 2026 09:10:42 GMT-0600 (Central Standard Time),207548.0,step,800,I,z,z,None,743,543.0,200.0,53,3,2078.6999999284744,205469.30000007153,8036,rage,AF,B,204928,204928,203398,204211,203399,205477,204727,204727,205477,36
34,test,1,con,1,m,Wed Jan 07 2026 09:10:42 GMT-0600 (Central Standard Time),209863.89999997616,film,1000,I,m,m,None,781,581.0,200.0,91,3,2312.1999999284744,207551.70000004768,8036,film,AF,B,207210,207210,205481,206494,205481,207793,207010,207010,207793,37
35,test,1,inc,1,z,Wed Jan 07 2026 09:10:42 GMT-0600 (Central Standard Time),212063.39999997616,bell,1000,I,z,z,None,657,457.0,200.0,55,3,2195.6999999284744,209867.70000004768,8036,rage,AF,B,209526,209526,207797,208810,207797,209993,209326,209326,209992,38
36,test,1,inc,1,z,Wed Jan 07 2026 09:10:42 GMT-0600 (Central Standard Time),214229.30000007153,rock,900,I,z,z,None,732,533.0,199.0,46,3,2162.0,212067.30000007153,8036,hate,AF,B,211609,211609,209996,210909,209997,212158,211410,211410,212158,39
37,test,1,con,1,m,Wed Jan 07 2026 09:10:42 GMT-0600 (Central Standard Time),216745.10000002384,step,900,I,m,m,None,1080,880.0,200.0,66,3,2511.7000000476837,214233.39999997616,8036,step,AF,B,213791,213791,212162,213075,212163,214674,213591,213591,214674,40
38,test,1,inc,1,m,Wed Jan 07 2026 09:10:42 GMT-0600 (Central Standard Time),219427.60000002384,love,1000,I,m,m,None,1136,936.0,200.0,95,3,2678.600000023842,216749.0,8036,film,AF,B,216407,216407,214678,215691,214678,217357,216207,216207,217357,41
39,test,1,inc,1,m,Wed Jan 07 2026 09:10:42 GMT-0600 (Central Standard Time),221793.60000002384,kind,900,I,m,m,None,928,729.0,199.0,94,3,2362.2999999523163,219431.30000007153,8036,film,AF,B,218990,218990,217360,218273,217361,219723,218790,218790,219723,42
40,test,1,con,1,m,Wed Jan 07 2026 09:10:42 GMT-0600 (Central Standard Time),224043.0,window,900,I,m,m,None,803,603.0,200.0,122,3,2245.6999999284744,221797.30000007153,8036,window,AF,B,221356,221356,219726,220639,219727,221972,221156,221156,221972,43
41,test,1,con,1,z,Wed Jan 07 2026 09:10:42 GMT-0600 (Central Standard Time),226575.39999997616,brutal,800,I,z,z,None,1190,990.0,200.0,33,3,2528.7999999523163,224046.60000002384,8036,brutal,AF,B,223505,223505,221976,222789,221976,224504,223305,223305,224504,44
42,test,1,con,1,z,Wed Jan 07 2026 09:10:42 GMT-0600 (Central Standard Time),228758.0,love,1000,I,z,z,None,634,434.0,200.0,19,3,2178.899999976158,226579.10000002384,8036,love,AF,B,226238,226238,224508,225521,224508,226687,226037,226037,226687,45
43,test,1,con,1,m,Wed Jan 07 2026 09:10:42 GMT-0600 (Central Standard Time),230824.0,film,900,I,m,m,None,623,423.0,200.0,90,3,2062.100000023842,228761.89999997616,8036,film,AF,B,228320,228320,226691,227604,226691,228753,228120,228120,228753,46
44,test,1,con,1,m,Wed Jan 07 2026 09:10:42 GMT-0600 (Central Standard Time),233173.39999997616,step,800,I,m,m,None,1008,808.0,200.0,65,3,2345.5,230827.89999997616,8036,step,AF,B,230286,230286,228757,229570,228757,231102,230086,230086,231102,47
45,test,1,con,1,m,Wed Jan 07 2026 09:10:42 GMT-0600 (Central Standard Time),235472.5,window,1000,I,m,m,None,762,563.0,199.0,123,3,2295.600000023842,233176.89999997616,8036,window,AF,B,232835,232835,231106,232119,231106,233402,232635,232636,233402,48
46,test,1,inc,1,z,Wed Jan 07 2026 09:10:42 GMT-0600 (Central Standard Time),237621.60000002384,step,800,I,z,z,None,815,615.0,200.0,21,3,2145.600000023842,235476.0,8036,love,AF,B,234935,234935,233405,234218,233405,235551,234735,234735,235551,49
47,test,1,con,1,z,Wed Jan 07 2026 09:10:42 GMT-0600 (Central Standard Time),239654.80000007153,love,900,I,z,z,None,591,391.0,200.0,18,3,2029.5,237625.30000007153,8036,love,AF,B,237184,237184,235554,236467,235555,237584,236984,236984,237584,50
48,test,1,con,1,m,Wed Jan 07 2026 09:10:42 GMT-0600 (Central Standard Time),242004.0,rock,1100,I,m,m,None,718,518.0,200.0,76,3,2345.100000023842,239658.89999997616,8036,rock,AF,B,239401,239401,237588,238700,237588,239933,239201,239201,239933,51
49,test,1,inc,1,z,Wed Jan 07 2026 09:10:42 GMT-0600 (Central Standard Time),244469.5,window,1100,I,z,z,None,832,632.0,200.0,40,3,2461.6999999284744,242007.80000007153,8036,brutal,AF,B,241766,241766,239937,241050,239937,242399,241566,241566,242399,52
50,test,1,con,1,m,Wed Jan 07 2026 09:10:42 GMT-0600 (Central Standard Time),246885.39999997616,bell,1100,I,m,m,None,775,575.0,200.0,84,3,2411.7999999523163,244473.60000002384,8036,bell,AF,B,244232,244232,242403,243515,242403,244815,244032,244032,244814,53
51,test,1,con,1,m,Wed Jan 07 2026 09:10:42 GMT-0600 (Central Standard Time),249418.30000007153,rock,1000,I,m,m,None,995,795.0,200.0,75,3,2529.2000000476837,246889.10000002384,8036,rock,AF,B,246548,246548,244818,245831,244818,247347,246348,246348,247347,54
52,test,1,con,1,z,Wed Jan 07 2026 09:10:42 GMT-0600 (Central Standard Time),251650.89999997616,rage,900,I,z,z,None,787,587.0,200.0,50,3,2229.0,249421.89999997616,8036,rage,AF,B,248980,248980,247351,248264,247351,249580,248780,248780,249580,55
53,test,1,con,1,z,Wed Jan 07 2026 09:10:42 GMT-0600 (Central Standard Time),253833.5,hate,900,I,z,z,None,746,546.0,200.0,42,3,2178.7999999523163,251654.70000004768,8036,hate,AF,B,251213,251213,249584,250496,249584,251763,251013,251013,251762,56
54,test,1,con,1,m,Wed Jan 07 2026 09:10:42 GMT-0600 (Central Standard Time),256099.5,bell,900,I,m,m,None,826,627.0,199.0,82,3,2261.7999999523163,253837.70000004768,8036,bell,AF,B,253396,253396,251767,252679,251767,254029,253196,253196,254029,57
55,test,1,con,1,m,Wed Jan 07 2026 09:10:42 GMT-0600 (Central Standard Time),258299.0,remote,800,I,m,m,None,853,653.0,200.0,113,3,2195.7999999523163,256103.20000004768,8036,remote,AF,B,255562,255562,254032,254845,254033,256228,255362,255362,256228,58
56,test,1,con,1,z,Wed Jan 07 2026 09:10:42 GMT-0600 (Central Standard Time),260548.0,kind,1100,I,z,z,None,602,402.0,200.0,12,3,2245.399999976158,258302.60000002384,8036,kind,AF,B,258061,258061,256232,257344,256232,258477,257861,257861,258477,59
57,test,1,con,1,z,Wed Jan 07 2026 09:10:42 GMT-0600 (Central Standard Time),263130.7000000477,friend,1100,I,z,z,None,937,737.0,200.0,28,3,2578.8000000715256,260551.89999997616,8036,friend,AF,B,260310,260310,258481,259594,258481,261060,260110,260110,261060,60
58,test,1,inc,1,m,Wed Jan 07 2026 09:10:42 GMT-0600 (Central Standard Time),265279.7000000477,rage,800,I,m,m,None,814,614.0,200.0,93,3,2145.0,263134.7000000477,8036,film,AF,B,262593,262593,261064,261876,261064,263209,262393,262393,263209,61
59,test,1,con,1,z,Wed Jan 07 2026 09:10:42 GMT-0600 (Central Standard Time),267263.7000000477,hate,800,I,z,z,None,599,399.0,200.0,41,3,1979.7000000476837,265284.0,8036,hate,AF,B,264792,264792,263213,264087,263213,265193,264592,264592,265193,62
60,test,1,con,1,m,Wed Jan 07 2026 09:10:42 GMT-0600 (Central Standard Time),269395.2000000477,jacket,1100,I,m,m,None,493,294.0,199.0,100,3,2127.399999976158,267267.8000000715,8036,jacket,AF,B,267025,267025,265197,266308,265197,267324,266825,266825,267324,63
61,test,1,inc,1,m,Wed Jan 07 2026 09:10:42 GMT-0600 (Central Standard Time),271594.60000002384,brutal,900,I,m,m,None,754,554.0,200.0,126,3,2195.7000000476837,269398.89999997616,8036,window,AF,B,268957,268957,267328,268241,267328,269524,268757,268757,269524,64
62,test,1,inc,1,m,Wed Jan 07 2026 09:10:42 GMT-0600 (Central Standard Time),274876.8000000715,love,1000,I,m,m,None,1732,1533.0,199.0,71,3,3278.3000000715256,271598.5,8036,step,AF,B,271256,271257,269528,270540,269528,272806,271057,271057,272806,65
63,test,1,inc,1,z,Wed Jan 07 2026 09:10:42 GMT-0600 (Central Standard Time),277292.8000000715,film,1100,I,z,z,None,767,567.0,200.0,56,3,2412.3000000715256,274880.5,8036,rage,AF,B,274639,274639,272809,273923,272810,275222,274439,274439,275222,66
64,test,1,inc,1,z,Wed Jan 07 2026 09:10:42 GMT-0600 (Central Standard Time),279525.39999997616,rock,900,I,z,z,None,799,599.0,200.0,14,3,2228.899999976158,277296.5,8036,kind,AF,B,276855,276855,275226,276138,275226,277454,276655,276655,277454,67
65,test,1,con,1,z,Wed Jan 07 2026 09:10:42 GMT-0600 (Central Standard Time),281708.3000000715,love,1100,I,z,z,None,543,344.0,199.0,20,3,2179.5,279528.8000000715,8036,love,AF,B,279287,279287,277458,278571,277458,279637,279088,279088,279637,68
66,test,1,con,1,z,Wed Jan 07 2026 09:10:42 GMT-0600 (Central Standard Time),284023.89999997616,friend,900,I,z,z,None,873,673.0,200.0,26,3,2311.899999976158,281712.0,8036,friend,AF,B,281270,281270,279641,280554,279641,281953,281070,281070,281953,69
67,test,1,con,1,z,Wed Jan 07 2026 09:10:42 GMT-0600 (Central Standard Time),286106.8000000715,temper,900,I,z,z,None,644,445.0,199.0,58,3,2079.2000000476837,284027.60000002384,8036,temper,AF,B,283586,283586,281957,282870,281957,284036,283387,283387,284036,70
68,test,1,inc,1,z,Wed Jan 07 2026 09:10:42 GMT-0600 (Central Standard Time),288239.39999997616,jacket,800,I,z,z,None,797,597.0,200.0,29,3,2128.7999999523163,286110.60000002384,8036,friend,AF,B,285569,285569,284040,284853,284040,286168,285369,285369,286168,71
69,test,1,inc,1,m,Wed Jan 07 2026 09:10:42 GMT-0600 (Central Standard Time),290372.2000000477,rage,800,I,m,m,None,786,585.0,201.0,85,3,2129.399999976158,288242.8000000715,8036,bell,AF,B,287702,287702,286172,286985,286172,288301,287500,287500,288301,72
70,test,1,inc,1,z,Wed Jan 07 2026 09:10:42 GMT-0600 (Central Standard Time),292721.3000000715,window,1100,I,z,z,None,705,505.0,200.0,64,3,2345.3000000715256,290376.0,8036,temper,AF,B,290134,290134,288305,289418,288305,290650,289934,289934,290650,73
71,test,1,con,1,z,Wed Jan 07 2026 09:10:42 GMT-0600 (Central Standard Time),294920.7000000477,temper,1000,I,z,z,None,664,464.0,200.0,59,3,2195.5,292725.2000000477,8036,temper,AF,B,292383,292383,290654,291667,290655,292850,292183,292183,292850,74
72,test,1,con,1,z,Wed Jan 07 2026 09:10:42 GMT-0600 (Central Standard Time),297053.3000000715,kind,1000,I,z,z,None,599,400.0,199.0,11,3,2128.8000000715256,294924.5,8036,kind,AF,B,294566,294566,292854,293866,292854,294982,294367,294367,294982,75
73,test,1,inc,1,m,Wed Jan 07 2026 09:10:42 GMT-0600 (Central Standard Time),299269.3000000715,brutal,900,I,m,m,None,776,576.0,200.0,110,3,2212.100000023842,297057.2000000477,8036,napkin,AF,B,296615,296615,294986,295899,294986,297198,296415,296415,297198,76
74,test,1,con,1,m,Wed Jan 07 2026 09:10:42 GMT-0600 (Central Standard Time),301551.8000000715,remote,1100,I,m,m,None,640,440.0,200.0,116,3,2278.5,299273.3000000715,8036,remote,AF,B,299031,299031,297202,298315,297203,299481,298831,298831,299481,77
75,test,1,inc,1,z,Wed Jan 07 2026 09:10:42 GMT-0600 (Central Standard Time),303817.7000000477,napkin,900,I,z,z,None,821,621.0,200.0,38,3,2262.2000000476837,301555.5,8036,brutal,AF,B,301114,301114,299485,300397,299485,301747,300914,300914,301747,78
76,test,1,inc,1,z,Wed Jan 07 2026 09:10:42 GMT-0600 (Central Standard Time),306100.5,film,1100,I,z,z,None,634,434.0,200.0,24,3,2279.1999999284744,303821.3000000715,8036,love,AF,B,303580,303580,301750,302863,301751,304030,303380,303380,304030,79
77,test,1,con,1,z,Wed Jan 07 2026 09:10:42 GMT-0600 (Central Standard Time),308266.39999997616,friend,1000,I,z,z,None,626,427.0,199.0,27,3,2162.5,306103.89999997616,8036,friend,AF,B,305763,305763,304033,305046,304033,306196,305563,305563,306195,80
78,test,1,inc,1,z,Wed Jan 07 2026 09:10:42 GMT-0600 (Central Standard Time),310565.8000000715,window,1100,I,z,z,None,650,451.0,199.0,32,3,2294.9000000953674,308270.89999997616,8036,friend,AF,B,308028,308028,306200,307312,306200,308495,307829,307829,308495,81
79,test,1,inc,1,m,Wed Jan 07 2026 09:10:42 GMT-0600 (Central Standard Time),313514.7000000477,rage,800,I,m,m,None,1602,1402.0,200.0,69,3,2945.3000000715256,310569.39999997616,8036,step,AF,B,310028,310028,308498,309311,308499,311444,309828,309828,311444,82
80,test,1,con,1,m,Wed Jan 07 2026 09:10:42 GMT-0600 (Central Standard Time),316097.60000002384,napkin,1100,I,m,m,None,937,738.0,199.0,108,3,2579.5,313518.10000002384,8036,napkin,AF,B,313277,313277,311447,312560,311447,314027,313077,313077,314027,83
81,test,1,con,1,m,Wed Jan 07 2026 09:10:42 GMT-0600 (Central Standard Time),318329.8000000715,rock,800,I,m,m,None,885,670.0,215.0,73,3,2227.9000000953674,316101.89999997616,8036,rock,AF,B,315576,315576,314031,314843,314031,316259,315361,315361,316259,84
82,test,1,inc,1,m,Wed Jan 07 2026 09:10:42 GMT-0600 (Central Standard Time),320679.0,elated,800,I,m,m,None,1000,800.0,200.0,109,3,2344.899999976158,318334.10000002384,8036,napkin,AF,B,317792,317792,316263,317076,316263,318608,317592,317592,318608,85
83,test,1,con,1,z,Wed Jan 07 2026 09:10:42 GMT-0600 (Central Standard Time),322978.7000000477,rage,1000,I,z,z,None,753,553.0,200.0,51,3,2295.600000023842,320683.10000002384,8036,rage,AF,B,320341,320341,318612,319625,318612,320908,320141,320141,320908,86
84,test,1,inc,1,z,Wed Jan 07 2026 09:10:42 GMT-0600 (Central Standard Time),325261.39999997616,bell,1000,I,z,z,None,733,533.0,200.0,47,3,2278.7999999523163,322982.60000002384,8036,hate,AF,B,322641,322641,320912,321924,320912,323190,322440,322440,323190,87
85,test,1,con,1,z,Wed Jan 07 2026 09:10:42 GMT-0600 (Central Standard Time),327393.8000000715,kind,900,I,z,z,None,688,488.0,200.0,10,3,2127.8000000715256,325266.0,8036,kind,AF,B,324823,324823,323195,324107,323195,325323,324623,324623,325323,88
86,test,1,inc,1,z,Wed Jan 07 2026 09:10:42 GMT-0600 (Central Standard Time),329493.2000000477,rock,900,I,z,z,None,659,459.0,200.0,54,3,2095.7000000476837,327397.5,8036,rage,AF,B,326956,326956,325327,326239,325327,327422,326756,326756,327422,89
87,test,1,inc,1,m,Wed Jan 07 2026 09:10:42 GMT-0600 (Central Standard Time),331542.5,elated,800,I,m,m,None,716,516.0,200.0,101,3,2045.6000000238419,329496.89999997616,8036,jacket,AF,B,328955,328955,327426,328239,327426,329472,328755,328755,329472,90
88,test,1,con,1,m,Wed Jan 07 2026 09:10:42 GMT-0600 (Central Standard Time),334041.60000002384,film,1100,I,m,m,None,860,661.0,199.0,92,3,2495.7999999523163,331545.8000000715,8036,film,AF,B,331305,331305,329475,330588,329475,331971,331105,331105,331971,91
89,test,1,con,1,m,Wed Jan 07 2026 09:10:42 GMT-0600 (Central Standard Time),336834.0,bell,1000,I,m,m,None,1258,1059.0,199.0,83,3,2788.5,334045.5,8036,bell,AF,B,333704,333704,331974,332987,331975,334763,333504,333504,334763,92
90,test,1,inc,1,z,Wed Jan 07 2026 09:10:42 GMT-0600 (Central Standard Time),339040.10000002384,napkin,900,I,z,z,None,780,581.0,199.0,30,3,2201.7999999523163,336838.3000000715,8036,friend,AF,B,336386,336386,334767,335670,334768,336969,336187,336187,336969,93
91,test,1,con,1,z,Wed Jan 07 2026 09:10:42 GMT-0600 (Central Standard Time),341305.89999997616,hate,1100,I,z,z,None,621,421.0,200.0,44,3,2262.0999999046326,339043.8000000715,8036,hate,AF,B,338802,338802,336973,338086,336973,339235,338602,338602,339235,94
92,test,1,con,1,z,Wed Jan 07 2026 09:10:42 GMT-0600 (Central Standard Time),343638.89999997616,brutal,1000,I,z,z,None,791,591.0,200.0,35,3,2329.1999999284744,341309.7000000477,8036,brutal,AF,B,340968,340968,339239,340252,339239,341568,340768,340768,341568,95
93,test,1,con,1,z,Wed Jan 07 2026 09:10:42 GMT-0600 (Central Standard Time),345738.2000000477,elated,800,I,z,z,None,762,562.0,200.0,1,3,2095.2000000476837,343643.0,8036,elated,AF,B,343101,343101,341572,342384,341572,343667,342901,342901,343667,96
94,test,1,inc,1,z,Wed Jan 07 2026 09:10:42 GMT-0600 (Central Standard Time),347920.89999997616,step,800,I,z,z,None,838,638.0,200.0,13,3,2178.899999976158,345742.0,8036,kind,AF,B,345200,345200,343671,344484,343671,345850,345000,345000,345850,97
95,test,1,inc,1,m,Wed Jan 07 2026 09:10:42 GMT-0600 (Central Standard Time),350269.8000000715,kind,900,I,m,m,None,900,700.0,200.0,86,3,2345.2000000476837,347924.60000002384,8036,bell,AF,B,347483,347483,345854,346766,345854,348199,347283,347283,348199,98
96,test,1,con,1,z,Wed Jan 07 2026 09:10:42 GMT-0600 (Central Standard Time),352435.60000002384,hate,1000,I,z,z,None,627,427.0,200.0,43,3,2161.899999976158,350273.7000000477,8036,hate,AF,B,349932,349932,348203,349216,348203,350365,349732,349732,350365,99
97,test,1,con,1,m,Wed Jan 07 2026 09:10:42 GMT-0600 (Central Standard Time),354568.7000000477,napkin,1000,I,m,m,None,588,388.0,200.0,107,3,2129.0,352439.7000000477,8036,napkin,AF,B,352098,352098,350369,351383,350369,352498,351898,351898,352498,100
98,test,1,con,1,z,Wed Jan 07 2026 09:10:42 GMT-0600 (Central Standard Time),356751.3000000715,kind,800,I,z,z,None,839,640.0,199.0,9,3,2179.0,354572.3000000715,8036,kind,AF,B,354031,354031,352501,353314,352502,354680,353831,353831,354680,101
99,test,1,inc,1,m,Wed Jan 07 2026 09:10:42 GMT-0600 (Central Standard Time),358867.39999997616,elated,800,I,m,m,None,778,578.0,200.0,117,3,2112.6999999284744,356754.7000000477,8036,remote,AF,B,356213,356213,354684,355497,354684,356796,356013,356013,356796,102
100,test,1,con,1,z,Wed Jan 07 2026 09:10:42 GMT-0600 (Central Standard Time),361383.0,brutal,1100,I,z,z,None,872,657.0,215.0,36,3,2512.0,358871.0,8036,brutal,AF,B,358646,358646,356800,357914,356800,359312,358431,358431,359312,103
101,test,1,con,1,z,Wed Jan 07 2026 09:10:42 GMT-0600 (Central Standard Time),363315.89999997616,rage,800,I,z,z,None,594,394.0,200.0,49,3,1929.1999999284744,361386.7000000477,8036,rage,AF,B,360845,360845,359316,360129,359316,361245,360645,360645,361245,104
102,test,1,inc,1,z,Wed Jan 07 2026 09:10:42 GMT-0600 (Central Standard Time),365432.0,jacket,800,I,z,z,None,773,573.0,200.0,61,3,2112.1999999284744,363319.8000000715,8036,temper,AF,B,362778,362778,361249,362062,361249,363361,362578,362578,363361,105
103,test,1,inc,1,m,Wed Jan 07 2026 09:10:42 GMT-0600 (Central Standard Time),367814.3000000715,love,1000,I,m,m,None,833,633.0,200.0,87,3,2378.5,365435.8000000715,8036,bell,AF,B,365094,365094,363365,364378,363365,365743,364894,364894,365743,106
104,test,1,inc,1,m,Wed Jan 07 2026 09:10:42 GMT-0600 (Central Standard Time),370196.89999997616,friend,1100,I,m,m,None,743,543.0,200.0,120,3,2379.0999999046326,367817.8000000715,8036,remote,AF,B,367576,367576,365747,366861,365747,368126,367376,367376,368126,107
105,test,1,con,1,z,Wed Jan 07 2026 09:10:42 GMT-0600 (Central Standard Time),372429.5,friend,800,I,z,z,None,891,691.0,200.0,25,3,2228.600000023842,370200.89999997616,8036,friend,AF,B,369659,369659,368130,368942,368130,370359,369459,369459,370358,108
106,test,1,inc,1,z,Wed Jan 07 2026 09:10:42 GMT-0600 (Central Standard Time),374529.0,jacket,800,I,z,z,None,761,562.0,199.0,5,3,2095.5,372433.5,8036,elated,AF,B,371892,371892,370363,371175,370363,372458,371692,371692,372458,109
107,test,1,inc,1,m,Wed Jan 07 2026 09:10:42 GMT-0600 (Central Standard Time),376928.60000002384,kind,900,I,m,m,None,963,763.0,200.0,70,3,2395.2999999523163,374533.3000000715,8036,step,AF,B,374091,374091,372462,373375,372463,374858,373891,373891,374858,110
108,test,1,con,1,m,Wed Jan 07 2026 09:10:42 GMT-0600 (Central Standard Time),379410.7000000477,rock,900,I,m,m,None,1045,845.0,200.0,74,3,2477.600000023842,376933.10000002384,8036,rock,AF,B,376490,376490,374862,375774,374862,377340,376290,376290,377340,111
109,test,1,inc,1,m,Wed Jan 07 2026 09:10:42 GMT-0600 (Central Standard Time),381776.39999997616,brutal,900,I,m,m,None,930,730.0,200.0,118,3,2362.399999976158,379414.0,8036,remote,AF,B,378973,378973,377343,378256,377343,379705,378773,378773,379705,112
110,test,1,con,1,z,Wed Jan 07 2026 09:10:42 GMT-0600 (Central Standard Time),384042.39999997616,brutal,900,I,z,z,None,826,627.0,199.0,34,3,2262.6999999284744,381779.7000000477,8036,brutal,AF,B,381339,381339,379709,380622,379709,381971,381139,381139,381971,113
111,test,1,inc,1,m,Wed Jan 07 2026 09:10:42 GMT-0600 (Central Standard Time),386691.7000000477,hate,1100,I,m,m,None,1010,811.0,199.0,72,3,2645.600000023842,384046.10000002384,8036,step,AF,B,383804,383804,381975,383088,381975,384621,383605,383605,384621,114
112,test,1,inc,1,z,Wed Jan 07 2026 09:10:42 GMT-0600 (Central Standard Time),388857.89999997616,jacket,800,I,z,z,None,829,629.0,200.0,37,3,2162.5,386695.39999997616,8036,brutal,AF,B,386154,386154,384624,385438,384625,386787,385954,385954,386787,115
113,test,1,inc,1,z,Wed Jan 07 2026 09:10:42 GMT-0600 (Central Standard Time),391173.60000002384,bell,1000,I,z,z,None,775,575.0,200.0,15,3,2312.2000000476837,388861.39999997616,8036,kind,AF,B,388520,388520,386790,387804,386791,389103,388320,388320,389103,116
114,test,1,con,1,z,Wed Jan 07 2026 09:10:42 GMT-0600 (Central Standard Time),393289.89999997616,elated,900,I,z,z,None,671,471.0,200.0,2,3,2112.5999999046326,391177.3000000715,8036,elated,AF,B,390736,390736,389106,390019,389107,391219,390536,390536,391219,117
115,test,1,inc,1,z,Wed Jan 07 2026 09:10:42 GMT-0600 (Central Standard Time),395522.5,remote,1000,I,z,z,None,686,486.0,200.0,39,3,2229.0,393293.5,8036,brutal,AF,B,392952,392952,391223,392236,391223,393452,392752,392752,393451,118
116,test,1,con,1,m,Wed Jan 07 2026 09:10:42 GMT-0600 (Central Standard Time),397971.7000000477,window,1100,I,m,m,None,802,602.0,200.0,124,3,2445.7000000476837,395526.0,8036,window,AF,B,395284,395284,393455,394568,393455,395901,395084,395084,395901,119
117,test,1,con,1,m,Wed Jan 07 2026 09:10:42 GMT-0600 (Central Standard Time),400637.39999997616,step,1100,I,m,m,None,1024,825.0,199.0,68,3,2661.1999999284744,397976.2000000477,8036,step,AF,B,397734,397734,395905,397017,395905,398566,397534,397534,398566,120
118,test,1,inc,1,m,Wed Jan 07 2026 09:10:42 GMT-0600 (Central Standard Time),402986.7000000477,elated,800,I,m,m,None,1009,810.0,199.0,125,3,2345.600000023842,400641.10000002384,8036,window,AF,B,400100,400100,398570,399383,398570,400916,399900,399900,400916,121
119,test,1,con,1,m,Wed Jan 07 2026 09:10:42 GMT-0600 (Central Standard Time),405369.2000000477,remote,900,I,m,m,None,938,738.0,200.0,114,3,2378.600000023842,402990.60000002384,8036,remote,AF,B,402549,402549,400920,401833,400920,403298,402349,402349,403298,122
120,test,1,con,1,z,Wed Jan 07 2026 09:10:42 GMT-0600 (Central Standard Time),407718.3000000715,temper,1100,I,z,z,None,706,507.0,199.0,60,3,2345.0,405373.3000000715,8036,temper,AF,B,405131,405131,403302,404415,403303,405647,404932,404932,405647,123
121,test,1,inc,1,z,Wed Jan 07 2026 09:10:42 GMT-0600 (Central Standard Time),410234.2000000477,film,1100,I,z,z,None,876,677.0,199.0,16,3,2512.399999976158,407721.8000000715,8036,kind,AF,B,407481,407481,405651,406764,405651,408163,407281,407281,408163,124
122,test,1,inc,1,m,Wed Jan 07 2026 09:10:42 GMT-0600 (Central Standard Time),412500.3000000715,temper,1000,I,m,m,None,725,526.0,199.0,103,3,2262.100000023842,410238.2000000477,8036,jacket,AF,B,409896,409896,408167,409180,408168,410429,409697,409697,410429,125
123,test,1,inc,1,m,Wed Jan 07 2026 09:10:42 GMT-0600 (Central Standard Time),415016.2000000477,temper,1000,I,m,m,None,988,789.0,199.0,127,3,2512.5,412503.7000000477,8036,window,AF,B,412146,412146,410433,411446,410433,412945,411947,411947,412945,126
124,test,1,inc,1,z,Wed Jan 07 2026 09:10:42 GMT-0600 (Central Standard Time),417449.0,film,1100,I,z,z,None,789,589.0,200.0,48,3,2429.1999999284744,415019.8000000715,8036,hate,AF,B,414778,414778,412949,414062,412949,415378,414578,414578,415378,127
125,test,1,inc,1,m,Wed Jan 07 2026 09:10:42 GMT-0600 (Central Standard Time),419614.60000002384,rage,800,I,m,m,None,832,632.0,200.0,77,3,2162.2000000476837,417452.39999997616,8036,rock,AF,B,416911,416911,415381,416194,415382,417544,416711,416711,417544,128
