Q,Q1,Q2,Q3,Q4,acc_sum,block,block_c,correct,correct_response,datetime,endtime,project,response,response_time,row_sel,session_number,squiggle1,squiggle1x,squiggle1y,squiggle2,squiggle2x,squiggle2y,squiggle3,squiggle3x,squiggle3y,squiggle4,squiggle4x,squiggle4y,start_end,starttime,subject_id,target_congruent,task,task_vers,testsquiggle,testsquigglex,testsquiggley,time_practice_delay,time_practice_fixation,time_practice_stimuli,time_practice_study,time_test_delay,time_test_fixation,time_test_stimuli,time_test_study,trial
1,1,0,0,0,1,prac,1,1,z,Tue Sep 30 2025 11:21:43 GMT-0500 (Central Daylight Time),134772.30000001192,O,z,1952,1,1,16.bmp,-120,-120,17.bmp,120,-120,18.bmp,-120,120,19.bmp,120,120,10778.0,123994.30000001192,7220,yes,SM,B,16.bmp,-120,-120,126692,120661,128708,122679,,,,,1
3,0,0,1,0,1,prac,1,0,m,Tue Sep 30 2025 11:21:43 GMT-0500 (Central Daylight Time),145602.89999997616,O,None,2015,2,1,20.bmp,-120,-120,21.bmp,120,-120,22.bmp,-120,120,23.bmp,120,120,10824.899999976158,134778.0,7220,no,SM,B,23.bmp,-120,120,137472,131445,139488,133457,,,,,2
4,0,0,0,1,2,prac,1,1,m,Tue Sep 30 2025 11:21:43 GMT-0500 (Central Daylight Time),156232.0,O,m,1821,3,1,24.bmp,-120,-120,25.bmp,120,-120,26.bmp,-120,120,27.bmp,120,120,10626.5,145605.5,7220,no,SM,B,24.bmp,120,120,148301,142273,150303,144285,,,,,3
2,0,1,0,0,3,prac,1,1,z,Tue Sep 30 2025 11:21:43 GMT-0500 (Central Daylight Time),166747.09999996424,O,z,1714,4,1,28.bmp,-120,-120,29.bmp,120,-120,30.bmp,-120,120,31.bmp,120,120,10506.699999988079,156240.39999997616,7220,yes,SM,B,29.bmp,120,-120,158931,152908,160932,154917,,,,,4
3,0,0,1,0,3,prac,1,0,z,Tue Sep 30 2025 11:21:43 GMT-0500 (Central Daylight Time),177578.19999998808,O,None,2017,5,1,32.bmp,-120,-120,33.bmp,120,-120,34.bmp,-120,120,35.bmp,120,120,10826.800000011921,166751.39999997616,7220,yes,SM,B,34.bmp,-120,120,169445,163419,171461,165430,,,,,5
1,1,0,0,0,4,prac,1,1,m,Tue Sep 30 2025 11:21:43 GMT-0500 (Central Daylight Time),187507.5,O,m,1122,6,1,36.bmp,-120,-120,37.bmp,120,-120,38.bmp,-120,120,39.bmp,120,120,9925.600000023842,177581.89999997616,7220,no,SM,B,39.bmp,-120,-120,180274,174249,182275,176261,,,,,6
2,0,1,0,0,5,prac,1,1,m,Tue Sep 30 2025 11:21:43 GMT-0500 (Central Daylight Time),197802.5,O,m,1477,7,1,40.bmp,-120,-120,41.bmp,120,-120,42.bmp,-120,120,43.bmp,120,120,10292.600000023842,187509.89999997616,7220,no,SM,B,40.bmp,120,-120,190205,184177,192223,186193,,,,,7
4,0,0,0,1,5,prac,1,0,z,Tue Sep 30 2025 11:21:43 GMT-0500 (Central Daylight Time),207884.5,O,m,1252,8,1,44.bmp,-120,-120,45.bmp,120,-120,46.bmp,-120,120,47.bmp,120,120,10077.900000035763,197806.59999996424,7220,yes,SM,B,47.bmp,120,120,200502,194474,202520,196486,,,,,8
4,0,0,0,1,1,test,1,1,m,Tue Sep 30 2025 11:21:43 GMT-0500 (Central Daylight Time),223313.0,O,m,1486,1,1,48.bmp,-120,-120,49.bmp,120,-120,50.bmp,-120,120,43.bmp,120,120,9546.100000023842,213766.89999997616,7220,yes,SM,B,50.bmp,120,120,200502,194474,202520,196486,216464.0,210434.0,218478.0,212447.0,1
2,0,1,0,0,2,test,1,1,m,Tue Sep 30 2025 11:21:43 GMT-0500 (Central Daylight Time),232608.5,O,m,1243,2,1,1.bmp,-120,-120,2.bmp,120,-120,3.bmp,-120,120,4.bmp,120,120,9292.0,223316.5,7220,yes,SM,B,3.bmp,120,-120,200502,194474,202520,196486,226009.0,219984.0,228026.0,221994.0,2
1,1,0,0,0,3,test,1,1,z,Tue Sep 30 2025 11:21:43 GMT-0500 (Central Daylight Time),242122.39999997616,O,z,1457,3,1,5.bmp,-120,-120,6.bmp,120,-120,7.bmp,-120,120,8.bmp,120,120,9506.800000011921,232615.59999996424,7220,yes,SM,B,5.bmp,-120,-120,200502,194474,202520,196486,235306.0,229283.0,237323.0,231292.0,3
3,0,0,1,0,3,test,1,0,m,Tue Sep 30 2025 11:21:43 GMT-0500 (Central Daylight Time),251684.80000001192,O,z,1504,4,1,9.bmp,-120,-120,10.bmp,120,-120,11.bmp,-120,120,12.bmp,120,120,9557.0,242127.80000001192,7220,yes,SM,B,9.bmp,-120,120,200502,194474,202520,196486,244820.0,238795.0,246837.0,240805.0,4
2,0,1,0,0,4,test,1,1,z,Tue Sep 30 2025 11:21:43 GMT-0500 (Central Daylight Time),261248.5,O,z,1517,5,1,13.bmp,-120,-120,14.bmp,120,-120,15.bmp,-120,120,16.bmp,120,120,9558.699999988079,251689.80000001192,7220,yes,SM,B,14.bmp,120,-120,200502,194474,202520,196486,254384.0,248357.0,256385.0,250368.0,5
3,0,0,1,0,5,test,1,1,z,Tue Sep 30 2025 11:21:43 GMT-0500 (Central Daylight Time),270529.59999996424,O,z,1215,6,1,17.bmp,-120,-120,18.bmp,120,-120,19.bmp,-120,120,20.bmp,120,120,9276.799999952316,261252.80000001192,7220,yes,SM,B,19.bmp,-120,120,200502,194474,202520,196486,263947.0,257920.0,265966.0,259933.0,6
4,0,0,0,1,6,test,1,1,z,Tue Sep 30 2025 11:21:43 GMT-0500 (Central Daylight Time),280043.1999999881,O,z,1455,7,1,21.bmp,-120,-120,22.bmp,120,-120,23.bmp,-120,120,24.bmp,120,120,9504.699999988079,270538.5,7220,yes,SM,B,24.bmp,120,120,200502,194474,202520,196486,273229.0,267206.0,275245.0,269213.0,7
2,0,1,0,0,6,test,1,0,m,Tue Sep 30 2025 11:21:43 GMT-0500 (Central Daylight Time),290108.6999999881,O,None,2018,8,1,25.bmp,-120,-120,26.bmp,120,-120,27.bmp,-120,120,28.bmp,120,120,10062.899999976158,280045.8000000119,7220,yes,SM,B,25.bmp,120,-120,200502,194474,202520,196486,282742.0,276713.0,284758.0,278727.0,8
3,0,0,1,0,7,test,1,1,m,Tue Sep 30 2025 11:21:43 GMT-0500 (Central Daylight Time),299170.5,O,m,1006,9,1,29.bmp,-120,-120,30.bmp,120,-120,31.bmp,-120,120,32.bmp,120,120,9059.199999988079,290111.3000000119,7220,yes,SM,B,30.bmp,-120,120,200502,194474,202520,196486,292805.0,286779.0,294822.0,288791.0,9
4,0,0,0,1,8,test,1,1,z,Tue Sep 30 2025 11:21:43 GMT-0500 (Central Daylight Time),308802.39999997616,O,z,1590,10,1,37.bmp,-120,-120,38.bmp,120,-120,39.bmp,-120,120,40.bmp,120,120,9629.300000011921,299173.09999996424,7220,yes,SM,B,40.bmp,120,120,200502,194474,202520,196486,301868.0,295840.0,303870.0,297855.0,10
3,0,0,1,0,9,test,1,1,z,Tue Sep 30 2025 11:21:43 GMT-0500 (Central Daylight Time),318647.8000000119,O,z,1808,11,1,33.bmp,-120,-120,34.bmp,120,-120,35.bmp,-120,120,36.bmp,120,120,9842.300000011921,308805.5,7220,yes,SM,B,35.bmp,-120,120,200502,194474,202520,196486,311498.0,305473.0,313500.0,307484.0,11
2,0,1,0,0,10,test,1,1,m,Tue Sep 30 2025 11:21:43 GMT-0500 (Central Daylight Time),327896.09999996424,O,m,1186,12,1,41.bmp,-120,-120,42.bmp,120,-120,43.bmp,-120,120,44.bmp,120,120,9246.099999964237,318650.0,7220,yes,SM,B,41.bmp,120,-120,200502,194474,202520,196486,321347.0,315317.0,323362.0,317330.0,12
3,0,0,1,0,11,test,1,1,m,Tue Sep 30 2025 11:21:43 GMT-0500 (Central Daylight Time),337309.59999996424,O,m,1378,13,1,45.bmp,-120,-120,46.bmp,120,-120,47.bmp,-120,120,48.bmp,120,120,9410.899999976158,327898.6999999881,7220,yes,SM,B,46.bmp,-120,120,200502,194474,202520,196486,330592.0,324566.0,332594.0,326580.0,13
1,1,0,0,0,11,test,1,0,z,Tue Sep 30 2025 11:21:43 GMT-0500 (Central Daylight Time),347372.59999996424,O,None,2019,14,1,49.bmp,-120,-120,50.bmp,120,-120,4.bmp,-120,120,1.bmp,120,120,10060.099999964237,337312.5,7220,yes,SM,B,49.bmp,-120,-120,200502,194474,202520,196486,340007.0,333980.0,342021.0,335991.0,14
4,0,0,0,1,11,test,1,0,m,Tue Sep 30 2025 11:21:43 GMT-0500 (Central Daylight Time),356751.89999997616,O,z,1341,15,1,10.bmp,-120,-120,11.bmp,120,-120,12.bmp,-120,120,13.bmp,120,120,9371.699999988079,347380.1999999881,7220,yes,SM,B,11.bmp,120,120,200502,194474,202520,196486,350069.0,344047.0,352071.0,346054.0,15
1,1,0,0,0,12,test,1,1,m,Tue Sep 30 2025 11:21:43 GMT-0500 (Central Daylight Time),365901.3000000119,O,m,1086,16,1,2.bmp,-120,-120,3.bmp,120,-120,4.bmp,-120,120,5.bmp,120,120,9146.900000035763,356754.39999997616,7220,yes,SM,B,5.bmp,-120,-120,200502,194474,202520,196486,359452.0,353422.0,361467.0,355436.0,16
3,0,0,1,0,12,test,1,0,m,Tue Sep 30 2025 11:21:43 GMT-0500 (Central Daylight Time),375963.39999997616,O,None,2016,17,1,22.bmp,-120,-120,23.bmp,120,-120,24.bmp,-120,120,25.bmp,120,120,10059.399999976158,365904.0,7220,yes,SM,B,22.bmp,-120,120,200502,194474,202520,196486,368599.0,362571.0,370614.0,364582.0,17
1,1,0,0,0,13,test,1,1,z,Tue Sep 30 2025 11:21:43 GMT-0500 (Central Daylight Time),385326.59999996424,O,z,1311,18,1,6.bmp,-120,-120,7.bmp,120,-120,8.bmp,-120,120,9.bmp,120,120,9359.599999964237,375967.0,7220,yes,SM,B,6.bmp,-120,-120,200502,194474,202520,196486,378662.0,372634.0,380677.0,374646.0,18
2,0,1,0,0,13,test,1,0,z,Tue Sep 30 2025 11:21:43 GMT-0500 (Central Daylight Time),394606.59999996424,O,m,1227,19,1,26.bmp,-120,-120,27.bmp,120,-120,28.bmp,-120,120,29.bmp,120,120,9273.599999964237,385333.0,7220,yes,SM,B,27.bmp,120,-120,200502,194474,202520,196486,388025.0,382000.0,390041.0,384009.0,19
3,0,0,1,0,14,test,1,1,z,Tue Sep 30 2025 11:21:43 GMT-0500 (Central Daylight Time),403286.6999999881,O,z,635,20,1,30.bmp,-120,-120,31.bmp,120,-120,32.bmp,-120,120,33.bmp,120,120,8676.899999976158,394609.8000000119,7220,yes,SM,B,32.bmp,-120,120,200502,194474,202520,196486,397292.0,391277.0,399305.0,393290.0,20
1,1,0,0,0,15,test,1,1,m,Tue Sep 30 2025 11:21:43 GMT-0500 (Central Daylight Time),413183.6999999881,O,m,1840,21,1,14.bmp,-120,-120,15.bmp,120,-120,16.bmp,-120,120,17.bmp,120,120,9894.699999988079,403289.0,7220,yes,SM,B,16.bmp,-120,-120,200502,194474,202520,196486,405989.0,399956.0,408002.0,401972.0,21
4,0,0,0,1,16,test,1,1,z,Tue Sep 30 2025 11:21:43 GMT-0500 (Central Daylight Time),422698.3000000119,O,z,1455,22,1,18.bmp,-120,-120,19.bmp,120,-120,20.bmp,-120,120,21.bmp,120,120,9512.100000023842,413186.1999999881,7220,yes,SM,B,21.bmp,120,120,200502,194474,202520,196486,415884.0,409853.0,417901.0,411869.0,22
1,1,0,0,0,16,test,1,0,m,Tue Sep 30 2025 11:21:43 GMT-0500 (Central Daylight Time),432761.09999996424,O,None,2016,23,1,34.bmp,-120,-120,35.bmp,120,-120,36.bmp,-120,120,37.bmp,120,120,10060.5,422700.59999996424,7220,yes,SM,B,37.bmp,-120,-120,200502,194474,202520,196486,425398.0,419368.0,427412.0,421385.0,23
2,0,1,0,0,17,test,1,1,z,Tue Sep 30 2025 11:21:43 GMT-0500 (Central Daylight Time),442091.59999996424,O,z,1301,24,1,42.bmp,-120,-120,43.bmp,120,-120,44.bmp,-120,120,45.bmp,120,120,9326.599999964237,432765.0,7220,yes,SM,B,43.bmp,120,-120,200502,194474,202520,196486,435444.0,429432.0,437457.0,431443.0,24
4,0,0,0,1,18,test,1,1,m,Tue Sep 30 2025 11:21:43 GMT-0500 (Central Daylight Time),451688.6999999881,O,m,1532,25,1,46.bmp,-120,-120,47.bmp,120,-120,48.bmp,-120,120,49.bmp,120,120,9593.899999976158,442094.8000000119,7220,yes,SM,B,48.bmp,120,120,200502,194474,202520,196486,444790.0,438762.0,446808.0,440775.0,25
1,1,0,0,0,18,test,1,0,z,Tue Sep 30 2025 11:21:43 GMT-0500 (Central Daylight Time),461737.8000000119,O,None,2002,26,1,38.bmp,-120,-120,39.bmp,120,-120,40.bmp,-120,120,41.bmp,120,120,10047.100000023842,451690.6999999881,7220,yes,SM,B,38.bmp,-120,-120,200502,194474,202520,196486,454388.0,448358.0,456403.0,450371.0,26
4,0,0,0,1,19,test,1,1,z,Tue Sep 30 2025 11:21:43 GMT-0500 (Central Daylight Time),471015.3000000119,O,z,1219,27,1,50.bmp,-120,-120,11.bmp,120,-120,1.bmp,-120,120,2.bmp,120,120,9270.600000023842,461744.6999999881,7220,yes,SM,B,2.bmp,120,120,200502,194474,202520,196486,464434.0,458412.0,466450.0,460419.0,27
3,0,0,1,0,19,test,1,0,m,Tue Sep 30 2025 11:21:43 GMT-0500 (Central Daylight Time),480511.6999999881,O,z,1441,28,1,3.bmp,-120,-120,4.bmp,120,-120,5.bmp,-120,120,6.bmp,120,120,9490.100000023842,471021.59999996424,7220,yes,SM,B,3.bmp,-120,120,200502,194474,202520,196486,473714.0,467689.0,475731.0,469701.0,28
2,0,1,0,0,20,test,1,1,z,Tue Sep 30 2025 11:21:43 GMT-0500 (Central Daylight Time),490425.89999997616,O,z,1850,29,1,7.bmp,-120,-120,8.bmp,120,-120,9.bmp,-120,120,10.bmp,120,120,9911.0,480514.89999997616,7220,yes,SM,B,8.bmp,120,-120,200502,194474,202520,196486,483210.0,477182.0,485228.0,479196.0,29
3,0,0,1,0,20,test,1,0,z,Tue Sep 30 2025 11:21:43 GMT-0500 (Central Daylight Time),500490.59999996424,O,None,2015,30,1,11.bmp,-120,-120,12.bmp,120,-120,13.bmp,-120,120,14.bmp,120,120,10059.199999988079,490431.39999997616,7220,yes,SM,B,13.bmp,-120,120,200502,194474,202520,196486,493125.0,487099.0,495143.0,489110.0,30
1,1,0,0,0,21,test,1,1,z,Tue Sep 30 2025 11:21:43 GMT-0500 (Central Daylight Time),509186.89999997616,O,z,634,31,1,15.bmp,-120,-120,16.bmp,120,-120,17.bmp,-120,120,18.bmp,120,120,8694.0,500492.89999997616,7220,yes,SM,B,15.bmp,-120,-120,200502,194474,202520,196486,503190.0,497160.0,505205.0,499172.0,31
2,0,1,0,0,22,test,1,1,m,Tue Sep 30 2025 11:21:43 GMT-0500 (Central Daylight Time),518450.0,O,m,1222,32,1,19.bmp,-120,-120,20.bmp,120,-120,21.bmp,-120,120,22.bmp,120,120,9259.699999988079,509190.3000000119,7220,yes,SM,B,19.bmp,120,-120,200502,194474,202520,196486,511885.0,505858.0,513886.0,507872.0,32
4,0,0,0,1,22,test,1,0,z,Tue Sep 30 2025 11:21:43 GMT-0500 (Central Daylight Time),528515.1999999881,O,None,2016,33,1,31.bmp,-120,-120,32.bmp,120,-120,33.bmp,-120,120,34.bmp,120,120,10063.199999988079,518452.0,7220,yes,SM,B,34.bmp,120,120,200502,194474,202520,196486,521150.0,515119.0,523166.0,517137.0,33
2,0,1,0,0,22,test,1,0,z,Tue Sep 30 2025 11:21:43 GMT-0500 (Central Daylight Time),538577.8999999762,O,None,2016,34,1,23.bmp,-120,-120,24.bmp,120,-120,25.bmp,-120,120,26.bmp,120,120,10058.800000011921,528519.0999999642,7220,yes,SM,B,24.bmp,120,-120,200502,194474,202520,196486,531213.0,525186.0,533229.0,527199.0,34
4,0,0,0,1,22,test,1,0,m,Tue Sep 30 2025 11:21:43 GMT-0500 (Central Daylight Time),548642.1999999881,O,None,2016,35,1,27.bmp,-120,-120,28.bmp,120,-120,29.bmp,-120,120,30.bmp,120,120,10057.800000011921,538584.3999999762,7220,yes,SM,B,29.bmp,120,120,200502,194474,202520,196486,541278.0,535252.0,543293.0,537263.0,35
3,0,0,1,0,22,test,1,0,m,Tue Sep 30 2025 11:21:43 GMT-0500 (Central Daylight Time),558689.8999999762,O,None,2001,36,1,35.bmp,-120,-120,36.bmp,120,-120,37.bmp,-120,120,38.bmp,120,120,10044.099999964237,548645.8000000119,7220,yes,SM,B,35.bmp,-120,120,200502,194474,202520,196486,551340.0,545313.0,553356.0,547324.0,36
1,1,0,0,0,23,test,1,1,m,Tue Sep 30 2025 11:21:43 GMT-0500 (Central Daylight Time),568051.3000000119,O,m,1318,37,1,39.bmp,-120,-120,40.bmp,120,-120,41.bmp,-120,120,42.bmp,120,120,9358.200000047684,558693.0999999642,7220,yes,SM,B,40.bmp,-120,-120,200502,194474,202520,196486,561374.0,555360.0,563386.0,557371.0,37
2,0,1,0,0,23,test,1,0,m,Tue Sep 30 2025 11:21:43 GMT-0500 (Central Daylight Time),578114.6999999881,O,None,2017,38,1,43.bmp,-120,-120,44.bmp,120,-120,45.bmp,-120,120,46.bmp,120,120,10060.699999988079,568054.0,7220,yes,SM,B,45.bmp,120,-120,200502,194474,202520,196486,570750.0,564721.0,572765.0,566735.0,38
4,0,0,0,1,24,test,1,1,z,Tue Sep 30 2025 11:21:43 GMT-0500 (Central Daylight Time),587795.0999999642,O,z,1632,39,1,47.bmp,-120,-120,48.bmp,120,-120,49.bmp,-120,120,50.bmp,120,120,9677.0,578118.0999999642,7220,yes,SM,B,50.bmp,120,120,200502,194474,202520,196486,580815.0,574785.0,582830.0,576798.0,39
3,0,0,1,0,25,test,1,1,m,Tue Sep 30 2025 11:21:43 GMT-0500 (Central Daylight Time),597076.0,O,m,1223,40,1,4.bmp,-120,-120,5.bmp,120,-120,6.bmp,-120,120,7.bmp,120,120,9277.5,587798.5,7220,yes,SM,B,5.bmp,-120,120,200502,194474,202520,196486,590494.0,584466.0,592509.0,586478.0,40
1,1,0,0,0,25,test,1,0,z,Tue Sep 30 2025 11:21:43 GMT-0500 (Central Daylight Time),607138.0999999642,O,None,2014,41,1,8.bmp,-120,-120,9.bmp,120,-120,10.bmp,-120,120,11.bmp,120,120,10057.899999976158,597080.1999999881,7220,yes,SM,B,8.bmp,-120,-120,200502,194474,202520,196486,599775.0,593747.0,601791.0,595759.0,41
4,0,0,0,1,26,test,1,1,z,Tue Sep 30 2025 11:21:43 GMT-0500 (Central Daylight Time),616651.8000000119,O,z,1469,42,1,12.bmp,-120,-120,13.bmp,120,-120,14.bmp,-120,120,15.bmp,120,120,9509.5,607142.3000000119,7220,yes,SM,B,15.bmp,120,120,200502,194474,202520,196486,609836.0,603810.0,611838.0,605822.0,42
1,1,0,0,0,27,test,1,1,z,Tue Sep 30 2025 11:21:43 GMT-0500 (Central Daylight Time),625815.6999999881,O,z,1111,43,1,16.bmp,-120,-120,17.bmp,120,-120,18.bmp,-120,120,19.bmp,120,120,9162.0,616653.6999999881,7220,yes,SM,B,16.bmp,-120,-120,200502,194474,202520,196486,619352.0,613321.0,621368.0,615335.0,43
4,0,0,0,1,27,test,1,0,m,Tue Sep 30 2025 11:21:43 GMT-0500 (Central Daylight Time),635546.5999999642,O,z,1673,44,1,4.bmp,-120,-120,1.bmp,120,-120,2.bmp,-120,120,3.bmp,120,120,9728.299999952316,625818.3000000119,7220,yes,SM,B,4.bmp,120,120,200502,194474,202520,196486,628518.0,622486.0,630531.0,624500.0,44
1,1,0,0,0,28,test,1,1,m,Tue Sep 30 2025 11:21:43 GMT-0500 (Central Daylight Time),645110.0999999642,O,m,1512,45,1,28.bmp,-120,-120,29.bmp,120,-120,30.bmp,-120,120,31.bmp,120,120,9560.399999976158,635549.6999999881,7220,yes,SM,B,31.bmp,-120,-120,200502,194474,202520,196486,638246.0,632217.0,640260.0,634231.0,45
1,1,0,0,0,29,test,1,1,m,Tue Sep 30 2025 11:21:43 GMT-0500 (Central Daylight Time),654140.5999999642,O,m,972,46,1,20.bmp,-120,-120,21.bmp,120,-120,22.bmp,-120,120,23.bmp,120,120,9027.799999952316,645112.8000000119,7220,yes,SM,B,21.bmp,-120,-120,200502,194474,202520,196486,647809.0,641780.0,649824.0,643795.0,46
3,0,0,1,0,30,test,1,1,z,Tue Sep 30 2025 11:21:43 GMT-0500 (Central Daylight Time),663304.5,O,z,1110,47,1,24.bmp,-120,-120,25.bmp,120,-120,26.bmp,-120,120,27.bmp,120,120,9160.300000011921,654144.1999999881,7220,yes,SM,B,26.bmp,-120,120,200502,194474,202520,196486,656840.0,650812.0,658854.0,652824.0,47
3,0,0,1,0,31,test,1,1,z,Tue Sep 30 2025 11:21:43 GMT-0500 (Central Daylight Time),672501.5999999642,O,z,1146,48,1,40.bmp,-120,-120,41.bmp,120,-120,42.bmp,-120,120,43.bmp,120,120,9194.5,663307.0999999642,7220,yes,SM,B,42.bmp,-120,120,200502,194474,202520,196486,666004.0,659974.0,668018.0,661988.0,48
2,0,1,0,0,32,test,1,1,z,Tue Sep 30 2025 11:21:43 GMT-0500 (Central Daylight Time),681882.0,O,z,1319,49,1,36.bmp,-120,-120,37.bmp,120,-120,38.bmp,-120,120,39.bmp,120,120,9377.100000023842,672504.8999999762,7220,yes,SM,B,37.bmp,120,-120,200502,194474,202520,196486,675200.0,669172.0,677214.0,671185.0,49
3,0,0,1,0,33,test,1,1,m,Tue Sep 30 2025 11:21:43 GMT-0500 (Central Daylight Time),691778.0999999642,O,m,1839,50,1,32.bmp,-120,-120,33.bmp,120,-120,34.bmp,-120,120,35.bmp,120,120,9892.5,681885.5999999642,7220,yes,SM,B,32.bmp,-120,120,200502,194474,202520,196486,684582.0,678553.0,686597.0,680566.0,50
2,0,1,0,0,33,test,1,0,z,Tue Sep 30 2025 11:21:43 GMT-0500 (Central Daylight Time),701843.0,O,None,2015,51,1,44.bmp,-120,-120,45.bmp,120,-120,46.bmp,-120,120,47.bmp,120,120,10061.600000023842,691781.3999999762,7220,yes,SM,B,45.bmp,120,-120,200502,194474,202520,196486,694480.0,688449.0,696495.0,690462.0,51
4,0,0,0,1,34,test,1,1,m,Tue Sep 30 2025 11:21:43 GMT-0500 (Central Daylight Time),711005.3000000119,O,m,1103,52,1,48.bmp,-120,-120,49.bmp,120,-120,50.bmp,-120,120,31.bmp,120,120,9160.200000047684,701845.0999999642,7220,yes,SM,B,48.bmp,120,120,200502,194474,202520,196486,704540.0,698512.0,706557.0,700526.0,52
3,0,0,1,0,34,test,1,0,z,Tue Sep 30 2025 11:21:43 GMT-0500 (Central Daylight Time),721069.3000000119,O,None,2015,53,1,1.bmp,-120,-120,2.bmp,120,-120,3.bmp,-120,120,4.bmp,120,120,10059.700000047684,711009.5999999642,7220,yes,SM,B,3.bmp,-120,120,200502,194474,202520,196486,713704.0,707677.0,715721.0,709690.0,53
1,1,0,0,0,34,test,1,0,m,Tue Sep 30 2025 11:21:43 GMT-0500 (Central Daylight Time),731117.5999999642,O,None,2001,54,1,5.bmp,-120,-120,6.bmp,120,-120,7.bmp,-120,120,8.bmp,120,120,10045.0,721072.5999999642,7220,yes,SM,B,7.bmp,-120,-120,200502,194474,202520,196486,723768.0,717740.0,725784.0,719753.0,54
4,0,0,0,1,35,test,1,1,z,Tue Sep 30 2025 11:21:43 GMT-0500 (Central Daylight Time),740764.3999999762,O,z,1599,55,1,9.bmp,-120,-120,10.bmp,120,-120,11.bmp,-120,120,12.bmp,120,120,9643.199999988079,731121.1999999881,7220,yes,SM,B,12.bmp,120,120,200502,194474,202520,196486,733815.0,727788.0,735832.0,729800.0,55
2,0,1,0,0,35,test,1,0,m,Tue Sep 30 2025 11:21:43 GMT-0500 (Central Daylight Time),750826.0999999642,O,None,2016,56,1,13.bmp,-120,-120,14.bmp,120,-120,15.bmp,-120,120,16.bmp,120,120,10056.799999952316,740769.3000000119,7220,yes,SM,B,13.bmp,120,-120,200502,194474,202520,196486,743462.0,737437.0,745477.0,739446.0,56
4,0,0,0,1,36,test,1,1,m,Tue Sep 30 2025 11:21:43 GMT-0500 (Central Daylight Time),760223.3000000119,O,m,1342,57,1,17.bmp,-120,-120,18.bmp,120,-120,19.bmp,-120,120,20.bmp,120,120,9391.300000011921,750832.0,7220,yes,SM,B,18.bmp,120,120,200502,194474,202520,196486,753525.0,747499.0,755542.0,749510.0,57
3,0,0,1,0,37,test,1,1,z,Tue Sep 30 2025 11:21:43 GMT-0500 (Central Daylight Time),769740.5,O,z,1458,58,1,21.bmp,-120,-120,22.bmp,120,-120,23.bmp,-120,120,24.bmp,120,120,9514.199999988079,760226.3000000119,7220,yes,SM,B,23.bmp,-120,120,200502,194474,202520,196486,762922.0,756894.0,764938.0,758911.0,58
2,0,1,0,0,38,test,1,1,m,Tue Sep 30 2025 11:21:43 GMT-0500 (Central Daylight Time),779351.0,O,m,1560,59,1,25.bmp,-120,-120,26.bmp,120,-120,27.bmp,-120,120,28.bmp,120,120,9608.199999988079,769742.8000000119,7220,yes,SM,B,28.bmp,120,-120,200502,194474,202520,196486,772436.0,766410.0,774452.0,768421.0,59
1,1,0,0,0,39,test,1,1,z,Tue Sep 30 2025 11:21:43 GMT-0500 (Central Daylight Time),789164.5999999642,O,z,1756,60,1,29.bmp,-120,-120,30.bmp,120,-120,31.bmp,-120,120,32.bmp,120,120,9811.099999964237,779353.5,7220,yes,SM,B,29.bmp,-120,-120,200502,194474,202520,196486,782050.0,776021.0,784065.0,778033.0,60
2,0,1,0,0,39,test,1,0,z,Tue Sep 30 2025 11:21:43 GMT-0500 (Central Daylight Time),799227.5,O,None,2012,61,1,33.bmp,-120,-120,34.bmp,120,-120,35.bmp,-120,120,36.bmp,120,120,10059.600000023842,789167.8999999762,7220,yes,SM,B,34.bmp,120,-120,200502,194474,202520,196486,791863.0,785835.0,793882.0,787847.0,61
4,0,0,0,1,39,test,1,0,z,Tue Sep 30 2025 11:21:43 GMT-0500 (Central Daylight Time),809275.8000000119,O,None,2002,62,1,41.bmp,-120,-120,42.bmp,120,-120,43.bmp,-120,120,44.bmp,120,120,10046.400000035763,799229.3999999762,7220,yes,SM,B,44.bmp,120,120,200502,194474,202520,196486,801926.0,795897.0,803941.0,797911.0,62
1,1,0,0,0,39,test,1,0,m,Tue Sep 30 2025 11:21:43 GMT-0500 (Central Daylight Time),818120.3000000119,O,z,790,63,1,45.bmp,-120,-120,46.bmp,120,-120,47.bmp,-120,120,48.bmp,120,120,8842.5,809277.8000000119,7220,yes,SM,B,45.bmp,-120,120,200502,194474,202520,196486,811974.0,805945.0,813989.0,807958.0,63
2,0,1,0,0,39,test,1,0,z,Tue Sep 30 2025 11:21:43 GMT-0500 (Central Daylight Time),828101.3999999762,O,m,1921,64,1,49.bmp,-120,-120,50.bmp,120,-120,12.bmp,-120,120,1.bmp,120,120,9979.199999988079,818122.1999999881,7220,yes,SM,B,50.bmp,120,-120,200502,194474,202520,196486,820821.0,814789.0,822836.0,816806.0,64
4,0,0,0,1,40,test,1,1,m,Tue Sep 30 2025 11:21:43 GMT-0500 (Central Daylight Time),837698.8000000119,O,m,1541,65,1,2.bmp,-120,-120,3.bmp,120,-120,4.bmp,-120,120,5.bmp,120,120,9593.300000011921,828105.5,7220,yes,SM,B,4.bmp,120,120,200502,194474,202520,196486,830800.0,824773.0,832816.0,826784.0,65
3,0,0,1,0,40,test,1,0,m,Tue Sep 30 2025 11:21:43 GMT-0500 (Central Daylight Time),847762.1999999881,O,None,2016,66,1,6.bmp,-120,-120,7.bmp,120,-120,8.bmp,-120,120,9.bmp,120,120,10060.600000023842,837701.5999999642,7220,yes,SM,B,9.bmp,-120,120,200502,194474,202520,196486,840397.0,834369.0,842413.0,836382.0,66
2,0,1,0,0,41,test,1,1,m,Tue Sep 30 2025 11:21:43 GMT-0500 (Central Daylight Time),856791.8999999762,O,m,975,67,1,37.bmp,-120,-120,38.bmp,120,-120,39.bmp,-120,120,40.bmp,120,120,9023.699999988079,847768.1999999881,7220,yes,SM,B,39.bmp,120,-120,200502,194474,202520,196486,850461.0,844436.0,852478.0,846446.0,67
3,0,0,1,0,41,test,1,0,z,Tue Sep 30 2025 11:21:43 GMT-0500 (Central Daylight Time),866840.0999999642,O,None,2001,68,1,10.bmp,-120,-120,11.bmp,120,-120,12.bmp,-120,120,13.bmp,120,120,10043.699999988079,856796.3999999762,7220,yes,SM,B,12.bmp,-120,120,200502,194474,202520,196486,859490.0,853464.0,861506.0,855476.0,68
1,1,0,0,0,42,test,1,1,m,Tue Sep 30 2025 11:21:43 GMT-0500 (Central Daylight Time),876069.8999999762,O,m,1170,69,1,14.bmp,-120,-120,15.bmp,120,-120,16.bmp,-120,120,17.bmp,120,120,9222.399999976158,866847.5,7220,yes,SM,B,15.bmp,-120,-120,200502,194474,202520,196486,869539.0,863515.0,871555.0,865523.0,69
2,0,1,0,0,42,test,1,0,m,Tue Sep 30 2025 11:21:43 GMT-0500 (Central Daylight Time),884200.3999999762,O,z,74,70,1,18.bmp,-120,-120,19.bmp,120,-120,20.bmp,-120,120,21.bmp,120,120,8127.699999988079,876072.6999999881,7220,yes,SM,B,20.bmp,120,-120,200502,194474,202520,196486,878768.0,872740.0,880786.0,874754.0,70
4,0,0,0,1,42,test,1,0,z,Tue Sep 30 2025 11:21:43 GMT-0500 (Central Daylight Time),894264.0999999642,O,None,2015,71,1,22.bmp,-120,-120,23.bmp,120,-120,24.bmp,-120,120,25.bmp,120,120,10061.0,884203.0999999642,7220,yes,SM,B,25.bmp,120,120,200502,194474,202520,196486,886901.0,880870.0,888916.0,882883.0,71
1,1,0,0,0,43,test,1,1,z,Tue Sep 30 2025 11:21:43 GMT-0500 (Central Daylight Time),903761.8000000119,O,z,1441,72,1,26.bmp,-120,-120,27.bmp,120,-120,28.bmp,-120,120,29.bmp,120,120,9494.700000047684,894267.0999999642,7220,yes,SM,B,26.bmp,-120,-120,200502,194474,202520,196486,896964.0,890934.0,898979.0,892949.0,72
2,0,1,0,0,44,test,1,1,z,Tue Sep 30 2025 11:21:43 GMT-0500 (Central Daylight Time),912407.8000000119,O,z,592,73,1,30.bmp,-120,-120,31.bmp,120,-120,32.bmp,-120,120,33.bmp,120,120,8642.0,903765.8000000119,7220,yes,SM,B,31.bmp,120,-120,200502,194474,202520,196486,906460.0,900433.0,908476.0,902446.0,73
4,0,0,0,1,44,test,1,0,m,Tue Sep 30 2025 11:21:43 GMT-0500 (Central Daylight Time),922470.6999999881,O,None,2014,74,1,34.bmp,-120,-120,35.bmp,120,-120,36.bmp,-120,120,37.bmp,120,120,10060.100000023842,912410.5999999642,7220,yes,SM,B,36.bmp,120,120,200502,194474,202520,196486,915107.0,909078.0,917124.0,911092.0,74
2,0,1,0,0,44,test,1,0,m,Tue Sep 30 2025 11:21:43 GMT-0500 (Central Daylight Time),931918.3999999762,O,z,1401,75,1,38.bmp,-120,-120,39.bmp,120,-120,40.bmp,-120,120,41.bmp,120,120,9445.099999964237,922473.3000000119,7220,yes,SM,B,41.bmp,120,-120,200502,194474,202520,196486,925170.0,919140.0,927171.0,921155.0,75
1,1,0,0,0,45,test,1,1,z,Tue Sep 30 2025 11:21:43 GMT-0500 (Central Daylight Time),941197.8000000119,O,z,1243,76,1,42.bmp,-120,-120,43.bmp,120,-120,44.bmp,-120,120,45.bmp,120,120,9277.400000035763,931920.3999999762,7220,yes,SM,B,42.bmp,-120,-120,200502,194474,202520,196486,934602.0,928588.0,936617.0,930593.0,76
3,0,0,1,0,45,test,1,0,z,Tue Sep 30 2025 11:21:43 GMT-0500 (Central Daylight Time),951260.8999999762,O,None,2014,77,1,50.bmp,-120,-120,11.bmp,120,-120,1.bmp,-120,120,2.bmp,120,120,10060.199999988079,941200.6999999881,7220,yes,SM,B,1.bmp,-120,120,200502,194474,202520,196486,943897.0,937868.0,945914.0,939884.0,77
1,1,0,0,0,45,test,1,0,m,Tue Sep 30 2025 11:21:43 GMT-0500 (Central Daylight Time),961325.3000000119,O,None,2015,78,1,46.bmp,-120,-120,47.bmp,120,-120,48.bmp,-120,120,49.bmp,120,120,10060.800000011921,951264.5,7220,yes,SM,B,47.bmp,-120,-120,200502,194474,202520,196486,953961.0,947932.0,955977.0,949944.0,78
4,0,0,0,1,45,test,1,0,m,Tue Sep 30 2025 11:21:43 GMT-0500 (Central Daylight Time),971388.8999999762,O,None,2016,79,1,7.bmp,-120,-120,8.bmp,120,-120,9.bmp,-120,120,10.bmp,120,120,10057.199999988079,961331.6999999881,7220,yes,SM,B,7.bmp,120,120,200502,194474,202520,196486,964024.0,957999.0,966040.0,960009.0,79
3,0,0,1,0,45,test,1,0,m,Tue Sep 30 2025 11:21:43 GMT-0500 (Central Daylight Time),981453.0,O,None,2017,80,1,3.bmp,-120,-120,4.bmp,120,-120,5.bmp,-120,120,6.bmp,120,120,10057.300000011921,971395.6999999881,7220,yes,SM,B,6.bmp,-120,120,200502,194474,202520,196486,974088.0,968063.0,976103.0,970072.0,80
