Q,Q1,Q2,Q3,Q4,acc_sum,block,block_c,correct,correct_response,datetime,endtime,project,response,response_time,row_sel,session_number,squiggle1,squiggle1x,squiggle1y,squiggle2,squiggle2x,squiggle2y,squiggle3,squiggle3x,squiggle3y,squiggle4,squiggle4x,squiggle4y,start_end,starttime,subject_id,target_congruent,task,task_vers,testsquiggle,testsquigglex,testsquiggley,time_practice_delay,time_practice_fixation,time_practice_stimuli,time_practice_study,time_test_delay,time_test_fixation,time_test_stimuli,time_test_study,trial
1,1,0,0,0,1,prac,1,1,z,Wed May 13 2026 12:49:31 GMT-0400 (Eastern Daylight Time),131739.39999999944,I,z,1927,1,1,116.bmp,-120,-120,117.bmp,120,-120,118.bmp,-120,120,119.bmp,120,120,10743.899999999441,120995.5,9081,yes,SM,A,116.bmp,-120,-120,124759,118732,126776,120742,,,,,1
3,0,0,1,0,1,prac,1,0,m,Wed May 13 2026 12:49:31 GMT-0400 (Eastern Daylight Time),142572.2999999998,I,None,2017,2,1,120.bmp,-120,-120,121.bmp,120,-120,122.bmp,-120,120,123.bmp,120,120,10825.700000000186,131746.59999999963,9081,no,SM,A,123.bmp,-120,120,135509,129483,137525,131492,,,,,2
4,0,0,0,1,2,prac,1,1,m,Wed May 13 2026 12:49:31 GMT-0400 (Eastern Daylight Time),153089.19999999925,I,m,1688,3,1,124.bmp,-120,-120,125.bmp,120,-120,126.bmp,-120,120,127.bmp,120,120,10507.299999999814,142581.89999999944,9081,no,SM,A,124.bmp,120,120,146342,140318,148359,142326,,,,,3
2,0,1,0,0,3,prac,1,1,z,Wed May 13 2026 12:49:31 GMT-0400 (Eastern Daylight Time),163439.39999999944,I,z,1531,4,1,128.bmp,-120,-120,129.bmp,120,-120,130.bmp,-120,120,131.bmp,120,120,10342.899999999441,153096.5,9081,yes,SM,A,129.bmp,120,-120,156859,150833,158876,152842,,,,,4
3,0,0,1,0,3,prac,1,0,z,Wed May 13 2026 12:49:31 GMT-0400 (Eastern Daylight Time),174005.39999999944,I,m,1750,5,1,132.bmp,-120,-120,133.bmp,120,-120,134.bmp,-120,120,135.bmp,120,120,10560.099999999627,163445.2999999998,9081,yes,SM,A,134.bmp,-120,120,167209,161182,169225,163192,,,,,5
1,1,0,0,0,4,prac,1,1,m,Wed May 13 2026 12:49:31 GMT-0400 (Eastern Daylight Time),184039.09999999963,I,m,1215,6,1,136.bmp,-120,-120,137.bmp,120,-120,138.bmp,-120,120,139.bmp,120,120,10028.700000000186,174010.39999999944,9081,no,SM,A,139.bmp,-120,-120,177775,171747,179792,173759,,,,,6
2,0,1,0,0,4,prac,1,0,m,Wed May 13 2026 12:49:31 GMT-0400 (Eastern Daylight Time),194622.5,I,z,1757,7,1,140.bmp,-120,-120,141.bmp,120,-120,142.bmp,-120,120,143.bmp,120,120,10576.100000000559,184046.39999999944,9081,no,SM,A,140.bmp,120,-120,187809,181783,189826,183792,,,,,7
4,0,0,0,1,4,prac,1,0,z,Wed May 13 2026 12:49:31 GMT-0400 (Eastern Daylight Time),205455.69999999925,I,None,2017,8,1,144.bmp,-120,-120,145.bmp,120,-120,146.bmp,-120,120,147.bmp,120,120,10825.699999999255,194630.0,9081,yes,SM,A,147.bmp,120,120,198392,192366,200408,194376,,,,,8
1,1,0,0,0,1,prac,2,1,z,Wed May 13 2026 12:49:31 GMT-0400 (Eastern Daylight Time),224372.59999999963,I,z,1618,1,1,116.bmp,-120,-120,117.bmp,120,-120,118.bmp,-120,120,119.bmp,120,120,10443.700000000186,213928.89999999944,9081,yes,SM,A,116.bmp,-120,-120,217692,211665,219709,213675,,,,,1
3,0,0,1,0,1,prac,2,0,m,Wed May 13 2026 12:49:31 GMT-0400 (Eastern Daylight Time),235205.7999999998,I,None,2016,2,1,120.bmp,-120,-120,121.bmp,120,-120,122.bmp,-120,120,123.bmp,120,120,10826.400000000373,224379.39999999944,9081,no,SM,A,123.bmp,-120,120,228142,222116,230158,224126,,,,,2
4,0,0,0,1,2,prac,2,1,m,Wed May 13 2026 12:49:31 GMT-0400 (Eastern Daylight Time),245672.69999999925,I,m,1647,3,1,124.bmp,-120,-120,125.bmp,120,-120,126.bmp,-120,120,127.bmp,120,120,10456.299999999814,235216.39999999944,9081,no,SM,A,124.bmp,120,120,238975,232953,240992,234959,,,,,3
2,0,1,0,0,3,prac,2,1,z,Wed May 13 2026 12:49:31 GMT-0400 (Eastern Daylight Time),256339.39999999944,I,z,1844,4,1,128.bmp,-120,-120,129.bmp,120,-120,130.bmp,-120,120,131.bmp,120,120,10659.599999999627,245679.7999999998,9081,yes,SM,A,129.bmp,120,-120,249442,243416,251459,245426,,,,,4
3,0,0,1,0,3,prac,2,0,z,Wed May 13 2026 12:49:31 GMT-0400 (Eastern Daylight Time),267172.5,I,None,2016,5,1,132.bmp,-120,-120,133.bmp,120,-120,134.bmp,-120,120,135.bmp,120,120,10825.100000000559,256347.39999999944,9081,yes,SM,A,134.bmp,-120,120,260109,254084,262126,256092,,,,,5
1,1,0,0,0,4,prac,2,1,m,Wed May 13 2026 12:49:31 GMT-0400 (Eastern Daylight Time),277706.0999999996,I,m,1704,6,1,136.bmp,-120,-120,137.bmp,120,-120,138.bmp,-120,120,139.bmp,120,120,10526.099999999627,267180.0,9081,no,SM,A,139.bmp,-120,-120,270942,264916,272959,266926,,,,,6
2,0,1,0,0,5,prac,2,1,m,Wed May 13 2026 12:49:31 GMT-0400 (Eastern Daylight Time),287722.7999999998,I,m,1194,7,1,140.bmp,-120,-120,141.bmp,120,-120,142.bmp,-120,120,143.bmp,120,120,10010.5,277712.2999999998,9081,no,SM,A,140.bmp,120,-120,281476,275449,283492,277459,,,,,7
4,0,0,0,1,6,prac,2,1,z,Wed May 13 2026 12:49:31 GMT-0400 (Eastern Daylight Time),298456.0,I,z,1906,8,1,144.bmp,-120,-120,145.bmp,120,-120,146.bmp,-120,120,147.bmp,120,120,10726.100000000559,287729.89999999944,9081,yes,SM,A,147.bmp,120,120,291492,285466,293509,287476,,,,,8
4,0,0,0,1,1,test,1,1,m,Wed May 13 2026 12:49:31 GMT-0400 (Eastern Daylight Time),335522.89999999944,I,m,1571,1,1,148.bmp,-120,-120,149.bmp,120,-120,150.bmp,-120,120,143.bmp,120,120,9626.5,325896.39999999944,9081,no,SM,A,150.bmp,120,120,291492,285466,293509,287476,329659.0,323633.0,331676.0,325643.0,1
2,0,1,0,0,2,test,1,1,m,Wed May 13 2026 12:49:31 GMT-0400 (Eastern Daylight Time),345039.39999999944,I,m,1450,2,1,101.bmp,-120,-120,102.bmp,120,-120,103.bmp,-120,120,104.bmp,120,120,9508.200000000186,335531.19999999925,9081,no,SM,A,103.bmp,120,-120,291492,285466,293509,287476,339292.0,333267.0,341309.0,335276.0,2
1,1,0,0,0,3,test,1,1,z,Wed May 13 2026 12:49:31 GMT-0400 (Eastern Daylight Time),354606.2999999998,I,z,1501,3,1,105.bmp,-120,-120,106.bmp,120,-120,107.bmp,-120,120,108.bmp,120,120,9560.400000000373,345045.89999999944,9081,yes,SM,A,105.bmp,-120,-120,291492,285466,293509,287476,348809.0,342782.0,350826.0,344792.0,3
3,0,0,1,0,3,test,1,0,m,Wed May 13 2026 12:49:31 GMT-0400 (Eastern Daylight Time),364289.5,I,z,1622,4,1,109.bmp,-120,-120,110.bmp,120,-120,111.bmp,-120,120,112.bmp,120,120,9675.200000000186,354614.2999999998,9081,no,SM,A,109.bmp,-120,120,291492,285466,293509,287476,358376.0,352350.0,360393.0,354359.0,4
2,0,1,0,0,3,test,1,0,z,Wed May 13 2026 12:49:31 GMT-0400 (Eastern Daylight Time),374356.19999999925,I,None,2016,5,1,113.bmp,-120,-120,114.bmp,120,-120,115.bmp,-120,120,116.bmp,120,120,10059.199999999255,364297.0,9081,yes,SM,A,114.bmp,120,-120,291492,285466,293509,287476,368059.0,362033.0,370076.0,364043.0,5
3,0,0,1,0,3,test,1,0,z,Wed May 13 2026 12:49:31 GMT-0400 (Eastern Daylight Time),384423.0,I,None,2016,6,1,117.bmp,-120,-120,118.bmp,120,-120,119.bmp,-120,120,120.bmp,120,120,10060.800000000745,374362.19999999925,9081,yes,SM,A,119.bmp,-120,120,291492,285466,293509,287476,378126.0,372098.0,380143.0,374109.0,6
4,0,0,0,1,4,test,1,1,z,Wed May 13 2026 12:49:31 GMT-0400 (Eastern Daylight Time),394339.5,I,z,1862,7,1,121.bmp,-120,-120,122.bmp,120,-120,123.bmp,-120,120,124.bmp,120,120,9908.800000000745,384430.69999999925,9081,yes,SM,A,124.bmp,120,120,291492,285466,293509,287476,388193.0,382167.0,390209.0,384176.0,7
2,0,1,0,0,5,test,1,1,m,Wed May 13 2026 12:49:31 GMT-0400 (Eastern Daylight Time),404056.0,I,m,1665,8,1,125.bmp,-120,-120,126.bmp,120,-120,127.bmp,-120,120,128.bmp,120,120,9710.200000000186,394345.7999999998,9081,no,SM,A,125.bmp,120,-120,291492,285466,293509,287476,398109.0,392082.0,400126.0,394093.0,8
3,0,0,1,0,6,test,1,1,m,Wed May 13 2026 12:49:31 GMT-0400 (Eastern Daylight Time),413939.5,I,m,1828,9,1,129.bmp,-120,-120,130.bmp,120,-120,131.bmp,-120,120,132.bmp,120,120,9874.5,404065.0,9081,no,SM,A,130.bmp,-120,120,291492,285466,293509,287476,407826.0,401802.0,409843.0,403809.0,9
4,0,0,0,1,7,test,1,1,z,Wed May 13 2026 12:49:31 GMT-0400 (Eastern Daylight Time),423556.39999999944,I,z,1553,10,1,137.bmp,-120,-120,138.bmp,120,-120,139.bmp,-120,120,140.bmp,120,120,9610.200000000186,413946.19999999925,9081,yes,SM,A,140.bmp,120,120,291492,285466,293509,287476,417709.0,411682.0,419726.0,413693.0,10
3,0,0,1,0,8,test,1,1,z,Wed May 13 2026 12:49:31 GMT-0400 (Eastern Daylight Time),433289.5999999996,I,z,1672,11,1,133.bmp,-120,-120,134.bmp,120,-120,135.bmp,-120,120,136.bmp,120,120,9726.200000000186,423563.39999999944,9081,yes,SM,A,135.bmp,-120,120,291492,285466,293509,287476,427326.0,421300.0,429343.0,423309.0,11
2,0,1,0,0,9,test,1,1,m,Wed May 13 2026 12:49:31 GMT-0400 (Eastern Daylight Time),443072.89999999944,I,m,1731,12,1,141.bmp,-120,-120,142.bmp,120,-120,143.bmp,-120,120,144.bmp,120,120,9775.599999999627,433297.2999999998,9081,no,SM,A,141.bmp,120,-120,291492,285466,293509,287476,437059.0,431033.0,439076.0,433043.0,12
3,0,0,1,0,10,test,1,1,m,Wed May 13 2026 12:49:31 GMT-0400 (Eastern Daylight Time),452723.0,I,m,1595,13,1,145.bmp,-120,-120,146.bmp,120,-120,147.bmp,-120,120,148.bmp,120,120,9639.600000000559,443083.39999999944,9081,no,SM,A,146.bmp,-120,120,291492,285466,293509,287476,446843.0,440820.0,448860.0,442826.0,13
1,1,0,0,0,11,test,1,1,z,Wed May 13 2026 12:49:31 GMT-0400 (Eastern Daylight Time),462056.39999999944,I,z,1273,14,1,149.bmp,-120,-120,150.bmp,120,-120,104.bmp,-120,120,101.bmp,120,120,9326.0,452730.39999999944,9081,yes,SM,A,149.bmp,-120,-120,291492,285466,293509,287476,456493.0,450467.0,458510.0,452476.0,14
4,0,0,0,1,12,test,1,1,m,Wed May 13 2026 12:49:31 GMT-0400 (Eastern Daylight Time),471423.39999999944,I,m,1316,15,1,110.bmp,-120,-120,111.bmp,120,-120,112.bmp,-120,120,113.bmp,120,120,9359.299999999814,462064.0999999996,9081,no,SM,A,111.bmp,120,120,291492,285466,293509,287476,465826.0,459800.0,467843.0,461810.0,15
1,1,0,0,0,12,test,1,0,m,Wed May 13 2026 12:49:31 GMT-0400 (Eastern Daylight Time),480840.0,I,z,1366,16,1,102.bmp,-120,-120,103.bmp,120,-120,104.bmp,-120,120,105.bmp,120,120,9409.300000000745,471430.69999999925,9081,no,SM,A,105.bmp,-120,-120,291492,285466,293509,287476,475193.0,469167.0,477210.0,471176.0,16
3,0,0,1,0,12,test,1,0,m,Wed May 13 2026 12:49:31 GMT-0400 (Eastern Daylight Time),490906.5,I,None,2016,17,1,122.bmp,-120,-120,123.bmp,120,-120,124.bmp,-120,120,125.bmp,120,120,10059.400000000373,480847.0999999996,9081,no,SM,A,122.bmp,-120,120,291492,285466,293509,287476,484609.0,478583.0,486626.0,480593.0,17
1,1,0,0,0,13,test,1,1,z,Wed May 13 2026 12:49:31 GMT-0400 (Eastern Daylight Time),500889.7999999998,I,z,1930,18,1,106.bmp,-120,-120,107.bmp,120,-120,108.bmp,-120,120,109.bmp,120,120,9976.299999999814,490913.5,9081,yes,SM,A,106.bmp,-120,-120,291492,285466,293509,287476,494676.0,488650.0,496693.0,490659.0,18
2,0,1,0,0,14,test,1,1,z,Wed May 13 2026 12:49:31 GMT-0400 (Eastern Daylight Time),510556.5,I,z,1603,19,1,126.bmp,-120,-120,127.bmp,120,-120,128.bmp,-120,120,129.bmp,120,120,9660.200000000186,500896.2999999998,9081,yes,SM,A,127.bmp,120,-120,291492,285466,293509,287476,504659.0,498633.0,506676.0,500643.0,19
3,0,0,1,0,15,test,1,1,z,Wed May 13 2026 12:49:31 GMT-0400 (Eastern Daylight Time),520606.5999999996,I,z,1992,20,1,130.bmp,-120,-120,131.bmp,120,-120,132.bmp,-120,120,133.bmp,120,120,10043.400000000373,510563.19999999925,9081,yes,SM,A,132.bmp,-120,120,291492,285466,293509,287476,514326.0,508300.0,516343.0,510310.0,20
1,1,0,0,0,16,test,1,1,m,Wed May 13 2026 12:49:31 GMT-0400 (Eastern Daylight Time),530539.8999999994,I,m,1878,21,1,114.bmp,-120,-120,115.bmp,120,-120,116.bmp,-120,120,117.bmp,120,120,9926.200000000186,520613.69999999925,9081,no,SM,A,116.bmp,-120,-120,291492,285466,293509,287476,524376.0,518350.0,526393.0,520360.0,21
4,0,0,0,1,16,test,1,0,z,Wed May 13 2026 12:49:31 GMT-0400 (Eastern Daylight Time),540606.6999999993,I,None,2017,22,1,118.bmp,-120,-120,119.bmp,120,-120,120.bmp,-120,120,121.bmp,120,120,10059.799999999814,530546.8999999994,9081,yes,SM,A,121.bmp,120,120,291492,285466,293509,287476,534309.0,528283.0,536326.0,530293.0,22
1,1,0,0,0,16,test,1,0,m,Wed May 13 2026 12:49:31 GMT-0400 (Eastern Daylight Time),550673.2999999998,I,None,2016,23,1,134.bmp,-120,-120,135.bmp,120,-120,136.bmp,-120,120,137.bmp,120,120,10058.700000000186,540614.5999999996,9081,no,SM,A,137.bmp,-120,-120,291492,285466,293509,287476,544376.0,538351.0,546393.0,540360.0,23
2,0,1,0,0,17,test,1,1,z,Wed May 13 2026 12:49:31 GMT-0400 (Eastern Daylight Time),560489.8999999994,I,z,1763,24,1,142.bmp,-120,-120,143.bmp,120,-120,144.bmp,-120,120,145.bmp,120,120,9807.700000000186,550682.1999999993,9081,yes,SM,A,143.bmp,120,-120,291492,285466,293509,287476,554443.0,548419.0,556460.0,550426.0,24
4,0,0,0,1,18,test,1,1,m,Wed May 13 2026 12:49:31 GMT-0400 (Eastern Daylight Time),570123.3999999994,I,m,1579,25,1,146.bmp,-120,-120,147.bmp,120,-120,148.bmp,-120,120,149.bmp,120,120,9626.299999999814,560497.0999999996,9081,no,SM,A,148.bmp,120,120,291492,285466,293509,287476,564259.0,558233.0,566276.0,560243.0,25
1,1,0,0,0,18,test,1,0,z,Wed May 13 2026 12:49:31 GMT-0400 (Eastern Daylight Time),580190.0999999996,I,None,2016,26,1,138.bmp,-120,-120,139.bmp,120,-120,140.bmp,-120,120,141.bmp,120,120,10059.900000000373,570130.1999999993,9081,yes,SM,A,138.bmp,-120,-120,291492,285466,293509,287476,573893.0,567866.0,575910.0,569876.0,26
4,0,0,0,1,19,test,1,1,z,Wed May 13 2026 12:49:31 GMT-0400 (Eastern Daylight Time),589956.5999999996,I,z,1711,27,1,150.bmp,-120,-120,111.bmp,120,-120,101.bmp,-120,120,102.bmp,120,120,9757.299999999814,580199.2999999998,9081,yes,SM,A,102.bmp,120,120,291492,285466,293509,287476,583959.0,577936.0,585976.0,579943.0,27
3,0,0,1,0,20,test,1,1,m,Wed May 13 2026 12:49:31 GMT-0400 (Eastern Daylight Time),599490.0,I,m,1480,28,1,103.bmp,-120,-120,104.bmp,120,-120,105.bmp,-120,120,106.bmp,120,120,9526.0,589964.0,9081,no,SM,A,103.bmp,-120,120,291492,285466,293509,287476,593726.0,587700.0,595743.0,589710.0,28
2,0,1,0,0,21,test,1,1,z,Wed May 13 2026 12:49:31 GMT-0400 (Eastern Daylight Time),608990.0,I,z,1442,29,1,107.bmp,-120,-120,108.bmp,120,-120,109.bmp,-120,120,110.bmp,120,120,9493.200000000186,599496.7999999998,9081,yes,SM,A,108.bmp,120,-120,291492,285466,293509,287476,603260.0,597233.0,605277.0,599243.0,29
3,0,0,1,0,21,test,1,0,z,Wed May 13 2026 12:49:31 GMT-0400 (Eastern Daylight Time),619056.7999999998,I,None,2016,30,1,111.bmp,-120,-120,112.bmp,120,-120,113.bmp,-120,120,114.bmp,120,120,10059.400000000373,608997.3999999994,9081,yes,SM,A,113.bmp,-120,120,291492,285466,293509,287476,612760.0,606734.0,614777.0,608743.0,30
1,1,0,0,0,22,test,1,1,z,Wed May 13 2026 12:49:31 GMT-0400 (Eastern Daylight Time),628423.3999999994,I,z,1300,31,1,115.bmp,-120,-120,116.bmp,120,-120,117.bmp,-120,120,118.bmp,120,120,9359.0,619064.3999999994,9081,yes,SM,A,115.bmp,-120,-120,291492,285466,293509,287476,622826.0,616801.0,624843.0,618810.0,31
2,0,1,0,0,22,test,1,0,m,Wed May 13 2026 12:49:31 GMT-0400 (Eastern Daylight Time),638473.5,I,None,2016,32,1,119.bmp,-120,-120,120.bmp,120,-120,121.bmp,-120,120,122.bmp,120,120,10042.200000000186,628431.2999999998,9081,no,SM,A,119.bmp,120,-120,291492,285466,293509,287476,632177.0,626168.0,634193.0,628176.0,32
4,0,0,0,1,23,test,1,1,z,Wed May 13 2026 12:49:31 GMT-0400 (Eastern Daylight Time),648056.5999999996,I,z,1531,33,1,131.bmp,-120,-120,132.bmp,120,-120,133.bmp,-120,120,134.bmp,120,120,9576.099999999627,638480.5,9081,yes,SM,A,134.bmp,120,120,291492,285466,293509,287476,642243.0,636217.0,644260.0,638227.0,33
2,0,1,0,0,23,test,1,0,z,Wed May 13 2026 12:49:31 GMT-0400 (Eastern Daylight Time),658123.5999999996,I,None,2016,34,1,123.bmp,-120,-120,124.bmp,120,-120,125.bmp,-120,120,126.bmp,120,120,10060.799999999814,648062.7999999998,9081,yes,SM,A,124.bmp,120,-120,291492,285466,293509,287476,651826.0,645799.0,653843.0,647810.0,34
4,0,0,0,1,24,test,1,1,m,Wed May 13 2026 12:49:31 GMT-0400 (Eastern Daylight Time),667940.2999999998,I,m,1761,35,1,127.bmp,-120,-120,128.bmp,120,-120,129.bmp,-120,120,130.bmp,120,120,9810.100000000559,658130.1999999993,9081,no,SM,A,129.bmp,120,120,291492,285466,293509,287476,661893.0,655866.0,663910.0,657877.0,35
3,0,0,1,0,25,test,1,1,m,Wed May 13 2026 12:49:31 GMT-0400 (Eastern Daylight Time),677323.5999999996,I,m,1321,36,1,135.bmp,-120,-120,136.bmp,120,-120,137.bmp,-120,120,138.bmp,120,120,9376.099999999627,667947.5,9081,no,SM,A,135.bmp,-120,120,291492,285466,293509,287476,671710.0,665684.0,673727.0,667693.0,36
1,1,0,0,0,25,test,1,0,m,Wed May 13 2026 12:49:31 GMT-0400 (Eastern Daylight Time),686573.5,I,z,1185,37,1,139.bmp,-120,-120,140.bmp,120,-120,141.bmp,-120,120,142.bmp,120,120,9242.700000000186,677330.7999999998,9081,no,SM,A,140.bmp,-120,-120,291492,285466,293509,287476,681093.0,675067.0,683110.0,677076.0,37
2,0,1,0,0,26,test,1,1,m,Wed May 13 2026 12:49:31 GMT-0400 (Eastern Daylight Time),696173.6999999993,I,m,1536,38,1,143.bmp,-120,-120,144.bmp,120,-120,145.bmp,-120,120,146.bmp,120,120,9590.699999999255,686583.0,9081,no,SM,A,145.bmp,120,-120,291492,285466,293509,287476,690343.0,684319.0,692360.0,686327.0,38
4,0,0,0,1,27,test,1,1,z,Wed May 13 2026 12:49:31 GMT-0400 (Eastern Daylight Time),705723.6999999993,I,z,1487,39,1,147.bmp,-120,-120,148.bmp,120,-120,149.bmp,-120,120,150.bmp,120,120,9543.099999999627,696180.5999999996,9081,yes,SM,A,150.bmp,120,120,291492,285466,293509,287476,699943.0,693917.0,701960.0,695927.0,39
3,0,0,1,0,28,test,1,1,m,Wed May 13 2026 12:49:31 GMT-0400 (Eastern Daylight Time),715123.5,I,m,1338,40,1,104.bmp,-120,-120,105.bmp,120,-120,106.bmp,-120,120,107.bmp,120,120,9392.300000000745,705731.1999999993,9081,no,SM,A,105.bmp,-120,120,291492,285466,293509,287476,709493.0,703468.0,711510.0,705477.0,40
1,1,0,0,0,29,test,1,1,z,Wed May 13 2026 12:49:31 GMT-0400 (Eastern Daylight Time),724273.6999999993,I,z,1089,41,1,108.bmp,-120,-120,109.bmp,120,-120,110.bmp,-120,120,111.bmp,120,120,9142.899999999441,715130.7999999998,9081,yes,SM,A,108.bmp,-120,-120,291492,285466,293509,287476,718893.0,712867.0,720910.0,714877.0,41
4,0,0,0,1,30,test,1,1,z,Wed May 13 2026 12:49:31 GMT-0400 (Eastern Daylight Time),734140.3999999994,I,z,1804,42,1,112.bmp,-120,-120,113.bmp,120,-120,114.bmp,-120,120,115.bmp,120,120,9859.099999999627,724281.2999999998,9081,yes,SM,A,115.bmp,120,120,291492,285466,293509,287476,728044.0,722017.0,730060.0,724027.0,42
1,1,0,0,0,31,test,1,1,z,Wed May 13 2026 12:49:31 GMT-0400 (Eastern Daylight Time),743656.8999999994,I,z,1464,43,1,116.bmp,-120,-120,117.bmp,120,-120,118.bmp,-120,120,119.bmp,120,120,9509.399999999441,734147.5,9081,yes,SM,A,116.bmp,-120,-120,291492,285466,293509,287476,737910.0,731884.0,739927.0,733893.0,43
4,0,0,0,1,32,test,1,1,m,Wed May 13 2026 12:49:31 GMT-0400 (Eastern Daylight Time),753073.7999999998,I,m,1357,44,1,104.bmp,-120,-120,101.bmp,120,-120,102.bmp,-120,120,103.bmp,120,120,9409.900000000373,743663.8999999994,9081,no,SM,A,104.bmp,120,120,291492,285466,293509,287476,747427.0,741400.0,749443.0,743410.0,44
1,1,0,0,0,32,test,1,0,m,Wed May 13 2026 12:49:31 GMT-0400 (Eastern Daylight Time),763140.3999999994,I,None,2016,45,1,128.bmp,-120,-120,129.bmp,120,-120,130.bmp,-120,120,131.bmp,120,120,10058.799999999814,753081.5999999996,9081,no,SM,A,131.bmp,-120,-120,291492,285466,293509,287476,756843.0,750818.0,758860.0,752827.0,45
1,1,0,0,0,33,test,1,1,m,Wed May 13 2026 12:49:31 GMT-0400 (Eastern Daylight Time),772440.3999999994,I,m,1240,46,1,120.bmp,-120,-120,121.bmp,120,-120,122.bmp,-120,120,123.bmp,120,120,9292.5,763147.8999999994,9081,no,SM,A,121.bmp,-120,-120,291492,285466,293509,287476,766910.0,760884.0,768927.0,762894.0,46
3,0,0,1,0,33,test,1,0,z,Wed May 13 2026 12:49:31 GMT-0400 (Eastern Daylight Time),781723.7999999998,I,m,1229,47,1,124.bmp,-120,-120,125.bmp,120,-120,126.bmp,-120,120,127.bmp,120,120,9273.700000000186,772450.0999999996,9081,yes,SM,A,126.bmp,-120,120,291492,285466,293509,287476,776210.0,770187.0,778227.0,772193.0,47
3,0,0,1,0,34,test,1,1,z,Wed May 13 2026 12:49:31 GMT-0400 (Eastern Daylight Time),791273.7999999998,I,z,1489,48,1,140.bmp,-120,-120,141.bmp,120,-120,142.bmp,-120,120,143.bmp,120,120,9543.400000000373,781730.3999999994,9081,yes,SM,A,142.bmp,-120,120,291492,285466,293509,287476,785493.0,779467.0,787510.0,781477.0,48
2,0,1,0,0,34,test,1,0,z,Wed May 13 2026 12:49:31 GMT-0400 (Eastern Daylight Time),801240.5,I,m,1908,49,1,136.bmp,-120,-120,137.bmp,120,-120,138.bmp,-120,120,139.bmp,120,120,9957.100000000559,791283.3999999994,9081,yes,SM,A,137.bmp,120,-120,291492,285466,293509,287476,795043.0,789020.0,797060.0,791027.0,49
3,0,0,1,0,35,test,1,1,m,Wed May 13 2026 12:49:31 GMT-0400 (Eastern Daylight Time),810423.3999999994,I,m,1132,50,1,132.bmp,-120,-120,133.bmp,120,-120,134.bmp,-120,120,135.bmp,120,120,9174.399999999441,801249.0,9081,no,SM,A,132.bmp,-120,120,291492,285466,293509,287476,805010.0,798985.0,807027.0,800994.0,50
2,0,1,0,0,35,test,1,0,z,Wed May 13 2026 12:49:31 GMT-0400 (Eastern Daylight Time),820490.5999999996,I,None,2016,51,1,144.bmp,-120,-120,145.bmp,120,-120,146.bmp,-120,120,147.bmp,120,120,10062.5,810428.0999999996,9081,yes,SM,A,145.bmp,120,-120,291492,285466,293509,287476,814193.0,808164.0,816210.0,810177.0,51
4,0,0,0,1,36,test,1,1,m,Wed May 13 2026 12:49:31 GMT-0400 (Eastern Daylight Time),830157.2999999998,I,m,1610,52,1,148.bmp,-120,-120,149.bmp,120,-120,150.bmp,-120,120,131.bmp,120,120,9659.799999999814,820497.5,9081,no,SM,A,148.bmp,120,120,291492,285466,293509,287476,824260.0,818234.0,826277.0,820244.0,52
3,0,0,1,0,37,test,1,1,z,Wed May 13 2026 12:49:31 GMT-0400 (Eastern Daylight Time),839407.1999999993,I,z,1184,53,1,101.bmp,-120,-120,102.bmp,120,-120,103.bmp,-120,120,104.bmp,120,120,9241.699999999255,830165.5,9081,yes,SM,A,103.bmp,-120,120,291492,285466,293509,287476,833927.0,827902.0,835944.0,829910.0,53
1,1,0,0,0,38,test,1,1,m,Wed May 13 2026 12:49:31 GMT-0400 (Eastern Daylight Time),848724.0,I,m,1261,54,1,105.bmp,-120,-120,106.bmp,120,-120,107.bmp,-120,120,108.bmp,120,120,9309.900000000373,839414.0999999996,9081,no,SM,A,107.bmp,-120,-120,291492,285466,293509,287476,843177.0,837150.0,845194.0,839160.0,54
4,0,0,0,1,39,test,1,1,z,Wed May 13 2026 12:49:31 GMT-0400 (Eastern Daylight Time),858740.6999999993,I,z,1962,55,1,109.bmp,-120,-120,110.bmp,120,-120,111.bmp,-120,120,112.bmp,120,120,10010.0,848730.6999999993,9081,yes,SM,A,112.bmp,120,120,291492,285466,293509,287476,852494.0,846467.0,854510.0,848477.0,55
2,0,1,0,0,40,test,1,1,m,Wed May 13 2026 12:49:31 GMT-0400 (Eastern Daylight Time),868373.8999999994,I,m,1568,56,1,113.bmp,-120,-120,114.bmp,120,-120,115.bmp,-120,120,116.bmp,120,120,9623.799999999814,858750.0999999996,9081,no,SM,A,113.bmp,120,-120,291492,285466,293509,287476,862510.0,856487.0,864527.0,858494.0,56
4,0,0,0,1,40,test,1,0,m,Wed May 13 2026 12:49:31 GMT-0400 (Eastern Daylight Time),878440.6999999993,I,None,2017,57,1,117.bmp,-120,-120,118.bmp,120,-120,119.bmp,-120,120,120.bmp,120,120,10060.099999999627,868380.5999999996,9081,no,SM,A,118.bmp,120,120,291492,285466,293509,287476,872143.0,866117.0,874160.0,868127.0,57
3,0,0,1,0,41,test,1,1,z,Wed May 13 2026 12:49:31 GMT-0400 (Eastern Daylight Time),887674.0,I,z,1181,58,1,121.bmp,-120,-120,122.bmp,120,-120,123.bmp,-120,120,124.bmp,120,120,9224.5,878449.5,9081,yes,SM,A,123.bmp,-120,120,291492,285466,293509,287476,882210.0,876186.0,884227.0,878194.0,58
2,0,1,0,0,42,test,1,1,m,Wed May 13 2026 12:49:31 GMT-0400 (Eastern Daylight Time),897024.0999999996,I,m,1299,59,1,125.bmp,-120,-120,126.bmp,120,-120,127.bmp,-120,120,128.bmp,120,120,9342.400000000373,887681.6999999993,9081,no,SM,A,128.bmp,120,-120,291492,285466,293509,287476,891444.0,885418.0,893460.0,887427.0,59
1,1,0,0,0,43,test,1,1,z,Wed May 13 2026 12:49:31 GMT-0400 (Eastern Daylight Time),906590.6999999993,I,z,1509,60,1,129.bmp,-120,-120,130.bmp,120,-120,131.bmp,-120,120,132.bmp,120,120,9559.199999999255,897031.5,9081,yes,SM,A,129.bmp,-120,-120,291492,285466,293509,287476,900794.0,894768.0,902810.0,896777.0,60
2,0,1,0,0,43,test,1,0,z,Wed May 13 2026 12:49:31 GMT-0400 (Eastern Daylight Time),915574.2999999998,I,m,935,61,1,133.bmp,-120,-120,134.bmp,120,-120,135.bmp,-120,120,136.bmp,120,120,8976.400000000373,906597.8999999994,9081,yes,SM,A,134.bmp,120,-120,291492,285466,293509,287476,910360.0,904334.0,912361.0,906344.0,61
4,0,0,0,1,43,test,1,0,z,Wed May 13 2026 12:49:31 GMT-0400 (Eastern Daylight Time),925157.3999999994,I,m,1519,62,1,141.bmp,-120,-120,142.bmp,120,-120,143.bmp,-120,120,144.bmp,120,120,9575.0,915582.3999999994,9081,yes,SM,A,144.bmp,120,120,291492,285466,293509,287476,919344.0,913319.0,921361.0,915327.0,62
1,1,0,0,0,43,test,1,0,m,Wed May 13 2026 12:49:31 GMT-0400 (Eastern Daylight Time),935224.2999999998,I,None,2017,63,1,145.bmp,-120,-120,146.bmp,120,-120,147.bmp,-120,120,148.bmp,120,120,10059.900000000373,925164.3999999994,9081,no,SM,A,145.bmp,-120,120,291492,285466,293509,287476,928927.0,922901.0,930943.0,924911.0,63
2,0,1,0,0,44,test,1,1,z,Wed May 13 2026 12:49:31 GMT-0400 (Eastern Daylight Time),945007.5999999996,I,z,1725,64,1,149.bmp,-120,-120,150.bmp,120,-120,112.bmp,-120,120,101.bmp,120,120,9774.5,935233.0999999996,9081,yes,SM,A,150.bmp,120,-120,291492,285466,293509,287476,938994.0,932969.0,941011.0,934977.0,64
4,0,0,0,1,45,test,1,1,m,Wed May 13 2026 12:49:31 GMT-0400 (Eastern Daylight Time),954324.1999999993,I,m,1254,65,1,102.bmp,-120,-120,103.bmp,120,-120,104.bmp,-120,120,105.bmp,120,120,9309.399999999441,945014.7999999998,9081,no,SM,A,104.bmp,120,120,291492,285466,293509,287476,948777.0,942751.0,950794.0,944760.0,65
3,0,0,1,0,46,test,1,1,m,Wed May 13 2026 12:49:31 GMT-0400 (Eastern Daylight Time),963990.8999999994,I,m,1600,66,1,106.bmp,-120,-120,107.bmp,120,-120,108.bmp,-120,120,109.bmp,120,120,9658.5,954332.3999999994,9081,no,SM,A,109.bmp,-120,120,291492,285466,293509,287476,958094.0,952069.0,960111.0,954077.0,66
2,0,1,0,0,47,test,1,1,m,Wed May 13 2026 12:49:31 GMT-0400 (Eastern Daylight Time),973291.0,I,m,1239,67,1,137.bmp,-120,-120,138.bmp,120,-120,139.bmp,-120,120,140.bmp,120,120,9292.400000000373,963998.5999999996,9081,no,SM,A,139.bmp,120,-120,291492,285466,293509,287476,967760.0,961735.0,969777.0,963744.0,67
3,0,0,1,0,47,test,1,0,z,Wed May 13 2026 12:49:31 GMT-0400 (Eastern Daylight Time),983357.5999999996,I,None,2017,68,1,110.bmp,-120,-120,111.bmp,120,-120,112.bmp,-120,120,113.bmp,120,120,10059.400000000373,973298.1999999993,9081,yes,SM,A,112.bmp,-120,120,291492,285466,293509,287476,977060.0,971034.0,979077.0,973044.0,68
1,1,0,0,0,48,test,1,1,m,Wed May 13 2026 12:49:31 GMT-0400 (Eastern Daylight Time),993040.7999999998,I,m,1624,69,1,114.bmp,-120,-120,115.bmp,120,-120,116.bmp,-120,120,117.bmp,120,120,9676.200000000186,983364.5999999996,9081,no,SM,A,115.bmp,-120,-120,291492,285466,293509,287476,987127.0,981101.0,989144.0,983111.0,69
2,0,1,0,0,49,test,1,1,m,Wed May 13 2026 12:49:31 GMT-0400 (Eastern Daylight Time),1002807.5999999996,I,m,1709,70,1,118.bmp,-120,-120,119.bmp,120,-120,120.bmp,-120,120,121.bmp,120,120,9759.900000000373,993047.6999999993,9081,no,SM,A,120.bmp,120,-120,291492,285466,293509,287476,996810.0,990784.0,998827.0,992794.0,70
4,0,0,0,1,49,test,1,0,z,Wed May 13 2026 12:49:31 GMT-0400 (Eastern Daylight Time),1012174.1999999993,I,m,1310,71,1,122.bmp,-120,-120,123.bmp,120,-120,124.bmp,-120,120,125.bmp,120,120,9360.199999999255,1002814.0,9081,yes,SM,A,125.bmp,120,120,291492,285466,293509,287476,1006577.0,1000550.0,1008594.0,1002561.0,71
1,1,0,0,0,50,test,1,1,z,Wed May 13 2026 12:49:31 GMT-0400 (Eastern Daylight Time),1021224.5999999996,I,z,999,72,1,126.bmp,-120,-120,127.bmp,120,-120,128.bmp,-120,120,129.bmp,120,120,9043.299999999814,1012181.2999999998,9081,yes,SM,A,126.bmp,-120,-120,291492,285466,293509,287476,1015944.0,1009918.0,1017961.0,1011927.0,72
2,0,1,0,0,50,test,1,0,z,Wed May 13 2026 12:49:31 GMT-0400 (Eastern Daylight Time),1031291.0,I,None,2016,73,1,130.bmp,-120,-120,131.bmp,120,-120,132.bmp,-120,120,133.bmp,120,120,10061.100000000559,1021229.8999999994,9081,yes,SM,A,131.bmp,120,-120,291492,285466,293509,287476,1024994.0,1018966.0,1027011.0,1020977.0,73
4,0,0,0,1,51,test,1,1,m,Wed May 13 2026 12:49:31 GMT-0400 (Eastern Daylight Time),1040341.0999999996,I,m,994,74,1,134.bmp,-120,-120,135.bmp,120,-120,136.bmp,-120,120,137.bmp,120,120,9044.099999999627,1031297.0,9081,no,SM,A,136.bmp,120,120,291492,285466,293509,287476,1035061.0,1029033.0,1037078.0,1031044.0,74
2,0,1,0,0,51,test,1,0,m,Wed May 13 2026 12:49:31 GMT-0400 (Eastern Daylight Time),1050191.0999999996,I,z,1792,75,1,138.bmp,-120,-120,139.bmp,120,-120,140.bmp,-120,120,141.bmp,120,120,9843.0,1040348.0999999996,9081,no,SM,A,141.bmp,120,-120,291492,285466,293509,287476,1044111.0,1038084.0,1046128.0,1040094.0,75
1,1,0,0,0,52,test,1,1,z,Wed May 13 2026 12:49:31 GMT-0400 (Eastern Daylight Time),1060174.2999999998,I,z,1926,76,1,142.bmp,-120,-120,143.bmp,120,-120,144.bmp,-120,120,145.bmp,120,120,9975.900000000373,1050198.3999999994,9081,yes,SM,A,142.bmp,-120,-120,291492,285466,293509,287476,1053961.0,1047935.0,1055978.0,1049944.0,76
3,0,0,1,0,52,test,1,0,z,Wed May 13 2026 12:49:31 GMT-0400 (Eastern Daylight Time),1070240.7999999998,I,None,2016,77,1,150.bmp,-120,-120,111.bmp,120,-120,101.bmp,-120,120,102.bmp,120,120,10057.0,1060183.7999999998,9081,yes,SM,A,101.bmp,-120,120,291492,285466,293509,287476,1063944.0,1057920.0,1065961.0,1059928.0,77
1,1,0,0,0,53,test,1,1,m,Wed May 13 2026 12:49:31 GMT-0400 (Eastern Daylight Time),1080257.6999999993,I,m,1956,78,1,146.bmp,-120,-120,147.bmp,120,-120,148.bmp,-120,120,149.bmp,120,120,10009.699999999255,1070248.0,9081,no,SM,A,147.bmp,-120,-120,291492,285466,293509,287476,1074011.0,1067984.0,1076028.0,1069994.0,78
4,0,0,0,1,54,test,1,1,m,Wed May 13 2026 12:49:31 GMT-0400 (Eastern Daylight Time),1089491.1999999993,I,m,1180,79,1,107.bmp,-120,-120,108.bmp,120,-120,109.bmp,-120,120,110.bmp,120,120,9226.399999999441,1080264.7999999998,9081,no,SM,A,107.bmp,120,120,291492,285466,293509,287476,1084027.0,1078001.0,1086044.0,1080011.0,79
3,0,0,1,0,55,test,1,1,m,Wed May 13 2026 12:49:31 GMT-0400 (Eastern Daylight Time),1099474.5,I,m,1930,80,1,103.bmp,-120,-120,104.bmp,120,-120,105.bmp,-120,120,106.bmp,120,120,9976.5,1089498.0,9081,no,SM,A,106.bmp,-120,120,291492,285466,293509,287476,1093261.0,1087234.0,1095278.0,1089244.0,80
