acc_sum,block,block_c,condition,correct,correct_response,datetime,endtime,flanker,jitter,project,response,response_test_buffer_response,response_test_target_response,response_time,response_time_test_buffer_response,response_time_test_target_response,row_sel,session_number,start_end,starttime,subject_id,target,task,task_vers,time_test_buffer,time_test_buffer_response,time_test_constants,time_test_flanker,time_test_jitter,time_test_logger,time_test_target,time_test_target_response,time_test_variables,trial
1,prac,1,con,1,m,Fri Aug 09 2024 14:02:07 GMT-0500 (Central Daylight Time),190937.00000000006,bronze,800,I,m,,,923,,,9,1,3025.8000000000466,187911.2,7007,bronze,NF,A,,,,,,,,,,1
2,prac,1,con,1,z,Fri Aug 09 2024 14:02:07 GMT-0500 (Central Daylight Time),193569.50000000006,lime,800,I,z,,,524,,,5,1,2627.0,190942.50000000006,7007,lime,NF,A,,,,,,,,,,2
3,prac,1,inc,1,z,Fri Aug 09 2024 14:02:07 GMT-0500 (Central Daylight Time),196835.2,cobalt,1100,I,z,,,863,,,4,1,3261.4000000000233,193573.8,7007,raisin,NF,A,,,,,,,,,,3
4,prac,1,con,1,m,Fri Aug 09 2024 14:02:07 GMT-0500 (Central Daylight Time),199767.50000000006,gold,800,I,m,,,827,,,13,1,2928.100000000093,196839.39999999997,7007,gold,NF,A,,,,,,,,,,4
5,prac,1,inc,1,z,Fri Aug 09 2024 14:02:07 GMT-0500 (Central Daylight Time),202583.3,copper,900,I,z,,,601,,,2,1,2811.29999999993,199772.00000000006,7007,cherry,NF,A,,,,,,,,,,5
6,prac,1,inc,1,m,Fri Aug 09 2024 14:02:07 GMT-0500 (Central Daylight Time),205399.10000000003,cherry,900,I,m,,,611,,,10,1,2811.20000000007,202587.89999999997,7007,copper,NF,A,,,,,,,,,,6
7,prac,1,inc,1,z,Fri Aug 09 2024 14:02:07 GMT-0500 (Central Daylight Time),208264.8,iron,900,I,z,,,659,,,6,1,2861.5999999999767,205403.2,7007,pear,NF,A,,,,,,,,,,7
8,prac,1,inc,1,z,Fri Aug 09 2024 14:02:07 GMT-0500 (Central Daylight Time),211313.8,lead,1100,I,z,,,649,,,8,1,3044.9000000000233,208268.89999999997,7007,plum,NF,A,,,,,,,,,,8
9,prac,1,con,1,z,Fri Aug 09 2024 14:02:07 GMT-0500 (Central Daylight Time),214129.7,kiwi,1000,I,z,,,506,,,7,1,2811.5999999999767,211318.10000000003,7007,kiwi,NF,A,,,,,,,,,,9
10,prac,1,inc,1,m,Fri Aug 09 2024 14:02:07 GMT-0500 (Central Daylight Time),216912.10000000003,pear,900,I,m,,,566,,,14,1,2777.9000000000233,214134.2,7007,iron,NF,A,,,,,,,,,,10
11,prac,1,con,1,m,Fri Aug 09 2024 14:02:07 GMT-0500 (Central Daylight Time),219877.7,zinc,1000,I,m,,,661,,,15,1,2960.5,216917.2,7007,zinc,NF,A,,,,,,,,,,11
12,prac,1,inc,1,m,Fri Aug 09 2024 14:02:07 GMT-0500 (Central Daylight Time),222876.7,plum,1100,I,m,,,587,,,16,1,2994.6999999999534,219882.00000000006,7007,lead,NF,A,,,,,,,,,,12
13,prac,1,con,1,z,Fri Aug 09 2024 14:02:07 GMT-0500 (Central Daylight Time),225676.10000000003,orange,1000,I,z,,,487,,,3,1,2793.20000000007,222882.89999999997,7007,orange,NF,A,,,,,,,,,,13
14,prac,1,inc,1,m,Fri Aug 09 2024 14:02:07 GMT-0500 (Central Daylight Time),228675.2,raisin,1100,I,m,,,597,,,12,1,2995.1999999999534,225680.00000000006,7007,cobalt,NF,A,,,,,,,,,,14
15,prac,1,con,1,z,Fri Aug 09 2024 14:02:07 GMT-0500 (Central Daylight Time),231290.89999999997,banana,800,I,z,,,507,,,1,1,2611.5999999999767,228679.3,7007,banana,NF,A,,,,,,,,,,15
16,prac,1,con,1,m,Fri Aug 09 2024 14:02:07 GMT-0500 (Central Daylight Time),234289.89999999997,silver,1000,I,m,,,699,,,11,1,2992.899999999907,231297.00000000006,7007,silver,NF,A,,,,,,,,,,16
1,test,1,inc,1,z,Fri Aug 09 2024 14:02:07 GMT-0500 (Central Daylight Time),267046.3,silver,1000,I,z,z,None,554,354.0,200.0,7,1,2095.5999999999767,264950.7,7007,banana,NF,A,261011,261011,259282,260295,259282,261377,260811,260811,261377,1
2,test,1,inc,1,z,Fri Aug 09 2024 14:02:07 GMT-0500 (Central Daylight Time),269278.89999999997,silver,1000,I,z,z,None,693,494.0,199.0,23,1,2227.899999999907,267051.00000000006,7007,orange,NF,A,263111,263111,261382,262394,261382,263610,262910,262911,263610,2
3,test,1,inc,1,m,Fri Aug 09 2024 14:02:07 GMT-0500 (Central Daylight Time),271528.50000000006,plum,1100,I,m,m,None,602,402.0,200.0,104,1,2245.20000000007,269283.3,7007,gold,NF,A,265443,265443,263614,264726,263615,265860,265243,265243,265860,3
4,test,1,con,1,z,Fri Aug 09 2024 14:02:07 GMT-0500 (Central Daylight Time),273594.39999999997,banana,1100,I,z,z,None,425,225.0,200.0,4,1,2061.899999999907,271532.50000000006,7007,banana,NF,A,267692,267692,265864,266976,265864,267925,267492,267492,267925,4
5,test,1,con,1,z,Fri Aug 09 2024 14:02:07 GMT-0500 (Central Daylight Time),275426.7,lime,800,I,z,z,None,514,299.0,215.0,33,1,1828.5,273598.2,7007,lime,NF,A,269458,269458,267929,268742,267929,269758,269243,269243,269758,5
6,test,1,inc,1,m,Fri Aug 09 2024 14:02:07 GMT-0500 (Central Daylight Time),277642.8,orange,1000,I,m,m,None,681,482.0,199.0,71,1,2212.1999999999534,275430.60000000003,7007,bronze,NF,A,271491,271491,269762,270774,269762,271974,271291,271291,271974,6
7,test,1,con,1,m,Fri Aug 09 2024 14:02:07 GMT-0500 (Central Daylight Time),279908.89999999997,lead,1100,I,m,m,None,622,422.0,200.0,124,1,2262.29999999993,277646.60000000003,7007,lead,NF,A,273807,273807,271978,273090,271978,274240,273607,273607,274240,7
8,test,1,inc,1,z,Fri Aug 09 2024 14:02:07 GMT-0500 (Central Daylight Time),282041.60000000003,silver,1000,I,z,z,None,584,384.0,200.0,15,1,2128.5,279913.10000000003,7007,cherry,NF,A,275973,275973,274244,275257,274244,276373,275773,275773,276373,8
9,test,1,inc,1,m,Fri Aug 09 2024 14:02:07 GMT-0500 (Central Daylight Time),284090.89999999997,pear,900,I,m,m,None,616,416.0,200.0,102,1,2045.2999999999302,282045.60000000003,7007,gold,NF,A,278006,278006,276377,277289,276377,278422,277806,277806,278422,9
10,test,1,con,1,m,Fri Aug 09 2024 14:02:07 GMT-0500 (Central Daylight Time),286123.3,cobalt,800,I,m,m,None,699,499.0,200.0,89,1,2028.6999999999534,284094.60000000003,7007,cobalt,NF,A,279955,279955,278426,279239,278426,280454,279755,279755,280454,10
11,test,1,inc,1,m,Fri Aug 09 2024 14:02:07 GMT-0500 (Central Daylight Time),288073.10000000003,banana,800,I,m,m,None,601,401.0,200.0,93,1,1945.5999999999767,286127.50000000006,7007,cobalt,NF,A,281988,281988,280458,281271,280459,282404,281788,281788,282404,11
12,test,1,con,1,z,Fri Aug 09 2024 14:02:07 GMT-0500 (Central Daylight Time),290138.8,kiwi,1100,I,z,z,None,432,232.0,200.0,52,1,2061.0999999999767,288077.7,7007,kiwi,NF,A,284237,284237,282409,283521,282409,284470,284037,284037,284470,12
13,test,1,con,1,m,Fri Aug 09 2024 14:02:07 GMT-0500 (Central Daylight Time),292138.50000000006,bronze,900,I,m,m,None,558,357.0,201.0,66,1,1995.7000000000698,290142.8,7007,bronze,NF,A,286104,286104,284474,285387,284474,286470,285903,285903,286470,13
14,test,1,inc,1,z,Fri Aug 09 2024 14:02:07 GMT-0500 (Central Daylight Time),294370.89999999997,lead,1100,I,z,z,None,599,400.0,199.0,48,1,2228.1999999999534,292142.7,7007,pear,NF,A,288302,288302,286474,287586,286474,288702,288103,288103,288702,14
15,test,1,inc,1,z,Fri Aug 09 2024 14:02:07 GMT-0500 (Central Daylight Time),296687.00000000006,lead,1100,I,z,z,None,671,471.0,200.0,56,1,2312.20000000007,294374.8,7007,kiwi,NF,A,290535,290535,288706,289819,288706,291018,290335,290335,291018,15
16,test,1,con,1,z,Fri Aug 09 2024 14:02:07 GMT-0500 (Central Daylight Time),298903.00000000006,pear,1000,I,z,z,None,670,470.0,200.0,43,1,2212.100000000093,296690.89999999997,7007,pear,NF,A,292751,292751,291022,292035,291022,293234,292551,292551,293234,16
17,test,1,inc,1,z,Fri Aug 09 2024 14:02:07 GMT-0500 (Central Daylight Time),301168.89999999997,cobalt,1100,I,z,z,None,618,418.0,200.0,32,1,2262.0,298906.89999999997,7007,raisin,NF,A,295067,295067,293238,294352,293238,295500,294867,294867,295500,17
18,test,1,con,1,z,Fri Aug 09 2024 14:02:07 GMT-0500 (Central Daylight Time),303134.89999999997,banana,900,I,z,z,None,520,320.0,200.0,2,1,1961.8999999999069,301173.00000000006,7007,banana,NF,A,297133,297133,295504,296417,295504,297466,296933,296933,297466,18
19,test,1,inc,1,m,Fri Aug 09 2024 14:02:07 GMT-0500 (Central Daylight Time),305184.3,pear,900,I,m,m,None,611,411.0,200.0,126,1,2045.5999999999767,303138.7,7007,lead,NF,A,299099,299099,297470,298383,297470,299515,298899,298899,299515,19
20,test,1,inc,1,m,Fri Aug 09 2024 14:02:07 GMT-0500 (Central Daylight Time),307467.00000000006,cherry,900,I,m,m,None,775,575.0,200.0,86,1,2278.9000000000233,305188.10000000003,7007,silver,NF,A,301215,301215,299519,300510,299519,301798,301015,301015,301798,20
21,test,1,inc,1,z,Fri Aug 09 2024 14:02:07 GMT-0500 (Central Daylight Time),309766.39999999997,iron,900,I,z,z,None,854,654.0,200.0,38,1,2295.5,307470.89999999997,7007,lime,NF,A,303431,303431,301802,302715,301802,304097,303231,303231,304097,21
22,test,1,con,1,m,Fri Aug 09 2024 14:02:07 GMT-0500 (Central Daylight Time),311815.39999999997,bronze,1000,I,m,m,None,512,312.0,200.0,67,1,2043.0999999999767,309772.3,7007,bronze,NF,A,305830,305830,304103,305114,304104,306147,305630,305630,306146,22
23,test,1,inc,1,z,Fri Aug 09 2024 14:02:07 GMT-0500 (Central Daylight Time),313898.10000000003,iron,900,I,z,z,None,632,433.0,199.0,46,1,2078.0999999999767,311820.00000000006,7007,pear,NF,A,307780,307780,306151,307064,306151,308229,307580,307580,308229,23
24,test,1,con,1,z,Fri Aug 09 2024 14:02:07 GMT-0500 (Central Daylight Time),315864.50000000006,orange,1000,I,z,z,None,418,219.0,199.0,19,1,1962.3000000000466,313902.2,7007,orange,NF,A,309963,309963,308233,309246,308234,310196,309763,309763,310196,24
25,test,1,con,1,m,Fri Aug 09 2024 14:02:07 GMT-0500 (Central Daylight Time),317846.89999999997,cobalt,900,I,m,m,None,545,345.0,200.0,90,1,1978.2999999999302,315868.60000000003,7007,cobalt,NF,A,311829,311829,310200,311112,310200,312178,311628,311628,312178,25
26,test,1,con,1,z,Fri Aug 09 2024 14:02:07 GMT-0500 (Central Daylight Time),319779.89999999997,kiwi,900,I,z,z,None,490,289.0,201.0,50,1,1928.8999999999069,317851.00000000006,7007,kiwi,NF,A,313812,313812,312182,313096,312182,314111,313611,313611,314111,26
27,test,1,con,1,m,Fri Aug 09 2024 14:02:07 GMT-0500 (Central Daylight Time),321995.60000000003,zinc,1100,I,m,m,None,572,372.0,200.0,116,1,2211.70000000007,319783.89999999997,7007,zinc,NF,A,315945,315945,314115,315227,314115,316327,315744,315744,316327,27
28,test,1,con,1,m,Fri Aug 09 2024 14:02:07 GMT-0500 (Central Daylight Time),324128.39999999997,lead,1000,I,m,m,None,584,385.0,199.0,123,1,2128.79999999993,321999.60000000003,7007,lead,NF,A,318060,318060,316331,317343,316331,318459,317860,317860,318459,28
29,test,1,con,1,m,Fri Aug 09 2024 14:02:07 GMT-0500 (Central Daylight Time),326044.3,iron,900,I,m,m,None,479,280.0,199.0,106,1,1912.2999999999302,324132.00000000006,7007,iron,NF,A,320092,320093,318463,319376,318463,320375,319893,319893,320375,29
30,test,1,con,1,m,Fri Aug 09 2024 14:02:07 GMT-0500 (Central Daylight Time),327960.50000000006,lead,900,I,m,m,None,477,278.0,199.0,122,1,1912.4000000000233,326048.10000000003,7007,lead,NF,A,322008,322008,320379,321292,320379,322292,321809,321809,322292,30
31,test,1,inc,1,z,Fri Aug 09 2024 14:02:07 GMT-0500 (Central Daylight Time),329926.7,copper,900,I,z,z,None,519,176.0,343.0,6,1,1962.4000000000233,327964.3,7007,banana,NF,A,324069,324069,322295,323209,322295,324258,323725,323725,324258,31
32,test,1,con,1,z,Fri Aug 09 2024 14:02:07 GMT-0500 (Central Daylight Time),332142.50000000006,raisin,1100,I,z,z,None,570,371.0,199.0,28,1,2212.0,329930.50000000006,7007,raisin,NF,A,326090,326090,324262,325374,324262,326474,325891,325891,326474,32
33,test,1,inc,1,z,Fri Aug 09 2024 14:02:07 GMT-0500 (Central Daylight Time),334041.89999999997,bronze,800,I,z,z,None,558,358.0,200.0,21,1,1895.5999999999767,332146.3,7007,orange,NF,A,328007,328007,326477,327290,326478,328373,327807,327807,328373,33
34,test,1,inc,1,m,Fri Aug 09 2024 14:02:07 GMT-0500 (Central Daylight Time),336107.89999999997,pear,900,I,m,m,None,631,431.0,200.0,118,1,2062.29999999993,334045.60000000003,7007,zinc,NF,A,330006,330006,328377,329290,328377,330439,329806,329806,330439,34
34,test,1,con,0,m,Fri Aug 09 2024 14:02:07 GMT-0500 (Central Daylight Time),338124.00000000006,silver,900,I,z,z,None,582,382.0,200.0,82,1,2012.2000000000698,336111.8,7007,silver,NF,A,332072,332072,330443,331356,330443,332455,331872,331872,332455,35
35,test,1,inc,1,m,Fri Aug 09 2024 14:02:07 GMT-0500 (Central Daylight Time),340256.60000000003,kiwi,1000,I,m,m,None,585,385.0,200.0,119,1,2128.9000000000233,338127.7,7007,zinc,NF,A,334188,334188,332459,333473,332459,334588,333988,333988,334588,36
36,test,1,con,1,z,Fri Aug 09 2024 14:02:07 GMT-0500 (Central Daylight Time),342322.50000000006,cherry,1000,I,z,z,None,523,324.0,199.0,11,1,2061.8000000000466,340260.7,7007,cherry,NF,A,336321,336321,334592,335604,334592,336654,336121,336121,336653,37
37,test,1,inc,1,z,Fri Aug 09 2024 14:02:07 GMT-0500 (Central Daylight Time),344305.39999999997,gold,800,I,z,z,None,641,442.0,199.0,53,1,1978.8999999999069,342326.50000000006,7007,kiwi,NF,A,338187,338187,336658,337470,336658,338636,337987,337987,338636,38
38,test,1,inc,1,m,Fri Aug 09 2024 14:02:07 GMT-0500 (Central Daylight Time),346421.3,cherry,900,I,m,m,None,680,481.0,199.0,78,1,2112.0999999999767,344309.2,7007,copper,NF,A,340269,340269,338640,339553,338641,340752,340070,340070,340752,39
39,test,1,con,1,m,Fri Aug 09 2024 14:02:07 GMT-0500 (Central Daylight Time),348387.39999999997,copper,800,I,m,m,None,623,423.0,200.0,73,1,1962.0999999999767,346425.3,7007,copper,NF,A,342286,342286,340756,341569,340757,342718,342085,342085,342718,40
40,test,1,inc,1,m,Fri Aug 09 2024 14:02:07 GMT-0500 (Central Daylight Time),350503.50000000006,orange,1000,I,m,m,None,578,378.0,200.0,79,1,2112.600000000093,348390.89999999997,7007,copper,NF,A,344452,344452,342722,343735,342722,344835,344251,344251,344835,41
41,test,1,con,1,z,Fri Aug 09 2024 14:02:07 GMT-0500 (Central Daylight Time),352702.7,cherry,1100,I,z,z,None,561,362.0,199.0,12,1,2195.3000000000466,350507.39999999997,7007,cherry,NF,A,346668,346668,344838,345951,344839,347034,346468,346468,347034,42
42,test,1,con,1,m,Fri Aug 09 2024 14:02:07 GMT-0500 (Central Daylight Time),354802.3,gold,900,I,m,m,None,649,450.0,199.0,98,1,2095.79999999993,352706.50000000006,7007,gold,NF,A,348667,348667,347038,347950,347038,349133,348467,348467,349133,43
43,test,1,inc,1,m,Fri Aug 09 2024 14:02:07 GMT-0500 (Central Daylight Time),356734.8,lime,800,I,m,m,None,588,388.0,200.0,109,1,1928.6999999999534,354806.10000000003,7007,iron,NF,A,350666,350666,349137,349950,349137,351066,350466,350466,351066,44
44,test,1,con,1,z,Fri Aug 09 2024 14:02:07 GMT-0500 (Central Daylight Time),358517.60000000003,plum,800,I,z,z,None,439,239.0,200.0,57,1,1779.0999999999767,356738.50000000006,7007,plum,NF,A,352599,352599,351070,351883,351070,352849,352399,352399,352849,45
45,test,1,inc,1,m,Fri Aug 09 2024 14:02:07 GMT-0500 (Central Daylight Time),360483.7,cherry,900,I,m,m,None,523,324.0,199.0,94,1,1962.1999999999534,358521.50000000006,7007,cobalt,NF,A,354482,354482,352853,353765,352853,354815,354282,354282,354815,46
46,test,1,inc,1,z,Fri Aug 09 2024 14:02:07 GMT-0500 (Central Daylight Time),362383.10000000003,bronze,800,I,z,z,None,561,361.0,200.0,5,1,1895.5,360487.60000000003,7007,banana,NF,A,356348,356348,354819,355631,354819,356714,356148,356148,356714,47
47,test,1,inc,1,m,Fri Aug 09 2024 14:02:07 GMT-0500 (Central Daylight Time),364632.3,plum,1100,I,m,m,None,601,402.0,199.0,112,1,2245.4000000000233,362386.89999999997,7007,iron,NF,A,358547,358547,356718,357830,356718,358963,358348,358348,358963,48
48,test,1,con,1,m,Fri Aug 09 2024 14:02:07 GMT-0500 (Central Daylight Time),366631.60000000003,bronze,800,I,m,m,None,653,453.0,200.0,65,1,1995.5999999999767,364636.00000000006,7007,bronze,NF,A,360496,360496,358967,359780,358967,360963,360296,360296,360963,49
49,test,1,inc,1,m,Fri Aug 09 2024 14:02:07 GMT-0500 (Central Daylight Time),368764.50000000006,orange,1000,I,m,m,None,590,390.0,200.0,95,1,2129.100000000093,366635.39999999997,7007,cobalt,NF,A,362696,362696,360966,361979,360967,363096,362496,362496,363096,50
50,test,1,inc,1,m,Fri Aug 09 2024 14:02:07 GMT-0500 (Central Daylight Time),370713.7,banana,800,I,m,m,None,600,401.0,199.0,77,1,1945.4000000000233,368768.3,7007,copper,NF,A,364628,364628,363099,363912,363100,365045,364428,364429,365045,51
51,test,1,con,1,z,Fri Aug 09 2024 14:02:07 GMT-0500 (Central Daylight Time),372596.39999999997,kiwi,800,I,z,z,None,539,339.0,200.0,49,1,1879.1999999999534,370717.2,7007,kiwi,NF,A,366578,366578,365048,365861,365048,366927,366378,366378,366927,52
52,test,1,inc,1,z,Fri Aug 09 2024 14:02:07 GMT-0500 (Central Daylight Time),374795.8,cobalt,1100,I,z,z,None,555,340.0,215.0,24,1,2195.6999999999534,372600.10000000003,7007,orange,NF,A,368777,368777,366931,368044,366931,369127,368562,368562,369127,53
53,test,1,con,1,z,Fri Aug 09 2024 14:02:07 GMT-0500 (Central Daylight Time),377111.7,lime,1000,I,z,z,None,768,455.0,313.0,35,1,2311.8000000000466,374799.89999999997,7007,lime,NF,A,370974,370974,369131,370143,369131,371443,370660,370660,371443,54
54,test,1,inc,1,m,Fri Aug 09 2024 14:02:07 GMT-0500 (Central Daylight Time),379344.39999999997,raisin,1100,I,m,m,None,593,394.0,199.0,96,1,2228.5999999999767,377115.8,7007,cobalt,NF,A,373276,373276,371447,372559,371447,373675,373076,373076,373675,55
55,test,1,inc,1,m,Fri Aug 09 2024 14:02:07 GMT-0500 (Central Daylight Time),381776.8,raisin,1100,I,m,m,None,785,585.0,200.0,88,1,2428.5,379348.3,7007,silver,NF,A,375508,375508,373679,374792,373680,376108,375308,375308,376108,56
56,test,1,inc,1,z,Fri Aug 09 2024 14:02:07 GMT-0500 (Central Daylight Time),384159.3,lead,1100,I,z,z,None,736,536.0,200.0,40,1,2378.5999999999767,381780.7,7007,lime,NF,A,377941,377941,376112,377225,376112,378490,377741,377741,378490,57
57,test,1,con,1,m,Fri Aug 09 2024 14:02:07 GMT-0500 (Central Daylight Time),386059.10000000003,silver,800,I,m,m,None,556,357.0,199.0,81,1,1895.9000000000233,384163.2,7007,silver,NF,A,380024,380024,378494,379307,378494,380390,379824,379824,380390,58
58,test,1,inc,1,z,Fri Aug 09 2024 14:02:07 GMT-0500 (Central Daylight Time),388224.89999999997,copper,900,I,z,z,None,718,518.0,200.0,14,1,2162.0,386062.89999999997,7007,cherry,NF,A,382023,382023,380394,381307,380394,382556,381823,381823,382556,59
59,test,1,inc,1,z,Fri Aug 09 2024 14:02:07 GMT-0500 (Central Daylight Time),390257.50000000006,copper,900,I,z,z,None,584,384.0,200.0,30,1,2028.8000000000466,388228.7,7007,raisin,NF,A,384189,384189,382560,383473,382560,384589,383989,383989,384589,60
60,test,1,con,1,m,Fri Aug 09 2024 14:02:07 GMT-0500 (Central Daylight Time),392406.7,iron,1000,I,m,m,None,610,411.0,199.0,107,1,2145.4000000000233,390261.3,7007,iron,NF,A,386322,386322,384592,385605,384593,386738,386122,386122,386738,61
61,test,1,inc,1,z,Fri Aug 09 2024 14:02:07 GMT-0500 (Central Daylight Time),394523.10000000003,copper,900,I,z,z,None,675,475.0,200.0,22,1,2112.3000000000466,392410.8,7007,orange,NF,A,388371,388371,386742,387655,386742,388854,388171,388171,388854,62
62,test,1,con,1,m,Fri Aug 09 2024 14:02:07 GMT-0500 (Central Daylight Time),396655.50000000006,copper,1000,I,m,m,None,585,386.0,199.0,75,1,2128.5,394527.00000000006,7007,copper,NF,A,390587,390587,388858,389871,388858,390987,390387,390387,390987,63
63,test,1,inc,1,z,Fri Aug 09 2024 14:02:07 GMT-0500 (Central Daylight Time),398655.00000000006,gold,800,I,z,z,None,661,462.0,199.0,37,1,1995.6000000000931,396659.39999999997,7007,lime,NF,A,392520,392520,390990,391803,390991,392986,392320,392320,392986,64
64,test,1,inc,1,z,Fri Aug 09 2024 14:02:07 GMT-0500 (Central Daylight Time),400588.00000000006,bronze,800,I,z,z,None,591,280.0,311.0,29,1,1929.2000000000698,398658.8,7007,raisin,NF,A,394630,394630,392990,393803,392990,394919,394319,394319,394919,65
65,test,1,inc,1,z,Fri Aug 09 2024 14:02:07 GMT-0500 (Central Daylight Time),402787.00000000006,zinc,1000,I,z,z,None,649,450.0,199.0,63,1,2195.3000000000466,400591.7,7007,plum,NF,A,396652,396652,394923,395935,394923,397118,396452,396452,397118,66
66,test,1,inc,1,z,Fri Aug 09 2024 14:02:07 GMT-0500 (Central Daylight Time),404986.50000000006,zinc,1000,I,z,z,None,650,450.0,200.0,47,1,2195.9000000000233,402790.60000000003,7007,pear,NF,A,398851,398851,397122,398134,397122,399318,398651,398651,399317,67
67,test,1,con,1,m,Fri Aug 09 2024 14:02:07 GMT-0500 (Central Daylight Time),407268.8,silver,1100,I,m,m,None,647,448.0,199.0,84,1,2278.4000000000233,404990.39999999997,7007,silver,NF,A,401150,401150,399321,400434,399322,401600,400951,400951,401600,68
68,test,1,inc,1,z,Fri Aug 09 2024 14:02:07 GMT-0500 (Central Daylight Time),409484.89999999997,cobalt,1100,I,z,z,None,597,398.0,199.0,8,1,2212.0,407272.89999999997,7007,banana,NF,A,403416,403416,401604,402716,401604,403816,403217,403217,403816,69
69,test,1,con,1,m,Fri Aug 09 2024 14:02:07 GMT-0500 (Central Daylight Time),411767.7,bronze,1100,I,m,m,None,644,444.0,200.0,68,1,2279.0999999999767,409488.60000000003,7007,bronze,NF,A,405649,405649,403820,404932,403820,406099,405449,405449,406099,70
70,test,1,con,1,m,Fri Aug 09 2024 14:02:07 GMT-0500 (Central Daylight Time),414033.50000000006,cobalt,1000,I,m,m,None,716,517.0,199.0,91,1,2262.3000000000466,411771.2,7007,cobalt,NF,A,407832,407832,406102,407115,406102,408365,407632,407632,408365,71
71,test,1,inc,1,m,Fri Aug 09 2024 14:02:07 GMT-0500 (Central Daylight Time),416082.7,lime,800,I,m,m,None,714,515.0,199.0,117,1,2045.4000000000233,414037.3,7007,zinc,NF,A,409898,409898,408368,409181,408369,410414,409698,409698,410414,72
72,test,1,con,1,z,Fri Aug 09 2024 14:02:07 GMT-0500 (Central Daylight Time),418115.60000000003,orange,900,I,z,z,None,590,390.0,200.0,18,1,2029.2000000000698,416086.39999999997,7007,orange,NF,A,412047,412047,410417,411332,410418,412447,411847,411847,412447,73
73,test,1,con,1,z,Fri Aug 09 2024 14:02:07 GMT-0500 (Central Daylight Time),420414.8,pear,1100,I,z,z,None,661,462.0,199.0,44,1,2295.29999999993,418119.50000000006,7007,pear,NF,A,414280,414280,412451,413563,412451,414746,414080,414080,414746,74
74,test,1,inc,1,m,Fri Aug 09 2024 14:02:07 GMT-0500 (Central Daylight Time),422414.10000000003,lime,800,I,m,m,None,655,455.0,200.0,101,1,1995.3000000000466,420418.8,7007,gold,NF,A,416279,416279,414750,415563,414750,416745,416079,416079,416745,75
75,test,1,con,1,m,Fri Aug 09 2024 14:02:07 GMT-0500 (Central Daylight Time),424746.7,iron,1100,I,m,m,None,699,499.0,200.0,108,1,2329.0,422417.7,7007,iron,NF,A,418578,418578,416749,417862,416749,419078,418378,418378,419078,76
76,test,1,con,1,m,Fri Aug 09 2024 14:02:07 GMT-0500 (Central Daylight Time),426746.10000000003,copper,900,I,m,m,None,559,359.0,200.0,74,1,1995.8000000000466,424750.3,7007,copper,NF,A,420711,420711,419081,419994,419082,421077,420511,420511,421077,77
77,test,1,inc,1,m,Fri Aug 09 2024 14:02:07 GMT-0500 (Central Daylight Time),428928.7,plum,1100,I,m,m,None,542,343.0,199.0,120,1,2178.8000000000466,426749.89999999997,7007,zinc,NF,A,422910,422910,421081,422194,421081,423260,422711,422711,423260,78
78,test,1,inc,1,z,Fri Aug 09 2024 14:02:07 GMT-0500 (Central Daylight Time),431178.00000000006,lead,1100,I,z,z,None,600,400.0,200.0,64,1,2245.3000000000466,428932.7,7007,plum,NF,A,425093,425093,423264,424376,423264,425509,424893,424893,425509,79
79,test,1,inc,1,z,Fri Aug 09 2024 14:02:07 GMT-0500 (Central Daylight Time),433377.2,cobalt,1100,I,z,z,None,558,359.0,199.0,16,1,2195.3000000000466,431181.89999999997,7007,cherry,NF,A,427342,427342,425513,426626,425513,427708,427142,427142,427708,80
80,test,1,con,1,m,Fri Aug 09 2024 14:02:07 GMT-0500 (Central Daylight Time),435593.39999999997,gold,1100,I,m,m,None,567,368.0,199.0,100,1,2212.1999999999534,433381.2,7007,gold,NF,A,429541,429541,427712,428825,427712,429924,429342,429342,429924,81
81,test,1,inc,1,m,Fri Aug 09 2024 14:02:07 GMT-0500 (Central Daylight Time),437892.60000000003,kiwi,1000,I,m,m,None,763,563.0,200.0,111,1,2295.5999999999767,435597.00000000006,7007,iron,NF,A,431657,431658,429928,430941,429928,432224,431457,431457,432224,82
82,test,1,inc,1,m,Fri Aug 09 2024 14:02:07 GMT-0500 (Central Daylight Time),439891.89999999997,banana,800,I,m,m,None,657,457.0,200.0,69,1,1995.5999999999767,437896.3,7007,bronze,NF,A,433757,433757,432227,433040,432228,434223,433557,433557,434223,83
83,test,1,inc,1,z,Fri Aug 09 2024 14:02:07 GMT-0500 (Central Daylight Time),442058.00000000006,zinc,1000,I,z,z,None,617,417.0,200.0,39,1,2162.100000000093,439895.89999999997,7007,lime,NF,A,435956,435956,434227,435239,434227,436389,435756,435756,436389,84
84,test,1,con,1,m,Fri Aug 09 2024 14:02:07 GMT-0500 (Central Daylight Time),443957.50000000006,gold,800,I,m,m,None,555,355.0,200.0,97,1,1895.4000000000233,442062.10000000003,7007,gold,NF,A,437922,437922,436393,437205,436393,438289,437722,437722,438289,85
85,test,1,con,1,z,Fri Aug 09 2024 14:02:07 GMT-0500 (Central Daylight Time),446223.39999999997,lime,1100,I,z,z,None,628,428.0,200.0,36,1,2262.29999999993,443961.10000000003,7007,lime,NF,A,440122,440122,438292,439405,438292,440555,439921,439921,440554,86
86,test,1,inc,1,z,Fri Aug 09 2024 14:02:07 GMT-0500 (Central Daylight Time),448522.7,silver,1000,I,z,z,None,658,458.0,200.0,31,1,2295.5999999999767,446227.10000000003,7007,raisin,NF,A,442387,442387,440558,441678,440558,442854,442187,442187,442854,87
87,test,1,con,1,z,Fri Aug 09 2024 14:02:07 GMT-0500 (Central Daylight Time),450522.10000000003,orange,800,I,z,z,None,659,459.0,200.0,17,1,1995.8000000000466,448526.3,7007,orange,NF,A,444387,444387,442857,443670,442858,444853,444187,444187,444853,88
88,test,1,con,1,z,Fri Aug 09 2024 14:02:07 GMT-0500 (Central Daylight Time),452638.00000000006,raisin,900,I,z,z,None,672,472.0,200.0,26,1,2112.20000000007,450525.8,7007,raisin,NF,A,446486,446486,444857,445770,444857,446969,446286,446286,446969,89
89,test,1,con,1,z,Fri Aug 09 2024 14:02:07 GMT-0500 (Central Daylight Time),454637.10000000003,cherry,900,I,z,z,None,564,364.0,200.0,10,1,1995.5,452641.60000000003,7007,cherry,NF,A,448602,448602,446973,447886,446973,448968,448402,448402,448968,90
90,test,1,inc,1,m,Fri Aug 09 2024 14:02:07 GMT-0500 (Central Daylight Time),456986.3,raisin,1100,I,m,m,None,706,507.0,199.0,72,1,2345.5999999999767,454640.7,7007,bronze,NF,A,450802,450802,448972,450085,448972,451317,450602,450602,451317,91
91,test,1,inc,1,z,Fri Aug 09 2024 14:02:07 GMT-0500 (Central Daylight Time),459152.7,zinc,1000,I,z,z,None,627,427.0,200.0,55,1,2162.5,456990.2,7007,kiwi,NF,A,453051,453051,451321,452334,451321,453484,452851,452851,453484,92
92,test,1,inc,1,m,Fri Aug 09 2024 14:02:07 GMT-0500 (Central Daylight Time),461068.60000000003,banana,800,I,m,m,None,573,373.0,200.0,85,1,1912.3000000000466,459156.3,7007,silver,NF,A,455017,455017,453487,454300,453488,455400,454817,454817,455400,93
93,test,1,con,1,z,Fri Aug 09 2024 14:02:07 GMT-0500 (Central Daylight Time),463168.2,kiwi,1000,I,z,z,None,551,352.0,199.0,51,1,2095.9000000000233,461072.3,7007,kiwi,NF,A,457133,457133,455403,456416,455404,457499,456933,456933,457499,94
94,test,1,con,1,z,Fri Aug 09 2024 14:02:07 GMT-0500 (Central Daylight Time),465400.50000000006,orange,1100,I,z,z,None,585,385.0,200.0,20,1,2228.9000000000233,463171.60000000003,7007,orange,NF,A,459332,459332,457503,458616,457503,459732,459132,459132,459732,95
95,test,1,con,1,m,Fri Aug 09 2024 14:02:07 GMT-0500 (Central Daylight Time),467350.00000000006,iron,800,I,m,m,None,605,405.0,200.0,105,1,1945.7000000000698,465404.3,7007,iron,NF,A,461265,461265,459735,460548,459736,461681,461065,461065,461681,96
96,test,1,inc,1,m,Fri Aug 09 2024 14:02:07 GMT-0500 (Central Daylight Time),469449.39999999997,cherry,900,I,m,m,None,660,460.0,200.0,70,1,2095.899999999907,467353.50000000006,7007,bronze,NF,A,463314,463314,461685,462598,461685,463780,463114,463114,463780,97
97,test,1,inc,1,m,Fri Aug 09 2024 14:02:07 GMT-0500 (Central Daylight Time),471665.50000000006,kiwi,1000,I,m,m,None,676,476.0,200.0,127,1,2212.5,469453.00000000006,7007,lead,NF,A,465513,465514,463784,464797,463784,465997,465313,465313,465997,98
98,test,1,inc,1,m,Fri Aug 09 2024 14:02:07 GMT-0500 (Central Daylight Time),473481.7,lime,800,I,m,m,None,466,267.0,199.0,125,1,1812.3000000000466,471669.39999999997,7007,lead,NF,A,467530,467530,466000,466813,466001,467813,467330,467330,467813,99
99,test,1,inc,1,z,Fri Aug 09 2024 14:02:07 GMT-0500 (Central Daylight Time),475564.10000000003,iron,900,I,z,z,None,648,448.0,200.0,62,1,2078.5999999999767,473485.50000000006,7007,plum,NF,A,469446,469446,467817,468729,467817,469895,469245,469245,469895,100
100,test,1,con,1,z,Fri Aug 09 2024 14:02:07 GMT-0500 (Central Daylight Time),477430.3,banana,800,I,z,z,None,521,321.0,200.0,1,1,1862.9000000000233,475567.39999999997,7007,banana,NF,A,471428,471428,469898,470712,469899,471761,471228,471228,471761,101
101,test,1,inc,1,z,Fri Aug 09 2024 14:02:07 GMT-0500 (Central Daylight Time),479329.60000000003,gold,800,I,z,z,None,558,359.0,199.0,61,1,1895.7000000000698,477433.89999999997,7007,plum,NF,A,473294,473294,471765,472578,471765,473661,473095,473095,473661,102
102,test,1,con,1,m,Fri Aug 09 2024 14:02:07 GMT-0500 (Central Daylight Time),481362.3,zinc,900,I,m,m,None,591,391.0,200.0,114,1,2028.9000000000233,479333.39999999997,7007,zinc,NF,A,475294,475294,473664,474577,473665,475693,475094,475094,475693,103
103,test,1,con,1,m,Fri Aug 09 2024 14:02:07 GMT-0500 (Central Daylight Time),483528.50000000006,zinc,1000,I,m,m,None,619,420.0,199.0,115,1,2162.4000000000233,481366.10000000003,7007,zinc,NF,A,477426,477426,475697,476710,475697,477860,477227,477227,477860,104
104,test,1,con,1,m,Fri Aug 09 2024 14:02:07 GMT-0500 (Central Daylight Time),485777.60000000003,gold,1000,I,m,m,None,716,501.0,215.0,99,1,2245.4000000000233,483532.2,7007,gold,NF,A,479592,479592,477863,478876,477863,480109,479377,479377,480109,105
105,test,1,inc,1,m,Fri Aug 09 2024 14:02:07 GMT-0500 (Central Daylight Time),488010.3,plum,1100,I,m,m,None,582,383.0,199.0,128,1,2229.0,485781.3,7007,lead,NF,A,481942,481942,480112,481225,480113,482341,481742,481742,482341,106
106,test,1,con,1,z,Fri Aug 09 2024 14:02:07 GMT-0500 (Central Daylight Time),490009.8,banana,1000,I,z,z,None,452,252.0,200.0,3,1,1995.5999999999767,488014.2,7007,banana,NF,A,484074,484074,482345,483358,482345,484341,483874,483874,484341,107
107,test,1,con,1,m,Fri Aug 09 2024 14:02:07 GMT-0500 (Central Daylight Time),492158.89999999997,cobalt,1100,I,m,m,None,510,311.0,199.0,92,1,2145.0999999999767,490013.8,7007,cobalt,NF,A,486174,486174,484345,485457,484345,486490,485974,485974,486490,108
108,test,1,con,1,m,Fri Aug 09 2024 14:02:07 GMT-0500 (Central Daylight Time),494438.39999999997,copper,1100,I,m,m,None,646,446.0,200.0,76,1,2275.5,492162.89999999997,7007,copper,NF,A,488323,488323,486494,487606,486494,488769,488123,488123,488769,109
109,test,1,inc,1,m,Fri Aug 09 2024 14:02:07 GMT-0500 (Central Daylight Time),496523.89999999997,kiwi,1000,I,m,m,None,548,348.0,200.0,103,1,2081.29999999993,494442.60000000003,7007,gold,NF,A,490506,490506,488774,489789,488774,490855,490306,490306,490855,110
110,test,1,con,1,z,Fri Aug 09 2024 14:02:07 GMT-0500 (Central Daylight Time),498590.2,plum,1100,I,z,z,None,421,221.0,200.0,60,1,2062.4000000000233,496527.8,7007,plum,NF,A,492688,492688,490859,491972,490859,492921,492488,492488,492921,111
111,test,1,con,1,z,Fri Aug 09 2024 14:02:07 GMT-0500 (Central Daylight Time),500772.8,lime,900,I,z,z,None,748,548.0,200.0,34,1,2178.79999999993,498594.00000000006,7007,lime,NF,A,494554,494554,492925,493838,492925,495104,494354,494354,495104,112
112,test,1,con,1,z,Fri Aug 09 2024 14:02:07 GMT-0500 (Central Daylight Time),502805.39999999997,raisin,1000,I,z,z,None,487,288.0,199.0,27,1,2029.0999999999767,500776.3,7007,raisin,NF,A,496837,496837,495107,496121,495108,497136,496637,496637,497136,113
113,test,1,con,1,z,Fri Aug 09 2024 14:02:07 GMT-0500 (Central Daylight Time),504621.39999999997,cherry,800,I,z,z,None,479,280.0,199.0,9,1,1811.7999999999302,502809.60000000003,7007,cherry,NF,A,498669,498669,497141,497953,497141,498952,498470,498470,498952,114
114,test,1,con,1,z,Fri Aug 09 2024 14:02:07 GMT-0500 (Central Daylight Time),506670.89999999997,pear,900,I,z,z,None,612,412.0,200.0,42,1,2045.1999999999534,504625.7,7007,pear,NF,A,500586,500586,498957,499869,498957,501002,500386,500386,501002,115
115,test,1,con,1,m,Fri Aug 09 2024 14:02:07 GMT-0500 (Central Daylight Time),508670.39999999997,zinc,800,I,m,m,None,655,455.0,200.0,113,1,1995.8999999999069,506674.50000000006,7007,zinc,NF,A,502535,502535,501006,501819,501006,503001,502335,502335,503001,116
116,test,1,inc,1,m,Fri Aug 09 2024 14:02:07 GMT-0500 (Central Daylight Time),510653.2,pear,900,I,m,m,None,539,340.0,199.0,110,1,1979.0,508674.2,7007,iron,NF,A,504634,504634,503005,503918,503005,504984,504435,504435,504984,117
117,test,1,con,1,z,Fri Aug 09 2024 14:02:07 GMT-0500 (Central Daylight Time),512852.10000000003,plum,900,I,z,z,None,764,564.0,200.0,58,1,2195.20000000007,510656.89999999997,7007,plum,NF,A,506617,506617,504988,505901,504988,507183,506417,506417,507183,118
118,test,1,con,1,m,Fri Aug 09 2024 14:02:07 GMT-0500 (Central Daylight Time),514868.39999999997,lead,800,I,m,m,None,673,473.0,200.0,121,1,2012.0,512856.39999999997,7007,lead,NF,A,508716,508716,507187,508000,507188,509199,508516,508516,509199,119
119,test,1,inc,1,m,Fri Aug 09 2024 14:02:07 GMT-0500 (Central Daylight Time),516967.60000000003,orange,1000,I,m,m,None,577,362.0,215.0,87,1,2095.5999999999767,514872.00000000006,7007,silver,NF,A,510932,510932,509203,510216,509203,511299,510717,510717,511299,120
120,test,1,con,1,z,Fri Aug 09 2024 14:02:07 GMT-0500 (Central Daylight Time),518951.7,pear,800,I,z,z,None,627,428.0,199.0,41,1,1980.4000000000233,516971.3,7007,pear,NF,A,512849,512849,511302,512143,511302,513283,512649,512649,513283,121
121,test,1,inc,1,z,Fri Aug 09 2024 14:02:07 GMT-0500 (Central Daylight Time),520900.2,gold,800,I,z,z,None,606,407.0,199.0,45,1,1944.8000000000466,518955.39999999997,7007,pear,NF,A,514815,514815,513286,514100,513287,515231,514615,514615,515231,122
122,test,1,con,1,z,Fri Aug 09 2024 14:02:07 GMT-0500 (Central Daylight Time),522815.8,raisin,800,I,z,z,None,569,369.0,200.0,25,1,1912.0,520903.8,7007,raisin,NF,A,516764,516764,515235,516048,515235,517147,516564,516564,517147,123
123,test,1,con,1,z,Fri Aug 09 2024 14:02:07 GMT-0500 (Central Daylight Time),524965.3999999999,plum,1000,I,z,z,None,605,405.0,200.0,59,1,2145.799999999872,522819.60000000003,7007,plum,NF,A,518880,518880,517151,518163,517151,519296,518680,518680,519296,124
124,test,1,inc,1,z,Fri Aug 09 2024 14:02:07 GMT-0500 (Central Daylight Time),526864.6000000001,bronze,800,I,z,z,None,560,360.0,200.0,13,1,1895.7000000001863,524968.8999999999,7007,cherry,NF,A,520830,520830,519300,520113,519300,521196,520629,520629,521196,125
125,test,1,inc,1,z,Fri Aug 09 2024 14:02:07 GMT-0500 (Central Daylight Time),528897.7,iron,900,I,z,z,None,584,384.0,200.0,54,1,2029.5999999998603,526868.1000000001,7007,kiwi,NF,A,522829,522829,521199,522112,521199,523229,522629,522629,523229,126
126,test,1,inc,1,m,Fri Aug 09 2024 14:02:07 GMT-0500 (Central Daylight Time),531079.8999999999,raisin,1100,I,m,m,None,544,345.0,199.0,80,1,2178.5,528901.3999999999,7007,copper,NF,A,525061,525061,523232,524345,523233,525411,524862,524862,525411,127
127,test,1,con,1,m,Fri Aug 09 2024 14:02:07 GMT-0500 (Central Daylight Time),533246.1000000001,silver,1000,I,m,m,None,622,422.0,200.0,83,1,2162.7000000001863,531083.3999999999,7007,silver,NF,A,527144,527144,525414,526428,525415,527577,526944,526944,527577,128
