acc_sum,block,block_c,change,condition,correct,correct_response,datetime,endtime,face,project,response,response_time,row_sel,session_number,start_end,starttime,subject_id,task,task_vers,trial
0,prac,1,,1-Back,,,Tue Nov 11 2025 17:45:08 GMT-0600 (Central Standard Time),,050_m_f_n_a.png,I,space,17252,1,,,,8053,NNB,A,0
0,prac,1,0.0,1-Back,0.0,m,Tue Nov 11 2025 17:45:08 GMT-0600 (Central Standard Time),122174.19999998808,063_y_f_n_a.png,I,z,1100,2,,1906.1000000238419,120268.09999996424,8053,NNB,A,1
0,prac,1,1.0,1-Back,0.0,z,Tue Nov 11 2025 17:45:08 GMT-0600 (Central Standard Time),124956.69999998808,063_y_f_n_a.png,I,None,2005,3,,2772.400000035763,122184.29999995232,8053,NNB,A,2
1,prac,1,0.0,1-Back,1.0,m,Tue Nov 11 2025 17:45:08 GMT-0600 (Central Standard Time),127039.19999998808,053_o_m_n_a.png,I,m,1282,4,,2074.0,124965.19999998808,8053,NNB,A,3
2,prac,1,0.0,1-Back,1.0,m,Tue Nov 11 2025 17:45:08 GMT-0600 (Central Standard Time),128622.09999996424,058_m_m_n_a.png,I,m,775,5,,1574.3999999761581,127047.69999998808,8053,NNB,A,4
3,prac,1,1.0,1-Back,1.0,z,Tue Nov 11 2025 17:45:08 GMT-0600 (Central Standard Time),130188.29999995232,058_m_m_n_a.png,I,z,786,6,,1558.0999999642372,128630.19999998808,8053,NNB,A,5
4,prac,1,0.0,1-Back,1.0,m,Tue Nov 11 2025 17:45:08 GMT-0600 (Central Standard Time),131854.5,047_o_f_n_a.png,I,m,821,7,,1658.0,130196.5,8053,NNB,A,6
5,prac,1,0.0,1-Back,1.0,m,Tue Nov 11 2025 17:45:08 GMT-0600 (Central Standard Time),133403.89999997616,045_m_m_n_a.png,I,m,746,8,,1540.6000000238419,131863.29999995232,8053,NNB,A,7
6,prac,1,0.0,1-Back,1.0,m,Tue Nov 11 2025 17:45:08 GMT-0600 (Central Standard Time),134703.69999998808,050_m_f_n_a.png,I,m,524,9,,1291.300000011921,133412.39999997616,8053,NNB,A,8
7,prac,1,1.0,1-Back,1.0,z,Tue Nov 11 2025 17:45:08 GMT-0600 (Central Standard Time),135936.69999998808,050_m_f_n_a.png,I,z,449,10,,1225.199999988079,134711.5,8053,NNB,A,9
8,prac,1,0.0,1-Back,1.0,m,Tue Nov 11 2025 17:45:08 GMT-0600 (Central Standard Time),137252.79999995232,053_o_m_n_a.png,I,m,536,11,,1307.8999999761581,135944.89999997616,8053,NNB,A,10
9,prac,1,0.0,1-Back,1.0,m,Tue Nov 11 2025 17:45:08 GMT-0600 (Central Standard Time),138602.39999997616,010_y_f_n_a.png,I,m,509,12,,1341.0,137261.39999997616,8053,NNB,A,11
0,test,1,0.0,1-Back,,,Tue Nov 11 2025 17:45:08 GMT-0600 (Central Standard Time),138602.39999997616,063_y_f_n_a.png,I,space,15200,1,,1341.0,137261.39999997616,8053,NNB,A,0
1,test,1,0.0,1-Back,1.0,m,Tue Nov 11 2025 17:45:08 GMT-0600 (Central Standard Time),166377.0,043_m_f_n_a.png,I,m,666,2,,1675.5,164701.5,8053,NNB,A,1
2,test,1,0.0,1-Back,1.0,m,Tue Nov 11 2025 17:45:08 GMT-0600 (Central Standard Time),167959.69999998808,010_y_f_n_a.png,I,m,552,3,,1575.9000000357628,166383.79999995232,8053,NNB,A,2
3,test,1,1.0,1-Back,1.0,z,Tue Nov 11 2025 17:45:08 GMT-0600 (Central Standard Time),169592.39999997616,010_y_f_n_a.png,I,z,609,4,,1625.699999988079,167966.69999998808,8053,NNB,A,3
4,test,1,0.0,1-Back,1.0,m,Tue Nov 11 2025 17:45:08 GMT-0600 (Central Standard Time),171258.69999998808,043_m_f_n_a.png,I,m,640,5,,1659.4000000357628,169599.29999995232,8053,NNB,A,4
5,test,1,0.0,1-Back,1.0,m,Tue Nov 11 2025 17:45:08 GMT-0600 (Central Standard Time),172758.19999998808,053_o_m_n_a.png,I,m,478,6,,1492.800000011921,171265.39999997616,8053,NNB,A,5
5,test,1,1.0,1-Back,0.0,z,Tue Nov 11 2025 17:45:08 GMT-0600 (Central Standard Time),174257.69999998808,053_o_m_n_a.png,I,m,474,7,,1492.4000000357628,172765.29999995232,8053,NNB,A,6
6,test,1,0.0,1-Back,1.0,m,Tue Nov 11 2025 17:45:08 GMT-0600 (Central Standard Time),175857.29999995232,058_m_m_n_a.png,I,m,567,8,,1592.5999999642372,174264.69999998808,8053,NNB,A,7
7,test,1,0.0,1-Back,1.0,m,Tue Nov 11 2025 17:45:08 GMT-0600 (Central Standard Time),177423.5,047_o_f_n_a.png,I,m,543,9,,1559.5,175864.0,8053,NNB,A,8
8,test,1,0.0,1-Back,1.0,m,Tue Nov 11 2025 17:45:08 GMT-0600 (Central Standard Time),178923.0,058_m_m_n_a.png,I,m,481,10,,1492.5,177430.5,8053,NNB,A,9
9,test,1,0.0,1-Back,1.0,m,Tue Nov 11 2025 17:45:08 GMT-0600 (Central Standard Time),180472.5,041_y_m_n_a.png,I,m,525,11,,1542.1000000238419,178930.39999997616,8053,NNB,A,10
10,test,1,1.0,1-Back,1.0,z,Tue Nov 11 2025 17:45:08 GMT-0600 (Central Standard Time),181988.69999998808,041_y_m_n_a.png,I,z,488,12,,1508.6000000238419,180480.09999996424,8053,NNB,A,11
11,test,1,0.0,1-Back,1.0,m,Tue Nov 11 2025 17:45:08 GMT-0600 (Central Standard Time),183604.89999997616,044_o_f_n_a.png,I,m,596,13,,1609.300000011921,181995.59999996424,8053,NNB,A,12
12,test,1,1.0,1-Back,1.0,z,Tue Nov 11 2025 17:45:08 GMT-0600 (Central Standard Time),185254.29999995232,044_o_f_n_a.png,I,z,628,14,,1642.5,183611.79999995232,8053,NNB,A,13
13,test,1,0.0,1-Back,1.0,m,Tue Nov 11 2025 17:45:08 GMT-0600 (Central Standard Time),186870.5,008_y_m_n_a.png,I,m,594,15,,1609.6000000238419,185260.89999997616,8053,NNB,A,14
14,test,1,0.0,1-Back,1.0,m,Tue Nov 11 2025 17:45:08 GMT-0600 (Central Standard Time),188386.59999996424,050_m_f_n_a.png,I,m,498,16,,1509.0,186877.59999996424,8053,NNB,A,15
15,test,1,0.0,1-Back,1.0,m,Tue Nov 11 2025 17:45:08 GMT-0600 (Central Standard Time),189902.79999995232,046_o_m_n_a.png,I,m,486,17,,1509.0,188393.79999995232,8053,NNB,A,16
16,test,1,0.0,1-Back,1.0,m,Tue Nov 11 2025 17:45:08 GMT-0600 (Central Standard Time),191602.29999995232,050_m_f_n_a.png,I,m,673,18,,1692.5999999642372,189909.69999998808,8053,NNB,A,17
0,test,2,0.0,1-Back,,,Tue Nov 11 2025 17:45:08 GMT-0600 (Central Standard Time),191602.29999995232,058_m_m_n_a.png,I,space,3710,1,,1692.5999999642372,189909.69999998808,8053,NNB,A,0
1,test,2,0.0,1-Back,1.0,m,Tue Nov 11 2025 17:45:08 GMT-0600 (Central Standard Time),198966.69999998808,043_m_f_n_a.png,I,m,602,2,,1625.199999988079,197341.5,8053,NNB,A,1
2,test,2,1.0,1-Back,1.0,z,Tue Nov 11 2025 17:45:08 GMT-0600 (Central Standard Time),200566.19999998808,043_m_f_n_a.png,I,z,578,3,,1590.5,198975.69999998808,8053,NNB,A,2
3,test,2,0.0,1-Back,1.0,m,Tue Nov 11 2025 17:45:08 GMT-0600 (Central Standard Time),202282.29999995232,058_m_m_n_a.png,I,m,638,4,,1709.0999999642372,200573.19999998808,8053,NNB,A,3
4,test,2,0.0,1-Back,1.0,m,Tue Nov 11 2025 17:45:08 GMT-0600 (Central Standard Time),203765.19999998808,041_y_m_n_a.png,I,m,454,5,,1475.800000011921,202289.39999997616,8053,NNB,A,4
5,test,2,0.0,1-Back,1.0,m,Tue Nov 11 2025 17:45:08 GMT-0600 (Central Standard Time),205248.09999996424,063_y_f_n_a.png,I,m,451,6,,1475.699999988079,203772.39999997616,8053,NNB,A,5
6,test,2,1.0,1-Back,1.0,z,Tue Nov 11 2025 17:45:08 GMT-0600 (Central Standard Time),206680.89999997616,063_y_f_n_a.png,I,z,416,7,,1425.8999999761581,205255.0,8053,NNB,A,6
7,test,2,0.0,1-Back,1.0,m,Tue Nov 11 2025 17:45:08 GMT-0600 (Central Standard Time),208230.29999995232,041_y_m_n_a.png,I,m,528,8,,1542.3999999761581,206687.89999997616,8053,NNB,A,7
8,test,2,0.0,1-Back,1.0,m,Tue Nov 11 2025 17:45:08 GMT-0600 (Central Standard Time),209696.59999996424,044_o_f_n_a.png,I,m,442,9,,1459.0999999642372,208237.5,8053,NNB,A,8
9,test,2,0.0,1-Back,1.0,m,Tue Nov 11 2025 17:45:08 GMT-0600 (Central Standard Time),211179.59999996424,045_m_m_n_a.png,I,m,464,10,,1475.800000011921,209703.79999995232,8053,NNB,A,9
10,test,2,1.0,1-Back,1.0,z,Tue Nov 11 2025 17:45:08 GMT-0600 (Central Standard Time),212612.5,045_m_m_n_a.png,I,z,413,11,,1426.300000011921,211186.19999998808,8053,NNB,A,10
11,test,2,0.0,1-Back,1.0,m,Tue Nov 11 2025 17:45:08 GMT-0600 (Central Standard Time),214128.59999996424,044_o_f_n_a.png,I,m,484,12,,1509.3999999761581,212619.19999998808,8053,NNB,A,11
12,test,2,0.0,1-Back,1.0,m,Tue Nov 11 2025 17:45:08 GMT-0600 (Central Standard Time),215628.09999996424,047_o_f_n_a.png,I,m,480,13,,1492.5,214135.59999996424,8053,NNB,A,12
13,test,2,0.0,1-Back,1.0,m,Tue Nov 11 2025 17:45:08 GMT-0600 (Central Standard Time),217144.5,053_o_m_n_a.png,I,m,492,14,,1509.5,215635.0,8053,NNB,A,13
14,test,2,0.0,1-Back,1.0,m,Tue Nov 11 2025 17:45:08 GMT-0600 (Central Standard Time),218644.0,046_o_m_n_a.png,I,m,472,15,,1492.2000000476837,217151.79999995232,8053,NNB,A,14
15,test,2,1.0,1-Back,1.0,z,Tue Nov 11 2025 17:45:08 GMT-0600 (Central Standard Time),220143.29999995232,046_o_m_n_a.png,I,z,469,16,,1492.199999988079,218651.09999996424,8053,NNB,A,15
16,test,2,0.0,1-Back,1.0,m,Tue Nov 11 2025 17:45:08 GMT-0600 (Central Standard Time),221626.19999998808,008_y_m_n_a.png,I,m,465,17,,1476.1000000238419,220150.09999996424,8053,NNB,A,16
16,test,2,1.0,1-Back,0.0,z,Tue Nov 11 2025 17:45:08 GMT-0600 (Central Standard Time),223175.79999995232,008_y_m_n_a.png,I,m,518,18,,1542.199999988079,221633.59999996424,8053,NNB,A,17
0,test,3,1.0,1-Back,,,Tue Nov 11 2025 17:45:08 GMT-0600 (Central Standard Time),223175.79999995232,010_y_f_n_a.png,I,space,1681,1,,1542.199999988079,221633.59999996424,8053,NNB,A,0
1,test,3,0.0,1-Back,1.0,m,Tue Nov 11 2025 17:45:08 GMT-0600 (Central Standard Time),228524.0,046_o_m_n_a.png,I,m,572,2,,1592.5,226931.5,8053,NNB,A,1
2,test,3,1.0,1-Back,1.0,z,Tue Nov 11 2025 17:45:08 GMT-0600 (Central Standard Time),230056.89999997616,046_o_m_n_a.png,I,z,508,3,,1525.3999999761581,228531.5,8053,NNB,A,2
3,test,3,0.0,1-Back,1.0,m,Tue Nov 11 2025 17:45:08 GMT-0600 (Central Standard Time),231756.39999997616,050_m_f_n_a.png,I,m,679,4,,1692.3999999761581,230064.0,8053,NNB,A,3
4,test,3,1.0,1-Back,1.0,z,Tue Nov 11 2025 17:45:08 GMT-0600 (Central Standard Time),233389.09999996424,050_m_f_n_a.png,I,z,611,5,,1625.5999999642372,231763.5,8053,NNB,A,4
5,test,3,0.0,1-Back,1.0,m,Tue Nov 11 2025 17:45:08 GMT-0600 (Central Standard Time),234939.79999995232,044_o_f_n_a.png,I,m,531,6,,1543.5,233396.29999995232,8053,NNB,A,5
6,test,3,0.0,1-Back,1.0,m,Tue Nov 11 2025 17:45:08 GMT-0600 (Central Standard Time),236488.5,041_y_m_n_a.png,I,m,518,7,,1541.6000000238419,234946.89999997616,8053,NNB,A,6
7,test,3,0.0,1-Back,1.0,m,Tue Nov 11 2025 17:45:08 GMT-0600 (Central Standard Time),238220.89999997616,044_o_f_n_a.png,I,m,712,8,,1724.5,236496.39999997616,8053,NNB,A,7
8,test,3,0.0,1-Back,1.0,m,Tue Nov 11 2025 17:45:08 GMT-0600 (Central Standard Time),239721.79999995232,008_y_m_n_a.png,I,m,467,9,,1493.5,238228.29999995232,8053,NNB,A,8
9,test,3,1.0,1-Back,1.0,z,Tue Nov 11 2025 17:45:08 GMT-0600 (Central Standard Time),241153.59999996424,008_y_m_n_a.png,I,z,408,10,,1424.800000011921,239728.79999995232,8053,NNB,A,9
10,test,3,0.0,1-Back,1.0,m,Tue Nov 11 2025 17:45:08 GMT-0600 (Central Standard Time),242719.69999998808,043_m_f_n_a.png,I,m,535,11,,1559.0,241160.69999998808,8053,NNB,A,10
11,test,3,0.0,1-Back,1.0,m,Tue Nov 11 2025 17:45:08 GMT-0600 (Central Standard Time),244219.09999996424,063_y_f_n_a.png,I,m,481,12,,1492.3999999761581,242726.69999998808,8053,NNB,A,11
12,test,3,1.0,1-Back,1.0,z,Tue Nov 11 2025 17:45:08 GMT-0600 (Central Standard Time),245768.59999996424,063_y_f_n_a.png,I,z,525,13,,1541.5999999642372,244227.0,8053,NNB,A,12
13,test,3,0.0,1-Back,1.0,m,Tue Nov 11 2025 17:45:08 GMT-0600 (Central Standard Time),247484.69999998808,043_m_f_n_a.png,I,m,688,14,,1709.199999988079,245775.5,8053,NNB,A,13
14,test,3,0.0,1-Back,1.0,m,Tue Nov 11 2025 17:45:08 GMT-0600 (Central Standard Time),249051.09999996424,058_m_m_n_a.png,I,m,430,15,,1558.8999999761581,247492.19999998808,8053,NNB,A,14
15,test,3,1.0,1-Back,1.0,z,Tue Nov 11 2025 17:45:08 GMT-0600 (Central Standard Time),250550.59999996424,058_m_m_n_a.png,I,z,477,16,,1492.5,249058.09999996424,8053,NNB,A,15
16,test,3,0.0,1-Back,1.0,m,Tue Nov 11 2025 17:45:08 GMT-0600 (Central Standard Time),252100.09999996424,047_o_f_n_a.png,I,m,522,17,,1542.3999999761581,250557.69999998808,8053,NNB,A,16
17,test,3,1.0,1-Back,1.0,z,Tue Nov 11 2025 17:45:08 GMT-0600 (Central Standard Time),253599.69999998808,047_o_f_n_a.png,I,z,468,18,,1492.9000000357628,252106.79999995232,8053,NNB,A,17
0,test,4,1.0,1-Back,,,Tue Nov 11 2025 17:45:08 GMT-0600 (Central Standard Time),253599.69999998808,050_m_f_n_a.png,I,space,1593,1,,1492.9000000357628,252106.79999995232,8053,NNB,A,0
1,test,4,0.0,1-Back,1.0,m,Tue Nov 11 2025 17:45:08 GMT-0600 (Central Standard Time),258814.69999998808,046_o_m_n_a.png,I,m,577,2,,1592.800000011921,257221.89999997616,8053,NNB,A,1
2,test,4,0.0,1-Back,1.0,m,Tue Nov 11 2025 17:45:08 GMT-0600 (Central Standard Time),260547.29999995232,050_m_f_n_a.png,I,m,713,3,,1725.3999999761581,258821.89999997616,8053,NNB,A,2
3,test,4,0.0,1-Back,1.0,m,Tue Nov 11 2025 17:45:08 GMT-0600 (Central Standard Time),262013.69999998808,044_o_f_n_a.png,I,m,445,4,,1459.199999988079,260554.5,8053,NNB,A,3
4,test,4,1.0,1-Back,1.0,z,Tue Nov 11 2025 17:45:08 GMT-0600 (Central Standard Time),263413.1999999881,044_o_f_n_a.png,I,z,371,5,,1391.4000000357628,262021.79999995232,8053,NNB,A,4
5,test,4,0.0,1-Back,1.0,m,Tue Nov 11 2025 17:45:08 GMT-0600 (Central Standard Time),264862.7999999523,063_y_f_n_a.png,I,m,427,6,,1441.8999999761581,263420.89999997616,8053,NNB,A,5
6,test,4,0.0,1-Back,1.0,m,Tue Nov 11 2025 17:45:08 GMT-0600 (Central Standard Time),266362.1999999881,041_y_m_n_a.png,I,m,482,7,,1492.1000000238419,264870.09999996424,8053,NNB,A,6
6,test,4,1.0,1-Back,0.0,z,Tue Nov 11 2025 17:45:08 GMT-0600 (Central Standard Time),268278.2999999523,041_y_m_n_a.png,I,m,886,8,,1908.8999999761581,266369.39999997616,8053,NNB,A,7
7,test,4,0.0,1-Back,1.0,m,Tue Nov 11 2025 17:45:08 GMT-0600 (Central Standard Time),269994.5,063_y_f_n_a.png,I,m,698,9,,1709.1000000238419,268285.39999997616,8053,NNB,A,8
8,test,4,0.0,1-Back,1.0,m,Tue Nov 11 2025 17:45:08 GMT-0600 (Central Standard Time),271527.2999999523,045_m_m_n_a.png,I,m,502,10,,1525.5999999642372,270001.6999999881,8053,NNB,A,9
9,test,4,1.0,1-Back,1.0,z,Tue Nov 11 2025 17:45:08 GMT-0600 (Central Standard Time),273326.59999996424,045_m_m_n_a.png,I,z,777,11,,1791.5999999642372,271535.0,8053,NNB,A,10
10,test,4,0.0,1-Back,1.0,m,Tue Nov 11 2025 17:45:08 GMT-0600 (Central Standard Time),274843.0,047_o_f_n_a.png,I,m,489,12,,1509.4000000357628,273333.59999996424,8053,NNB,A,11
11,test,4,0.0,1-Back,1.0,m,Tue Nov 11 2025 17:45:08 GMT-0600 (Central Standard Time),276525.6999999881,053_o_m_n_a.png,I,m,653,13,,1674.9000000357628,274850.7999999523,8053,NNB,A,12
12,test,4,0.0,1-Back,1.0,m,Tue Nov 11 2025 17:45:08 GMT-0600 (Central Standard Time),278008.6999999881,047_o_f_n_a.png,I,m,459,14,,1475.0,276533.6999999881,8053,NNB,A,13
13,test,4,0.0,1-Back,1.0,m,Tue Nov 11 2025 17:45:08 GMT-0600 (Central Standard Time),279524.7999999523,010_y_f_n_a.png,I,m,488,15,,1508.3999999761581,278016.39999997616,8053,NNB,A,14
14,test,4,1.0,1-Back,1.0,z,Tue Nov 11 2025 17:45:08 GMT-0600 (Central Standard Time),281107.59999996424,010_y_f_n_a.png,I,z,555,16,,1575.5999999642372,279532.0,8053,NNB,A,15
15,test,4,0.0,1-Back,1.0,m,Tue Nov 11 2025 17:45:08 GMT-0600 (Central Standard Time),282607.2999999523,043_m_f_n_a.png,I,m,477,17,,1492.199999988079,281115.09999996424,8053,NNB,A,16
15,test,4,1.0,1-Back,0.0,z,Tue Nov 11 2025 17:45:08 GMT-0600 (Central Standard Time),284073.5,043_m_f_n_a.png,I,m,449,18,,1459.300000011921,282614.1999999881,8053,NNB,A,17
0,test,5,1.0,1-Back,,,Tue Nov 11 2025 17:45:08 GMT-0600 (Central Standard Time),284073.5,053_o_m_n_a.png,I,space,1519,1,,1459.300000011921,282614.1999999881,8053,NNB,A,0
1,test,5,1.0,1-Back,1.0,z,Tue Nov 11 2025 17:45:08 GMT-0600 (Central Standard Time),289188.5,053_o_m_n_a.png,I,z,546,2,,1558.800000011921,287629.6999999881,8053,NNB,A,1
2,test,5,0.0,1-Back,1.0,m,Tue Nov 11 2025 17:45:08 GMT-0600 (Central Standard Time),290771.1999999881,063_y_f_n_a.png,I,m,556,3,,1575.4000000357628,289195.7999999523,8053,NNB,A,2
3,test,5,0.0,1-Back,1.0,m,Tue Nov 11 2025 17:45:08 GMT-0600 (Central Standard Time),292437.39999997616,041_y_m_n_a.png,I,m,645,4,,1659.1000000238419,290778.2999999523,8053,NNB,A,3
4,test,5,0.0,1-Back,1.0,m,Tue Nov 11 2025 17:45:08 GMT-0600 (Central Standard Time),294103.5,063_y_f_n_a.png,I,m,635,5,,1658.6000000238419,292444.89999997616,8053,NNB,A,4
5,test,5,0.0,1-Back,1.0,m,Tue Nov 11 2025 17:45:08 GMT-0600 (Central Standard Time),295603.2999999523,058_m_m_n_a.png,I,m,473,6,,1492.7999999523163,294110.5,8053,NNB,A,5
6,test,5,1.0,1-Back,1.0,z,Tue Nov 11 2025 17:45:08 GMT-0600 (Central Standard Time),297185.89999997616,058_m_m_n_a.png,I,z,565,7,,1575.1000000238419,295610.7999999523,8053,NNB,A,6
7,test,5,0.0,1-Back,1.0,m,Tue Nov 11 2025 17:45:08 GMT-0600 (Central Standard Time),298818.6999999881,010_y_f_n_a.png,I,m,614,8,,1625.9000000357628,297192.7999999523,8053,NNB,A,7
8,test,5,0.0,1-Back,1.0,m,Tue Nov 11 2025 17:45:08 GMT-0600 (Central Standard Time),300335.09999996424,008_y_m_n_a.png,I,m,486,9,,1509.0,298826.09999996424,8053,NNB,A,8
9,test,5,0.0,1-Back,1.0,m,Tue Nov 11 2025 17:45:08 GMT-0600 (Central Standard Time),301834.59999996424,010_y_f_n_a.png,I,m,473,10,,1492.199999988079,300342.39999997616,8053,NNB,A,9
10,test,5,0.0,1-Back,1.0,m,Tue Nov 11 2025 17:45:08 GMT-0600 (Central Standard Time),303317.5,047_o_f_n_a.png,I,m,454,11,,1474.9000000357628,301842.59999996424,8053,NNB,A,10
11,test,5,1.0,1-Back,1.0,z,Tue Nov 11 2025 17:45:08 GMT-0600 (Central Standard Time),304800.2999999523,047_o_f_n_a.png,I,z,459,12,,1475.2999999523163,303325.0,8053,NNB,A,11
12,test,5,0.0,1-Back,1.0,m,Tue Nov 11 2025 17:45:08 GMT-0600 (Central Standard Time),306333.1999999881,046_o_m_n_a.png,I,m,504,13,,1525.1000000238419,304808.09999996424,8053,NNB,A,12
13,test,5,0.0,1-Back,1.0,m,Tue Nov 11 2025 17:45:08 GMT-0600 (Central Standard Time),307865.89999997616,050_m_f_n_a.png,I,m,507,14,,1525.8999999761581,306340.0,8053,NNB,A,13
14,test,5,1.0,1-Back,1.0,z,Tue Nov 11 2025 17:45:08 GMT-0600 (Central Standard Time),309382.09999996424,050_m_f_n_a.png,I,z,486,15,,1508.800000011921,307873.2999999523,8053,NNB,A,14
15,test,5,0.0,1-Back,1.0,m,Tue Nov 11 2025 17:45:08 GMT-0600 (Central Standard Time),310864.7999999523,046_o_m_n_a.png,I,m,456,16,,1475.5,309389.2999999523,8053,NNB,A,15
16,test,5,0.0,1-Back,1.0,m,Tue Nov 11 2025 17:45:08 GMT-0600 (Central Standard Time),312447.89999997616,043_m_f_n_a.png,I,m,559,17,,1575.3999999761581,310872.5,8053,NNB,A,16
17,test,5,0.0,1-Back,1.0,m,Tue Nov 11 2025 17:45:08 GMT-0600 (Central Standard Time),313947.5,045_m_m_n_a.png,I,m,473,18,,1492.5,312455.0,8053,NNB,A,17
0,prac,1,0.0,2-Back,,,Tue Nov 11 2025 17:45:08 GMT-0600 (Central Standard Time),313947.5,008_y_m_n_a.png,I,space,19607,1,,1492.5,312455.0,8053,NNB,A,0
0,prac,1,0.0,2-Back,,,Tue Nov 11 2025 17:45:08 GMT-0600 (Central Standard Time),313947.5,043_m_f_n_a.png,I,space,19607,2,,1492.5,312455.0,8053,NNB,A,0
1,prac,1,1.0,2-Back,1.0,m,Tue Nov 11 2025 17:45:08 GMT-0600 (Central Standard Time),454070.39999997616,046_o_m_n_a.png,I,m,1202,3,,2007.800000011921,452062.59999996424,8053,NNB,A,1
2,prac,1,0.0,2-Back,1.0,m,Tue Nov 11 2025 17:45:08 GMT-0600 (Central Standard Time),455752.89999997616,047_o_f_n_a.png,I,m,849,4,,1673.8999999761581,454079.0,8053,NNB,A,2
3,prac,1,0.0,2-Back,1.0,z,Tue Nov 11 2025 17:45:08 GMT-0600 (Central Standard Time),457202.5,046_o_m_n_a.png,I,z,671,5,,1440.6000000238419,455761.89999997616,8053,NNB,A,3
4,prac,1,1.0,2-Back,1.0,z,Tue Nov 11 2025 17:45:08 GMT-0600 (Central Standard Time),458685.5,047_o_f_n_a.png,I,z,693,6,,1473.7000000476837,457211.7999999523,8053,NNB,A,4
5,prac,1,0.0,2-Back,1.0,m,Tue Nov 11 2025 17:45:08 GMT-0600 (Central Standard Time),460318.2999999523,045_m_m_n_a.png,I,m,827,7,,1624.2999999523163,458694.0,8053,NNB,A,5
6,prac,1,0.0,2-Back,1.0,m,Tue Nov 11 2025 17:45:08 GMT-0600 (Central Standard Time),461934.5,053_o_m_n_a.png,I,m,802,8,,1607.800000011921,460326.6999999881,8053,NNB,A,6
7,prac,1,0.0,2-Back,1.0,m,Tue Nov 11 2025 17:45:08 GMT-0600 (Central Standard Time),463500.5,010_y_f_n_a.png,I,m,713,9,,1556.7000000476837,461943.7999999523,8053,NNB,A,7
7,prac,1,1.0,2-Back,0.0,z,Tue Nov 11 2025 17:45:08 GMT-0600 (Central Standard Time),465133.39999997616,053_o_m_n_a.png,I,m,843,10,,1623.800000011921,463509.59999996424,8053,NNB,A,8
8,prac,1,0.0,2-Back,1.0,m,Tue Nov 11 2025 17:45:08 GMT-0600 (Central Standard Time),466916.09999996424,063_y_f_n_a.png,I,m,962,11,,1773.699999988079,465142.39999997616,8053,NNB,A,9
8,prac,1,0.0,2-Back,0.0,m,Tue Nov 11 2025 17:45:08 GMT-0600 (Central Standard Time),468382.39999997616,045_m_m_n_a.png,I,z,676,12,,1457.300000011921,466925.09999996424,8053,NNB,A,10
0,test,1,0.0,2-Back,,,Tue Nov 11 2025 17:45:08 GMT-0600 (Central Standard Time),468382.39999997616,041_y_m_n_a.png,I,space,12446,1,,1457.300000011921,466925.09999996424,8053,NNB,A,0
0,test,1,0.0,2-Back,,,Tue Nov 11 2025 17:45:08 GMT-0600 (Central Standard Time),468382.39999997616,041_y_m_n_a.png,I,space,12446,2,,1457.300000011921,466925.09999996424,8053,NNB,A,0
1,test,1,0.0,2-Back,1.0,m,Tue Nov 11 2025 17:45:08 GMT-0600 (Central Standard Time),495407.1999999881,047_o_f_n_a.png,I,m,1502,3,,2524.900000035763,492882.2999999523,8053,NNB,A,1
2,test,1,0.0,2-Back,1.0,m,Tue Nov 11 2025 17:45:08 GMT-0600 (Central Standard Time),497439.7999999523,058_m_m_n_a.png,I,m,1009,4,,2024.7999999523163,495415.0,8053,NNB,A,2
3,test,1,1.0,2-Back,1.0,z,Tue Nov 11 2025 17:45:08 GMT-0600 (Central Standard Time),499289.2999999523,047_o_f_n_a.png,I,z,824,5,,1842.199999988079,497447.09999996424,8053,NNB,A,3
4,test,1,0.0,2-Back,1.0,m,Tue Nov 11 2025 17:45:08 GMT-0600 (Central Standard Time),501088.7999999523,063_y_f_n_a.png,I,m,767,6,,1791.8999999761581,499296.89999997616,8053,NNB,A,4
4,test,1,0.0,2-Back,0.0,m,Tue Nov 11 2025 17:45:08 GMT-0600 (Central Standard Time),502855.0,058_m_m_n_a.png,I,z,736,7,,1758.2000000476837,501096.7999999523,8053,NNB,A,5
4,test,1,1.0,2-Back,0.0,z,Tue Nov 11 2025 17:45:08 GMT-0600 (Central Standard Time),504721.09999996424,063_y_f_n_a.png,I,m,850,8,,1858.699999988079,502862.39999997616,8053,NNB,A,6
5,test,1,0.0,2-Back,1.0,m,Tue Nov 11 2025 17:45:08 GMT-0600 (Central Standard Time),506887.0,008_y_m_n_a.png,I,m,1136,9,,2158.0,504729.0,8053,NNB,A,7
6,test,1,0.0,2-Back,1.0,m,Tue Nov 11 2025 17:45:08 GMT-0600 (Central Standard Time),508786.2999999523,044_o_f_n_a.png,I,m,851,10,,1891.199999988079,506895.09999996424,8053,NNB,A,8
6,test,1,1.0,2-Back,0.0,z,Tue Nov 11 2025 17:45:08 GMT-0600 (Central Standard Time),510869.09999996424,008_y_m_n_a.png,I,m,1062,11,,2075.099999964237,508794.0,8053,NNB,A,9
7,test,1,0.0,2-Back,1.0,m,Tue Nov 11 2025 17:45:08 GMT-0600 (Central Standard Time),512668.39999997616,043_m_f_n_a.png,I,m,779,12,,1791.3999999761581,510877.0,8053,NNB,A,10
8,test,1,0.0,2-Back,1.0,m,Tue Nov 11 2025 17:45:08 GMT-0600 (Central Standard Time),514684.5,043_m_f_n_a.png,I,m,996,13,,2008.300000011921,512676.1999999881,8053,NNB,A,11
9,test,1,0.0,2-Back,1.0,m,Tue Nov 11 2025 17:45:08 GMT-0600 (Central Standard Time),516434.0,046_o_m_n_a.png,I,m,732,14,,1742.2000000476837,514691.7999999523,8053,NNB,A,12
10,test,1,0.0,2-Back,1.0,m,Tue Nov 11 2025 17:45:08 GMT-0600 (Central Standard Time),518100.09999996424,044_o_f_n_a.png,I,m,646,15,,1658.699999988079,516441.39999997616,8053,NNB,A,13
11,test,1,1.0,2-Back,1.0,z,Tue Nov 11 2025 17:45:08 GMT-0600 (Central Standard Time),519766.1999999881,046_o_m_n_a.png,I,z,636,16,,1658.300000011921,518107.89999997616,8053,NNB,A,14
12,test,1,0.0,2-Back,1.0,m,Tue Nov 11 2025 17:45:08 GMT-0600 (Central Standard Time),522082.0,050_m_f_n_a.png,I,m,1298,17,,2308.400000035763,519773.59999996424,8053,NNB,A,15
13,test,1,0.0,2-Back,1.0,m,Tue Nov 11 2025 17:45:08 GMT-0600 (Central Standard Time),523731.6999999881,045_m_m_n_a.png,I,m,630,18,,1642.0,522089.6999999881,8053,NNB,A,16
0,test,2,0.0,2-Back,,,Tue Nov 11 2025 17:45:08 GMT-0600 (Central Standard Time),523731.6999999881,045_m_m_n_a.png,I,space,1637,1,,1642.0,522089.6999999881,8053,NNB,A,0
0,test,2,0.0,2-Back,,,Tue Nov 11 2025 17:45:08 GMT-0600 (Central Standard Time),523731.6999999881,010_y_f_n_a.png,I,space,1637,2,,1642.0,522089.6999999881,8053,NNB,A,0
1,test,2,1.0,2-Back,1.0,z,Tue Nov 11 2025 17:45:08 GMT-0600 (Central Standard Time),532329.1999999881,045_m_m_n_a.png,I,z,818,3,,1841.4000000357628,530487.7999999523,8053,NNB,A,1
2,test,2,0.0,2-Back,1.0,m,Tue Nov 11 2025 17:45:08 GMT-0600 (Central Standard Time),534345.6999999881,050_m_f_n_a.png,I,m,983,4,,2008.9000000357628,532336.7999999523,8053,NNB,A,2
2,test,2,0.0,2-Back,0.0,m,Tue Nov 11 2025 17:45:08 GMT-0600 (Central Standard Time),536144.3999999762,010_y_f_n_a.png,I,z,767,5,,1791.199999988079,534353.1999999881,8053,NNB,A,3
3,test,2,0.0,2-Back,1.0,m,Tue Nov 11 2025 17:45:08 GMT-0600 (Central Standard Time),537994.0,046_o_m_n_a.png,I,m,824,6,,1841.9000000357628,536152.0999999642,8053,NNB,A,4
4,test,2,0.0,2-Back,1.0,m,Tue Nov 11 2025 17:45:08 GMT-0600 (Central Standard Time),540043.0999999642,063_y_f_n_a.png,I,m,1030,7,,2041.0999999642372,538002.0,8053,NNB,A,5
5,test,2,1.0,2-Back,1.0,z,Tue Nov 11 2025 17:45:08 GMT-0600 (Central Standard Time),541742.7999999523,046_o_m_n_a.png,I,z,669,8,,1692.0999999642372,540050.6999999881,8053,NNB,A,6
6,test,2,0.0,2-Back,1.0,m,Tue Nov 11 2025 17:45:08 GMT-0600 (Central Standard Time),543725.5999999642,008_y_m_n_a.png,I,m,962,9,,1974.5999999642372,541751.0,8053,NNB,A,7
7,test,2,0.0,2-Back,1.0,m,Tue Nov 11 2025 17:45:08 GMT-0600 (Central Standard Time),545824.8999999762,008_y_m_n_a.png,I,m,1067,10,,2091.5,543733.3999999762,8053,NNB,A,8
8,test,2,0.0,2-Back,1.0,m,Tue Nov 11 2025 17:45:08 GMT-0600 (Central Standard Time),547957.3999999762,043_m_f_n_a.png,I,m,1112,11,,2124.399999976158,545833.0,8053,NNB,A,9
9,test,2,0.0,2-Back,1.0,m,Tue Nov 11 2025 17:45:08 GMT-0600 (Central Standard Time),549990.1999999881,010_y_f_n_a.png,I,m,1003,12,,2025.300000011921,547964.8999999762,8053,NNB,A,10
10,test,2,1.0,2-Back,1.0,z,Tue Nov 11 2025 17:45:08 GMT-0600 (Central Standard Time),551573.0,043_m_f_n_a.png,I,z,554,13,,1574.9000000357628,549998.0999999642,8053,NNB,A,11
11,test,2,0.0,2-Back,1.0,m,Tue Nov 11 2025 17:45:08 GMT-0600 (Central Standard Time),553272.5999999642,053_o_m_n_a.png,I,m,675,14,,1691.5999999642372,551581.0,8053,NNB,A,12
12,test,2,0.0,2-Back,1.0,m,Tue Nov 11 2025 17:45:08 GMT-0600 (Central Standard Time),555071.8999999762,053_o_m_n_a.png,I,m,781,15,,1791.6000000238419,553280.2999999523,8053,NNB,A,13
13,test,2,0.0,2-Back,1.0,m,Tue Nov 11 2025 17:45:08 GMT-0600 (Central Standard Time),556971.1999999881,044_o_f_n_a.png,I,m,880,16,,1891.6000000238419,555079.5999999642,8053,NNB,A,14
14,test,2,0.0,2-Back,1.0,m,Tue Nov 11 2025 17:45:08 GMT-0600 (Central Standard Time),558837.3999999762,058_m_m_n_a.png,I,m,837,17,,1858.699999988079,556978.6999999881,8053,NNB,A,15
15,test,2,1.0,2-Back,1.0,z,Tue Nov 11 2025 17:45:08 GMT-0600 (Central Standard Time),560420.2999999523,044_o_f_n_a.png,I,z,555,18,,1575.2999999523163,558845.0,8053,NNB,A,16
0,test,3,1.0,2-Back,,,Tue Nov 11 2025 17:45:08 GMT-0600 (Central Standard Time),560420.2999999523,041_y_m_n_a.png,I,space,1036,1,,1575.2999999523163,558845.0,8053,NNB,A,0
0,test,3,1.0,2-Back,,,Tue Nov 11 2025 17:45:08 GMT-0600 (Central Standard Time),560420.2999999523,041_y_m_n_a.png,I,space,1036,2,,1575.2999999523163,558845.0,8053,NNB,A,0
1,test,3,0.0,2-Back,1.0,m,Tue Nov 11 2025 17:45:08 GMT-0600 (Central Standard Time),569417.5,044_o_f_n_a.png,I,m,1857,3,,2874.900000035763,566542.5999999642,8053,NNB,A,1
2,test,3,0.0,2-Back,1.0,m,Tue Nov 11 2025 17:45:08 GMT-0600 (Central Standard Time),571133.5999999642,045_m_m_n_a.png,I,m,687,4,,1707.800000011921,569425.7999999523,8053,NNB,A,2
3,test,3,1.0,2-Back,1.0,z,Tue Nov 11 2025 17:45:08 GMT-0600 (Central Standard Time),572616.3999999762,044_o_f_n_a.png,I,z,459,5,,1474.5,571141.8999999762,8053,NNB,A,3
3,test,3,0.0,2-Back,0.0,m,Tue Nov 11 2025 17:45:08 GMT-0600 (Central Standard Time),574432.3999999762,008_y_m_n_a.png,I,z,784,6,,1807.6000000238419,572624.7999999523,8053,NNB,A,4
4,test,3,0.0,2-Back,1.0,m,Tue Nov 11 2025 17:45:08 GMT-0600 (Central Standard Time),576581.7999999523,045_m_m_n_a.png,I,m,1120,7,,2141.7999999523163,574440.0,8053,NNB,A,5
4,test,3,1.0,2-Back,0.0,z,Tue Nov 11 2025 17:45:08 GMT-0600 (Central Standard Time),578897.8999999762,008_y_m_n_a.png,I,m,1298,8,,2308.399999976158,576589.5,8053,NNB,A,6
5,test,3,0.0,2-Back,1.0,m,Tue Nov 11 2025 17:45:08 GMT-0600 (Central Standard Time),581163.6999999881,010_y_f_n_a.png,I,m,1247,9,,2256.400000035763,578907.2999999523,8053,NNB,A,7
6,test,3,0.0,2-Back,1.0,m,Tue Nov 11 2025 17:45:08 GMT-0600 (Central Standard Time),582863.2999999523,058_m_m_n_a.png,I,m,676,10,,1692.0999999642372,581171.1999999881,8053,NNB,A,8
7,test,3,1.0,2-Back,1.0,z,Tue Nov 11 2025 17:45:08 GMT-0600 (Central Standard Time),584462.6999999881,010_y_f_n_a.png,I,z,577,11,,1590.9000000357628,582871.7999999523,8053,NNB,A,9
7,test,3,1.0,2-Back,0.0,z,Tue Nov 11 2025 17:45:08 GMT-0600 (Central Standard Time),586445.2999999523,058_m_m_n_a.png,I,m,954,12,,1974.699999988079,584470.5999999642,8053,NNB,A,10
8,test,3,0.0,2-Back,1.0,m,Tue Nov 11 2025 17:45:08 GMT-0600 (Central Standard Time),588294.8999999762,044_o_f_n_a.png,I,m,827,13,,1841.3999999761581,586453.5,8053,NNB,A,11
9,test,3,0.0,2-Back,1.0,m,Tue Nov 11 2025 17:45:08 GMT-0600 (Central Standard Time),589994.2999999523,050_m_f_n_a.png,I,m,674,14,,1690.8999999761581,588303.3999999762,8053,NNB,A,12
10,test,3,0.0,2-Back,1.0,m,Tue Nov 11 2025 17:45:08 GMT-0600 (Central Standard Time),591744.8999999762,046_o_m_n_a.png,I,m,718,15,,1742.0,590002.8999999762,8053,NNB,A,13
11,test,3,1.0,2-Back,1.0,z,Tue Nov 11 2025 17:45:08 GMT-0600 (Central Standard Time),593260.0,050_m_f_n_a.png,I,z,497,16,,1506.6000000238419,591753.3999999762,8053,NNB,A,14
12,test,3,0.0,2-Back,1.0,m,Tue Nov 11 2025 17:45:08 GMT-0600 (Central Standard Time),595192.5999999642,047_o_f_n_a.png,I,m,908,17,,1924.300000011921,593268.2999999523,8053,NNB,A,15
13,test,3,0.0,2-Back,1.0,m,Tue Nov 11 2025 17:45:08 GMT-0600 (Central Standard Time),597175.3999999762,047_o_f_n_a.png,I,m,952,18,,1975.300000011921,595200.0999999642,8053,NNB,A,16
0,test,4,0.0,2-Back,,,Tue Nov 11 2025 17:45:08 GMT-0600 (Central Standard Time),597175.3999999762,053_o_m_n_a.png,I,space,1033,1,,1975.300000011921,595200.0999999642,8053,NNB,A,0
0,test,4,0.0,2-Back,,,Tue Nov 11 2025 17:45:08 GMT-0600 (Central Standard Time),597175.3999999762,063_y_f_n_a.png,I,space,1033,2,,1975.300000011921,595200.0999999642,8053,NNB,A,0
1,test,4,1.0,2-Back,1.0,z,Tue Nov 11 2025 17:45:08 GMT-0600 (Central Standard Time),604939.6999999881,053_o_m_n_a.png,I,z,597,3,,1608.6000000238419,603331.0999999642,8053,NNB,A,1
2,test,4,1.0,2-Back,1.0,z,Tue Nov 11 2025 17:45:08 GMT-0600 (Central Standard Time),606805.6999999881,063_y_f_n_a.png,I,z,837,4,,1858.0,604947.6999999881,8053,NNB,A,2
3,test,4,0.0,2-Back,1.0,m,Tue Nov 11 2025 17:45:08 GMT-0600 (Central Standard Time),608655.0999999642,044_o_f_n_a.png,I,m,818,5,,1841.800000011921,606813.2999999523,8053,NNB,A,3
4,test,4,0.0,2-Back,1.0,m,Tue Nov 11 2025 17:45:08 GMT-0600 (Central Standard Time),610487.8999999762,044_o_f_n_a.png,I,m,809,6,,1824.8999999761581,608663.0,8053,NNB,A,4
5,test,4,0.0,2-Back,1.0,m,Tue Nov 11 2025 17:45:08 GMT-0600 (Central Standard Time),612387.0999999642,043_m_f_n_a.png,I,m,880,7,,1890.800000011921,610496.2999999523,8053,NNB,A,5
6,test,4,0.0,2-Back,1.0,m,Tue Nov 11 2025 17:45:08 GMT-0600 (Central Standard Time),614086.6999999881,008_y_m_n_a.png,I,m,677,8,,1691.5,612395.1999999881,8053,NNB,A,6
7,test,4,1.0,2-Back,1.0,z,Tue Nov 11 2025 17:45:08 GMT-0600 (Central Standard Time),615769.5,043_m_f_n_a.png,I,z,658,9,,1674.5,614095.0,8053,NNB,A,7
8,test,4,0.0,2-Back,1.0,m,Tue Nov 11 2025 17:45:08 GMT-0600 (Central Standard Time),617569.0,058_m_m_n_a.png,I,m,783,10,,1791.4000000357628,615777.5999999642,8053,NNB,A,8
8,test,4,0.0,2-Back,0.0,m,Tue Nov 11 2025 17:45:08 GMT-0600 (Central Standard Time),619151.8999999762,008_y_m_n_a.png,I,z,551,11,,1573.699999988079,617578.1999999881,8053,NNB,A,9
9,test,4,0.0,2-Back,1.0,m,Tue Nov 11 2025 17:45:08 GMT-0600 (Central Standard Time),620784.6999999881,047_o_f_n_a.png,I,m,600,12,,1624.6000000238419,619160.0999999642,8053,NNB,A,10
10,test,4,0.0,2-Back,1.0,m,Tue Nov 11 2025 17:45:08 GMT-0600 (Central Standard Time),622534.0,041_y_m_n_a.png,I,m,728,13,,1741.4000000357628,620792.5999999642,8053,NNB,A,11
11,test,4,1.0,2-Back,1.0,z,Tue Nov 11 2025 17:45:08 GMT-0600 (Central Standard Time),624316.8999999762,047_o_f_n_a.png,I,z,762,14,,1775.0,622541.8999999762,8053,NNB,A,12
12,test,4,1.0,2-Back,1.0,z,Tue Nov 11 2025 17:45:08 GMT-0600 (Central Standard Time),626299.6999999881,041_y_m_n_a.png,I,z,956,15,,1974.699999988079,624325.0,8053,NNB,A,13
13,test,4,0.0,2-Back,1.0,m,Tue Nov 11 2025 17:45:08 GMT-0600 (Central Standard Time),628115.8999999762,045_m_m_n_a.png,I,m,789,16,,1808.6000000238419,626307.2999999523,8053,NNB,A,14
14,test,4,0.0,2-Back,1.0,m,Tue Nov 11 2025 17:45:08 GMT-0600 (Central Standard Time),629931.7999999523,050_m_f_n_a.png,I,m,797,17,,1807.8999999761581,628123.8999999762,8053,NNB,A,15
15,test,4,1.0,2-Back,1.0,z,Tue Nov 11 2025 17:45:08 GMT-0600 (Central Standard Time),631647.8999999762,045_m_m_n_a.png,I,z,693,18,,1708.6000000238419,629939.2999999523,8053,NNB,A,16
0,test,5,1.0,2-Back,,,Tue Nov 11 2025 17:45:08 GMT-0600 (Central Standard Time),631647.8999999762,041_y_m_n_a.png,I,space,1593,1,,1708.6000000238419,629939.2999999523,8053,NNB,A,0
0,test,5,1.0,2-Back,,,Tue Nov 11 2025 17:45:08 GMT-0600 (Central Standard Time),631647.8999999762,050_m_f_n_a.png,I,space,1593,2,,1708.6000000238419,629939.2999999523,8053,NNB,A,0
1,test,5,1.0,2-Back,1.0,z,Tue Nov 11 2025 17:45:08 GMT-0600 (Central Standard Time),640045.2999999523,041_y_m_n_a.png,I,z,720,3,,1741.7999999523163,638303.5,8053,NNB,A,1
2,test,5,1.0,2-Back,1.0,z,Tue Nov 11 2025 17:45:08 GMT-0600 (Central Standard Time),641844.5999999642,050_m_f_n_a.png,I,z,779,4,,1791.5999999642372,640053.0,8053,NNB,A,2
3,test,5,0.0,2-Back,1.0,m,Tue Nov 11 2025 17:45:08 GMT-0600 (Central Standard Time),643727.5,047_o_f_n_a.png,I,m,852,5,,1875.0,641852.5,8053,NNB,A,3
4,test,5,0.0,2-Back,1.0,m,Tue Nov 11 2025 17:45:08 GMT-0600 (Central Standard Time),645710.1999999881,041_y_m_n_a.png,I,m,961,6,,1975.199999988079,643735.0,8053,NNB,A,4
5,test,5,0.0,2-Back,1.0,m,Tue Nov 11 2025 17:45:08 GMT-0600 (Central Standard Time),647609.8999999762,010_y_f_n_a.png,I,m,882,7,,1891.6000000238419,645718.2999999523,8053,NNB,A,5
6,test,5,0.0,2-Back,1.0,m,Tue Nov 11 2025 17:45:08 GMT-0600 (Central Standard Time),649534.1999999881,047_o_f_n_a.png,I,m,908,8,,1916.0,647618.1999999881,8053,NNB,A,6
7,test,5,1.0,2-Back,1.0,z,Tue Nov 11 2025 17:45:08 GMT-0600 (Central Standard Time),651291.7999999523,010_y_f_n_a.png,I,z,730,9,,1745.7999999523163,649546.0,8053,NNB,A,7
8,test,5,0.0,2-Back,1.0,m,Tue Nov 11 2025 17:45:08 GMT-0600 (Central Standard Time),653091.1999999881,046_o_m_n_a.png,I,m,773,10,,1791.9000000357628,651299.2999999523,8053,NNB,A,8
9,test,5,0.0,2-Back,1.0,m,Tue Nov 11 2025 17:45:08 GMT-0600 (Central Standard Time),654840.6999999881,043_m_f_n_a.png,I,m,725,11,,1742.0,653098.6999999881,8053,NNB,A,9
10,test,5,0.0,2-Back,1.0,m,Tue Nov 11 2025 17:45:08 GMT-0600 (Central Standard Time),656623.2999999523,058_m_m_n_a.png,I,m,760,12,,1775.0999999642372,654848.1999999881,8053,NNB,A,10
11,test,5,0.0,2-Back,1.0,m,Tue Nov 11 2025 17:45:08 GMT-0600 (Central Standard Time),658472.6999999881,046_o_m_n_a.png,I,m,825,13,,1841.300000011921,656631.3999999762,8053,NNB,A,11
12,test,5,1.0,2-Back,1.0,z,Tue Nov 11 2025 17:45:08 GMT-0600 (Central Standard Time),660405.5999999642,058_m_m_n_a.png,I,z,903,14,,1924.699999988079,658480.8999999762,8053,NNB,A,12
13,test,5,0.0,2-Back,1.0,m,Tue Nov 11 2025 17:45:08 GMT-0600 (Central Standard Time),662121.6999999881,063_y_f_n_a.png,I,m,691,15,,1708.199999988079,660413.5,8053,NNB,A,13
14,test,5,0.0,2-Back,1.0,m,Tue Nov 11 2025 17:45:08 GMT-0600 (Central Standard Time),663854.3999999762,053_o_m_n_a.png,I,m,703,16,,1725.199999988079,662129.1999999881,8053,NNB,A,14
15,test,5,0.0,2-Back,1.0,m,Tue Nov 11 2025 17:45:08 GMT-0600 (Central Standard Time),665820.5,043_m_f_n_a.png,I,m,938,17,,1958.4000000357628,663862.0999999642,8053,NNB,A,15
15,test,5,1.0,2-Back,0.0,z,Tue Nov 11 2025 17:45:08 GMT-0600 (Central Standard Time),667537.1999999881,053_o_m_n_a.png,I,m,692,18,,1708.6000000238419,665828.5999999642,8053,NNB,A,16
