acc_sum,block_c,block_dur,condition,correct,correct_response,countdown,datetime,endtime,project,response,response_time,response_time_test1_response,response_time_test2_response,row_sel,same,session_number,start_end,starttime,stim1,stim2,subject_id,task,task_vers,time_test1,time_test2,trial
1,1,0.0,prac,1,z,30000.0,Wed Jun 25 2025 14:47:04 GMT-0500 (Central Daylight Time),50510.30000001192,O,z,2200,,,1,yes,1,3726.5999999940395,46783.70000001788,practrial1.png,practrial1.png,7187,PC,C,,,1
2,1,0.0,prac,1,m,30000.0,Wed Jun 25 2025 14:47:04 GMT-0500 (Central Daylight Time),56243.80000001192,O,m,4220,,,6,no,1,5728.300000011921,50515.5,practrial6.png,practrial6b.png,7187,PC,C,,,2
3,1,0.0,prac,1,z,30000.0,Wed Jun 25 2025 14:47:04 GMT-0500 (Central Daylight Time),59608.30000001192,O,z,1827,,,3,yes,1,3359.800000011921,56248.5,practrial3.png,practrial3.png,7187,PC,C,,,3
4,1,0.0,prac,1,z,30000.0,Wed Jun 25 2025 14:47:04 GMT-0500 (Central Daylight Time),63224.40000000596,O,z,2083,,,5,yes,1,3610.300000011921,59614.09999999404,practrial5.png,practrial5.png,7187,PC,C,,,4
5,1,0.0,prac,1,m,30000.0,Wed Jun 25 2025 14:47:04 GMT-0500 (Central Daylight Time),66275.20000001788,O,m,1530,,,4,no,1,3045.100000023842,63230.09999999404,practrial4.png,practrial4b.png,7187,PC,C,,,5
6,1,0.0,prac,1,m,30000.0,Wed Jun 25 2025 14:47:04 GMT-0500 (Central Daylight Time),69004.5,O,m,1201,,,2,no,1,2724.4000000059605,66280.09999999404,practrial2.png,practrial2b.png,7187,PC,C,,,6
1,1,2.2330000400543213,test,1,z,27766.99995994568,Wed Jun 25 2025 14:47:04 GMT-0500 (Central Daylight Time),87432.70000001788,O,z,2222,2222,,1,yes,1,2229.2000000178814,85203.5,test1trial1.png,test1trial1.png,7187,PC,C,83001,,1
2,1,3.434000015258789,test,1,m,26565.99998474121,Wed Jun 25 2025 14:47:04 GMT-0500 (Central Daylight Time),88634.0,O,m,1195,1195,,2,no,1,1197.4000000059605,87436.59999999404,test1trial2.png,test1trial2b.png,7187,PC,C,85235,,2
3,1,6.046999931335449,test,1,z,23953.00006866455,Wed Jun 25 2025 14:47:04 GMT-0500 (Central Daylight Time),91247.0,O,z,2593,2593,,3,yes,1,2607.4000000059605,88639.59999999404,test1trial3.png,test1trial3.png,7187,PC,C,86437,,3
4,1,7.332000017166138,test,1,m,22667.999982833862,Wed Jun 25 2025 14:47:04 GMT-0500 (Central Daylight Time),92531.59999999404,O,m,1268,1268,,4,no,1,1279.5,91252.09999999404,test1trial4.png,test1trial4b.png,7187,PC,C,89051,,4
5,1,9.314000129699707,test,1,z,20685.999870300293,Wed Jun 25 2025 14:47:04 GMT-0500 (Central Daylight Time),94514.0,O,z,1969,1969,,5,yes,1,1978.199999988079,92535.80000001192,test1trial5.png,test1trial5.png,7187,PC,C,90334,,5
6,1,10.480000019073486,test,1,m,19519.999980926514,Wed Jun 25 2025 14:47:04 GMT-0500 (Central Daylight Time),95679.59999999404,O,m,1146,1146,,6,no,1,1161.0,94518.59999999404,test1trial6.png,test1trial6b.png,7187,PC,C,92316,,6
7,1,11.77999997138977,test,1,z,18220.00002861023,Wed Jun 25 2025 14:47:04 GMT-0500 (Central Daylight Time),96980.30000001192,O,z,1293,1293,,7,yes,1,1296.0999999940395,95684.20000001788,test1trial7.png,test1trial7.png,7187,PC,C,93483,,7
7,1,13.760999917984009,test,0,m,16239.000082015991,Wed Jun 25 2025 14:47:04 GMT-0500 (Central Daylight Time),98960.80000001192,O,z,1958,1958,,8,no,1,1975.5999999940395,96985.20000001788,test1trial8.png,test1trial8b.png,7187,PC,C,94784,,8
8,1,15.428999900817871,test,1,z,14571.000099182129,Wed Jun 25 2025 14:47:04 GMT-0500 (Central Daylight Time),100628.80000001192,O,z,1655,1655,,9,yes,1,1666.0,98962.80000001192,test1trial9.png,test1trial9.png,7187,PC,C,96760,,9
9,1,16.793999910354614,test,1,m,13206.000089645386,Wed Jun 25 2025 14:47:04 GMT-0500 (Central Daylight Time),101993.90000000596,O,m,1355,1355,,10,no,1,1358.300000011921,100635.59999999404,test1trial10.png,test1trial10b.png,7187,PC,C,98435,,10
10,1,19.094000101089478,test,1,z,10905.999898910522,Wed Jun 25 2025 14:47:04 GMT-0500 (Central Daylight Time),104294.30000001192,O,z,2285,2285,,11,yes,1,2297.7000000178814,101996.59999999404,test1trial11.png,test1trial11.png,7187,PC,C,99794,,11
11,1,21.694000005722046,test,1,m,8305.999994277954,Wed Jun 25 2025 14:47:04 GMT-0500 (Central Daylight Time),106893.90000000596,O,m,2574,2574,,12,no,1,2593.0999999940395,104300.80000001192,test1trial12.png,test1trial12b.png,7187,PC,C,102099,,12
12,1,23.043999910354614,test,1,m,6956.000089645386,Wed Jun 25 2025 14:47:04 GMT-0500 (Central Daylight Time),108244.0,O,m,1345,1345,,13,no,1,1346.0,106898.0,test1trial13.png,test1trial13b.png,7187,PC,C,104696,,13
13,1,24.52500009536743,test,1,m,5474.999904632568,Wed Jun 25 2025 14:47:04 GMT-0500 (Central Daylight Time),109725.0,O,m,1470,1470,,14,no,1,1474.5,108250.5,test1trial14.png,test1trial14b.png,7187,PC,C,106049,,14
14,1,26.22499990463257,test,1,z,3775.0000953674316,Wed Jun 25 2025 14:47:04 GMT-0500 (Central Daylight Time),111425.09999999404,O,z,1688,1688,,15,yes,1,1695.699999988079,109729.40000000596,test1trial15.png,test1trial15.png,7187,PC,C,107527,,15
15,1,27.723999977111816,test,1,m,2276.0000228881836,Wed Jun 25 2025 14:47:04 GMT-0500 (Central Daylight Time),112924.40000000596,O,m,1484,1484,,16,no,1,1495.4000000059605,111429.0,test1trial16.png,test1trial16b.png,7187,PC,C,109227,,16
15,1,30.008000135421753,test,0,z,-8.00013542175293,Wed Jun 25 2025 14:47:04 GMT-0500 (Central Daylight Time),115208.09999999404,O,None,2279,2279,,17,yes,1,2280.0,112928.09999999404,test1trial17.png,test1trial17.png,7187,PC,C,110726,,17
1,2,2.3509998321533203,test,1,m,27649.00016784668,Wed Jun 25 2025 14:47:04 GMT-0500 (Central Daylight Time),120204.40000000596,O,m,2332,,2332.0,1,no,1,7276.300000011921,112928.09999999404,test2trial1.png,test2trial1b.png,7187,PC,C,,115659.0,1
2,2,3.8379998207092285,test,1,m,26162.00017929077,Wed Jun 25 2025 14:47:04 GMT-0500 (Central Daylight Time),121690.80000001192,O,m,1479,,1479.0,2,no,1,8762.700000017881,112928.09999999404,test2trial2.png,test2trial2b.png,7187,PC,C,,118007.0,2
3,2,4.983999967575073,test,1,z,25016.000032424927,Wed Jun 25 2025 14:47:04 GMT-0500 (Central Daylight Time),122837.5,O,z,1144,,1144.0,3,yes,1,9909.40000000596,112928.09999999404,test2trial3.png,test2trial3.png,7187,PC,C,,119490.0,3
4,2,6.200999975204468,test,1,z,23799.000024795532,Wed Jun 25 2025 14:47:04 GMT-0500 (Central Daylight Time),124054.30000001192,O,z,1200,,1200.0,4,yes,1,11126.200000017881,112928.09999999404,test2trial4.png,test2trial4.png,7187,PC,C,,120639.0,4
5,2,7.799999952316284,test,1,z,22200.000047683716,Wed Jun 25 2025 14:47:04 GMT-0500 (Central Daylight Time),125653.70000001788,O,z,1592,,1592.0,5,yes,1,12725.600000023842,112928.09999999404,test2trial5.png,test2trial5.png,7187,PC,C,,121855.0,5
6,2,9.75,test,1,z,20250.0,Wed Jun 25 2025 14:47:04 GMT-0500 (Central Daylight Time),127603.59999999404,O,z,1946,,1946.0,6,yes,1,14675.5,112928.09999999404,test2trial6.png,test2trial6.png,7187,PC,C,,123454.0,6
7,2,11.348999977111816,test,1,m,18651.000022888184,Wed Jun 25 2025 14:47:04 GMT-0500 (Central Daylight Time),129202.40000000596,O,m,1586,,1586.0,7,no,1,16274.300000011921,112928.09999999404,test2trial7.png,test2trial7b.png,7187,PC,C,,125405.0,7
8,2,12.583999872207642,test,1,m,17416.00012779236,Wed Jun 25 2025 14:47:04 GMT-0500 (Central Daylight Time),130437.0,O,m,1230,,1230.0,8,no,1,17508.90000000596,112928.09999999404,test2trial8.png,test2trial8b.png,7187,PC,C,,127003.0,8
9,2,14.582000017166138,test,1,z,15417.999982833862,Wed Jun 25 2025 14:47:04 GMT-0500 (Central Daylight Time),132435.0,O,z,1985,,1985.0,9,yes,1,19506.90000000596,112928.09999999404,test2trial9.png,test2trial9.png,7187,PC,C,,128238.0,9
10,2,15.96399998664856,test,1,z,14036.00001335144,Wed Jun 25 2025 14:47:04 GMT-0500 (Central Daylight Time),133817.70000001788,O,z,1371,,1371.0,10,yes,1,20889.600000023842,112928.09999999404,test2trial10.png,test2trial10.png,7187,PC,C,,130236.0,10
11,2,17.230000019073486,test,1,m,12769.999980926514,Wed Jun 25 2025 14:47:04 GMT-0500 (Central Daylight Time),135083.0,O,m,1260,,1260.0,11,no,1,22154.90000000596,112928.09999999404,test2trial11.png,test2trial11b.png,7187,PC,C,,131619.0,11
12,2,19.429999828338623,test,1,m,10570.000171661377,Wed Jun 25 2025 14:47:04 GMT-0500 (Central Daylight Time),137283.59999999404,O,m,2194,,2194.0,12,no,1,24355.5,112928.09999999404,test2trial12.png,test2trial12b.png,7187,PC,C,,132885.0,12
13,2,20.6969997882843,test,1,z,9303.000211715698,Wed Jun 25 2025 14:47:04 GMT-0500 (Central Daylight Time),138549.80000001192,O,z,1261,,1261.0,13,yes,1,25621.70000001788,112928.09999999404,test2trial13.png,test2trial13.png,7187,PC,C,,135083.0,13
13,2,23.27899980545044,test,0,m,6721.000194549561,Wed Jun 25 2025 14:47:04 GMT-0500 (Central Daylight Time),141131.80000001192,O,z,2567,,2567.0,14,no,1,28203.70000001788,112928.09999999404,test2trial14.png,test2trial14b.png,7187,PC,C,,136352.0,14
14,2,24.411999940872192,test,1,m,5588.000059127808,Wed Jun 25 2025 14:47:04 GMT-0500 (Central Daylight Time),142265.40000000596,O,m,1114,,1114.0,15,no,1,29337.30000001192,112928.09999999404,test2trial15.png,test2trial15b.png,7187,PC,C,,138933.0,15
15,2,26.478999853134155,test,1,m,3521.0001468658447,Wed Jun 25 2025 14:47:04 GMT-0500 (Central Daylight Time),144332.09999999404,O,m,2061,,2061.0,16,no,1,31404.0,112928.09999999404,test2trial16.png,test2trial16b.png,7187,PC,C,,140068.0,16
16,2,27.992999792099,test,1,z,2007.000207901001,Wed Jun 25 2025 14:47:04 GMT-0500 (Central Daylight Time),145845.90000000596,O,z,1496,,1496.0,17,yes,1,32917.80000001192,112928.09999999404,test2trial17.png,test2trial17.png,7187,PC,C,,142134.0,17
17,2,29.694000005722046,test,1,z,305.9999942779541,Wed Jun 25 2025 14:47:04 GMT-0500 (Central Daylight Time),147546.80000001192,O,z,1688,,1688.0,18,yes,1,34618.70000001788,112928.09999999404,test2trial18.png,test2trial18.png,7187,PC,C,,143647.0,18
17,2,30.009999990463257,test,0,z,-9.999990463256836,Wed Jun 25 2025 14:47:04 GMT-0500 (Central Daylight Time),147862.80000001192,O,None,312,,312.0,19,yes,1,34934.70000001788,112928.09999999404,test2trial19.png,test2trial19.png,7187,PC,C,,145348.0,19
