acc_sum,block,block_c,block_cond,con_img,correct,correct_response,datetime,endtime,face,jitter,line,project,response,response_time,row_sel,session_number,start_end,starttime,subject_id,task,task_vers,trial
1,prac,1,A,haborder.png,1,z,Thu Mar 12 2026 14:27:48 GMT-0400 (Eastern Daylight Time),86782.80000001192,CFD-WF-013-015-A.jpg,1000,solid,I,z,1180,12,1,2967.2000000476837,83815.59999996424,9073,ATS,B,1
2,prac,1,A,haborder.png,1,m,Thu Mar 12 2026 14:27:48 GMT-0400 (Eastern Daylight Time),90399.19999998808,CFD-WM-012-007-HC.jpg,1700,solid,I,m,1113,9,1,6583.600000023842,83815.59999996424,9073,ATS,B,2
3,prac,1,A,haborder.png,1,m,Thu Mar 12 2026 14:27:48 GMT-0400 (Eastern Daylight Time),93999.19999998808,CFD-BF-035-007-HC.jpg,2000,solid,I,m,813,5,1,10183.600000023842,83815.59999996424,9073,ATS,B,3
4,prac,1,A,haborder.png,1,m,Thu Mar 12 2026 14:27:48 GMT-0400 (Eastern Daylight Time),97799.39999997616,CFD-BM-015-017-HC.jpg,1700,solid,I,m,1305,1,1,13983.800000011921,83815.59999996424,9073,ATS,B,4
5,prac,1,A,haborder.png,1,m,Thu Mar 12 2026 14:27:48 GMT-0400 (Eastern Daylight Time),101032.5,CFD-WM-011-006-HC.jpg,1400,solid,I,m,1037,7,1,17216.900000035763,83815.59999996424,9073,ATS,B,5
6,prac,1,A,haborder.png,1,z,Thu Mar 12 2026 14:27:48 GMT-0400 (Eastern Daylight Time),104215.89999997616,CFD-WF-026-008-A.jpg,1600,solid,I,z,788,10,1,20400.30000001192,83815.59999996424,9073,ATS,B,6
7,prac,1,A,haborder.png,1,z,Thu Mar 12 2026 14:27:48 GMT-0400 (Eastern Daylight Time),106866.0,CFD-BF-051-043-A.jpg,1000,solid,I,z,861,4,1,23050.400000035763,83815.59999996424,9073,ATS,B,7
8,prac,1,A,haborder.png,1,m,Thu Mar 12 2026 14:27:48 GMT-0400 (Eastern Daylight Time),110099.19999998808,CFD-WF-011-006-HC.jpg,1500,solid,I,m,943,11,1,26283.600000023842,83815.59999996424,9073,ATS,B,8
9,prac,1,A,haborder.png,1,z,Thu Mar 12 2026 14:27:48 GMT-0400 (Eastern Daylight Time),113649.19999998808,CFD-BM-037-041-A.jpg,1600,solid,I,z,1161,2,1,29833.600000023842,83815.59999996424,9073,ATS,B,9
10,prac,1,A,haborder.png,1,z,Thu Mar 12 2026 14:27:48 GMT-0400 (Eastern Daylight Time),116549.39999997616,CFD-BF-050-012-A.jpg,1200,solid,I,z,907,6,1,32733.80000001192,83815.59999996424,9073,ATS,B,10
11,prac,1,A,haborder.png,1,m,Thu Mar 12 2026 14:27:48 GMT-0400 (Eastern Daylight Time),119732.69999998808,CFD-BM-020-024-HC.jpg,1500,solid,I,m,891,3,1,35917.10000002384,83815.59999996424,9073,ATS,B,11
12,prac,1,A,haborder.png,1,z,Thu Mar 12 2026 14:27:48 GMT-0400 (Eastern Daylight Time),123399.09999996424,CFD-WM-009-009-A.jpg,1900,solid,I,z,972,8,1,39583.5,83815.59999996424,9073,ATS,B,12
1,prac,1,B,mfborder.png,1,m,Thu Mar 12 2026 14:27:48 GMT-0400 (Eastern Daylight Time),152899.30000001192,CFD-WM-009-009-A.jpg,1700,dash,I,m,842,9,1,3333.300000011921,149566.0,9073,ATS,B,1
1,prac,1,B,mfborder.png,0,z,Thu Mar 12 2026 14:27:48 GMT-0400 (Eastern Daylight Time),156699.09999996424,CFD-BF-027-013-HC.jpg,1500,dash,I,None,1515,3,1,7133.099999964237,149566.0,9073,ATS,B,2
1,prac,1,B,mfborder.png,0,m,Thu Mar 12 2026 14:27:48 GMT-0400 (Eastern Daylight Time),160199.09999996424,CFD-WM-037-060-A.jpg,1200,dash,I,None,1515,6,1,10633.099999964237,149566.0,9073,ATS,B,3
2,prac,1,B,mfborder.png,1,m,Thu Mar 12 2026 14:27:48 GMT-0400 (Eastern Daylight Time),163516.0,CFD-BM-020-024-HC.jpg,1700,dash,I,m,817,1,1,13950.0,149566.0,9073,ATS,B,4
3,prac,1,B,mfborder.png,1,m,Thu Mar 12 2026 14:27:48 GMT-0400 (Eastern Daylight Time),166849.19999998808,CFD-BM-041-048-A.jpg,1600,dash,I,m,944,2,1,17283.19999998808,149566.0,9073,ATS,B,5
3,prac,1,B,mfborder.png,0,z,Thu Mar 12 2026 14:27:48 GMT-0400 (Eastern Daylight Time),170149.19999998808,CFD-WF-011-006-HC.jpg,1000,dash,I,None,1515,12,1,20583.19999998808,149566.0,9073,ATS,B,6
4,prac,1,B,mfborder.png,1,z,Thu Mar 12 2026 14:27:48 GMT-0400 (Eastern Daylight Time),173216.0,CFD-WF-026-008-A.jpg,1500,dash,I,z,779,11,1,23650.0,149566.0,9073,ATS,B,7
5,prac,1,B,mfborder.png,1,z,Thu Mar 12 2026 14:27:48 GMT-0400 (Eastern Daylight Time),175749.30000001192,CFD-BF-051-043-A.jpg,1000,dash,I,z,740,4,1,26183.30000001192,149566.0,9073,ATS,B,8
6,prac,1,B,mfborder.png,1,m,Thu Mar 12 2026 14:27:48 GMT-0400 (Eastern Daylight Time),179132.69999998808,CFD-BM-037-041-A.jpg,2000,dash,I,m,583,5,1,29566.69999998808,149566.0,9073,ATS,B,9
7,prac,1,B,mfborder.png,1,z,Thu Mar 12 2026 14:27:48 GMT-0400 (Eastern Daylight Time),182699.30000001192,CFD-WF-027-007-HC.jpg,1900,dash,I,z,867,8,1,33133.30000001192,149566.0,9073,ATS,B,10
8,prac,1,B,mfborder.png,1,m,Thu Mar 12 2026 14:27:48 GMT-0400 (Eastern Daylight Time),185782.69999998808,CFD-WM-012-007-HC.jpg,1600,dash,I,m,689,10,1,36216.69999998808,149566.0,9073,ATS,B,11
8,prac,1,B,mfborder.png,0,z,Thu Mar 12 2026 14:27:48 GMT-0400 (Eastern Daylight Time),189482.5,CFD-BF-035-007-HC.jpg,1400,dash,I,None,1514,7,1,39916.5,149566.0,9073,ATS,B,12
0,test,1,A,haborder.png,0,m,Thu Mar 12 2026 14:27:48 GMT-0400 (Eastern Daylight Time),211615.59999996424,CFD-WM-012-007-HC.jpg,1700,solid,I,None,1516,9,1,3232.899999976158,208382.69999998808,9073,ATS,B,1
1,test,1,A,haborder.png,1,m,Thu Mar 12 2026 14:27:48 GMT-0400 (Eastern Daylight Time),213865.89999997616,CFD-WM-011-006-HC.jpg,1400,solid,I,m,821,7,1,5483.199999988079,208382.69999998808,9073,ATS,B,2
2,test,1,A,haborder.png,1,z,Thu Mar 12 2026 14:27:48 GMT-0400 (Eastern Daylight Time),215749.19999998808,CFD-WF-013-015-A.jpg,1000,solid,I,z,859,12,1,7366.5,208382.69999998808,9073,ATS,B,3
2,test,1,A,haborder.png,0,m,Thu Mar 12 2026 14:27:48 GMT-0400 (Eastern Daylight Time),218249.19999998808,CFD-BM-020-024-HC.jpg,1500,solid,I,z,971,3,1,9866.5,208382.69999998808,9073,ATS,B,4
3,test,1,A,haborder.png,1,z,Thu Mar 12 2026 14:27:48 GMT-0400 (Eastern Daylight Time),220832.39999997616,CFD-WF-026-008-A.jpg,1600,solid,I,z,963,10,1,12449.699999988079,208382.69999998808,9073,ATS,B,5
4,test,1,A,haborder.png,1,m,Thu Mar 12 2026 14:27:48 GMT-0400 (Eastern Daylight Time),223899.09999996424,CFD-BF-035-007-HC.jpg,2000,solid,I,m,1036,5,1,15516.399999976158,208382.69999998808,9073,ATS,B,6
5,test,1,A,haborder.png,1,z,Thu Mar 12 2026 14:27:48 GMT-0400 (Eastern Daylight Time),226099.19999998808,CFD-WF-013-015-A.jpg,1000,solid,I,z,1177,12,1,17716.5,208382.69999998808,9073,ATS,B,7
6,test,1,A,haborder.png,1,m,Thu Mar 12 2026 14:27:48 GMT-0400 (Eastern Daylight Time),229282.59999996424,CFD-BM-015-017-HC.jpg,1700,solid,I,m,1461,1,1,20899.899999976158,208382.69999998808,9073,ATS,B,8
7,test,1,A,haborder.png,1,z,Thu Mar 12 2026 14:27:48 GMT-0400 (Eastern Daylight Time),232082.5,CFD-WM-009-009-A.jpg,1900,solid,I,z,878,8,1,23699.80000001192,208382.69999998808,9073,ATS,B,9
8,test,1,A,haborder.png,1,m,Thu Mar 12 2026 14:27:48 GMT-0400 (Eastern Daylight Time),234732.5,CFD-WM-012-007-HC.jpg,1700,solid,I,m,918,9,1,26349.80000001192,208382.69999998808,9073,ATS,B,10
9,test,1,A,haborder.png,1,z,Thu Mar 12 2026 14:27:48 GMT-0400 (Eastern Daylight Time),236649.19999998808,CFD-BF-051-043-A.jpg,1000,solid,I,z,888,4,1,28266.5,208382.69999998808,9073,ATS,B,11
10,test,1,A,haborder.png,1,m,Thu Mar 12 2026 14:27:48 GMT-0400 (Eastern Daylight Time),239600.19999998808,CFD-BF-035-007-HC.jpg,2000,solid,I,m,931,5,1,31217.5,208382.69999998808,9073,ATS,B,12
11,test,1,A,haborder.png,1,z,Thu Mar 12 2026 14:27:48 GMT-0400 (Eastern Daylight Time),241732.59999996424,CFD-BF-051-043-A.jpg,1000,solid,I,z,1109,4,1,33349.89999997616,208382.69999998808,9073,ATS,B,13
12,test,1,A,haborder.png,1,z,Thu Mar 12 2026 14:27:48 GMT-0400 (Eastern Daylight Time),244365.69999998808,CFD-BM-037-041-A.jpg,1600,solid,I,z,999,2,1,35983.0,208382.69999998808,9073,ATS,B,14
13,test,1,A,haborder.png,1,z,Thu Mar 12 2026 14:27:48 GMT-0400 (Eastern Daylight Time),246632.39999997616,CFD-BF-050-012-A.jpg,1200,solid,I,z,1038,6,1,38249.69999998808,208382.69999998808,9073,ATS,B,15
14,test,1,A,haborder.png,1,m,Thu Mar 12 2026 14:27:48 GMT-0400 (Eastern Daylight Time),248949.30000001192,CFD-BM-020-024-HC.jpg,1500,solid,I,m,792,3,1,40566.60000002384,208382.69999998808,9073,ATS,B,16
15,test,1,A,haborder.png,1,m,Thu Mar 12 2026 14:27:48 GMT-0400 (Eastern Daylight Time),251182.59999996424,CFD-WM-011-006-HC.jpg,1400,solid,I,m,799,7,1,42799.89999997616,208382.69999998808,9073,ATS,B,17
16,test,1,A,haborder.png,1,z,Thu Mar 12 2026 14:27:48 GMT-0400 (Eastern Daylight Time),254149.09999996424,CFD-BM-037-041-A.jpg,1600,solid,I,z,1342,2,1,45766.39999997616,208382.69999998808,9073,ATS,B,18
17,test,1,A,haborder.png,1,m,Thu Mar 12 2026 14:27:48 GMT-0400 (Eastern Daylight Time),256499.30000001192,CFD-WF-011-006-HC.jpg,1500,solid,I,m,827,11,1,48116.60000002384,208382.69999998808,9073,ATS,B,19
18,test,1,A,haborder.png,1,z,Thu Mar 12 2026 14:27:48 GMT-0400 (Eastern Daylight Time),258565.89999997616,CFD-BF-050-012-A.jpg,1200,solid,I,z,841,6,1,50183.19999998808,208382.69999998808,9073,ATS,B,20
19,test,1,A,haborder.png,1,z,Thu Mar 12 2026 14:27:48 GMT-0400 (Eastern Daylight Time),261132.59999996424,CFD-WF-026-008-A.jpg,1600,solid,I,z,935,10,1,52749.89999997616,208382.69999998808,9073,ATS,B,21
20,test,1,A,haborder.png,1,m,Thu Mar 12 2026 14:27:48 GMT-0400 (Eastern Daylight Time),263332.59999996424,CFD-WF-011-006-HC.jpg,1500,solid,I,m,676,11,1,54949.89999997616,208382.69999998808,9073,ATS,B,22
21,test,1,A,haborder.png,1,z,Thu Mar 12 2026 14:27:48 GMT-0400 (Eastern Daylight Time),266249.3000000119,CFD-WM-009-009-A.jpg,1900,solid,I,z,988,8,1,57866.60000002384,208382.69999998808,9073,ATS,B,23
22,test,1,A,haborder.png,1,m,Thu Mar 12 2026 14:27:48 GMT-0400 (Eastern Daylight Time),268899.3000000119,CFD-BM-015-017-HC.jpg,1700,solid,I,m,927,1,1,60516.60000002384,208382.69999998808,9073,ATS,B,24
0,test,1,B,mfborder.png,0,z,Thu Mar 12 2026 14:27:48 GMT-0400 (Eastern Daylight Time),281399.3000000119,CFD-WF-011-006-HC.jpg,1000,dash,I,m,906,12,1,1933.2000000476837,279466.09999996424,9073,ATS,B,1
1,test,1,B,mfborder.png,1,z,Thu Mar 12 2026 14:27:48 GMT-0400 (Eastern Daylight Time),284349.3000000119,CFD-WF-026-008-A.jpg,1500,dash,I,z,1400,11,1,4883.200000047684,279466.09999996424,9073,ATS,B,2
2,test,1,B,mfborder.png,1,z,Thu Mar 12 2026 14:27:48 GMT-0400 (Eastern Daylight Time),286715.89999997616,CFD-BF-027-013-HC.jpg,1500,dash,I,z,835,3,1,7249.800000011921,279466.09999996424,9073,ATS,B,3
3,test,1,B,mfborder.png,1,z,Thu Mar 12 2026 14:27:48 GMT-0400 (Eastern Daylight Time),289332.59999996424,CFD-WF-027-007-HC.jpg,1900,dash,I,z,692,8,1,9866.5,279466.09999996424,9073,ATS,B,4
4,test,1,B,mfborder.png,1,m,Thu Mar 12 2026 14:27:48 GMT-0400 (Eastern Daylight Time),292065.89999997616,CFD-BM-037-041-A.jpg,2000,dash,I,m,712,5,1,12599.800000011921,279466.09999996424,9073,ATS,B,5
5,test,1,B,mfborder.png,1,m,Thu Mar 12 2026 14:27:48 GMT-0400 (Eastern Daylight Time),294099.3000000119,CFD-WM-037-060-A.jpg,1200,dash,I,m,810,6,1,14633.200000047684,279466.09999996424,9073,ATS,B,6
6,test,1,B,mfborder.png,1,z,Thu Mar 12 2026 14:27:48 GMT-0400 (Eastern Daylight Time),296782.59999996424,CFD-WF-027-007-HC.jpg,1900,dash,I,z,749,8,1,17316.5,279466.09999996424,9073,ATS,B,7
7,test,1,B,mfborder.png,1,m,Thu Mar 12 2026 14:27:48 GMT-0400 (Eastern Daylight Time),299599.0,CFD-WM-012-007-HC.jpg,1600,dash,I,m,1198,10,1,20132.900000035763,279466.09999996424,9073,ATS,B,8
7,test,1,B,mfborder.png,0,z,Thu Mar 12 2026 14:27:48 GMT-0400 (Eastern Daylight Time),302532.89999997616,CFD-BF-035-007-HC.jpg,1400,dash,I,None,1516,7,1,23066.80000001192,279466.09999996424,9073,ATS,B,9
8,test,1,B,mfborder.png,1,m,Thu Mar 12 2026 14:27:48 GMT-0400 (Eastern Daylight Time),304999.39999997616,CFD-BM-020-024-HC.jpg,1700,dash,I,m,741,1,1,25533.30000001192,279466.09999996424,9073,ATS,B,10
9,test,1,B,mfborder.png,1,m,Thu Mar 12 2026 14:27:48 GMT-0400 (Eastern Daylight Time),308116.0,CFD-BM-037-041-A.jpg,2000,dash,I,m,1093,5,1,28649.900000035763,279466.09999996424,9073,ATS,B,11
10,test,1,B,mfborder.png,1,m,Thu Mar 12 2026 14:27:48 GMT-0400 (Eastern Daylight Time),310366.0,CFD-BM-041-048-A.jpg,1600,dash,I,m,617,2,1,30899.900000035763,279466.09999996424,9073,ATS,B,12
11,test,1,B,mfborder.png,1,z,Thu Mar 12 2026 14:27:48 GMT-0400 (Eastern Daylight Time),312632.6999999881,CFD-BF-027-013-HC.jpg,1500,dash,I,z,738,3,1,33166.60000002384,279466.09999996424,9073,ATS,B,13
12,test,1,B,mfborder.png,1,m,Thu Mar 12 2026 14:27:48 GMT-0400 (Eastern Daylight Time),315149.3000000119,CFD-WM-009-009-A.jpg,1700,dash,I,m,784,9,1,35683.200000047684,279466.09999996424,9073,ATS,B,14
13,test,1,B,mfborder.png,1,m,Thu Mar 12 2026 14:27:48 GMT-0400 (Eastern Daylight Time),317632.5,CFD-WM-009-009-A.jpg,1700,dash,I,m,763,9,1,38166.40000003576,279466.09999996424,9073,ATS,B,15
14,test,1,B,mfborder.png,1,m,Thu Mar 12 2026 14:27:48 GMT-0400 (Eastern Daylight Time),320166.0,CFD-WM-037-060-A.jpg,1200,dash,I,m,1308,6,1,40699.90000003576,279466.09999996424,9073,ATS,B,16
15,test,1,B,mfborder.png,1,z,Thu Mar 12 2026 14:27:48 GMT-0400 (Eastern Daylight Time),321899.3000000119,CFD-WF-011-006-HC.jpg,1000,dash,I,z,702,12,1,42433.200000047684,279466.09999996424,9073,ATS,B,17
16,test,1,B,mfborder.png,1,z,Thu Mar 12 2026 14:27:48 GMT-0400 (Eastern Daylight Time),323849.3000000119,CFD-BF-051-043-A.jpg,1000,dash,I,z,921,4,1,44383.200000047684,279466.09999996424,9073,ATS,B,18
17,test,1,B,mfborder.png,1,z,Thu Mar 12 2026 14:27:48 GMT-0400 (Eastern Daylight Time),325516.09999996424,CFD-BF-051-043-A.jpg,1000,dash,I,z,635,4,1,46050.0,279466.09999996424,9073,ATS,B,19
18,test,1,B,mfborder.png,1,m,Thu Mar 12 2026 14:27:48 GMT-0400 (Eastern Daylight Time),327949.3000000119,CFD-WM-012-007-HC.jpg,1600,dash,I,m,800,10,1,48483.200000047684,279466.09999996424,9073,ATS,B,20
19,test,1,B,mfborder.png,1,z,Thu Mar 12 2026 14:27:48 GMT-0400 (Eastern Daylight Time),330432.5,CFD-WF-026-008-A.jpg,1500,dash,I,z,946,11,1,50966.40000003576,279466.09999996424,9073,ATS,B,21
20,test,1,B,mfborder.png,1,m,Thu Mar 12 2026 14:27:48 GMT-0400 (Eastern Daylight Time),332832.5,CFD-BM-020-024-HC.jpg,1700,dash,I,m,680,1,1,53366.40000003576,279466.09999996424,9073,ATS,B,22
21,test,1,B,mfborder.png,1,m,Thu Mar 12 2026 14:27:48 GMT-0400 (Eastern Daylight Time),335182.89999997616,CFD-BM-041-048-A.jpg,1600,dash,I,m,732,2,1,55716.80000001192,279466.09999996424,9073,ATS,B,23
22,test,1,B,mfborder.png,1,z,Thu Mar 12 2026 14:27:48 GMT-0400 (Eastern Daylight Time),337882.6999999881,CFD-BF-035-007-HC.jpg,1400,dash,I,z,1272,7,1,58416.60000002384,279466.09999996424,9073,ATS,B,24
1,6,1,C,mfborder.png,1,m,Thu Mar 12 2026 14:27:48 GMT-0400 (Eastern Daylight Time),424833.09999996424,CFD-WM-009-009-A.jpg,1700,solid,I,m,1245,prac,1,3733.5,421099.59999996424,9073,ATS,B,1
1,10,1,C,haborder.png,0,m,Thu Mar 12 2026 14:27:48 GMT-0400 (Eastern Daylight Time),428632.89999997616,CFD-BM-020-024-HC.jpg,1500,solid,I,None,1516,prac,1,7533.300000011921,421099.59999996424,9073,ATS,B,2
2,9,1,C,haborder.png,1,z,Thu Mar 12 2026 14:27:48 GMT-0400 (Eastern Daylight Time),432233.09999996424,CFD-WF-026-008-A.jpg,1600,dash,I,z,1205,prac,1,11133.5,421099.59999996424,9073,ATS,B,3
3,4,1,C,mfborder.png,1,m,Thu Mar 12 2026 14:27:48 GMT-0400 (Eastern Daylight Time),435766.39999997616,CFD-BM-015-017-HC.jpg,2000,solid,I,m,740,prac,1,14666.800000011921,421099.59999996424,9073,ATS,B,4
4,3,1,C,mfborder.png,1,z,Thu Mar 12 2026 14:27:48 GMT-0400 (Eastern Daylight Time),438249.59999996424,CFD-BF-035-007-HC.jpg,1000,dash,I,z,687,prac,1,17150.0,421099.59999996424,9073,ATS,B,5
5,11,1,C,haborder.png,1,m,Thu Mar 12 2026 14:27:48 GMT-0400 (Eastern Daylight Time),441449.6999999881,CFD-WM-011-006-HC.jpg,1000,dash,I,m,1403,prac,1,20350.100000023842,421099.59999996424,9073,ATS,B,6
6,8,1,C,haborder.png,1,z,Thu Mar 12 2026 14:27:48 GMT-0400 (Eastern Daylight Time),444999.59999996424,CFD-BF-050-012-A.jpg,1700,solid,I,z,1055,prac,1,23900.0,421099.59999996424,9073,ATS,B,7
7,7,1,C,haborder.png,1,z,Thu Mar 12 2026 14:27:48 GMT-0400 (Eastern Daylight Time),448816.39999997616,CFD-BF-051-043-A.jpg,1900,dash,I,z,1130,prac,1,27716.80000001192,421099.59999996424,9073,ATS,B,8
8,12,1,C,haborder.png,1,m,Thu Mar 12 2026 14:27:48 GMT-0400 (Eastern Daylight Time),451665.8000000119,CFD-WM-011-006-HC.jpg,1400,solid,I,m,662,prac,1,30566.200000047684,421099.59999996424,9073,ATS,B,9
9,1,1,C,mfborder.png,1,z,Thu Mar 12 2026 14:27:48 GMT-0400 (Eastern Daylight Time),455316.39999997616,CFD-WF-011-006-HC.jpg,1600,dash,I,z,1260,prac,1,34216.80000001192,421099.59999996424,9073,ATS,B,10
9,2,1,C,mfborder.png,0,z,Thu Mar 12 2026 14:27:48 GMT-0400 (Eastern Daylight Time),459116.09999996424,CFD-WF-013-015-A.jpg,1500,solid,I,None,1516,prac,1,38016.5,421099.59999996424,9073,ATS,B,11
10,5,1,C,mfborder.png,1,m,Thu Mar 12 2026 14:27:48 GMT-0400 (Eastern Daylight Time),461749.8000000119,CFD-BM-037-041-A.jpg,1200,dash,I,m,656,prac,1,40650.200000047684,421099.59999996424,9073,ATS,B,12
0,test,1,C,haborder.png,0,m,Thu Mar 12 2026 14:27:48 GMT-0400 (Eastern Daylight Time),493033.09999996424,CFD-WF-027-007-HC.jpg,1500,solid,I,z,1022,11,1,2550.099999964237,490483.0,9073,ATS,B,1
1,test,1,C,mfborder.png,1,m,Thu Mar 12 2026 14:27:48 GMT-0400 (Eastern Daylight Time),496000.59999996424,CFD-WM-037-060-A.jpg,2000,dash,I,m,948,5,1,5517.599999964237,490483.0,9073,ATS,B,2
1,test,1,C,haborder.png,0,m,Thu Mar 12 2026 14:27:48 GMT-0400 (Eastern Daylight Time),497882.89999997616,CFD-WF-011-006-HC.jpg,1000,solid,I,z,853,12,1,7399.899999976158,490483.0,9073,ATS,B,3
1,test,1,C,mfborder.png,0,m,Thu Mar 12 2026 14:27:48 GMT-0400 (Eastern Daylight Time),500416.3000000119,CFD-WM-012-007-HC.jpg,1000,dash,I,None,1516,4,1,9933.300000011921,490483.0,9073,ATS,B,4
1,test,1,C,haborder.png,0,m,Thu Mar 12 2026 14:27:48 GMT-0400 (Eastern Daylight Time),502782.89999997616,CFD-WF-027-007-HC.jpg,1500,solid,I,z,833,11,1,12299.899999976158,490483.0,9073,ATS,B,5
1,test,1,C,haborder.png,0,m,Thu Mar 12 2026 14:27:48 GMT-0400 (Eastern Daylight Time),504649.59999996424,CFD-WF-011-006-HC.jpg,1000,solid,I,z,839,12,1,14166.599999964237,490483.0,9073,ATS,B,6
2,test,1,C,mfborder.png,1,z,Thu Mar 12 2026 14:27:48 GMT-0400 (Eastern Daylight Time),507316.1999999881,CFD-BF-051-043-A.jpg,1600,dash,I,z,1044,2,1,16833.19999998808,490483.0,9073,ATS,B,7
3,test,1,C,mfborder.png,1,z,Thu Mar 12 2026 14:27:48 GMT-0400 (Eastern Daylight Time),509816.3000000119,CFD-WF-026-008-A.jpg,1500,dash,I,z,973,3,1,19333.30000001192,490483.0,9073,ATS,B,8
3,test,1,C,haborder.png,0,z,Thu Mar 12 2026 14:27:48 GMT-0400 (Eastern Daylight Time),512382.8000000119,CFD-WM-009-009-A.jpg,1400,solid,I,m,1134,7,1,21899.80000001192,490483.0,9073,ATS,B,9
3,test,1,C,haborder.png,0,z,Thu Mar 12 2026 14:27:48 GMT-0400 (Eastern Daylight Time),515200.6999999881,CFD-BM-037-041-A.jpg,1900,solid,I,m,899,8,1,24717.69999998808,490483.0,9073,ATS,B,10
4,test,1,C,mfborder.png,1,z,Thu Mar 12 2026 14:27:48 GMT-0400 (Eastern Daylight Time),518032.89999997616,CFD-BF-027-013-HC.jpg,1700,dash,I,z,1114,1,1,27549.899999976158,490483.0,9073,ATS,B,11
4,test,1,C,haborder.png,0,z,Thu Mar 12 2026 14:27:48 GMT-0400 (Eastern Daylight Time),521266.39999997616,CFD-BM-041-048-A.jpg,1700,solid,I,None,1516,9,1,30783.399999976158,490483.0,9073,ATS,B,12
4,test,1,C,mfborder.png,0,m,Thu Mar 12 2026 14:27:48 GMT-0400 (Eastern Daylight Time),523999.6999999881,CFD-BM-020-024-HC.jpg,1200,dash,I,None,1516,6,1,33516.69999998808,490483.0,9073,ATS,B,13
5,test,1,C,mfborder.png,1,z,Thu Mar 12 2026 14:27:48 GMT-0400 (Eastern Daylight Time),526582.8999999762,CFD-WF-026-008-A.jpg,1500,dash,I,z,1058,3,1,36099.89999997616,490483.0,9073,ATS,B,14
6,test,1,C,haborder.png,1,z,Thu Mar 12 2026 14:27:48 GMT-0400 (Eastern Daylight Time),529616.0,CFD-BM-037-041-A.jpg,1900,solid,I,z,1115,8,1,39133.0,490483.0,9073,ATS,B,15
7,test,1,C,mfborder.png,1,z,Thu Mar 12 2026 14:27:48 GMT-0400 (Eastern Daylight Time),532516.3999999762,CFD-BF-051-043-A.jpg,1600,dash,I,z,1277,2,1,42033.39999997616,490483.0,9073,ATS,B,16
7,test,1,C,mfborder.png,0,z,Thu Mar 12 2026 14:27:48 GMT-0400 (Eastern Daylight Time),535733.8000000119,CFD-BF-027-013-HC.jpg,1700,dash,I,None,1501,1,1,45250.80000001192,490483.0,9073,ATS,B,17
8,test,1,C,mfborder.png,1,m,Thu Mar 12 2026 14:27:48 GMT-0400 (Eastern Daylight Time),538182.6999999881,CFD-WM-012-007-HC.jpg,1000,dash,I,m,1424,4,1,47699.69999998808,490483.0,9073,ATS,B,18
9,test,1,C,haborder.png,1,z,Thu Mar 12 2026 14:27:48 GMT-0400 (Eastern Daylight Time),541216.0999999642,CFD-BM-041-048-A.jpg,1700,solid,I,z,1315,9,1,50733.09999996424,490483.0,9073,ATS,B,19
9,test,1,C,mfborder.png,0,m,Thu Mar 12 2026 14:27:48 GMT-0400 (Eastern Daylight Time),544499.5999999642,CFD-WM-037-060-A.jpg,2000,dash,I,z,1262,5,1,54016.59999996424,490483.0,9073,ATS,B,20
9,test,1,C,haborder.png,0,m,Thu Mar 12 2026 14:27:48 GMT-0400 (Eastern Daylight Time),547633.0999999642,CFD-BF-035-007-HC.jpg,1600,solid,I,None,1516,10,1,57150.09999996424,490483.0,9073,ATS,B,21
9,test,1,C,haborder.png,0,m,Thu Mar 12 2026 14:27:48 GMT-0400 (Eastern Daylight Time),550116.3999999762,CFD-BF-035-007-HC.jpg,1600,solid,I,z,861,10,1,59633.39999997616,490483.0,9073,ATS,B,22
10,test,1,C,mfborder.png,1,m,Thu Mar 12 2026 14:27:48 GMT-0400 (Eastern Daylight Time),552034.0,CFD-BM-020-024-HC.jpg,1200,dash,I,m,697,6,1,61551.0,490483.0,9073,ATS,B,23
10,test,1,C,haborder.png,0,z,Thu Mar 12 2026 14:27:48 GMT-0400 (Eastern Daylight Time),554283.0,CFD-WM-009-009-A.jpg,1400,solid,I,m,820,7,1,63800.0,490483.0,9073,ATS,B,24
0,test,2,C,mfborder.png,0,z,Thu Mar 12 2026 14:27:48 GMT-0400 (Eastern Daylight Time),580216.5999999642,CFD-BF-035-007-HC.jpg,1500,dash,I,None,1516,3,1,3033.099999964237,577183.5,9073,ATS,B,1
1,test,2,C,haborder.png,1,z,Thu Mar 12 2026 14:27:48 GMT-0400 (Eastern Daylight Time),582783.0999999642,CFD-WF-026-008-A.jpg,1700,solid,I,z,849,9,1,5599.599999964237,577183.5,9073,ATS,B,2
2,test,2,C,mfborder.png,1,m,Thu Mar 12 2026 14:27:48 GMT-0400 (Eastern Daylight Time),585116.3999999762,CFD-WM-009-009-A.jpg,1200,dash,I,m,1103,6,1,7932.899999976158,577183.5,9073,ATS,B,3
3,test,2,C,haborder.png,1,m,Thu Mar 12 2026 14:27:48 GMT-0400 (Eastern Daylight Time),587399.6999999881,CFD-WM-011-006-HC.jpg,1500,solid,I,m,758,11,1,10216.199999988079,577183.5,9073,ATS,B,4
3,test,2,C,haborder.png,0,z,Thu Mar 12 2026 14:27:48 GMT-0400 (Eastern Daylight Time),590032.8999999762,CFD-BF-051-043-A.jpg,1400,solid,I,m,1214,7,1,12849.399999976158,577183.5,9073,ATS,B,5
4,test,2,C,haborder.png,1,z,Thu Mar 12 2026 14:27:48 GMT-0400 (Eastern Daylight Time),593066.3999999762,CFD-BF-050-012-A.jpg,1900,solid,I,z,1105,8,1,15882.899999976158,577183.5,9073,ATS,B,6
5,test,2,C,haborder.png,1,m,Thu Mar 12 2026 14:27:48 GMT-0400 (Eastern Daylight Time),595899.6999999881,CFD-WM-011-006-HC.jpg,1500,solid,I,m,1303,11,1,18716.19999998808,577183.5,9073,ATS,B,7
5,test,2,C,haborder.png,0,m,Thu Mar 12 2026 14:27:48 GMT-0400 (Eastern Daylight Time),599033.1999999881,CFD-BM-020-024-HC.jpg,1600,solid,I,None,1516,10,1,21849.69999998808,577183.5,9073,ATS,B,8
6,test,2,C,haborder.png,1,z,Thu Mar 12 2026 14:27:48 GMT-0400 (Eastern Daylight Time),601233.0999999642,CFD-BF-051-043-A.jpg,1400,solid,I,z,781,7,1,24049.599999964237,577183.5,9073,ATS,B,9
7,test,2,C,haborder.png,1,m,Thu Mar 12 2026 14:27:48 GMT-0400 (Eastern Daylight Time),604099.8000000119,CFD-BM-020-024-HC.jpg,1600,solid,I,m,1245,10,1,26916.30000001192,577183.5,9073,ATS,B,10
7,test,2,C,mfborder.png,0,m,Thu Mar 12 2026 14:27:48 GMT-0400 (Eastern Daylight Time),606833.1999999881,CFD-WM-009-009-A.jpg,1200,dash,I,None,1516,6,1,29649.69999998808,577183.5,9073,ATS,B,11
7,test,2,C,mfborder.png,0,z,Thu Mar 12 2026 14:27:48 GMT-0400 (Eastern Daylight Time),609249.6999999881,CFD-WF-013-015-A.jpg,1600,dash,I,m,797,2,1,32066.19999998808,577183.5,9073,ATS,B,12
7,test,2,C,haborder.png,0,m,Thu Mar 12 2026 14:27:48 GMT-0400 (Eastern Daylight Time),611783.0,CFD-WM-011-006-HC.jpg,1000,solid,I,None,1516,12,1,34599.5,577183.5,9073,ATS,B,13
7,test,2,C,mfborder.png,0,m,Thu Mar 12 2026 14:27:48 GMT-0400 (Eastern Daylight Time),613983.1999999881,CFD-BM-015-017-HC.jpg,1000,dash,I,z,1183,4,1,36799.69999998808,577183.5,9073,ATS,B,14
7,test,2,C,haborder.png,0,z,Thu Mar 12 2026 14:27:48 GMT-0400 (Eastern Daylight Time),616916.3999999762,CFD-WF-026-008-A.jpg,1700,solid,I,m,1211,9,1,39732.89999997616,577183.5,9073,ATS,B,15
7,test,2,C,haborder.png,0,z,Thu Mar 12 2026 14:27:48 GMT-0400 (Eastern Daylight Time),619199.6999999881,CFD-BF-050-012-A.jpg,1900,solid,I,m,365,8,1,42016.19999998808,577183.5,9073,ATS,B,16
8,test,2,C,mfborder.png,1,z,Thu Mar 12 2026 14:27:48 GMT-0400 (Eastern Daylight Time),620933.1999999881,CFD-BF-035-007-HC.jpg,1500,dash,I,z,210,3,1,43749.69999998808,577183.5,9073,ATS,B,17
9,test,2,C,mfborder.png,1,m,Thu Mar 12 2026 14:27:48 GMT-0400 (Eastern Daylight Time),623666.3000000119,CFD-BM-037-041-A.jpg,2000,dash,I,m,713,5,1,46482.80000001192,577183.5,9073,ATS,B,18
9,test,2,C,mfborder.png,0,m,Thu Mar 12 2026 14:27:48 GMT-0400 (Eastern Daylight Time),626200.6999999881,CFD-BM-015-017-HC.jpg,1000,dash,I,None,1516,4,1,49017.19999998808,577183.5,9073,ATS,B,19
9,test,2,C,mfborder.png,0,z,Thu Mar 12 2026 14:27:48 GMT-0400 (Eastern Daylight Time),629283.0999999642,CFD-WF-013-015-A.jpg,1600,dash,I,m,1462,2,1,52099.59999996424,577183.5,9073,ATS,B,20
9,test,2,C,mfborder.png,0,z,Thu Mar 12 2026 14:27:48 GMT-0400 (Eastern Daylight Time),632516.5999999642,CFD-WF-011-006-HC.jpg,1700,dash,I,None,1516,1,1,55333.09999996424,577183.5,9073,ATS,B,21
10,test,2,C,mfborder.png,1,m,Thu Mar 12 2026 14:27:48 GMT-0400 (Eastern Daylight Time),635799.8000000119,CFD-BM-037-041-A.jpg,2000,dash,I,m,1257,5,1,58616.30000001192,577183.5,9073,ATS,B,22
11,test,2,C,mfborder.png,1,z,Thu Mar 12 2026 14:27:48 GMT-0400 (Eastern Daylight Time),638216.3000000119,CFD-WF-011-006-HC.jpg,1700,dash,I,z,690,1,1,61032.80000001192,577183.5,9073,ATS,B,23
12,test,2,C,haborder.png,1,m,Thu Mar 12 2026 14:27:48 GMT-0400 (Eastern Daylight Time),640449.6999999881,CFD-WM-011-006-HC.jpg,1000,solid,I,m,1213,12,1,63266.19999998808,577183.5,9073,ATS,B,24
0,test,3,C,haborder.png,0,m,Thu Mar 12 2026 14:27:48 GMT-0400 (Eastern Daylight Time),703500.8999999762,CFD-WF-027-007-HC.jpg,1500,solid,I,None,1516,11,1,3034.099999964237,700466.8000000119,9073,ATS,B,1
0,test,3,C,mfborder.png,0,z,Thu Mar 12 2026 14:27:48 GMT-0400 (Eastern Daylight Time),706532.8999999762,CFD-WF-026-008-A.jpg,1500,dash,I,None,1516,3,1,6066.099999964237,700466.8000000119,9073,ATS,B,2
0,test,3,C,haborder.png,0,m,Thu Mar 12 2026 14:27:48 GMT-0400 (Eastern Daylight Time),709616.5,CFD-BF-035-007-HC.jpg,1600,solid,I,z,1465,10,1,9149.699999988079,700466.8000000119,9073,ATS,B,3
0,test,3,C,haborder.png,0,z,Thu Mar 12 2026 14:27:48 GMT-0400 (Eastern Daylight Time),711983.3000000119,CFD-WM-009-009-A.jpg,1400,solid,I,m,949,7,1,11516.5,700466.8000000119,9073,ATS,B,4
0,test,3,C,haborder.png,0,z,Thu Mar 12 2026 14:27:48 GMT-0400 (Eastern Daylight Time),714883.1999999881,CFD-BM-041-048-A.jpg,1700,solid,I,m,1178,9,1,14416.399999976158,700466.8000000119,9073,ATS,B,5
0,test,3,C,haborder.png,0,m,Thu Mar 12 2026 14:27:48 GMT-0400 (Eastern Daylight Time),717983.5999999642,CFD-BF-035-007-HC.jpg,1600,solid,I,z,1483,10,1,17516.799999952316,700466.8000000119,9073,ATS,B,6
0,test,3,C,haborder.png,0,z,Thu Mar 12 2026 14:27:48 GMT-0400 (Eastern Daylight Time),721416.6999999881,CFD-BM-037-041-A.jpg,1900,solid,I,None,1516,8,1,20949.899999976158,700466.8000000119,9073,ATS,B,7
0,test,3,C,haborder.png,0,m,Thu Mar 12 2026 14:27:48 GMT-0400 (Eastern Daylight Time),723950.0,CFD-WF-011-006-HC.jpg,1000,solid,I,None,1516,12,1,23483.19999998808,700466.8000000119,9073,ATS,B,8
0,test,3,C,mfborder.png,0,m,Thu Mar 12 2026 14:27:48 GMT-0400 (Eastern Daylight Time),726483.3999999762,CFD-WM-012-007-HC.jpg,1000,dash,I,None,1516,4,1,26016.599999964237,700466.8000000119,9073,ATS,B,9
1,test,3,C,haborder.png,1,z,Thu Mar 12 2026 14:27:48 GMT-0400 (Eastern Daylight Time),729266.5,CFD-WM-009-009-A.jpg,1400,solid,I,z,1362,7,1,28799.69999998808,700466.8000000119,9073,ATS,B,10
1,test,3,C,mfborder.png,0,z,Thu Mar 12 2026 14:27:48 GMT-0400 (Eastern Daylight Time),732300.0,CFD-WF-026-008-A.jpg,1500,dash,I,None,1516,3,1,31833.19999998808,700466.8000000119,9073,ATS,B,11
1,test,3,C,mfborder.png,0,m,Thu Mar 12 2026 14:27:48 GMT-0400 (Eastern Daylight Time),735833.3000000119,CFD-WM-037-060-A.jpg,2000,dash,I,None,1516,5,1,35366.5,700466.8000000119,9073,ATS,B,12
1,test,3,C,haborder.png,0,z,Thu Mar 12 2026 14:27:48 GMT-0400 (Eastern Daylight Time),739066.8000000119,CFD-BM-041-048-A.jpg,1700,solid,I,None,1516,9,1,38600.0,700466.8000000119,9073,ATS,B,13
2,test,3,C,mfborder.png,1,z,Thu Mar 12 2026 14:27:48 GMT-0400 (Eastern Daylight Time),742116.6999999881,CFD-BF-051-043-A.jpg,1600,dash,I,z,1427,2,1,41649.89999997616,700466.8000000119,9073,ATS,B,14
2,test,3,C,mfborder.png,0,m,Thu Mar 12 2026 14:27:48 GMT-0400 (Eastern Daylight Time),744849.5999999642,CFD-BM-020-024-HC.jpg,1200,dash,I,None,1516,6,1,44382.799999952316,700466.8000000119,9073,ATS,B,15
3,test,3,C,mfborder.png,1,m,Thu Mar 12 2026 14:27:48 GMT-0400 (Eastern Daylight Time),747000.0,CFD-WM-012-007-HC.jpg,1000,dash,I,m,1124,4,1,46533.19999998808,700466.8000000119,9073,ATS,B,16
3,test,3,C,haborder.png,0,z,Thu Mar 12 2026 14:27:48 GMT-0400 (Eastern Daylight Time),749833.3999999762,CFD-BM-037-041-A.jpg,1900,solid,I,m,906,8,1,49366.59999996424,700466.8000000119,9073,ATS,B,17
4,test,3,C,mfborder.png,1,z,Thu Mar 12 2026 14:27:48 GMT-0400 (Eastern Daylight Time),752950.0,CFD-BF-051-043-A.jpg,1600,dash,I,z,1492,2,1,52483.19999998808,700466.8000000119,9073,ATS,B,18
4,test,3,C,mfborder.png,0,m,Thu Mar 12 2026 14:27:48 GMT-0400 (Eastern Daylight Time),756483.3000000119,CFD-WM-037-060-A.jpg,2000,dash,I,None,1516,5,1,56016.5,700466.8000000119,9073,ATS,B,19
5,test,3,C,mfborder.png,1,z,Thu Mar 12 2026 14:27:48 GMT-0400 (Eastern Daylight Time),759216.3999999762,CFD-BF-027-013-HC.jpg,1700,dash,I,z,1014,1,1,58749.59999996424,700466.8000000119,9073,ATS,B,20
6,test,3,C,mfborder.png,1,z,Thu Mar 12 2026 14:27:48 GMT-0400 (Eastern Daylight Time),761766.5,CFD-BF-027-013-HC.jpg,1700,dash,I,z,825,1,1,61299.69999998808,700466.8000000119,9073,ATS,B,21
6,test,3,C,haborder.png,0,m,Thu Mar 12 2026 14:27:48 GMT-0400 (Eastern Daylight Time),764300.0999999642,CFD-WF-011-006-HC.jpg,1000,solid,I,None,1516,12,1,63833.299999952316,700466.8000000119,9073,ATS,B,22
6,test,3,C,mfborder.png,0,m,Thu Mar 12 2026 14:27:48 GMT-0400 (Eastern Daylight Time),766916.5,CFD-BM-020-024-HC.jpg,1200,dash,I,z,1394,6,1,66449.69999998808,700466.8000000119,9073,ATS,B,23
6,test,3,C,haborder.png,0,m,Thu Mar 12 2026 14:27:48 GMT-0400 (Eastern Daylight Time),769950.0999999642,CFD-WF-027-007-HC.jpg,1500,solid,I,None,1516,11,1,69483.29999995232,700466.8000000119,9073,ATS,B,24
1,test,4,C,haborder.png,1,z,Thu Mar 12 2026 14:27:48 GMT-0400 (Eastern Daylight Time),779566.8999999762,CFD-BF-051-043-A.jpg,1400,solid,I,z,1334,7,1,2766.599999964237,776800.3000000119,9073,ATS,B,1
2,test,4,C,mfborder.png,1,m,Thu Mar 12 2026 14:27:48 GMT-0400 (Eastern Daylight Time),781666.6999999881,CFD-BM-015-017-HC.jpg,1000,dash,I,m,1079,4,1,4866.399999976158,776800.3000000119,9073,ATS,B,2
2,test,4,C,haborder.png,0,m,Thu Mar 12 2026 14:27:48 GMT-0400 (Eastern Daylight Time),784700.1999999881,CFD-WM-011-006-HC.jpg,1500,solid,I,None,1516,11,1,7899.899999976158,776800.3000000119,9073,ATS,B,3
2,test,4,C,mfborder.png,0,z,Thu Mar 12 2026 14:27:48 GMT-0400 (Eastern Daylight Time),787733.3999999762,CFD-BF-035-007-HC.jpg,1500,dash,I,None,1516,3,1,10933.099999964237,776800.3000000119,9073,ATS,B,4
3,test,4,C,mfborder.png,1,m,Thu Mar 12 2026 14:27:48 GMT-0400 (Eastern Daylight Time),790600.0999999642,CFD-BM-037-041-A.jpg,2000,dash,I,m,840,5,1,13799.799999952316,776800.3000000119,9073,ATS,B,5
3,test,4,C,haborder.png,0,z,Thu Mar 12 2026 14:27:48 GMT-0400 (Eastern Daylight Time),793833.3999999762,CFD-WF-026-008-A.jpg,1700,solid,I,None,1516,9,1,17033.099999964237,776800.3000000119,9073,ATS,B,6
3,test,4,C,mfborder.png,0,z,Thu Mar 12 2026 14:27:48 GMT-0400 (Eastern Daylight Time),796966.8999999762,CFD-WF-013-015-A.jpg,1600,dash,I,None,1516,2,1,20166.599999964237,776800.3000000119,9073,ATS,B,7
4,test,4,C,mfborder.png,1,z,Thu Mar 12 2026 14:27:48 GMT-0400 (Eastern Daylight Time),799716.6999999881,CFD-WF-011-006-HC.jpg,1700,dash,I,z,1027,1,1,22916.399999976158,776800.3000000119,9073,ATS,B,8
5,test,4,C,mfborder.png,1,m,Thu Mar 12 2026 14:27:48 GMT-0400 (Eastern Daylight Time),801583.3999999762,CFD-BM-015-017-HC.jpg,1000,dash,I,m,833,4,1,24783.099999964237,776800.3000000119,9073,ATS,B,9
6,test,4,C,haborder.png,1,z,Thu Mar 12 2026 14:27:48 GMT-0400 (Eastern Daylight Time),804550.0,CFD-BF-050-012-A.jpg,1900,solid,I,z,1042,8,1,27749.69999998808,776800.3000000119,9073,ATS,B,10
7,test,4,C,mfborder.png,1,z,Thu Mar 12 2026 14:27:48 GMT-0400 (Eastern Daylight Time),807283.3999999762,CFD-BF-035-007-HC.jpg,1500,dash,I,z,1212,3,1,30483.099999964237,776800.3000000119,9073,ATS,B,11
8,test,4,C,mfborder.png,1,m,Thu Mar 12 2026 14:27:48 GMT-0400 (Eastern Daylight Time),810183.3000000119,CFD-BM-037-041-A.jpg,2000,dash,I,m,874,5,1,33383.0,776800.3000000119,9073,ATS,B,12
8,test,4,C,haborder.png,0,m,Thu Mar 12 2026 14:27:48 GMT-0400 (Eastern Daylight Time),812717.0,CFD-WM-011-006-HC.jpg,1000,solid,I,None,1516,12,1,35916.69999998808,776800.3000000119,9073,ATS,B,13
9,test,4,C,haborder.png,1,z,Thu Mar 12 2026 14:27:48 GMT-0400 (Eastern Daylight Time),815599.8000000119,CFD-BF-050-012-A.jpg,1900,solid,I,z,965,8,1,38799.5,776800.3000000119,9073,ATS,B,14
9,test,4,C,mfborder.png,0,z,Thu Mar 12 2026 14:27:48 GMT-0400 (Eastern Daylight Time),818650.0,CFD-WF-011-006-HC.jpg,1700,dash,I,m,1322,1,1,41849.69999998808,776800.3000000119,9073,ATS,B,15
10,test,4,C,mfborder.png,1,z,Thu Mar 12 2026 14:27:48 GMT-0400 (Eastern Daylight Time),821566.6999999881,CFD-WF-013-015-A.jpg,1600,dash,I,z,1284,2,1,44766.39999997616,776800.3000000119,9073,ATS,B,16
11,test,4,C,haborder.png,1,m,Thu Mar 12 2026 14:27:48 GMT-0400 (Eastern Daylight Time),824600.0,CFD-BM-020-024-HC.jpg,1600,solid,I,m,1407,10,1,47799.69999998808,776800.3000000119,9073,ATS,B,17
12,test,4,C,haborder.png,1,z,Thu Mar 12 2026 14:27:48 GMT-0400 (Eastern Daylight Time),827600.0,CFD-WF-026-008-A.jpg,1700,solid,I,z,1282,9,1,50799.69999998808,776800.3000000119,9073,ATS,B,18
13,test,4,C,mfborder.png,1,m,Thu Mar 12 2026 14:27:48 GMT-0400 (Eastern Daylight Time),830116.8000000119,CFD-WM-009-009-A.jpg,1200,dash,I,m,1294,6,1,53316.5,776800.3000000119,9073,ATS,B,19
14,test,4,C,haborder.png,1,m,Thu Mar 12 2026 14:27:48 GMT-0400 (Eastern Daylight Time),832966.8000000119,CFD-WM-011-006-HC.jpg,1500,solid,I,m,1325,11,1,56166.5,776800.3000000119,9073,ATS,B,20
14,test,4,C,mfborder.png,0,m,Thu Mar 12 2026 14:27:48 GMT-0400 (Eastern Daylight Time),835700.3000000119,CFD-WM-009-009-A.jpg,1200,dash,I,None,1516,6,1,58900.0,776800.3000000119,9073,ATS,B,21
14,test,4,C,haborder.png,0,m,Thu Mar 12 2026 14:27:48 GMT-0400 (Eastern Daylight Time),838200.0,CFD-WM-011-006-HC.jpg,1000,solid,I,z,1474,12,1,61399.69999998808,776800.3000000119,9073,ATS,B,22
14,test,4,C,haborder.png,0,m,Thu Mar 12 2026 14:27:48 GMT-0400 (Eastern Daylight Time),841333.5999999642,CFD-BM-020-024-HC.jpg,1600,solid,I,None,1516,10,1,64533.299999952316,776800.3000000119,9073,ATS,B,23
14,test,4,C,haborder.png,0,z,Thu Mar 12 2026 14:27:48 GMT-0400 (Eastern Daylight Time),844233.5999999642,CFD-BF-051-043-A.jpg,1400,solid,I,m,1472,7,1,67433.29999995232,776800.3000000119,9073,ATS,B,24
