acc_sum,block,block_c,change,condition,correct,correct_response,datetime,endtime,face,project,response,response_time,row_sel,session_number,start_end,starttime,subject_id,task,task_vers,trial
0,prac,1,,1-Back,,,Wed Aug 20 2025 16:57:41 GMT-0500 (Central Daylight Time),,093_m_f_n_a.png,O,space,5514,1,1,,,7209,NNB,C,0
1,prac,1,0.0,1-Back,1.0,m,Wed Aug 20 2025 16:57:41 GMT-0500 (Central Daylight Time),131684.69999992847,098_y_f_n_a.png,O,m,1191,2,1,2037.3999999761581,129647.29999995232,7209,NNB,C,1
1,prac,1,1.0,1-Back,0.0,z,Wed Aug 20 2025 16:57:41 GMT-0500 (Central Daylight Time),134466.89999997616,098_y_f_n_a.png,O,None,2006,3,1,2771.0,131695.89999997616,7209,NNB,C,2
1,prac,1,0.0,1-Back,0.0,m,Wed Aug 20 2025 16:57:41 GMT-0500 (Central Daylight Time),137333.09999990463,059_o_m_n_a.png,O,None,2016,4,1,2856.399999976158,134476.69999992847,7209,NNB,C,3
1,prac,1,0.0,1-Back,0.0,m,Wed Aug 20 2025 16:57:41 GMT-0500 (Central Daylight Time),139649.5,092_m_m_n_a.png,O,z,1452,5,1,2305.0,137344.5,7209,NNB,C,4
1,prac,1,1.0,1-Back,0.0,z,Wed Aug 20 2025 16:57:41 GMT-0500 (Central Daylight Time),142065.59999990463,092_m_m_n_a.png,O,m,1629,6,1,2405.2999999523163,139660.29999995232,7209,NNB,C,5
1,prac,1,0.0,1-Back,0.0,m,Wed Aug 20 2025 16:57:41 GMT-0500 (Central Daylight Time),144931.39999997616,130_o_f_n_a.png,O,None,2004,7,1,2857.2000000476837,142074.19999992847,7209,NNB,C,6
2,prac,1,0.0,1-Back,1.0,m,Wed Aug 20 2025 16:57:41 GMT-0500 (Central Daylight Time),147313.69999992847,082_m_m_n_a.png,O,m,1523,8,1,2370.399999976158,144943.29999995232,7209,NNB,C,7
3,prac,1,0.0,1-Back,1.0,m,Wed Aug 20 2025 16:57:41 GMT-0500 (Central Daylight Time),149147.09999990463,093_m_f_n_a.png,O,m,1062,9,1,1823.0,147324.09999990463,7209,NNB,C,8
4,prac,1,1.0,1-Back,1.0,z,Wed Aug 20 2025 16:57:41 GMT-0500 (Central Daylight Time),150645.39999997616,093_m_f_n_a.png,O,z,709,10,1,1489.8999999761581,149155.5,7209,NNB,C,9
5,prac,1,0.0,1-Back,1.0,m,Wed Aug 20 2025 16:57:41 GMT-0500 (Central Daylight Time),152129.39999997616,059_o_m_n_a.png,O,m,696,11,1,1474.1000000238419,150655.29999995232,7209,NNB,C,10
6,prac,1,0.0,1-Back,1.0,m,Wed Aug 20 2025 16:57:41 GMT-0500 (Central Daylight Time),154062.5,028_y_f_n_a.png,O,m,1068,12,1,1923.6000000238419,152138.89999997616,7209,NNB,C,11
0,prac,2,0.0,1-Back,,,Wed Aug 20 2025 16:57:41 GMT-0500 (Central Daylight Time),154062.5,093_m_f_n_a.png,O,a,2946,1,1,1923.6000000238419,152138.89999997616,7209,NNB,C,0
1,prac,2,0.0,1-Back,1.0,m,Wed Aug 20 2025 16:57:41 GMT-0500 (Central Daylight Time),161623.89999997616,098_y_f_n_a.png,O,m,730,2,1,1569.7000000476837,160054.19999992847,7209,NNB,C,1
1,prac,2,1.0,1-Back,0.0,z,Wed Aug 20 2025 16:57:41 GMT-0500 (Central Daylight Time),163459.5,098_y_f_n_a.png,O,m,1052,3,1,1831.0,161628.5,7209,NNB,C,2
1,prac,2,0.0,1-Back,0.0,m,Wed Aug 20 2025 16:57:41 GMT-0500 (Central Daylight Time),165875.0,059_o_m_n_a.png,O,z,1645,4,1,2406.4000000953674,163468.59999990463,7209,NNB,C,3
2,prac,2,0.0,1-Back,1.0,m,Wed Aug 20 2025 16:57:41 GMT-0500 (Central Daylight Time),168189.39999997616,092_m_m_n_a.png,O,m,1455,5,1,2304.3000000715256,165885.09999990463,7209,NNB,C,4
3,prac,2,1.0,1-Back,1.0,z,Wed Aug 20 2025 16:57:41 GMT-0500 (Central Daylight Time),169574.19999992847,092_m_m_n_a.png,O,z,603,6,1,1376.6999999284744,168197.5,7209,NNB,C,5
4,prac,2,0.0,1-Back,1.0,m,Wed Aug 20 2025 16:57:41 GMT-0500 (Central Daylight Time),171057.09999990463,130_o_f_n_a.png,O,m,622,7,1,1475.5,169581.59999990463,7209,NNB,C,6
5,prac,2,0.0,1-Back,1.0,m,Wed Aug 20 2025 16:57:41 GMT-0500 (Central Daylight Time),172572.39999997616,082_m_m_n_a.png,O,m,665,8,1,1507.3999999761581,171065.0,7209,NNB,C,7
6,prac,2,0.0,1-Back,1.0,m,Wed Aug 20 2025 16:57:41 GMT-0500 (Central Daylight Time),173970.79999995232,093_m_f_n_a.png,O,m,619,9,1,1388.6000000238419,172582.19999992847,7209,NNB,C,8
7,prac,2,1.0,1-Back,1.0,z,Wed Aug 20 2025 16:57:41 GMT-0500 (Central Daylight Time),175253.5,093_m_f_n_a.png,O,z,499,10,1,1272.2000000476837,173981.29999995232,7209,NNB,C,9
8,prac,2,0.0,1-Back,1.0,m,Wed Aug 20 2025 16:57:41 GMT-0500 (Central Daylight Time),176656.19999992847,059_o_m_n_a.png,O,m,607,11,1,1391.0,175265.19999992847,7209,NNB,C,10
9,prac,2,0.0,1-Back,1.0,m,Wed Aug 20 2025 16:57:41 GMT-0500 (Central Daylight Time),178153.0,028_y_f_n_a.png,O,m,635,12,1,1487.8000000715256,176665.19999992847,7209,NNB,C,11
0,test,1,0.0,1-Back,,,Wed Aug 20 2025 16:57:41 GMT-0500 (Central Daylight Time),178153.0,098_y_f_n_a.png,O,space,7115,1,1,1487.8000000715256,176665.19999992847,7209,NNB,C,0
1,test,1,0.0,1-Back,1.0,m,Wed Aug 20 2025 16:57:41 GMT-0500 (Central Daylight Time),197546.69999992847,006_m_f_n_a.png,O,m,718,2,1,1741.0,195805.69999992847,7209,NNB,C,1
2,test,1,0.0,1-Back,1.0,m,Wed Aug 20 2025 16:57:41 GMT-0500 (Central Daylight Time),199245.59999990463,028_y_f_n_a.png,O,m,678,3,1,1691.0,197554.59999990463,7209,NNB,C,2
3,test,1,1.0,1-Back,1.0,z,Wed Aug 20 2025 16:57:41 GMT-0500 (Central Daylight Time),200778.5,028_y_f_n_a.png,O,z,501,4,1,1525.3000000715256,199253.19999992847,7209,NNB,C,3
4,test,1,0.0,1-Back,1.0,m,Wed Aug 20 2025 16:57:41 GMT-0500 (Central Daylight Time),202427.79999995232,006_m_f_n_a.png,O,m,621,5,1,1642.3999999761581,200785.39999997616,7209,NNB,C,4
5,test,1,0.0,1-Back,1.0,m,Wed Aug 20 2025 16:57:41 GMT-0500 (Central Daylight Time),204029.29999995232,059_o_m_n_a.png,O,m,573,6,1,1592.8999999761581,202436.39999997616,7209,NNB,C,5
6,test,1,1.0,1-Back,1.0,z,Wed Aug 20 2025 16:57:41 GMT-0500 (Central Daylight Time),205527.79999995232,059_o_m_n_a.png,O,z,478,7,1,1490.5,204037.29999995232,7209,NNB,C,6
7,test,1,0.0,1-Back,1.0,m,Wed Aug 20 2025 16:57:41 GMT-0500 (Central Daylight Time),207212.39999997616,092_m_m_n_a.png,O,m,651,8,1,1677.8999999761581,205534.5,7209,NNB,C,7
8,test,1,0.0,1-Back,1.0,m,Wed Aug 20 2025 16:57:41 GMT-0500 (Central Daylight Time),208842.89999997616,130_o_f_n_a.png,O,m,607,9,1,1623.7000000476837,207219.19999992847,7209,NNB,C,8
9,test,1,0.0,1-Back,1.0,m,Wed Aug 20 2025 16:57:41 GMT-0500 (Central Daylight Time),210477.09999990463,092_m_m_n_a.png,O,m,601,10,1,1627.0999999046326,208850.0,7209,NNB,C,9
10,test,1,0.0,1-Back,1.0,m,Wed Aug 20 2025 16:57:41 GMT-0500 (Central Daylight Time),212108.79999995232,057_y_m_n_a.png,O,m,606,11,1,1624.0,210484.79999995232,7209,NNB,C,10
11,test,1,1.0,1-Back,1.0,z,Wed Aug 20 2025 16:57:41 GMT-0500 (Central Daylight Time),213592.19999992847,057_y_m_n_a.png,O,z,451,12,1,1476.1000000238419,212116.09999990463,7209,NNB,C,11
12,test,1,0.0,1-Back,1.0,m,Wed Aug 20 2025 16:57:41 GMT-0500 (Central Daylight Time),215158.09999990463,030_o_f_n_a.png,O,m,545,13,1,1558.7999999523163,213599.29999995232,7209,NNB,C,12
12,test,1,1.0,1-Back,0.0,z,Wed Aug 20 2025 16:57:41 GMT-0500 (Central Daylight Time),216691.5,030_o_f_n_a.png,O,m,507,14,1,1525.9000000953674,215165.59999990463,7209,NNB,C,13
13,test,1,0.0,1-Back,1.0,m,Wed Aug 20 2025 16:57:41 GMT-0500 (Central Daylight Time),218474.09999990463,031_y_m_n_a.png,O,m,750,15,1,1775.0,216699.09999990463,7209,NNB,C,14
14,test,1,0.0,1-Back,1.0,m,Wed Aug 20 2025 16:57:41 GMT-0500 (Central Daylight Time),220406.5,093_m_f_n_a.png,O,m,903,16,1,1924.4000000953674,218482.09999990463,7209,NNB,C,15
15,test,1,0.0,1-Back,1.0,m,Wed Aug 20 2025 16:57:41 GMT-0500 (Central Daylight Time),222121.29999995232,146_o_m_n_a.png,O,m,697,17,1,1708.3999999761581,220412.89999997616,7209,NNB,C,16
16,test,1,0.0,1-Back,1.0,m,Wed Aug 20 2025 16:57:41 GMT-0500 (Central Daylight Time),223872.0,093_m_f_n_a.png,O,m,718,18,1,1746.6000000238419,222125.39999997616,7209,NNB,C,17
0,test,2,0.0,1-Back,,,Wed Aug 20 2025 16:57:41 GMT-0500 (Central Daylight Time),223872.0,092_m_m_n_a.png,O,space,2249,1,1,1746.6000000238419,222125.39999997616,7209,NNB,C,0
1,test,2,0.0,1-Back,1.0,m,Wed Aug 20 2025 16:57:41 GMT-0500 (Central Daylight Time),229820.59999990463,006_m_f_n_a.png,O,m,653,2,1,1674.2999999523163,228146.29999995232,7209,NNB,C,1
2,test,2,1.0,1-Back,1.0,z,Wed Aug 20 2025 16:57:41 GMT-0500 (Central Daylight Time),231486.5,006_m_f_n_a.png,O,z,638,3,1,1658.5,229828.0,7209,NNB,C,2
3,test,2,0.0,1-Back,1.0,m,Wed Aug 20 2025 16:57:41 GMT-0500 (Central Daylight Time),233170.5,092_m_m_n_a.png,O,m,660,4,1,1676.6000000238419,231493.89999997616,7209,NNB,C,3
4,test,2,0.0,1-Back,1.0,m,Wed Aug 20 2025 16:57:41 GMT-0500 (Central Daylight Time),234952.19999992847,057_y_m_n_a.png,O,m,759,5,1,1775.1000000238419,233177.09999990463,7209,NNB,C,4
5,test,2,0.0,1-Back,1.0,m,Wed Aug 20 2025 16:57:41 GMT-0500 (Central Daylight Time),236586.5,098_y_f_n_a.png,O,m,617,6,1,1627.2000000476837,234959.29999995232,7209,NNB,C,5
6,test,2,1.0,1-Back,1.0,z,Wed Aug 20 2025 16:57:41 GMT-0500 (Central Daylight Time),238133.79999995232,098_y_f_n_a.png,O,z,519,7,1,1539.1000000238419,236594.69999992847,7209,NNB,C,6
7,test,2,0.0,1-Back,1.0,m,Wed Aug 20 2025 16:57:41 GMT-0500 (Central Daylight Time),239700.0,057_y_m_n_a.png,O,m,536,8,1,1558.5,238141.5,7209,NNB,C,7
8,test,2,0.0,1-Back,1.0,m,Wed Aug 20 2025 16:57:41 GMT-0500 (Central Daylight Time),241267.59999990463,030_o_f_n_a.png,O,m,550,9,1,1559.8999999761581,239707.69999992847,7209,NNB,C,8
9,test,2,0.0,1-Back,1.0,m,Wed Aug 20 2025 16:57:41 GMT-0500 (Central Daylight Time),242983.09999990463,082_m_m_n_a.png,O,m,688,10,1,1707.1999999284744,241275.89999997616,7209,NNB,C,9
9,test,2,1.0,1-Back,0.0,z,Wed Aug 20 2025 16:57:41 GMT-0500 (Central Daylight Time),244849.19999992847,082_m_m_n_a.png,O,m,833,11,1,1859.6000000238419,242989.59999990463,7209,NNB,C,10
10,test,2,0.0,1-Back,1.0,m,Wed Aug 20 2025 16:57:41 GMT-0500 (Central Daylight Time),246497.5,030_o_f_n_a.png,O,m,631,12,1,1640.6000000238419,244856.89999997616,7209,NNB,C,11
11,test,2,0.0,1-Back,1.0,m,Wed Aug 20 2025 16:57:41 GMT-0500 (Central Daylight Time),248198.29999995232,130_o_f_n_a.png,O,m,682,13,1,1694.0,246504.29999995232,7209,NNB,C,12
12,test,2,0.0,1-Back,1.0,m,Wed Aug 20 2025 16:57:41 GMT-0500 (Central Daylight Time),249830.79999995232,059_o_m_n_a.png,O,m,612,14,1,1624.5,248206.29999995232,7209,NNB,C,13
13,test,2,0.0,1-Back,1.0,m,Wed Aug 20 2025 16:57:41 GMT-0500 (Central Daylight Time),251546.79999995232,146_o_m_n_a.png,O,m,690,15,1,1708.8999999761581,249837.89999997616,7209,NNB,C,14
14,test,2,1.0,1-Back,1.0,z,Wed Aug 20 2025 16:57:41 GMT-0500 (Central Daylight Time),253148.09999990463,146_o_m_n_a.png,O,z,584,16,1,1594.0,251554.09999990463,7209,NNB,C,15
15,test,2,0.0,1-Back,1.0,m,Wed Aug 20 2025 16:57:41 GMT-0500 (Central Daylight Time),254995.5,031_y_m_n_a.png,O,m,816,17,1,1839.4000000953674,253156.09999990463,7209,NNB,C,16
16,test,2,1.0,1-Back,1.0,z,Wed Aug 20 2025 16:57:41 GMT-0500 (Central Daylight Time),256659.69999992847,031_y_m_n_a.png,O,z,644,18,1,1655.7999999523163,255003.89999997616,7209,NNB,C,17
0,test,3,1.0,1-Back,,,Wed Aug 20 2025 16:57:41 GMT-0500 (Central Daylight Time),256659.69999992847,028_y_f_n_a.png,O,space,1182,1,1,1655.7999999523163,255003.89999997616,7209,NNB,C,0
1,test,3,0.0,1-Back,1.0,m,Wed Aug 20 2025 16:57:41 GMT-0500 (Central Daylight Time),261577.59999990463,146_o_m_n_a.png,O,m,625,1,1,1640.0,259937.59999990463,7209,NNB,C,1
2,test,3,1.0,1-Back,1.0,z,Wed Aug 20 2025 16:57:41 GMT-0500 (Central Daylight Time),263277.0,146_o_m_n_a.png,O,z,672,1,1,1691.0,261586.0,7209,NNB,C,2
3,test,3,0.0,1-Back,1.0,m,Wed Aug 20 2025 16:57:41 GMT-0500 (Central Daylight Time),264942.1999999285,093_m_f_n_a.png,O,m,637,1,1,1658.3999999761581,263283.7999999523,7209,NNB,C,3
4,test,3,1.0,1-Back,1.0,z,Wed Aug 20 2025 16:57:41 GMT-0500 (Central Daylight Time),266541.89999997616,093_m_f_n_a.png,O,z,578,1,1,1594.5,264947.39999997616,7209,NNB,C,4
5,test,3,0.0,1-Back,1.0,m,Wed Aug 20 2025 16:57:41 GMT-0500 (Central Daylight Time),268310.1999999285,030_o_f_n_a.png,O,m,737,1,1,1760.5,266549.6999999285,7209,NNB,C,5
6,test,3,0.0,1-Back,1.0,m,Wed Aug 20 2025 16:57:41 GMT-0500 (Central Daylight Time),270123.09999990463,057_y_m_n_a.png,O,m,788,1,1,1808.0999999046326,268315.0,7209,NNB,C,6
7,test,3,0.0,1-Back,1.0,m,Wed Aug 20 2025 16:57:41 GMT-0500 (Central Daylight Time),271857.2999999523,030_o_f_n_a.png,O,m,702,1,1,1726.3999999761581,270130.89999997616,7209,NNB,C,7
8,test,3,0.0,1-Back,1.0,m,Wed Aug 20 2025 16:57:41 GMT-0500 (Central Daylight Time),273489.59999990463,031_y_m_n_a.png,O,m,611,1,1,1627.5,271862.09999990463,7209,NNB,C,8
9,test,3,1.0,1-Back,1.0,z,Wed Aug 20 2025 16:57:41 GMT-0500 (Central Daylight Time),274971.39999997616,031_y_m_n_a.png,O,z,463,1,1,1474.8999999761581,273496.5,7209,NNB,C,9
10,test,3,0.0,1-Back,1.0,m,Wed Aug 20 2025 16:57:41 GMT-0500 (Central Daylight Time),276689.7999999523,006_m_f_n_a.png,O,m,694,1,1,1714.0,274975.7999999523,7209,NNB,C,10
11,test,3,0.0,1-Back,1.0,m,Wed Aug 20 2025 16:57:41 GMT-0500 (Central Daylight Time),278438.39999997616,098_y_f_n_a.png,O,m,719,1,1,1741.6000000238419,276696.7999999523,7209,NNB,C,11
12,test,3,1.0,1-Back,1.0,z,Wed Aug 20 2025 16:57:41 GMT-0500 (Central Daylight Time),279920.2999999523,098_y_f_n_a.png,O,z,451,1,1,1474.7999999523163,278445.5,7209,NNB,C,12
13,test,3,0.0,1-Back,1.0,m,Wed Aug 20 2025 16:57:41 GMT-0500 (Central Daylight Time),281453.2999999523,006_m_f_n_a.png,O,m,511,1,1,1526.8999999761581,279926.39999997616,7209,NNB,C,13
14,test,3,0.0,1-Back,1.0,m,Wed Aug 20 2025 16:57:41 GMT-0500 (Central Daylight Time),283086.09999990463,092_m_m_n_a.png,O,m,605,1,1,1625.8999999761581,281460.1999999285,7209,NNB,C,14
15,test,3,1.0,1-Back,1.0,z,Wed Aug 20 2025 16:57:41 GMT-0500 (Central Daylight Time),284602.1999999285,092_m_m_n_a.png,O,z,491,1,1,1509.6000000238419,283092.59999990463,7209,NNB,C,15
16,test,3,0.0,1-Back,1.0,m,Wed Aug 20 2025 16:57:41 GMT-0500 (Central Daylight Time),286302.09999990463,130_o_f_n_a.png,O,m,669,1,1,1691.0,284611.09999990463,7209,NNB,C,16
17,test,3,1.0,1-Back,1.0,z,Wed Aug 20 2025 16:57:41 GMT-0500 (Central Daylight Time),287950.6999999285,130_o_f_n_a.png,O,z,627,1,1,1641.6000000238419,286309.09999990463,7209,NNB,C,17
0,test,4,1.0,1-Back,,,Wed Aug 20 2025 16:57:41 GMT-0500 (Central Daylight Time),287950.6999999285,093_m_f_n_a.png,O,space,1490,1,1,1641.6000000238419,286309.09999990463,7209,NNB,C,0
1,test,4,0.0,1-Back,1.0,m,Wed Aug 20 2025 16:57:41 GMT-0500 (Central Daylight Time),293249.6999999285,146_o_m_n_a.png,O,m,691,2,1,1707.7999999523163,291541.89999997616,7209,NNB,C,1
1,test,4,0.0,1-Back,0.0,m,Wed Aug 20 2025 16:57:41 GMT-0500 (Central Daylight Time),294849.5,093_m_f_n_a.png,O,z,576,3,1,1593.5,293256.0,7209,NNB,C,2
2,test,4,0.0,1-Back,1.0,m,Wed Aug 20 2025 16:57:41 GMT-0500 (Central Daylight Time),296548.09999990463,030_o_f_n_a.png,O,m,679,4,1,1690.8999999761581,294857.1999999285,7209,NNB,C,3
3,test,4,1.0,1-Back,1.0,z,Wed Aug 20 2025 16:57:41 GMT-0500 (Central Daylight Time),298780.1999999285,030_o_f_n_a.png,O,z,1202,5,1,2223.899999976158,296556.2999999523,7209,NNB,C,4
4,test,4,0.0,1-Back,1.0,m,Wed Aug 20 2025 16:57:41 GMT-0500 (Central Daylight Time),300532.7999999523,098_y_f_n_a.png,O,m,723,6,1,1746.0,298786.7999999523,7209,NNB,C,5
5,test,4,0.0,1-Back,1.0,m,Wed Aug 20 2025 16:57:41 GMT-0500 (Central Daylight Time),302363.7999999523,057_y_m_n_a.png,O,m,802,7,1,1823.3999999761581,300540.39999997616,7209,NNB,C,6
6,test,4,1.0,1-Back,1.0,z,Wed Aug 20 2025 16:57:41 GMT-0500 (Central Daylight Time),303980.89999997616,057_y_m_n_a.png,O,z,599,8,1,1610.0,302370.89999997616,7209,NNB,C,7
7,test,4,0.0,1-Back,1.0,m,Wed Aug 20 2025 16:57:41 GMT-0500 (Central Daylight Time),305747.7999999523,098_y_f_n_a.png,O,m,735,9,1,1763.3999999761581,303984.39999997616,7209,NNB,C,8
8,test,4,0.0,1-Back,1.0,m,Wed Aug 20 2025 16:57:41 GMT-0500 (Central Daylight Time),307428.7999999523,082_m_m_n_a.png,O,m,662,10,1,1672.5,305756.2999999523,7209,NNB,C,9
9,test,4,1.0,1-Back,1.0,z,Wed Aug 20 2025 16:57:41 GMT-0500 (Central Daylight Time),309214.09999990463,082_m_m_n_a.png,O,z,751,11,1,1776.0999999046326,307438.0,7209,NNB,C,10
10,test,4,0.0,1-Back,1.0,m,Wed Aug 20 2025 16:57:41 GMT-0500 (Central Daylight Time),310894.5,130_o_f_n_a.png,O,m,653,12,1,1673.1000000238419,309221.39999997616,7209,NNB,C,11
11,test,4,0.0,1-Back,1.0,m,Wed Aug 20 2025 16:57:41 GMT-0500 (Central Daylight Time),312559.39999997616,059_o_m_n_a.png,O,m,635,13,1,1656.8999999761581,310902.5,7209,NNB,C,12
12,test,4,0.0,1-Back,1.0,m,Wed Aug 20 2025 16:57:41 GMT-0500 (Central Daylight Time),314175.59999990463,130_o_f_n_a.png,O,m,592,14,1,1608.1999999284744,312567.39999997616,7209,NNB,C,13
13,test,4,0.0,1-Back,1.0,m,Wed Aug 20 2025 16:57:41 GMT-0500 (Central Daylight Time),315925.2999999523,028_y_f_n_a.png,O,m,720,15,1,1744.1000000238419,314181.1999999285,7209,NNB,C,14
14,test,4,1.0,1-Back,1.0,z,Wed Aug 20 2025 16:57:41 GMT-0500 (Central Daylight Time),317591.89999997616,028_y_f_n_a.png,O,z,633,16,1,1657.0,315934.89999997616,7209,NNB,C,15
15,test,4,0.0,1-Back,1.0,m,Wed Aug 20 2025 16:57:41 GMT-0500 (Central Daylight Time),319258.6999999285,006_m_f_n_a.png,O,m,635,17,1,1661.0,317597.6999999285,7209,NNB,C,16
16,test,4,1.0,1-Back,1.0,z,Wed Aug 20 2025 16:57:41 GMT-0500 (Central Daylight Time),320876.1999999285,006_m_f_n_a.png,O,z,589,18,1,1609.3999999761581,319266.7999999523,7209,NNB,C,17
0,test,5,1.0,1-Back,,,Wed Aug 20 2025 16:57:41 GMT-0500 (Central Daylight Time),320876.1999999285,059_o_m_n_a.png,O,space,965,1,1,1609.3999999761581,319266.7999999523,7209,NNB,C,0
1,test,5,1.0,1-Back,1.0,z,Wed Aug 20 2025 16:57:41 GMT-0500 (Central Daylight Time),325622.39999997616,059_o_m_n_a.png,O,z,718,2,1,1739.8999999761581,323882.5,7209,NNB,C,1
2,test,5,0.0,1-Back,1.0,m,Wed Aug 20 2025 16:57:41 GMT-0500 (Central Daylight Time),327406.0,098_y_f_n_a.png,O,m,753,3,1,1776.1000000238419,325629.89999997616,7209,NNB,C,2
3,test,5,0.0,1-Back,1.0,m,Wed Aug 20 2025 16:57:41 GMT-0500 (Central Daylight Time),329154.59999990463,057_y_m_n_a.png,O,m,717,4,1,1744.0999999046326,327410.5,7209,NNB,C,3
4,test,5,0.0,1-Back,1.0,m,Wed Aug 20 2025 16:57:41 GMT-0500 (Central Daylight Time),330787.39999997616,098_y_f_n_a.png,O,m,614,5,1,1625.7000000476837,329161.6999999285,7209,NNB,C,4
5,test,5,0.0,1-Back,1.0,m,Wed Aug 20 2025 16:57:41 GMT-0500 (Central Daylight Time),332453.6999999285,092_m_m_n_a.png,O,m,636,6,1,1658.6000000238419,330795.09999990463,7209,NNB,C,5
6,test,5,1.0,1-Back,1.0,z,Wed Aug 20 2025 16:57:41 GMT-0500 (Central Daylight Time),334220.59999990463,092_m_m_n_a.png,O,z,734,7,1,1760.5999999046326,332460.0,7209,NNB,C,6
7,test,5,0.0,1-Back,1.0,m,Wed Aug 20 2025 16:57:41 GMT-0500 (Central Daylight Time),335885.6999999285,028_y_f_n_a.png,O,m,638,8,1,1659.1999999284744,334226.5,7209,NNB,C,7
8,test,5,0.0,1-Back,1.0,m,Wed Aug 20 2025 16:57:41 GMT-0500 (Central Daylight Time),337502.09999990463,031_y_m_n_a.png,O,m,587,9,1,1609.7999999523163,335892.2999999523,7209,NNB,C,8
9,test,5,0.0,1-Back,1.0,m,Wed Aug 20 2025 16:57:41 GMT-0500 (Central Daylight Time),339184.39999997616,028_y_f_n_a.png,O,m,650,10,1,1674.6000000238419,337509.7999999523,7209,NNB,C,9
10,test,5,0.0,1-Back,1.0,m,Wed Aug 20 2025 16:57:41 GMT-0500 (Central Daylight Time),340785.09999990463,130_o_f_n_a.png,O,m,577,11,1,1594.0,339191.09999990463,7209,NNB,C,10
11,test,5,1.0,1-Back,1.0,z,Wed Aug 20 2025 16:57:41 GMT-0500 (Central Daylight Time),342350.59999990463,130_o_f_n_a.png,O,z,535,12,1,1559.0,340791.59999990463,7209,NNB,C,11
12,test,5,0.0,1-Back,1.0,m,Wed Aug 20 2025 16:57:41 GMT-0500 (Central Daylight Time),343950.0,146_o_m_n_a.png,O,m,578,13,1,1591.8000000715256,342358.1999999285,7209,NNB,C,12
13,test,5,0.0,1-Back,1.0,m,Wed Aug 20 2025 16:57:41 GMT-0500 (Central Daylight Time),345615.7999999523,093_m_f_n_a.png,O,m,633,14,1,1662.3999999761581,343953.39999997616,7209,NNB,C,13
14,test,5,1.0,1-Back,1.0,z,Wed Aug 20 2025 16:57:41 GMT-0500 (Central Daylight Time),347064.89999997616,093_m_f_n_a.png,O,z,417,15,1,1441.8000000715256,345623.09999990463,7209,NNB,C,14
15,test,5,0.0,1-Back,1.0,m,Wed Aug 20 2025 16:57:41 GMT-0500 (Central Daylight Time),348564.0,146_o_m_n_a.png,O,m,476,16,1,1496.7000000476837,347067.2999999523,7209,NNB,C,15
16,test,5,0.0,1-Back,1.0,m,Wed Aug 20 2025 16:57:41 GMT-0500 (Central Daylight Time),350148.2999999523,006_m_f_n_a.png,O,m,563,17,1,1581.8999999761581,348566.39999997616,7209,NNB,C,16
17,test,5,0.0,1-Back,1.0,m,Wed Aug 20 2025 16:57:41 GMT-0500 (Central Daylight Time),351796.5,082_m_m_n_a.png,O,m,620,18,1,1642.0,350154.5,7209,NNB,C,17
0,prac,1,0.0,2-Back,,,Wed Aug 20 2025 16:57:41 GMT-0500 (Central Daylight Time),351796.5,031_y_m_n_a.png,O,space,5133,1,1,1642.0,350154.5,7209,NNB,C,0
0,prac,1,0.0,2-Back,,,Wed Aug 20 2025 16:57:41 GMT-0500 (Central Daylight Time),351796.5,006_m_f_n_a.png,O,space,5133,2,1,1642.0,350154.5,7209,NNB,C,0
1,prac,1,1.0,2-Back,1.0,m,Wed Aug 20 2025 16:57:41 GMT-0500 (Central Daylight Time),442601.89999997616,146_o_m_n_a.png,O,m,1510,3,1,2372.5,440229.39999997616,7209,NNB,C,1
2,prac,1,0.0,2-Back,1.0,m,Wed Aug 20 2025 16:57:41 GMT-0500 (Central Daylight Time),444185.0,130_o_f_n_a.png,O,m,707,4,1,1574.4000000953674,442610.59999990463,7209,NNB,C,2
3,prac,1,0.0,2-Back,1.0,z,Wed Aug 20 2025 16:57:41 GMT-0500 (Central Daylight Time),445537.1999999285,146_o_m_n_a.png,O,z,583,5,1,1343.7999999523163,444193.39999997616,7209,NNB,C,3
3,prac,1,1.0,2-Back,0.0,z,Wed Aug 20 2025 16:57:41 GMT-0500 (Central Daylight Time),447101.0,130_o_f_n_a.png,O,m,779,6,1,1557.3000000715256,445543.6999999285,7209,NNB,C,4
4,prac,1,0.0,2-Back,1.0,m,Wed Aug 20 2025 16:57:41 GMT-0500 (Central Daylight Time),449067.6999999285,082_m_m_n_a.png,O,m,1195,7,1,1958.0,447109.6999999285,7209,NNB,C,5
5,prac,1,0.0,2-Back,1.0,m,Wed Aug 20 2025 16:57:41 GMT-0500 (Central Daylight Time),450965.7999999523,059_o_m_n_a.png,O,m,1035,8,1,1889.7000000476837,449076.09999990463,7209,NNB,C,6
6,prac,1,0.0,2-Back,1.0,m,Wed Aug 20 2025 16:57:41 GMT-0500 (Central Daylight Time),452666.6999999285,028_y_f_n_a.png,O,m,847,9,1,1691.6999999284744,450975.0,7209,NNB,C,7
7,prac,1,1.0,2-Back,1.0,z,Wed Aug 20 2025 16:57:41 GMT-0500 (Central Daylight Time),454015.7999999523,059_o_m_n_a.png,O,z,569,10,1,1341.7999999523163,452674.0,7209,NNB,C,8
8,prac,1,0.0,2-Back,1.0,m,Wed Aug 20 2025 16:57:41 GMT-0500 (Central Daylight Time),456082.59999990463,098_y_f_n_a.png,O,m,1214,11,1,2058.2999999523163,454024.2999999523,7209,NNB,C,9
9,prac,1,0.0,2-Back,1.0,m,Wed Aug 20 2025 16:57:41 GMT-0500 (Central Daylight Time),457631.0,082_m_m_n_a.png,O,m,757,12,1,1539.6000000238419,456091.39999997616,7209,NNB,C,10
0,test,1,0.0,2-Back,,,Wed Aug 20 2025 16:57:41 GMT-0500 (Central Daylight Time),457631.0,057_y_m_n_a.png,O,space,7686,1,1,1539.6000000238419,456091.39999997616,7209,NNB,C,0
0,test,1,0.0,2-Back,,,Wed Aug 20 2025 16:57:41 GMT-0500 (Central Daylight Time),457631.0,057_y_m_n_a.png,O,space,7686,2,1,1539.6000000238419,456091.39999997616,7209,NNB,C,0
1,test,1,0.0,2-Back,1.0,m,Wed Aug 20 2025 16:57:41 GMT-0500 (Central Daylight Time),487770.09999990463,130_o_f_n_a.png,O,m,1088,3,1,2106.7999999523163,485663.2999999523,7209,NNB,C,1
2,test,1,0.0,2-Back,1.0,m,Wed Aug 20 2025 16:57:41 GMT-0500 (Central Daylight Time),489386.6999999285,092_m_m_n_a.png,O,m,591,4,1,1610.1000000238419,487776.59999990463,7209,NNB,C,2
3,test,1,1.0,2-Back,1.0,z,Wed Aug 20 2025 16:57:41 GMT-0500 (Central Daylight Time),491138.0,130_o_f_n_a.png,O,z,718,5,1,1743.8000000715256,489394.1999999285,7209,NNB,C,3
4,test,1,0.0,2-Back,1.0,m,Wed Aug 20 2025 16:57:41 GMT-0500 (Central Daylight Time),492986.89999997616,098_y_f_n_a.png,O,m,833,6,1,1842.1000000238419,491144.7999999523,7209,NNB,C,4
5,test,1,0.0,2-Back,1.0,m,Wed Aug 20 2025 16:57:41 GMT-0500 (Central Daylight Time),494920.39999997616,092_m_m_n_a.png,O,m,902,7,1,1927.5,492992.89999997616,7209,NNB,C,5
6,test,1,1.0,2-Back,1.0,z,Wed Aug 20 2025 16:57:41 GMT-0500 (Central Daylight Time),496584.59999990463,098_y_f_n_a.png,O,z,640,8,1,1657.6999999284744,494926.89999997616,7209,NNB,C,6
7,test,1,0.0,2-Back,1.0,m,Wed Aug 20 2025 16:57:41 GMT-0500 (Central Daylight Time),498386.1999999285,031_y_m_n_a.png,O,m,767,9,1,1794.8999999761581,496591.2999999523,7209,NNB,C,7
8,test,1,0.0,2-Back,1.0,m,Wed Aug 20 2025 16:57:41 GMT-0500 (Central Daylight Time),500101.1999999285,030_o_f_n_a.png,O,m,699,10,1,1707.0,498394.1999999285,7209,NNB,C,8
8,test,1,1.0,2-Back,0.0,z,Wed Aug 20 2025 16:57:41 GMT-0500 (Central Daylight Time),501917.39999997616,031_y_m_n_a.png,O,m,784,11,1,1808.8000000715256,500108.59999990463,7209,NNB,C,9
9,test,1,0.0,2-Back,1.0,m,Wed Aug 20 2025 16:57:41 GMT-0500 (Central Daylight Time),503683.59999990463,006_m_f_n_a.png,O,m,733,12,1,1758.6999999284744,501924.89999997616,7209,NNB,C,10
10,test,1,0.0,2-Back,1.0,m,Wed Aug 20 2025 16:57:41 GMT-0500 (Central Daylight Time),505681.89999997616,006_m_f_n_a.png,O,m,973,13,1,1991.6000000238419,503690.2999999523,7209,NNB,C,11
11,test,1,0.0,2-Back,1.0,m,Wed Aug 20 2025 16:57:41 GMT-0500 (Central Daylight Time),507631.59999990463,146_o_m_n_a.png,O,m,927,14,1,1941.5,505690.09999990463,7209,NNB,C,12
12,test,1,0.0,2-Back,1.0,m,Wed Aug 20 2025 16:57:41 GMT-0500 (Central Daylight Time),509497.39999997616,030_o_f_n_a.png,O,m,843,15,1,1859.7000000476837,507637.6999999285,7209,NNB,C,13
13,test,1,1.0,2-Back,1.0,z,Wed Aug 20 2025 16:57:41 GMT-0500 (Central Daylight Time),511146.2999999523,146_o_m_n_a.png,O,z,631,16,1,1642.2999999523163,509504.0,7209,NNB,C,14
14,test,1,0.0,2-Back,1.0,m,Wed Aug 20 2025 16:57:41 GMT-0500 (Central Daylight Time),513146.2999999523,093_m_f_n_a.png,O,m,983,17,1,1995.2999999523163,511151.0,7209,NNB,C,15
15,test,1,0.0,2-Back,1.0,m,Wed Aug 20 2025 16:57:41 GMT-0500 (Central Daylight Time),515011.59999990463,082_m_m_n_a.png,O,m,839,18,1,1859.5,513152.09999990463,7209,NNB,C,16
0,test,2,0.0,2-Back,,,Wed Aug 20 2025 16:57:41 GMT-0500 (Central Daylight Time),515011.59999990463,082_m_m_n_a.png,O,space,1351,1,1,1859.5,513152.09999990463,7209,NNB,C,0
0,test,2,0.0,2-Back,,,Wed Aug 20 2025 16:57:41 GMT-0500 (Central Daylight Time),515011.59999990463,028_y_f_n_a.png,O,space,1351,2,1,1859.5,513152.09999990463,7209,NNB,C,0
1,test,2,1.0,2-Back,1.0,z,Wed Aug 20 2025 16:57:41 GMT-0500 (Central Daylight Time),523493.6999999285,082_m_m_n_a.png,O,z,967,3,1,1991.2999999523163,521502.39999997616,7209,NNB,C,1
2,test,2,0.0,2-Back,1.0,m,Wed Aug 20 2025 16:57:41 GMT-0500 (Central Daylight Time),525260.5999999046,093_m_f_n_a.png,O,m,751,4,1,1759.0,523501.59999990463,7209,NNB,C,2
2,test,2,0.0,2-Back,0.0,m,Wed Aug 20 2025 16:57:41 GMT-0500 (Central Daylight Time),527227.1999999285,028_y_f_n_a.png,O,z,943,5,1,1962.0,525265.1999999285,7209,NNB,C,3
3,test,2,0.0,2-Back,1.0,m,Wed Aug 20 2025 16:57:41 GMT-0500 (Central Daylight Time),529257.8999999762,146_o_m_n_a.png,O,m,1009,6,1,2017.6000000238419,527240.2999999523,7209,NNB,C,4
4,test,2,0.0,2-Back,1.0,m,Wed Aug 20 2025 16:57:41 GMT-0500 (Central Daylight Time),531091.7999999523,098_y_f_n_a.png,O,m,800,7,1,1826.3999999761581,529265.3999999762,7209,NNB,C,5
5,test,2,1.0,2-Back,1.0,z,Wed Aug 20 2025 16:57:41 GMT-0500 (Central Daylight Time),532756.6999999285,146_o_m_n_a.png,O,z,640,8,1,1656.7999999523163,531099.8999999762,7209,NNB,C,6
6,test,2,0.0,2-Back,1.0,m,Wed Aug 20 2025 16:57:41 GMT-0500 (Central Daylight Time),534755.1999999285,031_y_m_n_a.png,O,m,980,9,1,1993.6999999284744,532761.5,7209,NNB,C,7
7,test,2,0.0,2-Back,1.0,m,Wed Aug 20 2025 16:57:41 GMT-0500 (Central Daylight Time),536903.5999999046,031_y_m_n_a.png,O,m,1115,10,1,2140.6999999284744,534762.8999999762,7209,NNB,C,8
8,test,2,0.0,2-Back,1.0,m,Wed Aug 20 2025 16:57:41 GMT-0500 (Central Daylight Time),538837.3999999762,006_m_f_n_a.png,O,m,905,11,1,1930.6000000238419,536906.7999999523,7209,NNB,C,9
9,test,2,0.0,2-Back,1.0,m,Wed Aug 20 2025 16:57:41 GMT-0500 (Central Daylight Time),540703.5,028_y_f_n_a.png,O,m,835,12,1,1859.9000000953674,538843.5999999046,7209,NNB,C,10
10,test,2,1.0,2-Back,1.0,z,Wed Aug 20 2025 16:57:41 GMT-0500 (Central Daylight Time),542253.0999999046,006_m_f_n_a.png,O,z,520,13,1,1542.1999999284744,540710.8999999762,7209,NNB,C,11
11,test,2,0.0,2-Back,1.0,m,Wed Aug 20 2025 16:57:41 GMT-0500 (Central Daylight Time),544052.1999999285,059_o_m_n_a.png,O,m,771,14,1,1792.5,542259.6999999285,7209,NNB,C,12
12,test,2,0.0,2-Back,1.0,m,Wed Aug 20 2025 16:57:41 GMT-0500 (Central Daylight Time),546119.1999999285,059_o_m_n_a.png,O,m,1044,15,1,2059.5,544059.6999999285,7209,NNB,C,13
13,test,2,0.0,2-Back,1.0,m,Wed Aug 20 2025 16:57:41 GMT-0500 (Central Daylight Time),548100.8999999762,030_o_f_n_a.png,O,m,954,16,1,1972.3000000715256,546128.5999999046,7209,NNB,C,14
14,test,2,0.0,2-Back,1.0,m,Wed Aug 20 2025 16:57:41 GMT-0500 (Central Daylight Time),549983.8999999762,092_m_m_n_a.png,O,m,850,17,1,1876.0,548107.8999999762,7209,NNB,C,15
15,test,2,1.0,2-Back,1.0,z,Wed Aug 20 2025 16:57:41 GMT-0500 (Central Daylight Time),551900.3999999762,030_o_f_n_a.png,O,z,888,18,1,1909.0,549991.3999999762,7209,NNB,C,16
0,test,3,1.0,2-Back,,,Wed Aug 20 2025 16:57:41 GMT-0500 (Central Daylight Time),551900.3999999762,057_y_m_n_a.png,O,space,988,1,1,1909.0,549991.3999999762,7209,NNB,C,0
0,test,3,1.0,2-Back,,,Wed Aug 20 2025 16:57:41 GMT-0500 (Central Daylight Time),551900.3999999762,057_y_m_n_a.png,O,space,988,2,1,1909.0,549991.3999999762,7209,NNB,C,0
1,test,3,0.0,2-Back,1.0,m,Wed Aug 20 2025 16:57:41 GMT-0500 (Central Daylight Time),559997.1999999285,030_o_f_n_a.png,O,m,938,3,1,1956.2999999523163,558040.8999999762,7209,NNB,C,1
2,test,3,0.0,2-Back,1.0,m,Wed Aug 20 2025 16:57:41 GMT-0500 (Central Daylight Time),561813.5,082_m_m_n_a.png,O,m,787,4,1,1809.4000000953674,560004.0999999046,7209,NNB,C,2
3,test,3,1.0,2-Back,1.0,z,Wed Aug 20 2025 16:57:41 GMT-0500 (Central Daylight Time),563481.2999999523,030_o_f_n_a.png,O,z,634,5,1,1661.7000000476837,561819.5999999046,7209,NNB,C,3
4,test,3,0.0,2-Back,1.0,m,Wed Aug 20 2025 16:57:41 GMT-0500 (Central Daylight Time),565364.3999999762,031_y_m_n_a.png,O,m,867,6,1,1876.6000000238419,563487.7999999523,7209,NNB,C,4
4,test,3,0.0,2-Back,0.0,m,Wed Aug 20 2025 16:57:41 GMT-0500 (Central Daylight Time),567363.0999999046,082_m_m_n_a.png,O,z,968,7,1,1991.1999999284744,565371.8999999762,7209,NNB,C,5
5,test,3,1.0,2-Back,1.0,z,Wed Aug 20 2025 16:57:41 GMT-0500 (Central Daylight Time),569628.8999999762,031_y_m_n_a.png,O,z,1233,8,1,2257.5,567371.3999999762,7209,NNB,C,6
6,test,3,0.0,2-Back,1.0,m,Wed Aug 20 2025 16:57:41 GMT-0500 (Central Daylight Time),571360.1999999285,028_y_f_n_a.png,O,m,709,9,1,1723.2999999523163,569636.8999999762,7209,NNB,C,7
7,test,3,0.0,2-Back,1.0,m,Wed Aug 20 2025 16:57:41 GMT-0500 (Central Daylight Time),573160.6999999285,092_m_m_n_a.png,O,m,777,10,1,1796.6999999284744,571364.0,7209,NNB,C,8
8,test,3,1.0,2-Back,1.0,z,Wed Aug 20 2025 16:57:41 GMT-0500 (Central Daylight Time),574759.6999999285,028_y_f_n_a.png,O,z,576,11,1,1592.0,573167.6999999285,7209,NNB,C,9
9,test,3,1.0,2-Back,1.0,z,Wed Aug 20 2025 16:57:41 GMT-0500 (Central Daylight Time),576475.5,092_m_m_n_a.png,O,z,696,12,1,1709.7000000476837,574765.7999999523,7209,NNB,C,10
10,test,3,0.0,2-Back,1.0,m,Wed Aug 20 2025 16:57:41 GMT-0500 (Central Daylight Time),578491.0,030_o_f_n_a.png,O,m,989,13,1,2008.4000000953674,576482.5999999046,7209,NNB,C,11
11,test,3,0.0,2-Back,1.0,m,Wed Aug 20 2025 16:57:41 GMT-0500 (Central Daylight Time),580374.3999999762,093_m_f_n_a.png,O,m,853,14,1,1877.0,578497.3999999762,7209,NNB,C,12
12,test,3,0.0,2-Back,1.0,m,Wed Aug 20 2025 16:57:41 GMT-0500 (Central Daylight Time),582256.6999999285,146_o_m_n_a.png,O,m,857,15,1,1875.3999999761581,580381.2999999523,7209,NNB,C,13
13,test,3,1.0,2-Back,1.0,z,Wed Aug 20 2025 16:57:41 GMT-0500 (Central Daylight Time),584089.1999999285,093_m_f_n_a.png,O,z,807,16,1,1825.3999999761581,582263.7999999523,7209,NNB,C,14
14,test,3,0.0,2-Back,1.0,m,Wed Aug 20 2025 16:57:41 GMT-0500 (Central Daylight Time),585873.6999999285,130_o_f_n_a.png,O,m,751,17,1,1782.0,584091.6999999285,7209,NNB,C,15
15,test,3,0.0,2-Back,1.0,m,Wed Aug 20 2025 16:57:41 GMT-0500 (Central Daylight Time),588055.6999999285,130_o_f_n_a.png,O,m,1151,18,1,2176.2999999523163,585879.3999999762,7209,NNB,C,16
0,test,4,0.0,2-Back,,,Wed Aug 20 2025 16:57:41 GMT-0500 (Central Daylight Time),588055.6999999285,059_o_m_n_a.png,O,space,1089,1,1,2176.2999999523163,585879.3999999762,7209,NNB,C,0
0,test,4,0.0,2-Back,,,Wed Aug 20 2025 16:57:41 GMT-0500 (Central Daylight Time),588055.6999999285,098_y_f_n_a.png,O,space,1089,2,1,2176.2999999523163,585879.3999999762,7209,NNB,C,0
1,test,4,1.0,2-Back,1.0,z,Wed Aug 20 2025 16:57:41 GMT-0500 (Central Daylight Time),595902.8999999762,059_o_m_n_a.png,O,z,543,3,1,1556.1000000238419,594346.7999999523,7209,NNB,C,1
2,test,4,1.0,2-Back,1.0,z,Wed Aug 20 2025 16:57:41 GMT-0500 (Central Daylight Time),597604.2999999523,098_y_f_n_a.png,O,z,684,4,1,1694.5,595909.7999999523,7209,NNB,C,2
3,test,4,0.0,2-Back,1.0,m,Wed Aug 20 2025 16:57:41 GMT-0500 (Central Daylight Time),599603.5,030_o_f_n_a.png,O,m,983,5,1,1992.1000000238419,597611.3999999762,7209,NNB,C,3
4,test,4,0.0,2-Back,1.0,m,Wed Aug 20 2025 16:57:41 GMT-0500 (Central Daylight Time),601803.3999999762,030_o_f_n_a.png,O,m,1182,6,1,2191.600000023842,599611.7999999523,7209,NNB,C,4
5,test,4,0.0,2-Back,1.0,m,Wed Aug 20 2025 16:57:41 GMT-0500 (Central Daylight Time),603768.0,006_m_f_n_a.png,O,m,919,7,1,1950.1000000238419,601817.8999999762,7209,NNB,C,5
6,test,4,0.0,2-Back,1.0,m,Wed Aug 20 2025 16:57:41 GMT-0500 (Central Daylight Time),605550.5999999046,031_y_m_n_a.png,O,m,763,8,1,1775.0,603775.5999999046,7209,NNB,C,6
7,test,4,1.0,2-Back,1.0,z,Wed Aug 20 2025 16:57:41 GMT-0500 (Central Daylight Time),607300.3999999762,006_m_f_n_a.png,O,z,723,9,1,1742.8999999761581,605557.5,7209,NNB,C,7
8,test,4,0.0,2-Back,1.0,m,Wed Aug 20 2025 16:57:41 GMT-0500 (Central Daylight Time),609299.2999999523,092_m_m_n_a.png,O,m,972,10,1,1990.2000000476837,607309.0999999046,7209,NNB,C,8
9,test,4,0.0,2-Back,1.0,m,Wed Aug 20 2025 16:57:41 GMT-0500 (Central Daylight Time),611381.7999999523,031_y_m_n_a.png,O,m,1053,11,1,2072.399999976158,609309.3999999762,7209,NNB,C,9
10,test,4,0.0,2-Back,1.0,m,Wed Aug 20 2025 16:57:41 GMT-0500 (Central Daylight Time),613230.0999999046,130_o_f_n_a.png,O,m,818,12,1,1840.6999999284744,611389.3999999762,7209,NNB,C,10
10,test,4,0.0,2-Back,0.0,m,Wed Aug 20 2025 16:57:41 GMT-0500 (Central Daylight Time),614846.8999999762,057_y_m_n_a.png,O,z,585,13,1,1610.3000000715256,613236.5999999046,7209,NNB,C,11
11,test,4,1.0,2-Back,1.0,z,Wed Aug 20 2025 16:57:41 GMT-0500 (Central Daylight Time),616830.0,130_o_f_n_a.png,O,z,961,14,1,1976.7000000476837,614853.2999999523,7209,NNB,C,12
11,test,4,1.0,2-Back,0.0,z,Wed Aug 20 2025 16:57:41 GMT-0500 (Central Daylight Time),618529.8999999762,057_y_m_n_a.png,O,m,667,15,1,1693.0,616836.8999999762,7209,NNB,C,13
12,test,4,0.0,2-Back,1.0,m,Wed Aug 20 2025 16:57:41 GMT-0500 (Central Daylight Time),620547.7999999523,082_m_m_n_a.png,O,m,1001,16,1,2010.2999999523163,618537.5,7209,NNB,C,14
13,test,4,0.0,2-Back,1.0,m,Wed Aug 20 2025 16:57:41 GMT-0500 (Central Daylight Time),622431.0,093_m_f_n_a.png,O,m,862,17,1,1877.7000000476837,620553.2999999523,7209,NNB,C,15
14,test,4,1.0,2-Back,1.0,z,Wed Aug 20 2025 16:57:41 GMT-0500 (Central Daylight Time),624228.8999999762,082_m_m_n_a.png,O,z,768,18,1,1791.8999999761581,622437.0,7209,NNB,C,16
0,test,5,1.0,2-Back,,,Wed Aug 20 2025 16:57:41 GMT-0500 (Central Daylight Time),624228.8999999762,057_y_m_n_a.png,O,space,1260,1,1,1791.8999999761581,622437.0,7209,NNB,C,0
0,test,5,1.0,2-Back,,,Wed Aug 20 2025 16:57:41 GMT-0500 (Central Daylight Time),624228.8999999762,093_m_f_n_a.png,O,space,1260,2,1,1791.8999999761581,622437.0,7209,NNB,C,0
0,test,5,1.0,2-Back,0.0,z,Wed Aug 20 2025 16:57:41 GMT-0500 (Central Daylight Time),633257.6999999285,057_y_m_n_a.png,O,m,1684,3,1,2707.6999999284744,630550.0,7209,NNB,C,1
1,test,5,1.0,2-Back,1.0,z,Wed Aug 20 2025 16:57:41 GMT-0500 (Central Daylight Time),634891.2999999523,093_m_f_n_a.png,O,z,600,4,1,1626.7000000476837,633264.5999999046,7209,NNB,C,2
2,test,5,0.0,2-Back,1.0,m,Wed Aug 20 2025 16:57:41 GMT-0500 (Central Daylight Time),636691.3999999762,130_o_f_n_a.png,O,m,767,5,1,1793.7000000476837,634897.6999999285,7209,NNB,C,3
2,test,5,0.0,2-Back,0.0,m,Wed Aug 20 2025 16:57:41 GMT-0500 (Central Daylight Time),638539.5,057_y_m_n_a.png,O,z,822,6,1,1841.8000000715256,636697.6999999285,7209,NNB,C,4
3,test,5,0.0,2-Back,1.0,m,Wed Aug 20 2025 16:57:41 GMT-0500 (Central Daylight Time),640238.3999999762,028_y_f_n_a.png,O,m,677,7,1,1690.8999999761581,638547.5,7209,NNB,C,5
3,test,5,0.0,2-Back,0.0,m,Wed Aug 20 2025 16:57:41 GMT-0500 (Central Daylight Time),642040.2999999523,130_o_f_n_a.png,O,z,770,8,1,1795.0,640245.2999999523,7209,NNB,C,6
4,test,5,1.0,2-Back,1.0,z,Wed Aug 20 2025 16:57:41 GMT-0500 (Central Daylight Time),643804.8999999762,028_y_f_n_a.png,O,z,738,9,1,1756.5,642048.3999999762,7209,NNB,C,7
5,test,5,0.0,2-Back,1.0,m,Wed Aug 20 2025 16:57:41 GMT-0500 (Central Daylight Time),645554.3999999762,146_o_m_n_a.png,O,m,719,10,1,1742.3999999761581,643812.0,7209,NNB,C,8
6,test,5,0.0,2-Back,1.0,m,Wed Aug 20 2025 16:57:41 GMT-0500 (Central Daylight Time),647586.7999999523,006_m_f_n_a.png,O,m,999,11,1,2025.7000000476837,645561.0999999046,7209,NNB,C,9
6,test,5,0.0,2-Back,0.0,m,Wed Aug 20 2025 16:57:41 GMT-0500 (Central Daylight Time),649671.0999999046,092_m_m_n_a.png,O,z,1062,12,1,2079.0999999046326,647592.0,7209,NNB,C,10
7,test,5,0.0,2-Back,1.0,m,Wed Aug 20 2025 16:57:41 GMT-0500 (Central Daylight Time),651751.6999999285,146_o_m_n_a.png,O,m,1061,13,1,2073.2999999523163,649678.3999999762,7209,NNB,C,11
8,test,5,1.0,2-Back,1.0,z,Wed Aug 20 2025 16:57:41 GMT-0500 (Central Daylight Time),653850.1999999285,092_m_m_n_a.png,O,z,1079,14,1,2091.899999976158,651758.2999999523,7209,NNB,C,12
9,test,5,0.0,2-Back,1.0,m,Wed Aug 20 2025 16:57:41 GMT-0500 (Central Daylight Time),655684.1999999285,098_y_f_n_a.png,O,m,803,15,1,1829.6000000238419,653854.5999999046,7209,NNB,C,13
10,test,5,0.0,2-Back,1.0,m,Wed Aug 20 2025 16:57:41 GMT-0500 (Central Daylight Time),657483.6999999285,059_o_m_n_a.png,O,m,773,16,1,1790.1000000238419,655693.5999999046,7209,NNB,C,14
11,test,5,0.0,2-Back,1.0,m,Wed Aug 20 2025 16:57:41 GMT-0500 (Central Daylight Time),659265.3999999762,006_m_f_n_a.png,O,m,757,17,1,1773.3000000715256,657492.0999999046,7209,NNB,C,15
12,test,5,1.0,2-Back,1.0,z,Wed Aug 20 2025 16:57:41 GMT-0500 (Central Daylight Time),661300.1999999285,059_o_m_n_a.png,O,z,1006,18,1,2027.7999999523163,659272.3999999762,7209,NNB,C,16
