acc_sum,block,block_c,change,condition,correct,correct_response,datetime,endtime,face,project,response,response_time,row_sel,session_number,start_end,starttime,subject_id,task,task_vers,trial
0,prac,1,,1-Back,,,Mon Apr 13 2026 12:38:45 GMT-0500 (Central Daylight Time),,050_m_f_n_a.png,I,space,2105,1,,,,8065,NNB,A,0
1,prac,1,0.0,1-Back,1.0,m,Mon Apr 13 2026 12:38:45 GMT-0500 (Central Daylight Time),78332.69999998808,063_y_f_n_a.png,I,m,981,2,,1806.6000000238419,76526.09999996424,8065,NNB,A,1
2,prac,1,1.0,1-Back,1.0,z,Mon Apr 13 2026 12:38:45 GMT-0500 (Central Daylight Time),80948.39999997616,063_y_f_n_a.png,I,z,1829,3,,2609.0,78339.39999997616,8065,NNB,A,2
3,prac,1,0.0,1-Back,1.0,m,Mon Apr 13 2026 12:38:45 GMT-0500 (Central Daylight Time),82864.5,053_o_m_n_a.png,I,m,1109,4,,1909.6000000238419,80954.89999997616,8065,NNB,A,3
4,prac,1,0.0,1-Back,1.0,m,Mon Apr 13 2026 12:38:45 GMT-0500 (Central Daylight Time),84197.30000001192,058_m_m_n_a.png,I,m,519,5,,1326.2000000476837,82871.09999996424,8065,NNB,A,4
5,prac,1,1.0,1-Back,1.0,z,Mon Apr 13 2026 12:38:45 GMT-0500 (Central Daylight Time),85397.0,058_m_m_n_a.png,I,z,413,6,,1193.5,84203.5,8065,NNB,A,5
6,prac,1,0.0,1-Back,1.0,m,Mon Apr 13 2026 12:38:45 GMT-0500 (Central Daylight Time),86896.39999997616,047_o_f_n_a.png,I,m,659,7,,1492.800000011921,85403.59999996424,8065,NNB,A,6
7,prac,1,0.0,1-Back,1.0,m,Mon Apr 13 2026 12:38:45 GMT-0500 (Central Daylight Time),88179.30000001192,045_m_m_n_a.png,I,m,482,8,,1276.2000000476837,86903.09999996424,8065,NNB,A,7
8,prac,1,0.0,1-Back,1.0,m,Mon Apr 13 2026 12:38:45 GMT-0500 (Central Daylight Time),89695.59999996424,050_m_f_n_a.png,I,m,735,9,,1509.7999999523163,88185.80000001192,8065,NNB,A,8
9,prac,1,1.0,1-Back,1.0,z,Mon Apr 13 2026 12:38:45 GMT-0500 (Central Daylight Time),91111.89999997616,050_m_f_n_a.png,I,z,627,10,,1409.8999999761581,89702.0,8065,NNB,A,9
10,prac,1,0.0,1-Back,1.0,m,Mon Apr 13 2026 12:38:45 GMT-0500 (Central Daylight Time),92961.30000001192,053_o_m_n_a.png,I,m,1066,11,,1842.800000011921,91118.5,8065,NNB,A,10
11,prac,1,0.0,1-Back,1.0,m,Mon Apr 13 2026 12:38:45 GMT-0500 (Central Daylight Time),94427.69999998808,010_y_f_n_a.png,I,m,635,12,,1459.699999988079,92968.0,8065,NNB,A,11
0,test,1,0.0,1-Back,,,Mon Apr 13 2026 12:38:45 GMT-0500 (Central Daylight Time),94427.69999998808,063_y_f_n_a.png,I,space,3431,1,,1459.699999988079,92968.0,8065,NNB,A,0
1,test,1,0.0,1-Back,1.0,m,Mon Apr 13 2026 12:38:45 GMT-0500 (Central Daylight Time),105923.69999998808,043_m_f_n_a.png,I,m,447,2,,1461.199999988079,104462.5,8065,NNB,A,1
2,test,1,0.0,1-Back,1.0,m,Mon Apr 13 2026 12:38:45 GMT-0500 (Central Daylight Time),107412.80000001192,010_y_f_n_a.png,I,m,473,3,,1484.7000000476837,105928.09999996424,8065,NNB,A,2
3,test,1,1.0,1-Back,1.0,z,Mon Apr 13 2026 12:38:45 GMT-0500 (Central Daylight Time),108806.19999998808,010_y_f_n_a.png,I,z,370,4,,1388.6000000238419,107417.59999996424,8065,NNB,A,3
4,test,1,0.0,1-Back,1.0,m,Mon Apr 13 2026 12:38:45 GMT-0500 (Central Daylight Time),110189.30000001192,043_m_f_n_a.png,I,m,354,5,,1379.2000000476837,108810.09999996424,8065,NNB,A,4
5,test,1,0.0,1-Back,1.0,m,Mon Apr 13 2026 12:38:45 GMT-0500 (Central Daylight Time),111588.59999996424,053_o_m_n_a.png,I,m,379,6,,1395.199999988079,110193.39999997616,8065,NNB,A,5
6,test,1,1.0,1-Back,1.0,z,Mon Apr 13 2026 12:38:45 GMT-0500 (Central Daylight Time),112971.59999996424,053_o_m_n_a.png,I,z,364,7,,1379.0,111592.59999996424,8065,NNB,A,6
7,test,1,0.0,1-Back,1.0,m,Mon Apr 13 2026 12:38:45 GMT-0500 (Central Daylight Time),114321.19999998808,058_m_m_n_a.png,I,m,317,8,,1345.699999988079,112975.5,8065,NNB,A,7
8,test,1,0.0,1-Back,1.0,m,Mon Apr 13 2026 12:38:45 GMT-0500 (Central Daylight Time),115754.19999998808,047_o_f_n_a.png,I,m,407,9,,1429.300000011921,114324.89999997616,8065,NNB,A,8
9,test,1,0.0,1-Back,1.0,m,Mon Apr 13 2026 12:38:45 GMT-0500 (Central Daylight Time),117170.19999998808,058_m_m_n_a.png,I,m,390,10,,1411.800000011921,115758.39999997616,8065,NNB,A,9
10,test,1,0.0,1-Back,1.0,m,Mon Apr 13 2026 12:38:45 GMT-0500 (Central Daylight Time),118620.19999998808,041_y_m_n_a.png,I,m,423,11,,1445.800000011921,117174.39999997616,8065,NNB,A,10
11,test,1,1.0,1-Back,1.0,z,Mon Apr 13 2026 12:38:45 GMT-0500 (Central Daylight Time),120036.0,041_y_m_n_a.png,I,z,396,12,,1411.4000000357628,118624.59999996424,8065,NNB,A,11
12,test,1,0.0,1-Back,1.0,m,Mon Apr 13 2026 12:38:45 GMT-0500 (Central Daylight Time),121352.19999998808,044_o_f_n_a.png,I,m,292,13,,1311.800000011921,120040.39999997616,8065,NNB,A,12
13,test,1,1.0,1-Back,1.0,z,Mon Apr 13 2026 12:38:45 GMT-0500 (Central Daylight Time),122785.30000001192,044_o_f_n_a.png,I,z,408,14,,1429.300000011921,121356.0,8065,NNB,A,13
14,test,1,0.0,1-Back,1.0,m,Mon Apr 13 2026 12:38:45 GMT-0500 (Central Daylight Time),124134.69999998808,008_y_m_n_a.png,I,m,327,15,,1345.0,122789.69999998808,8065,NNB,A,14
15,test,1,0.0,1-Back,1.0,m,Mon Apr 13 2026 12:38:45 GMT-0500 (Central Daylight Time),125484.39999997616,050_m_f_n_a.png,I,m,330,16,,1345.699999988079,124138.69999998808,8065,NNB,A,15
16,test,1,0.0,1-Back,1.0,m,Mon Apr 13 2026 12:38:45 GMT-0500 (Central Daylight Time),126850.59999996424,046_o_m_n_a.png,I,m,340,17,,1361.7999999523163,125488.80000001192,8065,NNB,A,16
17,test,1,0.0,1-Back,1.0,m,Mon Apr 13 2026 12:38:45 GMT-0500 (Central Daylight Time),128216.80000001192,050_m_f_n_a.png,I,m,342,18,,1362.300000011921,126854.5,8065,NNB,A,17
0,test,2,0.0,1-Back,,,Mon Apr 13 2026 12:38:45 GMT-0500 (Central Daylight Time),128216.80000001192,058_m_m_n_a.png,I,space,1632,1,,1362.300000011921,126854.5,8065,NNB,A,0
1,test,2,0.0,1-Back,1.0,m,Mon Apr 13 2026 12:38:45 GMT-0500 (Central Daylight Time),133365.09999996424,043_m_f_n_a.png,I,m,471,2,,1494.699999988079,131870.39999997616,8065,NNB,A,1
2,test,2,1.0,1-Back,1.0,z,Mon Apr 13 2026 12:38:45 GMT-0500 (Central Daylight Time),134814.69999998808,043_m_f_n_a.png,I,z,419,3,,1445.300000011921,133369.39999997616,8065,NNB,A,2
3,test,2,0.0,1-Back,1.0,m,Mon Apr 13 2026 12:38:45 GMT-0500 (Central Daylight Time),136164.30000001192,058_m_m_n_a.png,I,m,330,4,,1345.6000000238419,134818.69999998808,8065,NNB,A,3
4,test,2,0.0,1-Back,1.0,m,Mon Apr 13 2026 12:38:45 GMT-0500 (Central Daylight Time),137597.19999998808,041_y_m_n_a.png,I,m,412,5,,1428.800000011921,136168.39999997616,8065,NNB,A,4
5,test,2,0.0,1-Back,1.0,m,Mon Apr 13 2026 12:38:45 GMT-0500 (Central Daylight Time),138980.09999996424,063_y_f_n_a.png,I,m,363,6,,1378.0,137602.09999996424,8065,NNB,A,5
6,test,2,1.0,1-Back,1.0,z,Mon Apr 13 2026 12:38:45 GMT-0500 (Central Daylight Time),140346.39999997616,063_y_f_n_a.png,I,z,340,7,,1362.0999999642372,138984.30000001192,8065,NNB,A,6
7,test,2,0.0,1-Back,1.0,m,Mon Apr 13 2026 12:38:45 GMT-0500 (Central Daylight Time),141729.30000001192,041_y_m_n_a.png,I,m,350,8,,1378.4000000357628,140350.89999997616,8065,NNB,A,7
8,test,2,0.0,1-Back,1.0,m,Mon Apr 13 2026 12:38:45 GMT-0500 (Central Daylight Time),143128.69999998808,044_o_f_n_a.png,I,m,367,9,,1394.5,141734.19999998808,8065,NNB,A,8
9,test,2,0.0,1-Back,1.0,m,Mon Apr 13 2026 12:38:45 GMT-0500 (Central Daylight Time),144561.69999998808,045_m_m_n_a.png,I,m,408,10,,1428.800000011921,143132.89999997616,8065,NNB,A,9
10,test,2,1.0,1-Back,1.0,z,Mon Apr 13 2026 12:38:45 GMT-0500 (Central Daylight Time),146011.19999998808,045_m_m_n_a.png,I,z,431,11,,1445.3999999761581,144565.80000001192,8065,NNB,A,10
11,test,2,0.0,1-Back,1.0,m,Mon Apr 13 2026 12:38:45 GMT-0500 (Central Daylight Time),147377.5,044_o_f_n_a.png,I,m,349,12,,1362.699999988079,146014.80000001192,8065,NNB,A,11
12,test,2,0.0,1-Back,1.0,m,Mon Apr 13 2026 12:38:45 GMT-0500 (Central Daylight Time),148860.30000001192,047_o_f_n_a.png,I,m,463,13,,1478.6000000238419,147381.69999998808,8065,NNB,A,12
13,test,2,0.0,1-Back,1.0,m,Mon Apr 13 2026 12:38:45 GMT-0500 (Central Daylight Time),150259.89999997616,053_o_m_n_a.png,I,m,372,14,,1395.199999988079,148864.69999998808,8065,NNB,A,13
14,test,2,0.0,1-Back,1.0,m,Mon Apr 13 2026 12:38:45 GMT-0500 (Central Daylight Time),151692.80000001192,046_o_m_n_a.png,I,m,404,15,,1429.0,150263.80000001192,8065,NNB,A,14
15,test,2,1.0,1-Back,1.0,z,Mon Apr 13 2026 12:38:45 GMT-0500 (Central Daylight Time),153175.80000001192,046_o_m_n_a.png,I,z,452,16,,1478.2000000476837,151697.59999996424,8065,NNB,A,15
16,test,2,0.0,1-Back,1.0,m,Mon Apr 13 2026 12:38:45 GMT-0500 (Central Daylight Time),154708.39999997616,008_y_m_n_a.png,I,m,515,17,,1528.0,153180.39999997616,8065,NNB,A,16
17,test,2,1.0,1-Back,1.0,z,Mon Apr 13 2026 12:38:45 GMT-0500 (Central Daylight Time),156274.59999996424,008_y_m_n_a.png,I,z,548,18,,1560.8999999761581,154713.69999998808,8065,NNB,A,17
0,test,3,1.0,1-Back,,,Mon Apr 13 2026 12:38:45 GMT-0500 (Central Daylight Time),156274.59999996424,010_y_f_n_a.png,I,space,1038,1,,1560.8999999761581,154713.69999998808,8065,NNB,A,0
1,test,3,0.0,1-Back,1.0,m,Mon Apr 13 2026 12:38:45 GMT-0500 (Central Daylight Time),160856.59999996424,046_o_m_n_a.png,I,m,442,2,,1461.0999999642372,159395.5,8065,NNB,A,1
2,test,3,1.0,1-Back,1.0,z,Mon Apr 13 2026 12:38:45 GMT-0500 (Central Daylight Time),162572.59999996424,046_o_m_n_a.png,I,z,688,3,,1711.8999999761581,160860.69999998808,8065,NNB,A,2
3,test,3,0.0,1-Back,1.0,m,Mon Apr 13 2026 12:38:45 GMT-0500 (Central Daylight Time),163972.19999998808,050_m_f_n_a.png,I,m,379,4,,1395.5,162576.69999998808,8065,NNB,A,3
4,test,3,1.0,1-Back,1.0,z,Mon Apr 13 2026 12:38:45 GMT-0500 (Central Daylight Time),165388.5,050_m_f_n_a.png,I,z,388,5,,1412.300000011921,163976.19999998808,8065,NNB,A,4
5,test,3,0.0,1-Back,1.0,m,Mon Apr 13 2026 12:38:45 GMT-0500 (Central Daylight Time),166854.59999996424,044_o_f_n_a.png,I,m,444,6,,1461.5,165393.09999996424,8065,NNB,A,5
6,test,3,0.0,1-Back,1.0,m,Mon Apr 13 2026 12:38:45 GMT-0500 (Central Daylight Time),168354.19999998808,041_y_m_n_a.png,I,m,482,7,,1494.8999999761581,166859.30000001192,8065,NNB,A,6
7,test,3,0.0,1-Back,1.0,m,Mon Apr 13 2026 12:38:45 GMT-0500 (Central Daylight Time),169787.09999996424,044_o_f_n_a.png,I,m,406,8,,1429.0,168358.09999996424,8065,NNB,A,7
8,test,3,0.0,1-Back,1.0,m,Mon Apr 13 2026 12:38:45 GMT-0500 (Central Daylight Time),171253.30000001192,008_y_m_n_a.png,I,m,437,9,,1461.9000000357628,169791.39999997616,8065,NNB,A,8
9,test,3,1.0,1-Back,1.0,z,Mon Apr 13 2026 12:38:45 GMT-0500 (Central Daylight Time),172786.09999996424,008_y_m_n_a.png,I,z,507,10,,1529.0,171257.09999996424,8065,NNB,A,9
10,test,3,0.0,1-Back,1.0,m,Mon Apr 13 2026 12:38:45 GMT-0500 (Central Daylight Time),174185.89999997616,043_m_f_n_a.png,I,m,374,11,,1395.699999988079,172790.19999998808,8065,NNB,A,10
11,test,3,0.0,1-Back,1.0,m,Mon Apr 13 2026 12:38:45 GMT-0500 (Central Daylight Time),175601.89999997616,063_y_f_n_a.png,I,m,398,12,,1411.699999988079,174190.19999998808,8065,NNB,A,11
12,test,3,1.0,1-Back,1.0,z,Mon Apr 13 2026 12:38:45 GMT-0500 (Central Daylight Time),177068.09999996424,063_y_f_n_a.png,I,z,438,13,,1460.0,175608.09999996424,8065,NNB,A,12
13,test,3,0.0,1-Back,1.0,m,Mon Apr 13 2026 12:38:45 GMT-0500 (Central Daylight Time),178734.30000001192,043_m_f_n_a.png,I,m,513,14,,1661.800000011921,177072.5,8065,NNB,A,13
14,test,3,0.0,1-Back,1.0,m,Mon Apr 13 2026 12:38:45 GMT-0500 (Central Daylight Time),180183.89999997616,058_m_m_n_a.png,I,m,426,15,,1445.5,178738.39999997616,8065,NNB,A,14
15,test,3,1.0,1-Back,1.0,z,Mon Apr 13 2026 12:38:45 GMT-0500 (Central Daylight Time),181783.30000001192,058_m_m_n_a.png,I,z,568,16,,1595.0,180188.30000001192,8065,NNB,A,15
16,test,3,0.0,1-Back,1.0,m,Mon Apr 13 2026 12:38:45 GMT-0500 (Central Daylight Time),183249.69999998808,047_o_f_n_a.png,I,m,433,17,,1462.0,181787.69999998808,8065,NNB,A,16
17,test,3,1.0,1-Back,1.0,z,Mon Apr 13 2026 12:38:45 GMT-0500 (Central Daylight Time),184782.39999997616,047_o_f_n_a.png,I,z,503,18,,1527.8999999761581,183254.5,8065,NNB,A,17
0,test,4,1.0,1-Back,,,Mon Apr 13 2026 12:38:45 GMT-0500 (Central Daylight Time),184782.39999997616,050_m_f_n_a.png,I,space,1394,1,,1527.8999999761581,183254.5,8065,NNB,A,0
1,test,4,0.0,1-Back,1.0,m,Mon Apr 13 2026 12:38:45 GMT-0500 (Central Daylight Time),189714.09999996424,046_o_m_n_a.png,I,m,499,2,,1512.5999999642372,188201.5,8065,NNB,A,1
2,test,4,0.0,1-Back,1.0,m,Mon Apr 13 2026 12:38:45 GMT-0500 (Central Daylight Time),191330.30000001192,050_m_f_n_a.png,I,m,598,3,,1611.800000011921,189718.5,8065,NNB,A,2
3,test,4,0.0,1-Back,1.0,m,Mon Apr 13 2026 12:38:45 GMT-0500 (Central Daylight Time),192846.5,044_o_f_n_a.png,I,m,494,4,,1511.800000011921,191334.69999998808,8065,NNB,A,3
4,test,4,1.0,1-Back,1.0,z,Mon Apr 13 2026 12:38:45 GMT-0500 (Central Daylight Time),194196.59999996424,044_o_f_n_a.png,I,z,322,5,,1345.0,192851.59999996424,8065,NNB,A,4
5,test,4,0.0,1-Back,1.0,m,Mon Apr 13 2026 12:38:45 GMT-0500 (Central Daylight Time),195645.89999997616,063_y_f_n_a.png,I,m,420,6,,1444.300000011921,194201.59999996424,8065,NNB,A,5
6,test,4,0.0,1-Back,1.0,m,Mon Apr 13 2026 12:38:45 GMT-0500 (Central Daylight Time),197062.0,041_y_m_n_a.png,I,m,386,7,,1411.800000011921,195650.19999998808,8065,NNB,A,6
7,test,4,1.0,1-Back,1.0,z,Mon Apr 13 2026 12:38:45 GMT-0500 (Central Daylight Time),198494.80000001192,041_y_m_n_a.png,I,z,402,8,,1428.6000000238419,197066.19999998808,8065,NNB,A,7
8,test,4,0.0,1-Back,1.0,m,Mon Apr 13 2026 12:38:45 GMT-0500 (Central Daylight Time),199927.80000001192,063_y_f_n_a.png,I,m,402,9,,1427.800000011921,198500.0,8065,NNB,A,8
9,test,4,0.0,1-Back,1.0,m,Mon Apr 13 2026 12:38:45 GMT-0500 (Central Daylight Time),201310.5,045_m_m_n_a.png,I,m,352,10,,1378.800000011921,199931.69999998808,8065,NNB,A,9
10,test,4,1.0,1-Back,1.0,z,Mon Apr 13 2026 12:38:45 GMT-0500 (Central Daylight Time),202643.5,045_m_m_n_a.png,I,z,314,11,,1328.5,201315.0,8065,NNB,A,10
11,test,4,0.0,1-Back,1.0,m,Mon Apr 13 2026 12:38:45 GMT-0500 (Central Daylight Time),204076.30000001192,047_o_f_n_a.png,I,m,405,12,,1428.9000000357628,202647.39999997616,8065,NNB,A,11
12,test,4,0.0,1-Back,1.0,m,Mon Apr 13 2026 12:38:45 GMT-0500 (Central Daylight Time),205442.59999996424,053_o_m_n_a.png,I,m,348,13,,1361.699999988079,204080.89999997616,8065,NNB,A,12
13,test,4,0.0,1-Back,1.0,m,Mon Apr 13 2026 12:38:45 GMT-0500 (Central Daylight Time),206875.39999997616,047_o_f_n_a.png,I,m,414,14,,1427.5999999642372,205447.80000001192,8065,NNB,A,13
14,test,4,0.0,1-Back,1.0,m,Mon Apr 13 2026 12:38:45 GMT-0500 (Central Daylight Time),208341.69999998808,010_y_f_n_a.png,I,m,437,15,,1461.800000011921,206879.89999997616,8065,NNB,A,14
15,test,4,1.0,1-Back,1.0,z,Mon Apr 13 2026 12:38:45 GMT-0500 (Central Daylight Time),209724.69999998808,010_y_f_n_a.png,I,z,363,16,,1377.699999988079,208347.0,8065,NNB,A,15
16,test,4,0.0,1-Back,1.0,m,Mon Apr 13 2026 12:38:45 GMT-0500 (Central Daylight Time),211257.5,043_m_f_n_a.png,I,m,500,17,,1528.5,209729.0,8065,NNB,A,16
16,test,4,1.0,1-Back,0.0,z,Mon Apr 13 2026 12:38:45 GMT-0500 (Central Daylight Time),212640.39999997616,043_m_f_n_a.png,I,m,358,18,,1378.300000011921,211262.09999996424,8065,NNB,A,17
0,test,5,1.0,1-Back,,,Mon Apr 13 2026 12:38:45 GMT-0500 (Central Daylight Time),212640.39999997616,053_o_m_n_a.png,I,space,896,1,,1378.300000011921,211262.09999996424,8065,NNB,A,0
1,test,5,1.0,1-Back,1.0,z,Mon Apr 13 2026 12:38:45 GMT-0500 (Central Daylight Time),217138.80000001192,053_o_m_n_a.png,I,z,564,2,,1578.5,215560.30000001192,8065,NNB,A,1
2,test,5,0.0,1-Back,1.0,m,Mon Apr 13 2026 12:38:45 GMT-0500 (Central Daylight Time),218888.39999997616,063_y_f_n_a.png,I,m,725,3,,1744.8999999761581,217143.5,8065,NNB,A,2
3,test,5,0.0,1-Back,1.0,m,Mon Apr 13 2026 12:38:45 GMT-0500 (Central Daylight Time),220304.59999996424,041_y_m_n_a.png,I,m,384,4,,1412.0999999642372,218892.5,8065,NNB,A,3
4,test,5,0.0,1-Back,1.0,m,Mon Apr 13 2026 12:38:45 GMT-0500 (Central Daylight Time),221754.39999997616,063_y_f_n_a.png,I,m,432,5,,1445.5,220308.89999997616,8065,NNB,A,4
5,test,5,0.0,1-Back,1.0,m,Mon Apr 13 2026 12:38:45 GMT-0500 (Central Daylight Time),223287.0,058_m_m_n_a.png,I,m,502,6,,1528.5,221758.5,8065,NNB,A,5
6,test,5,1.0,1-Back,1.0,z,Mon Apr 13 2026 12:38:45 GMT-0500 (Central Daylight Time),224736.39999997616,058_m_m_n_a.png,I,z,417,7,,1445.800000011921,223290.59999996424,8065,NNB,A,6
7,test,5,0.0,1-Back,1.0,m,Mon Apr 13 2026 12:38:45 GMT-0500 (Central Daylight Time),226186.19999998808,010_y_f_n_a.png,I,m,432,8,,1446.300000011921,224739.89999997616,8065,NNB,A,7
8,test,5,0.0,1-Back,1.0,m,Mon Apr 13 2026 12:38:45 GMT-0500 (Central Daylight Time),227685.59999996424,008_y_m_n_a.png,I,m,470,9,,1495.3999999761581,226190.19999998808,8065,NNB,A,8
9,test,5,0.0,1-Back,1.0,m,Mon Apr 13 2026 12:38:45 GMT-0500 (Central Daylight Time),229251.89999997616,010_y_f_n_a.png,I,m,539,10,,1561.800000011921,227690.09999996424,8065,NNB,A,9
10,test,5,0.0,1-Back,1.0,m,Mon Apr 13 2026 12:38:45 GMT-0500 (Central Daylight Time),230769.19999998808,047_o_f_n_a.png,I,m,501,11,,1513.3999999761581,229255.80000001192,8065,NNB,A,10
11,test,5,1.0,1-Back,1.0,z,Mon Apr 13 2026 12:38:45 GMT-0500 (Central Daylight Time),232151.0,047_o_f_n_a.png,I,z,360,12,,1377.6000000238419,230773.39999997616,8065,NNB,A,11
12,test,5,0.0,1-Back,1.0,m,Mon Apr 13 2026 12:38:45 GMT-0500 (Central Daylight Time),233583.69999998808,046_o_m_n_a.png,I,m,410,13,,1429.300000011921,232154.39999997616,8065,NNB,A,12
13,test,5,0.0,1-Back,1.0,m,Mon Apr 13 2026 12:38:45 GMT-0500 (Central Daylight Time),235033.19999998808,050_m_f_n_a.png,I,m,424,14,,1445.5,233587.69999998808,8065,NNB,A,13
14,test,5,1.0,1-Back,1.0,z,Mon Apr 13 2026 12:38:45 GMT-0500 (Central Daylight Time),236449.39999997616,050_m_f_n_a.png,I,z,391,15,,1412.699999988079,235036.69999998808,8065,NNB,A,14
15,test,5,0.0,1-Back,1.0,m,Mon Apr 13 2026 12:38:45 GMT-0500 (Central Daylight Time),237899.0,046_o_m_n_a.png,I,m,423,16,,1445.9000000357628,236453.09999996424,8065,NNB,A,15
16,test,5,0.0,1-Back,1.0,m,Mon Apr 13 2026 12:38:45 GMT-0500 (Central Daylight Time),239348.80000001192,043_m_f_n_a.png,I,m,421,17,,1446.4000000357628,237902.39999997616,8065,NNB,A,16
17,test,5,0.0,1-Back,1.0,m,Mon Apr 13 2026 12:38:45 GMT-0500 (Central Daylight Time),240948.09999996424,045_m_m_n_a.png,I,m,580,18,,1594.5,239353.59999996424,8065,NNB,A,17
0,prac,1,0.0,2-Back,,,Mon Apr 13 2026 12:38:45 GMT-0500 (Central Daylight Time),240948.09999996424,008_y_m_n_a.png,I,space,3737,1,,1594.5,239353.59999996424,8065,NNB,A,0
0,prac,1,0.0,2-Back,,,Mon Apr 13 2026 12:38:45 GMT-0500 (Central Daylight Time),240948.09999996424,043_m_f_n_a.png,I,space,3737,2,,1594.5,239353.59999996424,8065,NNB,A,0
1,prac,1,1.0,2-Back,1.0,m,Mon Apr 13 2026 12:38:45 GMT-0500 (Central Daylight Time),318457.3000000119,046_o_m_n_a.png,I,m,917,3,,1709.4000000357628,316747.89999997616,8065,NNB,A,1
2,prac,1,0.0,2-Back,1.0,m,Mon Apr 13 2026 12:38:45 GMT-0500 (Central Daylight Time),320190.09999996424,047_o_f_n_a.png,I,m,905,4,,1726.0999999642372,318464.0,8065,NNB,A,2
3,prac,1,0.0,2-Back,1.0,z,Mon Apr 13 2026 12:38:45 GMT-0500 (Central Daylight Time),321572.89999997616,046_o_m_n_a.png,I,z,596,5,,1376.0,320196.89999997616,8065,NNB,A,3
4,prac,1,1.0,2-Back,1.0,z,Mon Apr 13 2026 12:38:45 GMT-0500 (Central Daylight Time),323072.5,047_o_f_n_a.png,I,z,717,6,,1493.199999988079,321579.3000000119,8065,NNB,A,4
5,prac,1,0.0,2-Back,1.0,m,Mon Apr 13 2026 12:38:45 GMT-0500 (Central Daylight Time),324921.89999997616,045_m_m_n_a.png,I,m,1050,7,,1843.0,323078.89999997616,8065,NNB,A,5
6,prac,1,0.0,2-Back,1.0,m,Mon Apr 13 2026 12:38:45 GMT-0500 (Central Daylight Time),326871.39999997616,053_o_m_n_a.png,I,m,1142,8,,1942.699999988079,324928.6999999881,8065,NNB,A,6
7,prac,1,0.0,2-Back,1.0,m,Mon Apr 13 2026 12:38:45 GMT-0500 (Central Daylight Time),328487.39999997616,010_y_f_n_a.png,I,m,772,9,,1609.3999999761581,326878.0,8065,NNB,A,7
8,prac,1,1.0,2-Back,1.0,z,Mon Apr 13 2026 12:38:45 GMT-0500 (Central Daylight Time),329803.59999996424,053_o_m_n_a.png,I,z,531,10,,1310.0,328493.59999996424,8065,NNB,A,8
9,prac,1,0.0,2-Back,1.0,m,Mon Apr 13 2026 12:38:45 GMT-0500 (Central Daylight Time),331369.8000000119,063_y_f_n_a.png,I,m,757,11,,1559.7000000476837,329810.09999996424,8065,NNB,A,9
9,prac,1,0.0,2-Back,0.0,m,Mon Apr 13 2026 12:38:45 GMT-0500 (Central Daylight Time),333152.5,045_m_m_n_a.png,I,z,1000,12,,1776.1000000238419,331376.39999997616,8065,NNB,A,10
0,test,1,0.0,2-Back,,,Mon Apr 13 2026 12:38:45 GMT-0500 (Central Daylight Time),333152.5,041_y_m_n_a.png,I,space,2192,1,,1776.1000000238419,331376.39999997616,8065,NNB,A,0
0,test,1,0.0,2-Back,,,Mon Apr 13 2026 12:38:45 GMT-0500 (Central Daylight Time),333152.5,041_y_m_n_a.png,I,space,2192,2,,1776.1000000238419,331376.39999997616,8065,NNB,A,0
1,test,1,0.0,2-Back,1.0,m,Mon Apr 13 2026 12:38:45 GMT-0500 (Central Daylight Time),346348.3000000119,047_o_f_n_a.png,I,m,646,3,,1661.4000000357628,344686.89999997616,8065,NNB,A,1
2,test,1,0.0,2-Back,1.0,m,Mon Apr 13 2026 12:38:45 GMT-0500 (Central Daylight Time),348164.39999997616,058_m_m_n_a.png,I,m,788,4,,1811.699999988079,346352.6999999881,8065,NNB,A,2
3,test,1,1.0,2-Back,1.0,z,Mon Apr 13 2026 12:38:45 GMT-0500 (Central Daylight Time),350213.89999997616,047_o_f_n_a.png,I,z,1028,5,,2045.0,348168.89999997616,8065,NNB,A,3
4,test,1,0.0,2-Back,1.0,m,Mon Apr 13 2026 12:38:45 GMT-0500 (Central Daylight Time),352046.6999999881,063_y_f_n_a.png,I,m,810,6,,1828.3999999761581,350218.3000000119,8065,NNB,A,4
5,test,1,0.0,2-Back,1.0,m,Mon Apr 13 2026 12:38:45 GMT-0500 (Central Daylight Time),353962.6999999881,058_m_m_n_a.png,I,m,898,7,,1912.0,352050.6999999881,8065,NNB,A,5
6,test,1,1.0,2-Back,1.0,z,Mon Apr 13 2026 12:38:45 GMT-0500 (Central Daylight Time),355745.39999997616,063_y_f_n_a.png,I,z,766,8,,1778.8999999761581,353966.5,8065,NNB,A,6
7,test,1,0.0,2-Back,1.0,m,Mon Apr 13 2026 12:38:45 GMT-0500 (Central Daylight Time),357711.59999996424,008_y_m_n_a.png,I,m,934,9,,1961.8999999761581,355749.6999999881,8065,NNB,A,7
8,test,1,0.0,2-Back,1.0,m,Mon Apr 13 2026 12:38:45 GMT-0500 (Central Daylight Time),359511.09999996424,044_o_f_n_a.png,I,m,777,10,,1795.3999999761581,357715.6999999881,8065,NNB,A,8
9,test,1,1.0,2-Back,1.0,z,Mon Apr 13 2026 12:38:45 GMT-0500 (Central Daylight Time),361660.3000000119,008_y_m_n_a.png,I,z,1130,11,,2145.0,359515.3000000119,8065,NNB,A,9
10,test,1,0.0,2-Back,1.0,m,Mon Apr 13 2026 12:38:45 GMT-0500 (Central Daylight Time),363543.1999999881,043_m_f_n_a.png,I,m,860,12,,1879.0,361664.1999999881,8065,NNB,A,10
11,test,1,0.0,2-Back,1.0,m,Mon Apr 13 2026 12:38:45 GMT-0500 (Central Daylight Time),365709.3000000119,043_m_f_n_a.png,I,m,1145,13,,2161.900000035763,363547.39999997616,8065,NNB,A,11
12,test,1,0.0,2-Back,1.0,m,Mon Apr 13 2026 12:38:45 GMT-0500 (Central Daylight Time),367741.6999999881,046_o_m_n_a.png,I,m,888,14,,2028.0,365713.6999999881,8065,NNB,A,12
12,test,1,0.0,2-Back,0.0,m,Mon Apr 13 2026 12:38:45 GMT-0500 (Central Daylight Time),369524.59999996424,044_o_f_n_a.png,I,z,754,15,,1778.7999999523163,367745.8000000119,8065,NNB,A,13
13,test,1,1.0,2-Back,1.0,z,Mon Apr 13 2026 12:38:45 GMT-0500 (Central Daylight Time),371857.3000000119,046_o_m_n_a.png,I,z,1308,16,,2328.2000000476837,369529.09999996424,8065,NNB,A,14
14,test,1,0.0,2-Back,1.0,m,Mon Apr 13 2026 12:38:45 GMT-0500 (Central Daylight Time),373723.09999996424,050_m_f_n_a.png,I,m,847,17,,1861.699999988079,371861.39999997616,8065,NNB,A,15
15,test,1,0.0,2-Back,1.0,m,Mon Apr 13 2026 12:38:45 GMT-0500 (Central Daylight Time),376172.59999996424,045_m_m_n_a.png,I,m,1421,18,,2445.399999976158,373727.1999999881,8065,NNB,A,16
0,test,2,0.0,2-Back,,,Mon Apr 13 2026 12:38:45 GMT-0500 (Central Daylight Time),376172.59999996424,045_m_m_n_a.png,I,space,1980,1,,2445.399999976158,373727.1999999881,8065,NNB,A,0
0,test,2,0.0,2-Back,,,Mon Apr 13 2026 12:38:45 GMT-0500 (Central Daylight Time),376172.59999996424,010_y_f_n_a.png,I,space,1980,2,,2445.399999976158,373727.1999999881,8065,NNB,A,0
1,test,2,1.0,2-Back,1.0,z,Mon Apr 13 2026 12:38:45 GMT-0500 (Central Daylight Time),385169.5,045_m_m_n_a.png,I,z,899,3,,1911.199999988079,383258.3000000119,8065,NNB,A,1
2,test,2,0.0,2-Back,1.0,m,Mon Apr 13 2026 12:38:45 GMT-0500 (Central Daylight Time),386953.1999999881,050_m_f_n_a.png,I,m,767,4,,1779.300000011921,385173.89999997616,8065,NNB,A,2
3,test,2,0.0,2-Back,1.0,m,Mon Apr 13 2026 12:38:45 GMT-0500 (Central Daylight Time),388785.1999999881,010_y_f_n_a.png,I,m,808,5,,1827.699999988079,386957.5,8065,NNB,A,3
4,test,2,0.0,2-Back,1.0,m,Mon Apr 13 2026 12:38:45 GMT-0500 (Central Daylight Time),390654.3000000119,046_o_m_n_a.png,I,m,837,6,,1864.9000000357628,388789.39999997616,8065,NNB,A,4
5,test,2,0.0,2-Back,1.0,m,Mon Apr 13 2026 12:38:45 GMT-0500 (Central Daylight Time),392900.59999996424,063_y_f_n_a.png,I,m,1229,7,,2241.699999988079,390658.89999997616,8065,NNB,A,5
6,test,2,1.0,2-Back,1.0,z,Mon Apr 13 2026 12:38:45 GMT-0500 (Central Daylight Time),394516.59999996424,046_o_m_n_a.png,I,z,596,8,,1612.0999999642372,392904.5,8065,NNB,A,6
7,test,2,0.0,2-Back,1.0,m,Mon Apr 13 2026 12:38:45 GMT-0500 (Central Daylight Time),396716.09999996424,008_y_m_n_a.png,I,m,1172,9,,2195.599999964237,394520.5,8065,NNB,A,7
7,test,2,0.0,2-Back,0.0,m,Mon Apr 13 2026 12:38:45 GMT-0500 (Central Daylight Time),399065.1999999881,008_y_m_n_a.png,I,z,1316,10,,2345.0,396720.1999999881,8065,NNB,A,8
8,test,2,0.0,2-Back,1.0,m,Mon Apr 13 2026 12:38:45 GMT-0500 (Central Daylight Time),401048.0,043_m_f_n_a.png,I,m,951,11,,1978.6000000238419,399069.39999997616,8065,NNB,A,9
9,test,2,0.0,2-Back,1.0,m,Mon Apr 13 2026 12:38:45 GMT-0500 (Central Daylight Time),402997.39999997616,010_y_f_n_a.png,I,m,928,12,,1945.3999999761581,401052.0,8065,NNB,A,10
10,test,2,1.0,2-Back,1.0,z,Mon Apr 13 2026 12:38:45 GMT-0500 (Central Daylight Time),405213.1999999881,043_m_f_n_a.png,I,z,1195,13,,2212.300000011921,403000.89999997616,8065,NNB,A,11
11,test,2,0.0,2-Back,1.0,m,Mon Apr 13 2026 12:38:45 GMT-0500 (Central Daylight Time),407112.6999999881,053_o_m_n_a.png,I,m,875,14,,1895.3999999761581,405217.3000000119,8065,NNB,A,12
12,test,2,0.0,2-Back,1.0,m,Mon Apr 13 2026 12:38:45 GMT-0500 (Central Daylight Time),409045.5,053_o_m_n_a.png,I,m,904,15,,1928.5,407117.0,8065,NNB,A,13
13,test,2,0.0,2-Back,1.0,m,Mon Apr 13 2026 12:38:45 GMT-0500 (Central Daylight Time),410761.5,044_o_f_n_a.png,I,m,683,16,,1711.6000000238419,409049.89999997616,8065,NNB,A,14
14,test,2,0.0,2-Back,1.0,m,Mon Apr 13 2026 12:38:45 GMT-0500 (Central Daylight Time),412494.39999997616,058_m_m_n_a.png,I,m,703,17,,1728.5999999642372,410765.8000000119,8065,NNB,A,15
15,test,2,1.0,2-Back,1.0,z,Mon Apr 13 2026 12:38:45 GMT-0500 (Central Daylight Time),414242.59999996424,044_o_f_n_a.png,I,z,602,18,,1743.5,412499.09999996424,8065,NNB,A,16
0,test,3,1.0,2-Back,,,Mon Apr 13 2026 12:38:45 GMT-0500 (Central Daylight Time),414242.59999996424,041_y_m_n_a.png,I,space,2046,1,,1743.5,412499.09999996424,8065,NNB,A,0
0,test,3,1.0,2-Back,,,Mon Apr 13 2026 12:38:45 GMT-0500 (Central Daylight Time),414242.59999996424,041_y_m_n_a.png,I,space,2046,2,,1743.5,412499.09999996424,8065,NNB,A,0
1,test,3,0.0,2-Back,1.0,m,Mon Apr 13 2026 12:38:45 GMT-0500 (Central Daylight Time),423074.3000000119,044_o_f_n_a.png,I,m,698,3,,1711.800000011921,421362.5,8065,NNB,A,1
2,test,3,0.0,2-Back,1.0,m,Mon Apr 13 2026 12:38:45 GMT-0500 (Central Daylight Time),424890.5,045_m_m_n_a.png,I,m,790,4,,1812.6000000238419,423077.89999997616,8065,NNB,A,2
3,test,3,1.0,2-Back,1.0,z,Mon Apr 13 2026 12:38:45 GMT-0500 (Central Daylight Time),426573.3000000119,044_o_f_n_a.png,I,z,662,5,,1678.9000000357628,424894.39999997616,8065,NNB,A,3
4,test,3,0.0,2-Back,1.0,m,Mon Apr 13 2026 12:38:45 GMT-0500 (Central Daylight Time),428355.89999997616,008_y_m_n_a.png,I,m,763,6,,1778.0999999642372,426577.8000000119,8065,NNB,A,4
5,test,3,0.0,2-Back,1.0,m,Mon Apr 13 2026 12:38:45 GMT-0500 (Central Daylight Time),430505.1999999881,045_m_m_n_a.png,I,m,1124,7,,2145.199999988079,428360.0,8065,NNB,A,5
6,test,3,1.0,2-Back,1.0,z,Mon Apr 13 2026 12:38:45 GMT-0500 (Central Daylight Time),432538.1999999881,008_y_m_n_a.png,I,z,1007,8,,2028.8999999761581,430509.3000000119,8065,NNB,A,6
7,test,3,0.0,2-Back,1.0,m,Mon Apr 13 2026 12:38:45 GMT-0500 (Central Daylight Time),434354.09999996424,010_y_f_n_a.png,I,m,798,9,,1811.5,432542.59999996424,8065,NNB,A,7
7,test,3,0.0,2-Back,0.0,m,Mon Apr 13 2026 12:38:45 GMT-0500 (Central Daylight Time),436470.39999997616,058_m_m_n_a.png,I,z,1086,10,,2112.800000011921,434357.59999996424,8065,NNB,A,8
7,test,3,1.0,2-Back,0.0,z,Mon Apr 13 2026 12:38:45 GMT-0500 (Central Daylight Time),438736.0,010_y_f_n_a.png,I,m,1234,11,,2261.199999988079,436474.8000000119,8065,NNB,A,9
8,test,3,1.0,2-Back,1.0,z,Mon Apr 13 2026 12:38:45 GMT-0500 (Central Daylight Time),441102.1999999881,058_m_m_n_a.png,I,z,1336,12,,2361.399999976158,438740.8000000119,8065,NNB,A,10
9,test,3,0.0,2-Back,1.0,m,Mon Apr 13 2026 12:38:45 GMT-0500 (Central Daylight Time),442934.8000000119,044_o_f_n_a.png,I,m,802,13,,1828.800000011921,441106.0,8065,NNB,A,11
10,test,3,0.0,2-Back,1.0,m,Mon Apr 13 2026 12:38:45 GMT-0500 (Central Daylight Time),444817.59999996424,050_m_f_n_a.png,I,m,866,14,,1879.0999999642372,442938.5,8065,NNB,A,12
11,test,3,0.0,2-Back,1.0,m,Mon Apr 13 2026 12:38:45 GMT-0500 (Central Daylight Time),446500.5,046_o_m_n_a.png,I,m,662,15,,1679.0,444821.5,8065,NNB,A,13
12,test,3,1.0,2-Back,1.0,z,Mon Apr 13 2026 12:38:45 GMT-0500 (Central Daylight Time),448066.5,050_m_f_n_a.png,I,z,548,16,,1561.699999988079,446504.8000000119,8065,NNB,A,14
13,test,3,0.0,2-Back,1.0,m,Mon Apr 13 2026 12:38:45 GMT-0500 (Central Daylight Time),449766.09999996424,047_o_f_n_a.png,I,m,670,17,,1695.3999999761581,448070.6999999881,8065,NNB,A,15
14,test,3,0.0,2-Back,1.0,m,Mon Apr 13 2026 12:38:45 GMT-0500 (Central Daylight Time),451848.6999999881,047_o_f_n_a.png,I,m,1050,18,,2078.600000023842,449770.09999996424,8065,NNB,A,16
0,test,4,0.0,2-Back,,,Mon Apr 13 2026 12:38:45 GMT-0500 (Central Daylight Time),451848.6999999881,053_o_m_n_a.png,I,space,1440,1,,2078.600000023842,449770.09999996424,8065,NNB,A,0
0,test,4,0.0,2-Back,,,Mon Apr 13 2026 12:38:45 GMT-0500 (Central Daylight Time),451848.6999999881,063_y_f_n_a.png,I,space,1440,2,,2078.600000023842,449770.09999996424,8065,NNB,A,0
1,test,4,1.0,2-Back,1.0,z,Mon Apr 13 2026 12:38:45 GMT-0500 (Central Daylight Time),460362.59999996424,053_o_m_n_a.png,I,z,965,3,,1978.199999988079,458384.39999997616,8065,NNB,A,1
2,test,4,1.0,2-Back,1.0,z,Mon Apr 13 2026 12:38:45 GMT-0500 (Central Daylight Time),462395.39999997616,063_y_f_n_a.png,I,z,1006,4,,2029.199999988079,460366.1999999881,8065,NNB,A,2
3,test,4,0.0,2-Back,1.0,m,Mon Apr 13 2026 12:38:45 GMT-0500 (Central Daylight Time),464194.8000000119,044_o_f_n_a.png,I,m,773,5,,1795.2000000476837,462399.59999996424,8065,NNB,A,3
4,test,4,0.0,2-Back,1.0,m,Mon Apr 13 2026 12:38:45 GMT-0500 (Central Daylight Time),466477.39999997616,044_o_f_n_a.png,I,m,1254,6,,2277.399999976158,464200.0,8065,NNB,A,4
5,test,4,0.0,2-Back,1.0,m,Mon Apr 13 2026 12:38:45 GMT-0500 (Central Daylight Time),468410.1999999881,043_m_f_n_a.png,I,m,915,7,,1928.3999999761581,466481.8000000119,8065,NNB,A,5
6,test,4,0.0,2-Back,1.0,m,Mon Apr 13 2026 12:38:45 GMT-0500 (Central Daylight Time),470276.1999999881,008_y_m_n_a.png,I,m,846,8,,1861.6000000238419,468414.59999996424,8065,NNB,A,6
7,test,4,1.0,2-Back,1.0,z,Mon Apr 13 2026 12:38:45 GMT-0500 (Central Daylight Time),472475.6999999881,043_m_f_n_a.png,I,z,1172,9,,2195.0,470280.6999999881,8065,NNB,A,7
8,test,4,0.0,2-Back,1.0,m,Mon Apr 13 2026 12:38:45 GMT-0500 (Central Daylight Time),474274.89999997616,058_m_m_n_a.png,I,m,773,10,,1795.0,472479.89999997616,8065,NNB,A,8
9,test,4,0.0,2-Back,1.0,m,Mon Apr 13 2026 12:38:45 GMT-0500 (Central Daylight Time),476757.89999997616,008_y_m_n_a.png,I,m,1453,11,,2478.899999976158,474279.0,8065,NNB,A,9
10,test,4,0.0,2-Back,1.0,m,Mon Apr 13 2026 12:38:45 GMT-0500 (Central Daylight Time),478706.8000000119,047_o_f_n_a.png,I,m,931,12,,1944.7000000476837,476762.09999996424,8065,NNB,A,10
11,test,4,0.0,2-Back,1.0,m,Mon Apr 13 2026 12:38:45 GMT-0500 (Central Daylight Time),480473.09999996424,041_y_m_n_a.png,I,m,741,13,,1762.2999999523163,478710.8000000119,8065,NNB,A,11
12,test,4,1.0,2-Back,1.0,z,Mon Apr 13 2026 12:38:45 GMT-0500 (Central Daylight Time),482205.6999999881,047_o_f_n_a.png,I,z,703,14,,1728.699999988079,480477.0,8065,NNB,A,12
13,test,4,1.0,2-Back,1.0,z,Mon Apr 13 2026 12:38:45 GMT-0500 (Central Daylight Time),484793.3000000119,041_y_m_n_a.png,I,z,1571,15,,2584.0,482209.3000000119,8065,NNB,A,13
14,test,4,0.0,2-Back,1.0,m,Mon Apr 13 2026 12:38:45 GMT-0500 (Central Daylight Time),486404.5,045_m_m_n_a.png,I,m,596,16,,1606.9000000357628,484797.59999996424,8065,NNB,A,14
15,test,4,0.0,2-Back,1.0,m,Mon Apr 13 2026 12:38:45 GMT-0500 (Central Daylight Time),488137.6999999881,050_m_f_n_a.png,I,m,716,17,,1729.0,486408.6999999881,8065,NNB,A,15
15,test,4,1.0,2-Back,0.0,z,Mon Apr 13 2026 12:38:45 GMT-0500 (Central Daylight Time),489920.0,045_m_m_n_a.png,I,m,759,18,,1777.800000011921,488142.1999999881,8065,NNB,A,16
0,test,5,1.0,2-Back,,,Mon Apr 13 2026 12:38:45 GMT-0500 (Central Daylight Time),489920.0,041_y_m_n_a.png,I,space,953,1,,1777.800000011921,488142.1999999881,8065,NNB,A,0
0,test,5,1.0,2-Back,,,Mon Apr 13 2026 12:38:45 GMT-0500 (Central Daylight Time),489920.0,050_m_f_n_a.png,I,space,953,2,,1777.800000011921,488142.1999999881,8065,NNB,A,0
1,test,5,1.0,2-Back,1.0,z,Mon Apr 13 2026 12:38:45 GMT-0500 (Central Daylight Time),497734.5,041_y_m_n_a.png,I,z,777,3,,1795.4000000357628,495939.09999996424,8065,NNB,A,1
2,test,5,1.0,2-Back,1.0,z,Mon Apr 13 2026 12:38:45 GMT-0500 (Central Daylight Time),499383.89999997616,050_m_f_n_a.png,I,z,618,4,,1644.3999999761581,497739.5,8065,NNB,A,2
3,test,5,0.0,2-Back,1.0,m,Mon Apr 13 2026 12:38:45 GMT-0500 (Central Daylight Time),501183.1999999881,047_o_f_n_a.png,I,m,769,5,,1794.699999988079,499388.5,8065,NNB,A,3
4,test,5,0.0,2-Back,1.0,m,Mon Apr 13 2026 12:38:45 GMT-0500 (Central Daylight Time),503516.0,041_y_m_n_a.png,I,m,1304,6,,2328.900000035763,501187.09999996424,8065,NNB,A,4
5,test,5,0.0,2-Back,1.0,m,Mon Apr 13 2026 12:38:45 GMT-0500 (Central Daylight Time),505281.89999997616,010_y_f_n_a.png,I,m,749,7,,1762.0,503519.89999997616,8065,NNB,A,5
6,test,5,0.0,2-Back,1.0,m,Mon Apr 13 2026 12:38:45 GMT-0500 (Central Daylight Time),506848.09999996424,047_o_f_n_a.png,I,m,534,8,,1562.199999988079,505285.89999997616,8065,NNB,A,6
7,test,5,1.0,2-Back,1.0,z,Mon Apr 13 2026 12:38:45 GMT-0500 (Central Daylight Time),508530.89999997616,010_y_f_n_a.png,I,z,518,9,,1679.300000011921,506851.59999996424,8065,NNB,A,7
8,test,5,0.0,2-Back,1.0,m,Mon Apr 13 2026 12:38:45 GMT-0500 (Central Daylight Time),510230.59999996424,046_o_m_n_a.png,I,m,669,10,,1694.7999999523163,508535.8000000119,8065,NNB,A,8
9,test,5,0.0,2-Back,1.0,m,Mon Apr 13 2026 12:38:45 GMT-0500 (Central Daylight Time),511946.5,043_m_f_n_a.png,I,m,698,11,,1711.699999988079,510234.8000000119,8065,NNB,A,9
10,test,5,0.0,2-Back,1.0,m,Mon Apr 13 2026 12:38:45 GMT-0500 (Central Daylight Time),513729.39999997616,058_m_m_n_a.png,I,m,758,12,,1778.5,511950.89999997616,8065,NNB,A,10
11,test,5,0.0,2-Back,1.0,m,Mon Apr 13 2026 12:38:45 GMT-0500 (Central Daylight Time),516211.8000000119,046_o_m_n_a.png,I,m,1463,13,,2478.2000000476837,513733.59999996424,8065,NNB,A,11
12,test,5,1.0,2-Back,1.0,z,Mon Apr 13 2026 12:38:45 GMT-0500 (Central Daylight Time),518161.39999997616,058_m_m_n_a.png,I,z,916,14,,1946.0,516215.39999997616,8065,NNB,A,12
13,test,5,0.0,2-Back,1.0,m,Mon Apr 13 2026 12:38:45 GMT-0500 (Central Daylight Time),519927.3000000119,063_y_f_n_a.png,I,m,735,15,,1762.0,518165.3000000119,8065,NNB,A,13
14,test,5,0.0,2-Back,1.0,m,Mon Apr 13 2026 12:38:45 GMT-0500 (Central Daylight Time),521626.89999997616,053_o_m_n_a.png,I,m,681,16,,1696.0,519930.89999997616,8065,NNB,A,14
15,test,5,0.0,2-Back,1.0,m,Mon Apr 13 2026 12:38:45 GMT-0500 (Central Daylight Time),523193.0,043_m_f_n_a.png,I,m,533,17,,1562.1000000238419,521630.89999997616,8065,NNB,A,15
16,test,5,1.0,2-Back,1.0,z,Mon Apr 13 2026 12:38:45 GMT-0500 (Central Daylight Time),524809.3000000119,053_o_m_n_a.png,I,z,599,18,,1611.9000000357628,523197.39999997616,8065,NNB,A,16
