acc_sum,block,block_c,condition,correct,correct_response,datetime,endtime,flanker,jitter,project,response,response_test_buffer_response,response_test_target_response,response_time,response_time_test_buffer_response,response_time_test_target_response,row_sel,session_number,start_end,starttime,subject_id,target,task,task_vers,time_test_buffer,time_test_buffer_response,time_test_constants,time_test_flanker,time_test_jitter,time_test_logger,time_test_target,time_test_target_response,time_test_variables,trial
1,prac,1,inc,1,m,Fri Aug 29 2025 11:41:52 GMT-0500 (Central Daylight Time),104245.60000002384,pear,900,I,m,,,609,,,14,3,2812.0,101433.60000002384,8016,iron,NF,B,,,,,,,,,,1
2,prac,1,con,1,z,Fri Aug 29 2025 11:41:52 GMT-0500 (Central Daylight Time),107177.80000001192,orange,1000,I,z,,,623,,,3,3,2927.0,104250.80000001192,8016,orange,NF,B,,,,,,,,,,2
3,prac,1,con,1,m,Fri Aug 29 2025 11:41:52 GMT-0500 (Central Daylight Time),109893.80000001192,bronze,800,I,m,,,609,,,9,3,2711.800000011921,107182.0,8016,bronze,NF,B,,,,,,,,,,3
4,prac,1,inc,1,z,Fri Aug 29 2025 11:41:52 GMT-0500 (Central Daylight Time),112842.40000003576,cobalt,1100,I,z,,,547,,,4,3,2944.300000011921,109898.10000002384,8016,raisin,NF,B,,,,,,,,,,4
5,prac,1,con,1,z,Fri Aug 29 2025 11:41:52 GMT-0500 (Central Daylight Time),115791.69999998808,kiwi,1000,I,z,,,632,,,7,3,2944.5,112847.19999998808,8016,kiwi,NF,B,,,,,,,,,,5
6,prac,1,con,1,m,Fri Aug 29 2025 11:41:52 GMT-0500 (Central Daylight Time),118623.80000001192,gold,800,I,m,,,743,,,13,3,2827.199999988079,115796.60000002384,8016,gold,NF,B,,,,,,,,,,6
7,prac,1,inc,1,z,Fri Aug 29 2025 11:41:52 GMT-0500 (Central Daylight Time),121556.5,copper,900,I,z,,,720,,,2,3,2928.5,118628.0,8016,cherry,NF,B,,,,,,,,,,7
8,prac,1,con,1,z,Fri Aug 29 2025 11:41:52 GMT-0500 (Central Daylight Time),124305.60000002384,lime,800,I,z,,,646,,,5,3,2744.900000035763,121560.69999998808,8016,lime,NF,B,,,,,,,,,,8
9,prac,1,inc,1,m,Fri Aug 29 2025 11:41:52 GMT-0500 (Central Daylight Time),127404.69999998808,plum,1100,I,m,,,686,,,16,3,3094.899999976158,124309.80000001192,8016,lead,NF,B,,,,,,,,,,9
10,prac,1,inc,1,z,Fri Aug 29 2025 11:41:52 GMT-0500 (Central Daylight Time),130487.10000002384,lead,1100,I,z,,,676,,,8,3,3077.600000023842,127409.5,8016,plum,NF,B,,,,,,,,,,10
11,prac,1,inc,1,z,Fri Aug 29 2025 11:41:52 GMT-0500 (Central Daylight Time),133352.80000001192,iron,900,I,z,,,664,,,6,3,2860.899999976158,130491.90000003576,8016,pear,NF,B,,,,,,,,,,11
12,prac,1,con,1,m,Fri Aug 29 2025 11:41:52 GMT-0500 (Central Daylight Time),136318.60000002384,silver,1000,I,m,,,650,,,11,3,2961.5,133357.10000002384,8016,silver,NF,B,,,,,,,,,,12
13,prac,1,inc,1,m,Fri Aug 29 2025 11:41:52 GMT-0500 (Central Daylight Time),139450.80000001192,raisin,1100,I,m,,,721,,,12,3,3128.199999988079,136322.60000002384,8016,cobalt,NF,B,,,,,,,,,,13
14,prac,1,con,1,m,Fri Aug 29 2025 11:41:52 GMT-0500 (Central Daylight Time),142533.30000001192,zinc,1000,I,m,,,777,,,15,3,3078.399999976158,139454.90000003576,8016,zinc,NF,B,,,,,,,,,,14
15,prac,1,con,1,z,Fri Aug 29 2025 11:41:52 GMT-0500 (Central Daylight Time),145499.10000002384,banana,800,I,z,,,864,,,1,3,2961.699999988079,142537.40000003576,8016,banana,NF,B,,,,,,,,,,15
16,prac,1,inc,1,m,Fri Aug 29 2025 11:41:52 GMT-0500 (Central Daylight Time),148548.10000002384,cherry,900,I,m,,,844,,,10,3,3044.900000035763,145503.19999998808,8016,copper,NF,B,,,,,,,,,,16
1,test,1,inc,1,z,Fri Aug 29 2025 11:41:52 GMT-0500 (Central Daylight Time),163110.10000002384,silver,1000,I,z,z,None,537,338.0,199.0,7,3,2079.199999988079,161030.90000003576,8016,banana,NF,B,152004,152004,150275,151288,150275,152354,151805,151805,152354,1
2,test,1,con,1,z,Fri Aug 29 2025 11:41:52 GMT-0500 (Central Daylight Time),165169.90000003576,lime,800,I,z,z,None,727,527.0,200.0,33,3,2055.100000023842,163114.80000001192,8016,lime,NF,B,153887,153887,152359,153171,152359,154414,153687,153687,154414,2
3,test,1,con,1,m,Fri Aug 29 2025 11:41:52 GMT-0500 (Central Daylight Time),167360.10000002384,bronze,1000,I,m,m,None,653,454.0,199.0,67,3,2184.900000035763,165175.19999998808,8016,bronze,NF,B,156136,156136,154419,155421,154420,156604,155937,155937,156604,3
4,test,1,con,1,z,Fri Aug 29 2025 11:41:52 GMT-0500 (Central Daylight Time),169624.69999998808,orange,1100,I,z,z,None,626,426.0,200.0,20,3,2260.5,167364.19999998808,8016,orange,NF,B,158436,158436,156608,157719,156608,158869,158236,158236,158869,4
5,test,1,con,1,m,Fri Aug 29 2025 11:41:52 GMT-0500 (Central Daylight Time),171624.19999998808,zinc,900,I,m,m,None,560,360.0,200.0,114,3,1995.5999999642372,169628.60000002384,8016,zinc,NF,B,160502,160502,158873,159786,158873,160868,160302,160302,160868,5
6,test,1,con,1,m,Fri Aug 29 2025 11:41:52 GMT-0500 (Central Daylight Time),173690.10000002384,gold,800,I,m,m,None,725,525.0,200.0,97,3,2062.0,171628.10000002384,8016,gold,NF,B,162401,162401,160872,161685,160872,162934,162201,162201,162934,6
7,test,1,con,1,m,Fri Aug 29 2025 11:41:52 GMT-0500 (Central Daylight Time),175756.10000002384,copper,900,I,m,m,None,631,431.0,200.0,74,3,2062.0,173694.10000002384,8016,copper,NF,B,164567,164567,162938,163851,162939,165000,164367,164367,165000,7
8,test,1,inc,1,z,Fri Aug 29 2025 11:41:52 GMT-0500 (Central Daylight Time),177988.69999998808,cobalt,1100,I,z,z,None,597,397.0,200.0,32,3,2228.599999964237,175760.10000002384,8016,raisin,NF,B,166833,166833,165004,166117,165004,167233,166633,166633,167233,8
9,test,1,con,1,z,Fri Aug 29 2025 11:41:52 GMT-0500 (Central Daylight Time),180154.30000001192,plum,1000,I,z,z,None,632,432.0,200.0,59,3,2161.600000023842,177992.69999998808,8016,plum,NF,B,168966,168966,167237,168249,167237,169398,168766,168766,169398,9
10,test,1,inc,1,m,Fri Aug 29 2025 11:41:52 GMT-0500 (Central Daylight Time),182254.19999998808,pear,900,I,m,m,None,660,461.0,199.0,110,3,2095.899999976158,180158.30000001192,8016,iron,NF,B,171032,171032,169402,170315,169403,171498,170832,170832,171498,10
11,test,1,con,1,z,Fri Aug 29 2025 11:41:52 GMT-0500 (Central Daylight Time),184453.5,lime,1000,I,z,z,None,663,463.0,200.0,35,3,2194.300000011921,182259.19999998808,8016,lime,NF,B,173231,173231,171503,172515,171504,173698,173031,173031,173697,11
12,test,1,con,1,z,Fri Aug 29 2025 11:41:52 GMT-0500 (Central Daylight Time),186702.60000002384,plum,900,I,z,z,None,809,610.0,199.0,58,3,2244.300000011921,184458.30000001192,8016,plum,NF,B,175330,175331,173702,174614,173703,175947,175131,175131,175947,12
13,test,1,inc,1,m,Fri Aug 29 2025 11:41:52 GMT-0500 (Central Daylight Time),188985.19999998808,orange,1000,I,m,m,None,748,549.0,199.0,95,3,2278.599999964237,186706.60000002384,8016,cobalt,NF,B,177680,177680,175951,176964,175951,178229,177480,177480,178229,13
14,test,1,con,1,m,Fri Aug 29 2025 11:41:52 GMT-0500 (Central Daylight Time),191217.90000003576,lead,1000,I,m,m,None,682,483.0,199.0,123,3,2228.800000011921,188989.10000002384,8016,lead,NF,B,179962,179962,178233,179246,178233,180462,179763,179763,180462,14
15,test,1,inc,1,z,Fri Aug 29 2025 11:41:52 GMT-0500 (Central Daylight Time),193600.5,lead,1100,I,z,z,None,734,534.0,200.0,64,3,2378.5,191222.0,8016,plum,NF,B,182295,182295,180466,181578,180466,182845,182095,182095,182845,15
16,test,1,con,1,m,Fri Aug 29 2025 11:41:52 GMT-0500 (Central Daylight Time),195633.19999998808,silver,800,I,m,m,None,690,491.0,199.0,81,3,2028.699999988079,193604.5,8016,silver,NF,B,184378,184378,182849,183662,182849,184877,184178,184178,184877,16
17,test,1,con,1,m,Fri Aug 29 2025 11:41:52 GMT-0500 (Central Daylight Time),197982.40000003576,cobalt,1100,I,m,m,None,711,511.0,200.0,92,3,2345.100000023842,195637.30000001192,8016,cobalt,NF,B,186710,186710,184881,185994,184882,187226,186510,186510,187226,17
18,test,1,inc,1,m,Fri Aug 29 2025 11:41:52 GMT-0500 (Central Daylight Time),200398.19999998808,plum,1100,I,m,m,None,776,577.0,199.0,128,3,2411.899999976158,197986.30000001192,8016,lead,NF,B,189060,189060,187230,188343,187231,189642,188860,188860,189642,18
19,test,1,inc,1,z,Fri Aug 29 2025 11:41:52 GMT-0500 (Central Daylight Time),202780.90000003576,lead,1100,I,z,z,None,744,545.0,199.0,40,3,2378.900000035763,200402.0,8016,lime,NF,B,191476,191476,189646,190759,189646,192025,191275,191276,192025,19
20,test,1,inc,1,m,Fri Aug 29 2025 11:41:52 GMT-0500 (Central Daylight Time),205146.80000001192,raisin,1100,I,m,m,None,731,531.0,200.0,88,3,2361.899999976158,202784.90000003576,8016,silver,NF,B,193858,193858,192029,193142,192029,194391,193658,193658,194391,20
21,test,1,inc,1,z,Fri Aug 29 2025 11:41:52 GMT-0500 (Central Daylight Time),207529.60000002384,gold,800,I,z,z,None,1041,841.0,200.0,53,3,2378.900000035763,205150.69999998808,8016,kiwi,NF,B,195924,195924,194395,195207,194395,196774,195724,195724,196774,21
22,test,1,con,1,m,Fri Aug 29 2025 11:41:52 GMT-0500 (Central Daylight Time),209911.80000001192,iron,1000,I,m,m,None,833,634.0,199.0,107,3,2375.199999988079,207536.60000002384,8016,iron,NF,B,198507,198507,196781,197790,196781,199156,198307,198307,199156,22
23,test,1,inc,1,z,Fri Aug 29 2025 11:41:52 GMT-0500 (Central Daylight Time),212478.0,lead,1100,I,z,z,None,929,729.0,200.0,48,3,2561.599999964237,209916.40000003576,8016,pear,NF,B,200989,200989,199160,200272,199161,201722,200789,200789,201722,23
24,test,1,inc,1,z,Fri Aug 29 2025 11:41:52 GMT-0500 (Central Daylight Time),214977.40000003576,zinc,1000,I,z,z,None,958,758.0,200.0,63,3,2495.2000000476837,212482.19999998808,8016,plum,NF,B,203455,203455,201726,202738,201727,204221,203255,203255,204221,24
25,test,1,con,1,z,Fri Aug 29 2025 11:41:52 GMT-0500 (Central Daylight Time),217126.60000002384,cherry,800,I,z,z,None,811,611.0,200.0,9,3,2145.600000023842,214981.0,8016,cherry,NF,B,205754,205754,204225,205038,204225,206371,205554,205554,206371,25
26,test,1,inc,1,z,Fri Aug 29 2025 11:41:52 GMT-0500 (Central Daylight Time),219409.10000002384,silver,1000,I,z,z,None,757,558.0,199.0,31,3,2278.600000023842,217130.5,8016,raisin,NF,B,208087,208087,206374,207387,206375,208653,207888,207888,208653,26
27,test,1,con,1,m,Fri Aug 29 2025 11:41:52 GMT-0500 (Central Daylight Time),221708.5,silver,1000,I,m,m,None,756,556.0,200.0,83,3,2295.199999988079,219413.30000001192,8016,silver,NF,B,210386,210386,208657,209670,208658,210953,210186,210186,210952,27
28,test,1,inc,1,m,Fri Aug 29 2025 11:41:52 GMT-0500 (Central Daylight Time),224007.60000002384,orange,1000,I,m,m,None,751,552.0,199.0,71,3,2295.300000011921,221712.30000001192,8016,bronze,NF,B,212685,212685,210956,211969,210957,213252,212486,212486,213252,28
29,test,1,inc,1,z,Fri Aug 29 2025 11:41:52 GMT-0500 (Central Daylight Time),226323.69999998808,silver,1000,I,z,z,None,772,573.0,199.0,15,3,2312.5,224011.19999998808,8016,cherry,NF,B,214985,214985,213255,214268,213255,215568,214785,214785,215568,29
30,test,1,inc,1,m,Fri Aug 29 2025 11:41:52 GMT-0500 (Central Daylight Time),228606.19999998808,kiwi,1000,I,m,m,None,744,544.0,200.0,111,3,2278.399999976158,226327.80000001192,8016,iron,NF,B,217301,217301,215572,216584,215572,217850,217101,217101,217850,30
31,test,1,inc,1,z,Fri Aug 29 2025 11:41:52 GMT-0500 (Central Daylight Time),230989.0,zinc,1000,I,z,z,None,847,647.0,200.0,39,3,2378.899999976158,228610.10000002384,8016,lime,NF,B,219583,219583,217854,218867,217854,220233,219383,219383,220233,31
32,test,1,inc,1,m,Fri Aug 29 2025 11:41:52 GMT-0500 (Central Daylight Time),233387.90000003576,plum,1100,I,m,m,None,764,564.0,200.0,112,3,2395.0,230992.90000003576,8016,iron,NF,B,222066,222066,220237,221349,220237,222632,221866,221866,222632,32
33,test,1,con,1,z,Fri Aug 29 2025 11:41:52 GMT-0500 (Central Daylight Time),235537.30000001192,kiwi,800,I,z,z,None,809,608.0,201.0,49,3,2145.399999976158,233391.90000003576,8016,kiwi,NF,B,224166,224166,222636,223449,222636,224781,223965,223965,224781,33
34,test,1,con,1,z,Fri Aug 29 2025 11:41:52 GMT-0500 (Central Daylight Time),237786.80000001192,raisin,900,I,z,z,None,807,608.0,199.0,26,3,2245.600000023842,235541.19999998808,8016,raisin,NF,B,226414,226414,224785,225698,224786,227031,226214,226215,227031,34
35,test,1,inc,1,m,Fri Aug 29 2025 11:41:52 GMT-0500 (Central Daylight Time),240103.60000002384,kiwi,1000,I,m,m,None,777,578.0,199.0,127,3,2312.800000011921,237790.80000001192,8016,lead,NF,B,228764,228764,227035,228047,227035,229348,228564,228564,229348,35
36,test,1,inc,1,z,Fri Aug 29 2025 11:41:52 GMT-0500 (Central Daylight Time),242435.19999998808,iron,900,I,z,z,None,889,690.0,199.0,38,3,2327.599999964237,240107.60000002384,8016,lime,NF,B,230980,230980,229352,230263,229352,231679,230780,230780,231679,36
37,test,1,con,1,z,Fri Aug 29 2025 11:41:52 GMT-0500 (Central Daylight Time),244851.19999998808,plum,1100,I,z,z,None,774,574.0,200.0,60,3,2412.0,242439.19999998808,8016,plum,NF,B,233512,233512,231683,232796,231683,234095,233312,233312,234095,37
38,test,1,con,1,m,Fri Aug 29 2025 11:41:52 GMT-0500 (Central Daylight Time),247150.30000001192,cobalt,1000,I,m,m,None,754,554.0,200.0,91,3,2295.399999976158,244854.90000003576,8016,cobalt,NF,B,235828,235828,234099,235112,234099,236394,235628,235628,236394,38
39,test,1,con,1,m,Fri Aug 29 2025 11:41:52 GMT-0500 (Central Daylight Time),249249.69999998808,copper,800,I,m,m,None,764,565.0,199.0,73,3,2095.399999976158,247154.30000001192,8016,copper,NF,B,237927,237928,236398,237211,236399,238494,237728,237728,238494,39
40,test,1,con,1,z,Fri Aug 29 2025 11:41:52 GMT-0500 (Central Daylight Time),251698.69999998808,raisin,1100,I,z,z,None,815,616.0,199.0,28,3,2445.099999964237,249253.60000002384,8016,raisin,NF,B,240326,240326,238498,239610,238498,240943,240127,240127,240943,40
41,test,1,con,1,z,Fri Aug 29 2025 11:41:52 GMT-0500 (Central Daylight Time),253898.40000003576,orange,800,I,z,z,None,857,657.0,200.0,17,3,2196.2000000476837,251702.19999998808,8016,orange,NF,B,242476,242476,240946,241759,240946,243142,242276,242276,243142,41
42,test,1,inc,1,z,Fri Aug 29 2025 11:41:52 GMT-0500 (Central Daylight Time),256080.80000001192,copper,900,I,z,z,None,733,533.0,200.0,6,3,2178.600000023842,253902.19999998808,8016,banana,NF,B,244776,244776,243146,244059,243147,245325,244575,244575,245325,42
43,test,1,con,1,z,Fri Aug 29 2025 11:41:52 GMT-0500 (Central Daylight Time),258247.10000002384,lime,900,I,z,z,None,719,519.0,200.0,34,3,2162.5,256084.60000002384,8016,lime,NF,B,246958,246958,245329,246242,245329,247491,246758,246758,247491,43
44,test,1,inc,1,m,Fri Aug 29 2025 11:41:52 GMT-0500 (Central Daylight Time),260313.0,lime,800,I,m,m,None,726,526.0,200.0,109,3,2062.199999988079,258250.80000001192,8016,iron,NF,B,249024,249024,247495,248308,247495,249557,248824,248824,249557,44
45,test,1,con,1,m,Fri Aug 29 2025 11:41:52 GMT-0500 (Central Daylight Time),262495.40000003576,iron,900,I,m,m,None,743,543.0,200.0,106,3,2178.600000023842,260316.80000001192,8016,iron,NF,B,251190,251190,249561,250474,249561,251739,250990,250990,251739,45
46,test,1,con,1,m,Fri Aug 29 2025 11:41:52 GMT-0500 (Central Daylight Time),264578.10000002384,cobalt,900,I,m,m,None,639,440.0,199.0,90,3,2079.100000023842,262499.0,8016,cobalt,NF,B,253373,253373,251743,252656,251743,253822,253173,253173,253822,46
47,test,1,inc,1,z,Fri Aug 29 2025 11:41:52 GMT-0500 (Central Daylight Time),266794.10000002384,copper,900,I,z,z,None,783,583.0,200.0,14,3,2211.800000011921,264582.3000000119,8016,cherry,NF,B,255455,255455,253826,254739,253827,256038,255255,255255,256038,47
48,test,1,con,1,m,Fri Aug 29 2025 11:41:52 GMT-0500 (Central Daylight Time),268993.40000003576,silver,900,I,m,m,None,759,559.0,200.0,82,3,2195.7000000476837,266797.6999999881,8016,silver,NF,B,257671,257671,256042,256955,256042,258238,257471,257471,258237,48
49,test,1,inc,1,z,Fri Aug 29 2025 11:41:52 GMT-0500 (Central Daylight Time),271176.3000000119,iron,900,I,z,z,None,733,534.0,199.0,54,3,2179.199999988079,268997.10000002384,8016,kiwi,NF,B,259871,259871,258241,259154,258241,260420,259671,259671,260420,49
50,test,1,inc,1,m,Fri Aug 29 2025 11:41:52 GMT-0500 (Central Daylight Time),273308.8000000119,banana,800,I,m,m,None,789,589.0,200.0,77,3,2128.699999988079,271180.10000002384,8016,copper,NF,B,261953,261953,260424,261237,260424,262553,261753,261753,262553,50
51,test,1,inc,1,z,Fri Aug 29 2025 11:41:52 GMT-0500 (Central Daylight Time),275674.5,cobalt,1100,I,z,z,None,732,532.0,200.0,8,3,2362.0,273312.5,8016,banana,NF,B,264386,264386,262557,263669,262557,264919,264186,264186,264919,51
52,test,1,inc,1,z,Fri Aug 29 2025 11:41:52 GMT-0500 (Central Daylight Time),277990.6999999881,iron,900,I,z,z,None,869,670.0,199.0,46,3,2312.699999988079,275678.0,8016,pear,NF,B,266552,266552,264922,265836,264922,267235,266352,266352,267235,52
53,test,1,inc,1,z,Fri Aug 29 2025 11:41:52 GMT-0500 (Central Daylight Time),280406.5,cobalt,1100,I,z,z,None,776,577.0,199.0,24,3,2412.199999988079,277994.3000000119,8016,orange,NF,B,269068,269068,267238,268351,267239,269651,268868,268868,269651,53
54,test,1,inc,1,m,Fri Aug 29 2025 11:41:52 GMT-0500 (Central Daylight Time),282722.60000002384,orange,1000,I,m,m,None,773,574.0,199.0,79,3,2312.300000011921,280410.3000000119,8016,copper,NF,B,271384,271384,269654,270668,269655,271967,271184,271184,271967,54
55,test,1,con,1,z,Fri Aug 29 2025 11:41:52 GMT-0500 (Central Daylight Time),285255.0,kiwi,1100,I,z,z,None,887,687.0,200.0,52,3,2528.699999988079,282726.3000000119,8016,kiwi,NF,B,273799,273799,271970,273083,271971,274499,273599,273599,274499,55
56,test,1,con,1,m,Fri Aug 29 2025 11:41:52 GMT-0500 (Central Daylight Time),287471.0,lead,900,I,m,m,None,778,578.0,200.0,122,3,2212.399999976158,285258.60000002384,8016,lead,NF,B,276132,276132,274503,275416,274503,276715,275932,275932,276715,56
57,test,1,con,1,m,Fri Aug 29 2025 11:41:52 GMT-0500 (Central Daylight Time),289887.3000000119,lead,1100,I,m,m,None,777,577.0,200.0,124,3,2411.699999988079,287475.60000002384,8016,lead,NF,B,278548,278548,276720,277832,276720,279131,278348,278348,279131,57
58,test,1,con,1,m,Fri Aug 29 2025 11:41:52 GMT-0500 (Central Daylight Time),292302.6999999881,bronze,1100,I,m,m,None,770,570.0,200.0,68,3,2411.2999999523163,289891.40000003576,8016,bronze,NF,B,280964,280964,279135,280248,279136,281547,280764,280764,281547,58
59,test,1,inc,1,m,Fri Aug 29 2025 11:41:52 GMT-0500 (Central Daylight Time),294518.90000003576,banana,800,I,m,m,None,870,670.0,200.0,69,3,2212.5,292306.40000003576,8016,bronze,NF,B,283080,283080,281550,282363,281551,283763,282880,282880,283763,59
60,test,1,inc,1,z,Fri Aug 29 2025 11:41:52 GMT-0500 (Central Daylight Time),296968.10000002384,zinc,1000,I,z,z,None,909,709.0,200.0,47,3,2445.5,294522.60000002384,8016,pear,NF,B,285496,285496,283767,284779,283767,286212,285296,285296,286212,60
61,test,1,inc,1,m,Fri Aug 29 2025 11:41:52 GMT-0500 (Central Daylight Time),299200.6999999881,cherry,900,I,m,m,None,783,584.0,199.0,78,3,2228.699999988079,296972.0,8016,copper,NF,B,287845,287845,286216,287129,286216,288445,287645,287646,288445,61
62,test,1,con,1,m,Fri Aug 29 2025 11:41:52 GMT-0500 (Central Daylight Time),301616.90000003576,zinc,1000,I,m,m,None,875,676.0,199.0,115,3,2411.900000035763,299205.0,8016,zinc,NF,B,290178,290178,288449,289461,288449,290861,289978,289978,290861,62
63,test,1,inc,1,m,Fri Aug 29 2025 11:41:52 GMT-0500 (Central Daylight Time),304082.60000002384,plum,1100,I,m,m,None,823,624.0,199.0,104,3,2462.100000023842,301620.5,8016,gold,NF,B,292693,292693,290865,291977,290865,293327,292494,292494,293327,63
64,test,1,inc,1,z,Fri Aug 29 2025 11:41:52 GMT-0500 (Central Daylight Time),306348.5,gold,800,I,z,z,None,929,730.0,199.0,45,3,2262.300000011921,304086.1999999881,8016,pear,NF,B,294860,294860,293330,294143,293330,295593,294660,294660,295593,64
65,test,1,con,1,z,Fri Aug 29 2025 11:41:52 GMT-0500 (Central Daylight Time),308847.8000000119,banana,1100,I,z,z,None,850,651.0,199.0,4,3,2495.699999988079,306352.10000002384,8016,banana,NF,B,297426,297426,295596,296709,295596,298092,297225,297226,298092,65
66,test,1,con,1,z,Fri Aug 29 2025 11:41:52 GMT-0500 (Central Daylight Time),311197.10000002384,orange,900,I,z,z,None,903,704.0,199.0,18,3,2345.600000023842,308851.5,8016,orange,NF,B,299725,299725,298096,299008,298096,300441,299525,299525,300441,66
66,test,1,con,0,m,Fri Aug 29 2025 11:41:52 GMT-0500 (Central Daylight Time),313612.90000003576,zinc,800,I,z,z,None,1080,880.0,200.0,113,3,2412.0,311200.90000003576,8016,zinc,NF,B,301974,301974,300445,301258,300445,302857,301774,301774,302857,67
67,test,1,con,1,z,Fri Aug 29 2025 11:41:52 GMT-0500 (Central Daylight Time),315878.8000000119,cherry,1000,I,z,z,None,720,520.0,200.0,11,3,2262.199999988079,313616.60000002384,8016,cherry,NF,B,304590,304590,302861,303873,302861,305123,304390,304390,305123,68
68,test,1,inc,1,m,Fri Aug 29 2025 11:41:52 GMT-0500 (Central Daylight Time),317945.0,cherry,900,I,m,m,None,626,426.0,200.0,86,3,2062.300000011921,315882.6999999881,8016,silver,NF,B,306756,306756,305127,306040,305127,307189,306556,306556,307189,69
69,test,1,con,1,m,Fri Aug 29 2025 11:41:52 GMT-0500 (Central Daylight Time),320177.40000003576,copper,1000,I,m,m,None,692,492.0,200.0,75,3,2228.600000023842,317948.8000000119,8016,copper,NF,B,308922,308922,307193,308205,307193,309421,308722,308722,309421,70
70,test,1,inc,1,z,Fri Aug 29 2025 11:41:52 GMT-0500 (Central Daylight Time),322343.40000003576,bronze,800,I,z,z,None,825,626.0,199.0,21,3,2162.2000000476837,320181.1999999881,8016,orange,NF,B,310955,310955,309425,310238,309426,311588,310755,310755,311587,71
71,test,1,con,1,z,Fri Aug 29 2025 11:41:52 GMT-0500 (Central Daylight Time),324776.1999999881,banana,1000,I,z,z,None,892,693.0,199.0,3,3,2428.699999988079,322347.5,8016,banana,NF,B,313321,313321,311592,312604,311592,314020,313120,313121,314020,72
72,test,1,con,1,z,Fri Aug 29 2025 11:41:52 GMT-0500 (Central Daylight Time),327058.6999999881,pear,900,I,z,z,None,841,641.0,200.0,42,3,2278.899999976158,324779.8000000119,8016,pear,NF,B,315653,315653,314024,314937,314024,316303,315453,315453,316303,73
73,test,1,con,1,m,Fri Aug 29 2025 11:41:52 GMT-0500 (Central Daylight Time),329158.10000002384,lead,800,I,m,m,None,752,553.0,199.0,121,3,2095.900000035763,327062.1999999881,8016,lead,NF,B,317836,317836,316306,317119,316307,318402,317636,317636,318402,74
74,test,1,inc,1,m,Fri Aug 29 2025 11:41:52 GMT-0500 (Central Daylight Time),331640.6999999881,kiwi,1000,I,m,m,None,924,725.0,199.0,119,3,2479.099999964237,329161.60000002384,8016,zinc,NF,B,320152,320152,318406,319444,318406,320885,319952,319952,320885,75
75,test,1,inc,1,m,Fri Aug 29 2025 11:41:52 GMT-0500 (Central Daylight Time),333789.8000000119,pear,900,I,m,m,None,704,505.0,199.0,118,3,2145.600000023842,331644.1999999881,8016,zinc,NF,B,322517,322517,320888,321801,320888,323034,322318,322318,323034,76
76,test,1,con,1,z,Fri Aug 29 2025 11:41:52 GMT-0500 (Central Daylight Time),336305.8000000119,pear,1000,I,z,z,None,983,783.0,200.0,43,3,2512.199999988079,333793.60000002384,8016,pear,NF,B,324767,324767,323038,324051,323038,325550,324567,324567,325550,77
77,test,1,con,1,z,Fri Aug 29 2025 11:41:52 GMT-0500 (Central Daylight Time),338621.8000000119,kiwi,1000,I,z,z,None,779,579.0,200.0,51,3,2312.399999976158,336309.40000003576,8016,kiwi,NF,B,327283,327283,325553,326566,325554,327866,327083,327083,327866,78
78,test,1,inc,1,m,Fri Aug 29 2025 11:41:52 GMT-0500 (Central Daylight Time),340987.6999999881,raisin,1100,I,m,m,None,729,530.0,199.0,72,3,2362.399999976158,338625.3000000119,8016,bronze,NF,B,329699,329699,327869,328982,327870,330232,329499,329499,330232,79
79,test,1,con,1,z,Fri Aug 29 2025 11:41:52 GMT-0500 (Central Daylight Time),343287.10000002384,cherry,1100,I,z,z,None,652,453.0,199.0,12,3,2295.699999988079,340991.40000003576,8016,cherry,NF,B,332065,332065,330235,331348,330236,332531,331865,331865,332531,80
80,test,1,con,1,z,Fri Aug 29 2025 11:41:52 GMT-0500 (Central Daylight Time),345436.1999999881,banana,800,I,z,z,None,806,606.0,200.0,1,3,2145.399999976158,343290.8000000119,8016,banana,NF,B,334064,334064,332535,333347,332535,334680,333864,333864,334680,81
81,test,1,inc,1,z,Fri Aug 29 2025 11:41:52 GMT-0500 (Central Daylight Time),347635.40000003576,copper,900,I,z,z,None,757,557.0,200.0,22,3,2195.100000023842,345440.3000000119,8016,orange,NF,B,336313,336313,334684,335597,334685,336880,336113,336113,336879,82
82,test,1,inc,1,m,Fri Aug 29 2025 11:41:52 GMT-0500 (Central Daylight Time),349984.8000000119,plum,1100,I,m,m,None,699,500.0,199.0,120,3,2345.0,347639.8000000119,8016,zinc,NF,B,338713,338713,336884,337996,336884,339229,338513,338513,339229,83
83,test,1,con,1,z,Fri Aug 29 2025 11:41:52 GMT-0500 (Central Daylight Time),352467.1999999881,lime,1100,I,z,z,None,848,647.0,201.0,36,3,2478.599999964237,349988.60000002384,8016,lime,NF,B,341063,341063,339233,340346,339233,341711,340862,340862,341711,84
84,test,1,con,1,m,Fri Aug 29 2025 11:41:52 GMT-0500 (Central Daylight Time),354550.10000002384,iron,800,I,m,m,None,744,544.0,200.0,105,3,2079.300000011921,352470.8000000119,8016,iron,NF,B,343245,343245,341715,342528,341715,343794,343044,343044,343794,85
85,test,1,inc,1,z,Fri Aug 29 2025 11:41:52 GMT-0500 (Central Daylight Time),356666.10000002384,iron,900,I,z,z,None,667,467.0,200.0,62,3,2112.5,354553.60000002384,8016,plum,NF,B,345427,345427,343798,344711,343798,345910,345227,345227,345910,86
86,test,1,con,1,z,Fri Aug 29 2025 11:41:52 GMT-0500 (Central Daylight Time),358798.60000002384,orange,1000,I,z,z,None,587,387.0,200.0,19,3,2128.600000023842,356670.0,8016,orange,NF,B,347643,347643,345914,346927,345914,348043,347443,347443,348043,87
87,test,1,inc,1,m,Fri Aug 29 2025 11:41:52 GMT-0500 (Central Daylight Time),360897.90000003576,lime,800,I,m,m,None,758,558.0,200.0,101,3,2095.800000011921,358802.10000002384,8016,gold,NF,B,349576,349576,348046,348859,348046,350142,349376,349376,350142,88
88,test,1,con,1,z,Fri Aug 29 2025 11:41:52 GMT-0500 (Central Daylight Time),363030.40000003576,cherry,900,I,z,z,None,686,486.0,200.0,10,3,2128.900000035763,360901.5,8016,cherry,NF,B,351775,351775,350146,351059,350146,352275,351575,351575,352274,89
89,test,1,con,1,m,Fri Aug 29 2025 11:41:52 GMT-0500 (Central Daylight Time),365030.10000002384,bronze,800,I,m,m,None,661,461.0,200.0,65,3,1996.1000000238419,363034.0,8016,bronze,NF,B,353808,353808,352278,353091,352278,354274,353608,353608,354274,90
90,test,1,inc,1,z,Fri Aug 29 2025 11:41:52 GMT-0500 (Central Daylight Time),367346.10000002384,cobalt,1100,I,z,z,None,675,475.0,200.0,16,3,2312.400000035763,365033.6999999881,8016,cherry,NF,B,356107,356107,354278,355391,354278,356590,355907,355907,356590,91
91,test,1,inc,1,z,Fri Aug 29 2025 11:41:52 GMT-0500 (Central Daylight Time),369578.8000000119,silver,1000,I,z,z,None,691,491.0,200.0,23,3,2228.800000011921,367350.0,8016,orange,NF,B,358323,358323,356594,357607,356594,358823,358123,358123,358823,92
92,test,1,con,1,m,Fri Aug 29 2025 11:41:52 GMT-0500 (Central Daylight Time),371877.90000003576,gold,1100,I,m,m,None,653,454.0,199.0,100,3,2295.2000000476837,369582.6999999881,8016,gold,NF,B,360656,360656,358827,359939,358827,361122,360455,360456,361122,93
93,test,1,inc,1,z,Fri Aug 29 2025 11:41:52 GMT-0500 (Central Daylight Time),374193.6999999881,lead,1100,I,z,z,None,667,467.0,200.0,56,3,2312.099999964237,371881.60000002384,8016,kiwi,NF,B,362955,362955,361126,362239,361126,363438,362755,362755,363438,94
94,test,1,inc,1,z,Fri Aug 29 2025 11:41:52 GMT-0500 (Central Daylight Time),376293.3000000119,copper,900,I,z,z,None,663,463.0,200.0,30,3,2096.100000023842,374197.1999999881,8016,raisin,NF,B,365071,365071,363441,364355,363441,365537,364871,364871,365537,95
95,test,1,inc,1,z,Fri Aug 29 2025 11:41:52 GMT-0500 (Central Daylight Time),378642.40000003576,zinc,1000,I,z,z,None,773,572.0,201.0,55,3,2345.400000035763,376297.0,8016,kiwi,NF,B,367305,367305,365541,366593,365541,367886,367103,367103,367886,96
96,test,1,con,1,m,Fri Aug 29 2025 11:41:52 GMT-0500 (Central Daylight Time),380825.10000002384,cobalt,800,I,m,m,None,841,642.0,199.0,89,3,2178.800000011921,378646.3000000119,8016,cobalt,NF,B,369420,369420,367890,368704,367891,370069,369220,369220,370069,97
97,test,1,con,1,z,Fri Aug 29 2025 11:41:52 GMT-0500 (Central Daylight Time),383374.40000003576,raisin,1000,I,z,z,None,1003,803.0,200.0,27,3,2545.5,380828.90000003576,8016,raisin,NF,B,371802,371802,370073,371086,370073,372618,371602,371602,372618,98
98,test,1,con,1,m,Fri Aug 29 2025 11:41:52 GMT-0500 (Central Daylight Time),385840.40000003576,zinc,1100,I,m,m,None,824,625.0,199.0,116,3,2462.300000011921,383378.10000002384,8016,zinc,NF,B,374452,374452,372622,373735,372622,375084,374252,374252,375084,99
99,test,1,inc,1,m,Fri Aug 29 2025 11:41:52 GMT-0500 (Central Daylight Time),388072.6999999881,cherry,900,I,m,m,None,792,592.0,200.0,94,3,2228.599999964237,385844.10000002384,8016,cobalt,NF,B,376717,376717,375088,376001,375088,377317,376517,376517,377317,100
100,test,1,inc,1,m,Fri Aug 29 2025 11:41:52 GMT-0500 (Central Daylight Time),390322.1999999881,kiwi,1000,I,m,m,None,707,508.0,199.0,103,3,2245.7999999523163,388076.40000003576,8016,gold,NF,B,379050,379050,377320,378333,377321,379566,378850,378850,379566,101
101,test,1,inc,1,z,Fri Aug 29 2025 11:41:52 GMT-0500 (Central Daylight Time),392405.0,gold,800,I,z,z,None,747,547.0,200.0,37,3,2079.099999964237,390325.90000003576,8016,lime,NF,B,381099,381099,379570,380383,379570,381649,380899,380899,381649,102
102,test,1,con,1,m,Fri Aug 29 2025 11:41:52 GMT-0500 (Central Daylight Time),394704.40000003576,gold,1000,I,m,m,None,759,559.0,200.0,99,3,2295.600000023842,392408.8000000119,8016,gold,NF,B,383382,383382,381653,382665,381653,383949,383182,383182,383948,103
103,test,1,inc,1,m,Fri Aug 29 2025 11:41:52 GMT-0500 (Central Daylight Time),396920.10000002384,orange,1000,I,m,m,None,676,476.0,200.0,87,3,2212.0,394708.10000002384,8016,silver,NF,B,385681,385681,383952,384965,383952,386164,385481,385481,386164,104
104,test,1,con,1,m,Fri Aug 29 2025 11:41:52 GMT-0500 (Central Daylight Time),399286.10000002384,silver,1100,I,m,m,None,729,529.0,200.0,84,3,2362.300000011921,396923.8000000119,8016,silver,NF,B,387997,387997,386168,387281,386168,388530,387797,387797,388530,105
105,test,1,con,1,z,Fri Aug 29 2025 11:41:52 GMT-0500 (Central Daylight Time),401368.6999999881,raisin,800,I,z,z,None,741,416.0,325.0,25,3,2078.899999976158,399289.8000000119,8016,raisin,NF,B,390189,390189,388534,389347,388534,390613,389863,389863,390613,106
106,test,1,inc,1,z,Fri Aug 29 2025 11:41:52 GMT-0500 (Central Daylight Time),403468.0,bronze,800,I,z,z,None,763,563.0,200.0,5,3,2095.199999988079,401372.8000000119,8016,banana,NF,B,392146,392146,390617,391429,390617,392712,391946,391946,392712,107
107,test,1,con,1,z,Fri Aug 29 2025 11:41:52 GMT-0500 (Central Daylight Time),405834.1999999881,pear,1100,I,z,z,None,725,525.0,200.0,44,3,2362.2999999523163,403471.90000003576,8016,pear,NF,B,394545,394545,392716,393829,392716,395078,394345,394345,395078,108
108,test,1,inc,1,m,Fri Aug 29 2025 11:41:52 GMT-0500 (Central Daylight Time),408033.3000000119,cherry,900,I,m,m,None,766,566.0,200.0,70,3,2195.5,405837.8000000119,8016,bronze,NF,B,396711,396711,395082,395995,395082,397277,396511,396511,397277,109
109,test,1,con,1,m,Fri Aug 29 2025 11:41:52 GMT-0500 (Central Daylight Time),410349.40000003576,iron,1100,I,m,m,None,680,480.0,200.0,108,3,2311.800000011921,408037.60000002384,8016,iron,NF,B,399110,399110,397282,398394,397282,399593,398910,398910,399593,110
110,test,1,inc,1,m,Fri Aug 29 2025 11:41:52 GMT-0500 (Central Daylight Time),412548.40000003576,pear,900,I,m,m,None,756,556.0,200.0,102,3,2195.2000000476837,410353.1999999881,8016,gold,NF,B,401226,401226,399597,400510,399598,401793,401026,401026,401792,111
111,test,1,con,1,z,Fri Aug 29 2025 11:41:52 GMT-0500 (Central Daylight Time),414480.90000003576,plum,800,I,z,z,None,583,383.0,200.0,57,3,1928.5,412552.40000003576,8016,plum,NF,B,403326,403326,401796,402609,401797,403725,403126,403126,403725,112
112,test,1,con,1,m,Fri Aug 29 2025 11:41:52 GMT-0500 (Central Daylight Time),416663.90000003576,bronze,900,I,m,m,None,735,535.0,200.0,66,3,2178.900000035763,414485.0,8016,bronze,NF,B,405358,405358,403729,404642,403729,405908,405158,405158,405908,113
113,test,1,inc,1,m,Fri Aug 29 2025 11:41:52 GMT-0500 (Central Daylight Time),418746.5,lime,800,I,m,m,None,741,541.0,200.0,117,3,2079.099999964237,416667.40000003576,8016,zinc,NF,B,407441,407441,405911,406725,405912,407991,407241,407241,407991,114
114,test,1,inc,1,z,Fri Aug 29 2025 11:41:52 GMT-0500 (Central Daylight Time),420812.6999999881,gold,800,I,z,z,None,720,521.0,199.0,61,3,2062.699999988079,418750.0,8016,plum,NF,B,409524,409524,407994,408807,407994,410057,409324,409324,410057,115
115,test,1,con,1,m,Fri Aug 29 2025 11:41:52 GMT-0500 (Central Daylight Time),422812.0,gold,900,I,m,m,None,555,356.0,199.0,98,3,1995.699999988079,420816.3000000119,8016,gold,NF,B,411690,411690,410060,410973,410061,412056,411490,411490,412056,116
116,test,1,inc,1,m,Fri Aug 29 2025 11:41:52 GMT-0500 (Central Daylight Time),425094.3000000119,pear,900,I,m,m,None,720,519.0,201.0,126,3,2278.199999988079,422816.10000002384,8016,lead,NF,B,413806,413806,412060,412973,412060,414339,413604,413604,414338,117
117,test,1,con,1,z,Fri Aug 29 2025 11:41:52 GMT-0500 (Central Daylight Time),427210.40000003576,pear,800,I,z,z,None,772,573.0,199.0,41,3,2112.400000035763,425098.0,8016,pear,NF,B,415871,415872,414342,415155,414342,416454,415671,415672,416454,118
118,test,1,inc,1,m,Fri Aug 29 2025 11:41:52 GMT-0500 (Central Daylight Time),429460.0,raisin,1100,I,m,m,None,604,405.0,199.0,80,3,2245.800000011921,427214.1999999881,8016,copper,NF,B,418288,418288,416458,417571,416458,418704,418088,418088,418704,119
119,test,1,con,1,m,Fri Aug 29 2025 11:41:52 GMT-0500 (Central Daylight Time),431709.0,copper,1100,I,m,m,None,604,405.0,199.0,76,3,2245.300000011921,429463.6999999881,8016,copper,NF,B,420537,420537,418708,419820,418708,420953,420337,420337,420953,120
120,test,1,con,1,z,Fri Aug 29 2025 11:41:52 GMT-0500 (Central Daylight Time),433975.0,banana,900,I,z,z,None,827,627.0,200.0,2,3,2262.599999964237,431712.40000003576,8016,banana,NF,B,422586,422586,420956,421870,420957,423219,422386,422386,423219,121
121,test,1,inc,1,m,Fri Aug 29 2025 11:41:52 GMT-0500 (Central Daylight Time),436157.5,banana,800,I,m,m,None,837,637.0,200.0,93,3,2178.699999988079,433978.8000000119,8016,cobalt,NF,B,424752,424752,423223,424036,423223,425402,424552,424552,425402,122
122,test,1,inc,1,z,Fri Aug 29 2025 11:41:52 GMT-0500 (Central Daylight Time),438173.90000003576,bronze,800,I,z,z,None,679,479.0,200.0,29,3,2012.7000000476837,436161.1999999881,8016,raisin,NF,B,426935,426935,425405,426218,425405,427418,426735,426735,427418,123
123,test,1,inc,1,m,Fri Aug 29 2025 11:41:52 GMT-0500 (Central Daylight Time),440439.60000002384,raisin,1100,I,m,m,None,627,427.0,200.0,96,3,2262.100000023842,438177.5,8016,cobalt,NF,B,429251,429251,427422,428535,427422,429684,429051,429051,429684,124
124,test,1,inc,1,m,Fri Aug 29 2025 11:41:52 GMT-0500 (Central Daylight Time),442705.60000002384,banana,800,I,m,m,None,917,717.0,200.0,85,3,2262.5,440443.10000002384,8016,silver,NF,B,431217,431217,429687,430501,429687,431950,431017,431017,431950,125
125,test,1,inc,1,z,Fri Aug 29 2025 11:41:52 GMT-0500 (Central Daylight Time),444771.6999999881,bronze,800,I,z,z,None,722,522.0,200.0,13,3,2062.2999999523163,442709.40000003576,8016,cherry,NF,B,433483,433483,431953,432766,431954,434016,433283,433283,434016,126
126,test,1,con,1,z,Fri Aug 29 2025 11:41:52 GMT-0500 (Central Daylight Time),446954.3000000119,kiwi,900,I,z,z,None,747,548.0,199.0,50,3,2178.600000023842,444775.6999999881,8016,kiwi,NF,B,435649,435649,434020,434934,434020,436198,435449,435449,436198,127
127,test,1,inc,1,m,Fri Aug 29 2025 11:41:52 GMT-0500 (Central Daylight Time),448970.3000000119,lime,800,I,m,m,None,682,482.0,200.0,125,3,2012.199999988079,446958.10000002384,8016,lead,NF,B,437732,437732,436202,437015,436202,438214,437531,437531,438214,128
