acc_sum,block,block_c,block_cond,con_img,correct,correct_response,datetime,endtime,face,jitter,line,project,response,response_time,row_sel,session_number,start_end,starttime,subject_id,task,task_vers,trial
1,prac,1,A,haborder.png,1,m,Thu Sep 18 2025 11:30:49 GMT-0500 (Central Daylight Time),55293.799999952316,CFD-BM-020-024-HC.jpg,1500,solid,O,m,1133,3,1,3432.7999999523163,51861.0,7213,ATS,B,1
2,prac,1,A,haborder.png,1,z,Thu Sep 18 2025 11:30:49 GMT-0500 (Central Daylight Time),58691.0,CFD-WF-026-008-A.jpg,1600,solid,O,z,986,10,1,6830.0,51861.0,7213,ATS,B,2
3,prac,1,A,haborder.png,1,z,Thu Sep 18 2025 11:30:49 GMT-0500 (Central Daylight Time),62523.299999952316,CFD-WM-009-009-A.jpg,1900,solid,O,z,1135,8,1,10662.299999952316,51861.0,7213,ATS,B,3
4,prac,1,A,haborder.png,1,z,Thu Sep 18 2025 11:30:49 GMT-0500 (Central Daylight Time),65372.39999985695,CFD-BF-050-012-A.jpg,1200,solid,O,z,842,6,1,13511.399999856949,51861.0,7213,ATS,B,4
5,prac,1,A,haborder.png,1,z,Thu Sep 18 2025 11:30:49 GMT-0500 (Central Daylight Time),68756.09999990463,CFD-BM-037-041-A.jpg,1600,solid,O,z,1009,2,1,16895.099999904633,51861.0,7213,ATS,B,5
5,prac,1,A,haborder.png,0,m,Thu Sep 18 2025 11:30:49 GMT-0500 (Central Daylight Time),72752.29999995232,CFD-BM-015-017-HC.jpg,1700,solid,O,None,1513,1,1,20891.299999952316,51861.0,7213,ATS,B,6
6,prac,1,A,haborder.png,1,m,Thu Sep 18 2025 11:30:49 GMT-0500 (Central Daylight Time),76201.5,CFD-WM-012-007-HC.jpg,1700,solid,O,m,936,9,1,24340.5,51861.0,7213,ATS,B,7
7,prac,1,A,haborder.png,1,z,Thu Sep 18 2025 11:30:49 GMT-0500 (Central Daylight Time),78801.0,CFD-WF-013-015-A.jpg,1000,solid,O,z,802,12,1,26940.0,51861.0,7213,ATS,B,8
8,prac,1,A,haborder.png,1,z,Thu Sep 18 2025 11:30:49 GMT-0500 (Central Daylight Time),81451.79999995232,CFD-BF-051-043-A.jpg,1000,solid,O,z,855,4,1,29590.799999952316,51861.0,7213,ATS,B,9
9,prac,1,A,haborder.png,1,m,Thu Sep 18 2025 11:30:49 GMT-0500 (Central Daylight Time),84349.09999990463,CFD-WM-011-006-HC.jpg,1400,solid,O,m,682,7,1,32488.099999904633,51861.0,7213,ATS,B,10
10,prac,1,A,haborder.png,1,m,Thu Sep 18 2025 11:30:49 GMT-0500 (Central Daylight Time),87300.70000004768,CFD-WF-011-006-HC.jpg,1500,solid,O,m,660,11,1,35439.700000047684,51861.0,7213,ATS,B,11
11,prac,1,A,haborder.png,1,m,Thu Sep 18 2025 11:30:49 GMT-0500 (Central Daylight Time),90746.5,CFD-BF-035-007-HC.jpg,2000,solid,O,m,640,5,1,38885.5,51861.0,7213,ATS,B,12
1,prac,1,B,mfborder.png,1,m,Thu Sep 18 2025 11:30:49 GMT-0500 (Central Daylight Time),139982.39999985695,CFD-WM-037-060-A.jpg,1200,dash,O,m,917,6,1,2932.699999809265,137049.70000004768,7213,ATS,B,1
2,prac,1,B,mfborder.png,1,m,Thu Sep 18 2025 11:30:49 GMT-0500 (Central Daylight Time),143632.39999985695,CFD-BM-037-041-A.jpg,2000,dash,O,m,854,5,1,6582.699999809265,137049.70000004768,7213,ATS,B,2
3,prac,1,B,mfborder.png,1,z,Thu Sep 18 2025 11:30:49 GMT-0500 (Central Daylight Time),146530.39999985695,CFD-WF-011-006-HC.jpg,1000,dash,O,z,1111,12,1,9480.699999809265,137049.70000004768,7213,ATS,B,3
4,prac,1,B,mfborder.png,1,m,Thu Sep 18 2025 11:30:49 GMT-0500 (Central Daylight Time),150028.20000004768,CFD-WM-009-009-A.jpg,1700,dash,O,m,1007,9,1,12978.5,137049.70000004768,7213,ATS,B,4
5,prac,1,B,mfborder.png,1,z,Thu Sep 18 2025 11:30:49 GMT-0500 (Central Daylight Time),153012.70000004768,CFD-BF-051-043-A.jpg,1000,dash,O,z,1210,4,1,15963.0,137049.70000004768,7213,ATS,B,5
6,prac,1,B,mfborder.png,1,m,Thu Sep 18 2025 11:30:49 GMT-0500 (Central Daylight Time),156494.89999985695,CFD-BM-041-048-A.jpg,1600,dash,O,m,1083,2,1,19445.199999809265,137049.70000004768,7213,ATS,B,6
7,prac,1,B,mfborder.png,1,z,Thu Sep 18 2025 11:30:49 GMT-0500 (Central Daylight Time),159875.39999985695,CFD-BF-027-013-HC.jpg,1500,dash,O,z,1083,3,1,22825.699999809265,137049.70000004768,7213,ATS,B,7
7,prac,1,B,mfborder.png,0,z,Thu Sep 18 2025 11:30:49 GMT-0500 (Central Daylight Time),163675.39999985695,CFD-WF-026-008-A.jpg,1500,dash,O,None,1515,11,1,26625.699999809265,137049.70000004768,7213,ATS,B,8
8,prac,1,B,mfborder.png,1,z,Thu Sep 18 2025 11:30:49 GMT-0500 (Central Daylight Time),166523.29999995232,CFD-WF-027-007-HC.jpg,1900,dash,O,z,161,8,1,29473.599999904633,137049.70000004768,7213,ATS,B,9
9,prac,1,B,mfborder.png,1,m,Thu Sep 18 2025 11:30:49 GMT-0500 (Central Daylight Time),169640.29999995232,CFD-WM-012-007-HC.jpg,1600,dash,O,m,732,10,1,32590.599999904633,137049.70000004768,7213,ATS,B,10
10,prac,1,B,mfborder.png,1,m,Thu Sep 18 2025 11:30:49 GMT-0500 (Central Daylight Time),172922.5,CFD-BM-020-024-HC.jpg,1700,dash,O,m,787,1,1,35872.799999952316,137049.70000004768,7213,ATS,B,11
11,prac,1,B,mfborder.png,1,z,Thu Sep 18 2025 11:30:49 GMT-0500 (Central Daylight Time),176120.0,CFD-BF-035-007-HC.jpg,1400,dash,O,z,1003,7,1,39070.299999952316,137049.70000004768,7213,ATS,B,12
1,test,1,A,haborder.png,1,z,Thu Sep 18 2025 11:30:49 GMT-0500 (Central Daylight Time),190848.59999990463,CFD-BF-051-043-A.jpg,1000,solid,O,z,748,4,1,1765.7999999523163,189082.79999995232,7213,ATS,B,1
2,test,1,A,haborder.png,1,z,Thu Sep 18 2025 11:30:49 GMT-0500 (Central Daylight Time),193248.79999995232,CFD-WF-013-015-A.jpg,1000,solid,O,z,1381,12,1,4166.0,189082.79999995232,7213,ATS,B,2
3,test,1,A,haborder.png,1,m,Thu Sep 18 2025 11:30:49 GMT-0500 (Central Daylight Time),195430.70000004768,CFD-WF-011-006-HC.jpg,1500,solid,O,m,650,11,1,6347.900000095367,189082.79999995232,7213,ATS,B,3
4,test,1,A,haborder.png,1,z,Thu Sep 18 2025 11:30:49 GMT-0500 (Central Daylight Time),198512.20000004768,CFD-WM-009-009-A.jpg,1900,solid,O,z,1150,8,1,9429.400000095367,189082.79999995232,7213,ATS,B,4
5,test,1,A,haborder.png,1,z,Thu Sep 18 2025 11:30:49 GMT-0500 (Central Daylight Time),200795.0,CFD-BF-050-012-A.jpg,1200,solid,O,z,1054,6,1,11712.200000047684,189082.79999995232,7213,ATS,B,5
6,test,1,A,haborder.png,1,z,Thu Sep 18 2025 11:30:49 GMT-0500 (Central Daylight Time),202394.20000004768,CFD-BF-051-043-A.jpg,1000,solid,O,z,578,4,1,13311.400000095367,189082.79999995232,7213,ATS,B,6
7,test,1,A,haborder.png,1,m,Thu Sep 18 2025 11:30:49 GMT-0500 (Central Daylight Time),204310.20000004768,CFD-WM-011-006-HC.jpg,1400,solid,O,m,482,7,1,15227.400000095367,189082.79999995232,7213,ATS,B,7
8,test,1,A,haborder.png,1,m,Thu Sep 18 2025 11:30:49 GMT-0500 (Central Daylight Time),206792.89999985695,CFD-WM-012-007-HC.jpg,1700,solid,O,m,754,9,1,17710.099999904633,189082.79999995232,7213,ATS,B,8
9,test,1,A,haborder.png,1,z,Thu Sep 18 2025 11:30:49 GMT-0500 (Central Daylight Time),208675.59999990463,CFD-BF-050-012-A.jpg,1200,solid,O,z,660,6,1,19592.799999952316,189082.79999995232,7213,ATS,B,9
10,test,1,A,haborder.png,1,z,Thu Sep 18 2025 11:30:49 GMT-0500 (Central Daylight Time),210375.59999990463,CFD-WF-013-015-A.jpg,1000,solid,O,z,682,12,1,21292.799999952316,189082.79999995232,7213,ATS,B,10
11,test,1,A,haborder.png,1,m,Thu Sep 18 2025 11:30:49 GMT-0500 (Central Daylight Time),213294.59999990463,CFD-BM-015-017-HC.jpg,1700,solid,O,m,1187,1,1,24211.799999952316,189082.79999995232,7213,ATS,B,11
12,test,1,A,haborder.png,1,m,Thu Sep 18 2025 11:30:49 GMT-0500 (Central Daylight Time),216274.5,CFD-BF-035-007-HC.jpg,2000,solid,O,m,954,5,1,27191.700000047684,189082.79999995232,7213,ATS,B,12
13,test,1,A,haborder.png,1,m,Thu Sep 18 2025 11:30:49 GMT-0500 (Central Daylight Time),218623.09999990463,CFD-BM-020-024-HC.jpg,1500,solid,O,m,826,3,1,29540.299999952316,189082.79999995232,7213,ATS,B,13
14,test,1,A,haborder.png,1,z,Thu Sep 18 2025 11:30:49 GMT-0500 (Central Daylight Time),221023.5,CFD-WF-026-008-A.jpg,1600,solid,O,z,776,10,1,31940.700000047684,189082.79999995232,7213,ATS,B,14
15,test,1,A,haborder.png,1,m,Thu Sep 18 2025 11:30:49 GMT-0500 (Central Daylight Time),223504.89999985695,CFD-WM-012-007-HC.jpg,1700,solid,O,m,757,9,1,34422.09999990463,189082.79999995232,7213,ATS,B,15
16,test,1,A,haborder.png,1,m,Thu Sep 18 2025 11:30:49 GMT-0500 (Central Daylight Time),226272.0,CFD-BF-035-007-HC.jpg,2000,solid,O,m,733,5,1,37189.200000047684,189082.79999995232,7213,ATS,B,16
17,test,1,A,haborder.png,1,z,Thu Sep 18 2025 11:30:49 GMT-0500 (Central Daylight Time),229036.79999995232,CFD-BM-037-041-A.jpg,1600,solid,O,z,1144,2,1,39954.0,189082.79999995232,7213,ATS,B,17
18,test,1,A,haborder.png,1,z,Thu Sep 18 2025 11:30:49 GMT-0500 (Central Daylight Time),231719.0,CFD-WM-009-009-A.jpg,1900,solid,O,z,765,8,1,42636.200000047684,189082.79999995232,7213,ATS,B,18
19,test,1,A,haborder.png,1,z,Thu Sep 18 2025 11:30:49 GMT-0500 (Central Daylight Time),234000.79999995232,CFD-WF-026-008-A.jpg,1600,solid,O,z,662,10,1,44918.0,189082.79999995232,7213,ATS,B,19
20,test,1,A,haborder.png,1,m,Thu Sep 18 2025 11:30:49 GMT-0500 (Central Daylight Time),236101.39999985695,CFD-WF-011-006-HC.jpg,1500,solid,O,m,569,11,1,47018.59999990463,189082.79999995232,7213,ATS,B,20
20,test,1,A,haborder.png,0,m,Thu Sep 18 2025 11:30:49 GMT-0500 (Central Daylight Time),239333.59999990463,CFD-BM-015-017-HC.jpg,1700,solid,O,None,1515,1,1,50250.799999952316,189082.79999995232,7213,ATS,B,21
21,test,1,A,haborder.png,1,m,Thu Sep 18 2025 11:30:49 GMT-0500 (Central Daylight Time),241382.0,CFD-WM-011-006-HC.jpg,1400,solid,O,m,622,7,1,52299.200000047684,189082.79999995232,7213,ATS,B,22
22,test,1,A,haborder.png,1,m,Thu Sep 18 2025 11:30:49 GMT-0500 (Central Daylight Time),243549.29999995232,CFD-BM-020-024-HC.jpg,1500,solid,O,m,634,3,1,54466.5,189082.79999995232,7213,ATS,B,23
23,test,1,A,haborder.png,1,z,Thu Sep 18 2025 11:30:49 GMT-0500 (Central Daylight Time),245816.29999995232,CFD-BM-037-041-A.jpg,1600,solid,O,z,641,2,1,56733.5,189082.79999995232,7213,ATS,B,24
1,test,1,B,mfborder.png,1,z,Thu Sep 18 2025 11:30:49 GMT-0500 (Central Daylight Time),257326.29999995232,CFD-BF-035-007-HC.jpg,1400,dash,O,z,939,7,1,2364.4000000953674,254961.89999985695,7213,ATS,B,1
2,test,1,B,mfborder.png,1,z,Thu Sep 18 2025 11:30:49 GMT-0500 (Central Daylight Time),259494.5,CFD-BF-035-007-HC.jpg,1400,dash,O,z,733,7,1,4532.600000143051,254961.89999985695,7213,ATS,B,2
3,test,1,B,mfborder.png,1,z,Thu Sep 18 2025 11:30:49 GMT-0500 (Central Daylight Time),262042.5,CFD-WF-026-008-A.jpg,1500,dash,O,z,1019,11,1,7080.600000143051,254961.89999985695,7213,ATS,B,3
4,test,1,B,mfborder.png,1,m,Thu Sep 18 2025 11:30:49 GMT-0500 (Central Daylight Time),265175.2000000477,CFD-BM-037-041-A.jpg,2000,dash,O,m,1108,5,1,10213.300000190735,254961.89999985695,7213,ATS,B,4
5,test,1,B,mfborder.png,1,z,Thu Sep 18 2025 11:30:49 GMT-0500 (Central Daylight Time),267641.59999990463,CFD-BF-027-013-HC.jpg,1500,dash,O,z,937,3,1,12679.700000047684,254961.89999985695,7213,ATS,B,5
6,test,1,B,mfborder.png,1,m,Thu Sep 18 2025 11:30:49 GMT-0500 (Central Daylight Time),269872.89999985695,CFD-WM-037-060-A.jpg,1200,dash,O,m,1006,6,1,14911.0,254961.89999985695,7213,ATS,B,6
7,test,1,B,mfborder.png,1,m,Thu Sep 18 2025 11:30:49 GMT-0500 (Central Daylight Time),272278.2000000477,CFD-WM-012-007-HC.jpg,1600,dash,O,m,787,10,1,17316.300000190735,254961.89999985695,7213,ATS,B,7
7,test,1,B,mfborder.png,0,m,Thu Sep 18 2025 11:30:49 GMT-0500 (Central Daylight Time),275423.7000000477,CFD-BM-041-048-A.jpg,1600,dash,O,None,1516,2,1,20461.800000190735,254961.89999985695,7213,ATS,B,8
8,test,1,B,mfborder.png,1,m,Thu Sep 18 2025 11:30:49 GMT-0500 (Central Daylight Time),277671.2999999523,CFD-BM-041-048-A.jpg,1600,dash,O,m,606,2,1,22709.400000095367,254961.89999985695,7213,ATS,B,9
9,test,1,B,mfborder.png,1,z,Thu Sep 18 2025 11:30:49 GMT-0500 (Central Daylight Time),279337.39999985695,CFD-WF-011-006-HC.jpg,1000,dash,O,z,648,12,1,24375.5,254961.89999985695,7213,ATS,B,10
10,test,1,B,mfborder.png,1,z,Thu Sep 18 2025 11:30:49 GMT-0500 (Central Daylight Time),282018.7999999523,CFD-WF-027-007-HC.jpg,1900,dash,O,z,759,8,1,27056.900000095367,254961.89999985695,7213,ATS,B,11
11,test,1,B,mfborder.png,1,m,Thu Sep 18 2025 11:30:49 GMT-0500 (Central Daylight Time),284386.09999990463,CFD-WM-009-009-A.jpg,1700,dash,O,m,639,9,1,29424.200000047684,254961.89999985695,7213,ATS,B,12
12,test,1,B,mfborder.png,1,z,Thu Sep 18 2025 11:30:49 GMT-0500 (Central Daylight Time),286134.7999999523,CFD-WF-011-006-HC.jpg,1000,dash,O,z,724,12,1,31172.900000095367,254961.89999985695,7213,ATS,B,13
13,test,1,B,mfborder.png,1,z,Thu Sep 18 2025 11:30:49 GMT-0500 (Central Daylight Time),287819.0,CFD-BF-051-043-A.jpg,1000,dash,O,z,654,4,1,32857.10000014305,254961.89999985695,7213,ATS,B,14
14,test,1,B,mfborder.png,1,z,Thu Sep 18 2025 11:30:49 GMT-0500 (Central Daylight Time),290168.09999990463,CFD-BF-027-013-HC.jpg,1500,dash,O,z,825,3,1,35206.200000047684,254961.89999985695,7213,ATS,B,15
15,test,1,B,mfborder.png,1,m,Thu Sep 18 2025 11:30:49 GMT-0500 (Central Daylight Time),292351.59999990463,CFD-WM-037-060-A.jpg,1200,dash,O,m,952,6,1,37389.700000047684,254961.89999985695,7213,ATS,B,16
16,test,1,B,mfborder.png,1,m,Thu Sep 18 2025 11:30:49 GMT-0500 (Central Daylight Time),295364.89999985695,CFD-BM-037-041-A.jpg,2000,dash,O,m,992,5,1,40403.0,254961.89999985695,7213,ATS,B,17
17,test,1,B,mfborder.png,1,z,Thu Sep 18 2025 11:30:49 GMT-0500 (Central Daylight Time),296982.5,CFD-BF-051-043-A.jpg,1000,dash,O,z,592,4,1,42020.60000014305,254961.89999985695,7213,ATS,B,18
18,test,1,B,mfborder.png,1,z,Thu Sep 18 2025 11:30:49 GMT-0500 (Central Daylight Time),299948.5,CFD-WF-027-007-HC.jpg,1900,dash,O,z,1045,8,1,44986.60000014305,254961.89999985695,7213,ATS,B,19
19,test,1,B,mfborder.png,1,m,Thu Sep 18 2025 11:30:49 GMT-0500 (Central Daylight Time),302865.2000000477,CFD-WM-009-009-A.jpg,1700,dash,O,m,1200,9,1,47903.300000190735,254961.89999985695,7213,ATS,B,20
20,test,1,B,mfborder.png,1,m,Thu Sep 18 2025 11:30:49 GMT-0500 (Central Daylight Time),305113.59999990463,CFD-WM-012-007-HC.jpg,1600,dash,O,m,623,10,1,50151.700000047684,254961.89999985695,7213,ATS,B,21
21,test,1,B,mfborder.png,1,m,Thu Sep 18 2025 11:30:49 GMT-0500 (Central Daylight Time),307511.89999985695,CFD-BM-020-024-HC.jpg,1700,dash,O,m,674,1,1,52550.0,254961.89999985695,7213,ATS,B,22
22,test,1,B,mfborder.png,1,m,Thu Sep 18 2025 11:30:49 GMT-0500 (Central Daylight Time),309843.5,CFD-BM-020-024-HC.jpg,1700,dash,O,m,603,1,1,54881.60000014305,254961.89999985695,7213,ATS,B,23
23,test,1,B,mfborder.png,1,z,Thu Sep 18 2025 11:30:49 GMT-0500 (Central Daylight Time),312059.2000000477,CFD-WF-026-008-A.jpg,1500,dash,O,z,671,11,1,57097.300000190735,254961.89999985695,7213,ATS,B,24
1,12,1,C,haborder.png,1,m,Thu Sep 18 2025 11:30:49 GMT-0500 (Central Daylight Time),337651.39999985695,CFD-WM-011-006-HC.jpg,1400,solid,O,m,1019,prac,1,3215.0999999046326,334436.2999999523,7213,ATS,B,1
2,8,1,C,haborder.png,1,z,Thu Sep 18 2025 11:30:49 GMT-0500 (Central Daylight Time),341434.0,CFD-BF-050-012-A.jpg,1700,solid,O,z,1269,prac,1,6997.700000047684,334436.2999999523,7213,ATS,B,2
3,5,1,C,mfborder.png,1,m,Thu Sep 18 2025 11:30:49 GMT-0500 (Central Daylight Time),344416.2000000477,CFD-BM-037-041-A.jpg,1200,dash,O,m,999,prac,1,9979.900000095367,334436.2999999523,7213,ATS,B,3
4,11,1,C,haborder.png,1,m,Thu Sep 18 2025 11:30:49 GMT-0500 (Central Daylight Time),347149.2000000477,CFD-WM-011-006-HC.jpg,1000,dash,O,m,949,prac,1,12712.900000095367,334436.2999999523,7213,ATS,B,4
4,9,1,C,haborder.png,0,z,Thu Sep 18 2025 11:30:49 GMT-0500 (Central Daylight Time),351048.5,CFD-WF-026-008-A.jpg,1600,dash,O,None,1516,prac,1,16612.200000047684,334436.2999999523,7213,ATS,B,5
5,10,1,C,haborder.png,1,m,Thu Sep 18 2025 11:30:49 GMT-0500 (Central Daylight Time),354414.7999999523,CFD-BM-020-024-HC.jpg,1500,solid,O,m,1075,prac,1,19978.5,334436.2999999523,7213,ATS,B,6
6,2,1,C,mfborder.png,1,z,Thu Sep 18 2025 11:30:49 GMT-0500 (Central Daylight Time),357797.09999990463,CFD-WF-013-015-A.jpg,1500,solid,O,z,1107,prac,1,23360.799999952316,334436.2999999523,7213,ATS,B,7
6,4,1,C,mfborder.png,0,m,Thu Sep 18 2025 11:30:49 GMT-0500 (Central Daylight Time),362094.59999990463,CFD-BM-015-017-HC.jpg,2000,solid,O,None,1515,prac,1,27658.299999952316,334436.2999999523,7213,ATS,B,8
7,7,1,C,haborder.png,1,z,Thu Sep 18 2025 11:30:49 GMT-0500 (Central Daylight Time),365810.2999999523,CFD-BF-051-043-A.jpg,1900,dash,O,z,1029,prac,1,31374.0,334436.2999999523,7213,ATS,B,9
7,3,1,C,mfborder.png,0,z,Thu Sep 18 2025 11:30:49 GMT-0500 (Central Daylight Time),368542.7000000477,CFD-BF-035-007-HC.jpg,1000,dash,O,m,934,prac,1,34106.40000009537,334436.2999999523,7213,ATS,B,10
8,1,1,C,mfborder.png,1,z,Thu Sep 18 2025 11:30:49 GMT-0500 (Central Daylight Time),372125.2000000477,CFD-WF-011-006-HC.jpg,1600,dash,O,z,1200,prac,1,37688.90000009537,334436.2999999523,7213,ATS,B,11
9,6,1,C,mfborder.png,1,m,Thu Sep 18 2025 11:30:49 GMT-0500 (Central Daylight Time),375424.09999990463,CFD-WM-009-009-A.jpg,1700,solid,O,m,816,prac,1,40987.799999952316,334436.2999999523,7213,ATS,B,12
1,test,1,C,mfborder.png,1,m,Thu Sep 18 2025 11:30:49 GMT-0500 (Central Daylight Time),392118.89999985695,CFD-WM-012-007-HC.jpg,1000,dash,O,m,902,4,1,1928.5999999046326,390190.2999999523,7213,ATS,B,1
2,test,1,C,mfborder.png,1,m,Thu Sep 18 2025 11:30:49 GMT-0500 (Central Daylight Time),395033.7999999523,CFD-WM-037-060-A.jpg,2000,dash,O,m,887,5,1,4843.5,390190.2999999523,7213,ATS,B,2
3,test,1,C,haborder.png,1,z,Thu Sep 18 2025 11:30:49 GMT-0500 (Central Daylight Time),398216.2999999523,CFD-BM-041-048-A.jpg,1700,solid,O,z,1465,9,1,8026.0,390190.2999999523,7213,ATS,B,3
4,test,1,C,haborder.png,1,m,Thu Sep 18 2025 11:30:49 GMT-0500 (Central Daylight Time),400631.7999999523,CFD-BF-035-007-HC.jpg,1600,solid,O,m,790,10,1,10441.5,390190.2999999523,7213,ATS,B,4
5,test,1,C,mfborder.png,1,m,Thu Sep 18 2025 11:30:49 GMT-0500 (Central Daylight Time),402763.7999999523,CFD-BM-020-024-HC.jpg,1200,dash,O,m,909,6,1,12573.5,390190.2999999523,7213,ATS,B,5
5,test,1,C,haborder.png,0,m,Thu Sep 18 2025 11:30:49 GMT-0500 (Central Daylight Time),405798.59999990463,CFD-WF-027-007-HC.jpg,1500,solid,O,None,1517,11,1,15608.299999952316,390190.2999999523,7213,ATS,B,6
5,test,1,C,haborder.png,0,m,Thu Sep 18 2025 11:30:49 GMT-0500 (Central Daylight Time),408929.7999999523,CFD-BF-035-007-HC.jpg,1600,solid,O,None,1515,10,1,18739.5,390190.2999999523,7213,ATS,B,7
6,test,1,C,mfborder.png,1,z,Thu Sep 18 2025 11:30:49 GMT-0500 (Central Daylight Time),411445.7000000477,CFD-BF-051-043-A.jpg,1600,dash,O,z,895,2,1,21255.400000095367,390190.2999999523,7213,ATS,B,8
6,test,1,C,haborder.png,0,z,Thu Sep 18 2025 11:30:49 GMT-0500 (Central Daylight Time),414110.2000000477,CFD-WM-009-009-A.jpg,1400,solid,O,m,1233,7,1,23919.900000095367,390190.2999999523,7213,ATS,B,9
7,test,1,C,haborder.png,1,z,Thu Sep 18 2025 11:30:49 GMT-0500 (Central Daylight Time),416793.7000000477,CFD-WM-009-009-A.jpg,1400,solid,O,z,1264,7,1,26603.400000095367,390190.2999999523,7213,ATS,B,10
8,test,1,C,mfborder.png,1,z,Thu Sep 18 2025 11:30:49 GMT-0500 (Central Daylight Time),419725.7000000477,CFD-WF-026-008-A.jpg,1500,dash,O,z,1410,3,1,29535.400000095367,390190.2999999523,7213,ATS,B,11
9,test,1,C,haborder.png,1,m,Thu Sep 18 2025 11:30:49 GMT-0500 (Central Daylight Time),422125.2000000477,CFD-WF-011-006-HC.jpg,1000,solid,O,m,1375,12,1,31934.900000095367,390190.2999999523,7213,ATS,B,12
9,test,1,C,haborder.png,0,z,Thu Sep 18 2025 11:30:49 GMT-0500 (Central Daylight Time),425341.7999999523,CFD-BM-041-048-A.jpg,1700,solid,O,None,1502,9,1,35151.5,390190.2999999523,7213,ATS,B,13
9,test,1,C,haborder.png,0,z,Thu Sep 18 2025 11:30:49 GMT-0500 (Central Daylight Time),428439.7999999523,CFD-BM-037-041-A.jpg,1900,solid,O,m,1181,8,1,38249.5,390190.2999999523,7213,ATS,B,14
9,test,1,C,mfborder.png,0,z,Thu Sep 18 2025 11:30:49 GMT-0500 (Central Daylight Time),431670.7000000477,CFD-BF-027-013-HC.jpg,1700,dash,O,None,1516,1,1,41480.40000009537,390190.2999999523,7213,ATS,B,15
9,test,1,C,haborder.png,0,m,Thu Sep 18 2025 11:30:49 GMT-0500 (Central Daylight Time),434203.89999985695,CFD-WF-011-006-HC.jpg,1000,solid,O,None,1514,12,1,44013.59999990463,390190.2999999523,7213,ATS,B,16
9,test,1,C,mfborder.png,0,z,Thu Sep 18 2025 11:30:49 GMT-0500 (Central Daylight Time),437241.2999999523,CFD-WF-026-008-A.jpg,1500,dash,O,None,1520,3,1,47051.0,390190.2999999523,7213,ATS,B,17
10,test,1,C,mfborder.png,1,m,Thu Sep 18 2025 11:30:49 GMT-0500 (Central Daylight Time),439119.2999999523,CFD-WM-012-007-HC.jpg,1000,dash,O,m,842,4,1,48929.0,390190.2999999523,7213,ATS,B,18
10,test,1,C,mfborder.png,0,z,Thu Sep 18 2025 11:30:49 GMT-0500 (Central Daylight Time),442338.89999985695,CFD-BF-027-013-HC.jpg,1700,dash,O,None,1504,1,1,52148.59999990463,390190.2999999523,7213,ATS,B,19
11,test,1,C,mfborder.png,1,m,Thu Sep 18 2025 11:30:49 GMT-0500 (Central Daylight Time),445600.7000000477,CFD-WM-037-060-A.jpg,2000,dash,O,m,1246,5,1,55410.40000009537,390190.2999999523,7213,ATS,B,20
11,test,1,C,haborder.png,0,m,Thu Sep 18 2025 11:30:49 GMT-0500 (Central Daylight Time),448200.7999999523,CFD-WF-027-007-HC.jpg,1500,solid,O,z,1067,11,1,58010.5,390190.2999999523,7213,ATS,B,21
11,test,1,C,haborder.png,0,z,Thu Sep 18 2025 11:30:49 GMT-0500 (Central Daylight Time),451315.2999999523,CFD-BM-037-041-A.jpg,1900,solid,O,m,1186,8,1,61125.0,390190.2999999523,7213,ATS,B,22
11,test,1,C,mfborder.png,0,z,Thu Sep 18 2025 11:30:49 GMT-0500 (Central Daylight Time),454447.5,CFD-BF-051-043-A.jpg,1600,dash,O,None,1515,2,1,64257.200000047684,390190.2999999523,7213,ATS,B,23
12,test,1,C,mfborder.png,1,m,Thu Sep 18 2025 11:30:49 GMT-0500 (Central Daylight Time),456697.7999999523,CFD-BM-020-024-HC.jpg,1200,dash,O,m,1013,6,1,66507.5,390190.2999999523,7213,ATS,B,24
1,test,2,C,haborder.png,1,z,Thu Sep 18 2025 11:30:49 GMT-0500 (Central Daylight Time),485805.39999985695,CFD-BF-050-012-A.jpg,1900,solid,O,z,1367,8,1,3299.0999999046326,482506.2999999523,7213,ATS,B,1
2,test,2,C,haborder.png,1,z,Thu Sep 18 2025 11:30:49 GMT-0500 (Central Daylight Time),488004.0,CFD-BF-051-043-A.jpg,1400,solid,O,z,777,7,1,5497.700000047684,482506.2999999523,7213,ATS,B,2
3,test,2,C,mfborder.png,1,m,Thu Sep 18 2025 11:30:49 GMT-0500 (Central Daylight Time),491420.09999990463,CFD-BM-037-041-A.jpg,2000,dash,O,m,1386,5,1,8913.799999952316,482506.2999999523,7213,ATS,B,3
4,test,2,C,mfborder.png,1,z,Thu Sep 18 2025 11:30:49 GMT-0500 (Central Daylight Time),494535.7999999523,CFD-WF-013-015-A.jpg,1600,dash,O,z,1484,2,1,12029.5,482506.2999999523,7213,ATS,B,4
5,test,2,C,mfborder.png,1,z,Thu Sep 18 2025 11:30:49 GMT-0500 (Central Daylight Time),497569.0,CFD-WF-013-015-A.jpg,1600,dash,O,z,1416,2,1,15062.700000047684,482506.2999999523,7213,ATS,B,5
6,test,2,C,mfborder.png,1,z,Thu Sep 18 2025 11:30:49 GMT-0500 (Central Daylight Time),500483.7999999523,CFD-BF-035-007-HC.jpg,1500,dash,O,z,1395,3,1,17977.5,482506.2999999523,7213,ATS,B,6
6,test,2,C,haborder.png,0,m,Thu Sep 18 2025 11:30:49 GMT-0500 (Central Daylight Time),503516.09999990463,CFD-WM-011-006-HC.jpg,1500,solid,O,None,1515,11,1,21009.799999952316,482506.2999999523,7213,ATS,B,7
7,test,2,C,mfborder.png,1,m,Thu Sep 18 2025 11:30:49 GMT-0500 (Central Daylight Time),506865.2999999523,CFD-BM-037-041-A.jpg,2000,dash,O,m,1314,5,1,24359.0,482506.2999999523,7213,ATS,B,8
7,test,2,C,haborder.png,0,z,Thu Sep 18 2025 11:30:49 GMT-0500 (Central Daylight Time),510297.5,CFD-BF-050-012-A.jpg,1900,solid,O,None,1515,8,1,27791.200000047684,482506.2999999523,7213,ATS,B,9
7,test,2,C,haborder.png,0,m,Thu Sep 18 2025 11:30:49 GMT-0500 (Central Daylight Time),513430.89999985695,CFD-BM-020-024-HC.jpg,1600,solid,O,None,1517,10,1,30924.599999904633,482506.2999999523,7213,ATS,B,10
8,test,2,C,haborder.png,1,m,Thu Sep 18 2025 11:30:49 GMT-0500 (Central Daylight Time),515680.09999990463,CFD-BM-020-024-HC.jpg,1600,solid,O,m,618,10,1,33173.799999952316,482506.2999999523,7213,ATS,B,11
9,test,2,C,haborder.png,1,z,Thu Sep 18 2025 11:30:49 GMT-0500 (Central Daylight Time),518127.59999990463,CFD-BF-051-043-A.jpg,1400,solid,O,z,1031,7,1,35621.299999952316,482506.2999999523,7213,ATS,B,12
10,test,2,C,mfborder.png,1,z,Thu Sep 18 2025 11:30:49 GMT-0500 (Central Daylight Time),520777.2000000477,CFD-BF-035-007-HC.jpg,1500,dash,O,z,1121,3,1,38270.90000009537,482506.2999999523,7213,ATS,B,13
11,test,2,C,mfborder.png,1,m,Thu Sep 18 2025 11:30:49 GMT-0500 (Central Daylight Time),522926.7999999523,CFD-BM-015-017-HC.jpg,1000,dash,O,m,1126,4,1,40420.5,482506.2999999523,7213,ATS,B,14
12,test,2,C,mfborder.png,1,m,Thu Sep 18 2025 11:30:49 GMT-0500 (Central Daylight Time),524875.2999999523,CFD-WM-009-009-A.jpg,1200,dash,O,m,726,6,1,42369.0,482506.2999999523,7213,ATS,B,15
12,test,2,C,mfborder.png,0,z,Thu Sep 18 2025 11:30:49 GMT-0500 (Central Daylight Time),527343.0,CFD-WF-011-006-HC.jpg,1700,dash,O,m,747,1,1,44836.700000047684,482506.2999999523,7213,ATS,B,16
12,test,2,C,haborder.png,0,m,Thu Sep 18 2025 11:30:49 GMT-0500 (Central Daylight Time),530373.5,CFD-WM-011-006-HC.jpg,1500,solid,O,None,1514,11,1,47867.200000047684,482506.2999999523,7213,ATS,B,17
12,test,2,C,mfborder.png,0,m,Thu Sep 18 2025 11:30:49 GMT-0500 (Central Daylight Time),532907.0,CFD-BM-015-017-HC.jpg,1000,dash,O,None,1513,4,1,50400.700000047684,482506.2999999523,7213,ATS,B,18
12,test,2,C,haborder.png,0,m,Thu Sep 18 2025 11:30:49 GMT-0500 (Central Daylight Time),535006.7000000477,CFD-WM-011-006-HC.jpg,1000,solid,O,z,1076,12,1,52500.40000009537,482506.2999999523,7213,ATS,B,19
12,test,2,C,mfborder.png,0,z,Thu Sep 18 2025 11:30:49 GMT-0500 (Central Daylight Time),538237.7999999523,CFD-WF-011-006-HC.jpg,1700,dash,O,None,1514,1,1,55731.5,482506.2999999523,7213,ATS,B,20
12,test,2,C,haborder.png,0,z,Thu Sep 18 2025 11:30:49 GMT-0500 (Central Daylight Time),541470.7999999523,CFD-WF-026-008-A.jpg,1700,solid,O,None,1516,9,1,58964.5,482506.2999999523,7213,ATS,B,21
13,test,2,C,haborder.png,1,m,Thu Sep 18 2025 11:30:49 GMT-0500 (Central Daylight Time),543303.5,CFD-WM-011-006-HC.jpg,1000,solid,O,m,808,12,1,60797.200000047684,482506.2999999523,7213,ATS,B,22
14,test,2,C,haborder.png,1,z,Thu Sep 18 2025 11:30:49 GMT-0500 (Central Daylight Time),545870.5,CFD-WF-026-008-A.jpg,1700,solid,O,z,843,9,1,63364.200000047684,482506.2999999523,7213,ATS,B,23
14,test,2,C,mfborder.png,0,m,Thu Sep 18 2025 11:30:49 GMT-0500 (Central Daylight Time),548601.7999999523,CFD-WM-009-009-A.jpg,1200,dash,O,None,1515,6,1,66095.5,482506.2999999523,7213,ATS,B,24
0,test,3,C,mfborder.png,0,z,Thu Sep 18 2025 11:30:49 GMT-0500 (Central Daylight Time),554549.2999999523,CFD-WF-026-008-A.jpg,1500,dash,O,None,1516,3,1,3031.7999999523163,551517.5,7213,ATS,B,1
1,test,3,C,haborder.png,1,m,Thu Sep 18 2025 11:30:49 GMT-0500 (Central Daylight Time),556534.399999857,CFD-WF-011-006-HC.jpg,1000,solid,O,m,961,12,1,5016.899999856949,551517.5,7213,ATS,B,2
2,test,3,C,mfborder.png,1,m,Thu Sep 18 2025 11:30:49 GMT-0500 (Central Daylight Time),559246.5999999046,CFD-BM-020-024-HC.jpg,1200,dash,O,m,1489,6,1,7729.099999904633,551517.5,7213,ATS,B,3
2,test,3,C,haborder.png,0,m,Thu Sep 18 2025 11:30:49 GMT-0500 (Central Daylight Time),562279.7000000477,CFD-WF-027-007-HC.jpg,1500,solid,O,None,1516,11,1,10762.200000047684,551517.5,7213,ATS,B,4
2,test,3,C,haborder.png,0,z,Thu Sep 18 2025 11:30:49 GMT-0500 (Central Daylight Time),565711.899999857,CFD-BM-037-041-A.jpg,1900,solid,O,None,1515,8,1,14194.399999856949,551517.5,7213,ATS,B,5
3,test,3,C,mfborder.png,1,m,Thu Sep 18 2025 11:30:49 GMT-0500 (Central Daylight Time),567746.5,CFD-WM-012-007-HC.jpg,1000,dash,O,m,1006,4,1,16229.0,551517.5,7213,ATS,B,6
3,test,3,C,mfborder.png,0,m,Thu Sep 18 2025 11:30:49 GMT-0500 (Central Daylight Time),571293.2999999523,CFD-WM-037-060-A.jpg,2000,dash,O,None,1515,5,1,19775.799999952316,551517.5,7213,ATS,B,7
4,test,3,C,haborder.png,1,z,Thu Sep 18 2025 11:30:49 GMT-0500 (Central Daylight Time),573876.0,CFD-WM-009-009-A.jpg,1400,solid,O,z,1153,7,1,22358.5,551517.5,7213,ATS,B,8
5,test,3,C,mfborder.png,1,m,Thu Sep 18 2025 11:30:49 GMT-0500 (Central Daylight Time),575941.5,CFD-WM-012-007-HC.jpg,1000,dash,O,m,1030,4,1,24424.0,551517.5,7213,ATS,B,9
6,test,3,C,mfborder.png,1,z,Thu Sep 18 2025 11:30:49 GMT-0500 (Central Daylight Time),578595.7000000477,CFD-WF-026-008-A.jpg,1500,dash,O,z,1123,3,1,27078.200000047684,551517.5,7213,ATS,B,10
7,test,3,C,haborder.png,1,m,Thu Sep 18 2025 11:30:49 GMT-0500 (Central Daylight Time),581324.7999999523,CFD-WF-027-007-HC.jpg,1500,solid,O,m,1202,11,1,29807.299999952316,551517.5,7213,ATS,B,11
7,test,3,C,haborder.png,0,m,Thu Sep 18 2025 11:30:49 GMT-0500 (Central Daylight Time),584456.899999857,CFD-BF-035-007-HC.jpg,1600,solid,O,None,1516,10,1,32939.39999985695,551517.5,7213,ATS,B,12
8,test,3,C,haborder.png,1,m,Thu Sep 18 2025 11:30:49 GMT-0500 (Central Daylight Time),586921.899999857,CFD-BF-035-007-HC.jpg,1600,solid,O,m,837,10,1,35404.39999985695,551517.5,7213,ATS,B,13
8,test,3,C,haborder.png,0,z,Thu Sep 18 2025 11:30:49 GMT-0500 (Central Daylight Time),589955.0,CFD-BM-041-048-A.jpg,1700,solid,O,m,1303,9,1,38437.5,551517.5,7213,ATS,B,14
8,test,3,C,mfborder.png,0,z,Thu Sep 18 2025 11:30:49 GMT-0500 (Central Daylight Time),593188.5,CFD-BF-027-013-HC.jpg,1700,dash,O,None,1516,1,1,41671.0,551517.5,7213,ATS,B,15
8,test,3,C,haborder.png,0,z,Thu Sep 18 2025 11:30:49 GMT-0500 (Central Daylight Time),596119.0,CFD-WM-009-009-A.jpg,1400,solid,O,None,1514,7,1,44601.5,551517.5,7213,ATS,B,16
8,test,3,C,mfborder.png,0,z,Thu Sep 18 2025 11:30:49 GMT-0500 (Central Daylight Time),599252.0999999046,CFD-BF-051-043-A.jpg,1600,dash,O,None,1515,2,1,47734.59999990463,551517.5,7213,ATS,B,17
9,test,3,C,mfborder.png,1,m,Thu Sep 18 2025 11:30:49 GMT-0500 (Central Daylight Time),601383.5,CFD-BM-020-024-HC.jpg,1200,dash,O,m,915,6,1,49866.0,551517.5,7213,ATS,B,18
10,test,3,C,haborder.png,1,z,Thu Sep 18 2025 11:30:49 GMT-0500 (Central Daylight Time),604133.899999857,CFD-BM-041-048-A.jpg,1700,solid,O,z,1017,9,1,52616.39999985695,551517.5,7213,ATS,B,19
10,test,3,C,mfborder.png,0,m,Thu Sep 18 2025 11:30:49 GMT-0500 (Central Daylight Time),607666.5,CFD-WM-037-060-A.jpg,2000,dash,O,None,1515,5,1,56149.0,551517.5,7213,ATS,B,20
10,test,3,C,haborder.png,0,z,Thu Sep 18 2025 11:30:49 GMT-0500 (Central Daylight Time),611098.5,CFD-BM-037-041-A.jpg,1900,solid,O,None,1515,8,1,59581.0,551517.5,7213,ATS,B,21
11,test,3,C,mfborder.png,1,z,Thu Sep 18 2025 11:30:49 GMT-0500 (Central Daylight Time),614113.5999999046,CFD-BF-027-013-HC.jpg,1700,dash,O,z,1287,1,1,62596.09999990463,551517.5,7213,ATS,B,22
12,test,3,C,haborder.png,1,m,Thu Sep 18 2025 11:30:49 GMT-0500 (Central Daylight Time),616196.2000000477,CFD-WF-011-006-HC.jpg,1000,solid,O,m,1059,12,1,64678.700000047684,551517.5,7213,ATS,B,23
12,test,3,C,mfborder.png,0,z,Thu Sep 18 2025 11:30:49 GMT-0500 (Central Daylight Time),619329.7999999523,CFD-BF-051-043-A.jpg,1600,dash,O,None,1516,2,1,67812.29999995232,551517.5,7213,ATS,B,24
0,test,4,C,haborder.png,0,m,Thu Sep 18 2025 11:30:49 GMT-0500 (Central Daylight Time),623461.899999857,CFD-WM-011-006-HC.jpg,1000,solid,O,None,1516,12,1,2532.2999999523163,620929.5999999046,7213,ATS,B,1
1,test,4,C,haborder.png,1,z,Thu Sep 18 2025 11:30:49 GMT-0500 (Central Daylight Time),625993.2000000477,CFD-BF-051-043-A.jpg,1400,solid,O,z,1105,7,1,5063.600000143051,620929.5999999046,7213,ATS,B,2
2,test,4,C,mfborder.png,1,m,Thu Sep 18 2025 11:30:49 GMT-0500 (Central Daylight Time),628475.899999857,CFD-WM-009-009-A.jpg,1200,dash,O,m,1261,6,1,7546.299999952316,620929.5999999046,7213,ATS,B,3
2,test,4,C,mfborder.png,0,z,Thu Sep 18 2025 11:30:49 GMT-0500 (Central Daylight Time),631090.7999999523,CFD-BF-035-007-HC.jpg,1500,dash,O,m,1086,3,1,10161.200000047684,620929.5999999046,7213,ATS,B,4
2,test,4,C,haborder.png,0,m,Thu Sep 18 2025 11:30:49 GMT-0500 (Central Daylight Time),634225.0999999046,CFD-BM-020-024-HC.jpg,1600,solid,O,None,1515,10,1,13295.5,620929.5999999046,7213,ATS,B,5
2,test,4,C,haborder.png,0,z,Thu Sep 18 2025 11:30:49 GMT-0500 (Central Daylight Time),637456.899999857,CFD-WF-026-008-A.jpg,1700,solid,O,None,1516,9,1,16527.299999952316,620929.5999999046,7213,ATS,B,6
3,test,4,C,mfborder.png,1,m,Thu Sep 18 2025 11:30:49 GMT-0500 (Central Daylight Time),639705.5999999046,CFD-BM-015-017-HC.jpg,1000,dash,O,m,1220,4,1,18776.0,620929.5999999046,7213,ATS,B,7
3,test,4,C,mfborder.png,0,m,Thu Sep 18 2025 11:30:49 GMT-0500 (Central Daylight Time),643239.0,CFD-BM-037-041-A.jpg,2000,dash,O,None,1517,5,1,22309.400000095367,620929.5999999046,7213,ATS,B,8
4,test,4,C,haborder.png,1,z,Thu Sep 18 2025 11:30:49 GMT-0500 (Central Daylight Time),646002.2000000477,CFD-BF-051-043-A.jpg,1400,solid,O,z,1345,7,1,25072.60000014305,620929.5999999046,7213,ATS,B,9
5,test,4,C,haborder.png,1,m,Thu Sep 18 2025 11:30:49 GMT-0500 (Central Daylight Time),648486.0,CFD-WM-011-006-HC.jpg,1500,solid,O,m,957,11,1,27556.400000095367,620929.5999999046,7213,ATS,B,10
6,test,4,C,mfborder.png,1,z,Thu Sep 18 2025 11:30:49 GMT-0500 (Central Daylight Time),651584.7000000477,CFD-WF-013-015-A.jpg,1600,dash,O,z,1466,2,1,30655.10000014305,620929.5999999046,7213,ATS,B,11
6,test,4,C,mfborder.png,0,m,Thu Sep 18 2025 11:30:49 GMT-0500 (Central Daylight Time),655118.2999999523,CFD-BM-037-041-A.jpg,2000,dash,O,None,1515,5,1,34188.700000047684,620929.5999999046,7213,ATS,B,12
7,test,4,C,mfborder.png,1,z,Thu Sep 18 2025 11:30:49 GMT-0500 (Central Daylight Time),657983.5,CFD-WF-013-015-A.jpg,1600,dash,O,z,1232,2,1,37053.90000009537,620929.5999999046,7213,ATS,B,13
7,test,4,C,mfborder.png,0,z,Thu Sep 18 2025 11:30:49 GMT-0500 (Central Daylight Time),660849.2999999523,CFD-WF-011-006-HC.jpg,1700,dash,O,m,1144,1,1,39919.700000047684,620929.5999999046,7213,ATS,B,14
8,test,4,C,mfborder.png,1,m,Thu Sep 18 2025 11:30:49 GMT-0500 (Central Daylight Time),663050.0999999046,CFD-BM-015-017-HC.jpg,1000,dash,O,m,1184,4,1,42120.5,620929.5999999046,7213,ATS,B,15
8,test,4,C,haborder.png,0,m,Thu Sep 18 2025 11:30:49 GMT-0500 (Central Daylight Time),666181.5999999046,CFD-BM-020-024-HC.jpg,1600,solid,O,None,1515,10,1,45252.0,620929.5999999046,7213,ATS,B,16
8,test,4,C,haborder.png,0,z,Thu Sep 18 2025 11:30:49 GMT-0500 (Central Daylight Time),669412.399999857,CFD-WF-026-008-A.jpg,1700,solid,O,None,1513,9,1,48482.799999952316,620929.5999999046,7213,ATS,B,17
8,test,4,C,mfborder.png,0,z,Thu Sep 18 2025 11:30:49 GMT-0500 (Central Daylight Time),672078.2999999523,CFD-BF-035-007-HC.jpg,1500,dash,O,m,1141,3,1,51148.700000047684,620929.5999999046,7213,ATS,B,18
8,test,4,C,mfborder.png,0,m,Thu Sep 18 2025 11:30:49 GMT-0500 (Central Daylight Time),674810.399999857,CFD-WM-009-009-A.jpg,1200,dash,O,None,1514,6,1,53880.799999952316,620929.5999999046,7213,ATS,B,19
9,test,4,C,haborder.png,1,z,Thu Sep 18 2025 11:30:49 GMT-0500 (Central Daylight Time),678226.2999999523,CFD-BF-050-012-A.jpg,1900,solid,O,z,1471,8,1,57296.700000047684,620929.5999999046,7213,ATS,B,20
9,test,4,C,mfborder.png,0,z,Thu Sep 18 2025 11:30:49 GMT-0500 (Central Daylight Time),681225.0,CFD-WF-011-006-HC.jpg,1700,dash,O,m,1273,1,1,60295.40000009537,620929.5999999046,7213,ATS,B,21
9,test,4,C,haborder.png,0,m,Thu Sep 18 2025 11:30:49 GMT-0500 (Central Daylight Time),683757.5999999046,CFD-WM-011-006-HC.jpg,1000,solid,O,None,1516,12,1,62828.0,620929.5999999046,7213,ATS,B,22
10,test,4,C,haborder.png,1,m,Thu Sep 18 2025 11:30:49 GMT-0500 (Central Daylight Time),686223.0999999046,CFD-WM-011-006-HC.jpg,1500,solid,O,m,932,11,1,65293.5,620929.5999999046,7213,ATS,B,23
10,test,4,C,haborder.png,0,z,Thu Sep 18 2025 11:30:49 GMT-0500 (Central Daylight Time),689655.899999857,CFD-BF-050-012-A.jpg,1900,solid,O,None,1515,8,1,68726.29999995232,620929.5999999046,7213,ATS,B,24
