Q,Q1,Q2,Q3,Q4,acc_sum,block,block_c,correct,correct_response,datetime,endtime,project,response,response_time,row_sel,session_number,squiggle1,squiggle1x,squiggle1y,squiggle2,squiggle2x,squiggle2y,squiggle3,squiggle3x,squiggle3y,squiggle4,squiggle4x,squiggle4y,start_end,starttime,subject_id,target_congruent,task,task_vers,testsquiggle,testsquigglex,testsquiggley,time_practice_delay,time_practice_fixation,time_practice_stimuli,time_practice_study,time_test_delay,time_test_fixation,time_test_stimuli,time_test_study,trial
1,1,0,0,0,0,prac,1,0,z,Tue Mar 31 2026 09:15:18 GMT-0500 (Central Daylight Time),112594.69999999925,I,None,2013,1,2,116.bmp,-120,-120,117.bmp,120,-120,118.bmp,-120,120,119.bmp,120,120,10822.199999999255,101772.5,8087,yes,SM,A,116.bmp,-120,-120,104230,98204,106246,100216,,,,,1
3,0,0,1,0,1,prac,1,1,m,Tue Mar 31 2026 09:15:18 GMT-0500 (Central Daylight Time),122660.09999999776,I,m,1235,2,2,120.bmp,-120,-120,121.bmp,120,-120,122.bmp,-120,120,123.bmp,120,120,10059.89999999851,112600.19999999925,8087,no,SM,A,123.bmp,-120,120,115059,109031,117075,111043,,,,,2
4,0,0,0,1,2,prac,1,1,m,Tue Mar 31 2026 09:15:18 GMT-0500 (Central Daylight Time),133008.59999999776,I,m,1532,3,2,124.bmp,-120,-120,125.bmp,120,-120,126.bmp,-120,120,127.bmp,120,120,10344.800000000745,122663.79999999702,8087,no,SM,A,124.bmp,120,120,125122,119095,127140,121109,,,,,3
2,0,1,0,0,2,prac,1,0,z,Tue Mar 31 2026 09:15:18 GMT-0500 (Central Daylight Time),143353.8999999985,I,m,1531,4,2,128.bmp,-120,-120,129.bmp,120,-120,130.bmp,-120,120,131.bmp,120,120,10340.699999999255,133013.19999999925,8087,yes,SM,A,129.bmp,120,-120,135471,129444,137484,131456,,,,,4
3,0,0,1,0,3,prac,1,1,z,Tue Mar 31 2026 09:15:18 GMT-0500 (Central Daylight Time),153140.59999999776,I,z,981,5,2,132.bmp,-120,-120,133.bmp,120,-120,134.bmp,-120,120,135.bmp,120,120,9780.300000000745,143360.29999999702,8087,yes,SM,A,134.bmp,-120,120,145817,139792,147835,141804,,,,,5
1,1,0,0,0,4,prac,1,1,m,Tue Mar 31 2026 09:15:18 GMT-0500 (Central Daylight Time),163314.09999999776,I,m,1354,6,2,136.bmp,-120,-120,137.bmp,120,-120,138.bmp,-120,120,139.bmp,120,120,10171.099999997765,153143.0,8087,no,SM,A,139.bmp,-120,-120,155598,149574,157613,151582,,,,,6
2,0,1,0,0,5,prac,1,1,m,Tue Mar 31 2026 09:15:18 GMT-0500 (Central Daylight Time),173112.29999999702,I,m,967,7,2,140.bmp,-120,-120,141.bmp,120,-120,142.bmp,-120,120,143.bmp,120,120,9793.099999997765,163319.19999999925,8087,no,SM,A,140.bmp,120,-120,165777,159750,167793,161762,,,,,7
4,0,0,0,1,5,prac,1,0,z,Tue Mar 31 2026 09:15:18 GMT-0500 (Central Daylight Time),183525.59999999776,I,m,1593,8,2,144.bmp,-120,-120,145.bmp,120,-120,146.bmp,-120,120,147.bmp,120,120,10409.099999997765,173116.5,8087,yes,SM,A,147.bmp,120,120,175574,169548,177591,171558,,,,,8
4,0,0,0,1,1,test,1,1,m,Tue Mar 31 2026 09:15:18 GMT-0500 (Central Daylight Time),198703.69999999925,I,m,1741,1,2,148.bmp,-120,-120,149.bmp,120,-120,150.bmp,-120,120,143.bmp,120,120,9780.300000000745,188923.3999999985,8087,no,SM,A,150.bmp,120,120,175574,169548,177591,171558,191370.0,185355.0,193386.0,187369.0,1
2,0,1,0,0,2,test,1,1,m,Tue Mar 31 2026 09:15:18 GMT-0500 (Central Daylight Time),207800.0,I,m,1050,2,2,101.bmp,-120,-120,102.bmp,120,-120,103.bmp,-120,120,104.bmp,120,120,9091.900000002235,198708.09999999776,8087,no,SM,A,103.bmp,120,-120,175574,169548,177591,171558,201164.0,195139.0,203181.0,197149.0,2
1,1,0,0,0,3,test,1,1,z,Tue Mar 31 2026 09:15:18 GMT-0500 (Central Daylight Time),217030.8999999985,I,z,1182,3,2,105.bmp,-120,-120,106.bmp,120,-120,107.bmp,-120,120,108.bmp,120,120,9227.300000000745,207803.59999999776,8087,yes,SM,A,105.bmp,-120,-120,175574,169548,177591,171558,210263.0,204235.0,212265.0,206249.0,3
3,0,0,1,0,4,test,1,1,m,Tue Mar 31 2026 09:15:18 GMT-0500 (Central Daylight Time),226495.59999999776,I,m,1424,4,2,109.bmp,-120,-120,110.bmp,120,-120,111.bmp,-120,120,112.bmp,120,120,9461.599999997765,217034.0,8087,no,SM,A,109.bmp,-120,120,175574,169548,177591,171558,219492.0,213466.0,221494.0,215478.0,4
2,0,1,0,0,5,test,1,1,z,Tue Mar 31 2026 09:15:18 GMT-0500 (Central Daylight Time),235741.5,I,z,1202,5,2,113.bmp,-120,-120,114.bmp,120,-120,115.bmp,-120,120,116.bmp,120,120,9239.60000000149,226501.8999999985,8087,yes,SM,A,114.bmp,120,-120,175574,169548,177591,171558,228943.0,222933.0,230957.0,224941.0,5
3,0,0,1,0,5,test,1,0,z,Tue Mar 31 2026 09:15:18 GMT-0500 (Central Daylight Time),245804.5,I,None,2015,6,2,117.bmp,-120,-120,118.bmp,120,-120,119.bmp,-120,120,120.bmp,120,120,10058.5,235746.0,8087,yes,SM,A,119.bmp,-120,120,175574,169548,177591,171558,238205.0,232177.0,240221.0,234189.0,6
4,0,0,0,1,5,test,1,0,z,Tue Mar 31 2026 09:15:18 GMT-0500 (Central Daylight Time),255385.3999999985,I,m,1523,7,2,121.bmp,-120,-120,122.bmp,120,-120,123.bmp,-120,120,124.bmp,120,120,9577.10000000149,245808.29999999702,8087,yes,SM,A,124.bmp,120,120,175574,169548,177591,171558,248268.0,242240.0,250284.0,244253.0,7
2,0,1,0,0,6,test,1,1,m,Tue Mar 31 2026 09:15:18 GMT-0500 (Central Daylight Time),264365.09999999776,I,m,927,8,2,125.bmp,-120,-120,126.bmp,120,-120,127.bmp,-120,120,128.bmp,120,120,8975.599999997765,255389.5,8087,no,SM,A,125.bmp,120,-120,175574,169548,177591,171558,257847.0,251821.0,259864.0,253833.0,8
3,0,0,1,0,7,test,1,1,m,Tue Mar 31 2026 09:15:18 GMT-0500 (Central Daylight Time),273812.69999999925,I,m,1395,9,2,129.bmp,-120,-120,130.bmp,120,-120,131.bmp,-120,120,132.bmp,120,120,9443.699999999255,264369.0,8087,no,SM,A,130.bmp,-120,120,175574,169548,177591,171558,266828.0,260800.0,268844.0,262813.0,9
4,0,0,0,1,8,test,1,1,z,Tue Mar 31 2026 09:15:18 GMT-0500 (Central Daylight Time),283458.09999999776,I,z,1596,10,2,137.bmp,-120,-120,138.bmp,120,-120,139.bmp,-120,120,140.bmp,120,120,9642.5,273815.59999999776,8087,yes,SM,A,140.bmp,120,120,175574,169548,177591,171558,276275.0,270247.0,278291.0,272260.0,10
3,0,0,1,0,9,test,1,1,z,Tue Mar 31 2026 09:15:18 GMT-0500 (Central Daylight Time),292641.3999999985,I,z,1134,11,2,133.bmp,-120,-120,134.bmp,120,-120,135.bmp,-120,120,136.bmp,120,120,9180.0,283461.3999999985,8087,yes,SM,A,135.bmp,-120,120,175574,169548,177591,171558,285921.0,279893.0,287922.0,281907.0,11
2,0,1,0,0,10,test,1,1,m,Tue Mar 31 2026 09:15:18 GMT-0500 (Central Daylight Time),301905.0,I,m,1201,12,2,141.bmp,-120,-120,142.bmp,120,-120,143.bmp,-120,120,144.bmp,120,120,9259.400000002235,292645.59999999776,8087,no,SM,A,141.bmp,120,-120,175574,169548,177591,171558,295104.0,289077.0,297119.0,291091.0,12
3,0,0,1,0,11,test,1,1,m,Tue Mar 31 2026 09:15:18 GMT-0500 (Central Daylight Time),310933.69999999925,I,m,977,13,2,145.bmp,-120,-120,146.bmp,120,-120,147.bmp,-120,120,148.bmp,120,120,9024.300000000745,301909.3999999985,8087,no,SM,A,146.bmp,-120,120,175574,169548,177591,171558,304367.0,298341.0,306383.0,300354.0,13
1,1,0,0,0,12,test,1,1,z,Tue Mar 31 2026 09:15:18 GMT-0500 (Central Daylight Time),320181.69999999925,I,z,1185,14,2,149.bmp,-120,-120,150.bmp,120,-120,104.bmp,-120,120,101.bmp,120,120,9244.900000002235,310936.799999997,8087,yes,SM,A,149.bmp,-120,-120,175574,169548,177591,171558,313398.0,307368.0,315413.0,309381.0,14
4,0,0,0,1,13,test,1,1,m,Tue Mar 31 2026 09:15:18 GMT-0500 (Central Daylight Time),329177.3999999985,I,m,939,15,2,110.bmp,-120,-120,111.bmp,120,-120,112.bmp,-120,120,113.bmp,120,120,8992.10000000149,320185.299999997,8087,no,SM,A,111.bmp,120,120,175574,169548,177591,171558,322644.0,316617.0,324660.0,318629.0,15
1,1,0,0,0,14,test,1,1,m,Tue Mar 31 2026 09:15:18 GMT-0500 (Central Daylight Time),338474.299999997,I,m,1238,16,2,102.bmp,-120,-120,103.bmp,120,-120,104.bmp,-120,120,105.bmp,120,120,9294.39999999851,329179.8999999985,8087,no,SM,A,105.bmp,-120,-120,175574,169548,177591,171558,331640.0,325611.0,333657.0,327626.0,16
3,0,0,1,0,14,test,1,0,m,Tue Mar 31 2026 09:15:18 GMT-0500 (Central Daylight Time),348538.0,I,None,2016,17,2,122.bmp,-120,-120,123.bmp,120,-120,124.bmp,-120,120,125.bmp,120,120,10060.400000002235,338477.59999999776,8087,no,SM,A,122.bmp,-120,120,175574,169548,177591,171558,340937.0,334909.0,342953.0,336922.0,17
1,1,0,0,0,15,test,1,1,z,Tue Mar 31 2026 09:15:18 GMT-0500 (Central Daylight Time),357951.799999997,I,z,1358,18,2,106.bmp,-120,-120,107.bmp,120,-120,108.bmp,-120,120,109.bmp,120,120,9409.199999999255,348542.59999999776,8087,yes,SM,A,106.bmp,-120,-120,175574,169548,177591,171558,351001.0,344974.0,353017.0,346986.0,18
2,0,1,0,0,16,test,1,1,z,Tue Mar 31 2026 09:15:18 GMT-0500 (Central Daylight Time),366899.3999999985,I,z,891,19,2,126.bmp,-120,-120,127.bmp,120,-120,128.bmp,-120,120,129.bmp,120,120,8939.39999999851,357960.0,8087,yes,SM,A,127.bmp,120,-120,175574,169548,177591,171558,360414.0,354391.0,362429.0,356400.0,19
3,0,0,1,0,17,test,1,1,z,Tue Mar 31 2026 09:15:18 GMT-0500 (Central Daylight Time),376212.8999999985,I,z,1252,20,2,130.bmp,-120,-120,131.bmp,120,-120,132.bmp,-120,120,133.bmp,120,120,9309.199999999255,366903.69999999925,8087,yes,SM,A,132.bmp,-120,120,175574,169548,177591,171558,369363.0,363335.0,371379.0,365346.0,20
1,1,0,0,0,17,test,1,0,m,Tue Mar 31 2026 09:15:18 GMT-0500 (Central Daylight Time),386258.59999999776,I,None,2013,21,2,114.bmp,-120,-120,115.bmp,120,-120,116.bmp,-120,120,117.bmp,120,120,10042.099999997765,376216.5,8087,no,SM,A,116.bmp,-120,-120,175574,169548,177591,171558,378676.0,372648.0,380677.0,374662.0,21
4,0,0,0,1,18,test,1,1,z,Tue Mar 31 2026 09:15:18 GMT-0500 (Central Daylight Time),395855.8999999985,I,z,1548,22,2,118.bmp,-120,-120,119.bmp,120,-120,120.bmp,-120,120,121.bmp,120,120,9595.10000000149,386260.799999997,8087,yes,SM,A,121.bmp,120,120,175574,169548,177591,171558,388723.0,382692.0,390739.0,384709.0,22
1,1,0,0,0,19,test,1,1,m,Tue Mar 31 2026 09:15:18 GMT-0500 (Central Daylight Time),404804.299999997,I,m,886,23,2,134.bmp,-120,-120,135.bmp,120,-120,136.bmp,-120,120,137.bmp,120,120,8946.5,395857.799999997,8087,no,SM,A,137.bmp,-120,-120,175574,169548,177591,171558,398320.0,392289.0,400337.0,394304.0,23
2,0,1,0,0,20,test,1,1,z,Tue Mar 31 2026 09:15:18 GMT-0500 (Central Daylight Time),414184.0,I,z,1325,24,2,142.bmp,-120,-120,143.bmp,120,-120,144.bmp,-120,120,145.bmp,120,120,9375.5,404808.5,8087,yes,SM,A,143.bmp,120,-120,175574,169548,177591,171558,407268.0,401240.0,409283.0,403252.0,24
4,0,0,0,1,20,test,1,0,m,Tue Mar 31 2026 09:15:18 GMT-0500 (Central Daylight Time),424232.19999999925,I,None,2016,25,2,146.bmp,-120,-120,147.bmp,120,-120,148.bmp,-120,120,149.bmp,120,120,10045.199999999255,414187.0,8087,no,SM,A,148.bmp,120,120,175574,169548,177591,171558,416631.0,410618.0,418647.0,412630.0,25
1,1,0,0,0,21,test,1,1,z,Tue Mar 31 2026 09:15:18 GMT-0500 (Central Daylight Time),433428.299999997,I,z,1146,26,2,138.bmp,-120,-120,139.bmp,120,-120,140.bmp,-120,120,141.bmp,120,120,9191.5,424236.799999997,8087,yes,SM,A,138.bmp,-120,-120,175574,169548,177591,171558,426694.0,420668.0,428710.0,422680.0,26
4,0,0,0,1,22,test,1,1,z,Tue Mar 31 2026 09:15:18 GMT-0500 (Central Daylight Time),442408.69999999925,I,z,949,27,2,150.bmp,-120,-120,111.bmp,120,-120,101.bmp,-120,120,102.bmp,120,120,8977.400000002235,433431.299999997,8087,yes,SM,A,102.bmp,120,120,175574,169548,177591,171558,435876.0,429862.0,437890.0,431874.0,27
3,0,0,1,0,23,test,1,1,m,Tue Mar 31 2026 09:15:18 GMT-0500 (Central Daylight Time),451405.19999999925,I,m,936,28,2,103.bmp,-120,-120,104.bmp,120,-120,105.bmp,-120,120,106.bmp,120,120,8992.900000002235,442412.299999997,8087,no,SM,A,103.bmp,-120,120,175574,169548,177591,171558,444871.0,438844.0,446886.0,440857.0,28
2,0,1,0,0,23,test,1,0,z,Tue Mar 31 2026 09:15:18 GMT-0500 (Central Daylight Time),460903.299999997,I,m,1452,29,2,107.bmp,-120,-120,108.bmp,120,-120,109.bmp,-120,120,110.bmp,120,120,9493.0,451410.299999997,8087,yes,SM,A,108.bmp,120,-120,175574,169548,177591,171558,453871.0,447842.0,455882.0,449854.0,29
3,0,0,1,0,24,test,1,1,z,Tue Mar 31 2026 09:15:18 GMT-0500 (Central Daylight Time),469966.3999999985,I,z,1001,30,2,111.bmp,-120,-120,112.bmp,120,-120,113.bmp,-120,120,114.bmp,120,120,9060.300000000745,460906.09999999776,8087,yes,SM,A,113.bmp,-120,120,175574,169548,177591,171558,463365.0,457337.0,465381.0,459352.0,30
1,1,0,0,0,25,test,1,1,z,Tue Mar 31 2026 09:15:18 GMT-0500 (Central Daylight Time),479396.299999997,I,z,1378,31,2,115.bmp,-120,-120,116.bmp,120,-120,117.bmp,-120,120,118.bmp,120,120,9426.699999999255,469969.59999999776,8087,yes,SM,A,115.bmp,-120,-120,175574,169548,177591,171558,472429.0,466401.0,474445.0,468414.0,31
2,0,1,0,0,26,test,1,1,m,Tue Mar 31 2026 09:15:18 GMT-0500 (Central Daylight Time),488344.09999999776,I,m,892,32,2,119.bmp,-120,-120,120.bmp,120,-120,121.bmp,-120,120,122.bmp,120,120,8941.0,479403.09999999776,8087,no,SM,A,119.bmp,120,-120,175574,169548,177591,171558,481860.0,475834.0,483875.0,477845.0,32
4,0,0,0,1,27,test,1,1,z,Tue Mar 31 2026 09:15:18 GMT-0500 (Central Daylight Time),497341.8999999985,I,z,936,33,2,131.bmp,-120,-120,132.bmp,120,-120,133.bmp,-120,120,134.bmp,120,120,8994.89999999851,488347.0,8087,yes,SM,A,134.bmp,120,120,175574,169548,177591,171558,490808.0,484778.0,492823.0,486792.0,33
2,0,1,0,0,28,test,1,1,z,Tue Mar 31 2026 09:15:18 GMT-0500 (Central Daylight Time),506821.09999999776,I,z,1425,34,2,123.bmp,-120,-120,124.bmp,120,-120,125.bmp,-120,120,126.bmp,120,120,9476.0,497345.09999999776,8087,yes,SM,A,124.bmp,120,-120,175574,169548,177591,171558,499805.0,493776.0,501821.0,495789.0,34
4,0,0,0,1,29,test,1,1,m,Tue Mar 31 2026 09:15:18 GMT-0500 (Central Daylight Time),516036.799999997,I,m,1163,35,2,127.bmp,-120,-120,128.bmp,120,-120,129.bmp,-120,120,130.bmp,120,120,9213.39999999851,506823.3999999985,8087,no,SM,A,129.bmp,120,120,175574,169548,177591,171558,509283.0,503255.0,511301.0,505268.0,35
3,0,0,1,0,30,test,1,1,m,Tue Mar 31 2026 09:15:18 GMT-0500 (Central Daylight Time),525049.3999999985,I,m,959,36,2,135.bmp,-120,-120,136.bmp,120,-120,137.bmp,-120,120,138.bmp,120,120,9009.300000000745,516040.09999999776,8087,no,SM,A,135.bmp,-120,120,175574,169548,177591,171558,518499.0,512471.0,520513.0,514483.0,36
1,1,0,0,0,31,test,1,1,m,Tue Mar 31 2026 09:15:18 GMT-0500 (Central Daylight Time),534563.5,I,m,1467,37,2,139.bmp,-120,-120,140.bmp,120,-120,141.bmp,-120,120,142.bmp,120,120,9510.70000000298,525052.799999997,8087,no,SM,A,140.bmp,-120,-120,175574,169548,177591,171558,527511.0,521484.0,529527.0,523498.0,37
2,0,1,0,0,32,test,1,1,m,Tue Mar 31 2026 09:15:18 GMT-0500 (Central Daylight Time),544059.0,I,m,1446,38,2,143.bmp,-120,-120,144.bmp,120,-120,145.bmp,-120,120,146.bmp,120,120,9491.5,534567.5,8087,no,SM,A,145.bmp,120,-120,175574,169548,177591,171558,537027.0,530999.0,539042.0,533010.0,38
4,0,0,0,1,33,test,1,1,z,Tue Mar 31 2026 09:15:18 GMT-0500 (Central Daylight Time),553057.0999999978,I,z,948,39,2,147.bmp,-120,-120,148.bmp,120,-120,149.bmp,-120,120,150.bmp,120,120,8994.5,544062.5999999978,8087,yes,SM,A,150.bmp,120,120,175574,169548,177591,171558,546522.0,540494.0,548539.0,542507.0,39
3,0,0,1,0,34,test,1,1,m,Tue Mar 31 2026 09:15:18 GMT-0500 (Central Daylight Time),562337.5999999978,I,m,1224,40,2,104.bmp,-120,-120,105.bmp,120,-120,106.bmp,-120,120,107.bmp,120,120,9276.300000000745,553061.299999997,8087,no,SM,A,105.bmp,-120,120,175574,169548,177591,171558,555521.0,549492.0,557536.0,551506.0,40
1,1,0,0,0,35,test,1,1,z,Tue Mar 31 2026 09:15:18 GMT-0500 (Central Daylight Time),571468.1999999993,I,z,1070,41,2,108.bmp,-120,-120,109.bmp,120,-120,110.bmp,-120,120,111.bmp,120,120,9127.10000000149,562341.0999999978,8087,yes,SM,A,108.bmp,-120,-120,175574,169548,177591,171558,564800.0,558772.0,566817.0,560786.0,41
4,0,0,0,1,36,test,1,1,z,Tue Mar 31 2026 09:15:18 GMT-0500 (Central Daylight Time),580430.5999999978,I,z,916,42,2,112.bmp,-120,-120,113.bmp,120,-120,114.bmp,-120,120,115.bmp,120,120,8959.699999999255,571470.8999999985,8087,yes,SM,A,115.bmp,120,120,175574,169548,177591,171558,573928.0,567902.0,575931.0,569916.0,42
1,1,0,0,0,37,test,1,1,z,Tue Mar 31 2026 09:15:18 GMT-0500 (Central Daylight Time),590028.3999999985,I,z,1545,43,2,116.bmp,-120,-120,117.bmp,120,-120,118.bmp,-120,120,119.bmp,120,120,9594.199999999255,580434.1999999993,8087,yes,SM,A,116.bmp,-120,-120,175574,169548,177591,171558,582894.0,576866.0,584911.0,578879.0,43
4,0,0,0,1,38,test,1,1,m,Tue Mar 31 2026 09:15:18 GMT-0500 (Central Daylight Time),599258.3999999985,I,m,1174,44,2,104.bmp,-120,-120,101.bmp,120,-120,102.bmp,-120,120,103.bmp,120,120,9227.199999999255,590031.1999999993,8087,no,SM,A,104.bmp,120,120,175574,169548,177591,171558,592493.0,586462.0,594506.0,588475.0,44
1,1,0,0,0,39,test,1,1,m,Tue Mar 31 2026 09:15:18 GMT-0500 (Central Daylight Time),608557.1999999993,I,m,1239,45,2,128.bmp,-120,-120,129.bmp,120,-120,130.bmp,-120,120,131.bmp,120,120,9296.900000002235,599260.299999997,8087,no,SM,A,131.bmp,-120,-120,175574,169548,177591,171558,601722.0,595692.0,603737.0,597712.0,45
1,1,0,0,0,40,test,1,1,m,Tue Mar 31 2026 09:15:18 GMT-0500 (Central Daylight Time),617553.5,I,m,949,46,2,120.bmp,-120,-120,121.bmp,120,-120,122.bmp,-120,120,123.bmp,120,120,8993.300000000745,608560.1999999993,8087,no,SM,A,121.bmp,-120,-120,175574,169548,177591,171558,611018.0,604991.0,613035.0,607003.0,46
3,0,0,1,0,41,test,1,1,z,Tue Mar 31 2026 09:15:18 GMT-0500 (Central Daylight Time),627266.299999997,I,z,1681,47,2,124.bmp,-120,-120,125.bmp,120,-120,126.bmp,-120,120,127.bmp,120,120,9708.199999999255,617558.0999999978,8087,yes,SM,A,126.bmp,-120,120,175574,169548,177591,171558,620014.0,613989.0,622016.0,616000.0,47
3,0,0,1,0,42,test,1,1,z,Tue Mar 31 2026 09:15:18 GMT-0500 (Central Daylight Time),636131.1999999993,I,z,817,48,2,140.bmp,-120,-120,141.bmp,120,-120,142.bmp,-120,120,143.bmp,120,120,8861.5,627269.6999999993,8087,yes,SM,A,142.bmp,-120,120,175574,169548,177591,171558,629731.0,623701.0,631745.0,625714.0,48
2,0,1,0,0,43,test,1,1,z,Tue Mar 31 2026 09:15:18 GMT-0500 (Central Daylight Time),645595.299999997,I,z,1406,49,2,136.bmp,-120,-120,137.bmp,120,-120,138.bmp,-120,120,139.bmp,120,120,9461.199999999255,636134.0999999978,8087,yes,SM,A,137.bmp,120,-120,175574,169548,177591,171558,638594.0,632565.0,640609.0,634578.0,49
3,0,0,1,0,44,test,1,1,m,Tue Mar 31 2026 09:15:18 GMT-0500 (Central Daylight Time),655241.5,I,m,1590,50,2,132.bmp,-120,-120,133.bmp,120,-120,134.bmp,-120,120,135.bmp,120,120,9643.60000000149,645597.8999999985,8087,no,SM,A,132.bmp,-120,120,175574,169548,177591,171558,648058.0,642029.0,650074.0,644042.0,50
2,0,1,0,0,45,test,1,1,z,Tue Mar 31 2026 09:15:18 GMT-0500 (Central Daylight Time),664722.1999999993,I,z,1432,51,2,144.bmp,-120,-120,145.bmp,120,-120,146.bmp,-120,120,147.bmp,120,120,9478.10000000149,655244.0999999978,8087,yes,SM,A,145.bmp,120,-120,175574,169548,177591,171558,657704.0,651675.0,659720.0,653689.0,51
4,0,0,0,1,45,test,1,0,m,Tue Mar 31 2026 09:15:18 GMT-0500 (Central Daylight Time),673854.799999997,I,z,1071,52,2,148.bmp,-120,-120,149.bmp,120,-120,150.bmp,-120,120,131.bmp,120,120,9128.39999999851,664726.3999999985,8087,no,SM,A,148.bmp,120,120,175574,169548,177591,171558,667183.0,661158.0,669201.0,663167.0,52
3,0,0,1,0,46,test,1,1,z,Tue Mar 31 2026 09:15:18 GMT-0500 (Central Daylight Time),683050.5999999978,I,z,1150,53,2,101.bmp,-120,-120,102.bmp,120,-120,103.bmp,-120,120,104.bmp,120,120,9192.800000000745,673857.799999997,8087,yes,SM,A,103.bmp,-120,120,175574,169548,177591,171558,676314.0,670289.0,678331.0,672299.0,53
1,1,0,0,0,47,test,1,1,m,Tue Mar 31 2026 09:15:18 GMT-0500 (Central Daylight Time),692179.0,I,m,1082,54,2,105.bmp,-120,-120,106.bmp,120,-120,107.bmp,-120,120,108.bmp,120,120,9125.400000002235,683053.5999999978,8087,no,SM,A,107.bmp,-120,-120,175574,169548,177591,171558,685512.0,679485.0,687527.0,681497.0,54
4,0,0,0,1,48,test,1,1,z,Tue Mar 31 2026 09:15:18 GMT-0500 (Central Daylight Time),701309.1999999993,I,z,1084,55,2,109.bmp,-120,-120,110.bmp,120,-120,111.bmp,-120,120,112.bmp,120,120,9126.699999999255,692182.5,8087,yes,SM,A,112.bmp,120,120,175574,169548,177591,171558,694642.0,688614.0,696643.0,690627.0,55
2,0,1,0,0,49,test,1,1,m,Tue Mar 31 2026 09:15:18 GMT-0500 (Central Daylight Time),710639.6999999993,I,m,1275,56,2,113.bmp,-120,-120,114.bmp,120,-120,115.bmp,-120,120,116.bmp,120,120,9325.60000000149,701314.0999999978,8087,no,SM,A,113.bmp,120,-120,175574,169548,177591,171558,703773.0,697745.0,705788.0,699757.0,56
4,0,0,0,1,50,test,1,1,m,Tue Mar 31 2026 09:15:18 GMT-0500 (Central Daylight Time),719720.3999999985,I,m,1025,57,2,117.bmp,-120,-120,118.bmp,120,-120,119.bmp,-120,120,120.bmp,120,120,9074.60000000149,710645.799999997,8087,no,SM,A,118.bmp,120,120,175574,169548,177591,171558,713103.0,707077.0,715119.0,709087.0,57
3,0,0,1,0,51,test,1,1,z,Tue Mar 31 2026 09:15:18 GMT-0500 (Central Daylight Time),729116.5,I,z,1334,58,2,121.bmp,-120,-120,122.bmp,120,-120,123.bmp,-120,120,124.bmp,120,120,9389.800000000745,719726.6999999993,8087,yes,SM,A,123.bmp,-120,120,175574,169548,177591,171558,722183.0,716158.0,724200.0,718168.0,58
2,0,1,0,0,52,test,1,1,m,Tue Mar 31 2026 09:15:18 GMT-0500 (Central Daylight Time),738047.799999997,I,m,875,59,2,125.bmp,-120,-120,126.bmp,120,-120,127.bmp,-120,120,128.bmp,120,120,8928.79999999702,729119.0,8087,no,SM,A,128.bmp,120,-120,175574,169548,177591,171558,731580.0,725550.0,733597.0,727565.0,59
1,1,0,0,0,53,test,1,1,z,Tue Mar 31 2026 09:15:18 GMT-0500 (Central Daylight Time),747194.5999999978,I,z,1087,60,2,129.bmp,-120,-120,130.bmp,120,-120,131.bmp,-120,120,132.bmp,120,120,9143.89999999851,738050.6999999993,8087,yes,SM,A,129.bmp,-120,-120,175574,169548,177591,171558,740510.0,734482.0,742528.0,736495.0,60
2,0,1,0,0,53,test,1,0,z,Tue Mar 31 2026 09:15:18 GMT-0500 (Central Daylight Time),757256.8999999985,I,None,2015,61,2,133.bmp,-120,-120,134.bmp,120,-120,135.bmp,-120,120,136.bmp,120,120,10057.699999999255,747199.1999999993,8087,yes,SM,A,134.bmp,120,-120,175574,169548,177591,171558,749657.0,743630.0,751673.0,745642.0,61
4,0,0,0,1,54,test,1,1,z,Tue Mar 31 2026 09:15:18 GMT-0500 (Central Daylight Time),767005.0999999978,I,z,1693,62,2,141.bmp,-120,-120,142.bmp,120,-120,143.bmp,-120,120,144.bmp,120,120,9746.300000000745,757258.799999997,8087,yes,SM,A,144.bmp,120,120,175574,169548,177591,171558,759722.0,753690.0,761739.0,755706.0,62
1,1,0,0,0,55,test,1,1,m,Tue Mar 31 2026 09:15:18 GMT-0500 (Central Daylight Time),776418.8999999985,I,m,1363,63,2,145.bmp,-120,-120,146.bmp,120,-120,147.bmp,-120,120,148.bmp,120,120,9410.10000000149,767008.799999997,8087,no,SM,A,145.bmp,-120,120,175574,169548,177591,171558,769469.0,763440.0,771485.0,765453.0,63
2,0,1,0,0,56,test,1,1,z,Tue Mar 31 2026 09:15:18 GMT-0500 (Central Daylight Time),785483.3999999985,I,z,1017,64,2,149.bmp,-120,-120,150.bmp,120,-120,112.bmp,-120,120,101.bmp,120,120,9061.300000000745,776422.0999999978,8087,yes,SM,A,150.bmp,120,-120,175574,169548,177591,171558,778881.0,772853.0,780897.0,774866.0,64
4,0,0,0,1,57,test,1,1,m,Tue Mar 31 2026 09:15:18 GMT-0500 (Central Daylight Time),794547.8999999985,I,m,1006,65,2,102.bmp,-120,-120,103.bmp,120,-120,104.bmp,-120,120,105.bmp,120,120,9060.699999999255,785487.1999999993,8087,no,SM,A,104.bmp,120,120,175574,169548,177591,171558,787946.0,781919.0,789962.0,783931.0,65
3,0,0,1,0,58,test,1,1,m,Tue Mar 31 2026 09:15:18 GMT-0500 (Central Daylight Time),803659.3999999985,I,m,1064,66,2,106.bmp,-120,-120,107.bmp,120,-120,108.bmp,-120,120,109.bmp,120,120,9108.89999999851,794550.5,8087,no,SM,A,109.bmp,-120,120,175574,169548,177591,171558,797010.0,790982.0,799025.0,792994.0,66
2,0,1,0,0,59,test,1,1,m,Tue Mar 31 2026 09:15:18 GMT-0500 (Central Daylight Time),812807.5,I,m,1085,67,2,137.bmp,-120,-120,138.bmp,120,-120,139.bmp,-120,120,140.bmp,120,120,9144.70000000298,803662.799999997,8087,no,SM,A,139.bmp,120,-120,175574,169548,177591,171558,806124.0,800094.0,808140.0,802108.0,67
3,0,0,1,0,60,test,1,1,z,Tue Mar 31 2026 09:15:18 GMT-0500 (Central Daylight Time),821955.5,I,z,1089,68,2,110.bmp,-120,-120,111.bmp,120,-120,112.bmp,-120,120,113.bmp,120,120,9144.0,812811.5,8087,yes,SM,A,112.bmp,-120,120,175574,169548,177591,171558,815269.0,809243.0,817286.0,811255.0,68
1,1,0,0,0,61,test,1,1,m,Tue Mar 31 2026 09:15:18 GMT-0500 (Central Daylight Time),830834.299999997,I,m,838,69,2,114.bmp,-120,-120,115.bmp,120,-120,116.bmp,-120,120,117.bmp,120,120,8875.099999997765,821959.1999999993,8087,no,SM,A,115.bmp,-120,-120,175574,169548,177591,171558,824416.0,818391.0,826417.0,820402.0,69
2,0,1,0,0,62,test,1,1,m,Tue Mar 31 2026 09:15:18 GMT-0500 (Central Daylight Time),839898.0999999978,I,m,1022,70,2,118.bmp,-120,-120,119.bmp,120,-120,120.bmp,-120,120,121.bmp,120,120,9059.300000000745,830838.799999997,8087,no,SM,A,120.bmp,120,-120,175574,169548,177591,171558,833286.0,827270.0,835297.0,829282.0,70
4,0,0,0,1,63,test,1,1,z,Tue Mar 31 2026 09:15:18 GMT-0500 (Central Daylight Time),849011.3999999985,I,z,1061,71,2,122.bmp,-120,-120,123.bmp,120,-120,124.bmp,-120,120,125.bmp,120,120,9106.300000000745,839905.0999999978,8087,yes,SM,A,125.bmp,120,120,175574,169548,177591,171558,842361.0,836336.0,844378.0,838347.0,71
1,1,0,0,0,64,test,1,1,z,Tue Mar 31 2026 09:15:18 GMT-0500 (Central Daylight Time),857792.5999999978,I,z,723,72,2,126.bmp,-120,-120,127.bmp,120,-120,128.bmp,-120,120,129.bmp,120,120,8778.89999999851,849013.6999999993,8087,yes,SM,A,126.bmp,-120,-120,175574,169548,177591,171558,851476.0,845445.0,853492.0,847461.0,72
2,0,1,0,0,65,test,1,1,z,Tue Mar 31 2026 09:15:18 GMT-0500 (Central Daylight Time),867157.5,I,z,1305,73,2,130.bmp,-120,-120,131.bmp,120,-120,132.bmp,-120,120,133.bmp,120,120,9360.400000002235,857797.0999999978,8087,yes,SM,A,131.bmp,120,-120,175574,169548,177591,171558,860256.0,854229.0,862271.0,856241.0,73
4,0,0,0,1,65,test,1,0,m,Tue Mar 31 2026 09:15:18 GMT-0500 (Central Daylight Time),876319.5999999978,I,z,1107,74,2,134.bmp,-120,-120,135.bmp,120,-120,136.bmp,-120,120,137.bmp,120,120,9158.300000000745,867161.299999997,8087,no,SM,A,136.bmp,120,120,175574,169548,177591,171558,869620.0,863592.0,871636.0,865604.0,74
2,0,1,0,0,66,test,1,1,m,Tue Mar 31 2026 09:15:18 GMT-0500 (Central Daylight Time),885533.299999997,I,m,1150,75,2,138.bmp,-120,-120,139.bmp,120,-120,140.bmp,-120,120,141.bmp,120,120,9211.099999997765,876322.1999999993,8087,no,SM,A,141.bmp,120,-120,175574,169548,177591,171558,878785.0,872753.0,880801.0,874766.0,75
1,1,0,0,0,67,test,1,1,z,Tue Mar 31 2026 09:15:18 GMT-0500 (Central Daylight Time),894530.5999999978,I,z,946,76,2,142.bmp,-120,-120,143.bmp,120,-120,144.bmp,-120,120,145.bmp,120,120,8994.39999999851,885536.1999999993,8087,yes,SM,A,142.bmp,-120,-120,175574,169548,177591,171558,887997.0,881967.0,890013.0,883981.0,76
3,0,0,1,0,68,test,1,1,z,Tue Mar 31 2026 09:15:18 GMT-0500 (Central Daylight Time),903945.799999997,I,z,1349,77,2,150.bmp,-120,-120,111.bmp,120,-120,101.bmp,-120,120,102.bmp,120,120,9413.0,894532.799999997,8087,yes,SM,A,101.bmp,-120,120,175574,169548,177591,171558,896994.0,890964.0,899011.0,892978.0,77
1,1,0,0,0,69,test,1,1,m,Tue Mar 31 2026 09:15:18 GMT-0500 (Central Daylight Time),913059.5,I,m,1055,78,2,146.bmp,-120,-120,147.bmp,120,-120,148.bmp,-120,120,149.bmp,120,120,9110.400000002235,903949.0999999978,8087,no,SM,A,147.bmp,-120,-120,175574,169548,177591,171558,906407.0,900380.0,908425.0,902392.0,78
4,0,0,0,1,70,test,1,1,m,Tue Mar 31 2026 09:15:18 GMT-0500 (Central Daylight Time),922822.299999997,I,m,1710,79,2,107.bmp,-120,-120,108.bmp,120,-120,109.bmp,-120,120,110.bmp,120,120,9759.199999999255,913063.0999999978,8087,no,SM,A,107.bmp,120,120,175574,169548,177591,171558,915521.0,909495.0,917538.0,911506.0,79
3,0,0,1,0,71,test,1,1,m,Tue Mar 31 2026 09:15:18 GMT-0500 (Central Daylight Time),932403.8999999985,I,m,1537,80,2,103.bmp,-120,-120,104.bmp,120,-120,105.bmp,-120,120,106.bmp,120,120,9578.199999999255,922825.6999999993,8087,no,SM,A,106.bmp,-120,120,175574,169548,177591,171558,925284.0,919257.0,927286.0,921270.0,80
