acc_sum,block,block_c,condition,correct,correct_response,datetime,endtime,flanker,jitter,project,response,response_test_buffer_response,response_test_target_response,response_time,response_time_test_buffer_response,response_time_test_target_response,row_sel,session_number,start_end,starttime,subject_id,target,task,task_vers,time_test_buffer,time_test_buffer_response,time_test_constants,time_test_flanker,time_test_jitter,time_test_logger,time_test_target,time_test_target_response,time_test_variables,trial
1,prac,1,inc,1,z,Tue Aug 13 2024 13:40:36 GMT-0500 (Central Daylight Time),117668.59999999404,window,1100,O,z,,,661,,,16,1,3061.0,114607.59999999404,7015,temper,AF,B,,,,,,,,,,1
2,prac,1,con,1,m,Tue Aug 13 2024 13:40:36 GMT-0500 (Central Daylight Time),120534.39999999851,step,800,O,m,,,759,,,1,1,2860.89999999851,117673.5,7015,step,AF,B,,,,,,,,,,2
3,prac,1,con,1,m,Tue Aug 13 2024 13:40:36 GMT-0500 (Central Daylight Time),123167.09999999404,jacket,800,O,m,,,517,,,5,1,2628.5,120538.59999999404,7015,jacket,AF,B,,,,,,,,,,3
4,prac,1,con,1,m,Tue Aug 13 2024 13:40:36 GMT-0500 (Central Daylight Time),126016.19999999553,remote,1000,O,m,,,534,,,7,1,2844.89999999851,123171.29999999702,7015,remote,AF,B,,,,,,,,,,4
5,prac,1,inc,1,z,Tue Aug 13 2024 13:40:36 GMT-0500 (Central Daylight Time),128881.79999999702,napkin,1100,O,z,,,457,,,12,1,2860.89999999851,126020.89999999851,7015,friend,AF,B,,,,,,,,,,5
6,prac,1,inc,1,z,Tue Aug 13 2024 13:40:36 GMT-0500 (Central Daylight Time),131564.3999999985,rock,900,O,z,,,479,,,10,1,2678.3000000044703,128886.09999999404,7015,kind,AF,B,,,,,,,,,,6
7,prac,1,inc,1,m,Tue Aug 13 2024 13:40:36 GMT-0500 (Central Daylight Time),134446.8999999985,brutal,1100,O,m,,,477,,,8,1,2878.10000000149,131568.79999999702,7015,window,AF,B,,,,,,,,,,7
8,prac,1,con,1,z,Tue Aug 13 2024 13:40:36 GMT-0500 (Central Daylight Time),137162.5,love,1000,O,z,,,405,,,11,1,2711.5,134451.0,7015,love,AF,B,,,,,,,,,,8
9,prac,1,inc,1,m,Tue Aug 13 2024 13:40:36 GMT-0500 (Central Daylight Time),139995.0,kind,900,O,m,,,539,,,2,1,2828.3000000044703,137166.69999999553,7015,rock,AF,B,,,,,,,,,,9
10,prac,1,con,1,z,Tue Aug 13 2024 13:40:36 GMT-0500 (Central Daylight Time),142611.0,brutal,800,O,z,,,514,,,13,1,2611.5,139999.5,7015,brutal,AF,B,,,,,,,,,,10
11,prac,1,inc,1,m,Tue Aug 13 2024 13:40:36 GMT-0500 (Central Daylight Time),145343.29999999702,elated,900,O,m,,,517,,,6,1,2727.39999999851,142615.8999999985,7015,napkin,AF,B,,,,,,,,,,11
12,prac,1,inc,1,m,Tue Aug 13 2024 13:40:36 GMT-0500 (Central Daylight Time),148442.3999999985,hate,1100,O,m,,,698,,,4,1,3094.60000000149,145347.79999999702,7015,film,AF,B,,,,,,,,,,12
13,prac,1,inc,1,z,Tue Aug 13 2024 13:40:36 GMT-0500 (Central Daylight Time),151091.3999999985,film,900,O,z,,,438,,,14,1,2645.10000000149,148446.29999999702,7015,hate,AF,B,,,,,,,,,,13
14,prac,1,con,1,z,Tue Aug 13 2024 13:40:36 GMT-0500 (Central Daylight Time),153890.59999999404,elated,800,O,z,,,696,,,9,1,2795.0999999940395,151095.5,7015,elated,AF,B,,,,,,,,,,14
15,prac,1,con,1,m,Tue Aug 13 2024 13:40:36 GMT-0500 (Central Daylight Time),156756.3999999985,bell,1000,O,m,,,561,,,3,1,2861.7000000029802,153894.69999999553,7015,bell,AF,B,,,,,,,,,,15
16,prac,1,con,1,z,Tue Aug 13 2024 13:40:36 GMT-0500 (Central Daylight Time),159505.59999999404,rage,1000,O,z,,,441,,,15,1,2744.5,156761.09999999404,7015,rage,AF,B,,,,,,,,,,16
1,test,1,inc,1,m,Tue Aug 13 2024 13:40:36 GMT-0500 (Central Daylight Time),174817.3999999985,hate,1100,O,m,m,None,567,367.0,200.0,96,1,2212.7000000029802,172604.69999999553,7015,film,AF,B,172240,172240,170410,171523,170410,172622,172039,172039,172622,1
2,test,1,inc,1,z,Tue Aug 13 2024 13:40:36 GMT-0500 (Central Daylight Time),177000.09999999404,film,1100,O,z,z,None,534,335.0,199.0,56,1,2177.7999999970198,174822.29999999702,7015,rage,AF,B,174456,174456,172627,173739,172628,174805,174256,174256,174805,2
3,test,1,inc,1,m,Tue Aug 13 2024 13:40:36 GMT-0500 (Central Daylight Time),179066.29999999702,temper,1000,O,m,m,None,517,317.0,200.0,103,1,2061.7999999970198,177004.5,7015,jacket,AF,B,176538,176538,174810,175822,174810,176871,176338,176338,176871,3
4,test,1,con,1,z,Tue Aug 13 2024 13:40:36 GMT-0500 (Central Daylight Time),181015.3999999985,love,1000,O,z,z,None,411,211.0,200.0,19,1,1945.1000000014901,179070.29999999702,7015,love,AF,B,178604,178604,176875,177888,176876,178820,178404,178404,178820,4
5,test,1,inc,1,z,Tue Aug 13 2024 13:40:36 GMT-0500 (Central Daylight Time),183131.29999999702,rock,900,O,z,z,None,672,473.0,199.0,22,1,2112.39999999851,181018.8999999985,7015,love,AF,B,180454,180454,178824,179737,178824,180936,180254,180254,180936,5
6,test,1,con,1,m,Tue Aug 13 2024 13:40:36 GMT-0500 (Central Daylight Time),184948.59999999404,bell,900,O,m,m,None,380,181.0,199.0,82,1,1813.5,183135.09999999404,7015,bell,AF,B,182570,182570,180940,181853,180940,182754,182370,182370,182754,6
7,test,1,inc,1,m,Tue Aug 13 2024 13:40:36 GMT-0500 (Central Daylight Time),187030.29999999702,rage,800,O,m,m,None,736,537.0,199.0,69,1,2077.5,184952.79999999702,7015,step,AF,B,184286,184286,182758,183569,182758,184835,184086,184086,184835,7
8,test,1,con,1,z,Tue Aug 13 2024 13:40:36 GMT-0500 (Central Daylight Time),188879.69999999553,love,800,O,z,z,None,510,311.0,199.0,17,1,1844.7999999970198,187034.8999999985,7015,love,AF,B,186368,186368,184840,185652,184840,186685,186169,186169,186685,8
9,test,1,inc,1,z,Tue Aug 13 2024 13:40:36 GMT-0500 (Central Daylight Time),191012.29999999702,napkin,900,O,z,z,None,688,489.0,199.0,62,1,2128.89999999851,188883.3999999985,7015,temper,AF,B,188318,188318,186688,187601,186689,188818,188118,188118,188817,9
10,test,1,con,1,z,Tue Aug 13 2024 13:40:36 GMT-0500 (Central Daylight Time),193078.19999999553,rage,900,O,z,z,None,620,420.0,200.0,50,1,2061.6999999955297,191016.5,7015,rage,AF,B,190451,190451,188822,189734,188822,190883,190250,190250,190883,10
11,test,1,inc,1,z,Tue Aug 13 2024 13:40:36 GMT-0500 (Central Daylight Time),195094.29999999702,rock,900,O,z,z,None,586,387.0,199.0,54,1,2011.7000000029802,193082.59999999404,7015,rage,AF,B,192500,192500,190888,191800,190888,192899,192301,192301,192899,11
12,test,1,con,1,m,Tue Aug 13 2024 13:40:36 GMT-0500 (Central Daylight Time),197110.5,film,1000,O,m,m,None,471,271.0,200.0,91,1,2011.9000000059605,195098.59999999404,7015,film,AF,B,194632,194632,192904,193916,192904,194916,194432,194432,194915,12
13,test,1,con,1,m,Tue Aug 13 2024 13:40:36 GMT-0500 (Central Daylight Time),199226.29999999702,step,1000,O,m,m,None,581,382.0,199.0,67,1,2112.0,197114.29999999702,7015,step,AF,B,196649,196649,194919,195932,194920,197031,196449,196449,197031,13
14,test,1,con,1,m,Tue Aug 13 2024 13:40:36 GMT-0500 (Central Daylight Time),201058.8999999985,bell,800,O,m,m,None,499,299.0,200.0,81,1,1828.7000000029802,199230.19999999553,7015,bell,AF,B,198564,198564,197035,197848,197036,198864,198364,198364,198864,14
15,test,1,con,1,m,Tue Aug 13 2024 13:40:36 GMT-0500 (Central Daylight Time),203125.0,jacket,1100,O,m,m,None,422,222.0,200.0,100,1,2061.9000000059605,201063.09999999404,7015,jacket,AF,B,200697,200697,198868,199981,198868,200930,200497,200497,200930,15
16,test,1,con,1,z,Tue Aug 13 2024 13:40:36 GMT-0500 (Central Daylight Time),205191.19999999553,temper,800,O,z,z,None,718,519.0,199.0,57,1,2062.39999999851,203128.79999999702,7015,temper,AF,B,202463,202464,200934,201747,200934,202996,202264,202264,202996,16
17,test,1,inc,1,m,Tue Aug 13 2024 13:40:36 GMT-0500 (Central Daylight Time),207490.29999999702,friend,1100,O,m,m,None,658,458.0,200.0,128,1,2295.10000000149,205195.19999999553,7015,window,AF,B,204829,204829,203000,204113,203000,205295,204629,204629,205295,17
18,test,1,inc,1,z,Tue Aug 13 2024 13:40:36 GMT-0500 (Central Daylight Time),209639.79999999702,napkin,900,O,z,z,None,711,511.0,200.0,38,1,2145.2999999970198,207494.5,7015,brutal,AF,B,206928,206928,205300,206212,205300,207445,206728,206728,207445,18
19,test,1,con,1,z,Tue Aug 13 2024 13:40:36 GMT-0500 (Central Daylight Time),211722.3999999985,brutal,1100,O,z,z,None,440,241.0,199.0,36,1,2078.8000000044703,209643.59999999404,7015,brutal,AF,B,209278,209278,207449,208561,207449,209528,209078,209078,209527,19
20,test,1,inc,1,z,Tue Aug 13 2024 13:40:36 GMT-0500 (Central Daylight Time),213888.3999999985,remote,1000,O,z,z,None,617,418.0,199.0,39,1,2162.2000000029802,211726.19999999553,7015,brutal,AF,B,211261,211261,209531,210544,209532,211693,211060,211061,211693,20
21,test,1,inc,1,z,Tue Aug 13 2024 13:40:36 GMT-0500 (Central Daylight Time),216054.09999999404,napkin,900,O,z,z,None,727,528.0,199.0,30,1,2161.89999999851,213892.19999999553,7015,friend,AF,B,213327,213327,211697,212610,211698,213859,213127,213127,213859,21
22,test,1,inc,1,z,Tue Aug 13 2024 13:40:36 GMT-0500 (Central Daylight Time),218170.5,remote,1000,O,z,z,None,581,382.0,199.0,63,1,2109.9000000059605,216060.59999999404,7015,temper,AF,B,215593,215593,213866,214876,213866,215976,215393,215393,215976,22
23,test,1,con,1,z,Tue Aug 13 2024 13:40:36 GMT-0500 (Central Daylight Time),220170.0,temper,1000,O,z,z,None,458,258.0,200.0,59,1,1995.3000000044703,218174.69999999553,7015,temper,AF,B,217709,217709,215980,216992,215980,217975,217509,217509,217975,23
24,test,1,inc,1,m,Tue Aug 13 2024 13:40:36 GMT-0500 (Central Daylight Time),222369.29999999702,temper,1000,O,m,m,None,659,459.0,200.0,119,1,2195.2999999970198,220174.0,7015,remote,AF,B,219708,219708,217979,218991,217980,220174,219508,219508,220174,24
25,test,1,inc,1,m,Tue Aug 13 2024 13:40:36 GMT-0500 (Central Daylight Time),224335.19999999553,rage,800,O,m,m,None,620,420.0,200.0,93,1,1962.1999999955297,222373.0,7015,film,AF,B,221707,221707,220178,220991,220178,222140,221507,221507,222140,25
25,test,1,con,0,z,Tue Aug 13 2024 13:40:36 GMT-0500 (Central Daylight Time),226401.19999999553,hate,1000,O,m,m,None,518,318.0,200.0,43,1,2062.1999999955297,224339.0,7015,hate,AF,B,223873,223873,222144,223157,222144,224206,223673,223673,224206,26
26,test,1,con,1,z,Tue Aug 13 2024 13:40:36 GMT-0500 (Central Daylight Time),228683.69999999553,brutal,1000,O,z,z,None,748,548.0,200.0,35,1,2278.60000000149,226405.09999999404,7015,brutal,AF,B,225939,225939,224210,225223,224210,226489,225739,225739,226489,27
27,test,1,con,1,z,Tue Aug 13 2024 13:40:36 GMT-0500 (Central Daylight Time),230500.0,kind,800,O,z,z,None,481,281.0,200.0,9,1,1812.7000000029802,228687.29999999702,7015,kind,AF,B,228022,228022,226492,227307,226493,228305,227822,227822,228305,28
28,test,1,con,1,z,Tue Aug 13 2024 13:40:36 GMT-0500 (Central Daylight Time),232832.3999999985,friend,1100,O,z,z,None,581,377.0,204.0,28,1,2328.89999999851,230503.5,7015,friend,AF,B,230254,230254,228309,229421,228309,230637,230050,230050,230637,29
29,test,1,con,1,m,Tue Aug 13 2024 13:40:36 GMT-0500 (Central Daylight Time),235116.19999999553,window,1100,O,m,m,None,639,440.0,199.0,124,1,2280.1999999955297,232836.0,7015,window,AF,B,232471,232471,230641,231754,230641,232921,232271,232271,232921,30
30,test,1,con,1,z,Tue Aug 13 2024 13:40:36 GMT-0500 (Central Daylight Time),237231.0,rage,1100,O,z,z,None,478,278.0,200.0,52,1,2110.7000000029802,235120.29999999702,7015,rage,AF,B,234753,234753,232925,234036,232926,235036,234553,234553,235036,31
31,test,1,con,1,m,Tue Aug 13 2024 13:40:36 GMT-0500 (Central Daylight Time),239330.3999999985,jacket,900,O,m,m,None,658,458.0,200.0,98,1,2095.39999999851,237235.0,7015,jacket,AF,B,236669,236669,235040,235953,235040,237135,236469,236469,237135,32
32,test,1,con,1,m,Tue Aug 13 2024 13:40:36 GMT-0500 (Central Daylight Time),241563.19999999553,remote,800,O,m,m,None,889,690.0,199.0,113,1,2228.6999999955297,239334.5,7015,remote,AF,B,238669,238669,237140,237952,237140,239368,238468,238469,239368,33
33,test,1,inc,1,m,Tue Aug 13 2024 13:40:36 GMT-0500 (Central Daylight Time),243679.09999999404,kind,900,O,m,m,None,670,470.0,200.0,70,1,2112.39999999851,241566.69999999553,7015,step,AF,B,241001,241001,239372,240285,239372,241484,240801,240801,241484,34
34,test,1,con,1,m,Tue Aug 13 2024 13:40:36 GMT-0500 (Central Daylight Time),245545.29999999702,napkin,900,O,m,m,None,418,218.0,200.0,106,1,1862.1000000014901,243683.19999999553,7015,napkin,AF,B,243117,243117,241488,242401,241488,243350,242917,242917,243350,35
35,test,1,inc,1,z,Tue Aug 13 2024 13:40:36 GMT-0500 (Central Daylight Time),247461.29999999702,jacket,800,O,z,z,None,571,372.0,199.0,37,1,1912.2999999970198,245549.0,7015,brutal,AF,B,244883,244883,243354,244167,243354,245266,244684,244684,245266,36
36,test,1,inc,1,z,Tue Aug 13 2024 13:40:36 GMT-0500 (Central Daylight Time),249410.59999999404,step,800,O,z,z,None,607,408.0,199.0,13,1,1945.6999999955297,247464.8999999985,7015,kind,AF,B,246799,246799,245270,246083,245270,247216,246600,246600,247216,37
37,test,1,con,1,z,Tue Aug 13 2024 13:40:36 GMT-0500 (Central Daylight Time),251460.0,kind,1000,O,z,z,None,513,314.0,199.0,11,1,2045.7000000029802,249414.29999999702,7015,kind,AF,B,248949,248949,247219,248232,247220,249265,248749,248749,249265,38
38,test,1,con,1,m,Tue Aug 13 2024 13:40:36 GMT-0500 (Central Daylight Time),253326.09999999404,rock,800,O,m,m,None,521,321.0,200.0,73,1,1862.5,251463.59999999404,7015,rock,AF,B,250798,250798,249269,250082,249269,251131,250598,250598,251131,39
39,test,1,inc,1,z,Tue Aug 13 2024 13:40:36 GMT-0500 (Central Daylight Time),255458.79999999702,bell,1000,O,z,z,None,600,400.0,200.0,23,1,2128.7000000029802,253330.09999999404,7015,love,AF,B,252864,252864,251135,252148,251135,253264,252664,252664,253264,40
40,test,1,inc,1,m,Tue Aug 13 2024 13:40:36 GMT-0500 (Central Daylight Time),257541.3999999985,love,1000,O,m,m,None,554,355.0,199.0,95,1,2079.3000000044703,255462.09999999404,7015,film,AF,B,254980,254980,253267,254280,253267,255347,254781,254781,255346,41
41,test,1,con,1,z,Tue Aug 13 2024 13:40:36 GMT-0500 (Central Daylight Time),259674.19999999553,rage,1000,O,z,z,None,590,391.0,199.0,51,1,2129.0,257545.19999999553,7015,rage,AF,B,257080,257080,255350,256364,255350,257479,256880,256880,257479,42
42,test,1,inc,1,z,Tue Aug 13 2024 13:40:36 GMT-0500 (Central Daylight Time),261656.79999999702,rock,900,O,z,z,None,543,343.0,200.0,46,1,1978.7999999970198,259678.0,7015,hate,AF,B,259112,259112,257483,258396,257483,259462,258912,258912,259462,43
43,test,1,con,1,z,Tue Aug 13 2024 13:40:36 GMT-0500 (Central Daylight Time),263789.299999997,love,1100,O,z,z,None,495,296.0,199.0,20,1,2128.7000000029802,261660.59999999404,7015,love,AF,B,261295,261295,259466,260579,259466,261594,261095,261095,261594,44
44,test,1,inc,1,z,Tue Aug 13 2024 13:40:36 GMT-0500 (Central Daylight Time),266088.59999999404,window,1100,O,z,z,None,651,452.0,199.0,32,1,2295.2999999970198,263793.299999997,7015,friend,AF,B,263427,263427,261598,262711,261599,263894,263228,263228,263894,45
45,test,1,inc,1,z,Tue Aug 13 2024 13:40:36 GMT-0500 (Central Daylight Time),268154.59999999404,remote,1000,O,z,z,None,531,332.0,199.0,31,1,2062.0999999940395,266092.5,7015,friend,AF,B,265627,265627,263898,264910,263898,265960,265427,265427,265960,46
46,test,1,inc,1,m,Tue Aug 13 2024 13:40:36 GMT-0500 (Central Daylight Time),270287.59999999404,love,1000,O,m,m,None,586,386.0,200.0,87,1,2128.89999999851,268158.69999999553,7015,bell,AF,B,267693,267693,265964,266976,265964,268093,267493,267493,268093,47
47,test,1,con,1,m,Tue Aug 13 2024 13:40:36 GMT-0500 (Central Daylight Time),272236.8999999985,window,800,O,m,m,None,612,413.0,199.0,121,1,1945.8000000044703,270291.09999999404,7015,window,AF,B,269625,269626,268096,268909,268096,270042,269426,269426,270042,48
48,test,1,inc,1,m,Tue Aug 13 2024 13:40:36 GMT-0500 (Central Daylight Time),274119.59999999404,elated,800,O,m,m,None,544,344.0,200.0,125,1,1879.2999999970198,272240.299999997,7015,window,AF,B,271575,271575,270045,270858,270046,271925,271375,271375,271925,49
49,test,1,inc,1,z,Tue Aug 13 2024 13:40:36 GMT-0500 (Central Daylight Time),276185.5,bell,1000,O,z,z,None,516,317.0,199.0,47,1,2060.4000000059605,274125.09999999404,7015,hate,AF,B,273658,273658,271930,272941,271931,273991,273458,273458,273991,50
50,test,1,inc,1,m,Tue Aug 13 2024 13:40:36 GMT-0500 (Central Daylight Time),278067.8999999985,elated,800,O,m,m,None,546,347.0,199.0,109,1,1878.8000000044703,276189.09999999404,7015,napkin,AF,B,275524,275524,273994,274807,273994,275873,275324,275324,275873,51
51,test,1,con,1,m,Tue Aug 13 2024 13:40:36 GMT-0500 (Central Daylight Time),280300.8999999985,film,1100,O,m,m,None,588,388.0,200.0,92,1,2229.39999999851,278071.5,7015,film,AF,B,277707,277707,275877,276990,275877,278106,277506,277506,278106,52
52,test,1,inc,1,z,Tue Aug 13 2024 13:40:36 GMT-0500 (Central Daylight Time),282233.69999999553,jacket,800,O,z,z,None,584,384.0,200.0,61,1,1929.0,280304.69999999553,7015,temper,AF,B,279639,279639,278110,278923,278110,280039,279439,279439,280039,53
53,test,1,inc,1,z,Tue Aug 13 2024 13:40:36 GMT-0500 (Central Daylight Time),284266.3999999985,bell,1000,O,z,z,None,483,284.0,199.0,55,1,2028.6000000014901,282237.799999997,7015,rage,AF,B,281772,281772,280043,281056,280043,282071,281572,281572,282071,54
54,test,1,con,1,z,Tue Aug 13 2024 13:40:36 GMT-0500 (Central Daylight Time),286165.799999997,brutal,800,O,z,z,None,554,354.0,200.0,33,1,1895.6000000014901,284270.19999999553,7015,brutal,AF,B,283605,283605,282075,282888,282075,283971,283404,283404,283971,55
55,test,1,con,1,m,Tue Aug 13 2024 13:40:36 GMT-0500 (Central Daylight Time),288298.299999997,window,1000,O,m,m,None,583,383.0,200.0,123,1,2128.7000000029802,286169.59999999404,7015,window,AF,B,285704,285704,283975,284987,283975,286103,285504,285504,286103,56
56,test,1,con,1,z,Tue Aug 13 2024 13:40:36 GMT-0500 (Central Daylight Time),290247.799999997,love,900,O,z,z,None,510,311.0,199.0,18,1,1945.3999999985099,288302.3999999985,7015,love,AF,B,287736,287736,286107,287020,286108,288053,287537,287537,288053,57
57,test,1,con,1,z,Tue Aug 13 2024 13:40:36 GMT-0500 (Central Daylight Time),292097.19999999553,brutal,900,O,z,z,None,401,201.0,200.0,34,1,1845.6999999955297,290251.5,7015,brutal,AF,B,289686,289686,288057,288970,288057,289902,289486,289486,289902,58
58,test,1,inc,1,z,Tue Aug 13 2024 13:40:36 GMT-0500 (Central Daylight Time),294313.299999997,film,1100,O,z,z,None,576,376.0,200.0,16,1,2212.7000000029802,292100.59999999404,7015,kind,AF,B,291735,291735,289906,291019,289906,292118,291535,291535,292118,59
59,test,1,con,1,m,Tue Aug 13 2024 13:40:36 GMT-0500 (Central Daylight Time),296595.8999999985,remote,1100,O,m,m,None,648,448.0,200.0,116,1,2278.89999999851,294317.0,7015,remote,AF,B,293951,293951,292122,293235,292122,294401,293751,293751,294401,60
60,test,1,con,1,z,Tue Aug 13 2024 13:40:36 GMT-0500 (Central Daylight Time),298462.0,friend,800,O,z,z,None,529,329.0,200.0,25,1,1862.4000000059605,296599.59999999404,7015,friend,AF,B,295934,295934,294405,295217,294405,296267,295734,295734,296267,61
61,test,1,con,1,z,Tue Aug 13 2024 13:40:36 GMT-0500 (Central Daylight Time),300244.5,rage,800,O,z,z,None,439,239.0,200.0,49,1,1778.5,298466.0,7015,rage,AF,B,297800,297800,296271,297083,296271,298050,297600,297600,298050,62
62,test,1,inc,1,z,Tue Aug 13 2024 13:40:36 GMT-0500 (Central Daylight Time),302027.3999999985,step,800,O,z,z,None,448,248.0,200.0,21,1,1779.1000000014901,300248.299999997,7015,love,AF,B,299583,299583,298053,298867,298054,299832,299383,299383,299832,63
63,test,1,con,1,m,Tue Aug 13 2024 13:40:36 GMT-0500 (Central Daylight Time),304193.19999999553,rock,900,O,m,m,None,617,418.0,199.0,74,1,2162.5,302030.69999999553,7015,rock,AF,B,301565,301565,299836,300854,299836,301998,301366,301366,301998,64
64,test,1,con,1,m,Tue Aug 13 2024 13:40:36 GMT-0500 (Central Daylight Time),306409.5,film,800,O,m,m,None,874,675.0,199.0,89,1,2212.3000000044703,304197.19999999553,7015,film,AF,B,303532,303532,302002,302815,302002,304215,303332,303332,304215,65
65,test,1,inc,1,z,Tue Aug 13 2024 13:40:36 GMT-0500 (Central Daylight Time),308242.299999997,jacket,800,O,z,z,None,490,291.0,199.0,29,1,1829.0,306413.299999997,7015,friend,AF,B,305748,305748,304218,305031,304219,306047,305548,305548,306047,66
66,test,1,con,1,m,Tue Aug 13 2024 13:40:36 GMT-0500 (Central Daylight Time),309991.5,napkin,800,O,m,m,None,403,203.0,200.0,105,1,1745.3000000044703,308246.19999999553,7015,napkin,AF,B,307580,307580,306051,306864,306051,307797,307380,307380,307797,67
67,test,1,inc,1,m,Tue Aug 13 2024 13:40:36 GMT-0500 (Central Daylight Time),311924.59999999404,rage,800,O,m,m,None,589,389.0,200.0,77,1,1929.2999999970198,309995.299999997,7015,rock,AF,B,309330,309330,307800,308613,307801,309730,309130,309130,309730,68
68,test,1,inc,1,z,Tue Aug 13 2024 13:40:36 GMT-0500 (Central Daylight Time),314007.19999999553,bell,1000,O,z,z,None,544,345.0,199.0,15,1,2078.89999999851,311928.299999997,7015,kind,AF,B,311462,311462,309733,310746,309734,311812,311263,311263,311812,69
68,test,1,inc,0,z,Tue Aug 13 2024 13:40:36 GMT-0500 (Central Daylight Time),316139.69999999553,window,1100,O,m,m,None,490,290.0,200.0,64,1,2129.0,314010.69999999553,7015,temper,AF,B,313645,313645,311816,312929,311816,313945,313445,313445,313945,70
69,test,1,inc,1,z,Tue Aug 13 2024 13:40:36 GMT-0500 (Central Daylight Time),318372.5,film,1100,O,z,z,None,597,397.0,200.0,24,1,2229.3000000044703,316143.19999999553,7015,love,AF,B,315778,315778,313948,315061,313949,316178,315578,315578,316177,71
70,test,1,con,1,m,Tue Aug 13 2024 13:40:36 GMT-0500 (Central Daylight Time),320406.3999999985,napkin,1000,O,m,m,None,496,297.0,199.0,107,1,2030.0,318376.3999999985,7015,napkin,AF,B,317910,317910,316181,317194,316182,318211,317711,317711,318211,72
71,test,1,inc,1,m,Tue Aug 13 2024 13:40:36 GMT-0500 (Central Daylight Time),322487.69999999553,kind,900,O,m,m,None,636,436.0,200.0,78,1,2077.60000000149,320410.09999999404,7015,rock,AF,B,319843,319843,318215,319127,318215,320293,319643,319643,320293,73
72,test,1,con,1,z,Tue Aug 13 2024 13:40:36 GMT-0500 (Central Daylight Time),324653.59999999404,hate,1100,O,z,z,None,528,329.0,199.0,44,1,2162.39999999851,322491.19999999553,7015,hate,AF,B,322126,322126,320296,321409,320297,322459,321926,321926,322459,74
73,test,1,inc,1,m,Tue Aug 13 2024 13:40:36 GMT-0500 (Central Daylight Time),326853.19999999553,friend,1100,O,m,m,None,555,244.0,311.0,104,1,2195.89999999851,324657.299999997,7015,jacket,AF,B,324403,324403,322462,323575,322463,324658,324092,324092,324658,75
74,test,1,inc,1,z,Tue Aug 13 2024 13:40:36 GMT-0500 (Central Daylight Time),329018.8999999985,jacket,800,O,z,z,None,832,632.0,200.0,5,1,2162.0,326856.8999999985,7015,elated,AF,B,326191,326191,324662,325475,324662,326824,325991,325991,326824,76
75,test,1,inc,1,m,Tue Aug 13 2024 13:40:36 GMT-0500 (Central Daylight Time),330968.59999999404,kind,900,O,m,m,None,510,310.0,200.0,86,1,1946.0999999940395,329022.5,7015,bell,AF,B,328457,328457,326828,327741,326828,328774,328257,328257,328774,77
76,test,1,con,1,z,Tue Aug 13 2024 13:40:36 GMT-0500 (Central Daylight Time),333034.5,friend,1000,O,z,z,None,548,348.0,200.0,27,1,2062.10000000149,330972.3999999985,7015,friend,AF,B,330491,330491,328777,329790,328778,330840,330291,330291,330839,78
77,test,1,con,1,m,Tue Aug 13 2024 13:40:36 GMT-0500 (Central Daylight Time),335167.09999999404,remote,1000,O,m,m,None,585,386.0,199.0,115,1,2129.0999999940395,333038.0,7015,remote,AF,B,332573,332573,330843,331856,330843,332972,332373,332373,332972,79
78,test,1,con,1,m,Tue Aug 13 2024 13:40:36 GMT-0500 (Central Daylight Time),337083.19999999553,step,800,O,m,m,None,574,374.0,200.0,65,1,1912.5,335170.69999999553,7015,step,AF,B,334505,334505,332976,333789,332976,334888,334305,334305,334888,80
79,test,1,con,1,m,Tue Aug 13 2024 13:40:36 GMT-0500 (Central Daylight Time),338899.299999997,film,900,O,m,m,None,374,174.0,200.0,90,1,1812.2999999970198,337087.0,7015,film,AF,B,336521,336521,334892,335805,334892,336704,336321,336321,336704,81
80,test,1,inc,1,z,Tue Aug 13 2024 13:40:36 GMT-0500 (Central Daylight Time),340848.5,napkin,900,O,z,z,None,502,302.0,200.0,6,1,1945.7000000029802,338902.799999997,7015,elated,AF,B,338337,338337,336708,337621,336708,338654,338137,338137,338653,82
81,test,1,inc,1,m,Tue Aug 13 2024 13:40:36 GMT-0500 (Central Daylight Time),342714.799999997,rage,800,O,m,m,None,524,324.0,200.0,85,1,1862.7999999970198,340852.0,7015,bell,AF,B,340187,340187,338657,339470,338657,340520,339987,339987,340520,83
82,test,1,con,1,z,Tue Aug 13 2024 13:40:36 GMT-0500 (Central Daylight Time),344630.69999999553,kind,900,O,z,z,None,470,269.0,201.0,10,1,1912.2999999970198,342718.3999999985,7015,kind,AF,B,342154,342154,340523,341436,340524,342436,341953,341953,342436,84
83,test,1,con,1,m,Tue Aug 13 2024 13:40:36 GMT-0500 (Central Daylight Time),346796.799999997,jacket,1000,O,m,m,None,622,422.0,200.0,99,1,2162.2999999970198,344634.5,7015,jacket,AF,B,344169,344169,342440,343452,342440,344602,343969,343969,344602,85
84,test,1,con,1,m,Tue Aug 13 2024 13:40:36 GMT-0500 (Central Daylight Time),348763.0,rock,1000,O,m,m,None,417,217.0,200.0,75,1,1962.8000000044703,346800.19999999553,7015,rock,AF,B,346335,346335,344605,345618,344606,346568,346135,346135,346568,86
85,test,1,inc,1,z,Tue Aug 13 2024 13:40:36 GMT-0500 (Central Daylight Time),350878.69999999553,film,1100,O,z,z,None,478,278.0,200.0,48,1,2111.89999999851,348766.799999997,7015,hate,AF,B,348401,348401,346572,347684,346572,348684,348201,348201,348684,87
86,test,1,inc,1,z,Tue Aug 13 2024 13:40:36 GMT-0500 (Central Daylight Time),352778.19999999553,step,800,O,z,z,None,558,358.0,200.0,53,1,1895.5,350882.69999999553,7015,rage,AF,B,350217,350217,348688,349500,348688,350583,350017,350017,350583,88
87,test,1,con,1,m,Tue Aug 13 2024 13:40:36 GMT-0500 (Central Daylight Time),354911.0,window,900,O,m,m,None,695,495.0,200.0,122,1,2129.0,352782.0,7015,window,AF,B,352216,352216,350587,351501,350587,352716,352016,352016,352716,89
88,test,1,inc,1,m,Tue Aug 13 2024 13:40:36 GMT-0500 (Central Daylight Time),356910.299999997,kind,900,O,m,m,None,554,354.0,200.0,94,1,1995.7000000029802,354914.59999999404,7015,film,AF,B,354349,354349,352720,353632,352720,354715,354149,354149,354715,90
89,test,1,con,1,m,Tue Aug 13 2024 13:40:36 GMT-0500 (Central Daylight Time),359142.8999999985,step,1100,O,m,m,None,595,395.0,200.0,68,1,2228.89999999851,356914.0,7015,step,AF,B,356548,356548,354719,355832,354719,356948,356348,356348,356948,91
89,test,1,con,0,z,Tue Aug 13 2024 13:40:36 GMT-0500 (Central Daylight Time),361208.59999999404,temper,1100,O,m,m,None,426,226.0,200.0,60,1,2061.89999999851,359146.69999999553,7015,temper,AF,B,358781,358781,356952,358064,356952,359014,358581,358581,359014,92
90,test,1,con,1,m,Tue Aug 13 2024 13:40:36 GMT-0500 (Central Daylight Time),363241.799999997,bell,1000,O,m,m,None,492,292.0,200.0,83,1,2029.5,361212.299999997,7015,bell,AF,B,360747,360747,359017,360030,359018,361047,360547,360547,361047,93
91,test,1,inc,1,m,Tue Aug 13 2024 13:40:36 GMT-0500 (Central Daylight Time),365474.19999999553,hate,1100,O,m,m,None,599,399.0,200.0,88,1,2228.6999999955297,363245.5,7015,bell,AF,B,362880,362880,361051,362163,361051,363279,362679,362679,363279,94
92,test,1,inc,1,m,Tue Aug 13 2024 13:40:36 GMT-0500 (Central Daylight Time),367856.8999999985,hate,1100,O,m,m,None,743,543.0,200.0,80,1,2378.89999999851,365478.0,7015,rock,AF,B,365112,365112,363283,364396,363283,365662,364912,364912,365662,95
93,test,1,inc,1,m,Tue Aug 13 2024 13:40:36 GMT-0500 (Central Daylight Time),369739.3999999985,elated,800,O,m,m,None,540,340.0,200.0,117,1,1878.8000000044703,367860.59999999404,7015,remote,AF,B,367195,367195,365666,366478,365666,367545,366995,366995,367544,96
94,test,1,inc,1,z,Tue Aug 13 2024 13:40:36 GMT-0500 (Central Daylight Time),372038.8999999985,window,1100,O,z,z,None,660,461.0,199.0,40,1,2295.7000000029802,369743.19999999553,7015,brutal,AF,B,369378,369378,367548,368661,367549,369844,369178,369178,369844,97
95,test,1,con,1,m,Tue Aug 13 2024 13:40:36 GMT-0500 (Central Daylight Time),373938.0,jacket,800,O,m,m,None,557,347.0,210.0,97,1,1895.5,372042.5,7015,jacket,AF,B,371388,371388,369848,370660,369848,371743,371177,371177,371743,98
95,test,1,con,0,z,Tue Aug 13 2024 13:40:36 GMT-0500 (Central Daylight Time),375721.09999999404,elated,800,O,m,m,None,434,234.0,200.0,1,1,1779.5999999940395,373941.5,7015,elated,AF,B,373277,373277,371747,372560,371747,373526,373076,373076,373526,99
96,test,1,inc,1,m,Tue Aug 13 2024 13:40:36 GMT-0500 (Central Daylight Time),377787.09999999404,temper,1000,O,m,m,None,524,324.0,200.0,127,1,2062.0,375725.09999999404,7015,window,AF,B,375259,375259,373530,374543,373531,375592,375059,375059,375592,100
97,test,1,con,1,z,Tue Aug 13 2024 13:40:36 GMT-0500 (Central Daylight Time),379953.09999999404,elated,900,O,z,z,None,718,518.0,200.0,2,1,2162.39999999851,377790.69999999553,7015,elated,AF,B,377225,377225,375596,376509,375596,377758,377025,377025,377758,101
98,test,1,con,1,m,Tue Aug 13 2024 13:40:36 GMT-0500 (Central Daylight Time),382152.299999997,bell,1100,O,m,m,None,552,352.0,200.0,84,1,2195.60000000149,379956.69999999553,7015,bell,AF,B,379591,379591,377762,378874,377762,379957,379391,379391,379957,102
99,test,1,con,1,z,Tue Aug 13 2024 13:40:36 GMT-0500 (Central Daylight Time),384068.19999999553,hate,900,O,z,z,None,479,280.0,199.0,42,1,1912.2999999970198,382155.8999999985,7015,hate,AF,B,381591,381591,379961,380874,379961,381873,381391,381391,381873,103
100,test,1,con,1,z,Tue Aug 13 2024 13:40:36 GMT-0500 (Central Daylight Time),386384.299999997,temper,900,O,z,z,None,868,669.0,199.0,58,1,2312.2999999970198,384072.0,7015,temper,AF,B,383506,383506,381877,382790,381877,384189,383307,383307,384189,104
101,test,1,con,1,z,Tue Aug 13 2024 13:40:36 GMT-0500 (Central Daylight Time),388450.5,kind,1100,O,z,z,None,417,217.0,200.0,12,1,2062.8000000044703,386387.69999999553,7015,kind,AF,B,386022,386022,384193,385306,384193,386256,385822,385822,386256,105
102,test,1,inc,1,m,Tue Aug 13 2024 13:40:36 GMT-0500 (Central Daylight Time),390616.5,hate,1100,O,m,m,None,526,326.0,200.0,72,1,2162.5,388454.0,7015,step,AF,B,388088,388089,386259,387372,386259,388422,387888,387888,388421,106
103,test,1,con,1,m,Tue Aug 13 2024 13:40:36 GMT-0500 (Central Daylight Time),392749.0,napkin,1100,O,m,m,None,497,297.0,200.0,108,1,2128.60000000149,390620.3999999985,7015,napkin,AF,B,390254,390254,388425,389538,388426,390554,390054,390054,390554,107
104,test,1,inc,1,m,Tue Aug 13 2024 13:40:36 GMT-0500 (Central Daylight Time),394815.19999999553,brutal,900,O,m,m,None,620,420.0,200.0,126,1,2062.2999999970198,392752.8999999985,7015,window,AF,B,392187,392187,390558,391471,390558,392620,391987,391987,392620,108
105,test,1,inc,1,m,Tue Aug 13 2024 13:40:36 GMT-0500 (Central Daylight Time),396997.69999999553,brutal,900,O,m,m,None,738,538.0,200.0,118,1,2178.39999999851,394819.299999997,7015,remote,AF,B,394253,394253,392624,393537,392625,394803,394053,394053,394803,109
106,test,1,inc,1,m,Tue Aug 13 2024 13:40:36 GMT-0500 (Central Daylight Time),398980.69999999553,brutal,900,O,m,m,None,555,356.0,199.0,110,1,1978.6999999955297,397002.0,7015,napkin,AF,B,396419,396419,394807,395719,394807,396786,396220,396220,396786,110
107,test,1,con,1,z,Tue Aug 13 2024 13:40:36 GMT-0500 (Central Daylight Time),401046.59999999404,elated,1100,O,z,z,None,422,222.0,200.0,4,1,2061.7999999970198,398984.799999997,7015,elated,AF,B,398618,398618,396790,397902,396790,398852,398418,398418,398852,111
108,test,1,con,1,z,Tue Aug 13 2024 13:40:36 GMT-0500 (Central Daylight Time),403029.19999999553,elated,1000,O,z,z,None,438,238.0,200.0,3,1,1978.6999999955297,401050.5,7015,elated,AF,B,400584,400585,398856,399868,398856,400834,400384,400384,400834,112
109,test,1,con,1,m,Tue Aug 13 2024 13:40:36 GMT-0500 (Central Daylight Time),405028.3999999985,step,900,O,m,m,None,556,356.0,200.0,66,1,1995.3999999985099,403033.0,7015,step,AF,B,402467,402467,400838,401751,400838,402834,402267,402267,402833,113
110,test,1,inc,1,m,Tue Aug 13 2024 13:40:36 GMT-0500 (Central Daylight Time),407261.19999999553,friend,1100,O,m,m,None,595,396.0,199.0,112,1,2229.10000000149,405032.09999999404,7015,napkin,AF,B,404667,404667,402837,403950,402837,405066,404466,404467,405066,114
111,test,1,inc,1,m,Tue Aug 13 2024 13:40:36 GMT-0500 (Central Daylight Time),409310.299999997,love,1000,O,m,m,None,512,312.0,200.0,71,1,2045.2999999970198,407265.0,7015,step,AF,B,406799,406799,405070,406082,405070,407115,406599,406599,407115,115
112,test,1,con,1,m,Tue Aug 13 2024 13:40:36 GMT-0500 (Central Daylight Time),411326.3999999985,remote,900,O,m,m,None,578,379.0,199.0,114,1,2012.5,409313.8999999985,7015,remote,AF,B,408748,408748,407119,408032,407119,409131,408549,408549,409131,116
113,test,1,con,1,m,Tue Aug 13 2024 13:40:36 GMT-0500 (Central Daylight Time),413475.8999999985,rock,1100,O,m,m,None,513,314.0,199.0,76,1,2145.8000000044703,411330.09999999404,7015,rock,AF,B,410965,410965,409135,410248,409135,411281,410765,410765,411281,117
114,test,1,inc,1,m,Tue Aug 13 2024 13:40:36 GMT-0500 (Central Daylight Time),415675.299999997,love,1000,O,m,m,None,656,457.0,199.0,79,1,2195.7000000029802,413479.59999999404,7015,rock,AF,B,413014,413014,411285,412297,411285,413480,412814,412814,413480,118
115,test,1,con,1,z,Tue Aug 13 2024 13:40:36 GMT-0500 (Central Daylight Time),417757.799999997,friend,900,O,z,z,None,646,446.0,200.0,26,1,2078.89999999851,415678.8999999985,7015,friend,AF,B,415113,415113,413484,414397,413484,415563,414913,414913,415563,119
116,test,1,inc,1,z,Tue Aug 13 2024 13:40:36 GMT-0500 (Central Daylight Time),419674.0,step,800,O,z,z,None,575,375.0,200.0,45,1,1912.4000000059605,417761.59999999404,7015,hate,AF,B,417096,417096,415567,416380,415567,417479,416896,416896,417479,120
117,test,1,con,1,z,Tue Aug 13 2024 13:40:36 GMT-0500 (Central Daylight Time),421423.19999999553,hate,800,O,z,z,None,411,211.0,200.0,41,1,1745.6000000014901,419677.59999999404,7015,hate,AF,B,419012,419012,417483,418296,417483,419228,418812,418812,419228,121
118,test,1,inc,1,z,Tue Aug 13 2024 13:40:36 GMT-0500 (Central Daylight Time),423506.0,remote,1000,O,z,z,None,541,342.0,199.0,7,1,2079.2000000029802,421426.799999997,7015,elated,AF,B,420961,420961,419232,420247,419232,421311,420762,420762,421311,122
119,test,1,inc,1,z,Tue Aug 13 2024 13:40:36 GMT-0500 (Central Daylight Time),425505.299999997,rock,900,O,z,z,None,551,351.0,200.0,14,1,1995.2999999970198,423510.0,7015,kind,AF,B,422944,422944,421315,422228,421315,423310,422744,422744,423310,123
120,test,1,inc,1,m,Tue Aug 13 2024 13:40:36 GMT-0500 (Central Daylight Time),427638.0,temper,1000,O,m,m,None,596,396.0,200.0,111,1,2129.2000000029802,425508.799999997,7015,napkin,AF,B,425043,425043,423314,424327,423314,425443,424843,424843,425443,124
121,test,1,inc,1,m,Tue Aug 13 2024 13:40:36 GMT-0500 (Central Daylight Time),429704.09999999404,brutal,900,O,m,m,None,627,427.0,200.0,102,1,2062.39999999851,427641.69999999553,7015,jacket,AF,B,427076,427076,425447,426360,425447,427509,426876,426876,427509,125
122,test,1,inc,1,m,Tue Aug 13 2024 13:40:36 GMT-0500 (Central Daylight Time),431470.19999999553,elated,800,O,m,m,None,421,221.0,200.0,101,1,1762.6000000014901,429707.59999999404,7015,jacket,AF,B,429042,429042,427513,428326,427513,429275,428842,428842,429275,126
123,test,1,inc,1,z,Tue Aug 13 2024 13:40:36 GMT-0500 (Central Daylight Time),433669.69999999553,window,1100,O,z,z,None,563,363.0,200.0,8,1,2195.7999999970198,431473.8999999985,7015,elated,AF,B,431108,431108,429279,430392,429279,431475,430908,430908,431474,127
124,test,1,inc,1,m,Tue Aug 13 2024 13:40:36 GMT-0500 (Central Daylight Time),435902.19999999553,friend,1100,O,m,m,None,586,387.0,199.0,120,1,2229.0,433673.19999999553,7015,remote,AF,B,433308,433308,431478,432591,431478,433707,433108,433108,433707,128
