Number,acc_sum,block,block_c,block_cond,con_img,correct,correct_response,datetime,endtime,jitter,project,response,response_time,row_sel,session_number,start_end,starttime,subject_id,task,task_vers,trial
8,1,prac,1,A,circle.png,1,m,Tue Mar 17 2026 14:13:54 GMT-0500 (Central Daylight Time),85048.79999995232,1600,O,m,980,7,1,3371.1999999284744,81677.60000002384,7780,NTS,A,1
1,2,prac,1,A,circle.png,1,z,Tue Mar 17 2026 14:13:54 GMT-0500 (Central Daylight Time),87547.5,1000,O,z,701,1,1,2484.600000023842,85062.89999997616,7780,NTS,A,2
6,3,prac,1,A,circle.png,1,m,Tue Mar 17 2026 14:13:54 GMT-0500 (Central Daylight Time),91245.60000002384,1900,O,m,1007,5,1,3686.8000000715256,87558.79999995232,7780,NTS,A,3
9,4,prac,1,A,circle.png,1,m,Tue Mar 17 2026 14:13:54 GMT-0500 (Central Daylight Time),94261.39999997616,1500,O,m,725,8,1,3011.0,91250.39999997616,7780,NTS,A,4
2,5,prac,1,A,circle.png,1,z,Tue Mar 17 2026 14:13:54 GMT-0500 (Central Daylight Time),97728.19999992847,2000,O,z,672,2,1,3462.399999976158,94265.79999995232,7780,NTS,A,5
4,6,prac,1,A,circle.png,1,z,Tue Mar 17 2026 14:13:54 GMT-0500 (Central Daylight Time),100760.19999992847,1400,O,z,840,4,1,3025.0,97735.19999992847,7780,NTS,A,6
9,7,prac,1,A,circle.png,1,m,Tue Mar 17 2026 14:13:54 GMT-0500 (Central Daylight Time),103876.10000002384,1500,O,m,829,8,1,3108.100000023842,100768.0,7780,NTS,A,7
8,8,prac,1,A,circle.png,1,m,Tue Mar 17 2026 14:13:54 GMT-0500 (Central Daylight Time),107039.89999997616,1600,O,m,773,7,1,3155.2999999523163,103884.60000002384,7780,NTS,A,8
6,9,prac,1,A,circle.png,1,m,Tue Mar 17 2026 14:13:54 GMT-0500 (Central Daylight Time),110456.89999997616,1900,O,m,722,5,1,3413.5,107043.39999997616,7780,NTS,A,9
3,10,prac,1,A,circle.png,1,z,Tue Mar 17 2026 14:13:54 GMT-0500 (Central Daylight Time),113173.5,1200,O,z,726,3,1,2712.2000000476837,110461.29999995232,7780,NTS,A,10
7,11,prac,1,A,circle.png,1,m,Tue Mar 17 2026 14:13:54 GMT-0500 (Central Daylight Time),116619.29999995232,1700,O,m,962,6,1,3438.399999976158,113180.89999997616,7780,NTS,A,11
4,12,prac,1,A,circle.png,1,z,Tue Mar 17 2026 14:13:54 GMT-0500 (Central Daylight Time),119638.19999992847,1400,O,z,818,4,1,3010.5,116627.69999992847,7780,NTS,A,12
1,1,prac,1,B,triangle.png,1,z,Tue Mar 17 2026 14:13:54 GMT-0500 (Central Daylight Time),151259.69999992847,1900,O,z,1028,1,1,3706.2999999523163,147553.39999997616,7780,NTS,A,1
9,2,prac,1,B,triangle.png,1,z,Tue Mar 17 2026 14:13:54 GMT-0500 (Central Daylight Time),154228.0,1400,O,z,772,8,1,2964.100000023842,151263.89999997616,7780,NTS,A,2
3,3,prac,1,B,triangle.png,1,z,Tue Mar 17 2026 14:13:54 GMT-0500 (Central Daylight Time),157261.5,1600,O,z,662,3,1,3025.8000000715256,154235.69999992847,7780,NTS,A,3
4,4,prac,1,B,triangle.png,1,m,Tue Mar 17 2026 14:13:54 GMT-0500 (Central Daylight Time),160125.0,1500,O,m,576,4,1,2856.899999976158,157268.10000002384,7780,NTS,A,4
8,5,prac,1,B,triangle.png,1,m,Tue Mar 17 2026 14:13:54 GMT-0500 (Central Daylight Time),162957.19999992847,1200,O,m,837,7,1,2823.0999999046326,160134.10000002384,7780,NTS,A,5
2,6,prac,1,B,triangle.png,1,m,Tue Mar 17 2026 14:13:54 GMT-0500 (Central Daylight Time),166457.5,1700,O,m,1008,2,1,3494.2000000476837,162963.29999995232,7780,NTS,A,6
6,7,prac,1,B,triangle.png,1,m,Tue Mar 17 2026 14:13:54 GMT-0500 (Central Daylight Time),169055.69999992847,1000,O,m,808,5,1,2588.899999976158,166466.79999995232,7780,NTS,A,7
6,8,prac,1,B,triangle.png,1,m,Tue Mar 17 2026 14:13:54 GMT-0500 (Central Daylight Time),171988.79999995232,1000,O,m,1163,5,1,2925.1999999284744,169063.60000002384,7780,NTS,A,8
9,8,prac,1,B,triangle.png,0,z,Tue Mar 17 2026 14:13:54 GMT-0500 (Central Daylight Time),175686.39999997616,1400,O,None,1517,8,1,3691.0,171995.39999997616,7780,NTS,A,9
2,9,prac,1,B,triangle.png,1,m,Tue Mar 17 2026 14:13:54 GMT-0500 (Central Daylight Time),179203.0,1700,O,m,1016,2,1,3509.2000000476837,175693.79999995232,7780,NTS,A,10
8,10,prac,1,B,triangle.png,1,m,Tue Mar 17 2026 14:13:54 GMT-0500 (Central Daylight Time),181921.10000002384,1200,O,m,741,7,1,2710.7000000476837,179210.39999997616,7780,NTS,A,11
7,11,prac,1,B,triangle.png,1,z,Tue Mar 17 2026 14:13:54 GMT-0500 (Central Daylight Time),185366.0,2000,O,z,659,6,1,3438.2000000476837,181927.79999995232,7780,NTS,A,12
7,1,test,1,A,circle.png,1,m,Tue Mar 17 2026 14:13:54 GMT-0500 (Central Daylight Time),215740.69999992847,1700,O,m,577,6,1,2294.6999999284744,213446.0,7780,NTS,A,1
2,2,test,1,A,circle.png,1,z,Tue Mar 17 2026 14:13:54 GMT-0500 (Central Daylight Time),218306.69999992847,2000,O,z,540,2,1,2561.5999999046326,215745.10000002384,7780,NTS,A,2
4,3,test,1,A,circle.png,1,z,Tue Mar 17 2026 14:13:54 GMT-0500 (Central Daylight Time),220505.29999995232,1400,O,z,773,4,1,2192.399999976158,218312.89999997616,7780,NTS,A,3
2,4,test,1,A,circle.png,1,z,Tue Mar 17 2026 14:13:54 GMT-0500 (Central Daylight Time),223037.29999995232,2000,O,z,511,2,1,2529.1999999284744,220508.10000002384,7780,NTS,A,4
8,5,test,1,A,circle.png,1,m,Tue Mar 17 2026 14:13:54 GMT-0500 (Central Daylight Time),225104.39999997616,1600,O,m,433,7,1,2062.7000000476837,223041.69999992847,7780,NTS,A,5
1,6,test,1,A,circle.png,1,z,Tue Mar 17 2026 14:13:54 GMT-0500 (Central Daylight Time),226771.60000002384,1000,O,z,648,1,1,1663.0,225108.60000002384,7780,NTS,A,6
3,7,test,1,A,circle.png,1,z,Tue Mar 17 2026 14:13:54 GMT-0500 (Central Daylight Time),228604.19999992847,1200,O,z,600,3,1,1827.7999999523163,226776.39999997616,7780,NTS,A,7
8,8,test,1,A,circle.png,1,m,Tue Mar 17 2026 14:13:54 GMT-0500 (Central Daylight Time),230885.79999995232,1600,O,m,652,7,1,2274.5,228611.29999995232,7780,NTS,A,8
7,9,test,1,A,circle.png,1,m,Tue Mar 17 2026 14:13:54 GMT-0500 (Central Daylight Time),233335.0,1700,O,m,727,6,1,2443.899999976158,230891.10000002384,7780,NTS,A,9
4,10,test,1,A,circle.png,1,z,Tue Mar 17 2026 14:13:54 GMT-0500 (Central Daylight Time),235466.29999995232,1400,O,z,712,4,1,2127.399999976158,233338.89999997616,7780,NTS,A,10
3,11,test,1,A,circle.png,1,z,Tue Mar 17 2026 14:13:54 GMT-0500 (Central Daylight Time),237466.29999995232,1200,O,z,772,3,1,1994.7999999523163,235471.5,7780,NTS,A,11
9,12,test,1,A,circle.png,1,m,Tue Mar 17 2026 14:13:54 GMT-0500 (Central Daylight Time),239615.29999995232,1500,O,m,616,8,1,2144.5,237470.79999995232,7780,NTS,A,12
6,13,test,1,A,circle.png,1,m,Tue Mar 17 2026 14:13:54 GMT-0500 (Central Daylight Time),242298.69999992847,1900,O,m,756,5,1,2679.5999999046326,239619.10000002384,7780,NTS,A,13
6,14,test,1,A,circle.png,1,m,Tue Mar 17 2026 14:13:54 GMT-0500 (Central Daylight Time),244797.79999995232,1900,O,m,570,5,1,2495.6999999284744,242302.10000002384,7780,NTS,A,14
2,15,test,1,A,circle.png,1,z,Tue Mar 17 2026 14:13:54 GMT-0500 (Central Daylight Time),247396.39999997616,2000,O,z,569,2,1,2594.2000000476837,244802.19999992847,7780,NTS,A,15
6,16,test,1,A,circle.png,1,m,Tue Mar 17 2026 14:13:54 GMT-0500 (Central Daylight Time),249846.69999992847,1900,O,m,519,5,1,2445.399999976158,247401.29999995232,7780,NTS,A,16
8,17,test,1,A,circle.png,1,m,Tue Mar 17 2026 14:13:54 GMT-0500 (Central Daylight Time),251928.29999995232,1600,O,m,450,7,1,2077.899999976158,249850.39999997616,7780,NTS,A,17
1,18,test,1,A,circle.png,1,z,Tue Mar 17 2026 14:13:54 GMT-0500 (Central Daylight Time),253396.19999992847,1000,O,z,447,1,1,1462.6999999284744,251933.5,7780,NTS,A,18
1,19,test,1,A,circle.png,1,z,Tue Mar 17 2026 14:13:54 GMT-0500 (Central Daylight Time),254861.79999995232,1000,O,z,444,1,1,1459.0,253402.79999995232,7780,NTS,A,19
7,20,test,1,A,circle.png,1,m,Tue Mar 17 2026 14:13:54 GMT-0500 (Central Daylight Time),257126.39999997616,1700,O,m,542,6,1,2261.0,254865.39999997616,7780,NTS,A,20
8,21,test,1,A,circle.png,1,m,Tue Mar 17 2026 14:13:54 GMT-0500 (Central Daylight Time),259276.69999992847,1600,O,m,531,7,1,2145.2999999523163,257131.39999997616,7780,NTS,A,21
9,22,test,1,A,circle.png,1,m,Tue Mar 17 2026 14:13:54 GMT-0500 (Central Daylight Time),261259.39999997616,1500,O,m,456,8,1,1978.3999999761581,259281.0,7780,NTS,A,22
2,23,test,1,A,circle.png,1,z,Tue Mar 17 2026 14:13:54 GMT-0500 (Central Daylight Time),263791.5,2000,O,z,500,2,1,2527.100000023842,261264.39999997616,7780,NTS,A,23
7,24,test,1,A,circle.png,1,m,Tue Mar 17 2026 14:13:54 GMT-0500 (Central Daylight Time),266025.10000002384,1700,O,m,509,6,1,2228.5,263796.60000002384,7780,NTS,A,24
8,1,test,1,B,triangle.png,1,m,Tue Mar 17 2026 14:13:54 GMT-0500 (Central Daylight Time),283619.1999999285,1700,O,m,656,15,1,2376.7999999523163,281242.39999997616,7780,NTS,A,1
9,2,test,1,B,triangle.png,1,z,Tue Mar 17 2026 14:13:54 GMT-0500 (Central Daylight Time),286284.39999997616,1900,O,z,747,16,1,2660.0,283624.39999997616,7780,NTS,A,2
2,3,test,1,B,triangle.png,1,m,Tue Mar 17 2026 14:13:54 GMT-0500 (Central Daylight Time),288467.39999997616,1200,O,m,964,10,1,2178.2000000476837,286289.1999999285,7780,NTS,A,3
2,4,test,1,B,triangle.png,1,m,Tue Mar 17 2026 14:13:54 GMT-0500 (Central Daylight Time),290466.6999999285,1200,O,m,773,10,1,1995.1999999284744,288471.5,7780,NTS,A,4
6,5,test,1,B,triangle.png,1,m,Tue Mar 17 2026 14:13:54 GMT-0500 (Central Daylight Time),292866.0,1500,O,m,875,13,1,2394.7000000476837,290471.2999999523,7780,NTS,A,5
9,6,test,1,B,triangle.png,1,z,Tue Mar 17 2026 14:13:54 GMT-0500 (Central Daylight Time),294981.6999999285,1400,O,z,697,8,1,2111.2999999523163,292870.39999997616,7780,NTS,A,6
4,7,test,1,B,triangle.png,1,m,Tue Mar 17 2026 14:13:54 GMT-0500 (Central Daylight Time),296764.60000002384,1000,O,m,754,12,1,1778.5,294986.10000002384,7780,NTS,A,7
6,8,test,1,B,triangle.png,1,m,Tue Mar 17 2026 14:13:54 GMT-0500 (Central Daylight Time),298597.7999999523,1000,O,m,805,5,1,1827.7999999523163,296770.0,7780,NTS,A,8
7,9,test,1,B,triangle.png,1,z,Tue Mar 17 2026 14:13:54 GMT-0500 (Central Daylight Time),301446.1999999285,2000,O,z,820,6,1,2843.6999999284744,298602.5,7780,NTS,A,9
7,10,test,1,B,triangle.png,1,z,Tue Mar 17 2026 14:13:54 GMT-0500 (Central Daylight Time),303812.0,1600,O,z,749,14,1,2361.7000000476837,301450.2999999523,7780,NTS,A,10
4,11,test,1,B,triangle.png,1,m,Tue Mar 17 2026 14:13:54 GMT-0500 (Central Daylight Time),305978.1999999285,1500,O,m,631,4,1,2160.1999999284744,303818.0,7780,NTS,A,11
3,12,test,1,B,triangle.png,1,z,Tue Mar 17 2026 14:13:54 GMT-0500 (Central Daylight Time),308246.10000002384,1600,O,z,635,3,1,2261.5,305984.60000002384,7780,NTS,A,12
1,13,test,1,B,triangle.png,1,z,Tue Mar 17 2026 14:13:54 GMT-0500 (Central Daylight Time),310894.89999997616,1900,O,z,720,1,1,2646.2000000476837,308248.6999999285,7780,NTS,A,13
2,14,test,1,B,triangle.png,1,m,Tue Mar 17 2026 14:13:54 GMT-0500 (Central Daylight Time),313225.6999999285,1700,O,m,607,2,1,2326.0999999046326,310899.60000002384,7780,NTS,A,14
8,15,test,1,B,triangle.png,1,m,Tue Mar 17 2026 14:13:54 GMT-0500 (Central Daylight Time),315025.7999999523,1200,O,m,567,7,1,1793.7999999523163,313232.0,7780,NTS,A,15
6,16,test,1,B,triangle.png,1,m,Tue Mar 17 2026 14:13:54 GMT-0500 (Central Daylight Time),317028.7999999523,1500,O,m,482,13,1,1997.6999999284744,315031.10000002384,7780,NTS,A,16
1,17,test,1,B,triangle.png,1,z,Tue Mar 17 2026 14:13:54 GMT-0500 (Central Daylight Time),318975.10000002384,1400,O,z,518,9,1,1942.5,317032.60000002384,7780,NTS,A,17
3,18,test,1,B,triangle.png,1,z,Tue Mar 17 2026 14:13:54 GMT-0500 (Central Daylight Time),321658.1999999285,2000,O,z,660,11,1,2678.0999999046326,318980.10000002384,7780,NTS,A,18
6,19,test,1,B,triangle.png,1,m,Tue Mar 17 2026 14:13:54 GMT-0500 (Central Daylight Time),323340.7999999523,1000,O,m,652,5,1,1678.6000000238419,321662.1999999285,7780,NTS,A,19
1,20,test,1,B,triangle.png,1,z,Tue Mar 17 2026 14:13:54 GMT-0500 (Central Daylight Time),326005.39999997616,1900,O,z,737,1,1,2658.2999999523163,323347.10000002384,7780,NTS,A,20
7,21,test,1,B,triangle.png,1,z,Tue Mar 17 2026 14:13:54 GMT-0500 (Central Daylight Time),328872.2999999523,2000,O,z,841,6,1,2861.399999976158,326010.89999997616,7780,NTS,A,21
2,22,test,1,B,triangle.png,1,m,Tue Mar 17 2026 14:13:54 GMT-0500 (Central Daylight Time),331152.60000002384,1700,O,m,556,2,1,2274.3000000715256,328878.2999999523,7780,NTS,A,22
3,23,test,1,B,triangle.png,1,z,Tue Mar 17 2026 14:13:54 GMT-0500 (Central Daylight Time),333736.39999997616,2000,O,z,550,11,1,2581.399999976158,331155.0,7780,NTS,A,23
3,24,test,1,B,triangle.png,1,z,Tue Mar 17 2026 14:13:54 GMT-0500 (Central Daylight Time),335952.39999997616,1600,O,z,585,3,1,2211.100000023842,333741.2999999523,7780,NTS,A,24
6,0,prac,1,C,circle.png,0,m,Tue Mar 17 2026 14:13:54 GMT-0500 (Central Daylight Time),377274.60000002384,2000,O,None,1516,5,1,4291.900000095367,372982.6999999285,7780,NTS,A,1
2,0,prac,1,C,triangle.png,0,m,Tue Mar 17 2026 14:13:54 GMT-0500 (Central Daylight Time),381172.7999999523,1600,O,None,1516,2,1,3892.1999999284744,377280.60000002384,7780,NTS,A,2
8,1,prac,1,C,triangle.png,1,m,Tue Mar 17 2026 14:13:54 GMT-0500 (Central Daylight Time),384470.0,1400,O,m,1100,7,1,3290.7000000476837,381179.2999999523,7780,NTS,A,3
7,2,prac,1,C,triangle.png,1,z,Tue Mar 17 2026 14:13:54 GMT-0500 (Central Daylight Time),387569.60000002384,1200,O,z,1117,6,1,3094.0,384475.60000002384,7780,NTS,A,4
2,3,prac,1,C,triangle.png,1,m,Tue Mar 17 2026 14:13:54 GMT-0500 (Central Daylight Time),391116.89999997616,1600,O,m,1150,2,1,3542.2000000476837,387574.6999999285,7780,NTS,A,5
7,4,prac,1,C,triangle.png,1,z,Tue Mar 17 2026 14:13:54 GMT-0500 (Central Daylight Time),394201.10000002384,1200,O,z,1092,6,1,3080.8000000715256,391120.2999999523,7780,NTS,A,6
9,5,prac,1,C,circle.png,1,m,Tue Mar 17 2026 14:13:54 GMT-0500 (Central Daylight Time),397866.1999999285,1900,O,m,972,8,1,3659.0999999046326,394207.10000002384,7780,NTS,A,7
1,6,prac,1,C,circle.png,1,z,Tue Mar 17 2026 14:13:54 GMT-0500 (Central Daylight Time),401248.89999997616,1700,O,z,899,1,1,3373.600000023842,397875.2999999523,7780,NTS,A,8
4,7,prac,1,C,circle.png,1,z,Tue Mar 17 2026 14:13:54 GMT-0500 (Central Daylight Time),403914.7999999523,1000,O,z,882,4,1,2660.600000023842,401254.1999999285,7780,NTS,A,9
3,8,prac,1,C,triangle.png,1,z,Tue Mar 17 2026 14:13:54 GMT-0500 (Central Daylight Time),407429.0,1500,O,z,1226,3,1,3507.8000000715256,403921.1999999285,7780,NTS,A,10
1,9,prac,1,C,circle.png,1,z,Tue Mar 17 2026 14:13:54 GMT-0500 (Central Daylight Time),410929.6999999285,1700,O,z,1009,1,1,3497.0999999046326,407432.60000002384,7780,NTS,A,11
3,10,prac,1,C,triangle.png,1,z,Tue Mar 17 2026 14:13:54 GMT-0500 (Central Daylight Time),414195.7999999523,1500,O,z,988,3,1,3259.399999976158,410936.39999997616,7780,NTS,A,12
2,0,test,1,C,circle.png,0,z,Tue Mar 17 2026 14:13:54 GMT-0500 (Central Daylight Time),436570.0,1700,O,m,1073,18,1,2789.600000023842,433780.39999997616,7780,NTS,A,1
7,0,test,1,C,circle.png,0,m,Tue Mar 17 2026 14:13:54 GMT-0500 (Central Daylight Time),440102.1999999285,2000,O,None,1516,14,1,3527.5999999046326,436574.60000002384,7780,NTS,A,2
1,1,test,1,C,triangle.png,1,z,Tue Mar 17 2026 14:13:54 GMT-0500 (Central Daylight Time),442868.7999999523,1900,O,z,842,17,1,2761.5,440107.2999999523,7780,NTS,A,3
2,2,test,1,C,circle.png,1,z,Tue Mar 17 2026 14:13:54 GMT-0500 (Central Daylight Time),445633.2999999523,1700,O,z,1033,10,1,2756.899999976158,442876.39999997616,7780,NTS,A,4
2,3,test,1,C,triangle.png,1,m,Tue Mar 17 2026 14:13:54 GMT-0500 (Central Daylight Time),448666.5,2000,O,m,1015,2,1,3023.7000000476837,445642.7999999523,7780,NTS,A,5
1,4,test,1,C,triangle.png,1,z,Tue Mar 17 2026 14:13:54 GMT-0500 (Central Daylight Time),451531.89999997616,1900,O,z,940,9,1,2857.399999976158,448674.5,7780,NTS,A,6
9,5,test,1,C,circle.png,1,m,Tue Mar 17 2026 14:13:54 GMT-0500 (Central Daylight Time),453947.60000002384,1500,O,m,889,8,1,2410.2000000476837,451537.39999997616,7780,NTS,A,7
4,6,test,1,C,triangle.png,1,m,Tue Mar 17 2026 14:13:54 GMT-0500 (Central Daylight Time),456564.2999999523,1500,O,m,1090,20,1,2612.2999999523163,453952.0,7780,NTS,A,8
6,7,test,1,C,circle.png,1,m,Tue Mar 17 2026 14:13:54 GMT-0500 (Central Daylight Time),459679.7999999523,1900,O,m,1193,21,1,3111.0,456568.7999999523,7780,NTS,A,9
8,8,test,1,C,triangle.png,1,m,Tue Mar 17 2026 14:13:54 GMT-0500 (Central Daylight Time),462429.60000002384,1600,O,m,1130,23,1,2745.9000000953674,459683.6999999285,7780,NTS,A,10
8,9,test,1,C,circle.png,1,m,Tue Mar 17 2026 14:13:54 GMT-0500 (Central Daylight Time),464495.1999999285,1200,O,m,837,15,1,2059.5,462435.6999999285,7780,NTS,A,11
6,10,test,1,C,circle.png,1,m,Tue Mar 17 2026 14:13:54 GMT-0500 (Central Daylight Time),467211.10000002384,1900,O,m,798,5,1,2710.8000000715256,464500.2999999523,7780,NTS,A,12
3,11,test,1,C,triangle.png,1,z,Tue Mar 17 2026 14:13:54 GMT-0500 (Central Daylight Time),469392.6999999285,1200,O,z,948,3,1,2175.899999976158,467216.7999999523,7780,NTS,A,13
3,11,test,1,C,circle.png,0,z,Tue Mar 17 2026 14:13:54 GMT-0500 (Central Daylight Time),472526.10000002384,1600,O,None,1515,11,1,3130.2000000476837,469395.89999997616,7780,NTS,A,14
7,12,test,1,C,triangle.png,1,z,Tue Mar 17 2026 14:13:54 GMT-0500 (Central Daylight Time),475141.0,1700,O,z,884,22,1,2609.5,472531.5,7780,NTS,A,15
1,13,test,1,C,circle.png,1,z,Tue Mar 17 2026 14:13:54 GMT-0500 (Central Daylight Time),477474.2999999523,1000,O,z,1318,1,1,2329.5,475144.7999999523,7780,NTS,A,16
7,14,test,1,C,triangle.png,1,z,Tue Mar 17 2026 14:13:54 GMT-0500 (Central Daylight Time),480289.7999999523,1700,O,z,1084,6,1,2810.399999976158,477479.39999997616,7780,NTS,A,17
9,15,test,1,C,circle.png,1,m,Tue Mar 17 2026 14:13:54 GMT-0500 (Central Daylight Time),482956.1999999285,1500,O,m,1141,24,1,2661.5999999046326,480294.60000002384,7780,NTS,A,18
3,16,test,1,C,circle.png,1,z,Tue Mar 17 2026 14:13:54 GMT-0500 (Central Daylight Time),485372.39999997616,1600,O,z,790,19,1,2411.7999999523163,482960.60000002384,7780,NTS,A,19
9,17,test,1,C,triangle.png,1,z,Tue Mar 17 2026 14:13:54 GMT-0500 (Central Daylight Time),487820.6999999285,1400,O,z,1021,16,1,2443.0,485377.6999999285,7780,NTS,A,20
4,18,test,1,C,triangle.png,1,m,Tue Mar 17 2026 14:13:54 GMT-0500 (Central Daylight Time),490603.39999997616,1500,O,m,1266,12,1,2779.899999976158,487823.5,7780,NTS,A,21
6,19,test,1,C,triangle.png,1,m,Tue Mar 17 2026 14:13:54 GMT-0500 (Central Daylight Time),492352.39999997616,1000,O,m,725,13,1,1744.6000000238419,490607.7999999523,7780,NTS,A,22
8,20,test,1,C,triangle.png,1,m,Tue Mar 17 2026 14:13:54 GMT-0500 (Central Daylight Time),494918.2999999523,1600,O,m,937,7,1,2559.7999999523163,492358.5,7780,NTS,A,23
4,21,test,1,C,circle.png,1,z,Tue Mar 17 2026 14:13:54 GMT-0500 (Central Daylight Time),497317.7999999523,1400,O,z,979,4,1,2394.399999976158,494923.39999997616,7780,NTS,A,24
7,0,test,2,C,circle.png,0,m,Tue Mar 17 2026 14:13:54 GMT-0500 (Central Daylight Time),507647.2999999523,2000,O,None,1515,14,1,3525.600000023842,504121.6999999285,7780,NTS,A,1
6,1,test,2,C,circle.png,1,m,Tue Mar 17 2026 14:13:54 GMT-0500 (Central Daylight Time),510247.2999999523,1900,O,m,679,5,1,2594.899999976158,507652.39999997616,7780,NTS,A,2
1,2,test,2,C,circle.png,1,z,Tue Mar 17 2026 14:13:54 GMT-0500 (Central Daylight Time),511962.6999999285,1000,O,z,693,1,1,1712.0,510250.6999999285,7780,NTS,A,3
1,3,test,2,C,triangle.png,1,z,Tue Mar 17 2026 14:13:54 GMT-0500 (Central Daylight Time),514762.7999999523,1900,O,z,875,17,1,2794.600000023842,511968.1999999285,7780,NTS,A,4
4,4,test,2,C,circle.png,1,z,Tue Mar 17 2026 14:13:54 GMT-0500 (Central Daylight Time),517211.6999999285,1400,O,z,1021,4,1,2444.7999999523163,514766.89999997616,7780,NTS,A,5
3,5,test,2,C,circle.png,1,z,Tue Mar 17 2026 14:13:54 GMT-0500 (Central Daylight Time),519693.2999999523,1600,O,z,853,19,1,2476.100000023842,517217.1999999285,7780,NTS,A,6
6,6,test,2,C,triangle.png,1,m,Tue Mar 17 2026 14:13:54 GMT-0500 (Central Daylight Time),521942.5,1000,O,m,1217,21,1,2245.5,519697.0,7780,NTS,A,7
4,6,test,2,C,triangle.png,0,m,Tue Mar 17 2026 14:13:54 GMT-0500 (Central Daylight Time),524276.89999997616,1500,O,z,817,12,1,2329.5,521947.39999997616,7780,NTS,A,8
9,7,test,2,C,circle.png,1,m,Tue Mar 17 2026 14:13:54 GMT-0500 (Central Daylight Time),526557.5,1500,O,m,762,8,1,2275.600000023842,524281.89999997616,7780,NTS,A,9
2,8,test,2,C,circle.png,1,z,Tue Mar 17 2026 14:13:54 GMT-0500 (Central Daylight Time),529107.0,1700,O,z,822,18,1,2544.600000023842,526562.3999999762,7780,NTS,A,10
3,9,test,2,C,circle.png,1,z,Tue Mar 17 2026 14:13:54 GMT-0500 (Central Daylight Time),531457.5,1600,O,z,717,11,1,2345.7000000476837,529111.7999999523,7780,NTS,A,11
1,10,test,2,C,triangle.png,1,z,Tue Mar 17 2026 14:13:54 GMT-0500 (Central Daylight Time),534156.2999999523,1900,O,z,781,9,1,2693.5,531462.7999999523,7780,NTS,A,12
9,11,test,2,C,triangle.png,1,z,Tue Mar 17 2026 14:13:54 GMT-0500 (Central Daylight Time),536474.1999999285,1400,O,z,892,16,1,2312.0,534162.1999999285,7780,NTS,A,13
7,12,test,2,C,circle.png,1,m,Tue Mar 17 2026 14:13:54 GMT-0500 (Central Daylight Time),539687.7999999523,2000,O,m,1185,22,1,3208.600000023842,536479.1999999285,7780,NTS,A,14
7,13,test,2,C,triangle.png,1,z,Tue Mar 17 2026 14:13:54 GMT-0500 (Central Daylight Time),542402.6000000238,1700,O,z,989,6,1,2708.8000000715256,539693.7999999523,7780,NTS,A,15
2,14,test,2,C,triangle.png,1,m,Tue Mar 17 2026 14:13:54 GMT-0500 (Central Daylight Time),545385.1000000238,2000,O,m,958,2,1,2974.0,542411.1000000238,7780,NTS,A,16
8,15,test,2,C,triangle.png,1,m,Tue Mar 17 2026 14:13:54 GMT-0500 (Central Daylight Time),548318.1000000238,1600,O,m,1312,7,1,2927.8000000715256,545390.2999999523,7780,NTS,A,17
6,16,test,2,C,triangle.png,1,m,Tue Mar 17 2026 14:13:54 GMT-0500 (Central Daylight Time),550001.1999999285,1000,O,m,651,13,1,1679.1999999284744,548322.0,7780,NTS,A,18
3,17,test,2,C,triangle.png,1,z,Tue Mar 17 2026 14:13:54 GMT-0500 (Central Daylight Time),552100.8999999762,1200,O,z,882,3,1,2096.2999999523163,550004.6000000238,7780,NTS,A,19
8,18,test,2,C,circle.png,1,m,Tue Mar 17 2026 14:13:54 GMT-0500 (Central Daylight Time),553999.6000000238,1200,O,m,676,23,1,1893.3000000715256,552106.2999999523,7780,NTS,A,20
9,18,test,2,C,triangle.png,0,z,Tue Mar 17 2026 14:13:54 GMT-0500 (Central Daylight Time),556631.3999999762,1400,O,m,1202,24,1,2626.2000000476837,554005.1999999285,7780,NTS,A,21
8,19,test,2,C,circle.png,1,m,Tue Mar 17 2026 14:13:54 GMT-0500 (Central Daylight Time),558880.1999999285,1200,O,m,1031,15,1,2241.5999999046326,556638.6000000238,7780,NTS,A,22
4,20,test,2,C,triangle.png,1,m,Tue Mar 17 2026 14:13:54 GMT-0500 (Central Daylight Time),561879.5,1500,O,m,1474,20,1,2996.8000000715256,558882.6999999285,7780,NTS,A,23
2,21,test,2,C,circle.png,1,z,Tue Mar 17 2026 14:13:54 GMT-0500 (Central Daylight Time),564746.0,1700,O,z,1141,10,1,2859.100000023842,561886.8999999762,7780,NTS,A,24
8,0,test,3,C,triangle.png,0,m,Tue Mar 17 2026 14:13:54 GMT-0500 (Central Daylight Time),575093.3999999762,1600,O,None,1516,7,1,3126.2000000476837,571967.1999999285,7780,NTS,A,1
3,1,test,3,C,triangle.png,1,z,Tue Mar 17 2026 14:13:54 GMT-0500 (Central Daylight Time),577058.2999999523,1200,O,z,732,19,1,1960.3999999761581,575097.8999999762,7780,NTS,A,2
9,2,test,3,C,circle.png,1,m,Tue Mar 17 2026 14:13:54 GMT-0500 (Central Daylight Time),579490.8999999762,1500,O,m,906,24,1,2424.7999999523163,577066.1000000238,7780,NTS,A,3
2,3,test,3,C,triangle.png,1,m,Tue Mar 17 2026 14:13:54 GMT-0500 (Central Daylight Time),582639.3999999762,2000,O,m,1124,18,1,3144.2999999523163,579495.1000000238,7780,NTS,A,4
2,4,test,3,C,triangle.png,1,m,Tue Mar 17 2026 14:13:54 GMT-0500 (Central Daylight Time),585372.1999999285,2000,O,m,704,2,1,2727.6999999284744,582644.5,7780,NTS,A,5
9,5,test,3,C,circle.png,1,m,Tue Mar 17 2026 14:13:54 GMT-0500 (Central Daylight Time),587922.2999999523,1500,O,m,1026,8,1,2546.2999999523163,585376.0,7780,NTS,A,6
2,5,test,3,C,circle.png,0,z,Tue Mar 17 2026 14:13:54 GMT-0500 (Central Daylight Time),591155.1999999285,1700,O,None,1516,10,1,3229.0999999046326,587926.1000000238,7780,NTS,A,7
8,6,test,3,C,circle.png,1,m,Tue Mar 17 2026 14:13:54 GMT-0500 (Central Daylight Time),593086.1999999285,1200,O,m,710,15,1,1925.1999999284744,591161.0,7780,NTS,A,8
3,7,test,3,C,circle.png,1,z,Tue Mar 17 2026 14:13:54 GMT-0500 (Central Daylight Time),595685.1999999285,1600,O,z,975,11,1,2594.899999976158,593090.2999999523,7780,NTS,A,9
3,8,test,3,C,triangle.png,1,z,Tue Mar 17 2026 14:13:54 GMT-0500 (Central Daylight Time),598101.3999999762,1200,O,z,1185,3,1,2413.5,595687.8999999762,7780,NTS,A,10
6,9,test,3,C,triangle.png,1,m,Tue Mar 17 2026 14:13:54 GMT-0500 (Central Daylight Time),599985.2999999523,1000,O,m,866,13,1,1878.1999999284744,598107.1000000238,7780,NTS,A,11
8,10,test,3,C,triangle.png,1,m,Tue Mar 17 2026 14:13:54 GMT-0500 (Central Daylight Time),602350.6999999285,1600,O,m,734,23,1,2361.5999999046326,599989.1000000238,7780,NTS,A,12
6,11,test,3,C,circle.png,1,m,Tue Mar 17 2026 14:13:54 GMT-0500 (Central Daylight Time),605218.1999999285,1900,O,m,934,5,1,2862.0999999046326,602356.1000000238,7780,NTS,A,13
9,12,test,3,C,triangle.png,1,z,Tue Mar 17 2026 14:13:54 GMT-0500 (Central Daylight Time),608082.6999999285,1400,O,z,1440,16,1,2860.2999999523163,605222.3999999762,7780,NTS,A,14
1,13,test,3,C,triangle.png,1,z,Tue Mar 17 2026 14:13:54 GMT-0500 (Central Daylight Time),610881.3999999762,1900,O,z,875,9,1,2794.5,608086.8999999762,7780,NTS,A,15
1,14,test,3,C,circle.png,1,z,Tue Mar 17 2026 14:13:54 GMT-0500 (Central Daylight Time),612914.7999999523,1000,O,z,1015,1,1,2028.0,610886.7999999523,7780,NTS,A,16
1,15,test,3,C,circle.png,1,z,Tue Mar 17 2026 14:13:54 GMT-0500 (Central Daylight Time),614897.5,1000,O,z,951,17,1,1976.0,612921.5,7780,NTS,A,17
7,16,test,3,C,circle.png,1,m,Tue Mar 17 2026 14:13:54 GMT-0500 (Central Daylight Time),618062.0,2000,O,m,1135,14,1,3158.8000000715256,614903.1999999285,7780,NTS,A,18
7,17,test,3,C,triangle.png,1,z,Tue Mar 17 2026 14:13:54 GMT-0500 (Central Daylight Time),620894.8999999762,1700,O,z,1102,22,1,2828.2000000476837,618066.6999999285,7780,NTS,A,19
4,18,test,3,C,circle.png,1,z,Tue Mar 17 2026 14:13:54 GMT-0500 (Central Daylight Time),623293.8999999762,1400,O,z,976,4,1,2393.7000000476837,620900.1999999285,7780,NTS,A,20
6,19,test,3,C,circle.png,1,m,Tue Mar 17 2026 14:13:54 GMT-0500 (Central Daylight Time),626042.6999999285,1900,O,m,822,21,1,2744.399999976158,623298.2999999523,7780,NTS,A,21
4,20,test,3,C,circle.png,1,z,Tue Mar 17 2026 14:13:54 GMT-0500 (Central Daylight Time),628109.2999999523,1400,O,z,638,20,1,2061.899999976158,626047.3999999762,7780,NTS,A,22
7,21,test,3,C,triangle.png,1,z,Tue Mar 17 2026 14:13:54 GMT-0500 (Central Daylight Time),630840.6000000238,1700,O,z,997,6,1,2727.5,628113.1000000238,7780,NTS,A,23
4,22,test,3,C,triangle.png,1,m,Tue Mar 17 2026 14:13:54 GMT-0500 (Central Daylight Time),633174.1999999285,1500,O,m,804,12,1,2329.0,630845.1999999285,7780,NTS,A,24
7,1,test,4,C,triangle.png,1,z,Tue Mar 17 2026 14:13:54 GMT-0500 (Central Daylight Time),640723.0,1700,O,z,1183,6,1,2896.0,637827.0,7780,NTS,A,1
3,2,test,4,C,circle.png,1,z,Tue Mar 17 2026 14:13:54 GMT-0500 (Central Daylight Time),643155.0,1600,O,z,808,11,1,2427.7000000476837,640727.2999999523,7780,NTS,A,2
2,3,test,4,C,triangle.png,1,m,Tue Mar 17 2026 14:13:54 GMT-0500 (Central Daylight Time),646653.3999999762,2000,O,m,1481,2,1,3491.0,643162.3999999762,7780,NTS,A,3
6,4,test,4,C,circle.png,1,m,Tue Mar 17 2026 14:13:54 GMT-0500 (Central Daylight Time),649568.7999999523,1900,O,m,983,5,1,2909.7999999523163,646659.0,7780,NTS,A,4
3,5,test,4,C,triangle.png,1,z,Tue Mar 17 2026 14:13:54 GMT-0500 (Central Daylight Time),651668.6000000238,1200,O,z,866,19,1,2095.0,649573.6000000238,7780,NTS,A,5
3,6,test,4,C,triangle.png,1,z,Tue Mar 17 2026 14:13:54 GMT-0500 (Central Daylight Time),653633.2999999523,1200,O,z,741,3,1,1958.8999999761581,651674.3999999762,7780,NTS,A,6
8,7,test,4,C,triangle.png,1,m,Tue Mar 17 2026 14:13:54 GMT-0500 (Central Daylight Time),656101.1000000238,1600,O,m,840,23,1,2464.0,653637.1000000238,7780,NTS,A,7
8,8,test,4,C,circle.png,1,m,Tue Mar 17 2026 14:13:54 GMT-0500 (Central Daylight Time),658034.0,1200,O,m,701,15,1,1926.7000000476837,656107.2999999523,7780,NTS,A,8
9,9,test,4,C,circle.png,1,m,Tue Mar 17 2026 14:13:54 GMT-0500 (Central Daylight Time),660332.2999999523,1500,O,m,769,8,1,2293.600000023842,658038.6999999285,7780,NTS,A,9
7,10,test,4,C,circle.png,1,m,Tue Mar 17 2026 14:13:54 GMT-0500 (Central Daylight Time),663248.2999999523,2000,O,m,892,14,1,2911.0,660337.2999999523,7780,NTS,A,10
8,11,test,4,C,triangle.png,1,m,Tue Mar 17 2026 14:13:54 GMT-0500 (Central Daylight Time),666163.3999999762,1600,O,m,1286,7,1,2910.100000023842,663253.2999999523,7780,NTS,A,11
9,12,test,4,C,circle.png,1,m,Tue Mar 17 2026 14:13:54 GMT-0500 (Central Daylight Time),668430.0,1500,O,m,732,24,1,2263.399999976158,666166.6000000238,7780,NTS,A,12
6,13,test,4,C,triangle.png,1,m,Tue Mar 17 2026 14:13:54 GMT-0500 (Central Daylight Time),670629.1999999285,1000,O,m,1178,13,1,2192.5,668436.6999999285,7780,NTS,A,13
9,13,test,4,C,triangle.png,0,z,Tue Mar 17 2026 14:13:54 GMT-0500 (Central Daylight Time),673563.0,1400,O,None,1517,16,1,2927.0,670636.0,7780,NTS,A,14
1,14,test,4,C,triangle.png,1,z,Tue Mar 17 2026 14:13:54 GMT-0500 (Central Daylight Time),676161.1000000238,1900,O,z,665,9,1,2591.7000000476837,673569.3999999762,7780,NTS,A,15
7,15,test,4,C,triangle.png,1,z,Tue Mar 17 2026 14:13:54 GMT-0500 (Central Daylight Time),678794.0,1700,O,z,908,22,1,2627.2000000476837,676166.7999999523,7780,NTS,A,16
4,16,test,4,C,triangle.png,1,m,Tue Mar 17 2026 14:13:54 GMT-0500 (Central Daylight Time),681125.8999999762,1500,O,m,804,12,1,2327.899999976158,678798.0,7780,NTS,A,17
2,17,test,4,C,triangle.png,1,m,Tue Mar 17 2026 14:13:54 GMT-0500 (Central Daylight Time),684091.6000000238,2000,O,m,942,18,1,2961.8000000715256,681129.7999999523,7780,NTS,A,18
6,18,test,4,C,circle.png,1,m,Tue Mar 17 2026 14:13:54 GMT-0500 (Central Daylight Time),686722.7999999523,1900,O,m,703,21,1,2624.899999976158,684097.8999999762,7780,NTS,A,19
4,19,test,4,C,circle.png,1,z,Tue Mar 17 2026 14:13:54 GMT-0500 (Central Daylight Time),688906.1999999285,1400,O,z,758,4,1,2180.0999999046326,686726.1000000238,7780,NTS,A,20
4,20,test,4,C,circle.png,1,z,Tue Mar 17 2026 14:13:54 GMT-0500 (Central Daylight Time),691038.5,1400,O,z,702,20,1,2127.600000023842,688910.8999999762,7780,NTS,A,21
1,21,test,4,C,circle.png,1,z,Tue Mar 17 2026 14:13:54 GMT-0500 (Central Daylight Time),692821.6000000238,1000,O,z,752,1,1,1778.1000000238419,691043.5,7780,NTS,A,22
2,22,test,4,C,circle.png,1,z,Tue Mar 17 2026 14:13:54 GMT-0500 (Central Daylight Time),695404.7999999523,1700,O,z,865,10,1,2575.899999976158,692828.8999999762,7780,NTS,A,23
1,23,test,4,C,circle.png,1,z,Tue Mar 17 2026 14:13:54 GMT-0500 (Central Daylight Time),697171.0,1000,O,z,748,17,1,1761.7000000476837,695409.2999999523,7780,NTS,A,24
