acc_sum,block,block_c,change,condition,correct,correct_response,datetime,endtime,face,project,response,response_time,row_sel,session_number,start_end,starttime,subject_id,task,task_vers,trial
0,prac,1,,1-Back,,,Tue Mar 10 2026 14:34:40 GMT-0500 (Central Daylight Time),,124_o_f_d_a.png,O,space,3355,1,1,,,7775,VNB,A,0
1,prac,1,0.0,1-Back,1.0,m,Tue Mar 10 2026 14:34:40 GMT-0500 (Central Daylight Time),157430.20000000298,071_y_f_n_a.png,O,m,1098,2,1,1907.6000000089407,155522.59999999404,7775,VNB,A,1
2,prac,1,0.0,1-Back,1.0,m,Tue Mar 10 2026 14:34:40 GMT-0500 (Central Daylight Time),159579.5,165_m_m_h_a.png,O,m,1344,3,1,2141.4000000059605,157438.09999999404,7775,VNB,A,2
2,prac,1,0.0,1-Back,0.0,m,Tue Mar 10 2026 14:34:40 GMT-0500 (Central Daylight Time),161495.39999999106,109_y_m_d_a.png,O,z,1111,4,1,1908.3999999910593,159587.0,7775,VNB,A,3
2,prac,1,0.0,1-Back,0.0,m,Tue Mar 10 2026 14:34:40 GMT-0500 (Central Daylight Time),164328.0,124_o_f_n_a.png,O,None,2003,5,1,2825.2999999970198,161502.70000000298,7775,VNB,A,4
2,prac,1,1.0,1-Back,0.0,z,Tue Mar 10 2026 14:34:40 GMT-0500 (Central Daylight Time),167143.79999999702,109_y_m_n_a.png,O,None,2011,6,1,2808.7999999970198,164335.0,7775,VNB,A,5
2,prac,1,0.0,1-Back,0.0,m,Tue Mar 10 2026 14:34:40 GMT-0500 (Central Daylight Time),169942.79999999702,039_o_m_h_a.png,O,None,2001,7,1,2792.0999999940395,167150.70000000298,7775,VNB,A,6
3,prac,1,0.0,1-Back,1.0,m,Tue Mar 10 2026 14:34:40 GMT-0500 (Central Daylight Time),171642.59999999404,139_m_f_d_a.png,O,m,897,8,1,1692.5,169950.09999999404,7775,VNB,A,7
3,prac,1,1.0,1-Back,0.0,z,Tue Mar 10 2026 14:34:40 GMT-0500 (Central Daylight Time),173641.79999999702,071_y_f_d_a.png,O,m,1197,9,1,1991.5999999940395,171650.20000000298,7775,VNB,A,8
3,prac,1,0.0,1-Back,0.0,m,Tue Mar 10 2026 14:34:40 GMT-0500 (Central Daylight Time),176457.39999999106,165_m_m_n_a.png,O,None,2016,10,1,2808.3999999910593,173649.0,7775,VNB,A,9
3,prac,1,0.0,1-Back,0.0,m,Tue Mar 10 2026 14:34:40 GMT-0500 (Central Daylight Time),179289.89999999106,124_o_f_h_a.png,O,None,2016,11,1,2826.0999999940395,176463.79999999702,7775,VNB,A,10
3,prac,1,0.0,1-Back,0.0,m,Tue Mar 10 2026 14:34:40 GMT-0500 (Central Daylight Time),182072.29999999702,109_y_m_d_a.png,O,None,2008,12,1,2775.0999999940395,179297.20000000298,7775,VNB,A,11
0,prac,2,0.0,1-Back,,,Tue Mar 10 2026 14:34:40 GMT-0500 (Central Daylight Time),182072.29999999702,124_o_f_d_a.png,O,a,12552,1,1,2775.0999999940395,179297.20000000298,7775,VNB,A,0
1,prac,2,0.0,1-Back,1.0,m,Tue Mar 10 2026 14:34:40 GMT-0500 (Central Daylight Time),200050.39999999106,071_y_f_n_a.png,O,m,1593,2,1,2390.5999999940395,197659.79999999702,7775,VNB,A,1
1,prac,2,0.0,1-Back,0.0,m,Tue Mar 10 2026 14:34:40 GMT-0500 (Central Daylight Time),202865.89999999106,165_m_m_h_a.png,O,None,2015,3,1,2808.3999999910593,200057.5,7775,VNB,A,2
1,prac,2,0.0,1-Back,0.0,m,Tue Mar 10 2026 14:34:40 GMT-0500 (Central Daylight Time),205282.20000000298,109_y_m_d_a.png,O,z,1631,4,1,2410.1000000089407,202872.09999999404,7775,VNB,A,3
1,prac,2,0.0,1-Back,0.0,m,Tue Mar 10 2026 14:34:40 GMT-0500 (Central Daylight Time),208114.29999999702,124_o_f_n_a.png,O,None,2003,5,1,2824.7000000029802,205289.59999999404,7775,VNB,A,4
1,prac,2,1.0,1-Back,0.0,z,Tue Mar 10 2026 14:34:40 GMT-0500 (Central Daylight Time),210930.5,109_y_m_n_a.png,O,None,2010,6,1,2808.7000000029802,208121.79999999702,7775,VNB,A,5
1,prac,2,0.0,1-Back,0.0,m,Tue Mar 10 2026 14:34:40 GMT-0500 (Central Daylight Time),213479.20000000298,039_o_m_h_a.png,O,z,1752,7,1,2541.9000000059605,210937.29999999702,7775,VNB,A,6
1,prac,2,0.0,1-Back,0.0,m,Tue Mar 10 2026 14:34:40 GMT-0500 (Central Daylight Time),216295.20000000298,139_m_f_d_a.png,O,None,2005,8,1,2807.5,213487.70000000298,7775,VNB,A,7
1,prac,2,1.0,1-Back,0.0,z,Tue Mar 10 2026 14:34:40 GMT-0500 (Central Daylight Time),219094.09999999404,071_y_f_d_a.png,O,None,2001,9,1,2791.5999999940395,216302.5,7775,VNB,A,8
1,prac,2,0.0,1-Back,0.0,m,Tue Mar 10 2026 14:34:40 GMT-0500 (Central Daylight Time),221911.70000000298,165_m_m_n_a.png,O,None,2017,10,1,2810.2000000029802,219101.5,7775,VNB,A,9
2,prac,2,0.0,1-Back,1.0,m,Tue Mar 10 2026 14:34:40 GMT-0500 (Central Daylight Time),223393.09999999404,124_o_f_h_a.png,O,m,662,11,1,1474.0999999940395,221919.0,7775,VNB,A,10
3,prac,2,0.0,1-Back,1.0,m,Tue Mar 10 2026 14:34:40 GMT-0500 (Central Daylight Time),225525.70000000298,109_y_m_d_a.png,O,m,1343,12,1,2125.300000011921,223400.39999999106,7775,VNB,A,11
0,prac,3,0.0,1-Back,,,Tue Mar 10 2026 14:34:40 GMT-0500 (Central Daylight Time),225525.70000000298,124_o_f_d_a.png,O,a,6520,1,1,2125.300000011921,223400.39999999106,7775,VNB,A,0
1,prac,3,0.0,1-Back,1.0,m,Tue Mar 10 2026 14:34:40 GMT-0500 (Central Daylight Time),236823.20000000298,071_y_f_n_a.png,O,m,924,2,1,1726.6000000089407,235096.59999999404,7775,VNB,A,1
1,prac,3,0.0,1-Back,0.0,m,Tue Mar 10 2026 14:34:40 GMT-0500 (Central Daylight Time),239637.89999999106,165_m_m_h_a.png,O,None,2016,3,1,2807.2999999970198,236830.59999999404,7775,VNB,A,2
1,prac,3,0.0,1-Back,0.0,m,Tue Mar 10 2026 14:34:40 GMT-0500 (Central Daylight Time),242503.79999999702,109_y_m_d_a.png,O,None,2101,4,1,2858.0,239645.79999999702,7775,VNB,A,3
2,prac,3,0.0,1-Back,1.0,m,Tue Mar 10 2026 14:34:40 GMT-0500 (Central Daylight Time),244186.39999999106,124_o_f_n_a.png,O,m,849,5,1,1674.699999988079,242511.70000000298,7775,VNB,A,4
3,prac,3,1.0,1-Back,1.0,z,Tue Mar 10 2026 14:34:40 GMT-0500 (Central Daylight Time),246269.20000000298,109_y_m_n_a.png,O,z,1263,6,1,2075.5,244193.70000000298,7775,VNB,A,5
4,prac,3,0.0,1-Back,1.0,m,Tue Mar 10 2026 14:34:40 GMT-0500 (Central Daylight Time),248118.79999999702,039_o_m_h_a.png,O,m,1035,7,1,1842.2999999970198,246276.5,7775,VNB,A,6
5,prac,3,0.0,1-Back,1.0,m,Tue Mar 10 2026 14:34:40 GMT-0500 (Central Daylight Time),250051.39999999106,139_m_f_d_a.png,O,m,1120,8,1,1925.199999988079,248126.20000000298,7775,VNB,A,7
6,prac,3,1.0,1-Back,1.0,z,Tue Mar 10 2026 14:34:40 GMT-0500 (Central Daylight Time),251950.79999999702,071_y_f_d_a.png,O,z,1093,9,1,1891.5999999940395,250059.20000000298,7775,VNB,A,8
7,prac,3,0.0,1-Back,1.0,m,Tue Mar 10 2026 14:34:40 GMT-0500 (Central Daylight Time),253550.29999999702,165_m_m_n_a.png,O,m,792,10,1,1592.0999999940395,251958.20000000298,7775,VNB,A,9
8,prac,3,0.0,1-Back,1.0,m,Tue Mar 10 2026 14:34:40 GMT-0500 (Central Daylight Time),255399.89999999106,124_o_f_h_a.png,O,m,1018,11,1,1843.0999999940395,253556.79999999702,7775,VNB,A,10
9,prac,3,0.0,1-Back,1.0,m,Tue Mar 10 2026 14:34:40 GMT-0500 (Central Daylight Time),257199.20000000298,109_y_m_d_a.png,O,m,1018,12,1,1792.300000011921,255406.89999999106,7775,VNB,A,11
0,test,1,0.0,1-Back,,,Tue Mar 10 2026 14:34:40 GMT-0500 (Central Daylight Time),257199.20000000298,071_y_f_d_a.png,O,space,5459,1,1,1792.300000011921,255406.89999999106,7775,VNB,A,0
1,test,1,0.0,1-Back,1.0,m,Tue Mar 10 2026 14:34:40 GMT-0500 (Central Daylight Time),277126.299999997,139_m_f_n_a.png,O,m,1226,2,1,2244.2000000029802,274882.09999999404,7775,VNB,A,1
2,test,1,0.0,1-Back,1.0,m,Tue Mar 10 2026 14:34:40 GMT-0500 (Central Daylight Time),279092.200000003,039_o_m_h_a.png,O,m,937,3,1,1961.4000000059605,277130.799999997,7775,VNB,A,2
3,test,1,1.0,1-Back,1.0,z,Tue Mar 10 2026 14:34:40 GMT-0500 (Central Daylight Time),281374.89999999106,165_m_m_h_a.png,O,z,1259,4,1,2278.0999999940395,279096.799999997,7775,VNB,A,3
4,test,1,0.0,1-Back,1.0,m,Tue Mar 10 2026 14:34:40 GMT-0500 (Central Daylight Time),283225.09999999404,124_o_f_n_a.png,O,m,817,5,1,1845.7999999970198,281379.299999997,7775,VNB,A,4
4,test,1,0.0,1-Back,0.0,m,Tue Mar 10 2026 14:34:40 GMT-0500 (Central Daylight Time),285490.299999997,109_y_m_d_a.png,O,z,1247,6,1,2260.9000000059605,283229.39999999106,7775,VNB,A,5
5,test,1,1.0,1-Back,1.0,z,Tue Mar 10 2026 14:34:40 GMT-0500 (Central Daylight Time),287489.59999999404,139_m_f_d_a.png,O,z,973,7,1,1994.7000000029802,285494.89999999106,7775,VNB,A,6
6,test,1,0.0,1-Back,1.0,m,Tue Mar 10 2026 14:34:40 GMT-0500 (Central Daylight Time),289272.59999999404,071_y_f_h_a.png,O,m,750,8,1,1778.5,287494.09999999404,7775,VNB,A,7
7,test,1,0.0,1-Back,1.0,m,Tue Mar 10 2026 14:34:40 GMT-0500 (Central Daylight Time),291871.200000003,039_o_m_n_a.png,O,m,1567,9,1,2593.4000000059605,289277.799999997,7775,VNB,A,8
7,test,1,0.0,1-Back,0.0,m,Tue Mar 10 2026 14:34:40 GMT-0500 (Central Daylight Time),294254.0,109_y_m_h_a.png,O,z,1352,10,1,2378.7999999970198,291875.200000003,7775,VNB,A,9
7,test,1,0.0,1-Back,0.0,m,Tue Mar 10 2026 14:34:40 GMT-0500 (Central Daylight Time),297286.39999999106,039_o_m_d_a.png,O,None,2015,11,1,3028.5999999940395,294257.799999997,7775,VNB,A,10
7,test,1,1.0,1-Back,0.0,z,Tue Mar 10 2026 14:34:40 GMT-0500 (Central Daylight Time),300319.09999999404,124_o_f_d_a.png,O,None,2016,12,1,3027.7000000029802,297291.39999999106,7775,VNB,A,11
7,test,1,0.0,1-Back,0.0,m,Tue Mar 10 2026 14:34:40 GMT-0500 (Central Daylight Time),302718.39999999106,165_m_m_n_a.png,O,z,1377,13,1,2394.7999999970198,300323.59999999404,7775,VNB,A,12
8,test,1,1.0,1-Back,1.0,z,Tue Mar 10 2026 14:34:40 GMT-0500 (Central Daylight Time),304634.09999999404,071_y_f_n_a.png,O,z,897,14,1,1910.5999999940395,302723.5,7775,VNB,A,13
9,test,1,0.0,1-Back,1.0,m,Tue Mar 10 2026 14:34:40 GMT-0500 (Central Daylight Time),306483.89999999106,139_m_f_h_a.png,O,m,830,15,1,1846.0999999940395,304637.799999997,7775,VNB,A,14
10,test,1,0.0,1-Back,1.0,m,Tue Mar 10 2026 14:34:40 GMT-0500 (Central Daylight Time),309316.39999999106,165_m_m_d_a.png,O,m,1813,16,1,2828.5999999940395,306487.799999997,7775,VNB,A,15
10,test,1,0.0,1-Back,0.0,m,Tue Mar 10 2026 14:34:40 GMT-0500 (Central Daylight Time),311781.700000003,109_y_m_n_a.png,O,z,1435,17,1,2461.1000000089407,309320.59999999404,7775,VNB,A,16
11,test,1,0.0,1-Back,1.0,m,Tue Mar 10 2026 14:34:40 GMT-0500 (Central Daylight Time),314231.0,124_o_f_h_a.png,O,m,1425,18,1,2444.5,311786.5,7775,VNB,A,17
0,test,2,0.0,1-Back,,,Tue Mar 10 2026 14:34:40 GMT-0500 (Central Daylight Time),314231.0,109_y_m_n_a.png,O,space,29097,1,1,2444.5,311786.5,7775,VNB,A,0
1,test,2,0.0,1-Back,1.0,m,Tue Mar 10 2026 14:34:40 GMT-0500 (Central Daylight Time),347204.39999999106,071_y_f_h_a.png,O,m,820,2,1,1844.699999988079,345359.700000003,7775,VNB,A,1
2,test,2,1.0,1-Back,1.0,m,Tue Mar 10 2026 14:34:40 GMT-0500 (Central Daylight Time),349586.700000003,039_o_m_n_a.png,O,m,1356,3,1,2376.300000011921,347210.39999999106,7775,VNB,A,2
2,test,2,0.0,1-Back,0.0,m,Tue Mar 10 2026 14:34:40 GMT-0500 (Central Daylight Time),351319.700000003,139_m_f_d_a.png,O,z,700,4,1,1728.800000011921,349590.89999999106,7775,VNB,A,3
3,test,2,0.0,1-Back,1.0,z,Tue Mar 10 2026 14:34:40 GMT-0500 (Central Daylight Time),353585.700000003,165_m_m_d_a.png,O,z,1248,5,1,2261.6000000089407,351324.09999999404,7775,VNB,A,4
4,test,2,0.0,1-Back,1.0,m,Tue Mar 10 2026 14:34:40 GMT-0500 (Central Daylight Time),355318.5,109_y_m_h_a.png,O,m,711,6,1,1728.7000000029802,353589.799999997,7775,VNB,A,5
5,test,2,1.0,1-Back,1.0,z,Tue Mar 10 2026 14:34:40 GMT-0500 (Central Daylight Time),357884.200000003,124_o_f_h_a.png,O,z,1546,7,1,2561.4000000059605,355322.799999997,7775,VNB,A,6
6,test,2,0.0,1-Back,1.0,m,Tue Mar 10 2026 14:34:40 GMT-0500 (Central Daylight Time),360116.89999999106,139_m_f_n_a.png,O,m,1212,8,1,2228.5,357888.39999999106,7775,VNB,A,7
6,test,2,0.0,1-Back,0.0,m,Tue Mar 10 2026 14:34:40 GMT-0500 (Central Daylight Time),362666.200000003,071_y_f_d_a.png,O,z,1531,9,1,2545.2000000029802,360121.0,7775,VNB,A,8
6,test,2,0.0,1-Back,0.0,m,Tue Mar 10 2026 14:34:40 GMT-0500 (Central Daylight Time),364948.799999997,165_m_m_n_a.png,O,z,1253,10,1,2279.0,362669.799999997,7775,VNB,A,9
7,test,2,1.0,1-Back,1.0,m,Tue Mar 10 2026 14:34:40 GMT-0500 (Central Daylight Time),366781.59999999404,139_m_f_h_a.png,O,m,803,11,1,1828.3999999910593,364953.200000003,7775,VNB,A,10
8,test,2,0.0,1-Back,1.0,z,Tue Mar 10 2026 14:34:40 GMT-0500 (Central Daylight Time),369647.59999999404,039_o_m_h_a.png,O,z,1843,12,1,2861.2999999970198,366786.299999997,7775,VNB,A,11
9,test,2,0.0,1-Back,1.0,m,Tue Mar 10 2026 14:34:40 GMT-0500 (Central Daylight Time),371529.700000003,109_y_m_d_a.png,O,m,864,13,1,1878.4000000059605,369651.299999997,7775,VNB,A,12
9,test,2,0.0,1-Back,0.0,m,Tue Mar 10 2026 14:34:40 GMT-0500 (Central Daylight Time),373813.799999997,124_o_f_n_a.png,O,z,1261,14,1,2279.9000000059605,371533.89999999106,7775,VNB,A,13
10,test,2,0.0,1-Back,1.0,z,Tue Mar 10 2026 14:34:40 GMT-0500 (Central Daylight Time),376561.700000003,071_y_f_n_a.png,O,z,1731,15,1,2743.6000000089407,373818.09999999404,7775,VNB,A,14
11,test,2,1.0,1-Back,1.0,m,Tue Mar 10 2026 14:34:40 GMT-0500 (Central Daylight Time),378661.299999997,165_m_m_h_a.png,O,m,1069,16,1,2095.5,376565.799999997,7775,VNB,A,15
12,test,2,0.0,1-Back,1.0,m,Tue Mar 10 2026 14:34:40 GMT-0500 (Central Daylight Time),380994.09999999404,124_o_f_d_a.png,O,m,1307,17,1,2328.7000000029802,378665.39999999106,7775,VNB,A,16
13,test,2,1.0,1-Back,1.0,z,Tue Mar 10 2026 14:34:40 GMT-0500 (Central Daylight Time),383171.200000003,039_o_m_d_a.png,O,z,1161,18,1,2172.6000000089407,380998.59999999404,7775,VNB,A,17
0,test,3,1.0,1-Back,,,Tue Mar 10 2026 14:34:40 GMT-0500 (Central Daylight Time),383171.200000003,124_o_f_h_a.png,O,space,14205,1,1,2172.6000000089407,380998.59999999404,7775,VNB,A,0
1,test,3,0.0,1-Back,1.0,m,Tue Mar 10 2026 14:34:40 GMT-0500 (Central Daylight Time),401770.299999997,139_m_f_d_a.png,O,m,1314,2,1,2327.7999999970198,399442.5,7775,VNB,A,1
1,test,3,1.0,1-Back,0.0,m,Tue Mar 10 2026 14:34:40 GMT-0500 (Central Daylight Time),404086.09999999404,165_m_m_n_a.png,O,z,1285,3,1,2311.7999999970198,401774.299999997,7775,VNB,A,2
2,test,3,0.0,1-Back,1.0,z,Tue Mar 10 2026 14:34:40 GMT-0500 (Central Daylight Time),405952.5,124_o_f_n_a.png,O,z,834,4,1,1862.1000000089407,404090.39999999106,7775,VNB,A,3
2,test,3,1.0,1-Back,0.0,m,Tue Mar 10 2026 14:34:40 GMT-0500 (Central Daylight Time),407985.200000003,039_o_m_d_a.png,O,z,1008,5,1,2028.7000000029802,405956.5,7775,VNB,A,4
3,test,3,0.0,1-Back,1.0,m,Tue Mar 10 2026 14:34:40 GMT-0500 (Central Daylight Time),409634.799999997,071_y_f_h_a.png,O,m,622,6,1,1645.5999999940395,407989.200000003,7775,VNB,A,5
4,test,3,0.0,1-Back,1.0,z,Tue Mar 10 2026 14:34:40 GMT-0500 (Central Daylight Time),411284.5,109_y_m_h_a.png,O,z,620,7,1,1645.2999999970198,409639.200000003,7775,VNB,A,6
5,test,3,0.0,1-Back,1.0,m,Tue Mar 10 2026 14:34:40 GMT-0500 (Central Daylight Time),413116.799999997,139_m_f_n_a.png,O,m,811,8,1,1828.9000000059605,411287.89999999106,7775,VNB,A,7
5,test,3,0.0,1-Back,0.0,m,Tue Mar 10 2026 14:34:40 GMT-0500 (Central Daylight Time),415566.0,071_y_f_d_a.png,O,z,1419,9,1,2444.7000000029802,413121.299999997,7775,VNB,A,8
5,test,3,1.0,1-Back,0.0,m,Tue Mar 10 2026 14:34:40 GMT-0500 (Central Daylight Time),417282.0,039_o_m_n_a.png,O,z,689,10,1,1711.9000000059605,415570.09999999404,7775,VNB,A,9
6,test,3,0.0,1-Back,1.0,m,Tue Mar 10 2026 14:34:40 GMT-0500 (Central Daylight Time),419281.5,165_m_m_h_a.png,O,m,973,11,1,1995.9000000059605,417285.59999999404,7775,VNB,A,10
7,test,3,0.0,1-Back,1.0,z,Tue Mar 10 2026 14:34:40 GMT-0500 (Central Daylight Time),421397.59999999404,139_m_f_h_a.png,O,z,1086,12,1,2111.5999999940395,419286.0,7775,VNB,A,11
8,test,3,1.0,1-Back,1.0,m,Tue Mar 10 2026 14:34:40 GMT-0500 (Central Daylight Time),423431.299999997,124_o_f_d_a.png,O,m,1010,13,1,2029.7000000029802,421401.59999999404,7775,VNB,A,12
9,test,3,0.0,1-Back,1.0,z,Tue Mar 10 2026 14:34:40 GMT-0500 (Central Daylight Time),425562.89999999106,165_m_m_d_a.png,O,z,1113,14,1,2127.3999999910593,423435.5,7775,VNB,A,13
9,test,3,0.0,1-Back,0.0,m,Tue Mar 10 2026 14:34:40 GMT-0500 (Central Daylight Time),427512.200000003,109_y_m_n_a.png,O,z,916,15,1,1943.4000000059605,425568.799999997,7775,VNB,A,14
10,test,3,1.0,1-Back,1.0,m,Tue Mar 10 2026 14:34:40 GMT-0500 (Central Daylight Time),429379.39999999106,039_o_m_h_a.png,O,m,847,16,1,1863.0999999940395,427516.299999997,7775,VNB,A,15
11,test,3,0.0,1-Back,1.0,m,Tue Mar 10 2026 14:34:40 GMT-0500 (Central Daylight Time),431877.799999997,109_y_m_d_a.png,O,m,1469,17,1,2494.0999999940395,429383.700000003,7775,VNB,A,16
11,test,3,1.0,1-Back,0.0,m,Tue Mar 10 2026 14:34:40 GMT-0500 (Central Daylight Time),433893.59999999404,071_y_f_n_a.png,O,z,986,18,1,2011.2999999970198,431882.299999997,7775,VNB,A,17
0,test,4,1.0,1-Back,,,Tue Mar 10 2026 14:34:40 GMT-0500 (Central Daylight Time),433893.59999999404,165_m_m_d_a.png,O,space,4578,1,1,2011.2999999970198,431882.299999997,7775,VNB,A,0
1,test,4,0.0,1-Back,1.0,z,Tue Mar 10 2026 14:34:40 GMT-0500 (Central Daylight Time),442057.59999999404,039_o_m_d_a.png,O,z,540,2,1,1561.7999999970198,440495.799999997,7775,VNB,A,1
2,test,4,0.0,1-Back,1.0,m,Tue Mar 10 2026 14:34:40 GMT-0500 (Central Daylight Time),443657.299999997,109_y_m_h_a.png,O,m,574,3,1,1595.7999999970198,442061.5,7775,VNB,A,2
2,test,4,0.0,1-Back,0.0,m,Tue Mar 10 2026 14:34:40 GMT-0500 (Central Daylight Time),445623.200000003,139_m_f_n_a.png,O,z,934,4,1,1961.4000000059605,443661.799999997,7775,VNB,A,3
2,test,4,1.0,1-Back,0.0,m,Tue Mar 10 2026 14:34:40 GMT-0500 (Central Daylight Time),448655.59999999404,124_o_f_h_a.png,O,None,2016,5,1,3028.2999999970198,445627.299999997,7775,VNB,A,4
2,test,4,0.0,1-Back,0.0,m,Tue Mar 10 2026 14:34:40 GMT-0500 (Central Daylight Time),450621.59999999404,165_m_m_n_a.png,O,z,936,6,1,1961.2000000029802,448660.39999999106,7775,VNB,A,5
3,test,4,0.0,1-Back,1.0,m,Tue Mar 10 2026 14:34:40 GMT-0500 (Central Daylight Time),453021.09999999404,109_y_m_d_a.png,O,m,1370,7,1,2395.3999999910593,450625.700000003,7775,VNB,A,6
4,test,4,1.0,1-Back,1.0,z,Tue Mar 10 2026 14:34:40 GMT-0500 (Central Daylight Time),455270.200000003,071_y_f_d_a.png,O,z,1218,8,1,2244.5,453025.700000003,7775,VNB,A,7
5,test,4,0.0,1-Back,1.0,m,Tue Mar 10 2026 14:34:40 GMT-0500 (Central Daylight Time),457269.59999999404,139_m_f_h_a.png,O,m,977,9,1,1996.0,455273.59999999404,7775,VNB,A,8
6,test,4,0.0,1-Back,1.0,z,Tue Mar 10 2026 14:34:40 GMT-0500 (Central Daylight Time),459468.89999999106,039_o_m_h_a.png,O,z,1170,10,1,2195.2999999970198,457273.59999999404,7775,VNB,A,9
7,test,4,1.0,1-Back,1.0,m,Tue Mar 10 2026 14:34:40 GMT-0500 (Central Daylight Time),461618.09999999404,124_o_f_n_a.png,O,m,1131,11,1,2144.8999999910593,459473.200000003,7775,VNB,A,10
7,test,4,0.0,1-Back,0.0,m,Tue Mar 10 2026 14:34:40 GMT-0500 (Central Daylight Time),463517.59999999404,139_m_f_d_a.png,O,z,877,12,1,1895.0,461622.59999999404,7775,VNB,A,11
7,test,4,0.0,1-Back,0.0,m,Tue Mar 10 2026 14:34:40 GMT-0500 (Central Daylight Time),465317.09999999404,071_y_f_n_a.png,O,z,770,13,1,1795.3999999910593,463521.700000003,7775,VNB,A,12
7,test,4,0.0,1-Back,0.0,m,Tue Mar 10 2026 14:34:40 GMT-0500 (Central Daylight Time),467149.89999999106,124_o_f_d_a.png,O,z,802,14,1,1828.7999999970198,465321.09999999404,7775,VNB,A,13
8,test,4,0.0,1-Back,1.0,m,Tue Mar 10 2026 14:34:40 GMT-0500 (Central Daylight Time),469082.59999999404,071_y_f_h_a.png,O,m,912,15,1,1928.3999999910593,467154.200000003,7775,VNB,A,14
9,test,4,1.0,1-Back,1.0,z,Tue Mar 10 2026 14:34:40 GMT-0500 (Central Daylight Time),471348.59999999404,165_m_m_h_a.png,O,z,1244,16,1,2262.3999999910593,469086.200000003,7775,VNB,A,15
10,test,4,0.0,1-Back,1.0,m,Tue Mar 10 2026 14:34:40 GMT-0500 (Central Daylight Time),473231.39999999106,039_o_m_n_a.png,O,m,851,17,1,1877.699999988079,471353.700000003,7775,VNB,A,16
10,test,4,1.0,1-Back,0.0,z,Tue Mar 10 2026 14:34:40 GMT-0500 (Central Daylight Time),476263.89999999106,109_y_m_n_a.png,O,None,2016,18,1,3028.5999999940395,473235.299999997,7775,VNB,A,17
0,test,5,1.0,1-Back,,,Tue Mar 10 2026 14:34:40 GMT-0500 (Central Daylight Time),476263.89999999106,039_o_m_n_a.png,O,space,6072,1,1,3028.5999999940395,473235.299999997,7775,VNB,A,0
1,test,5,1.0,1-Back,1.0,m,Tue Mar 10 2026 14:34:40 GMT-0500 (Central Daylight Time),486077.200000003,124_o_f_h_a.png,O,m,686,2,1,1711.6000000089407,484365.59999999404,7775,VNB,A,1
2,test,5,0.0,1-Back,1.0,m,Tue Mar 10 2026 14:34:40 GMT-0500 (Central Daylight Time),488459.700000003,109_y_m_d_a.png,O,m,1354,3,1,2377.300000011921,486082.39999999106,7775,VNB,A,2
3,test,5,0.0,1-Back,1.0,z,Tue Mar 10 2026 14:34:40 GMT-0500 (Central Daylight Time),490642.39999999106,039_o_m_d_a.png,O,z,1156,4,1,2178.5,488463.89999999106,7775,VNB,A,3
4,test,5,0.0,1-Back,1.0,m,Tue Mar 10 2026 14:34:40 GMT-0500 (Central Daylight Time),492575.299999997,139_m_f_h_a.png,O,m,909,5,1,1928.7000000029802,490646.59999999404,7775,VNB,A,4
5,test,5,0.0,1-Back,1.0,m,Tue Mar 10 2026 14:34:40 GMT-0500 (Central Daylight Time),495507.59999999404,071_y_f_n_a.png,O,m,1911,6,1,2928.0,492579.59999999404,7775,VNB,A,5
6,test,5,1.0,1-Back,1.0,z,Tue Mar 10 2026 14:34:40 GMT-0500 (Central Daylight Time),497840.299999997,124_o_f_n_a.png,O,z,1300,7,1,2328.2999999970198,495512.0,7775,VNB,A,6
6,test,5,0.0,1-Back,0.0,m,Tue Mar 10 2026 14:34:40 GMT-0500 (Central Daylight Time),499706.299999997,139_m_f_d_a.png,O,z,847,8,1,1862.0,497844.299999997,7775,VNB,A,7
7,test,5,0.0,1-Back,1.0,m,Tue Mar 10 2026 14:34:40 GMT-0500 (Central Daylight Time),501472.299999997,109_y_m_h_a.png,O,m,741,9,1,1762.0,499710.299999997,7775,VNB,A,8
8,test,5,0.0,1-Back,1.0,m,Tue Mar 10 2026 14:34:40 GMT-0500 (Central Daylight Time),503838.39999999106,071_y_f_d_a.png,O,m,1335,10,1,2362.2999999970198,501476.09999999404,7775,VNB,A,9
8,test,5,0.0,1-Back,0.0,m,Tue Mar 10 2026 14:34:40 GMT-0500 (Central Daylight Time),506004.39999999106,165_m_m_n_a.png,O,z,1145,11,1,2162.0,503842.39999999106,7775,VNB,A,10
9,test,5,1.0,1-Back,1.0,z,Tue Mar 10 2026 14:34:40 GMT-0500 (Central Daylight Time),508770.200000003,139_m_f_n_a.png,O,z,1747,12,1,2761.7000000029802,506008.5,7775,VNB,A,11
10,test,5,0.0,1-Back,1.0,m,Tue Mar 10 2026 14:34:40 GMT-0500 (Central Daylight Time),510552.89999999106,039_o_m_h_a.png,O,m,757,13,1,1778.8999999910593,508774.0,7775,VNB,A,12
11,test,5,0.0,1-Back,1.0,z,Tue Mar 10 2026 14:34:40 GMT-0500 (Central Daylight Time),512235.700000003,165_m_m_h_a.png,O,z,654,14,1,1679.1000000089407,510556.59999999404,7775,VNB,A,13
12,test,5,1.0,1-Back,1.0,m,Tue Mar 10 2026 14:34:40 GMT-0500 (Central Daylight Time),514301.799999997,124_o_f_d_a.png,O,m,1036,15,1,2062.2999999970198,512239.5,7775,VNB,A,14
12,test,5,0.0,1-Back,0.0,m,Tue Mar 10 2026 14:34:40 GMT-0500 (Central Daylight Time),516367.799999997,109_y_m_n_a.png,O,z,1034,16,1,2062.2000000029802,514305.59999999404,7775,VNB,A,15
13,test,5,0.0,1-Back,1.0,m,Tue Mar 10 2026 14:34:40 GMT-0500 (Central Daylight Time),518533.799999997,071_y_f_h_a.png,O,m,1144,17,1,2162.2000000029802,516371.59999999404,7775,VNB,A,16
14,test,5,0.0,1-Back,1.0,m,Tue Mar 10 2026 14:34:40 GMT-0500 (Central Daylight Time),520799.700000003,165_m_m_d_a.png,O,m,1233,18,1,2261.4000000059605,518538.299999997,7775,VNB,A,17
0,prac,1,0.0,2-Back,,,Tue Mar 10 2026 14:34:40 GMT-0500 (Central Daylight Time),520799.700000003,139_m_f_n_a.png,O,space,4320,1,1,2261.4000000059605,518538.299999997,7775,VNB,A,0
0,prac,1,0.0,2-Back,,,Tue Mar 10 2026 14:34:40 GMT-0500 (Central Daylight Time),520799.700000003,124_o_f_h_a.png,O,space,4320,2,1,2261.4000000059605,518538.299999997,7775,VNB,A,0
0,prac,1,0.0,2-Back,0.0,m,Tue Mar 10 2026 14:34:40 GMT-0500 (Central Daylight Time),648076.799999997,039_o_m_d_a.png,O,z,962,3,1,1759.0999999940395,646317.700000003,7775,VNB,A,1
0,prac,1,1.0,2-Back,0.0,z,Tue Mar 10 2026 14:34:40 GMT-0500 (Central Daylight Time),650892.8999999911,165_m_m_h_a.png,O,None,2016,4,1,2809.199999988079,648083.700000003,7775,VNB,A,2
0,prac,1,0.0,2-Back,0.0,m,Tue Mar 10 2026 14:34:40 GMT-0500 (Central Daylight Time),653708.200000003,071_y_f_n_a.png,O,None,2016,5,1,2808.7000000029802,650899.5,7775,VNB,A,3
0,prac,1,1.0,2-Back,0.0,z,Tue Mar 10 2026 14:34:40 GMT-0500 (Central Daylight Time),656524.0,039_o_m_h_a.png,O,None,2017,6,1,2808.9000000059605,653715.099999994,7775,VNB,A,4
0,prac,1,1.0,2-Back,0.0,z,Tue Mar 10 2026 14:34:40 GMT-0500 (Central Daylight Time),659339.799999997,109_y_m_n_a.png,O,None,2009,7,1,2808.2000000029802,656531.599999994,7775,VNB,A,5
0,prac,1,0.0,2-Back,0.0,m,Tue Mar 10 2026 14:34:40 GMT-0500 (Central Daylight Time),662155.599999994,139_m_f_d_a.png,O,None,2017,8,1,2809.0,659346.599999994,7775,VNB,A,6
0,prac,1,0.0,2-Back,0.0,m,Tue Mar 10 2026 14:34:40 GMT-0500 (Central Daylight Time),665004.700000003,124_o_f_d_a.png,O,None,2016,9,1,2841.1000000089407,662163.599999994,7775,VNB,A,7
0,prac,1,0.0,2-Back,0.0,m,Tue Mar 10 2026 14:34:40 GMT-0500 (Central Daylight Time),667787.299999997,165_m_m_h_a.png,O,None,2009,10,1,2776.0,665011.299999997,7775,VNB,A,8
0,prac,1,1.0,2-Back,0.0,z,Tue Mar 10 2026 14:34:40 GMT-0500 (Central Daylight Time),670602.8999999911,071_y_f_d_a.png,O,None,2016,11,1,2808.8999999910593,667794.0,7775,VNB,A,9
0,prac,1,0.0,2-Back,0.0,m,Tue Mar 10 2026 14:34:40 GMT-0500 (Central Daylight Time),673402.0,039_o_m_n_a.png,O,None,2002,12,1,2793.1000000089407,670608.8999999911,7775,VNB,A,10
0,test,1,0.0,2-Back,,,Tue Mar 10 2026 14:34:40 GMT-0500 (Central Daylight Time),673402.0,109_y_m_h_a.png,O,space,9086,1,1,2793.1000000089407,670608.8999999911,7775,VNB,A,0
0,test,1,0.0,2-Back,,,Tue Mar 10 2026 14:34:40 GMT-0500 (Central Daylight Time),673402.0,124_o_f_n_a.png,O,space,9086,2,1,2793.1000000089407,670608.8999999911,7775,VNB,A,0
1,test,1,0.0,2-Back,1.0,z,Tue Mar 10 2026 14:34:40 GMT-0500 (Central Daylight Time),708441.299999997,039_o_m_h_a.png,O,z,624,3,1,1645.5999999940395,706795.700000003,7775,VNB,A,1
1,test,1,0.0,2-Back,0.0,m,Tue Mar 10 2026 14:34:40 GMT-0500 (Central Daylight Time),710357.200000003,139_m_f_d_a.png,O,z,894,4,1,1911.2000000029802,708446.0,7775,VNB,A,2
2,test,1,1.0,2-Back,1.0,m,Tue Mar 10 2026 14:34:40 GMT-0500 (Central Daylight Time),713150.3999999911,109_y_m_n_a.png,O,m,1776,5,1,2788.699999988079,710361.700000003,7775,VNB,A,3
2,test,1,0.0,2-Back,0.0,z,Tue Mar 10 2026 14:34:40 GMT-0500 (Central Daylight Time),716172.200000003,071_y_f_d_a.png,O,None,2016,6,1,3017.800000011921,713154.3999999911,7775,VNB,A,4
3,test,1,0.0,2-Back,1.0,m,Tue Mar 10 2026 14:34:40 GMT-0500 (Central Daylight Time),719038.700000003,165_m_m_h_a.png,O,m,1843,7,1,2862.300000011921,716176.3999999911,7775,VNB,A,5
3,test,1,1.0,2-Back,0.0,m,Tue Mar 10 2026 14:34:40 GMT-0500 (Central Daylight Time),722071.200000003,071_y_f_n_a.png,O,None,2017,8,1,3028.0,719043.200000003,7775,VNB,A,6
4,test,1,0.0,2-Back,1.0,z,Tue Mar 10 2026 14:34:40 GMT-0500 (Central Daylight Time),724702.700000003,124_o_f_h_a.png,O,z,1609,9,1,2627.4000000059605,722075.299999997,7775,VNB,A,7
4,test,1,0.0,2-Back,0.0,m,Tue Mar 10 2026 14:34:40 GMT-0500 (Central Daylight Time),727735.200000003,039_o_m_d_a.png,O,None,2016,10,1,3028.1000000089407,724707.099999994,7775,VNB,A,8
5,test,1,1.0,2-Back,1.0,m,Tue Mar 10 2026 14:34:40 GMT-0500 (Central Daylight Time),730534.0,165_m_m_d_a.png,O,m,1776,11,1,2794.4000000059605,727739.599999994,7775,VNB,A,9
6,test,1,0.0,2-Back,1.0,m,Tue Mar 10 2026 14:34:40 GMT-0500 (Central Daylight Time),732983.3999999911,139_m_f_n_a.png,O,m,1425,12,1,2445.3999999910593,730538.0,7775,VNB,A,10
6,test,1,0.0,2-Back,0.0,m,Tue Mar 10 2026 14:34:40 GMT-0500 (Central Daylight Time),735483.799999997,071_y_f_h_a.png,O,z,1472,13,1,2496.4000000059605,732987.3999999911,7775,VNB,A,11
7,test,1,0.0,2-Back,1.0,z,Tue Mar 10 2026 14:34:40 GMT-0500 (Central Daylight Time),738115.099999994,165_m_m_n_a.png,O,z,1605,14,1,2627.0,735488.099999994,7775,VNB,A,12
7,test,1,0.0,2-Back,0.0,m,Tue Mar 10 2026 14:34:40 GMT-0500 (Central Daylight Time),740497.700000003,109_y_m_d_a.png,O,z,1356,15,1,2379.0,738118.700000003,7775,VNB,A,13
7,test,1,1.0,2-Back,0.0,m,Tue Mar 10 2026 14:34:40 GMT-0500 (Central Daylight Time),743530.0,139_m_f_h_a.png,O,None,2013,16,1,3028.0,740502.0,7775,VNB,A,14
7,test,1,0.0,2-Back,0.0,z,Tue Mar 10 2026 14:34:40 GMT-0500 (Central Daylight Time),745896.099999994,124_o_f_d_a.png,O,m,1341,17,1,2361.5999999940395,743534.5,7775,VNB,A,15
7,test,1,0.0,2-Back,0.0,m,Tue Mar 10 2026 14:34:40 GMT-0500 (Central Daylight Time),748112.0,039_o_m_n_a.png,O,z,1191,18,1,2212.0,745900.0,7775,VNB,A,16
0,test,2,0.0,2-Back,,,Tue Mar 10 2026 14:34:40 GMT-0500 (Central Daylight Time),748112.0,165_m_m_h_a.png,O,space,11536,1,1,2212.0,745900.0,7775,VNB,A,0
0,test,2,0.0,2-Back,,,Tue Mar 10 2026 14:34:40 GMT-0500 (Central Daylight Time),748112.0,071_y_f_n_a.png,O,space,11536,2,1,2212.0,745900.0,7775,VNB,A,0
1,test,2,1.0,2-Back,1.0,z,Tue Mar 10 2026 14:34:40 GMT-0500 (Central Daylight Time),766456.200000003,124_o_f_h_a.png,O,z,683,3,1,1695.5,764760.700000003,7775,VNB,A,1
1,test,2,0.0,2-Back,0.0,m,Tue Mar 10 2026 14:34:40 GMT-0500 (Central Daylight Time),768588.8999999911,039_o_m_d_a.png,O,z,1103,4,1,2128.5,766460.3999999911,7775,VNB,A,2
2,test,2,0.0,2-Back,1.0,m,Tue Mar 10 2026 14:34:40 GMT-0500 (Central Daylight Time),770838.099999994,139_m_f_d_a.png,O,m,1218,5,1,2245.5999999940395,768592.5,7775,VNB,A,3
2,test,2,0.0,2-Back,0.0,m,Tue Mar 10 2026 14:34:40 GMT-0500 (Central Daylight Time),773870.700000003,109_y_m_h_a.png,O,None,2016,6,1,3028.7000000029802,770842.0,7775,VNB,A,4
2,test,2,0.0,2-Back,0.0,m,Tue Mar 10 2026 14:34:40 GMT-0500 (Central Daylight Time),775753.3999999911,124_o_f_n_a.png,O,z,865,7,1,1878.5999999940395,773874.799999997,7775,VNB,A,5
2,test,2,1.0,2-Back,0.0,z,Tue Mar 10 2026 14:34:40 GMT-0500 (Central Daylight Time),778785.700000003,039_o_m_h_a.png,O,None,2016,8,1,3028.4000000059605,775757.299999997,7775,VNB,A,6
3,test,2,0.0,2-Back,1.0,m,Tue Mar 10 2026 14:34:40 GMT-0500 (Central Daylight Time),780901.799999997,071_y_f_d_a.png,O,m,1094,9,1,2112.2000000029802,778789.599999994,7775,VNB,A,7
4,test,2,0.0,2-Back,1.0,m,Tue Mar 10 2026 14:34:40 GMT-0500 (Central Daylight Time),783250.799999997,109_y_m_d_a.png,O,m,1322,10,1,2345.0999999940395,780905.700000003,7775,VNB,A,8
4,test,2,0.0,2-Back,0.0,m,Tue Mar 10 2026 14:34:40 GMT-0500 (Central Daylight Time),785667.299999997,165_m_m_n_a.png,O,z,1396,11,1,2412.2999999970198,783255.0,7775,VNB,A,9
4,test,2,0.0,2-Back,0.0,m,Tue Mar 10 2026 14:34:40 GMT-0500 (Central Daylight Time),788699.200000003,139_m_f_h_a.png,O,None,2015,12,1,3027.9000000059605,785671.299999997,7775,VNB,A,10
4,test,2,1.0,2-Back,0.0,z,Tue Mar 10 2026 14:34:40 GMT-0500 (Central Daylight Time),791148.5,039_o_m_n_a.png,O,m,1420,13,1,2445.2000000029802,788703.299999997,7775,VNB,A,11
5,test,2,0.0,2-Back,1.0,m,Tue Mar 10 2026 14:34:40 GMT-0500 (Central Daylight Time),793014.599999994,124_o_f_d_a.png,O,m,835,14,1,1861.8999999910593,791152.700000003,7775,VNB,A,12
5,test,2,0.0,2-Back,0.0,m,Tue Mar 10 2026 14:34:40 GMT-0500 (Central Daylight Time),794980.700000003,071_y_f_h_a.png,O,z,937,15,1,1962.1000000089407,793018.599999994,7775,VNB,A,13
5,test,2,0.0,2-Back,0.0,z,Tue Mar 10 2026 14:34:40 GMT-0500 (Central Daylight Time),797380.0,165_m_m_d_a.png,O,m,1371,16,1,2395.2999999970198,794984.700000003,7775,VNB,A,14
5,test,2,0.0,2-Back,0.0,m,Tue Mar 10 2026 14:34:40 GMT-0500 (Central Daylight Time),799730.200000003,109_y_m_n_a.png,O,z,1332,17,1,2345.9000000059605,797384.299999997,7775,VNB,A,15
6,test,2,1.0,2-Back,1.0,m,Tue Mar 10 2026 14:34:40 GMT-0500 (Central Daylight Time),802411.599999994,139_m_f_n_a.png,O,m,1662,18,1,2677.2999999970198,799734.299999997,7775,VNB,A,16
0,test,3,1.0,2-Back,,,Tue Mar 10 2026 14:34:40 GMT-0500 (Central Daylight Time),802411.599999994,039_o_m_n_a.png,O,space,27036,1,1,2677.2999999970198,799734.299999997,7775,VNB,A,0
0,test,3,1.0,2-Back,,,Tue Mar 10 2026 14:34:40 GMT-0500 (Central Daylight Time),802411.599999994,124_o_f_d_a.png,O,space,27036,2,1,2677.2999999970198,799734.299999997,7775,VNB,A,0
1,test,3,0.0,2-Back,1.0,m,Tue Mar 10 2026 14:34:40 GMT-0500 (Central Daylight Time),836351.299999997,071_y_f_h_a.png,O,m,758,3,1,1778.4000000059605,834572.8999999911,7775,VNB,A,1
2,test,3,0.0,2-Back,1.0,z,Tue Mar 10 2026 14:34:40 GMT-0500 (Central Daylight Time),838367.200000003,139_m_f_d_a.png,O,z,984,4,1,2012.300000011921,836354.8999999911,7775,VNB,A,2
3,test,3,1.0,2-Back,1.0,m,Tue Mar 10 2026 14:34:40 GMT-0500 (Central Daylight Time),841132.8999999911,109_y_m_n_a.png,O,m,1744,5,1,2761.5999999940395,838371.299999997,7775,VNB,A,3
4,test,3,0.0,2-Back,1.0,m,Tue Mar 10 2026 14:34:40 GMT-0500 (Central Daylight Time),843648.700000003,039_o_m_h_a.png,O,m,1490,6,1,2512.1000000089407,841136.599999994,7775,VNB,A,4
5,test,3,0.0,2-Back,1.0,z,Tue Mar 10 2026 14:34:40 GMT-0500 (Central Daylight Time),846447.799999997,071_y_f_n_a.png,O,z,1767,7,1,2794.5,843653.299999997,7775,VNB,A,5
5,test,3,1.0,2-Back,0.0,m,Tue Mar 10 2026 14:34:40 GMT-0500 (Central Daylight Time),849480.5,165_m_m_d_a.png,O,None,2015,8,1,3028.1000000089407,846452.3999999911,7775,VNB,A,6
5,test,3,0.0,2-Back,0.0,m,Tue Mar 10 2026 14:34:40 GMT-0500 (Central Daylight Time),851546.299999997,109_y_m_d_a.png,O,z,1039,9,1,2061.7999999970198,849484.5,7775,VNB,A,7
6,test,3,0.0,2-Back,1.0,m,Tue Mar 10 2026 14:34:40 GMT-0500 (Central Daylight Time),853612.299999997,124_o_f_h_a.png,O,m,1037,10,1,2061.7999999970198,851550.5,7775,VNB,A,8
6,test,3,1.0,2-Back,0.0,m,Tue Mar 10 2026 14:34:40 GMT-0500 (Central Daylight Time),856494.799999997,139_m_f_n_a.png,O,z,1779,11,1,2878.7000000029802,853616.099999994,7775,VNB,A,9
7,test,3,1.0,2-Back,1.0,z,Tue Mar 10 2026 14:34:40 GMT-0500 (Central Daylight Time),858494.200000003,165_m_m_h_a.png,O,z,977,12,1,1995.300000011921,856498.8999999911,7775,VNB,A,10
8,test,3,0.0,2-Back,1.0,m,Tue Mar 10 2026 14:34:40 GMT-0500 (Central Daylight Time),861159.8999999911,071_y_f_d_a.png,O,m,1641,13,1,2661.699999988079,858498.200000003,7775,VNB,A,11
9,test,3,0.0,2-Back,1.0,m,Tue Mar 10 2026 14:34:40 GMT-0500 (Central Daylight Time),863576.700000003,124_o_f_n_a.png,O,m,1400,14,1,2413.0,861163.700000003,7775,VNB,A,12
10,test,3,0.0,2-Back,1.0,z,Tue Mar 10 2026 14:34:40 GMT-0500 (Central Daylight Time),865841.799999997,039_o_m_d_a.png,O,z,1247,15,1,2261.0999999940395,863580.700000003,7775,VNB,A,13
10,test,3,1.0,2-Back,0.0,m,Tue Mar 10 2026 14:34:40 GMT-0500 (Central Daylight Time),868874.299999997,139_m_f_h_a.png,O,None,2016,16,1,3028.5999999940395,865845.700000003,7775,VNB,A,14
11,test,3,0.0,2-Back,1.0,m,Tue Mar 10 2026 14:34:40 GMT-0500 (Central Daylight Time),871006.799999997,165_m_m_n_a.png,O,m,1101,17,1,2127.7000000029802,868879.099999994,7775,VNB,A,15
12,test,3,0.0,2-Back,1.0,z,Tue Mar 10 2026 14:34:40 GMT-0500 (Central Daylight Time),873422.700000003,109_y_m_h_a.png,O,z,1393,18,1,2411.800000011921,871010.8999999911,7775,VNB,A,16
0,test,4,0.0,2-Back,,,Tue Mar 10 2026 14:34:40 GMT-0500 (Central Daylight Time),873422.700000003,139_m_f_n_a.png,O,space,3529,1,1,2411.800000011921,871010.8999999911,7775,VNB,A,0
0,test,4,0.0,2-Back,,,Tue Mar 10 2026 14:34:40 GMT-0500 (Central Daylight Time),873422.700000003,039_o_m_n_a.png,O,space,3529,2,1,2411.800000011921,871010.8999999911,7775,VNB,A,0
1,test,4,1.0,2-Back,1.0,m,Tue Mar 10 2026 14:34:40 GMT-0500 (Central Daylight Time),884236.099999994,109_y_m_h_a.png,O,m,1195,3,1,2208.3999999910593,882027.700000003,7775,VNB,A,1
1,test,4,1.0,2-Back,0.0,m,Tue Mar 10 2026 14:34:40 GMT-0500 (Central Daylight Time),886435.5,124_o_f_d_a.png,O,z,1179,4,1,2195.5,884240.0,7775,VNB,A,2
2,test,4,0.0,2-Back,1.0,z,Tue Mar 10 2026 14:34:40 GMT-0500 (Central Daylight Time),888934.700000003,039_o_m_h_a.png,O,z,1468,5,1,2495.2000000029802,886439.5,7775,VNB,A,3
3,test,4,0.0,2-Back,1.0,m,Tue Mar 10 2026 14:34:40 GMT-0500 (Central Daylight Time),891500.3999999911,165_m_m_n_a.png,O,m,1545,6,1,2562.0,888938.3999999911,7775,VNB,A,4
4,test,4,0.0,2-Back,1.0,m,Tue Mar 10 2026 14:34:40 GMT-0500 (Central Daylight Time),893933.099999994,139_m_f_d_a.png,O,m,1403,7,1,2428.0999999940395,891505.0,7775,VNB,A,5
4,test,4,0.0,2-Back,0.0,z,Tue Mar 10 2026 14:34:40 GMT-0500 (Central Daylight Time),896949.8999999911,071_y_f_n_a.png,O,m,1994,8,1,3012.5,893937.3999999911,7775,VNB,A,6
5,test,4,1.0,2-Back,1.0,m,Tue Mar 10 2026 14:34:40 GMT-0500 (Central Daylight Time),899947.8999999911,124_o_f_h_a.png,O,m,1979,9,1,2994.0,896953.8999999911,7775,VNB,A,7
5,test,4,0.0,2-Back,0.0,m,Tue Mar 10 2026 14:34:40 GMT-0500 (Central Daylight Time),902980.299999997,165_m_m_h_a.png,O,None,2015,10,1,3028.7000000029802,899951.599999994,7775,VNB,A,8
6,test,4,0.0,2-Back,1.0,m,Tue Mar 10 2026 14:34:40 GMT-0500 (Central Daylight Time),904779.700000003,071_y_f_d_a.png,O,m,779,11,1,1795.1000000089407,902984.599999994,7775,VNB,A,9
7,test,4,0.0,2-Back,1.0,m,Tue Mar 10 2026 14:34:40 GMT-0500 (Central Daylight Time),907262.099999994,109_y_m_n_a.png,O,m,1452,12,1,2478.5999999940395,904783.5,7775,VNB,A,10
7,test,4,0.0,2-Back,0.0,z,Tue Mar 10 2026 14:34:40 GMT-0500 (Central Daylight Time),909078.299999997,039_o_m_d_a.png,O,m,785,13,1,1811.7000000029802,907266.599999994,7775,VNB,A,11
7,test,4,1.0,2-Back,0.0,m,Tue Mar 10 2026 14:34:40 GMT-0500 (Central Daylight Time),912110.700000003,139_m_f_h_a.png,O,None,2016,14,1,3028.2000000029802,909082.5,7775,VNB,A,12
7,test,4,1.0,2-Back,0.0,m,Tue Mar 10 2026 14:34:40 GMT-0500 (Central Daylight Time),914293.3999999911,071_y_f_h_a.png,O,z,1161,15,1,2178.7999999970198,912114.599999994,7775,VNB,A,13
7,test,4,0.0,2-Back,0.0,m,Tue Mar 10 2026 14:34:40 GMT-0500 (Central Daylight Time),916759.200000003,124_o_f_n_a.png,O,z,1442,16,1,2461.800000011921,914297.3999999911,7775,VNB,A,14
8,test,4,0.0,2-Back,1.0,m,Tue Mar 10 2026 14:34:40 GMT-0500 (Central Daylight Time),918941.799999997,109_y_m_d_a.png,O,m,1152,17,1,2178.7000000029802,916763.099999994,7775,VNB,A,15
8,test,4,1.0,2-Back,0.0,m,Tue Mar 10 2026 14:34:40 GMT-0500 (Central Daylight Time),921974.3999999911,165_m_m_d_a.png,O,None,2014,18,1,3028.699999988079,918945.700000003,7775,VNB,A,16
0,test,5,1.0,2-Back,,,Tue Mar 10 2026 14:34:40 GMT-0500 (Central Daylight Time),921974.3999999911,071_y_f_d_a.png,O,space,3217,1,1,3028.699999988079,918945.700000003,7775,VNB,A,0
0,test,5,1.0,2-Back,,,Tue Mar 10 2026 14:34:40 GMT-0500 (Central Daylight Time),921974.3999999911,124_o_f_h_a.png,O,space,3217,2,1,3028.699999988079,918945.700000003,7775,VNB,A,0
1,test,5,1.0,2-Back,1.0,z,Tue Mar 10 2026 14:34:40 GMT-0500 (Central Daylight Time),932371.099999994,039_o_m_d_a.png,O,z,1063,3,1,2078.5,930292.599999994,7775,VNB,A,1
1,test,5,1.0,2-Back,0.0,m,Tue Mar 10 2026 14:34:40 GMT-0500 (Central Daylight Time),935403.3999999911,139_m_f_n_a.png,O,None,2015,4,1,3028.0999999940395,932375.299999997,7775,VNB,A,2
1,test,5,0.0,2-Back,0.0,m,Tue Mar 10 2026 14:34:40 GMT-0500 (Central Daylight Time),938435.8999999911,165_m_m_h_a.png,O,None,2016,5,1,3027.2999999970198,935408.599999994,7775,VNB,A,3
2,test,5,0.0,2-Back,1.0,z,Tue Mar 10 2026 14:34:40 GMT-0500 (Central Daylight Time),941335.0,071_y_f_n_a.png,O,z,1867,6,1,2894.7000000029802,938440.299999997,7775,VNB,A,4
2,test,5,0.0,2-Back,0.0,m,Tue Mar 10 2026 14:34:40 GMT-0500 (Central Daylight Time),944233.8999999911,124_o_f_d_a.png,O,z,1881,7,1,2895.0999999940395,941338.799999997,7775,VNB,A,5
3,test,5,0.0,2-Back,1.0,m,Tue Mar 10 2026 14:34:40 GMT-0500 (Central Daylight Time),946966.799999997,039_o_m_h_a.png,O,m,1701,8,1,2728.7999999970198,944238.0,7775,VNB,A,6
4,test,5,1.0,2-Back,1.0,z,Tue Mar 10 2026 14:34:40 GMT-0500 (Central Daylight Time),949415.700000003,139_m_f_d_a.png,O,z,1425,9,1,2444.800000011921,946970.8999999911,7775,VNB,A,7
5,test,5,0.0,2-Back,1.0,m,Tue Mar 10 2026 14:34:40 GMT-0500 (Central Daylight Time),951631.700000003,109_y_m_n_a.png,O,m,1192,10,1,2212.300000011921,949419.3999999911,7775,VNB,A,8
5,test,5,0.0,2-Back,0.0,m,Tue Mar 10 2026 14:34:40 GMT-0500 (Central Daylight Time),954230.8999999911,165_m_m_n_a.png,O,z,1576,11,1,2595.2999999970198,951635.599999994,7775,VNB,A,9
5,test,5,0.0,2-Back,0.0,m,Tue Mar 10 2026 14:34:40 GMT-0500 (Central Daylight Time),956446.8999999911,071_y_f_h_a.png,O,z,1184,12,1,2211.199999988079,954235.700000003,7775,VNB,A,10
5,test,5,0.0,2-Back,0.0,m,Tue Mar 10 2026 14:34:40 GMT-0500 (Central Daylight Time),959479.200000003,109_y_m_d_a.png,O,None,2015,13,1,3028.2000000029802,956451.0,7775,VNB,A,11
6,test,5,1.0,2-Back,1.0,z,Tue Mar 10 2026 14:34:40 GMT-0500 (Central Daylight Time),961728.599999994,139_m_f_h_a.png,O,z,1224,14,1,2245.5,959483.099999994,7775,VNB,A,12
7,test,5,0.0,2-Back,1.0,m,Tue Mar 10 2026 14:34:40 GMT-0500 (Central Daylight Time),964344.3999999911,039_o_m_n_a.png,O,m,1599,15,1,2611.5999999940395,961732.799999997,7775,VNB,A,13
7,test,5,0.0,2-Back,0.0,m,Tue Mar 10 2026 14:34:40 GMT-0500 (Central Daylight Time),967377.299999997,165_m_m_d_a.png,O,None,2016,16,1,3028.5999999940395,964348.700000003,7775,VNB,A,14
8,test,5,0.0,2-Back,1.0,z,Tue Mar 10 2026 14:34:40 GMT-0500 (Central Daylight Time),970059.299999997,124_o_f_n_a.png,O,z,1663,17,1,2677.4000000059605,967381.8999999911,7775,VNB,A,15
9,test,5,1.0,2-Back,1.0,m,Tue Mar 10 2026 14:34:40 GMT-0500 (Central Daylight Time),972604.700000003,109_y_m_h_a.png,O,m,1528,18,1,2541.6000000089407,970063.099999994,7775,VNB,A,16
