acc_sum,block,block_c,change,condition,correct,correct_response,datetime,endtime,face,project,response,response_time,row_sel,session_number,start_end,starttime,subject_id,task,task_vers,trial
0,prac,1,,1-Back,,,Tue May 05 2026 13:52:36 GMT-0500 (Central Daylight Time),,005_o_f_d_a.png,O,space,9357,1,1,,,7794,VNB,B,0
1,prac,1,0.0,1-Back,1.0,m,Tue May 05 2026 13:52:36 GMT-0500 (Central Daylight Time),182403.40000009537,020_y_f_n_a.png,O,m,1072,2,1,1925.7000000476837,180477.70000004768,7794,VNB,B,1
2,prac,1,0.0,1-Back,1.0,m,Tue May 05 2026 13:52:36 GMT-0500 (Central Daylight Time),185019.40000009537,007_m_m_h_a.png,O,m,1752,3,1,2612.2000000476837,182407.20000004768,7794,VNB,B,2
2,prac,1,0.0,1-Back,0.0,m,Tue May 05 2026 13:52:36 GMT-0500 (Central Daylight Time),187901.10000002384,016_y_m_d_a.png,O,None,2015,4,1,2874.6999999284744,185026.40000009537,7794,VNB,B,3
2,prac,1,0.0,1-Back,0.0,m,Tue May 05 2026 13:52:36 GMT-0500 (Central Daylight Time),190451.70000004768,005_o_f_n_a.png,O,z,1691,5,1,2547.600000023842,187904.10000002384,7794,VNB,B,4
2,prac,1,1.0,1-Back,0.0,z,Tue May 05 2026 13:52:36 GMT-0500 (Central Daylight Time),193315.90000009537,016_y_m_n_a.png,O,None,2004,6,1,2857.0,190458.90000009537,7794,VNB,B,5
2,prac,1,0.0,1-Back,0.0,m,Tue May 05 2026 13:52:36 GMT-0500 (Central Daylight Time),195767.0,004_o_m_h_a.png,O,z,1625,7,1,2448.0999999046326,193318.90000009537,7794,VNB,B,6
3,prac,1,0.0,1-Back,1.0,m,Tue May 05 2026 13:52:36 GMT-0500 (Central Daylight Time),198383.20000004768,011_m_f_d_a.png,O,m,1772,8,1,2608.0,195775.20000004768,7794,VNB,B,7
4,prac,1,1.0,1-Back,1.0,z,Tue May 05 2026 13:52:36 GMT-0500 (Central Daylight Time),200583.5,020_y_f_d_a.png,O,z,1349,9,1,2193.899999976158,198389.60000002384,7794,VNB,B,8
4,prac,1,0.0,1-Back,0.0,m,Tue May 05 2026 13:52:36 GMT-0500 (Central Daylight Time),203464.40000009537,007_m_m_n_a.png,O,None,2014,10,1,2870.600000023842,200593.80000007153,7794,VNB,B,9
4,prac,1,0.0,1-Back,0.0,m,Tue May 05 2026 13:52:36 GMT-0500 (Central Daylight Time),205914.80000007153,005_o_f_h_a.png,O,z,1598,11,1,2446.0,203468.80000007153,7794,VNB,B,10
4,prac,1,0.0,1-Back,0.0,m,Tue May 05 2026 13:52:36 GMT-0500 (Central Daylight Time),208797.40000009537,016_y_m_d_a.png,O,None,2009,12,1,2869.8000000715256,205927.60000002384,7794,VNB,B,11
0,prac,2,0.0,1-Back,,,Tue May 05 2026 13:52:36 GMT-0500 (Central Daylight Time),208797.40000009537,005_o_f_d_a.png,O,a,8013,1,1,2869.8000000715256,205927.60000002384,7794,VNB,B,0
1,prac,2,0.0,1-Back,1.0,m,Tue May 05 2026 13:52:36 GMT-0500 (Central Daylight Time),222224.90000009537,020_y_f_n_a.png,O,m,1505,2,1,2353.8000000715256,219871.10000002384,7794,VNB,B,1
1,prac,2,0.0,1-Back,0.0,m,Tue May 05 2026 13:52:36 GMT-0500 (Central Daylight Time),224707.20000004768,007_m_m_h_a.png,O,z,1619,3,1,2475.2999999523163,222231.90000009537,7794,VNB,B,2
1,prac,2,0.0,1-Back,0.0,m,Tue May 05 2026 13:52:36 GMT-0500 (Central Daylight Time),227490.80000007153,016_y_m_d_a.png,O,None,2005,4,1,2772.399999976158,224718.40000009537,7794,VNB,B,3
1,prac,2,0.0,1-Back,0.0,m,Tue May 05 2026 13:52:36 GMT-0500 (Central Daylight Time),228341.80000007153,005_o_f_n_a.png,O,z,1,5,1,844.2000000476837,227497.60000002384,7794,VNB,B,4
1,prac,2,1.0,1-Back,0.0,z,Tue May 05 2026 13:52:36 GMT-0500 (Central Daylight Time),229772.40000009537,016_y_m_n_a.png,O,m,560,6,1,1420.9000000953674,228351.5,7794,VNB,B,5
1,prac,2,0.0,1-Back,0.0,m,Tue May 05 2026 13:52:36 GMT-0500 (Central Daylight Time),232621.70000004768,004_o_m_h_a.png,O,None,2007,7,1,2842.2000000476837,229779.5,7794,VNB,B,6
1,prac,2,0.0,1-Back,0.0,m,Tue May 05 2026 13:52:36 GMT-0500 (Central Daylight Time),233738.40000009537,011_m_f_d_a.png,O,z,255,8,1,1106.9000000953674,232631.5,7794,VNB,B,7
1,prac,2,1.0,1-Back,0.0,z,Tue May 05 2026 13:52:36 GMT-0500 (Central Daylight Time),235937.10000002384,020_y_f_d_a.png,O,m,1351,9,1,2189.2999999523163,233747.80000007153,7794,VNB,B,8
1,prac,2,0.0,1-Back,0.0,m,Tue May 05 2026 13:52:36 GMT-0500 (Central Daylight Time),238403.0,007_m_m_n_a.png,O,z,1598,10,1,2455.899999976158,235947.10000002384,7794,VNB,B,9
2,prac,2,0.0,1-Back,1.0,m,Tue May 05 2026 13:52:36 GMT-0500 (Central Daylight Time),240636.5,005_o_f_h_a.png,O,m,1354,11,1,2225.899999976158,238410.60000002384,7794,VNB,B,10
2,prac,2,0.0,1-Back,0.0,m,Tue May 05 2026 13:52:36 GMT-0500 (Central Daylight Time),242519.40000009537,016_y_m_d_a.png,O,z,1008,12,1,1872.2000000476837,240647.20000004768,7794,VNB,B,11
0,test,1,0.0,1-Back,,,Tue May 05 2026 13:52:36 GMT-0500 (Central Daylight Time),242519.40000009537,020_y_f_d_a.png,O,space,3010,1,1,1872.2000000476837,240647.20000004768,7794,VNB,B,0
1,test,1,0.0,1-Back,1.0,m,Tue May 05 2026 13:52:36 GMT-0500 (Central Daylight Time),258896.80000007153,011_m_f_n_a.png,O,m,1442,2,1,2465.100000023842,256431.70000004768,7794,VNB,B,1
2,test,1,0.0,1-Back,1.0,m,Tue May 05 2026 13:52:36 GMT-0500 (Central Daylight Time),261613.40000009537,004_o_m_h_a.png,O,m,1686,3,1,2713.8000000715256,258899.60000002384,7794,VNB,B,2
3,test,1,1.0,1-Back,1.0,z,Tue May 05 2026 13:52:36 GMT-0500 (Central Daylight Time),263880.60000002384,007_m_m_h_a.png,O,z,1235,4,1,2258.899999976158,261621.70000004768,7794,VNB,B,3
4,test,1,0.0,1-Back,1.0,m,Tue May 05 2026 13:52:36 GMT-0500 (Central Daylight Time),266094.5,005_o_f_n_a.png,O,m,1193,5,1,2208.5,263886.0,7794,VNB,B,4
4,test,1,0.0,1-Back,0.0,m,Tue May 05 2026 13:52:36 GMT-0500 (Central Daylight Time),268426.8000000715,016_y_m_d_a.png,O,z,1312,6,1,2323.2000000476837,266103.60000002384,7794,VNB,B,5
5,test,1,1.0,1-Back,1.0,z,Tue May 05 2026 13:52:36 GMT-0500 (Central Daylight Time),270676.7000000477,011_m_f_d_a.png,O,z,1229,7,1,2247.2999999523163,268429.40000009537,7794,VNB,B,6
6,test,1,0.0,1-Back,1.0,m,Tue May 05 2026 13:52:36 GMT-0500 (Central Daylight Time),272909.3000000715,020_y_f_h_a.png,O,m,1216,8,1,2225.3000000715256,270684.0,7794,VNB,B,7
7,test,1,0.0,1-Back,1.0,m,Tue May 05 2026 13:52:36 GMT-0500 (Central Daylight Time),275174.90000009537,004_o_m_n_a.png,O,m,1234,9,1,2262.0,272912.90000009537,7794,VNB,B,8
7,test,1,0.0,1-Back,0.0,m,Tue May 05 2026 13:52:36 GMT-0500 (Central Daylight Time),277107.3000000715,016_y_m_h_a.png,O,z,906,10,1,1924.7000000476837,275182.60000002384,7794,VNB,B,9
8,test,1,0.0,1-Back,1.0,m,Tue May 05 2026 13:52:36 GMT-0500 (Central Daylight Time),278923.5,004_o_m_d_a.png,O,m,790,11,1,1811.2999999523163,277112.2000000477,7794,VNB,B,10
9,test,1,1.0,1-Back,1.0,z,Tue May 05 2026 13:52:36 GMT-0500 (Central Daylight Time),280906.3000000715,005_o_f_d_a.png,O,z,965,12,1,1974.3000000715256,278932.0,7794,VNB,B,11
10,test,1,0.0,1-Back,1.0,m,Tue May 05 2026 13:52:36 GMT-0500 (Central Daylight Time),282989.0,007_m_m_n_a.png,O,m,1062,13,1,2080.0999999046326,280908.90000009537,7794,VNB,B,12
11,test,1,1.0,1-Back,1.0,z,Tue May 05 2026 13:52:36 GMT-0500 (Central Daylight Time),285105.3000000715,020_y_f_n_a.png,O,z,1091,14,1,2108.2000000476837,282997.10000002384,7794,VNB,B,13
12,test,1,0.0,1-Back,1.0,m,Tue May 05 2026 13:52:36 GMT-0500 (Central Daylight Time),287404.7000000477,011_m_f_h_a.png,O,m,1281,15,1,2296.899999976158,285107.8000000715,7794,VNB,B,14
13,test,1,0.0,1-Back,1.0,m,Tue May 05 2026 13:52:36 GMT-0500 (Central Daylight Time),289737.60000002384,007_m_m_d_a.png,O,m,1309,16,1,2325.0,287412.60000002384,7794,VNB,B,15
14,test,1,0.0,1-Back,1.0,m,Tue May 05 2026 13:52:36 GMT-0500 (Central Daylight Time),291886.2000000477,016_y_m_n_a.png,O,m,1127,17,1,2145.7999999523163,289740.40000009537,7794,VNB,B,16
14,test,1,0.0,1-Back,0.0,m,Tue May 05 2026 13:52:36 GMT-0500 (Central Daylight Time),294302.0,005_o_f_h_a.png,O,z,1385,18,1,2408.1999999284744,291893.8000000715,7794,VNB,B,17
0,test,2,0.0,1-Back,,,Tue May 05 2026 13:52:36 GMT-0500 (Central Daylight Time),294302.0,016_y_m_n_a.png,O,space,2149,1,1,2408.1999999284744,291893.8000000715,7794,VNB,B,0
0,test,2,0.0,1-Back,0.0,m,Tue May 05 2026 13:52:36 GMT-0500 (Central Daylight Time),300617.2000000477,020_y_f_h_a.png,O,z,1115,2,1,2142.5,298474.7000000477,7794,VNB,B,1
1,test,2,1.0,1-Back,1.0,m,Tue May 05 2026 13:52:36 GMT-0500 (Central Daylight Time),302715.90000009537,004_o_m_n_a.png,O,m,1069,3,1,2095.2000000476837,300620.7000000477,7794,VNB,B,2
1,test,2,0.0,1-Back,0.0,m,Tue May 05 2026 13:52:36 GMT-0500 (Central Daylight Time),304981.7000000477,011_m_f_d_a.png,O,z,1236,4,1,2258.7000000476837,302723.0,7794,VNB,B,3
2,test,2,0.0,1-Back,1.0,z,Tue May 05 2026 13:52:36 GMT-0500 (Central Daylight Time),307164.3000000715,007_m_m_d_a.png,O,z,1152,5,1,2179.3000000715256,304985.0,7794,VNB,B,4
3,test,2,0.0,1-Back,1.0,m,Tue May 05 2026 13:52:36 GMT-0500 (Central Daylight Time),308997.7000000477,016_y_m_h_a.png,O,m,812,6,1,1830.8999999761581,307166.8000000715,7794,VNB,B,5
4,test,2,1.0,1-Back,1.0,z,Tue May 05 2026 13:52:36 GMT-0500 (Central Daylight Time),311047.10000002384,005_o_f_h_a.png,O,z,1018,7,1,2045.3999999761581,309001.7000000477,7794,VNB,B,6
5,test,2,0.0,1-Back,1.0,m,Tue May 05 2026 13:52:36 GMT-0500 (Central Daylight Time),313065.10000002384,011_m_f_n_a.png,O,m,985,8,1,2010.6000000238419,311054.5,7794,VNB,B,7
5,test,2,0.0,1-Back,0.0,m,Tue May 05 2026 13:52:36 GMT-0500 (Central Daylight Time),314929.7000000477,020_y_f_d_a.png,O,z,840,9,1,1861.6000000238419,313068.10000002384,7794,VNB,B,8
6,test,2,0.0,1-Back,1.0,m,Tue May 05 2026 13:52:36 GMT-0500 (Central Daylight Time),317061.3000000715,007_m_m_n_a.png,O,m,1104,10,1,2124.3000000715256,314937.0,7794,VNB,B,9
6,test,2,1.0,1-Back,0.0,m,Tue May 05 2026 13:52:36 GMT-0500 (Central Daylight Time),318929.0,011_m_f_h_a.png,O,z,833,11,1,1864.7999999523163,317064.2000000477,7794,VNB,B,10
7,test,2,0.0,1-Back,1.0,z,Tue May 05 2026 13:52:36 GMT-0500 (Central Daylight Time),321276.90000009537,004_o_m_h_a.png,O,z,1321,12,1,2340.100000023842,318936.8000000715,7794,VNB,B,11
8,test,2,0.0,1-Back,1.0,m,Tue May 05 2026 13:52:36 GMT-0500 (Central Daylight Time),323226.8000000715,016_y_m_d_a.png,O,m,923,13,1,1946.3999999761581,321280.40000009537,7794,VNB,B,12
9,test,2,0.0,1-Back,1.0,m,Tue May 05 2026 13:52:36 GMT-0500 (Central Daylight Time),325459.2000000477,005_o_f_n_a.png,O,m,1205,14,1,2225.399999976158,323233.8000000715,7794,VNB,B,13
10,test,2,0.0,1-Back,1.0,z,Tue May 05 2026 13:52:36 GMT-0500 (Central Daylight Time),327874.0,020_y_f_n_a.png,O,z,1388,15,1,2411.0999999046326,325462.90000009537,7794,VNB,B,14
10,test,2,1.0,1-Back,0.0,m,Tue May 05 2026 13:52:36 GMT-0500 (Central Daylight Time),330007.0,007_m_m_h_a.png,O,z,1111,16,1,2126.0,327881.0,7794,VNB,B,15
11,test,2,0.0,1-Back,1.0,m,Tue May 05 2026 13:52:36 GMT-0500 (Central Daylight Time),331841.2000000477,005_o_f_d_a.png,O,m,816,17,1,1832.2000000476837,330009.0,7794,VNB,B,16
12,test,2,1.0,1-Back,1.0,z,Tue May 05 2026 13:52:36 GMT-0500 (Central Daylight Time),333889.40000009537,004_o_m_d_a.png,O,z,1018,18,1,2041.2000000476837,331848.2000000477,7794,VNB,B,17
0,test,3,1.0,1-Back,,,Tue May 05 2026 13:52:36 GMT-0500 (Central Daylight Time),333889.40000009537,005_o_f_h_a.png,O,space,1806,1,1,2041.2000000476837,331848.2000000477,7794,VNB,B,0
1,test,3,0.0,1-Back,1.0,m,Tue May 05 2026 13:52:36 GMT-0500 (Central Daylight Time),339521.10000002384,011_m_f_d_a.png,O,m,707,2,1,1723.5,337797.60000002384,7794,VNB,B,1
2,test,3,1.0,1-Back,1.0,m,Tue May 05 2026 13:52:36 GMT-0500 (Central Daylight Time),341703.7000000477,007_m_m_n_a.png,O,m,1158,3,1,2178.2999999523163,339525.40000009537,7794,VNB,B,2
3,test,3,0.0,1-Back,1.0,z,Tue May 05 2026 13:52:36 GMT-0500 (Central Daylight Time),343720.3000000715,005_o_f_n_a.png,O,z,993,4,1,2009.3999999761581,341710.90000009537,7794,VNB,B,3
4,test,3,1.0,1-Back,1.0,m,Tue May 05 2026 13:52:36 GMT-0500 (Central Daylight Time),346402.5,004_o_m_d_a.png,O,m,1657,5,1,2679.399999976158,343723.10000002384,7794,VNB,B,4
5,test,3,0.0,1-Back,1.0,m,Tue May 05 2026 13:52:36 GMT-0500 (Central Daylight Time),348734.90000009537,020_y_f_h_a.png,O,m,1309,6,1,2323.7000000476837,346411.2000000477,7794,VNB,B,5
6,test,3,0.0,1-Back,1.0,z,Tue May 05 2026 13:52:36 GMT-0500 (Central Daylight Time),350585.40000009537,016_y_m_h_a.png,O,z,831,7,1,1847.4000000953674,348738.0,7794,VNB,B,6
7,test,3,0.0,1-Back,1.0,m,Tue May 05 2026 13:52:36 GMT-0500 (Central Daylight Time),352734.60000002384,011_m_f_n_a.png,O,m,1120,8,1,2142.899999976158,350591.7000000477,7794,VNB,B,7
7,test,3,0.0,1-Back,0.0,m,Tue May 05 2026 13:52:36 GMT-0500 (Central Daylight Time),354699.8000000715,020_y_f_d_a.png,O,z,937,9,1,1961.0,352738.8000000715,7794,VNB,B,8
8,test,3,1.0,1-Back,1.0,m,Tue May 05 2026 13:52:36 GMT-0500 (Central Daylight Time),356866.7000000477,004_o_m_n_a.png,O,m,1133,10,1,2158.7999999523163,354707.90000009537,7794,VNB,B,9
8,test,3,0.0,1-Back,0.0,m,Tue May 05 2026 13:52:36 GMT-0500 (Central Daylight Time),358831.2000000477,007_m_m_h_a.png,O,z,941,11,1,1962.0,356869.2000000477,7794,VNB,B,10
8,test,3,0.0,1-Back,0.0,z,Tue May 05 2026 13:52:36 GMT-0500 (Central Daylight Time),361017.2000000477,011_m_f_h_a.png,O,m,1152,12,1,2182.100000023842,358835.10000002384,7794,VNB,B,11
8,test,3,1.0,1-Back,0.0,m,Tue May 05 2026 13:52:36 GMT-0500 (Central Daylight Time),363163.2000000477,005_o_f_d_a.png,O,z,1129,13,1,2139.7000000476837,361023.5,7794,VNB,B,12
9,test,3,0.0,1-Back,1.0,z,Tue May 05 2026 13:52:36 GMT-0500 (Central Daylight Time),365330.7000000477,007_m_m_d_a.png,O,z,1149,14,1,2164.600000023842,363166.10000002384,7794,VNB,B,13
9,test,3,0.0,1-Back,0.0,m,Tue May 05 2026 13:52:36 GMT-0500 (Central Daylight Time),368363.3000000715,016_y_m_n_a.png,O,None,2016,15,1,3025.600000023842,365337.7000000477,7794,VNB,B,14
9,test,3,1.0,1-Back,0.0,m,Tue May 05 2026 13:52:36 GMT-0500 (Central Daylight Time),370744.7000000477,004_o_m_h_a.png,O,z,1351,16,1,2377.2999999523163,368367.40000009537,7794,VNB,B,15
10,test,3,0.0,1-Back,1.0,m,Tue May 05 2026 13:52:36 GMT-0500 (Central Daylight Time),372411.2000000477,016_y_m_d_a.png,O,m,648,17,1,1661.0,370750.2000000477,7794,VNB,B,16
10,test,3,1.0,1-Back,0.0,m,Tue May 05 2026 13:52:36 GMT-0500 (Central Daylight Time),374643.7000000477,020_y_f_n_a.png,O,z,1215,18,1,2229.0,372414.7000000477,7794,VNB,B,17
0,test,4,1.0,1-Back,,,Tue May 05 2026 13:52:36 GMT-0500 (Central Daylight Time),374643.7000000477,007_m_m_d_a.png,O,space,1755,1,1,2229.0,372414.7000000477,7794,VNB,B,0
1,test,4,0.0,1-Back,1.0,z,Tue May 05 2026 13:52:36 GMT-0500 (Central Daylight Time),380574.60000002384,004_o_m_d_a.png,O,z,1134,2,1,2160.0,378414.60000002384,7794,VNB,B,1
2,test,4,0.0,1-Back,1.0,m,Tue May 05 2026 13:52:36 GMT-0500 (Central Daylight Time),382673.90000009537,016_y_m_h_a.png,O,m,1075,3,1,2088.8000000715256,380585.10000002384,7794,VNB,B,2
3,test,4,0.0,1-Back,1.0,m,Tue May 05 2026 13:52:36 GMT-0500 (Central Daylight Time),385239.7000000477,011_m_f_n_a.png,O,m,1543,4,1,2563.2000000476837,382676.5,7794,VNB,B,3
3,test,4,1.0,1-Back,0.0,m,Tue May 05 2026 13:52:36 GMT-0500 (Central Daylight Time),387272.40000009537,005_o_f_h_a.png,O,z,1007,5,1,2024.7000000476837,385247.7000000477,7794,VNB,B,4
4,test,4,0.0,1-Back,1.0,m,Tue May 05 2026 13:52:36 GMT-0500 (Central Daylight Time),389072.90000009537,007_m_m_n_a.png,O,m,777,6,1,1798.6000000238419,387274.3000000715,7794,VNB,B,5
5,test,4,0.0,1-Back,1.0,m,Tue May 05 2026 13:52:36 GMT-0500 (Central Daylight Time),391487.7000000477,016_y_m_d_a.png,O,m,1383,7,1,2407.7999999523163,389079.90000009537,7794,VNB,B,6
6,test,4,1.0,1-Back,1.0,z,Tue May 05 2026 13:52:36 GMT-0500 (Central Daylight Time),393536.60000002384,020_y_f_d_a.png,O,z,1024,8,1,2044.6999999284744,391491.90000009537,7794,VNB,B,7
7,test,4,0.0,1-Back,1.0,m,Tue May 05 2026 13:52:36 GMT-0500 (Central Daylight Time),395819.0,011_m_f_h_a.png,O,m,1261,9,1,2275.1999999284744,393543.8000000715,7794,VNB,B,8
8,test,4,0.0,1-Back,1.0,z,Tue May 05 2026 13:52:36 GMT-0500 (Central Daylight Time),398069.10000002384,004_o_m_h_a.png,O,z,1229,10,1,2247.600000023842,395821.5,7794,VNB,B,9
9,test,4,1.0,1-Back,1.0,m,Tue May 05 2026 13:52:36 GMT-0500 (Central Daylight Time),400019.0,005_o_f_n_a.png,O,m,934,11,1,1942.7999999523163,398076.2000000477,7794,VNB,B,10
9,test,4,0.0,1-Back,0.0,m,Tue May 05 2026 13:52:36 GMT-0500 (Central Daylight Time),402201.60000002384,011_m_f_d_a.png,O,z,1155,12,1,2179.1999999284744,400022.40000009537,7794,VNB,B,11
9,test,4,0.0,1-Back,0.0,m,Tue May 05 2026 13:52:36 GMT-0500 (Central Daylight Time),404883.10000002384,020_y_f_n_a.png,O,z,1654,13,1,2675.600000023842,402207.5,7794,VNB,B,12
10,test,4,0.0,1-Back,1.0,m,Tue May 05 2026 13:52:36 GMT-0500 (Central Daylight Time),406600.10000002384,005_o_f_d_a.png,O,m,684,14,1,1714.5,404885.60000002384,7794,VNB,B,13
10,test,4,0.0,1-Back,0.0,m,Tue May 05 2026 13:52:36 GMT-0500 (Central Daylight Time),408816.90000009537,020_y_f_h_a.png,O,z,1192,15,1,2210.7000000476837,406606.2000000477,7794,VNB,B,14
11,test,4,1.0,1-Back,1.0,z,Tue May 05 2026 13:52:36 GMT-0500 (Central Daylight Time),410848.3000000715,007_m_m_h_a.png,O,z,1007,16,1,2028.7000000476837,408819.60000002384,7794,VNB,B,15
12,test,4,0.0,1-Back,1.0,m,Tue May 05 2026 13:52:36 GMT-0500 (Central Daylight Time),412714.90000009537,004_o_m_n_a.png,O,m,848,17,1,1862.2000000476837,410852.7000000477,7794,VNB,B,16
13,test,4,1.0,1-Back,1.0,z,Tue May 05 2026 13:52:36 GMT-0500 (Central Daylight Time),415081.7000000477,016_y_m_n_a.png,O,z,1351,18,1,2364.5,412717.2000000477,7794,VNB,B,17
0,test,5,1.0,1-Back,,,Tue May 05 2026 13:52:36 GMT-0500 (Central Daylight Time),415081.7000000477,004_o_m_n_a.png,O,space,2233,1,1,2364.5,412717.2000000477,7794,VNB,B,0
1,test,5,1.0,1-Back,1.0,m,Tue May 05 2026 13:52:36 GMT-0500 (Central Daylight Time),421128.90000009537,005_o_f_h_a.png,O,m,774,2,1,1796.4000000953674,419332.5,7794,VNB,B,1
2,test,5,0.0,1-Back,1.0,m,Tue May 05 2026 13:52:36 GMT-0500 (Central Daylight Time),423278.40000009537,016_y_m_d_a.png,O,m,1127,3,1,2141.4000000953674,421137.0,7794,VNB,B,2
3,test,5,0.0,1-Back,1.0,z,Tue May 05 2026 13:52:36 GMT-0500 (Central Daylight Time),425409.3000000715,004_o_m_d_a.png,O,z,1098,4,1,2127.3000000715256,423282.0,7794,VNB,B,3
4,test,5,0.0,1-Back,1.0,m,Tue May 05 2026 13:52:36 GMT-0500 (Central Daylight Time),427908.8000000715,011_m_f_h_a.png,O,m,1478,5,1,2494.2000000476837,425414.60000002384,7794,VNB,B,4
5,test,5,0.0,1-Back,1.0,m,Tue May 05 2026 13:52:36 GMT-0500 (Central Daylight Time),429876.60000002384,020_y_f_n_a.png,O,m,948,6,1,1965.2999999523163,427911.3000000715,7794,VNB,B,5
6,test,5,1.0,1-Back,1.0,z,Tue May 05 2026 13:52:36 GMT-0500 (Central Daylight Time),431709.5,005_o_f_n_a.png,O,z,806,7,1,1824.5999999046326,429884.90000009537,7794,VNB,B,6
7,test,5,0.0,1-Back,1.0,m,Tue May 05 2026 13:52:36 GMT-0500 (Central Daylight Time),433825.3000000715,011_m_f_d_a.png,O,m,1091,8,1,2112.8000000715256,431712.5,7794,VNB,B,7
8,test,5,0.0,1-Back,1.0,m,Tue May 05 2026 13:52:36 GMT-0500 (Central Daylight Time),435907.2000000477,016_y_m_h_a.png,O,m,1053,9,1,2075.5,433831.7000000477,7794,VNB,B,8
9,test,5,0.0,1-Back,1.0,m,Tue May 05 2026 13:52:36 GMT-0500 (Central Daylight Time),437840.0,020_y_f_d_a.png,O,m,909,10,1,1930.6999999284744,435909.3000000715,7794,VNB,B,9
9,test,5,0.0,1-Back,0.0,m,Tue May 05 2026 13:52:36 GMT-0500 (Central Daylight Time),439839.90000009537,007_m_m_n_a.png,O,z,967,11,1,1993.5,437846.40000009537,7794,VNB,B,10
10,test,5,1.0,1-Back,1.0,z,Tue May 05 2026 13:52:36 GMT-0500 (Central Daylight Time),442405.40000009537,011_m_f_n_a.png,O,z,1549,12,1,2563.0,439842.40000009537,7794,VNB,B,11
11,test,5,0.0,1-Back,1.0,m,Tue May 05 2026 13:52:36 GMT-0500 (Central Daylight Time),444637.40000009537,004_o_m_h_a.png,O,m,1202,13,1,2225.100000023842,442412.3000000715,7794,VNB,B,12
12,test,5,0.0,1-Back,1.0,z,Tue May 05 2026 13:52:36 GMT-0500 (Central Daylight Time),446686.2000000477,007_m_m_h_a.png,O,z,1025,14,1,2045.7000000476837,444640.5,7794,VNB,B,13
13,test,5,1.0,1-Back,1.0,m,Tue May 05 2026 13:52:36 GMT-0500 (Central Daylight Time),448603.3000000715,005_o_f_d_a.png,O,m,899,15,1,1909.8999999761581,446693.40000009537,7794,VNB,B,14
14,test,5,0.0,1-Back,1.0,m,Tue May 05 2026 13:52:36 GMT-0500 (Central Daylight Time),451085.60000002384,016_y_m_n_a.png,O,m,1462,16,1,2478.600000023842,448607.0,7794,VNB,B,15
14,test,5,0.0,1-Back,0.0,m,Tue May 05 2026 13:52:36 GMT-0500 (Central Daylight Time),453085.40000009537,020_y_f_h_a.png,O,z,980,17,1,1993.4000000953674,451092.0,7794,VNB,B,16
15,test,5,0.0,1-Back,1.0,m,Tue May 05 2026 13:52:36 GMT-0500 (Central Daylight Time),455219.5,007_m_m_d_a.png,O,m,1116,18,1,2131.5,453088.0,7794,VNB,B,17
0,prac,1,0.0,2-Back,,,Tue May 05 2026 13:52:36 GMT-0500 (Central Daylight Time),455219.5,011_m_f_n_a.png,O,space,2817,1,1,2131.5,453088.0,7794,VNB,B,0
0,prac,1,0.0,2-Back,,,Tue May 05 2026 13:52:36 GMT-0500 (Central Daylight Time),455219.5,005_o_f_h_a.png,O,space,2817,2,1,2131.5,453088.0,7794,VNB,B,0
1,prac,1,0.0,2-Back,1.0,m,Tue May 05 2026 13:52:36 GMT-0500 (Central Daylight Time),568531.4000000954,004_o_m_d_a.png,O,m,278,3,1,1126.4000000953674,567405.0,7794,VNB,B,1
1,prac,1,1.0,2-Back,0.0,z,Tue May 05 2026 13:52:36 GMT-0500 (Central Daylight Time),571397.7000000477,007_m_m_h_a.png,O,None,2003,4,1,2855.0,568542.7000000477,7794,VNB,B,2
1,prac,1,0.0,2-Back,0.0,m,Tue May 05 2026 13:52:36 GMT-0500 (Central Daylight Time),574246.4000000954,020_y_f_n_a.png,O,None,2005,5,1,2843.3000000715256,571403.1000000238,7794,VNB,B,3
1,prac,1,1.0,2-Back,0.0,z,Tue May 05 2026 13:52:36 GMT-0500 (Central Daylight Time),576129.5,004_o_m_h_a.png,O,m,1038,6,1,1873.2999999523163,574256.2000000477,7794,VNB,B,4
2,prac,1,1.0,2-Back,1.0,z,Tue May 05 2026 13:52:36 GMT-0500 (Central Daylight Time),577863.0,016_y_m_n_a.png,O,z,874,7,1,1729.1999999284744,576133.8000000715,7794,VNB,B,5
2,prac,1,0.0,2-Back,0.0,m,Tue May 05 2026 13:52:36 GMT-0500 (Central Daylight Time),579861.1000000238,011_m_f_d_a.png,O,z,1123,8,1,1988.6999999284744,577872.4000000954,7794,VNB,B,6
3,prac,1,0.0,2-Back,1.0,m,Tue May 05 2026 13:52:36 GMT-0500 (Central Daylight Time),581614.3000000715,005_o_f_d_a.png,O,m,894,9,1,1748.8000000715256,579865.5,7794,VNB,B,7
4,prac,1,0.0,2-Back,1.0,m,Tue May 05 2026 13:52:36 GMT-0500 (Central Daylight Time),583559.6000000238,007_m_m_h_a.png,O,m,1167,10,1,1932.5,581627.1000000238,7794,VNB,B,8
5,prac,1,1.0,2-Back,1.0,z,Tue May 05 2026 13:52:36 GMT-0500 (Central Daylight Time),585610.5,020_y_f_d_a.png,O,z,1199,11,1,2041.5999999046326,583568.9000000954,7794,VNB,B,9
6,prac,1,0.0,2-Back,1.0,m,Tue May 05 2026 13:52:36 GMT-0500 (Central Daylight Time),587828.1000000238,004_o_m_n_a.png,O,m,1383,12,1,2207.1999999284744,585620.9000000954,7794,VNB,B,10
0,test,1,0.0,2-Back,,,Tue May 05 2026 13:52:36 GMT-0500 (Central Daylight Time),587828.1000000238,016_y_m_h_a.png,O,space,2230,1,1,2207.1999999284744,585620.9000000954,7794,VNB,B,0
0,test,1,0.0,2-Back,,,Tue May 05 2026 13:52:36 GMT-0500 (Central Daylight Time),587828.1000000238,005_o_f_n_a.png,O,space,2230,2,1,2207.1999999284744,585620.9000000954,7794,VNB,B,0
1,test,1,0.0,2-Back,1.0,z,Tue May 05 2026 13:52:36 GMT-0500 (Central Daylight Time),609700.3000000715,004_o_m_h_a.png,O,z,1269,3,1,2292.7000000476837,607407.6000000238,7794,VNB,B,1
1,test,1,0.0,2-Back,0.0,m,Tue May 05 2026 13:52:36 GMT-0500 (Central Daylight Time),612719.1000000238,011_m_f_d_a.png,O,None,2001,4,1,3016.2999999523163,609702.8000000715,7794,VNB,B,2
1,test,1,1.0,2-Back,0.0,m,Tue May 05 2026 13:52:36 GMT-0500 (Central Daylight Time),615750.5,016_y_m_n_a.png,O,None,2014,5,1,3028.0999999046326,612722.4000000954,7794,VNB,B,3
1,test,1,0.0,2-Back,0.0,z,Tue May 05 2026 13:52:36 GMT-0500 (Central Daylight Time),617950.3000000715,020_y_f_d_a.png,O,m,1179,6,1,2191.5,615758.8000000715,7794,VNB,B,4
1,test,1,0.0,2-Back,0.0,m,Tue May 05 2026 13:52:36 GMT-0500 (Central Daylight Time),620981.4000000954,007_m_m_h_a.png,O,None,2014,7,1,3027.3000000715256,617954.1000000238,7794,VNB,B,5
1,test,1,1.0,2-Back,0.0,m,Tue May 05 2026 13:52:36 GMT-0500 (Central Daylight Time),624014.4000000954,020_y_f_n_a.png,O,None,2016,8,1,3022.7000000476837,620991.7000000477,7794,VNB,B,6
1,test,1,0.0,2-Back,0.0,z,Tue May 05 2026 13:52:36 GMT-0500 (Central Daylight Time),627047.5,005_o_f_h_a.png,O,None,2016,9,1,3029.1999999284744,624018.3000000715,7794,VNB,B,7
1,test,1,0.0,2-Back,0.0,m,Tue May 05 2026 13:52:36 GMT-0500 (Central Daylight Time),630080.0,004_o_m_d_a.png,O,None,2017,10,1,3024.6999999284744,627055.3000000715,7794,VNB,B,8
2,test,1,1.0,2-Back,1.0,m,Tue May 05 2026 13:52:36 GMT-0500 (Central Daylight Time),631961.0,007_m_m_d_a.png,O,m,858,11,1,1877.0999999046326,630083.9000000954,7794,VNB,B,9
2,test,1,0.0,2-Back,0.0,m,Tue May 05 2026 13:52:36 GMT-0500 (Central Daylight Time),634995.1000000238,011_m_f_n_a.png,O,None,2016,12,1,3027.600000023842,631967.5,7794,VNB,B,10
2,test,1,0.0,2-Back,0.0,m,Tue May 05 2026 13:52:36 GMT-0500 (Central Daylight Time),638026.4000000954,020_y_f_h_a.png,O,None,2015,13,1,3028.3000000715256,634998.1000000238,7794,VNB,B,11
2,test,1,0.0,2-Back,0.0,z,Tue May 05 2026 13:52:36 GMT-0500 (Central Daylight Time),640108.5,007_m_m_n_a.png,O,m,1053,14,1,2075.899999976158,638032.6000000238,7794,VNB,B,12
2,test,1,0.0,2-Back,0.0,m,Tue May 05 2026 13:52:36 GMT-0500 (Central Daylight Time),643140.9000000954,016_y_m_d_a.png,O,None,2016,15,1,3028.9000000953674,640112.0,7794,VNB,B,13
2,test,1,1.0,2-Back,0.0,m,Tue May 05 2026 13:52:36 GMT-0500 (Central Daylight Time),646173.8000000715,011_m_f_h_a.png,O,None,2017,16,1,3025.600000023842,643148.2000000477,7794,VNB,B,14
3,test,1,0.0,2-Back,1.0,z,Tue May 05 2026 13:52:36 GMT-0500 (Central Daylight Time),648040.2000000477,005_o_f_d_a.png,O,z,833,17,1,1862.8999999761581,646177.3000000715,7794,VNB,B,15
3,test,1,0.0,2-Back,0.0,m,Tue May 05 2026 13:52:36 GMT-0500 (Central Daylight Time),651055.6000000238,004_o_m_n_a.png,O,None,2001,18,1,3008.899999976158,648046.7000000477,7794,VNB,B,16
0,test,2,0.0,2-Back,,,Tue May 05 2026 13:52:36 GMT-0500 (Central Daylight Time),651055.6000000238,007_m_m_h_a.png,O,space,1674,1,1,3008.899999976158,648046.7000000477,7794,VNB,B,0
0,test,2,0.0,2-Back,,,Tue May 05 2026 13:52:36 GMT-0500 (Central Daylight Time),651055.6000000238,020_y_f_n_a.png,O,space,1674,2,1,3008.899999976158,648046.7000000477,7794,VNB,B,0
1,test,2,1.0,2-Back,1.0,z,Tue May 05 2026 13:52:36 GMT-0500 (Central Daylight Time),660252.0,005_o_f_h_a.png,O,z,1286,3,1,2311.0,657941.0,7794,VNB,B,1
1,test,2,0.0,2-Back,0.0,m,Tue May 05 2026 13:52:36 GMT-0500 (Central Daylight Time),663285.7000000477,004_o_m_d_a.png,O,None,2016,4,1,3026.7000000476837,660259.0,7794,VNB,B,2
1,test,2,0.0,2-Back,0.0,m,Tue May 05 2026 13:52:36 GMT-0500 (Central Daylight Time),665567.2000000477,011_m_f_d_a.png,O,z,1258,5,1,2278.100000023842,663289.1000000238,7794,VNB,B,3
2,test,2,0.0,2-Back,1.0,m,Tue May 05 2026 13:52:36 GMT-0500 (Central Daylight Time),667482.5,016_y_m_h_a.png,O,m,897,6,1,1906.3999999761581,665576.1000000238,7794,VNB,B,4
2,test,2,0.0,2-Back,0.0,m,Tue May 05 2026 13:52:36 GMT-0500 (Central Daylight Time),670515.4000000954,005_o_f_n_a.png,O,None,2015,7,1,3030.7000000476837,667484.7000000477,7794,VNB,B,5
2,test,2,1.0,2-Back,0.0,z,Tue May 05 2026 13:52:36 GMT-0500 (Central Daylight Time),673548.4000000954,004_o_m_h_a.png,O,None,2016,8,1,3026.5,670521.9000000954,7794,VNB,B,6
2,test,2,0.0,2-Back,0.0,m,Tue May 05 2026 13:52:36 GMT-0500 (Central Daylight Time),675682.4000000954,020_y_f_d_a.png,O,z,1118,9,1,2130.7000000476837,673551.7000000477,7794,VNB,B,7
2,test,2,0.0,2-Back,0.0,m,Tue May 05 2026 13:52:36 GMT-0500 (Central Daylight Time),678714.3000000715,016_y_m_d_a.png,O,None,2015,10,1,3022.7000000476837,675691.6000000238,7794,VNB,B,8
2,test,2,0.0,2-Back,0.0,m,Tue May 05 2026 13:52:36 GMT-0500 (Central Daylight Time),681746.4000000954,007_m_m_n_a.png,O,None,2015,11,1,3028.2000000476837,678718.2000000477,7794,VNB,B,9
3,test,2,0.0,2-Back,1.0,m,Tue May 05 2026 13:52:36 GMT-0500 (Central Daylight Time),683660.9000000954,011_m_f_h_a.png,O,m,894,12,1,1906.3000000715256,681754.6000000238,7794,VNB,B,10
3,test,2,1.0,2-Back,0.0,z,Tue May 05 2026 13:52:36 GMT-0500 (Central Daylight Time),686694.6000000238,004_o_m_n_a.png,O,None,2016,13,1,3030.5,683664.1000000238,7794,VNB,B,11
3,test,2,0.0,2-Back,0.0,m,Tue May 05 2026 13:52:36 GMT-0500 (Central Daylight Time),689727.1000000238,005_o_f_d_a.png,O,None,2016,14,1,3025.0,686702.1000000238,7794,VNB,B,12
3,test,2,0.0,2-Back,0.0,m,Tue May 05 2026 13:52:36 GMT-0500 (Central Daylight Time),692760.1000000238,020_y_f_h_a.png,O,None,2016,15,1,3030.0,689730.1000000238,7794,VNB,B,13
3,test,2,0.0,2-Back,0.0,z,Tue May 05 2026 13:52:36 GMT-0500 (Central Daylight Time),695791.8000000715,007_m_m_d_a.png,O,None,2016,16,1,3024.5,692767.3000000715,7794,VNB,B,14
3,test,2,0.0,2-Back,0.0,m,Tue May 05 2026 13:52:36 GMT-0500 (Central Daylight Time),698824.7000000477,016_y_m_n_a.png,O,None,2016,17,1,3029.600000023842,695795.1000000238,7794,VNB,B,15
4,test,2,1.0,2-Back,1.0,m,Tue May 05 2026 13:52:36 GMT-0500 (Central Daylight Time),701005.7000000477,011_m_f_n_a.png,O,m,1149,18,1,2175.399999976158,698830.3000000715,7794,VNB,B,16
0,test,3,1.0,2-Back,,,Tue May 05 2026 13:52:36 GMT-0500 (Central Daylight Time),701005.7000000477,004_o_m_n_a.png,O,space,1618,1,1,2175.399999976158,698830.3000000715,7794,VNB,B,0
0,test,3,1.0,2-Back,,,Tue May 05 2026 13:52:36 GMT-0500 (Central Daylight Time),701005.7000000477,005_o_f_d_a.png,O,space,1618,2,1,2175.399999976158,698830.3000000715,7794,VNB,B,0
1,test,3,0.0,2-Back,1.0,m,Tue May 05 2026 13:52:36 GMT-0500 (Central Daylight Time),709520.0,020_y_f_h_a.png,O,m,801,3,1,1827.7999999523163,707692.2000000477,7794,VNB,B,1
1,test,3,0.0,2-Back,0.0,z,Tue May 05 2026 13:52:36 GMT-0500 (Central Daylight Time),712551.9000000954,011_m_f_d_a.png,O,None,2016,4,1,3028.4000000953674,709523.5,7794,VNB,B,2
1,test,3,1.0,2-Back,0.0,m,Tue May 05 2026 13:52:36 GMT-0500 (Central Daylight Time),715585.6000000238,016_y_m_n_a.png,O,None,2014,5,1,3029.1999999284744,712556.4000000954,7794,VNB,B,3
1,test,3,0.0,2-Back,0.0,m,Tue May 05 2026 13:52:36 GMT-0500 (Central Daylight Time),718601.5,004_o_m_h_a.png,O,None,2001,6,1,3010.0,715591.5,7794,VNB,B,4
1,test,3,0.0,2-Back,0.0,z,Tue May 05 2026 13:52:36 GMT-0500 (Central Daylight Time),719849.4000000954,020_y_f_n_a.png,O,m,232,7,1,1243.0,718606.4000000954,7794,VNB,B,5
1,test,3,1.0,2-Back,0.0,m,Tue May 05 2026 13:52:36 GMT-0500 (Central Daylight Time),722884.0,007_m_m_d_a.png,O,None,2016,8,1,3031.6999999284744,719852.3000000715,7794,VNB,B,6
1,test,3,0.0,2-Back,0.0,m,Tue May 05 2026 13:52:36 GMT-0500 (Central Daylight Time),724998.8000000715,016_y_m_d_a.png,O,z,1084,9,1,2112.100000023842,722886.7000000477,7794,VNB,B,7
2,test,3,0.0,2-Back,1.0,m,Tue May 05 2026 13:52:36 GMT-0500 (Central Daylight Time),726714.9000000954,005_o_f_h_a.png,O,m,698,10,1,1709.3000000715256,725005.6000000238,7794,VNB,B,8
2,test,3,1.0,2-Back,0.0,m,Tue May 05 2026 13:52:36 GMT-0500 (Central Daylight Time),729747.3000000715,011_m_f_n_a.png,O,None,2015,11,1,3028.0,726719.3000000715,7794,VNB,B,9
2,test,3,1.0,2-Back,0.0,z,Tue May 05 2026 13:52:36 GMT-0500 (Central Daylight Time),732262.1000000238,007_m_m_h_a.png,O,m,1492,12,1,2505.0,729757.1000000238,7794,VNB,B,10
2,test,3,0.0,2-Back,0.0,m,Tue May 05 2026 13:52:36 GMT-0500 (Central Daylight Time),734246.1000000238,020_y_f_d_a.png,O,z,952,13,1,1981.6999999284744,732264.4000000954,7794,VNB,B,11
2,test,3,0.0,2-Back,0.0,m,Tue May 05 2026 13:52:36 GMT-0500 (Central Daylight Time),737045.2000000477,005_o_f_n_a.png,O,z,1772,14,1,2792.2999999523163,734252.9000000954,7794,VNB,B,12
2,test,3,0.0,2-Back,0.0,z,Tue May 05 2026 13:52:36 GMT-0500 (Central Daylight Time),740027.1000000238,004_o_m_d_a.png,O,m,1964,15,1,2980.100000023842,737047.0,7794,VNB,B,13
3,test,3,1.0,2-Back,1.0,m,Tue May 05 2026 13:52:36 GMT-0500 (Central Daylight Time),742909.4000000954,011_m_f_h_a.png,O,m,1855,16,1,2873.4000000953674,740036.0,7794,VNB,B,14
3,test,3,0.0,2-Back,0.0,m,Tue May 05 2026 13:52:36 GMT-0500 (Central Daylight Time),745942.4000000954,007_m_m_n_a.png,O,None,2017,17,1,3029.100000023842,742913.3000000715,7794,VNB,B,15
3,test,3,0.0,2-Back,0.0,z,Tue May 05 2026 13:52:36 GMT-0500 (Central Daylight Time),747641.4000000954,016_y_m_h_a.png,O,m,677,18,1,1691.5,745949.9000000954,7794,VNB,B,16
0,test,4,0.0,2-Back,,,Tue May 05 2026 13:52:36 GMT-0500 (Central Daylight Time),747641.4000000954,011_m_f_n_a.png,O,space,1999,1,1,1691.5,745949.9000000954,7794,VNB,B,0
0,test,4,0.0,2-Back,,,Tue May 05 2026 13:52:36 GMT-0500 (Central Daylight Time),747641.4000000954,004_o_m_n_a.png,O,space,1999,2,1,1691.5,745949.9000000954,7794,VNB,B,0
0,test,4,1.0,2-Back,0.0,m,Tue May 05 2026 13:52:36 GMT-0500 (Central Daylight Time),756404.7000000477,016_y_m_h_a.png,O,z,516,3,1,1545.5,754859.2000000477,7794,VNB,B,1
1,test,4,1.0,2-Back,1.0,m,Tue May 05 2026 13:52:36 GMT-0500 (Central Daylight Time),759104.6000000238,005_o_f_d_a.png,O,m,1683,4,1,2690.7999999523163,756413.8000000715,7794,VNB,B,2
2,test,4,0.0,2-Back,1.0,z,Tue May 05 2026 13:52:36 GMT-0500 (Central Daylight Time),761019.8000000715,004_o_m_h_a.png,O,z,887,5,1,1912.5,759107.3000000715,7794,VNB,B,3
3,test,4,0.0,2-Back,1.0,m,Tue May 05 2026 13:52:36 GMT-0500 (Central Daylight Time),762635.7000000477,007_m_m_n_a.png,O,m,587,6,1,1609.2000000476837,761026.5,7794,VNB,B,4
3,test,4,0.0,2-Back,0.0,m,Tue May 05 2026 13:52:36 GMT-0500 (Central Daylight Time),764902.5,011_m_f_d_a.png,O,z,1235,7,1,2264.5999999046326,762637.9000000954,7794,VNB,B,5
4,test,4,0.0,2-Back,1.0,z,Tue May 05 2026 13:52:36 GMT-0500 (Central Daylight Time),766884.6000000238,020_y_f_n_a.png,O,z,952,8,1,1974.2999999523163,764910.3000000715,7794,VNB,B,6
5,test,4,1.0,2-Back,1.0,m,Tue May 05 2026 13:52:36 GMT-0500 (Central Daylight Time),769285.0,005_o_f_h_a.png,O,m,1378,9,1,2395.7999999523163,766889.2000000477,7794,VNB,B,7
5,test,4,0.0,2-Back,0.0,m,Tue May 05 2026 13:52:36 GMT-0500 (Central Daylight Time),771550.4000000954,007_m_m_h_a.png,O,z,1235,10,1,2257.5,769292.9000000954,7794,VNB,B,8
6,test,4,0.0,2-Back,1.0,m,Tue May 05 2026 13:52:36 GMT-0500 (Central Daylight Time),773433.1000000238,020_y_f_d_a.png,O,m,865,11,1,1879.6999999284744,771553.4000000954,7794,VNB,B,9
7,test,4,0.0,2-Back,1.0,m,Tue May 05 2026 13:52:36 GMT-0500 (Central Daylight Time),775900.7000000477,016_y_m_n_a.png,O,m,1439,12,1,2461.0,773439.7000000477,7794,VNB,B,10
7,test,4,0.0,2-Back,0.0,z,Tue May 05 2026 13:52:36 GMT-0500 (Central Daylight Time),778197.5,004_o_m_d_a.png,O,m,1267,13,1,2294.0999999046326,775903.4000000954,7794,VNB,B,11
7,test,4,1.0,2-Back,0.0,m,Tue May 05 2026 13:52:36 GMT-0500 (Central Daylight Time),780465.2000000477,011_m_f_h_a.png,O,z,1251,14,1,2260.899999976158,778204.3000000715,7794,VNB,B,12
7,test,4,1.0,2-Back,0.0,m,Tue May 05 2026 13:52:36 GMT-0500 (Central Daylight Time),782130.7000000477,020_y_f_h_a.png,O,z,649,15,1,1662.2000000476837,780468.5,7794,VNB,B,13
8,test,4,0.0,2-Back,1.0,m,Tue May 05 2026 13:52:36 GMT-0500 (Central Daylight Time),784245.4000000954,005_o_f_n_a.png,O,m,1086,16,1,2105.0,782140.4000000954,7794,VNB,B,14
8,test,4,0.0,2-Back,0.0,m,Tue May 05 2026 13:52:36 GMT-0500 (Central Daylight Time),786445.6000000238,016_y_m_d_a.png,O,z,1170,17,1,2197.600000023842,784248.0,7794,VNB,B,15
8,test,4,1.0,2-Back,0.0,m,Tue May 05 2026 13:52:36 GMT-0500 (Central Daylight Time),788810.3000000715,007_m_m_d_a.png,O,z,1336,18,1,2357.399999976158,786452.9000000954,7794,VNB,B,16
0,test,5,1.0,2-Back,,,Tue May 05 2026 13:52:36 GMT-0500 (Central Daylight Time),788810.3000000715,020_y_f_d_a.png,O,space,1710,1,1,2357.399999976158,786452.9000000954,7794,VNB,B,0
0,test,5,1.0,2-Back,,,Tue May 05 2026 13:52:36 GMT-0500 (Central Daylight Time),788810.3000000715,005_o_f_h_a.png,O,space,1710,2,1,2357.399999976158,786452.9000000954,7794,VNB,B,0
1,test,5,1.0,2-Back,1.0,z,Tue May 05 2026 13:52:36 GMT-0500 (Central Daylight Time),797792.5,004_o_m_d_a.png,O,z,1040,3,1,2061.0,795731.5,7794,VNB,B,1
1,test,5,1.0,2-Back,0.0,m,Tue May 05 2026 13:52:36 GMT-0500 (Central Daylight Time),799757.8000000715,011_m_f_n_a.png,O,z,943,4,1,1957.3000000715256,797800.5,7794,VNB,B,2
2,test,5,0.0,2-Back,1.0,m,Tue May 05 2026 13:52:36 GMT-0500 (Central Daylight Time),801906.9000000954,007_m_m_h_a.png,O,m,1122,5,1,2147.100000023842,799759.8000000715,7794,VNB,B,3
3,test,5,0.0,2-Back,1.0,z,Tue May 05 2026 13:52:36 GMT-0500 (Central Daylight Time),803823.2000000477,020_y_f_n_a.png,O,z,892,6,1,1908.0,801915.2000000477,7794,VNB,B,4
4,test,5,0.0,2-Back,1.0,m,Tue May 05 2026 13:52:36 GMT-0500 (Central Daylight Time),806257.3000000715,005_o_f_d_a.png,O,m,1417,7,1,2431.8000000715256,803825.5,7794,VNB,B,5
4,test,5,0.0,2-Back,0.0,m,Tue May 05 2026 13:52:36 GMT-0500 (Central Daylight Time),809107.2000000477,004_o_m_h_a.png,O,z,1825,8,1,2843.7999999523163,806263.4000000954,7794,VNB,B,6
4,test,5,1.0,2-Back,0.0,z,Tue May 05 2026 13:52:36 GMT-0500 (Central Daylight Time),811003.0,011_m_f_d_a.png,O,m,877,9,1,1893.8999999761581,809109.1000000238,7794,VNB,B,7
5,test,5,0.0,2-Back,1.0,m,Tue May 05 2026 13:52:36 GMT-0500 (Central Daylight Time),813338.6000000238,016_y_m_n_a.png,O,m,1317,10,1,2332.399999976158,811006.2000000477,7794,VNB,B,8
5,test,5,0.0,2-Back,0.0,m,Tue May 05 2026 13:52:36 GMT-0500 (Central Daylight Time),815885.8000000715,007_m_m_n_a.png,O,z,1519,11,1,2544.100000023842,813341.7000000477,7794,VNB,B,9
6,test,5,0.0,2-Back,1.0,m,Tue May 05 2026 13:52:36 GMT-0500 (Central Daylight Time),818102.1000000238,020_y_f_h_a.png,O,m,1187,12,1,2209.6999999284744,815892.4000000954,7794,VNB,B,10
7,test,5,0.0,2-Back,1.0,m,Tue May 05 2026 13:52:36 GMT-0500 (Central Daylight Time),820067.6000000238,016_y_m_d_a.png,O,m,945,13,1,1959.3999999761581,818108.2000000477,7794,VNB,B,11
8,test,5,1.0,2-Back,1.0,z,Tue May 05 2026 13:52:36 GMT-0500 (Central Daylight Time),821633.9000000954,011_m_f_h_a.png,O,z,539,14,1,1561.2000000476837,820072.7000000477,7794,VNB,B,12
9,test,5,0.0,2-Back,1.0,m,Tue May 05 2026 13:52:36 GMT-0500 (Central Daylight Time),823815.9000000954,004_o_m_n_a.png,O,m,1157,15,1,2179.600000023842,821636.3000000715,7794,VNB,B,13
9,test,5,0.0,2-Back,0.0,m,Tue May 05 2026 13:52:36 GMT-0500 (Central Daylight Time),826215.7000000477,007_m_m_d_a.png,O,z,1376,16,1,2391.899999976158,823823.8000000715,7794,VNB,B,14
9,test,5,0.0,2-Back,0.0,z,Tue May 05 2026 13:52:36 GMT-0500 (Central Daylight Time),828315.4000000954,005_o_f_n_a.png,O,m,1079,17,1,2094.2000000476837,826221.2000000477,7794,VNB,B,15
10,test,5,1.0,2-Back,1.0,m,Tue May 05 2026 13:52:36 GMT-0500 (Central Daylight Time),830913.5,016_y_m_h_a.png,O,m,1572,18,1,2589.6999999284744,828323.8000000715,7794,VNB,B,16
