acc_sum,block,block_c,change,condition,correct,correct_response,datetime,endtime,face,project,response,response_time,row_sel,session_number,start_end,starttime,subject_id,task,task_vers,trial
0,prac,1,,1-Back,,,Wed Aug 07 2024 14:21:47 GMT-0500 (Central Daylight Time),,050_m_f_n_a.png,O,space,20324,1,1,,,7002,NNB,A,0
1,prac,1,0.0,1-Back,1,m,Wed Aug 07 2024 14:21:47 GMT-0500 (Central Daylight Time),140875.80000000005,063_y_f_n_a.png,O,m,1590,2,1,2391.4000000001397,138484.3999999999,7002,NNB,A,1
1,prac,1,1.0,1-Back,0,z,Wed Aug 07 2024 14:21:47 GMT-0500 (Central Daylight Time),142625.3999999999,063_y_f_n_a.png,O,m,960,3,1,1743.1999999999534,140882.19999999995,7002,NNB,A,2
1,prac,1,0.0,1-Back,0,m,Wed Aug 07 2024 14:21:47 GMT-0500 (Central Daylight Time),145040.8999999999,053_o_m_n_a.png,O,z,1607,4,1,2408.399999999907,142632.5,7002,NNB,A,3
1,prac,1,0.0,1-Back,0,m,Wed Aug 07 2024 14:21:47 GMT-0500 (Central Daylight Time),147839.80000000005,058_m_m_n_a.png,O,None,2001,5,1,2792.3000000000466,145047.5,7002,NNB,A,4
1,prac,1,1.0,1-Back,0,z,Wed Aug 07 2024 14:21:47 GMT-0500 (Central Daylight Time),150622.19999999995,058_m_m_n_a.png,O,None,2008,6,1,2774.8000000000466,147847.3999999999,7002,NNB,A,5
1,prac,1,0.0,1-Back,0,m,Wed Aug 07 2024 14:21:47 GMT-0500 (Central Daylight Time),152888.69999999995,047_o_f_n_a.png,O,z,1428,7,1,2258.6999999999534,150630.0,7002,NNB,A,6
1,prac,1,0.0,1-Back,0,m,Wed Aug 07 2024 14:21:47 GMT-0500 (Central Daylight Time),155687.69999999995,045_m_m_n_a.png,O,None,2002,8,1,2792.0999999998603,152895.6000000001,7002,NNB,A,7
2,prac,1,0.0,1-Back,1,m,Wed Aug 07 2024 14:21:47 GMT-0500 (Central Daylight Time),157686.69999999995,050_m_f_n_a.png,O,m,1219,9,1,1992.3999999999069,155694.30000000005,7002,NNB,A,8
3,prac,1,1.0,1-Back,1,z,Wed Aug 07 2024 14:21:47 GMT-0500 (Central Daylight Time),159372.19999999995,050_m_f_n_a.png,O,z,900,10,1,1678.0999999998603,157694.1000000001,7002,NNB,A,9
4,prac,1,0.0,1-Back,1,m,Wed Aug 07 2024 14:21:47 GMT-0500 (Central Daylight Time),162135.6000000001,053_o_m_n_a.png,O,m,1988,11,1,2756.0,159379.6000000001,7002,NNB,A,10
5,prac,1,0.0,1-Back,1,m,Wed Aug 07 2024 14:21:47 GMT-0500 (Central Daylight Time),164784.8999999999,010_y_f_n_a.png,O,m,1807,12,1,2642.6999999999534,162142.19999999995,7002,NNB,A,11
0,prac,2,0.0,1-Back,,,Wed Aug 07 2024 14:21:47 GMT-0500 (Central Daylight Time),164784.8999999999,050_m_f_n_a.png,O,a,4053,1,1,2642.6999999999534,162142.19999999995,7002,NNB,A,0
1,prac,2,0.0,1-Back,1,m,Wed Aug 07 2024 14:21:47 GMT-0500 (Central Daylight Time),173915.0,063_y_f_n_a.png,O,m,1254,2,1,2023.3000000000466,171891.69999999995,7002,NNB,A,1
2,prac,2,1.0,1-Back,1,z,Wed Aug 07 2024 14:21:47 GMT-0500 (Central Daylight Time),175981.19999999995,063_y_f_n_a.png,O,z,1280,3,1,2059.5999999998603,173921.6000000001,7002,NNB,A,2
3,prac,2,0.0,1-Back,1,m,Wed Aug 07 2024 14:21:47 GMT-0500 (Central Daylight Time),177664.1000000001,053_o_m_n_a.png,O,m,894,4,1,1675.9000000001397,175988.19999999995,7002,NNB,A,3
4,prac,2,0.0,1-Back,1,m,Wed Aug 07 2024 14:21:47 GMT-0500 (Central Daylight Time),179446.8999999999,058_m_m_n_a.png,O,m,1003,5,1,1776.0,177670.8999999999,7002,NNB,A,4
5,prac,2,1.0,1-Back,1,z,Wed Aug 07 2024 14:21:47 GMT-0500 (Central Daylight Time),181746.1000000001,058_m_m_n_a.png,O,z,1516,6,1,2292.2000000001863,179453.8999999999,7002,NNB,A,5
6,prac,2,0.0,1-Back,1,m,Wed Aug 07 2024 14:21:47 GMT-0500 (Central Daylight Time),183512.1000000001,047_o_f_n_a.png,O,m,985,7,1,1759.2000000001863,181752.8999999999,7002,NNB,A,6
7,prac,2,0.0,1-Back,1,m,Wed Aug 07 2024 14:21:47 GMT-0500 (Central Daylight Time),185478.3999999999,045_m_m_n_a.png,O,m,1177,8,1,1957.8999999999069,183520.5,7002,NNB,A,7
8,prac,2,0.0,1-Back,1,m,Wed Aug 07 2024 14:21:47 GMT-0500 (Central Daylight Time),187427.6000000001,050_m_f_n_a.png,O,m,1164,9,1,1942.4000000001397,185485.19999999995,7002,NNB,A,8
9,prac,2,1.0,1-Back,1,z,Wed Aug 07 2024 14:21:47 GMT-0500 (Central Daylight Time),189010.6000000001,050_m_f_n_a.png,O,z,799,10,1,1576.2000000001863,187434.3999999999,7002,NNB,A,9
10,prac,2,0.0,1-Back,1,m,Wed Aug 07 2024 14:21:47 GMT-0500 (Central Daylight Time),190743.19999999995,053_o_m_n_a.png,O,m,944,11,1,1725.6999999999534,189017.5,7002,NNB,A,10
11,prac,2,0.0,1-Back,1,m,Wed Aug 07 2024 14:21:47 GMT-0500 (Central Daylight Time),192759.5,010_y_f_n_a.png,O,m,1235,12,1,2009.3000000000466,190750.19999999995,7002,NNB,A,11
0,test,1,0.0,1-Back,,,Wed Aug 07 2024 14:21:47 GMT-0500 (Central Daylight Time),192759.5,063_y_f_n_a.png,O,space,21448,1,1,2009.3000000000466,190750.19999999995,7002,NNB,A,0
1,test,1,0.0,1-Back,1,m,Wed Aug 07 2024 14:21:47 GMT-0500 (Central Daylight Time),224832.30000000005,043_m_f_n_a.png,O,m,1276,2,1,2293.100000000093,222539.19999999995,7002,NNB,A,1
2,test,1,0.0,1-Back,1,m,Wed Aug 07 2024 14:21:47 GMT-0500 (Central Daylight Time),226765.19999999995,010_y_f_n_a.png,O,m,905,3,1,1927.5,224837.69999999995,7002,NNB,A,2
3,test,1,1.0,1-Back,1,z,Wed Aug 07 2024 14:21:47 GMT-0500 (Central Daylight Time),228531.30000000005,010_y_f_n_a.png,O,z,740,4,1,1760.5,226770.80000000005,7002,NNB,A,3
4,test,1,0.0,1-Back,1,m,Wed Aug 07 2024 14:21:47 GMT-0500 (Central Daylight Time),230697.30000000005,043_m_f_n_a.png,O,m,1134,5,1,2160.600000000093,228536.69999999995,7002,NNB,A,4
5,test,1,0.0,1-Back,1,m,Wed Aug 07 2024 14:21:47 GMT-0500 (Central Daylight Time),232546.3999999999,053_o_m_n_a.png,O,m,814,6,1,1843.0999999998603,230703.30000000005,7002,NNB,A,5
6,test,1,1.0,1-Back,1,z,Wed Aug 07 2024 14:21:47 GMT-0500 (Central Daylight Time),234362.6000000001,053_o_m_n_a.png,O,z,799,7,1,1810.2000000001863,232552.3999999999,7002,NNB,A,6
7,test,1,0.0,1-Back,1,m,Wed Aug 07 2024 14:21:47 GMT-0500 (Central Daylight Time),236045.69999999995,058_m_m_n_a.png,O,m,654,8,1,1677.1999999999534,234368.5,7002,NNB,A,7
8,test,1,0.0,1-Back,1,m,Wed Aug 07 2024 14:21:47 GMT-0500 (Central Daylight Time),238061.6000000001,047_o_f_n_a.png,O,m,996,9,1,2009.8000000000466,236051.80000000005,7002,NNB,A,8
9,test,1,0.0,1-Back,1,m,Wed Aug 07 2024 14:21:47 GMT-0500 (Central Daylight Time),240027.69999999995,058_m_m_n_a.png,O,m,948,10,1,1959.8000000000466,238067.8999999999,7002,NNB,A,9
10,test,1,0.0,1-Back,1,m,Wed Aug 07 2024 14:21:47 GMT-0500 (Central Daylight Time),241893.69999999995,041_y_m_n_a.png,O,m,838,11,1,1860.5999999998603,240033.1000000001,7002,NNB,A,10
11,test,1,1.0,1-Back,1,z,Wed Aug 07 2024 14:21:47 GMT-0500 (Central Daylight Time),243610.0,041_y_m_n_a.png,O,z,684,12,1,1710.3999999999069,241899.6000000001,7002,NNB,A,11
12,test,1,0.0,1-Back,1,m,Wed Aug 07 2024 14:21:47 GMT-0500 (Central Daylight Time),245509.19999999995,044_o_f_n_a.png,O,m,879,13,1,1893.0,243616.19999999995,7002,NNB,A,12
13,test,1,1.0,1-Back,1,z,Wed Aug 07 2024 14:21:47 GMT-0500 (Central Daylight Time),247542.0,044_o_f_n_a.png,O,z,1004,14,1,2026.6999999999534,245515.30000000005,7002,NNB,A,13
14,test,1,0.0,1-Back,1,m,Wed Aug 07 2024 14:21:47 GMT-0500 (Central Daylight Time),249474.69999999995,008_y_m_n_a.png,O,m,900,15,1,1927.0999999998603,247547.6000000001,7002,NNB,A,14
15,test,1,0.0,1-Back,1,m,Wed Aug 07 2024 14:21:47 GMT-0500 (Central Daylight Time),251390.80000000005,050_m_f_n_a.png,O,m,894,16,1,1910.3000000000466,249480.5,7002,NNB,A,15
16,test,1,0.0,1-Back,1,m,Wed Aug 07 2024 14:21:47 GMT-0500 (Central Daylight Time),253190.19999999995,046_o_m_n_a.png,O,m,779,17,1,1793.5999999998603,251396.6000000001,7002,NNB,A,16
17,test,1,0.0,1-Back,1,m,Wed Aug 07 2024 14:21:47 GMT-0500 (Central Daylight Time),254973.0,050_m_f_n_a.png,O,m,763,18,1,1776.1999999999534,253196.80000000005,7002,NNB,A,17
0,test,2,0.0,1-Back,,,Wed Aug 07 2024 14:21:47 GMT-0500 (Central Daylight Time),254973.0,058_m_m_n_a.png,O,space,1644,1,1,1776.1999999999534,253196.80000000005,7002,NNB,A,0
1,test,2,0.0,1-Back,1,m,Wed Aug 07 2024 14:21:47 GMT-0500 (Central Daylight Time),260538.1000000001,043_m_f_n_a.png,O,m,867,2,1,1893.5,258644.6000000001,7002,NNB,A,1
2,test,2,1.0,1-Back,1,z,Wed Aug 07 2024 14:21:47 GMT-0500 (Central Daylight Time),262303.8999999999,043_m_f_n_a.png,O,z,735,3,1,1759.7999999998137,260544.1000000001,7002,NNB,A,2
3,test,2,0.0,1-Back,1,m,Wed Aug 07 2024 14:21:47 GMT-0500 (Central Daylight Time),264170.19999999995,058_m_m_n_a.png,O,m,849,4,1,1860.0,262310.19999999995,7002,NNB,A,3
4,test,2,0.0,1-Back,1,m,Wed Aug 07 2024 14:21:47 GMT-0500 (Central Daylight Time),266002.6000000001,041_y_m_n_a.png,O,m,815,5,1,1826.4000000001397,264176.19999999995,7002,NNB,A,4
5,test,2,0.0,1-Back,1,m,Wed Aug 07 2024 14:21:47 GMT-0500 (Central Daylight Time),267819.1000000001,063_y_f_n_a.png,O,m,790,6,1,1810.2000000001863,266008.8999999999,7002,NNB,A,5
6,test,2,1.0,1-Back,1,z,Wed Aug 07 2024 14:21:47 GMT-0500 (Central Daylight Time),269768.3999999999,063_y_f_n_a.png,O,z,918,7,1,1943.5999999998603,267824.80000000005,7002,NNB,A,6
7,test,2,0.0,1-Back,1,m,Wed Aug 07 2024 14:21:47 GMT-0500 (Central Daylight Time),271451.30000000005,041_y_m_n_a.png,O,m,657,8,1,1677.5,269773.80000000005,7002,NNB,A,7
8,test,2,0.0,1-Back,1,m,Wed Aug 07 2024 14:21:47 GMT-0500 (Central Daylight Time),273433.80000000005,044_o_f_n_a.png,O,m,958,9,1,1976.6000000000931,271457.19999999995,7002,NNB,A,8
9,test,2,0.0,1-Back,1,m,Wed Aug 07 2024 14:21:47 GMT-0500 (Central Daylight Time),275183.30000000005,045_m_m_n_a.png,O,m,719,10,1,1743.1000000000931,273440.19999999995,7002,NNB,A,9
10,test,2,1.0,1-Back,1,z,Wed Aug 07 2024 14:21:47 GMT-0500 (Central Daylight Time),276882.6000000001,045_m_m_n_a.png,O,z,666,11,1,1693.7000000001863,275188.8999999999,7002,NNB,A,10
11,test,2,0.0,1-Back,1,m,Wed Aug 07 2024 14:21:47 GMT-0500 (Central Daylight Time),278665.69999999995,044_o_f_n_a.png,O,m,751,12,1,1777.3000000000466,276888.3999999999,7002,NNB,A,11
12,test,2,0.0,1-Back,1,m,Wed Aug 07 2024 14:21:47 GMT-0500 (Central Daylight Time),280465.0,047_o_f_n_a.png,O,m,776,13,1,1793.8000000000466,278671.19999999995,7002,NNB,A,12
13,test,2,0.0,1-Back,1,m,Wed Aug 07 2024 14:21:47 GMT-0500 (Central Daylight Time),283014.0,053_o_m_n_a.png,O,m,1528,14,1,2543.1999999999534,280470.80000000005,7002,NNB,A,13
14,test,2,0.0,1-Back,1,m,Wed Aug 07 2024 14:21:47 GMT-0500 (Central Daylight Time),284780.3999999999,046_o_m_n_a.png,O,m,747,15,1,1760.5999999998603,283019.80000000005,7002,NNB,A,14
15,test,2,1.0,1-Back,1,z,Wed Aug 07 2024 14:21:47 GMT-0500 (Central Daylight Time),287096.3999999999,046_o_m_n_a.png,O,z,1293,16,1,2309.7999999998137,284786.6000000001,7002,NNB,A,15
16,test,2,0.0,1-Back,1,m,Wed Aug 07 2024 14:21:47 GMT-0500 (Central Daylight Time),288862.3999999999,008_y_m_n_a.png,O,m,745,17,1,1759.7999999998137,287102.6000000001,7002,NNB,A,16
16,test,2,1.0,1-Back,0,z,Wed Aug 07 2024 14:21:47 GMT-0500 (Central Daylight Time),290495.19999999995,008_y_m_n_a.png,O,m,611,18,1,1626.8999999999069,288868.30000000005,7002,NNB,A,17
0,test,3,1.0,1-Back,,,Wed Aug 07 2024 14:21:47 GMT-0500 (Central Daylight Time),290495.19999999995,010_y_f_n_a.png,O,space,1634,1,1,1626.8999999999069,288868.30000000005,7002,NNB,A,0
1,test,3,0.0,1-Back,1,m,Wed Aug 07 2024 14:21:47 GMT-0500 (Central Daylight Time),296160.1000000001,046_o_m_n_a.png,O,m,927,2,1,1944.1000000000931,294216.0,7002,NNB,A,1
2,test,3,1.0,1-Back,1,z,Wed Aug 07 2024 14:21:47 GMT-0500 (Central Daylight Time),297793.0,046_o_m_n_a.png,O,z,609,3,1,1627.1000000000931,296165.8999999999,7002,NNB,A,2
3,test,3,0.0,1-Back,1,m,Wed Aug 07 2024 14:21:47 GMT-0500 (Central Daylight Time),299659.1000000001,050_m_f_n_a.png,O,m,841,4,1,1860.1000000000931,297799.0,7002,NNB,A,3
4,test,3,1.0,1-Back,1,z,Wed Aug 07 2024 14:21:47 GMT-0500 (Central Daylight Time),301408.3999999999,050_m_f_n_a.png,O,z,718,5,1,1743.1999999999534,299665.19999999995,7002,NNB,A,4
5,test,3,0.0,1-Back,1,m,Wed Aug 07 2024 14:21:47 GMT-0500 (Central Daylight Time),303907.6000000001,044_o_f_n_a.png,O,m,1473,6,1,2493.8000000000466,301413.80000000005,7002,NNB,A,5
6,test,3,0.0,1-Back,1,m,Wed Aug 07 2024 14:21:47 GMT-0500 (Central Daylight Time),305673.69999999995,041_y_m_n_a.png,O,m,742,7,1,1760.3000000000466,303913.3999999999,7002,NNB,A,6
7,test,3,0.0,1-Back,1,m,Wed Aug 07 2024 14:21:47 GMT-0500 (Central Daylight Time),307739.80000000005,044_o_f_n_a.png,O,m,1048,8,1,2059.8000000000466,305680.0,7002,NNB,A,7
8,test,3,0.0,1-Back,1,m,Wed Aug 07 2024 14:21:47 GMT-0500 (Central Daylight Time),309522.3999999999,008_y_m_n_a.png,O,m,758,9,1,1775.0,307747.3999999999,7002,NNB,A,8
9,test,3,1.0,1-Back,1,z,Wed Aug 07 2024 14:21:47 GMT-0500 (Central Daylight Time),311288.6000000001,008_y_m_n_a.png,O,z,743,10,1,1760.0,309528.6000000001,7002,NNB,A,9
10,test,3,0.0,1-Back,1,m,Wed Aug 07 2024 14:21:47 GMT-0500 (Central Daylight Time),313038.0,043_m_f_n_a.png,O,m,729,11,1,1743.5,311294.5,7002,NNB,A,10
11,test,3,0.0,1-Back,1,m,Wed Aug 07 2024 14:21:47 GMT-0500 (Central Daylight Time),314987.5,063_y_f_n_a.png,O,m,923,12,1,1943.8999999999069,313043.6000000001,7002,NNB,A,11
12,test,3,1.0,1-Back,1,z,Wed Aug 07 2024 14:21:47 GMT-0500 (Central Daylight Time),316736.8999999999,063_y_f_n_a.png,O,z,726,13,1,1742.8999999999069,314994.0,7002,NNB,A,12
13,test,3,0.0,1-Back,1,m,Wed Aug 07 2024 14:21:47 GMT-0500 (Central Daylight Time),319002.80000000005,043_m_f_n_a.png,O,m,1248,14,1,2260.600000000093,316742.19999999995,7002,NNB,A,13
14,test,3,0.0,1-Back,1,m,Wed Aug 07 2024 14:21:47 GMT-0500 (Central Daylight Time),320902.30000000005,058_m_m_n_a.png,O,m,867,15,1,1893.9000000001397,319008.3999999999,7002,NNB,A,14
15,test,3,1.0,1-Back,1,z,Wed Aug 07 2024 14:21:47 GMT-0500 (Central Daylight Time),322751.6000000001,058_m_m_n_a.png,O,z,819,16,1,1843.5,320908.1000000001,7002,NNB,A,15
16,test,3,0.0,1-Back,1,m,Wed Aug 07 2024 14:21:47 GMT-0500 (Central Daylight Time),324517.69999999995,047_o_f_n_a.png,O,m,738,17,1,1760.1999999999534,322757.5,7002,NNB,A,16
17,test,3,1.0,1-Back,1,z,Wed Aug 07 2024 14:21:47 GMT-0500 (Central Daylight Time),326353.6000000001,047_o_f_n_a.png,O,z,804,18,1,1830.5,324523.1000000001,7002,NNB,A,17
0,test,4,1.0,1-Back,,,Wed Aug 07 2024 14:21:47 GMT-0500 (Central Daylight Time),326353.6000000001,050_m_f_n_a.png,O,space,2455,1,1,1830.5,324523.1000000001,7002,NNB,A,0
1,test,4,0.0,1-Back,1,m,Wed Aug 07 2024 14:21:47 GMT-0500 (Central Daylight Time),332681.80000000005,046_o_m_n_a.png,O,m,817,2,1,1844.0,330837.80000000005,7002,NNB,A,1
2,test,4,0.0,1-Back,1,m,Wed Aug 07 2024 14:21:47 GMT-0500 (Central Daylight Time),335514.3999999999,050_m_f_n_a.png,O,m,1800,3,1,2826.2999999998137,332688.1000000001,7002,NNB,A,2
3,test,4,0.0,1-Back,1,m,Wed Aug 07 2024 14:21:47 GMT-0500 (Central Daylight Time),337297.0,044_o_f_n_a.png,O,m,751,4,1,1776.5,335520.5,7002,NNB,A,3
4,test,4,1.0,1-Back,1,z,Wed Aug 07 2024 14:21:47 GMT-0500 (Central Daylight Time),339346.5,044_o_f_n_a.png,O,z,1024,5,1,2043.8999999999069,337302.6000000001,7002,NNB,A,4
5,test,4,0.0,1-Back,1,m,Wed Aug 07 2024 14:21:47 GMT-0500 (Central Daylight Time),341096.0,063_y_f_n_a.png,O,m,727,6,1,1743.8000000000466,339352.19999999995,7002,NNB,A,5
6,test,4,0.0,1-Back,1,m,Wed Aug 07 2024 14:21:47 GMT-0500 (Central Daylight Time),342695.3999999999,041_y_m_n_a.png,O,m,578,7,1,1594.0,341101.3999999999,7002,NNB,A,6
7,test,4,1.0,1-Back,1,z,Wed Aug 07 2024 14:21:47 GMT-0500 (Central Daylight Time),344629.1000000001,041_y_m_n_a.png,O,z,914,8,1,1927.9000000001397,342701.19999999995,7002,NNB,A,7
8,test,4,0.0,1-Back,1,m,Wed Aug 07 2024 14:21:47 GMT-0500 (Central Daylight Time),346444.30000000005,063_y_f_n_a.png,O,m,789,9,1,1809.0,344635.30000000005,7002,NNB,A,8
9,test,4,0.0,1-Back,1,m,Wed Aug 07 2024 14:21:47 GMT-0500 (Central Daylight Time),348160.5,045_m_m_n_a.png,O,m,693,10,1,1710.6999999999534,346449.80000000005,7002,NNB,A,9
10,test,4,1.0,1-Back,1,z,Wed Aug 07 2024 14:21:47 GMT-0500 (Central Daylight Time),349943.19999999995,045_m_m_n_a.png,O,z,753,11,1,1777.0,348166.19999999995,7002,NNB,A,10
11,test,4,0.0,1-Back,1,m,Wed Aug 07 2024 14:21:47 GMT-0500 (Central Daylight Time),351726.0,047_o_f_n_a.png,O,m,762,12,1,1776.6999999999534,349949.30000000005,7002,NNB,A,11
12,test,4,0.0,1-Back,1,m,Wed Aug 07 2024 14:21:47 GMT-0500 (Central Daylight Time),353508.69999999995,053_o_m_n_a.png,O,m,764,13,1,1777.0999999998603,351731.6000000001,7002,NNB,A,12
13,test,4,0.0,1-Back,1,m,Wed Aug 07 2024 14:21:47 GMT-0500 (Central Daylight Time),355991.1000000001,047_o_f_n_a.png,O,m,1453,14,1,2476.100000000093,353515.0,7002,NNB,A,13
14,test,4,0.0,1-Back,1,m,Wed Aug 07 2024 14:21:47 GMT-0500 (Central Daylight Time),358090.5,010_y_f_n_a.png,O,m,1067,15,1,2093.5,355997.0,7002,NNB,A,14
15,test,4,1.0,1-Back,1,z,Wed Aug 07 2024 14:21:47 GMT-0500 (Central Daylight Time),359756.69999999995,010_y_f_n_a.png,O,z,647,16,1,1660.0999999998603,358096.6000000001,7002,NNB,A,15
16,test,4,0.0,1-Back,1,m,Wed Aug 07 2024 14:21:47 GMT-0500 (Central Daylight Time),361539.30000000005,043_m_f_n_a.png,O,m,757,17,1,1776.1000000000931,359763.19999999995,7002,NNB,A,16
17,test,4,1.0,1-Back,1,z,Wed Aug 07 2024 14:21:47 GMT-0500 (Central Daylight Time),363305.19999999995,043_m_f_n_a.png,O,z,742,18,1,1759.6999999999534,361545.5,7002,NNB,A,17
0,test,5,1.0,1-Back,,,Wed Aug 07 2024 14:21:47 GMT-0500 (Central Daylight Time),363305.19999999995,053_o_m_n_a.png,O,space,1856,1,1,1759.6999999999534,361545.5,7002,NNB,A,0
1,test,5,1.0,1-Back,1,z,Wed Aug 07 2024 14:21:47 GMT-0500 (Central Daylight Time),369136.8999999999,053_o_m_n_a.png,O,z,926,2,1,1943.5,367193.3999999999,7002,NNB,A,1
2,test,5,0.0,1-Back,1,m,Wed Aug 07 2024 14:21:47 GMT-0500 (Central Daylight Time),370769.8999999999,063_y_f_n_a.png,O,m,601,3,1,1627.2999999998137,369142.6000000001,7002,NNB,A,2
3,test,5,0.0,1-Back,1,m,Wed Aug 07 2024 14:21:47 GMT-0500 (Central Daylight Time),372502.6000000001,041_y_m_n_a.png,O,m,704,4,1,1726.6000000000931,370776.0,7002,NNB,A,3
4,test,5,0.0,1-Back,1,m,Wed Aug 07 2024 14:21:47 GMT-0500 (Central Daylight Time),374302.19999999995,063_y_f_n_a.png,O,m,779,5,1,1793.3000000000466,372508.8999999999,7002,NNB,A,4
5,test,5,0.0,1-Back,1,m,Wed Aug 07 2024 14:21:47 GMT-0500 (Central Daylight Time),376002.0,058_m_m_n_a.png,O,m,667,6,1,1693.3999999999069,374308.6000000001,7002,NNB,A,5
6,test,5,1.0,1-Back,1,z,Wed Aug 07 2024 14:21:47 GMT-0500 (Central Daylight Time),377634.7000000002,058_m_m_n_a.png,O,z,600,7,1,1626.4000000001397,376008.30000000005,7002,NNB,A,6
7,test,5,0.0,1-Back,1,m,Wed Aug 07 2024 14:21:47 GMT-0500 (Central Daylight Time),379550.6000000001,010_y_f_n_a.png,O,m,887,8,1,1910.1000000000931,377640.5,7002,NNB,A,7
8,test,5,0.0,1-Back,1,m,Wed Aug 07 2024 14:21:47 GMT-0500 (Central Daylight Time),381299.8999999999,008_y_m_n_a.png,O,m,731,9,1,1743.1999999997206,379556.7000000002,7002,NNB,A,8
9,test,5,0.0,1-Back,1,m,Wed Aug 07 2024 14:21:47 GMT-0500 (Central Daylight Time),383166.1000000001,010_y_f_n_a.png,O,m,845,10,1,1860.5,381305.6000000001,7002,NNB,A,9
10,test,5,0.0,1-Back,1,m,Wed Aug 07 2024 14:21:47 GMT-0500 (Central Daylight Time),384915.3999999999,047_o_f_n_a.png,O,m,731,11,1,1743.1999999997206,383172.2000000002,7002,NNB,A,10
11,test,5,1.0,1-Back,1,z,Wed Aug 07 2024 14:21:47 GMT-0500 (Central Daylight Time),386549.3999999999,047_o_f_n_a.png,O,z,614,12,1,1628.2999999998137,384921.1000000001,7002,NNB,A,11
12,test,5,0.0,1-Back,1,m,Wed Aug 07 2024 14:21:47 GMT-0500 (Central Daylight Time),388497.6000000001,046_o_m_n_a.png,O,m,917,13,1,1941.8999999999069,386555.7000000002,7002,NNB,A,12
13,test,5,0.0,1-Back,1,m,Wed Aug 07 2024 14:21:47 GMT-0500 (Central Daylight Time),390413.6000000001,050_m_f_n_a.png,O,m,888,14,1,1910.3999999999069,388503.2000000002,7002,NNB,A,13
14,test,5,1.0,1-Back,1,z,Wed Aug 07 2024 14:21:47 GMT-0500 (Central Daylight Time),392113.3999999999,050_m_f_n_a.png,O,z,676,15,1,1694.1000000000931,390419.2999999998,7002,NNB,A,14
15,test,5,0.0,1-Back,1,m,Wed Aug 07 2024 14:21:47 GMT-0500 (Central Daylight Time),393779.3999999999,046_o_m_n_a.png,O,m,640,16,1,1659.8999999999069,392119.5,7002,NNB,A,15
16,test,5,0.0,1-Back,1,m,Wed Aug 07 2024 14:21:47 GMT-0500 (Central Daylight Time),396178.7000000002,043_m_f_n_a.png,O,m,1382,17,1,2393.600000000093,393785.1000000001,7002,NNB,A,16
17,test,5,0.0,1-Back,1,m,Wed Aug 07 2024 14:21:47 GMT-0500 (Central Daylight Time),397828.1000000001,045_m_m_n_a.png,O,m,631,18,1,1643.8000000002794,396184.2999999998,7002,NNB,A,17
0,prac,1,0.0,2-Back,,,Wed Aug 07 2024 14:21:47 GMT-0500 (Central Daylight Time),397828.1000000001,008_y_m_n_a.png,O,space,10099,1,1,1643.8000000002794,396184.2999999998,7002,NNB,A,0
0,prac,1,0.0,2-Back,,,Wed Aug 07 2024 14:21:47 GMT-0500 (Central Daylight Time),397828.1000000001,043_m_f_n_a.png,O,space,10099,2,1,1643.8000000002794,396184.2999999998,7002,NNB,A,0
1,prac,1,1.0,2-Back,1,m,Wed Aug 07 2024 14:21:47 GMT-0500 (Central Daylight Time),541266.5,046_o_m_n_a.png,O,m,1800,3,1,2592.2999999998137,538674.2000000002,7002,NNB,A,1
1,prac,1,0.0,2-Back,0,m,Wed Aug 07 2024 14:21:47 GMT-0500 (Central Daylight Time),544098.8999999999,047_o_f_n_a.png,O,None,2002,4,1,2824.6999999997206,541274.2000000002,7002,NNB,A,2
2,prac,1,0.0,2-Back,1,z,Wed Aug 07 2024 14:21:47 GMT-0500 (Central Daylight Time),546182.6000000001,046_o_m_n_a.png,O,z,1296,5,1,2076.600000000093,544106.0,7002,NNB,A,3
2,prac,1,1.0,2-Back,0,z,Wed Aug 07 2024 14:21:47 GMT-0500 (Central Daylight Time),548964.1000000001,047_o_f_n_a.png,O,None,2007,6,1,2774.5,546189.6000000001,7002,NNB,A,4
2,prac,1,0.0,2-Back,0,m,Wed Aug 07 2024 14:21:47 GMT-0500 (Central Daylight Time),551763.0,045_m_m_n_a.png,O,None,2003,7,1,2792.100000000093,548970.8999999999,7002,NNB,A,5
3,prac,1,0.0,2-Back,1,m,Wed Aug 07 2024 14:21:47 GMT-0500 (Central Daylight Time),553596.1000000001,053_o_m_n_a.png,O,m,1023,8,1,1825.8000000002794,551770.2999999998,7002,NNB,A,6
4,prac,1,0.0,2-Back,1,m,Wed Aug 07 2024 14:21:47 GMT-0500 (Central Daylight Time),555795.2999999998,010_y_f_n_a.png,O,m,1361,9,1,2191.5999999996275,553603.7000000002,7002,NNB,A,7
5,prac,1,1.0,2-Back,1,z,Wed Aug 07 2024 14:21:47 GMT-0500 (Central Daylight Time),557929.7000000002,053_o_m_n_a.png,O,z,1368,10,1,2127.5,555802.2000000002,7002,NNB,A,8
6,prac,1,0.0,2-Back,1,m,Wed Aug 07 2024 14:21:47 GMT-0500 (Central Daylight Time),559844.0,063_y_f_n_a.png,O,m,1097,11,1,1906.6000000000931,557937.3999999999,7002,NNB,A,9
7,prac,1,0.0,2-Back,1,m,Wed Aug 07 2024 14:21:47 GMT-0500 (Central Daylight Time),561893.2000000002,045_m_m_n_a.png,O,m,1263,12,1,2042.3000000002794,559850.8999999999,7002,NNB,A,10
0,test,1,0.0,2-Back,,,Wed Aug 07 2024 14:21:47 GMT-0500 (Central Daylight Time),561893.2000000002,041_y_m_n_a.png,O,space,16858,1,1,2042.3000000002794,559850.8999999999,7002,NNB,A,0
0,test,1,0.0,2-Back,,,Wed Aug 07 2024 14:21:47 GMT-0500 (Central Daylight Time),561893.2000000002,041_y_m_n_a.png,O,space,16858,2,1,2042.3000000002794,559850.8999999999,7002,NNB,A,0
1,test,1,0.0,2-Back,1,m,Wed Aug 07 2024 14:21:47 GMT-0500 (Central Daylight Time),603746.7000000002,047_o_f_n_a.png,O,m,1033,3,1,2060.3000000002794,601686.3999999999,7002,NNB,A,1
2,test,1,0.0,2-Back,1,m,Wed Aug 07 2024 14:21:47 GMT-0500 (Central Daylight Time),606295.8999999999,058_m_m_n_a.png,O,m,1527,4,1,2542.899999999907,603753.0,7002,NNB,A,2
2,test,1,1.0,2-Back,0,z,Wed Aug 07 2024 14:21:47 GMT-0500 (Central Daylight Time),608703.7000000002,047_o_f_n_a.png,O,m,1374,5,1,2401.600000000093,606302.1000000001,7002,NNB,A,3
3,test,1,0.0,2-Back,1,m,Wed Aug 07 2024 14:21:47 GMT-0500 (Central Daylight Time),610927.7999999998,063_y_f_n_a.png,O,m,1194,6,1,2217.0,608710.7999999998,7002,NNB,A,4
3,test,1,0.0,2-Back,0,m,Wed Aug 07 2024 14:21:47 GMT-0500 (Central Daylight Time),613360.3999999999,058_m_m_n_a.png,O,z,1402,7,1,2425.7999999998137,610934.6000000001,7002,NNB,A,5
3,test,1,1.0,2-Back,0,z,Wed Aug 07 2024 14:21:47 GMT-0500 (Central Daylight Time),616393.2000000002,063_y_f_n_a.png,O,None,2016,8,1,3026.600000000093,613366.6000000001,7002,NNB,A,6
4,test,1,0.0,2-Back,1,m,Wed Aug 07 2024 14:21:47 GMT-0500 (Central Daylight Time),618408.6000000001,008_y_m_n_a.png,O,m,985,9,1,2008.8000000002794,616399.7999999998,7002,NNB,A,7
5,test,1,0.0,2-Back,1,m,Wed Aug 07 2024 14:21:47 GMT-0500 (Central Daylight Time),620658.2000000002,044_o_f_n_a.png,O,m,1217,10,1,2243.7000000001863,618414.5,7002,NNB,A,8
6,test,1,1.0,2-Back,1,z,Wed Aug 07 2024 14:21:47 GMT-0500 (Central Daylight Time),623207.3999999999,008_y_m_n_a.png,O,z,1519,11,1,2543.0,620664.3999999999,7002,NNB,A,9
7,test,1,0.0,2-Back,1,m,Wed Aug 07 2024 14:21:47 GMT-0500 (Central Daylight Time),625573.1000000001,043_m_f_n_a.png,O,m,1346,12,1,2359.7000000001863,623213.3999999999,7002,NNB,A,10
7,test,1,0.0,2-Back,0,m,Wed Aug 07 2024 14:21:47 GMT-0500 (Central Daylight Time),628605.8999999999,043_m_f_n_a.png,O,None,2015,13,1,3026.899999999907,625579.0,7002,NNB,A,11
8,test,1,0.0,2-Back,1,m,Wed Aug 07 2024 14:21:47 GMT-0500 (Central Daylight Time),631071.5,046_o_m_n_a.png,O,m,1444,14,1,2459.2000000001863,628612.2999999998,7002,NNB,A,12
9,test,1,0.0,2-Back,1,m,Wed Aug 07 2024 14:21:47 GMT-0500 (Central Daylight Time),633087.6000000001,044_o_f_n_a.png,O,m,861,15,1,2010.0,631077.6000000001,7002,NNB,A,13
10,test,1,1.0,2-Back,1,z,Wed Aug 07 2024 14:21:47 GMT-0500 (Central Daylight Time),635336.8999999999,046_o_m_n_a.png,O,z,1218,16,1,2243.100000000093,633093.7999999998,7002,NNB,A,14
11,test,1,0.0,2-Back,1,m,Wed Aug 07 2024 14:21:47 GMT-0500 (Central Daylight Time),638186.0,050_m_f_n_a.png,O,m,1817,17,1,2843.100000000093,635342.8999999999,7002,NNB,A,15
12,test,1,0.0,2-Back,1,m,Wed Aug 07 2024 14:21:47 GMT-0500 (Central Daylight Time),640218.7999999998,045_m_m_n_a.png,O,m,1007,18,1,2026.5,638192.2999999998,7002,NNB,A,16
0,test,2,0.0,2-Back,,,Wed Aug 07 2024 14:21:47 GMT-0500 (Central Daylight Time),640218.7999999998,045_m_m_n_a.png,O,space,2854,1,1,2026.5,638192.2999999998,7002,NNB,A,0
0,test,2,0.0,2-Back,,,Wed Aug 07 2024 14:21:47 GMT-0500 (Central Daylight Time),640218.7999999998,010_y_f_n_a.png,O,space,2854,2,1,2026.5,638192.2999999998,7002,NNB,A,0
1,test,2,1.0,2-Back,1,z,Wed Aug 07 2024 14:21:47 GMT-0500 (Central Daylight Time),650682.1000000001,045_m_m_n_a.png,O,z,1475,3,1,2493.399999999907,648188.7000000002,7002,NNB,A,1
2,test,2,0.0,2-Back,1,m,Wed Aug 07 2024 14:21:47 GMT-0500 (Central Daylight Time),652564.7000000002,050_m_f_n_a.png,O,m,863,4,1,1876.6000000000931,650688.1000000001,7002,NNB,A,2
2,test,2,0.0,2-Back,0,m,Wed Aug 07 2024 14:21:47 GMT-0500 (Central Daylight Time),655613.8999999999,010_y_f_n_a.png,O,None,2032,5,1,3042.899999999907,652571.0,7002,NNB,A,3
3,test,2,0.0,2-Back,1,m,Wed Aug 07 2024 14:21:47 GMT-0500 (Central Daylight Time),657929.6000000001,046_o_m_n_a.png,O,m,1291,6,1,2309.0,655620.6000000001,7002,NNB,A,4
4,test,2,0.0,2-Back,1,m,Wed Aug 07 2024 14:21:47 GMT-0500 (Central Daylight Time),660062.2999999998,063_y_f_n_a.png,O,m,1112,7,1,2126.7999999998137,657935.5,7002,NNB,A,5
5,test,2,1.0,2-Back,1,z,Wed Aug 07 2024 14:21:47 GMT-0500 (Central Daylight Time),661978.2000000002,046_o_m_n_a.png,O,z,883,8,1,1910.0,660068.2000000002,7002,NNB,A,6
6,test,2,0.0,2-Back,1,m,Wed Aug 07 2024 14:21:47 GMT-0500 (Central Daylight Time),663761.2000000002,008_y_m_n_a.png,O,m,759,9,1,1776.6000000000931,661984.6000000001,7002,NNB,A,7
7,test,2,0.0,2-Back,1,m,Wed Aug 07 2024 14:21:47 GMT-0500 (Central Daylight Time),665643.8999999999,008_y_m_n_a.png,O,m,856,10,1,1876.2999999998137,663767.6000000001,7002,NNB,A,8
8,test,2,0.0,2-Back,1,m,Wed Aug 07 2024 14:21:47 GMT-0500 (Central Daylight Time),667760.0,043_m_f_n_a.png,O,m,1085,11,1,2109.7000000001863,665650.2999999998,7002,NNB,A,9
9,test,2,0.0,2-Back,1,m,Wed Aug 07 2024 14:21:47 GMT-0500 (Central Daylight Time),670342.2999999998,010_y_f_n_a.png,O,m,1561,12,1,2576.2999999998137,667766.0,7002,NNB,A,10
10,test,2,1.0,2-Back,1,z,Wed Aug 07 2024 14:21:47 GMT-0500 (Central Daylight Time),672341.8999999999,043_m_f_n_a.png,O,z,979,13,1,1993.6000000000931,670348.2999999998,7002,NNB,A,11
11,test,2,0.0,2-Back,1,m,Wed Aug 07 2024 14:21:47 GMT-0500 (Central Daylight Time),674307.7999999998,053_o_m_n_a.png,O,m,939,14,1,1959.8999999999069,672347.8999999999,7002,NNB,A,12
12,test,2,0.0,2-Back,1,m,Wed Aug 07 2024 14:21:47 GMT-0500 (Central Daylight Time),677206.8999999999,053_o_m_n_a.png,O,m,1869,15,1,2892.7999999998137,674314.1000000001,7002,NNB,A,13
13,test,2,0.0,2-Back,1,m,Wed Aug 07 2024 14:21:47 GMT-0500 (Central Daylight Time),679406.0,044_o_f_n_a.png,O,m,1170,16,1,2192.7000000001863,677213.2999999998,7002,NNB,A,14
14,test,2,0.0,2-Back,1,m,Wed Aug 07 2024 14:21:47 GMT-0500 (Central Daylight Time),681872.2000000002,058_m_m_n_a.png,O,m,1443,17,1,2460.2000000001863,679412.0,7002,NNB,A,15
15,test,2,1.0,2-Back,1,z,Wed Aug 07 2024 14:21:47 GMT-0500 (Central Daylight Time),683938.1000000001,044_o_f_n_a.png,O,z,1033,18,1,2059.5,681878.6000000001,7002,NNB,A,16
0,test,3,1.0,2-Back,,,Wed Aug 07 2024 14:21:47 GMT-0500 (Central Daylight Time),683938.1000000001,041_y_m_n_a.png,O,space,3583,1,1,2059.5,681878.6000000001,7002,NNB,A,0
0,test,3,1.0,2-Back,,,Wed Aug 07 2024 14:21:47 GMT-0500 (Central Daylight Time),683938.1000000001,041_y_m_n_a.png,O,space,3583,2,1,2059.5,681878.6000000001,7002,NNB,A,0
1,test,3,0.0,2-Back,1,m,Wed Aug 07 2024 14:21:47 GMT-0500 (Central Daylight Time),694351.5,044_o_f_n_a.png,O,m,726,3,1,1742.7999999998137,692608.7000000002,7002,NNB,A,1
1,test,3,0.0,2-Back,0,m,Wed Aug 07 2024 14:21:47 GMT-0500 (Central Daylight Time),697384.5,045_m_m_n_a.png,O,None,2016,4,1,3026.899999999907,694357.6000000001,7002,NNB,A,2
1,test,3,1.0,2-Back,0,z,Wed Aug 07 2024 14:21:47 GMT-0500 (Central Daylight Time),699482.7999999998,044_o_f_n_a.png,O,m,1073,5,1,2092.7999999998137,697390.0,7002,NNB,A,3
2,test,3,0.0,2-Back,1,m,Wed Aug 07 2024 14:21:47 GMT-0500 (Central Daylight Time),701449.2000000002,008_y_m_n_a.png,O,m,934,6,1,1959.7000000001863,699489.5,7002,NNB,A,4
3,test,3,0.0,2-Back,1,m,Wed Aug 07 2024 14:21:47 GMT-0500 (Central Daylight Time),703715.3999999999,045_m_m_n_a.png,O,m,1240,7,1,2259.6999999997206,701455.7000000002,7002,NNB,A,5
3,test,3,1.0,2-Back,0,z,Wed Aug 07 2024 14:21:47 GMT-0500 (Central Daylight Time),706747.7000000002,008_y_m_n_a.png,O,None,2016,8,1,3025.0,703722.7000000002,7002,NNB,A,6
4,test,3,0.0,2-Back,1,m,Wed Aug 07 2024 14:21:47 GMT-0500 (Central Daylight Time),708880.2000000002,010_y_f_n_a.png,O,m,1102,9,1,2126.4000000003725,706753.7999999998,7002,NNB,A,7
5,test,3,0.0,2-Back,1,m,Wed Aug 07 2024 14:21:47 GMT-0500 (Central Daylight Time),710929.6000000001,058_m_m_n_a.png,O,m,1017,10,1,2043.3000000002794,708886.2999999998,7002,NNB,A,8
6,test,3,1.0,2-Back,1,z,Wed Aug 07 2024 14:21:47 GMT-0500 (Central Daylight Time),712779.0,010_y_f_n_a.png,O,z,824,11,1,1842.7999999998137,710936.2000000002,7002,NNB,A,9
6,test,3,1.0,2-Back,0,z,Wed Aug 07 2024 14:21:47 GMT-0500 (Central Daylight Time),714761.7999999998,058_m_m_n_a.png,O,m,950,12,1,1976.5999999996275,712785.2000000002,7002,NNB,A,10
7,test,3,0.0,2-Back,1,m,Wed Aug 07 2024 14:21:47 GMT-0500 (Central Daylight Time),716961.1000000001,044_o_f_n_a.png,O,m,1176,13,1,2193.0,714768.1000000001,7002,NNB,A,11
8,test,3,0.0,2-Back,1,m,Wed Aug 07 2024 14:21:47 GMT-0500 (Central Daylight Time),719193.7999999998,050_m_f_n_a.png,O,m,1208,14,1,2227.0999999996275,716966.7000000002,7002,NNB,A,12
9,test,3,0.0,2-Back,1,m,Wed Aug 07 2024 14:21:47 GMT-0500 (Central Daylight Time),721143.0,046_o_m_n_a.png,O,m,920,15,1,1942.7999999998137,719200.2000000002,7002,NNB,A,13
10,test,3,1.0,2-Back,1,z,Wed Aug 07 2024 14:21:47 GMT-0500 (Central Daylight Time),723375.7999999998,050_m_f_n_a.png,O,z,1203,16,1,2226.6999999997206,721149.1000000001,7002,NNB,A,14
11,test,3,0.0,2-Back,1,m,Wed Aug 07 2024 14:21:47 GMT-0500 (Central Daylight Time),725474.8999999999,047_o_f_n_a.png,O,m,1074,17,1,2092.0,723382.8999999999,7002,NNB,A,15
12,test,3,0.0,2-Back,1,m,Wed Aug 07 2024 14:21:47 GMT-0500 (Central Daylight Time),728290.7999999998,047_o_f_n_a.png,O,m,1788,18,1,2809.899999999907,725480.8999999999,7002,NNB,A,16
0,test,4,0.0,2-Back,,,Wed Aug 07 2024 14:21:47 GMT-0500 (Central Daylight Time),728290.7999999998,053_o_m_n_a.png,O,space,2270,1,1,2809.899999999907,725480.8999999999,7002,NNB,A,0
0,test,4,0.0,2-Back,,,Wed Aug 07 2024 14:21:47 GMT-0500 (Central Daylight Time),728290.7999999998,063_y_f_n_a.png,O,space,2270,2,1,2809.899999999907,725480.8999999999,7002,NNB,A,0
1,test,4,1.0,2-Back,1,z,Wed Aug 07 2024 14:21:47 GMT-0500 (Central Daylight Time),737504.6000000001,053_o_m_n_a.png,O,z,802,3,1,1826.6000000000931,735678.0,7002,NNB,A,1
2,test,4,1.0,2-Back,1,z,Wed Aug 07 2024 14:21:47 GMT-0500 (Central Daylight Time),739720.5,063_y_f_n_a.png,O,z,1193,4,1,2210.100000000093,737510.3999999999,7002,NNB,A,2
3,test,4,0.0,2-Back,1,m,Wed Aug 07 2024 14:21:47 GMT-0500 (Central Daylight Time),741536.7999999998,044_o_f_n_a.png,O,m,785,5,1,1810.0999999996275,739726.7000000002,7002,NNB,A,3
3,test,4,0.0,2-Back,0,m,Wed Aug 07 2024 14:21:47 GMT-0500 (Central Daylight Time),744569.2999999998,044_o_f_n_a.png,O,None,2016,6,1,3026.5999999996275,741542.7000000002,7002,NNB,A,4
4,test,4,0.0,2-Back,1,m,Wed Aug 07 2024 14:21:47 GMT-0500 (Central Daylight Time),746518.5,043_m_f_n_a.png,O,m,920,7,1,1943.3999999999069,744575.1000000001,7002,NNB,A,5
5,test,4,0.0,2-Back,1,m,Wed Aug 07 2024 14:21:47 GMT-0500 (Central Daylight Time),748417.8999999999,008_y_m_n_a.png,O,m,867,8,1,1893.1000000000931,746524.7999999998,7002,NNB,A,6
6,test,4,1.0,2-Back,1,z,Wed Aug 07 2024 14:21:47 GMT-0500 (Central Daylight Time),750017.1000000001,043_m_f_n_a.png,O,z,575,9,1,1593.5,748423.6000000001,7002,NNB,A,7
7,test,4,0.0,2-Back,1,m,Wed Aug 07 2024 14:21:47 GMT-0500 (Central Daylight Time),752016.7999999998,058_m_m_n_a.png,O,m,976,10,1,1991.5,750025.2999999998,7002,NNB,A,8
8,test,4,0.0,2-Back,1,m,Wed Aug 07 2024 14:21:47 GMT-0500 (Central Daylight Time),754216.0,008_y_m_n_a.png,O,m,1177,11,1,2192.5,752023.5,7002,NNB,A,9
9,test,4,0.0,2-Back,1,m,Wed Aug 07 2024 14:21:47 GMT-0500 (Central Daylight Time),756198.7999999998,047_o_f_n_a.png,O,m,952,12,1,1976.5,754222.2999999998,7002,NNB,A,10
10,test,4,0.0,2-Back,1,m,Wed Aug 07 2024 14:21:47 GMT-0500 (Central Daylight Time),758164.7000000002,041_y_m_n_a.png,O,m,947,13,1,1959.9000000003725,756204.7999999998,7002,NNB,A,11
11,test,4,1.0,2-Back,1,z,Wed Aug 07 2024 14:21:47 GMT-0500 (Central Daylight Time),760030.8999999999,047_o_f_n_a.png,O,z,836,14,1,1860.1000000000931,758170.7999999998,7002,NNB,A,12
11,test,4,1.0,2-Back,0,z,Wed Aug 07 2024 14:21:47 GMT-0500 (Central Daylight Time),762213.5,041_y_m_n_a.png,O,m,1154,15,1,2176.7999999998137,760036.7000000002,7002,NNB,A,13
12,test,4,0.0,2-Back,1,m,Wed Aug 07 2024 14:21:47 GMT-0500 (Central Daylight Time),764330.7000000002,045_m_m_n_a.png,O,m,1084,16,1,2110.8000000002794,762219.8999999999,7002,NNB,A,14
13,test,4,0.0,2-Back,1,m,Wed Aug 07 2024 14:21:47 GMT-0500 (Central Daylight Time),766529.0,050_m_f_n_a.png,O,m,1176,17,1,2191.399999999907,764337.6000000001,7002,NNB,A,15
14,test,4,1.0,2-Back,1,z,Wed Aug 07 2024 14:21:47 GMT-0500 (Central Daylight Time),768844.7000000002,045_m_m_n_a.png,O,z,1296,18,1,2309.5,766535.2000000002,7002,NNB,A,16
0,test,5,1.0,2-Back,,,Wed Aug 07 2024 14:21:47 GMT-0500 (Central Daylight Time),768844.7000000002,041_y_m_n_a.png,O,space,2668,1,1,2309.5,766535.2000000002,7002,NNB,A,0
0,test,5,1.0,2-Back,,,Wed Aug 07 2024 14:21:47 GMT-0500 (Central Daylight Time),768844.7000000002,050_m_f_n_a.png,O,space,2668,2,1,2309.5,766535.2000000002,7002,NNB,A,0
1,test,5,1.0,2-Back,1,z,Wed Aug 07 2024 14:21:47 GMT-0500 (Central Daylight Time),778275.1000000001,041_y_m_n_a.png,O,z,674,3,1,1693.6000000000931,776581.5,7002,NNB,A,1
2,test,5,1.0,2-Back,1,z,Wed Aug 07 2024 14:21:47 GMT-0500 (Central Daylight Time),780791.1000000001,050_m_f_n_a.png,O,z,1486,4,1,2509.899999999907,778281.2000000002,7002,NNB,A,2
3,test,5,0.0,2-Back,1,m,Wed Aug 07 2024 14:21:47 GMT-0500 (Central Daylight Time),782623.7000000002,047_o_f_n_a.png,O,m,802,5,1,1826.0,780797.7000000002,7002,NNB,A,3
3,test,5,0.0,2-Back,0,m,Wed Aug 07 2024 14:21:47 GMT-0500 (Central Daylight Time),785306.3999999999,041_y_m_n_a.png,O,z,1658,6,1,2675.899999999907,782630.5,7002,NNB,A,4
4,test,5,0.0,2-Back,1,m,Wed Aug 07 2024 14:21:47 GMT-0500 (Central Daylight Time),787172.2999999998,010_y_f_n_a.png,O,m,839,7,1,1860.0,785312.2999999998,7002,NNB,A,5
4,test,5,0.0,2-Back,0,m,Wed Aug 07 2024 14:21:47 GMT-0500 (Central Daylight Time),789388.2999999998,047_o_f_n_a.png,O,z,1189,8,1,2210.0,787178.2999999998,7002,NNB,A,6
5,test,5,1.0,2-Back,1,z,Wed Aug 07 2024 14:21:47 GMT-0500 (Central Daylight Time),791587.7000000002,010_y_f_n_a.png,O,z,1173,9,1,2193.600000000093,789394.1000000001,7002,NNB,A,7
6,test,5,0.0,2-Back,1,m,Wed Aug 07 2024 14:21:47 GMT-0500 (Central Daylight Time),793403.7000000002,046_o_m_n_a.png,O,m,790,10,1,1810.3000000002794,791593.3999999999,7002,NNB,A,8
7,test,5,0.0,2-Back,1,m,Wed Aug 07 2024 14:21:47 GMT-0500 (Central Daylight Time),795586.3999999999,043_m_f_n_a.png,O,m,1166,11,1,2175.600000000093,793410.7999999998,7002,NNB,A,9
8,test,5,0.0,2-Back,1,m,Wed Aug 07 2024 14:21:47 GMT-0500 (Central Daylight Time),797585.5,058_m_m_n_a.png,O,m,967,12,1,1992.6000000000931,795592.8999999999,7002,NNB,A,10
9,test,5,0.0,2-Back,1,m,Wed Aug 07 2024 14:21:47 GMT-0500 (Central Daylight Time),799635.3999999999,046_o_m_n_a.png,O,m,1024,13,1,2043.8999999999069,797591.5,7002,NNB,A,11
9,test,5,1.0,2-Back,0,z,Wed Aug 07 2024 14:21:47 GMT-0500 (Central Daylight Time),802668.0,058_m_m_n_a.png,O,None,2016,14,1,3026.7999999998137,799641.2000000002,7002,NNB,A,12
10,test,5,0.0,2-Back,1,m,Wed Aug 07 2024 14:21:47 GMT-0500 (Central Daylight Time),804550.1000000001,063_y_f_n_a.png,O,m,854,15,1,1875.7000000001863,802674.3999999999,7002,NNB,A,13
11,test,5,0.0,2-Back,1,m,Wed Aug 07 2024 14:21:47 GMT-0500 (Central Daylight Time),806433.1000000001,053_o_m_n_a.png,O,m,851,16,1,1877.0,804556.1000000001,7002,NNB,A,14
12,test,5,0.0,2-Back,1,m,Wed Aug 07 2024 14:21:47 GMT-0500 (Central Daylight Time),808682.2000000002,043_m_f_n_a.png,O,m,1224,17,1,2242.5,806439.7000000002,7002,NNB,A,15
13,test,5,1.0,2-Back,1,z,Wed Aug 07 2024 14:21:47 GMT-0500 (Central Daylight Time),811614.7999999998,053_o_m_n_a.png,O,z,1903,18,1,2926.399999999907,808688.3999999999,7002,NNB,A,16
