block_c,block_dur,condition,countdown,datetime,endtime,list,multichar_response,project,response,response_time,session_number,start_end,starttime,subject_id,task,task_vers,trial
,,,,Fri May 09 2025 11:30:50 GMT-0500 (Central Daylight Time),,,,O,space,815,1,,,7145,WL,C,
prac,,0,,Fri May 09 2025 11:30:50 GMT-0500 (Central Daylight Time),,NA,b,O,b,3679,1,,,7145,WL,C,1.0
prac,,0,,Fri May 09 2025 11:30:50 GMT-0500 (Central Daylight Time),,NA,bo,O,o,204,1,,,7145,WL,C,1.0
prac,,0,,Fri May 09 2025 11:30:50 GMT-0500 (Central Daylight Time),,NA,boo,O,o,131,1,,,7145,WL,C,1.0
prac,,0,,Fri May 09 2025 11:30:50 GMT-0500 (Central Daylight Time),,NA,boos,O,s,197,1,,,7145,WL,C,1.0
prac,,0,,Fri May 09 2025 11:30:50 GMT-0500 (Central Daylight Time),,NA,boost,O,t,195,1,,,7145,WL,C,1.0
prac,,0,,Fri May 09 2025 11:30:50 GMT-0500 (Central Daylight Time),,NA,boostenter,O,enter,876,1,,,7145,WL,C,1.0
1,2.751000165939331,learn,57248.99983406067,Fri May 09 2025 11:30:50 GMT-0500 (Central Daylight Time),164224.59999996424,A,t,O,t,2734,1,2749.300000011921,161475.29999995232,7145,WL,C,1.0
1,2.867000102996826,learn,57132.999897003174,Fri May 09 2025 11:30:50 GMT-0500 (Central Daylight Time),164341.19999998808,A,to,O,o,100,1,2865.900000035763,161475.29999995232,7145,WL,C,1.0
1,3.252000093460083,learn,56747.99990653992,Fri May 09 2025 11:30:50 GMT-0500 (Central Daylight Time),164725.5,A,tow,O,w,375,1,3250.2000000476837,161475.29999995232,7145,WL,C,1.0
1,3.3320000171661377,learn,56667.99998283386,Fri May 09 2025 11:30:50 GMT-0500 (Central Daylight Time),164805.59999996424,A,towe,O,e,59,1,3330.300000011921,161475.29999995232,7145,WL,C,1.0
1,3.5169999599456787,learn,56483.00004005432,Fri May 09 2025 11:30:50 GMT-0500 (Central Daylight Time),164990.39999997616,A,tower,O,r,164,1,3515.100000023842,161475.29999995232,7145,WL,C,1.0
1,11.731000185012817,learn,48268.99981498718,Fri May 09 2025 11:30:50 GMT-0500 (Central Daylight Time),173204.69999998808,A,towerenter,O,enter,8197,1,11729.400000035763,161475.29999995232,7145,WL,C,1.0
1,12.914000034332275,learn,47085.999965667725,Fri May 09 2025 11:30:50 GMT-0500 (Central Daylight Time),174387.09999996424,A,w,O,w,1169,1,1181.8999999761581,173205.19999998808,7145,WL,C,2.0
1,13.02999997138977,learn,46970.00002861023,Fri May 09 2025 11:30:50 GMT-0500 (Central Daylight Time),174503.39999997616,A,wh,O,h,102,1,1298.199999988079,173205.19999998808,7145,WL,C,2.0
1,13.213000059127808,learn,46786.99994087219,Fri May 09 2025 11:30:50 GMT-0500 (Central Daylight Time),174687.0,A,whe,O,e,164,1,1481.800000011921,173205.19999998808,7145,WL,C,2.0
1,13.532000064849854,learn,46467.99993515015,Fri May 09 2025 11:30:50 GMT-0500 (Central Daylight Time),175005.5,A,whet,O,t,312,1,1800.300000011921,173205.19999998808,7145,WL,C,2.0
1,14.212000131607056,learn,45787.999868392944,Fri May 09 2025 11:30:50 GMT-0500 (Central Daylight Time),175685.39999997616,A,whe,O,backspace,671,1,2480.199999988079,173205.19999998808,7145,WL,C,2.0
1,14.46399998664856,learn,45536.00001335144,Fri May 09 2025 11:30:50 GMT-0500 (Central Daylight Time),175937.19999998808,A,whea,O,a,238,1,2732.0,173205.19999998808,7145,WL,C,2.0
1,14.580000162124634,learn,45419.999837875366,Fri May 09 2025 11:30:50 GMT-0500 (Central Daylight Time),176053.5,A,wheat,O,t,100,1,2848.300000011921,173205.19999998808,7145,WL,C,2.0
1,15.630000114440918,learn,44369.99988555908,Fri May 09 2025 11:30:50 GMT-0500 (Central Daylight Time),177103.39999997616,A,wheatenter,O,enter,1038,1,3898.199999988079,173205.19999998808,7145,WL,C,2.0
1,16.81000018119812,learn,43189.99981880188,Fri May 09 2025 11:30:50 GMT-0500 (Central Daylight Time),178284.09999996424,A,q,O,q,1173,1,1180.300000011921,177103.79999995232,7145,WL,C,3.0
1,16.996000051498413,learn,43003.99994850159,Fri May 09 2025 11:30:50 GMT-0500 (Central Daylight Time),178470.0,A,qu,O,u,167,1,1366.2000000476837,177103.79999995232,7145,WL,C,3.0
1,17.228000164031982,learn,42771.99983596802,Fri May 09 2025 11:30:50 GMT-0500 (Central Daylight Time),178701.29999995232,A,que,O,e,223,1,1597.5,177103.79999995232,7145,WL,C,3.0
1,17.380000114440918,learn,42619.99988555908,Fri May 09 2025 11:30:50 GMT-0500 (Central Daylight Time),178853.39999997616,A,quee,O,e,145,1,1749.6000000238419,177103.79999995232,7145,WL,C,3.0
1,17.611999988555908,learn,42388.00001144409,Fri May 09 2025 11:30:50 GMT-0500 (Central Daylight Time),179085.89999997616,A,queen,O,n,214,1,1982.1000000238419,177103.79999995232,7145,WL,C,3.0
1,18.778000116348267,learn,41221.99988365173,Fri May 09 2025 11:30:50 GMT-0500 (Central Daylight Time),180252.39999997616,A,queenenter,O,enter,1149,1,3148.600000023842,177103.79999995232,7145,WL,C,3.0
1,19.580000162124634,learn,40419.999837875366,Fri May 09 2025 11:30:50 GMT-0500 (Central Daylight Time),181054.39999997616,A,s,O,s,795,1,801.6000000238419,180252.79999995232,7145,WL,C,4.0
1,19.710999965667725,learn,40289.000034332275,Fri May 09 2025 11:30:50 GMT-0500 (Central Daylight Time),181185.5,A,su,O,u,109,1,932.7000000476837,180252.79999995232,7145,WL,C,4.0
1,19.91000008583069,learn,40089.99991416931,Fri May 09 2025 11:30:50 GMT-0500 (Central Daylight Time),181384.79999995232,A,sug,O,g,185,1,1132.0,180252.79999995232,7145,WL,C,4.0
1,20.062000036239624,learn,39937.999963760376,Fri May 09 2025 11:30:50 GMT-0500 (Central Daylight Time),181536.29999995232,A,suga,O,a,141,1,1283.5,180252.79999995232,7145,WL,C,4.0
1,20.210000038146973,learn,39789.99996185303,Fri May 09 2025 11:30:50 GMT-0500 (Central Daylight Time),181684.19999998808,A,sugar,O,r,141,1,1431.4000000357628,180252.79999995232,7145,WL,C,4.0
1,20.794000148773193,learn,39205.99985122681,Fri May 09 2025 11:30:50 GMT-0500 (Central Daylight Time),182267.89999997616,A,sugarenter,O,enter,578,1,2015.1000000238419,180252.79999995232,7145,WL,C,4.0
1,21.544000148773193,learn,38455.99985122681,Fri May 09 2025 11:30:50 GMT-0500 (Central Daylight Time),183018.39999997616,A,h,O,h,736,1,750.1999999880791,182268.19999998808,7145,WL,C,5.0
1,21.676000118255615,learn,38323.999881744385,Fri May 09 2025 11:30:50 GMT-0500 (Central Daylight Time),183150.5,A,ho,O,o,122,1,882.3000000119209,182268.19999998808,7145,WL,C,5.0
1,22.027000188827515,learn,37972.999811172485,Fri May 09 2025 11:30:50 GMT-0500 (Central Daylight Time),183501.09999996424,A,hom,O,m,333,1,1232.8999999761581,182268.19999998808,7145,WL,C,5.0
1,22.14400005340576,learn,37855.99994659424,Fri May 09 2025 11:30:50 GMT-0500 (Central Daylight Time),183617.89999997616,A,home,O,e,103,1,1349.699999988079,182268.19999998808,7145,WL,C,5.0
1,22.843000173568726,learn,37156.999826431274,Fri May 09 2025 11:30:50 GMT-0500 (Central Daylight Time),184316.89999997616,A,homeenter,O,enter,690,1,2048.699999988079,182268.19999998808,7145,WL,C,5.0
1,23.62600016593933,learn,36373.99983406067,Fri May 09 2025 11:30:50 GMT-0500 (Central Daylight Time),185100.69999998808,A,b,O,b,777,1,783.5,184317.19999998808,7145,WL,C,6.0
1,23.792999982833862,learn,36207.00001716614,Fri May 09 2025 11:30:50 GMT-0500 (Central Daylight Time),185267.39999997616,A,bo,O,o,152,1,950.1999999880791,184317.19999998808,7145,WL,C,6.0
1,24.343000173568726,learn,35656.999826431274,Fri May 09 2025 11:30:50 GMT-0500 (Central Daylight Time),185817.59999996424,A,bou,O,u,529,1,1500.3999999761581,184317.19999998808,7145,WL,C,6.0
1,25.14300012588501,learn,34856.99987411499,Fri May 09 2025 11:30:50 GMT-0500 (Central Daylight Time),186617.0,A,bo,O,backspace,777,1,2299.800000011921,184317.19999998808,7145,WL,C,6.0
1,25.54200005531311,learn,34457.99994468689,Fri May 09 2025 11:30:50 GMT-0500 (Central Daylight Time),187015.89999997616,A,boy,O,y,386,1,2698.699999988079,184317.19999998808,7145,WL,C,6.0
1,26.425000190734863,learn,33574.99980926514,Fri May 09 2025 11:30:50 GMT-0500 (Central Daylight Time),187899.59999996424,A,boyenter,O,enter,878,1,3582.399999976158,184317.19999998808,7145,WL,C,6.0
1,27.375,learn,32625.0,Fri May 09 2025 11:30:50 GMT-0500 (Central Daylight Time),188848.79999995232,A,c,O,c,937,1,948.7999999523163,187900.0,7145,WL,C,7.0
1,27.608999967575073,learn,32391.000032424927,Fri May 09 2025 11:30:50 GMT-0500 (Central Daylight Time),189083.19999998808,A,co,O,o,229,1,1183.199999988079,187900.0,7145,WL,C,7.0
1,28.194000005722046,learn,31805.999994277954,Fri May 09 2025 11:30:50 GMT-0500 (Central Daylight Time),189667.89999997616,A,cor,O,r,575,1,1767.8999999761581,187900.0,7145,WL,C,7.0
1,28.308000087738037,learn,31691.999912261963,Fri May 09 2025 11:30:50 GMT-0500 (Central Daylight Time),189781.89999997616,A,corn,O,n,103,1,1881.8999999761581,187900.0,7145,WL,C,7.0
1,29.157999992370605,learn,30842.000007629395,Fri May 09 2025 11:30:50 GMT-0500 (Central Daylight Time),190631.79999995232,A,cornenter,O,enter,828,1,2731.7999999523163,187900.0,7145,WL,C,7.0
1,29.990000009536743,learn,30009.999990463257,Fri May 09 2025 11:30:50 GMT-0500 (Central Daylight Time),191464.5,A,n,O,n,820,1,832.3000000119209,190632.19999998808,7145,WL,C,8.0
1,30.140000104904175,learn,29859.999895095825,Fri May 09 2025 11:30:50 GMT-0500 (Central Daylight Time),191614.0,A,na,O,a,132,1,981.8000000119209,190632.19999998808,7145,WL,C,8.0
1,30.289999961853027,learn,29710.000038146973,Fri May 09 2025 11:30:50 GMT-0500 (Central Daylight Time),191764.39999997616,A,nai,O,i,135,1,1132.199999988079,190632.19999998808,7145,WL,C,8.0
1,30.555000066757202,learn,29444.999933242798,Fri May 09 2025 11:30:50 GMT-0500 (Central Daylight Time),192028.89999997616,A,nail,O,l,246,1,1396.699999988079,190632.19999998808,7145,WL,C,8.0
1,31.473999977111816,learn,28526.000022888184,Fri May 09 2025 11:30:50 GMT-0500 (Central Daylight Time),192947.79999995232,A,nailenter,O,enter,914,1,2315.599999964237,190632.19999998808,7145,WL,C,8.0
1,32.59100008010864,learn,27408.999919891357,Fri May 09 2025 11:30:50 GMT-0500 (Central Daylight Time),194065.0,A,s,O,s,1105,1,1116.9000000357628,192948.09999996424,7145,WL,C,9.0
1,32.69000005722046,learn,27309.99994277954,Fri May 09 2025 11:30:50 GMT-0500 (Central Daylight Time),194164.29999995232,A,sh,O,h,83,1,1216.199999988079,192948.09999996424,7145,WL,C,9.0
1,32.824000120162964,learn,27175.999879837036,Fri May 09 2025 11:30:50 GMT-0500 (Central Daylight Time),194298.69999998808,A,sho,O,o,111,1,1350.6000000238419,192948.09999996424,7145,WL,C,9.0
1,33.13900017738342,learn,26860.999822616577,Fri May 09 2025 11:30:50 GMT-0500 (Central Daylight Time),194613.19999998808,A,shor,O,r,306,1,1665.1000000238419,192948.09999996424,7145,WL,C,9.0
1,33.23900008201599,learn,26760.99991798401,Fri May 09 2025 11:30:50 GMT-0500 (Central Daylight Time),194713.0,A,shore,O,e,86,1,1764.9000000357628,192948.09999996424,7145,WL,C,9.0
1,34.13800001144409,learn,25861.99998855591,Fri May 09 2025 11:30:50 GMT-0500 (Central Daylight Time),195611.89999997616,A,shoreenter,O,enter,882,1,2663.800000011921,192948.09999996424,7145,WL,C,9.0
1,36.605000019073486,learn,23394.999980926514,Fri May 09 2025 11:30:50 GMT-0500 (Central Daylight Time),198079.59999996424,A,d,O,d,2449,1,2467.399999976158,195612.19999998808,7145,WL,C,10.0
1,36.7039999961853,learn,23296.000003814697,Fri May 09 2025 11:30:50 GMT-0500 (Central Daylight Time),198178.59999996424,A,do,O,o,85,1,2566.399999976158,195612.19999998808,7145,WL,C,10.0
1,37.00600004196167,learn,22993.99995803833,Fri May 09 2025 11:30:50 GMT-0500 (Central Daylight Time),198480.19999998808,A,doc,O,c,289,1,2868.0,195612.19999998808,7145,WL,C,10.0
1,37.307000160217285,learn,22692.999839782715,Fri May 09 2025 11:30:50 GMT-0500 (Central Daylight Time),198781.0,A,doct,O,t,294,1,3168.800000011921,195612.19999998808,7145,WL,C,10.0
1,37.53999996185303,learn,22460.000038146973,Fri May 09 2025 11:30:50 GMT-0500 (Central Daylight Time),199013.89999997616,A,docto,O,o,215,1,3401.699999988079,195612.19999998808,7145,WL,C,10.0
1,37.75500011444092,learn,22244.999885559082,Fri May 09 2025 11:30:50 GMT-0500 (Central Daylight Time),199228.89999997616,A,doctor,O,r,206,1,3616.699999988079,195612.19999998808,7145,WL,C,10.0
1,38.855000019073486,learn,21144.999980926514,Fri May 09 2025 11:30:50 GMT-0500 (Central Daylight Time),200329.19999998808,A,doctorenter,O,enter,1086,1,4717.0,195612.19999998808,7145,WL,C,10.0
1,60.01600003242493,learn,-16.000032424926758,Fri May 09 2025 11:30:50 GMT-0500 (Central Daylight Time),221490.09999996424,A,None,O,None,21156,1,21160.599999964237,200329.5,7145,WL,C,11.0
2,1.0820000171661377,learn,58917.99998283386,Fri May 09 2025 11:30:50 GMT-0500 (Central Daylight Time),291150.0,A,c,O,c,1060,1,1082.0,290068.0,7145,WL,C,1.0
2,1.4639999866485596,learn,58536.00001335144,Fri May 09 2025 11:30:50 GMT-0500 (Central Daylight Time),291532.09999996424,A,ca,O,a,377,1,1464.0999999642372,290068.0,7145,WL,C,1.0
2,2.7649998664855957,learn,57235.000133514404,Fri May 09 2025 11:30:50 GMT-0500 (Central Daylight Time),292833.09999996424,A,cat,O,t,1280,1,2765.099999964237,290068.0,7145,WL,C,1.0
2,2.931999921798706,learn,57068.000078201294,Fri May 09 2025 11:30:50 GMT-0500 (Central Daylight Time),292999.6999999881,A,catt,O,t,156,1,2931.699999988079,290068.0,7145,WL,C,1.0
2,3.1480000019073486,learn,56851.99999809265,Fri May 09 2025 11:30:50 GMT-0500 (Central Daylight Time),293216.2999999523,A,cattl,O,l,195,1,3148.2999999523163,290068.0,7145,WL,C,1.0
2,3.248999834060669,learn,56751.00016593933,Fri May 09 2025 11:30:50 GMT-0500 (Central Daylight Time),293316.5,A,cattle,O,e,95,1,3248.5,290068.0,7145,WL,C,1.0
2,4.0959999561309814,learn,55904.00004386902,Fri May 09 2025 11:30:50 GMT-0500 (Central Daylight Time),294164.0,A,cattleenter,O,enter,840,1,4096.0,290068.0,7145,WL,C,1.0
2,4.968999862670898,learn,55031.0001373291,Fri May 09 2025 11:30:50 GMT-0500 (Central Daylight Time),295036.59999996424,A,b,O,b,855,1,872.3000000119209,294164.2999999523,7145,WL,C,2.0
2,5.099999904632568,learn,54900.00009536743,Fri May 09 2025 11:30:50 GMT-0500 (Central Daylight Time),295167.89999997616,A,bo,O,o,121,1,1003.6000000238419,294164.2999999523,7145,WL,C,2.0
2,5.696999788284302,learn,54303.0002117157,Fri May 09 2025 11:30:50 GMT-0500 (Central Daylight Time),295765.09999996424,A,bod,O,d,576,1,1600.800000011921,294164.2999999523,7145,WL,C,2.0
2,5.813999891281128,learn,54186.00010871887,Fri May 09 2025 11:30:50 GMT-0500 (Central Daylight Time),295881.7999999523,A,body,O,y,102,1,1717.5,294164.2999999523,7145,WL,C,2.0
2,6.69599986076355,learn,53304.00013923645,Fri May 09 2025 11:30:50 GMT-0500 (Central Daylight Time),296764.39999997616,A,bodyenter,O,enter,866,1,2600.100000023842,294164.2999999523,7145,WL,C,2.0
2,7.346999883651733,learn,52653.00011634827,Fri May 09 2025 11:30:50 GMT-0500 (Central Daylight Time),297414.6999999881,A,c,O,c,633,1,650.1000000238419,296764.59999996424,7145,WL,C,3.0
2,7.629999876022339,learn,52370.00012397766,Fri May 09 2025 11:30:50 GMT-0500 (Central Daylight Time),297697.6999999881,A,ca,O,a,270,1,933.1000000238419,296764.59999996424,7145,WL,C,3.0
2,7.896999835968018,learn,52103.00016403198,Fri May 09 2025 11:30:50 GMT-0500 (Central Daylight Time),297964.39999997616,A,can,O,n,251,1,1199.800000011921,296764.59999996424,7145,WL,C,3.0
2,8.196999788284302,learn,51803.0002117157,Fri May 09 2025 11:30:50 GMT-0500 (Central Daylight Time),298265.0,A,canp,O,p,288,1,1500.4000000357628,296764.59999996424,7145,WL,C,3.0
2,9.062999963760376,learn,50937.000036239624,Fri May 09 2025 11:30:50 GMT-0500 (Central Daylight Time),299131.0,A,can,O,backspace,852,1,2366.400000035763,296764.59999996424,7145,WL,C,3.0
2,9.379999876022339,learn,50620.00012397766,Fri May 09 2025 11:30:50 GMT-0500 (Central Daylight Time),299447.5,A,ca,O,backspace,306,1,2682.900000035763,296764.59999996424,7145,WL,C,3.0
2,10.01199984550476,learn,49988.00015449524,Fri May 09 2025 11:30:50 GMT-0500 (Central Daylight Time),300080.39999997616,A,can,O,n,621,1,3315.800000011921,296764.59999996424,7145,WL,C,3.0
2,10.39299988746643,learn,49607.00011253357,Fri May 09 2025 11:30:50 GMT-0500 (Central Daylight Time),300461.59999996424,A,canp,O,p,371,1,3697.0,296764.59999996424,7145,WL,C,3.0
2,10.72599983215332,learn,49274.00016784668,Fri May 09 2025 11:30:50 GMT-0500 (Central Daylight Time),300794.89999997616,A,canpenter,O,enter,328,1,4030.300000011921,296764.59999996424,7145,WL,C,3.0
2,12.378999948501587,learn,47621.00005149841,Fri May 09 2025 11:30:50 GMT-0500 (Central Daylight Time),302447.09999996424,A,s,O,s,1644,1,1652.0999999642372,300795.0,7145,WL,C,4.0
2,12.51199984550476,learn,47488.00015449524,Fri May 09 2025 11:30:50 GMT-0500 (Central Daylight Time),302580.5,A,sh,O,h,127,1,1785.5,300795.0,7145,WL,C,4.0
2,12.610999822616577,learn,47389.00017738342,Fri May 09 2025 11:30:50 GMT-0500 (Central Daylight Time),302679.2999999523,A,sho,O,o,88,1,1884.2999999523163,300795.0,7145,WL,C,4.0
2,12.843999862670898,learn,47156.0001373291,Fri May 09 2025 11:30:50 GMT-0500 (Central Daylight Time),302912.6999999881,A,shor,O,r,212,1,2117.699999988079,300795.0,7145,WL,C,4.0
2,12.944000005722046,learn,47055.999994277954,Fri May 09 2025 11:30:50 GMT-0500 (Central Daylight Time),303012.09999996424,A,shore,O,e,93,1,2217.099999964237,300795.0,7145,WL,C,4.0
2,13.776999950408936,learn,46223.000049591064,Fri May 09 2025 11:30:50 GMT-0500 (Central Daylight Time),303845.1999999881,A,shoreenter,O,enter,823,1,3050.199999988079,300795.0,7145,WL,C,4.0
2,17.710999965667725,learn,42289.000034332275,Fri May 09 2025 11:30:50 GMT-0500 (Central Daylight Time),307779.1999999881,A,l,O,l,3928,1,3933.600000023842,303845.59999996424,7145,WL,C,5.0
2,20.192999839782715,learn,39807.000160217285,Fri May 09 2025 11:30:50 GMT-0500 (Central Daylight Time),310261.59999996424,A,,O,backspace,2476,1,6416.0,303845.59999996424,7145,WL,C,5.0
2,20.840999841690063,learn,39159.00015830994,Fri May 09 2025 11:30:50 GMT-0500 (Central Daylight Time),310909.59999996424,A,c,O,c,638,1,7064.0,303845.59999996424,7145,WL,C,5.0
2,20.941999912261963,learn,39058.00008773804,Fri May 09 2025 11:30:50 GMT-0500 (Central Daylight Time),311010.0,A,co,O,o,86,1,7164.400000035763,303845.59999996424,7145,WL,C,5.0
2,21.20799994468689,learn,38792.00005531311,Fri May 09 2025 11:30:50 GMT-0500 (Central Daylight Time),311276.39999997616,A,cor,O,r,250,1,7430.800000011921,303845.59999996424,7145,WL,C,5.0
2,21.375,learn,38625.0,Fri May 09 2025 11:30:50 GMT-0500 (Central Daylight Time),311443.89999997616,A,corn,O,n,146,1,7598.300000011921,303845.59999996424,7145,WL,C,5.0
2,22.0239999294281,learn,37976.0000705719,Fri May 09 2025 11:30:50 GMT-0500 (Central Daylight Time),312092.89999997616,A,cornenter,O,enter,634,1,8247.300000011921,303845.59999996424,7145,WL,C,5.0
2,22.64199995994568,learn,37358.00004005432,Fri May 09 2025 11:30:50 GMT-0500 (Central Daylight Time),312710.1999999881,A,n,O,n,601,1,617.1000000238419,312093.09999996424,7145,WL,C,6.0
2,22.79199981689453,learn,37208.00018310547,Fri May 09 2025 11:30:50 GMT-0500 (Central Daylight Time),312860.09999996424,A,na,O,a,134,1,767.0,312093.09999996424,7145,WL,C,6.0
2,22.906999826431274,learn,37093.000173568726,Fri May 09 2025 11:30:50 GMT-0500 (Central Daylight Time),312975.6999999881,A,nai,O,i,105,1,882.6000000238419,312093.09999996424,7145,WL,C,6.0
2,23.174999952316284,learn,36825.000047683716,Fri May 09 2025 11:30:50 GMT-0500 (Central Daylight Time),313243.2999999523,A,nail,O,l,252,1,1150.199999988079,312093.09999996424,7145,WL,C,6.0
2,23.757999897003174,learn,36242.000102996826,Fri May 09 2025 11:30:50 GMT-0500 (Central Daylight Time),313826.0,A,nailenter,O,enter,577,1,1732.9000000357628,312093.09999996424,7145,WL,C,6.0
2,26.938999891281128,learn,33061.00010871887,Fri May 09 2025 11:30:50 GMT-0500 (Central Daylight Time),317007.6999999881,A,t,O,t,3171,1,3181.400000035763,313826.2999999523,7145,WL,C,7.0
2,27.10599994659424,learn,32894.00005340576,Fri May 09 2025 11:30:50 GMT-0500 (Central Daylight Time),317174.2999999523,A,to,O,o,148,1,3348.0,313826.2999999523,7145,WL,C,7.0
2,27.37399983406067,learn,32626.00016593933,Fri May 09 2025 11:30:50 GMT-0500 (Central Daylight Time),317442.6999999881,A,tow,O,w,259,1,3616.400000035763,313826.2999999523,7145,WL,C,7.0
2,27.472999811172485,learn,32527.000188827515,Fri May 09 2025 11:30:50 GMT-0500 (Central Daylight Time),317541.6999999881,A,towe,O,e,81,1,3715.400000035763,313826.2999999523,7145,WL,C,7.0
2,27.62399983406067,learn,32376.00016593933,Fri May 09 2025 11:30:50 GMT-0500 (Central Daylight Time),317692.0,A,tower,O,r,134,1,3865.7000000476837,313826.2999999523,7145,WL,C,7.0
2,28.221999883651733,learn,31778.000116348267,Fri May 09 2025 11:30:50 GMT-0500 (Central Daylight Time),318290.7999999523,A,towerenter,O,enter,585,1,4464.5,313826.2999999523,7145,WL,C,7.0
2,29.02300000190735,learn,30976.99999809265,Fri May 09 2025 11:30:50 GMT-0500 (Central Daylight Time),319091.6999999881,A,q,O,q,796,1,800.6000000238419,318291.09999996424,7145,WL,C,8.0
2,29.138000011444092,learn,30861.99998855591,Fri May 09 2025 11:30:50 GMT-0500 (Central Daylight Time),319206.5,A,qu,O,u,103,1,915.4000000357628,318291.09999996424,7145,WL,C,8.0
2,29.389999866485596,learn,30610.000133514404,Fri May 09 2025 11:30:50 GMT-0500 (Central Daylight Time),319458.5,A,que,O,e,230,1,1167.4000000357628,318291.09999996424,7145,WL,C,8.0
2,29.521999835968018,learn,30478.000164031982,Fri May 09 2025 11:30:50 GMT-0500 (Central Daylight Time),319590.6999999881,A,quee,O,e,122,1,1299.6000000238419,318291.09999996424,7145,WL,C,8.0
2,29.721999883651733,learn,30278.000116348267,Fri May 09 2025 11:30:50 GMT-0500 (Central Daylight Time),319790.6999999881,A,queen,O,n,189,1,1499.6000000238419,318291.09999996424,7145,WL,C,8.0
2,31.00499987602234,learn,28995.00012397766,Fri May 09 2025 11:30:50 GMT-0500 (Central Daylight Time),321073.5,A,queenenter,O,enter,1270,1,2782.400000035763,318291.09999996424,7145,WL,C,8.0
2,33.08699989318848,learn,26913.000106811523,Fri May 09 2025 11:30:50 GMT-0500 (Central Daylight Time),323155.6999999881,A,s,O,s,2068,1,2081.900000035763,321073.7999999523,7145,WL,C,9.0
2,33.2039999961853,learn,26796.000003814697,Fri May 09 2025 11:30:50 GMT-0500 (Central Daylight Time),323272.6999999881,A,su,O,u,96,1,2198.900000035763,321073.7999999523,7145,WL,C,9.0
2,33.40599989891052,learn,26594.000101089478,Fri May 09 2025 11:30:50 GMT-0500 (Central Daylight Time),323474.39999997616,A,sug,O,g,196,1,2400.600000023842,321073.7999999523,7145,WL,C,9.0
2,33.57099986076355,learn,26429.00013923645,Fri May 09 2025 11:30:50 GMT-0500 (Central Daylight Time),323639.09999996424,A,suga,O,a,147,1,2565.300000011921,321073.7999999523,7145,WL,C,9.0
2,33.73799991607666,learn,26262.00008392334,Fri May 09 2025 11:30:50 GMT-0500 (Central Daylight Time),323806.39999997616,A,sugar,O,r,159,1,2732.600000023842,321073.7999999523,7145,WL,C,9.0
2,34.67199993133545,learn,25328.00006866455,Fri May 09 2025 11:30:50 GMT-0500 (Central Daylight Time),324740.39999997616,A,sugarenter,O,enter,918,1,3666.600000023842,321073.7999999523,7145,WL,C,9.0
2,35.82099986076355,learn,24179.00013923645,Fri May 09 2025 11:30:50 GMT-0500 (Central Daylight Time),325889.5,A,d,O,d,1138,1,1148.9000000357628,324740.59999996424,7145,WL,C,10.0
2,35.936999797821045,learn,24063.000202178955,Fri May 09 2025 11:30:50 GMT-0500 (Central Daylight Time),326005.89999997616,A,do,O,o,98,1,1265.300000011921,324740.59999996424,7145,WL,C,10.0
2,36.11999988555908,learn,23880.000114440918,Fri May 09 2025 11:30:50 GMT-0500 (Central Daylight Time),326188.2999999523,A,doc,O,c,167,1,1447.699999988079,324740.59999996424,7145,WL,C,10.0
2,36.40399980545044,learn,23596.00019454956,Fri May 09 2025 11:30:50 GMT-0500 (Central Daylight Time),326472.89999997616,A,doct,O,t,263,1,1732.300000011921,324740.59999996424,7145,WL,C,10.0
2,36.567999839782715,learn,23432.000160217285,Fri May 09 2025 11:30:50 GMT-0500 (Central Daylight Time),326636.89999997616,A,docto,O,o,154,1,1896.300000011921,324740.59999996424,7145,WL,C,10.0
2,36.68599987030029,learn,23314.000129699707,Fri May 09 2025 11:30:50 GMT-0500 (Central Daylight Time),326754.7999999523,A,doctor,O,r,112,1,2014.199999988079,324740.59999996424,7145,WL,C,10.0
2,37.4689998626709,learn,22531.0001373291,Fri May 09 2025 11:30:50 GMT-0500 (Central Daylight Time),327537.6999999881,A,doctorenter,O,enter,767,1,2797.100000023842,324740.59999996424,7145,WL,C,10.0
2,38.419999837875366,learn,21580.000162124634,Fri May 09 2025 11:30:50 GMT-0500 (Central Daylight Time),328488.59999996424,A,f,O,f,939,1,950.5999999642372,327538.0,7145,WL,C,11.0
2,38.53600001335144,learn,21463.99998664856,Fri May 09 2025 11:30:50 GMT-0500 (Central Daylight Time),328604.7999999523,A,fl,O,l,101,1,1066.7999999523163,327538.0,7145,WL,C,11.0
2,38.71999979019165,learn,21280.00020980835,Fri May 09 2025 11:30:50 GMT-0500 (Central Daylight Time),328788.2999999523,A,fla,O,a,175,1,1250.2999999523163,327538.0,7145,WL,C,11.0
2,39.103999853134155,learn,20896.000146865845,Fri May 09 2025 11:30:50 GMT-0500 (Central Daylight Time),329172.39999997616,A,flag,O,g,375,1,1634.3999999761581,327538.0,7145,WL,C,11.0
2,39.98699998855591,learn,20013.00001144409,Fri May 09 2025 11:30:50 GMT-0500 (Central Daylight Time),330055.09999996424,A,flagenter,O,enter,863,1,2517.099999964237,327538.0,7145,WL,C,11.0
2,41.984999895095825,learn,18015.000104904175,Fri May 09 2025 11:30:50 GMT-0500 (Central Daylight Time),332053.6999999881,A,w,O,w,1983,1,1998.4000000357628,330055.2999999523,7145,WL,C,12.0
2,42.085999965667725,learn,17914.000034332275,Fri May 09 2025 11:30:50 GMT-0500 (Central Daylight Time),332154.0,A,wh,O,h,86,1,2098.7000000476837,330055.2999999523,7145,WL,C,12.0
2,42.251999855041504,learn,17748.000144958496,Fri May 09 2025 11:30:50 GMT-0500 (Central Daylight Time),332320.2999999523,A,whe,O,e,146,1,2265.0,330055.2999999523,7145,WL,C,12.0
2,42.383999824523926,learn,17616.000175476074,Fri May 09 2025 11:30:50 GMT-0500 (Central Daylight Time),332452.7999999523,A,whea,O,a,115,1,2397.5,330055.2999999523,7145,WL,C,12.0
2,42.519999980926514,learn,17480.000019073486,Fri May 09 2025 11:30:50 GMT-0500 (Central Daylight Time),332588.1999999881,A,wheat,O,t,128,1,2532.900000035763,330055.2999999523,7145,WL,C,12.0
2,43.251999855041504,learn,16748.000144958496,Fri May 09 2025 11:30:50 GMT-0500 (Central Daylight Time),333319.89999997616,A,wheatenter,O,enter,720,1,3264.600000023842,330055.2999999523,7145,WL,C,12.0
2,60.01199984550476,learn,-11.999845504760742,Fri May 09 2025 11:30:50 GMT-0500 (Central Daylight Time),350080.6999999881,A,None,O,None,16755,1,16760.5,333320.1999999881,7145,WL,C,13.0
3,1.4830000400543213,learn,58516.99995994568,Fri May 09 2025 11:30:50 GMT-0500 (Central Daylight Time),422058.5,A,t,O,t,1468,1,1482.800000011921,420575.6999999881,7145,WL,C,1.0
3,1.882000207901001,learn,58117.999792099,Fri May 09 2025 11:30:50 GMT-0500 (Central Daylight Time),422458.09999996424,A,to,O,o,386,1,1882.3999999761581,420575.6999999881,7145,WL,C,1.0
3,2.1480000019073486,learn,57851.99999809265,Fri May 09 2025 11:30:50 GMT-0500 (Central Daylight Time),422724.09999996424,A,tow,O,w,258,1,2148.399999976158,420575.6999999881,7145,WL,C,1.0
3,2.248000144958496,learn,57751.999855041504,Fri May 09 2025 11:30:50 GMT-0500 (Central Daylight Time),422824.0,A,towe,O,e,85,1,2248.300000011921,420575.6999999881,7145,WL,C,1.0
3,2.432000160217285,learn,57567.999839782715,Fri May 09 2025 11:30:50 GMT-0500 (Central Daylight Time),423008.0,A,tower,O,r,171,1,2432.300000011921,420575.6999999881,7145,WL,C,1.0
3,3.249000072479248,learn,56750.99992752075,Fri May 09 2025 11:30:50 GMT-0500 (Central Daylight Time),423824.5,A,towerenter,O,enter,797,1,3248.800000011921,420575.6999999881,7145,WL,C,1.0
3,3.9660000801086426,learn,56033.99991989136,Fri May 09 2025 11:30:50 GMT-0500 (Central Daylight Time),424541.59999996424,A,w,O,w,695,1,716.8999999761581,423824.6999999881,7145,WL,C,2.0
3,4.115000009536743,learn,55884.99999046326,Fri May 09 2025 11:30:50 GMT-0500 (Central Daylight Time),424690.5,A,wh,O,h,134,1,865.8000000119209,423824.6999999881,7145,WL,C,2.0
3,4.249000072479248,learn,55750.99992752075,Fri May 09 2025 11:30:50 GMT-0500 (Central Daylight Time),424824.5,A,whe,O,e,114,1,999.8000000119209,423824.6999999881,7145,WL,C,2.0
3,4.416000127792358,learn,55583.99987220764,Fri May 09 2025 11:30:50 GMT-0500 (Central Daylight Time),424991.39999997616,A,whea,O,a,155,1,1166.699999988079,423824.6999999881,7145,WL,C,2.0
3,4.648000001907349,learn,55351.99999809265,Fri May 09 2025 11:30:50 GMT-0500 (Central Daylight Time),425223.59999996424,A,wheat,O,t,222,1,1398.8999999761581,423824.6999999881,7145,WL,C,2.0
3,5.332000017166138,learn,54667.99998283386,Fri May 09 2025 11:30:50 GMT-0500 (Central Daylight Time),425907.89999997616,A,wheatenter,O,enter,668,1,2083.199999988079,423824.6999999881,7145,WL,C,2.0
3,6.164000034332275,learn,53835.999965667725,Fri May 09 2025 11:30:50 GMT-0500 (Central Daylight Time),426739.89999997616,A,q,O,q,809,1,831.8000000119209,425908.09999996424,7145,WL,C,3.0
3,6.331000089645386,learn,53668.999910354614,Fri May 09 2025 11:30:50 GMT-0500 (Central Daylight Time),426907.0,A,qu,O,u,149,1,998.9000000357628,425908.09999996424,7145,WL,C,3.0
3,6.547000169754028,learn,53452.99983024597,Fri May 09 2025 11:30:50 GMT-0500 (Central Daylight Time),427122.7999999523,A,que,O,e,201,1,1214.699999988079,425908.09999996424,7145,WL,C,3.0
3,6.71399998664856,learn,53286.00001335144,Fri May 09 2025 11:30:50 GMT-0500 (Central Daylight Time),427290.09999996424,A,quee,O,e,147,1,1382.0,425908.09999996424,7145,WL,C,3.0
3,6.898000001907349,learn,53101.99999809265,Fri May 09 2025 11:30:50 GMT-0500 (Central Daylight Time),427473.6999999881,A,queen,O,n,162,1,1565.6000000238419,425908.09999996424,7145,WL,C,3.0
3,7.481000185012817,learn,52518.99981498718,Fri May 09 2025 11:30:50 GMT-0500 (Central Daylight Time),428056.89999997616,A,queenenter,O,enter,562,1,2148.800000011921,425908.09999996424,7145,WL,C,3.0
3,8.246000051498413,learn,51753.99994850159,Fri May 09 2025 11:30:50 GMT-0500 (Central Daylight Time),428821.89999997616,A,s,O,s,757,1,764.8000000119209,428057.09999996424,7145,WL,C,4.0
3,8.38100004196167,learn,51618.99995803833,Fri May 09 2025 11:30:50 GMT-0500 (Central Daylight Time),428956.1999999881,A,su,O,u,120,1,899.1000000238419,428057.09999996424,7145,WL,C,4.0
3,8.580000162124634,learn,51419.999837875366,Fri May 09 2025 11:30:50 GMT-0500 (Central Daylight Time),429155.7999999523,A,sug,O,g,191,1,1098.699999988079,428057.09999996424,7145,WL,C,4.0
3,8.71500015258789,learn,51284.99984741211,Fri May 09 2025 11:30:50 GMT-0500 (Central Daylight Time),429290.6999999881,A,suga,O,a,113,1,1233.6000000238419,428057.09999996424,7145,WL,C,4.0
3,8.879000186920166,learn,51120.999813079834,Fri May 09 2025 11:30:50 GMT-0500 (Central Daylight Time),429455.0,A,sugar,O,r,154,1,1397.9000000357628,428057.09999996424,7145,WL,C,4.0
3,9.380000114440918,learn,50619.99988555908,Fri May 09 2025 11:30:50 GMT-0500 (Central Daylight Time),429955.59999996424,A,sugarenter,O,enter,486,1,1898.5,428057.09999996424,7145,WL,C,4.0
3,10.046000003814697,learn,49953.9999961853,Fri May 09 2025 11:30:50 GMT-0500 (Central Daylight Time),430621.5,A,h,O,h,658,1,665.7000000476837,429955.7999999523,7145,WL,C,5.0
3,10.162000179290771,learn,49837.99982070923,Fri May 09 2025 11:30:50 GMT-0500 (Central Daylight Time),430738.09999996424,A,ho,O,o,102,1,782.3000000119209,429955.7999999523,7145,WL,C,5.0
3,10.496999979019165,learn,49503.000020980835,Fri May 09 2025 11:30:50 GMT-0500 (Central Daylight Time),431072.39999997616,A,hom,O,m,324,1,1116.6000000238419,429955.7999999523,7145,WL,C,5.0
3,10.61300015449524,learn,49386.99984550476,Fri May 09 2025 11:30:50 GMT-0500 (Central Daylight Time),431188.2999999523,A,home,O,e,101,1,1232.5,429955.7999999523,7145,WL,C,5.0
3,10.995000123977661,learn,49004.99987602234,Fri May 09 2025 11:30:50 GMT-0500 (Central Daylight Time),431570.89999997616,A,homeenter,O,enter,375,1,1615.1000000238419,429955.7999999523,7145,WL,C,5.0
3,11.746000051498413,learn,48253.99994850159,Fri May 09 2025 11:30:50 GMT-0500 (Central Daylight Time),432321.7999999523,A,b,O,b,731,1,750.5999999642372,431571.1999999881,7145,WL,C,6.0
3,12.196000099182129,learn,47803.99990081787,Fri May 09 2025 11:30:50 GMT-0500 (Central Daylight Time),432771.59999996424,A,bo,O,o,435,1,1200.3999999761581,431571.1999999881,7145,WL,C,6.0
3,12.445000171661377,learn,47554.99982833862,Fri May 09 2025 11:30:50 GMT-0500 (Central Daylight Time),433020.7999999523,A,boy,O,y,241,1,1449.5999999642372,431571.1999999881,7145,WL,C,6.0
3,13.094000101089478,learn,46905.99989891052,Fri May 09 2025 11:30:50 GMT-0500 (Central Daylight Time),433669.6999999881,A,boyenter,O,enter,638,1,2098.5,431571.1999999881,7145,WL,C,6.0
3,13.781000137329102,learn,46218.9998626709,Fri May 09 2025 11:30:50 GMT-0500 (Central Daylight Time),434356.2999999523,A,d,O,d,682,1,686.3999999761581,433669.89999997616,7145,WL,C,7.0
3,13.928000211715698,learn,46071.9997882843,Fri May 09 2025 11:30:50 GMT-0500 (Central Daylight Time),434504.0,A,do,O,o,135,1,834.1000000238419,433669.89999997616,7145,WL,C,7.0
3,14.995000123977661,learn,45004.99987602234,Fri May 09 2025 11:30:50 GMT-0500 (Central Daylight Time),435570.7999999523,A,doc,O,c,1045,1,1900.8999999761581,433669.89999997616,7145,WL,C,7.0
3,15.311000108718872,learn,44688.99989128113,Fri May 09 2025 11:30:50 GMT-0500 (Central Daylight Time),435886.59999996424,A,doct,O,t,306,1,2216.699999988079,433669.89999997616,7145,WL,C,7.0
3,15.644000053405762,learn,44355.99994659424,Fri May 09 2025 11:30:50 GMT-0500 (Central Daylight Time),436219.1999999881,A,docto,O,o,327,1,2549.300000011921,433669.89999997616,7145,WL,C,7.0
3,15.763000011444092,learn,44236.99998855591,Fri May 09 2025 11:30:50 GMT-0500 (Central Daylight Time),436339.09999996424,A,doctor,O,r,97,1,2669.199999988079,433669.89999997616,7145,WL,C,7.0
3,17.64300012588501,learn,42356.99987411499,Fri May 09 2025 11:30:50 GMT-0500 (Central Daylight Time),438219.0,A,doctorenter,O,enter,1876,1,4549.100000023842,433669.89999997616,7145,WL,C,7.0
3,18.74400019645691,learn,41255.99980354309,Fri May 09 2025 11:30:50 GMT-0500 (Central Daylight Time),439320.09999996424,A,c,O,c,1082,1,1100.800000011921,438219.2999999523,7145,WL,C,8.0
3,19.027000188827515,learn,40972.999811172485,Fri May 09 2025 11:30:50 GMT-0500 (Central Daylight Time),439602.2999999523,A,ca,O,a,269,1,1383.0,438219.2999999523,7145,WL,C,8.0
3,19.19600009918213,learn,40803.99990081787,Fri May 09 2025 11:30:50 GMT-0500 (Central Daylight Time),439771.2999999523,A,can,O,n,164,1,1552.0,438219.2999999523,7145,WL,C,8.0
3,19.64300012588501,learn,40356.99987411499,Fri May 09 2025 11:30:50 GMT-0500 (Central Daylight Time),440219.1999999881,A,ca,O,backspace,433,1,1999.9000000357628,438219.2999999523,7145,WL,C,8.0
3,20.26200008392334,learn,39737.99991607666,Fri May 09 2025 11:30:50 GMT-0500 (Central Daylight Time),440837.2999999523,A,cam,O,m,612,1,2618.0,438219.2999999523,7145,WL,C,8.0
3,20.693000078201294,learn,39306.999921798706,Fri May 09 2025 11:30:50 GMT-0500 (Central Daylight Time),441268.39999997616,A,camp,O,p,426,1,3049.100000023842,438219.2999999523,7145,WL,C,8.0
3,21.27900004386902,learn,38720.99995613098,Fri May 09 2025 11:30:50 GMT-0500 (Central Daylight Time),441854.1999999881,A,campenter,O,enter,581,1,3634.900000035763,438219.2999999523,7145,WL,C,8.0
3,22.142000198364258,learn,37857.99980163574,Fri May 09 2025 11:30:50 GMT-0500 (Central Daylight Time),442717.59999996424,A,f,O,f,856,1,863.0999999642372,441854.5,7145,WL,C,9.0
3,22.24400019645691,learn,37755.99980354309,Fri May 09 2025 11:30:50 GMT-0500 (Central Daylight Time),442820.1999999881,A,fl,O,l,97,1,965.6999999880791,441854.5,7145,WL,C,9.0
3,22.409000158309937,learn,37590.99984169006,Fri May 09 2025 11:30:50 GMT-0500 (Central Daylight Time),442984.1999999881,A,fla,O,a,153,1,1129.699999988079,441854.5,7145,WL,C,9.0
3,22.72699999809265,learn,37273.00000190735,Fri May 09 2025 11:30:50 GMT-0500 (Central Daylight Time),443302.2999999523,A,flag,O,g,309,1,1447.7999999523163,441854.5,7145,WL,C,9.0
3,23.442000150680542,learn,36557.99984931946,Fri May 09 2025 11:30:50 GMT-0500 (Central Daylight Time),444017.6999999881,A,flagenter,O,enter,694,1,2163.199999988079,441854.5,7145,WL,C,9.0
3,24.259999990463257,learn,35740.00000953674,Fri May 09 2025 11:30:50 GMT-0500 (Central Daylight Time),444835.89999997616,A,n,O,n,813,1,818.0,444017.89999997616,7145,WL,C,10.0
3,24.37600016593933,learn,35623.99983406067,Fri May 09 2025 11:30:50 GMT-0500 (Central Daylight Time),444951.59999996424,A,na,O,a,104,1,933.6999999880791,444017.89999997616,7145,WL,C,10.0
3,24.55900001525879,learn,35440.99998474121,Fri May 09 2025 11:30:50 GMT-0500 (Central Daylight Time),445135.09999996424,A,nai,O,i,163,1,1117.199999988079,444017.89999997616,7145,WL,C,10.0
3,24.94099998474121,learn,35059.00001525879,Fri May 09 2025 11:30:50 GMT-0500 (Central Daylight Time),445517.0,A,nail,O,l,364,1,1499.1000000238419,444017.89999997616,7145,WL,C,10.0
3,25.892000198364258,learn,34107.99980163574,Fri May 09 2025 11:30:50 GMT-0500 (Central Daylight Time),446467.59999996424,A,nailenter,O,enter,935,1,2449.699999988079,444017.89999997616,7145,WL,C,10.0
3,26.657999992370605,learn,33342.000007629395,Fri May 09 2025 11:30:50 GMT-0500 (Central Daylight Time),447234.0,A,l,O,l,745,1,766.2000000476837,446467.7999999523,7145,WL,C,11.0
3,26.77500009536743,learn,33224.99990463257,Fri May 09 2025 11:30:50 GMT-0500 (Central Daylight Time),447350.2999999523,A,le,O,e,96,1,882.5,446467.7999999523,7145,WL,C,11.0
3,26.94000005722046,learn,33059.99994277954,Fri May 09 2025 11:30:50 GMT-0500 (Central Daylight Time),447516.09999996424,A,let,O,t,158,1,1048.300000011921,446467.7999999523,7145,WL,C,11.0
3,27.125,learn,32875.0,Fri May 09 2025 11:30:50 GMT-0500 (Central Daylight Time),447700.6999999881,A,lett,O,t,176,1,1232.9000000357628,446467.7999999523,7145,WL,C,11.0
3,27.341000080108643,learn,32658.999919891357,Fri May 09 2025 11:30:50 GMT-0500 (Central Daylight Time),447916.1999999881,A,lette,O,e,199,1,1448.4000000357628,446467.7999999523,7145,WL,C,11.0
3,27.424000024795532,learn,32575.999975204468,Fri May 09 2025 11:30:50 GMT-0500 (Central Daylight Time),447999.39999997616,A,letter,O,r,71,1,1531.6000000238419,446467.7999999523,7145,WL,C,11.0
3,28.325000047683716,learn,31674.999952316284,Fri May 09 2025 11:30:50 GMT-0500 (Central Daylight Time),448900.59999996424,A,letterenter,O,enter,885,1,2432.800000011921,446467.7999999523,7145,WL,C,11.0
3,29.276000022888184,learn,30723.999977111816,Fri May 09 2025 11:30:50 GMT-0500 (Central Daylight Time),449851.6999999881,A,b,O,b,944,1,950.8000000119209,448900.89999997616,7145,WL,C,12.0
3,29.44099998474121,learn,30559.00001525879,Fri May 09 2025 11:30:50 GMT-0500 (Central Daylight Time),450017.0,A,bo,O,o,144,1,1116.1000000238419,448900.89999997616,7145,WL,C,12.0
3,29.856000185012817,learn,30143.999814987183,Fri May 09 2025 11:30:50 GMT-0500 (Central Daylight Time),450431.7999999523,A,bod,O,d,395,1,1530.8999999761581,448900.89999997616,7145,WL,C,12.0
3,29.990000009536743,learn,30009.999990463257,Fri May 09 2025 11:30:50 GMT-0500 (Central Daylight Time),450566.0,A,body,O,y,113,1,1665.1000000238419,448900.89999997616,7145,WL,C,12.0
3,30.6560001373291,learn,29343.9998626709,Fri May 09 2025 11:30:50 GMT-0500 (Central Daylight Time),451231.7999999523,A,bodyenter,O,enter,655,1,2330.899999976158,448900.89999997616,7145,WL,C,12.0
3,31.325000047683716,learn,28674.999952316284,Fri May 09 2025 11:30:50 GMT-0500 (Central Daylight Time),451900.7999999523,A,c,O,c,663,1,668.6999999880791,451232.09999996424,7145,WL,C,13.0
3,31.621999979019165,learn,28378.000020980835,Fri May 09 2025 11:30:50 GMT-0500 (Central Daylight Time),452198.0,A,ca,O,a,288,1,965.9000000357628,451232.09999996424,7145,WL,C,13.0
3,31.973000049591064,learn,28026.999950408936,Fri May 09 2025 11:30:50 GMT-0500 (Central Daylight Time),452548.7999999523,A,cat,O,t,335,1,1316.699999988079,451232.09999996424,7145,WL,C,13.0
3,32.140000104904175,learn,27859.999895095825,Fri May 09 2025 11:30:50 GMT-0500 (Central Daylight Time),452715.39999997616,A,catt,O,t,152,1,1483.300000011921,451232.09999996424,7145,WL,C,13.0
3,32.25600004196167,learn,27743.99995803833,Fri May 09 2025 11:30:50 GMT-0500 (Central Daylight Time),452832.09999996424,A,cattl,O,l,105,1,1600.0,451232.09999996424,7145,WL,C,13.0
3,32.574000120162964,learn,27425.999879837036,Fri May 09 2025 11:30:50 GMT-0500 (Central Daylight Time),453149.2999999523,A,cattly,O,y,310,1,1917.199999988079,451232.09999996424,7145,WL,C,13.0
3,33.4060001373291,learn,26593.9998626709,Fri May 09 2025 11:30:50 GMT-0500 (Central Daylight Time),453982.0,A,cattl,O,backspace,813,1,2749.900000035763,451232.09999996424,7145,WL,C,13.0
3,33.67400002479553,learn,26325.999975204468,Fri May 09 2025 11:30:50 GMT-0500 (Central Daylight Time),454249.39999997616,A,cattle,O,e,253,1,3017.300000011921,451232.09999996424,7145,WL,C,13.0
3,35.15500020980835,learn,24844.99979019165,Fri May 09 2025 11:30:50 GMT-0500 (Central Daylight Time),455731.1999999881,A,cattleenter,O,enter,1467,1,4499.100000023842,451232.09999996424,7145,WL,C,13.0
3,36.13900017738342,learn,23860.999822616577,Fri May 09 2025 11:30:50 GMT-0500 (Central Daylight Time),456714.5,A,s,O,s,971,1,983.1000000238419,455731.39999997616,7145,WL,C,14.0
3,36.27300000190735,learn,23726.99999809265,Fri May 09 2025 11:30:50 GMT-0500 (Central Daylight Time),456848.39999997616,A,sh,O,h,122,1,1117.0,455731.39999997616,7145,WL,C,14.0
3,36.390000104904175,learn,23609.999895095825,Fri May 09 2025 11:30:50 GMT-0500 (Central Daylight Time),456965.6999999881,A,sho,O,o,110,1,1234.300000011921,455731.39999997616,7145,WL,C,14.0
3,37.00500011444092,learn,22994.999885559082,Fri May 09 2025 11:30:50 GMT-0500 (Central Daylight Time),457580.89999997616,A,shor,O,r,607,1,1849.5,455731.39999997616,7145,WL,C,14.0
3,37.13700008392334,learn,22862.99991607666,Fri May 09 2025 11:30:50 GMT-0500 (Central Daylight Time),457713.0,A,shore,O,e,120,1,1981.6000000238419,455731.39999997616,7145,WL,C,14.0
3,38.83800005912781,learn,21161.999940872192,Fri May 09 2025 11:30:50 GMT-0500 (Central Daylight Time),459413.39999997616,A,shoreenter,O,enter,1692,1,3682.0,455731.39999997616,7145,WL,C,14.0
3,56.73100018501282,learn,3268.9998149871826,Fri May 09 2025 11:30:50 GMT-0500 (Central Daylight Time),477306.59999996424,A,enter,O,enter,17879,1,17892.899999976158,459413.6999999881,7145,WL,C,15.0
4,1.2659997940063477,learn,58734.00020599365,Fri May 09 2025 11:30:50 GMT-0500 (Central Daylight Time),545869.6999999881,A,t,O,t,1256,1,1265.300000011921,544604.3999999762,7145,WL,C,1.0
4,1.6319999694824219,learn,58368.00003051758,Fri May 09 2025 11:30:50 GMT-0500 (Central Daylight Time),546235.6999999881,A,to,O,o,361,1,1631.300000011921,544604.3999999762,7145,WL,C,1.0
4,1.8980000019073486,learn,58101.99999809265,Fri May 09 2025 11:30:50 GMT-0500 (Central Daylight Time),546501.7999999523,A,tow,O,w,259,1,1897.3999999761581,544604.3999999762,7145,WL,C,1.0
4,2.0,learn,58000.0,Fri May 09 2025 11:30:50 GMT-0500 (Central Daylight Time),546603.8999999762,A,towe,O,e,95,1,1999.5,544604.3999999762,7145,WL,C,1.0
4,2.182999849319458,learn,57817.00015068054,Fri May 09 2025 11:30:50 GMT-0500 (Central Daylight Time),546787.1999999881,A,tower,O,r,176,1,2182.800000011921,544604.3999999762,7145,WL,C,1.0
4,3.130999803543091,learn,56869.00019645691,Fri May 09 2025 11:30:50 GMT-0500 (Central Daylight Time),547734.5,A,towerenter,O,enter,937,1,3130.100000023842,544604.3999999762,7145,WL,C,1.0
4,3.7149999141693115,learn,56285.00008583069,Fri May 09 2025 11:30:50 GMT-0500 (Central Daylight Time),548318.5999999642,A,w,O,w,575,1,583.8000000119209,547734.7999999523,7145,WL,C,2.0
4,3.8320000171661377,learn,56167.99998283386,Fri May 09 2025 11:30:50 GMT-0500 (Central Daylight Time),548436.3999999762,A,wh,O,h,112,1,701.6000000238419,547734.7999999523,7145,WL,C,2.0
4,4.096999883651733,learn,55903.00011634827,Fri May 09 2025 11:30:50 GMT-0500 (Central Daylight Time),548701.0,A,wha,O,a,241,1,966.2000000476837,547734.7999999523,7145,WL,C,2.0
4,4.58299994468689,learn,55417.00005531311,Fri May 09 2025 11:30:50 GMT-0500 (Central Daylight Time),549186.6999999881,A,wh,O,backspace,479,1,1451.9000000357628,547734.7999999523,7145,WL,C,2.0
4,4.797999858856201,learn,55202.0001411438,Fri May 09 2025 11:30:50 GMT-0500 (Central Daylight Time),549401.3999999762,A,whe,O,e,201,1,1666.6000000238419,547734.7999999523,7145,WL,C,2.0
4,5.06499981880188,learn,54935.00018119812,Fri May 09 2025 11:30:50 GMT-0500 (Central Daylight Time),549669.2999999523,A,whea,O,a,262,1,1934.5,547734.7999999523,7145,WL,C,2.0
4,5.230999946594238,learn,54769.00005340576,Fri May 09 2025 11:30:50 GMT-0500 (Central Daylight Time),549834.3999999762,A,wheat,O,t,151,1,2099.600000023842,547734.7999999523,7145,WL,C,2.0
4,5.69599986076355,learn,54304.00013923645,Fri May 09 2025 11:30:50 GMT-0500 (Central Daylight Time),550299.7999999523,A,wheatenter,O,enter,448,1,2565.0,547734.7999999523,7145,WL,C,2.0
4,6.663999795913696,learn,53336.000204086304,Fri May 09 2025 11:30:50 GMT-0500 (Central Daylight Time),551267.5,A,q,O,q,962,1,967.4000000357628,550300.0999999642,7145,WL,C,3.0
4,6.865000009536743,learn,53134.99999046326,Fri May 09 2025 11:30:50 GMT-0500 (Central Daylight Time),551468.8999999762,A,qu,O,u,195,1,1168.800000011921,550300.0999999642,7145,WL,C,3.0
4,7.062999963760376,learn,52937.000036239624,Fri May 09 2025 11:30:50 GMT-0500 (Central Daylight Time),551666.8999999762,A,que,O,e,191,1,1366.800000011921,550300.0999999642,7145,WL,C,3.0
4,7.296999931335449,learn,52703.00006866455,Fri May 09 2025 11:30:50 GMT-0500 (Central Daylight Time),551900.6999999881,A,quee,O,e,216,1,1600.6000000238419,550300.0999999642,7145,WL,C,3.0
4,7.461999893188477,learn,52538.00010681152,Fri May 09 2025 11:30:50 GMT-0500 (Central Daylight Time),552066.2999999523,A,queen,O,n,151,1,1766.199999988079,550300.0999999642,7145,WL,C,3.0
4,8.02899980545044,learn,51971.00019454956,Fri May 09 2025 11:30:50 GMT-0500 (Central Daylight Time),552632.7999999523,A,queenenter,O,enter,554,1,2332.699999988079,550300.0999999642,7145,WL,C,3.0
4,8.763000011444092,learn,51236.99998855591,Fri May 09 2025 11:30:50 GMT-0500 (Central Daylight Time),553367.2999999523,A,s,O,s,725,1,734.2999999523163,552633.0,7145,WL,C,4.0
4,8.929999828338623,learn,51070.00017166138,Fri May 09 2025 11:30:50 GMT-0500 (Central Daylight Time),553533.5999999642,A,su,O,u,150,1,900.5999999642372,552633.0,7145,WL,C,4.0
4,9.297999858856201,learn,50702.0001411438,Fri May 09 2025 11:30:50 GMT-0500 (Central Daylight Time),553902.0999999642,A,sug,O,g,350,1,1269.0999999642372,552633.0,7145,WL,C,4.0
4,9.611999988555908,learn,50388.00001144409,Fri May 09 2025 11:30:50 GMT-0500 (Central Daylight Time),554216.3999999762,A,suga,O,a,304,1,1583.3999999761581,552633.0,7145,WL,C,4.0
4,9.76199984550476,learn,50238.00015449524,Fri May 09 2025 11:30:50 GMT-0500 (Central Daylight Time),554366.3999999762,A,sugar,O,r,141,1,1733.3999999761581,552633.0,7145,WL,C,4.0
4,10.246999979019165,learn,49753.000020980835,Fri May 09 2025 11:30:50 GMT-0500 (Central Daylight Time),554850.7999999523,A,sugarenter,O,enter,464,1,2217.7999999523163,552633.0,7145,WL,C,4.0
4,11.02899980545044,learn,48971.00019454956,Fri May 09 2025 11:30:50 GMT-0500 (Central Daylight Time),555632.6999999881,A,h,O,h,770,1,781.6999999880791,554851.0,7145,WL,C,5.0
4,11.162999868392944,learn,48837.000131607056,Fri May 09 2025 11:30:50 GMT-0500 (Central Daylight Time),555766.6999999881,A,ho,O,o,116,1,915.6999999880791,554851.0,7145,WL,C,5.0
4,11.461999893188477,learn,48538.00010681152,Fri May 09 2025 11:30:50 GMT-0500 (Central Daylight Time),556065.5999999642,A,hom,O,m,286,1,1214.5999999642372,554851.0,7145,WL,C,5.0
4,11.595999956130981,learn,48404.00004386902,Fri May 09 2025 11:30:50 GMT-0500 (Central Daylight Time),556199.5,A,home,O,e,124,1,1348.5,554851.0,7145,WL,C,5.0
4,12.161999940872192,learn,47838.00005912781,Fri May 09 2025 11:30:50 GMT-0500 (Central Daylight Time),556766.1999999881,A,homeenter,O,enter,549,1,1915.199999988079,554851.0,7145,WL,C,5.0
4,13.01199984550476,learn,46988.00015449524,Fri May 09 2025 11:30:50 GMT-0500 (Central Daylight Time),557615.7999999523,A,b,O,b,830,1,849.3999999761581,556766.3999999762,7145,WL,C,6.0
4,13.296000003814697,learn,46703.9999961853,Fri May 09 2025 11:30:50 GMT-0500 (Central Daylight Time),557900.2999999523,A,bo,O,o,268,1,1133.8999999761581,556766.3999999762,7145,WL,C,6.0
4,13.960999965667725,learn,46039.000034332275,Fri May 09 2025 11:30:50 GMT-0500 (Central Daylight Time),558565.0,A,boy,O,y,647,1,1798.6000000238419,556766.3999999762,7145,WL,C,6.0
4,14.59499979019165,learn,45405.00020980835,Fri May 09 2025 11:30:50 GMT-0500 (Central Daylight Time),559198.3999999762,A,boyenter,O,enter,624,1,2432.0,556766.3999999762,7145,WL,C,6.0
4,15.209999799728394,learn,44790.00020027161,Fri May 09 2025 11:30:50 GMT-0500 (Central Daylight Time),559813.6999999881,A,d,O,d,607,1,615.0,559198.6999999881,7145,WL,C,7.0
4,15.328999996185303,learn,44671.0000038147,Fri May 09 2025 11:30:50 GMT-0500 (Central Daylight Time),559932.5,A,do,O,o,112,1,733.8000000119209,559198.6999999881,7145,WL,C,7.0
4,15.560999870300293,learn,44439.00012969971,Fri May 09 2025 11:30:50 GMT-0500 (Central Daylight Time),560164.5,A,doc,O,c,214,1,965.8000000119209,559198.6999999881,7145,WL,C,7.0
4,15.876999855041504,learn,44123.000144958496,Fri May 09 2025 11:30:50 GMT-0500 (Central Daylight Time),560480.6999999881,A,doct,O,t,296,1,1282.0,559198.6999999881,7145,WL,C,7.0
4,16.26099991798401,learn,43739.00008201599,Fri May 09 2025 11:30:50 GMT-0500 (Central Daylight Time),560864.5,A,docto,O,o,371,1,1665.800000011921,559198.6999999881,7145,WL,C,7.0
4,16.375999927520752,learn,43624.00007247925,Fri May 09 2025 11:30:50 GMT-0500 (Central Daylight Time),560980.0999999642,A,doctor,O,r,108,1,1781.3999999761581,559198.6999999881,7145,WL,C,7.0
4,17.192999839782715,learn,42807.000160217285,Fri May 09 2025 11:30:50 GMT-0500 (Central Daylight Time),561796.5999999642,A,doctorenter,O,enter,806,1,2597.899999976158,559198.6999999881,7145,WL,C,7.0
4,18.32799983024597,learn,41672.00016975403,Fri May 09 2025 11:30:50 GMT-0500 (Central Daylight Time),562931.5,A,c,O,c,1112,1,1134.7000000476837,561796.7999999523,7145,WL,C,8.0
4,18.857999801635742,learn,41142.00019836426,Fri May 09 2025 11:30:50 GMT-0500 (Central Daylight Time),563461.6999999881,A,ca,O,a,511,1,1664.9000000357628,561796.7999999523,7145,WL,C,8.0
4,19.024999856948853,learn,40975.00014305115,Fri May 09 2025 11:30:50 GMT-0500 (Central Daylight Time),563628.5,A,cam,O,m,152,1,1831.7000000476837,561796.7999999523,7145,WL,C,8.0
4,19.727999925613403,learn,40272.0000743866,Fri May 09 2025 11:30:50 GMT-0500 (Central Daylight Time),564332.1999999881,A,camp,O,p,700,1,2535.400000035763,561796.7999999523,7145,WL,C,8.0
4,20.209999799728394,learn,39790.00020027161,Fri May 09 2025 11:30:50 GMT-0500 (Central Daylight Time),564813.5999999642,A,campenter,O,enter,470,1,3016.800000011921,561796.7999999523,7145,WL,C,8.0
4,21.0239999294281,learn,38976.0000705719,Fri May 09 2025 11:30:50 GMT-0500 (Central Daylight Time),565627.8999999762,A,f,O,f,807,1,814.0,564813.8999999762,7145,WL,C,9.0
4,21.14299988746643,learn,38857.00011253357,Fri May 09 2025 11:30:50 GMT-0500 (Central Daylight Time),565746.5,A,fl,O,l,106,1,932.6000000238419,564813.8999999762,7145,WL,C,9.0
4,21.29199981689453,learn,38708.00018310547,Fri May 09 2025 11:30:50 GMT-0500 (Central Daylight Time),565895.7999999523,A,fla,O,a,137,1,1081.8999999761581,564813.8999999762,7145,WL,C,9.0
4,21.542999982833862,learn,38457.00001716614,Fri May 09 2025 11:30:50 GMT-0500 (Central Daylight Time),566146.6999999881,A,flag,O,g,236,1,1332.800000011921,564813.8999999762,7145,WL,C,9.0
4,22.02300000190735,learn,37976.99999809265,Fri May 09 2025 11:30:50 GMT-0500 (Central Daylight Time),566626.7999999523,A,flagenter,O,enter,465,1,1812.8999999761581,564813.8999999762,7145,WL,C,9.0
4,22.857999801635742,learn,37142.00019836426,Fri May 09 2025 11:30:50 GMT-0500 (Central Daylight Time),567462.1999999881,A,l,O,l,819,1,835.1000000238419,566627.0999999642,7145,WL,C,10.0
4,22.992999792099,learn,37007.000207901,Fri May 09 2025 11:30:50 GMT-0500 (Central Daylight Time),567596.7999999523,A,le,O,e,128,1,969.6999999880791,566627.0999999642,7145,WL,C,10.0
4,23.19099998474121,learn,36809.00001525879,Fri May 09 2025 11:30:50 GMT-0500 (Central Daylight Time),567794.5999999642,A,let,O,t,183,1,1167.5,566627.0999999642,7145,WL,C,10.0
4,23.324999809265137,learn,36675.00019073486,Fri May 09 2025 11:30:50 GMT-0500 (Central Daylight Time),567928.3999999762,A,lett,O,t,122,1,1301.300000011921,566627.0999999642,7145,WL,C,10.0
4,23.80999994277954,learn,36190.00005722046,Fri May 09 2025 11:30:50 GMT-0500 (Central Daylight Time),568413.5999999642,A,lette,O,e,478,1,1786.5,566627.0999999642,7145,WL,C,10.0
4,23.941999912261963,learn,36058.00008773804,Fri May 09 2025 11:30:50 GMT-0500 (Central Daylight Time),568545.8999999762,A,letter,O,r,111,1,1918.800000011921,566627.0999999642,7145,WL,C,10.0
4,24.990999937057495,learn,35009.000062942505,Fri May 09 2025 11:30:50 GMT-0500 (Central Daylight Time),569594.5,A,letterenter,O,enter,1034,1,2967.400000035763,566627.0999999642,7145,WL,C,10.0
4,28.156999826431274,learn,31843.000173568726,Fri May 09 2025 11:30:50 GMT-0500 (Central Daylight Time),572760.5,A,c,O,c,3146,1,3165.7000000476837,569594.7999999523,7145,WL,C,11.0
4,28.506999969482422,learn,31493.000030517578,Fri May 09 2025 11:30:50 GMT-0500 (Central Daylight Time),573111.2999999523,A,ca,O,a,340,1,3516.5,569594.7999999523,7145,WL,C,11.0
4,29.121999979019165,learn,30878.000020980835,Fri May 09 2025 11:30:50 GMT-0500 (Central Daylight Time),573726.3999999762,A,cat,O,t,605,1,4131.600000023842,569594.7999999523,7145,WL,C,11.0
4,29.271999835968018,learn,30728.000164031982,Fri May 09 2025 11:30:50 GMT-0500 (Central Daylight Time),573876.0,A,catt,O,t,135,1,4281.200000047684,569594.7999999523,7145,WL,C,11.0
4,29.44099998474121,learn,30559.00001525879,Fri May 09 2025 11:30:50 GMT-0500 (Central Daylight Time),574044.3999999762,A,cattl,O,l,162,1,4449.600000023842,569594.7999999523,7145,WL,C,11.0
4,30.07200002670288,learn,29927.99997329712,Fri May 09 2025 11:30:50 GMT-0500 (Central Daylight Time),574676.0999999642,A,cattle,O,e,624,1,5081.300000011921,569594.7999999523,7145,WL,C,11.0
4,31.00599980354309,learn,28994.00019645691,Fri May 09 2025 11:30:50 GMT-0500 (Central Daylight Time),575609.8999999762,A,cattleenter,O,enter,911,1,6015.100000023842,569594.7999999523,7145,WL,C,11.0
4,31.58899998664856,learn,28411.00001335144,Fri May 09 2025 11:30:50 GMT-0500 (Central Daylight Time),576192.5999999642,A,n,O,n,563,1,582.3999999761581,575610.1999999881,7145,WL,C,12.0
4,31.75599980354309,learn,28244.00019645691,Fri May 09 2025 11:30:50 GMT-0500 (Central Daylight Time),576359.5999999642,A,na,O,a,155,1,749.3999999761581,575610.1999999881,7145,WL,C,12.0
4,31.872999906539917,learn,28127.000093460083,Fri May 09 2025 11:30:50 GMT-0500 (Central Daylight Time),576476.8999999762,A,nai,O,i,101,1,866.6999999880791,575610.1999999881,7145,WL,C,12.0
4,32.15499997138977,learn,27845.00002861023,Fri May 09 2025 11:30:50 GMT-0500 (Central Daylight Time),576759.2999999523,A,nail,O,l,272,1,1149.0999999642372,575610.1999999881,7145,WL,C,12.0
4,32.95299983024597,learn,27047.00016975403,Fri May 09 2025 11:30:50 GMT-0500 (Central Daylight Time),577556.5,A,nailenter,O,enter,781,1,1946.300000011921,575610.1999999881,7145,WL,C,12.0
4,33.86899995803833,learn,26131.00004196167,Fri May 09 2025 11:30:50 GMT-0500 (Central Daylight Time),578473.2999999523,A,c,O,c,913,1,916.5999999642372,577556.6999999881,7145,WL,C,13.0
4,33.98699998855591,learn,26013.00001144409,Fri May 09 2025 11:30:50 GMT-0500 (Central Daylight Time),578590.5999999642,A,co,O,o,109,1,1033.8999999761581,577556.6999999881,7145,WL,C,13.0
4,34.22099995613098,learn,25779.00004386902,Fri May 09 2025 11:30:50 GMT-0500 (Central Daylight Time),578825.3999999762,A,cor,O,r,225,1,1268.699999988079,577556.6999999881,7145,WL,C,13.0
4,34.454999923706055,learn,25545.000076293945,Fri May 09 2025 11:30:50 GMT-0500 (Central Daylight Time),579058.7999999523,A,corn,O,n,227,1,1502.0999999642372,577556.6999999881,7145,WL,C,13.0
4,35.02300000190735,learn,24976.99999809265,Fri May 09 2025 11:30:50 GMT-0500 (Central Daylight Time),579626.3999999762,A,cornenter,O,enter,553,1,2069.699999988079,577556.6999999881,7145,WL,C,13.0
4,36.186999797821045,learn,23813.000202178955,Fri May 09 2025 11:30:50 GMT-0500 (Central Daylight Time),580791.0999999642,A,s,O,s,1148,1,1164.3999999761581,579626.6999999881,7145,WL,C,14.0
4,36.30399990081787,learn,23696.00009918213,Fri May 09 2025 11:30:50 GMT-0500 (Central Daylight Time),580908.1999999881,A,sh,O,h,101,1,1281.5,579626.6999999881,7145,WL,C,14.0
4,36.4210000038147,learn,23578.999996185303,Fri May 09 2025 11:30:50 GMT-0500 (Central Daylight Time),581024.3999999762,A,sho,O,o,96,1,1397.699999988079,579626.6999999881,7145,WL,C,14.0
4,36.83699989318848,learn,23163.000106811523,Fri May 09 2025 11:30:50 GMT-0500 (Central Daylight Time),581441.1999999881,A,shor,O,r,404,1,1814.5,579626.6999999881,7145,WL,C,14.0
4,36.98799991607666,learn,23012.00008392334,Fri May 09 2025 11:30:50 GMT-0500 (Central Daylight Time),581591.5999999642,A,shore,O,e,131,1,1964.8999999761581,579626.6999999881,7145,WL,C,14.0
4,37.38599991798401,learn,22614.00008201599,Fri May 09 2025 11:30:50 GMT-0500 (Central Daylight Time),581989.5999999642,A,shoreenter,O,enter,381,1,2362.899999976158,579626.6999999881,7145,WL,C,14.0
4,38.269999980926514,learn,21730.000019073486,Fri May 09 2025 11:30:50 GMT-0500 (Central Daylight Time),582874.0999999642,A,b,O,b,872,1,884.3999999761581,581989.6999999881,7145,WL,C,15.0
4,38.519999980926514,learn,21480.000019073486,Fri May 09 2025 11:30:50 GMT-0500 (Central Daylight Time),583123.8999999762,A,bo,O,o,234,1,1134.199999988079,581989.6999999881,7145,WL,C,15.0
4,38.93599987030029,learn,21064.000129699707,Fri May 09 2025 11:30:50 GMT-0500 (Central Daylight Time),583540.1999999881,A,bod,O,d,409,1,1550.5,581989.6999999881,7145,WL,C,15.0
4,39.05299997329712,learn,20947.00002670288,Fri May 09 2025 11:30:50 GMT-0500 (Central Daylight Time),583656.8999999762,A,body,O,y,104,1,1667.199999988079,581989.6999999881,7145,WL,C,15.0
4,40.45299983024597,learn,19547.00016975403,Fri May 09 2025 11:30:50 GMT-0500 (Central Daylight Time),585056.6999999881,A,bodyenter,O,enter,1388,1,3067.0,581989.6999999881,7145,WL,C,15.0
5,1.1180000305175781,learn,60000.0,Fri May 09 2025 11:30:50 GMT-0500 (Central Daylight Time),654135.0999999642,A,t,O,t,1101,1,1117.0999999642372,653018.0,7145,WL,C,1.0
5,1.2850000858306885,learn,60000.0,Fri May 09 2025 11:30:50 GMT-0500 (Central Daylight Time),654302.0999999642,A,to,O,o,150,1,1284.0999999642372,653018.0,7145,WL,C,1.0
5,1.633000135421753,learn,60000.0,Fri May 09 2025 11:30:50 GMT-0500 (Central Daylight Time),654650.6999999881,A,toe,O,e,335,1,1632.699999988079,653018.0,7145,WL,C,1.0
5,1.883000135421753,learn,60000.0,Fri May 09 2025 11:30:50 GMT-0500 (Central Daylight Time),654900.8999999762,A,toer,O,r,242,1,1882.8999999761581,653018.0,7145,WL,C,1.0
5,2.633000135421753,learn,60000.0,Fri May 09 2025 11:30:50 GMT-0500 (Central Daylight Time),655650.8999999762,A,toe,O,backspace,734,1,2632.899999976158,653018.0,7145,WL,C,1.0
5,2.8340001106262207,learn,60000.0,Fri May 09 2025 11:30:50 GMT-0500 (Central Daylight Time),655852.0,A,to,O,backspace,195,1,2834.0,653018.0,7145,WL,C,1.0
5,3.2009999752044678,learn,60000.0,Fri May 09 2025 11:30:50 GMT-0500 (Central Daylight Time),656218.5999999642,A,tow,O,w,360,1,3200.599999964237,653018.0,7145,WL,C,1.0
5,3.431999921798706,learn,60000.0,Fri May 09 2025 11:30:50 GMT-0500 (Central Daylight Time),656449.5,A,towe,O,e,218,1,3431.5,653018.0,7145,WL,C,1.0
5,3.617000102996826,learn,60000.0,Fri May 09 2025 11:30:50 GMT-0500 (Central Daylight Time),656634.5,A,tower,O,r,180,1,3616.5,653018.0,7145,WL,C,1.0
5,4.266000032424927,learn,60000.0,Fri May 09 2025 11:30:50 GMT-0500 (Central Daylight Time),657283.7999999523,A,towerenter,O,enter,645,1,4265.799999952316,653018.0,7145,WL,C,1.0
5,5.131999969482422,learn,60000.0,Fri May 09 2025 11:30:50 GMT-0500 (Central Daylight Time),658149.8999999762,A,w,O,w,849,1,865.8999999761581,657284.0,7145,WL,C,2.0
5,5.266999959945679,learn,60000.0,Fri May 09 2025 11:30:50 GMT-0500 (Central Daylight Time),658284.1999999881,A,wh,O,h,129,1,1000.1999999880791,657284.0,7145,WL,C,2.0
5,5.8500001430511475,learn,60000.0,Fri May 09 2025 11:30:50 GMT-0500 (Central Daylight Time),658867.0999999642,A,whe,O,e,578,1,1583.0999999642372,657284.0,7145,WL,C,2.0
5,5.982000112533569,learn,60000.0,Fri May 09 2025 11:30:50 GMT-0500 (Central Daylight Time),658999.7999999523,A,whea,O,a,122,1,1715.7999999523163,657284.0,7145,WL,C,2.0
5,6.150000095367432,learn,60000.0,Fri May 09 2025 11:30:50 GMT-0500 (Central Daylight Time),659167.6999999881,A,wheat,O,t,149,1,1883.699999988079,657284.0,7145,WL,C,2.0
5,6.730999946594238,learn,60000.0,Fri May 09 2025 11:30:50 GMT-0500 (Central Daylight Time),659748.0,A,wheatenter,O,enter,575,1,2464.0,657284.0,7145,WL,C,2.0
5,7.88100004196167,learn,60000.0,Fri May 09 2025 11:30:50 GMT-0500 (Central Daylight Time),660899.5,A,q,O,q,1138,1,1151.2000000476837,659748.2999999523,7145,WL,C,3.0
5,8.049000024795532,learn,60000.0,Fri May 09 2025 11:30:50 GMT-0500 (Central Daylight Time),661067.2999999523,A,qu,O,u,161,1,1319.0,659748.2999999523,7145,WL,C,3.0
5,8.29699993133545,learn,60000.0,Fri May 09 2025 11:30:50 GMT-0500 (Central Daylight Time),661315.2999999523,A,que,O,e,234,1,1567.0,659748.2999999523,7145,WL,C,3.0
5,8.447999954223633,learn,60000.0,Fri May 09 2025 11:30:50 GMT-0500 (Central Daylight Time),661466.0999999642,A,quee,O,e,138,1,1717.800000011921,659748.2999999523,7145,WL,C,3.0
5,8.763000011444092,learn,60000.0,Fri May 09 2025 11:30:50 GMT-0500 (Central Daylight Time),661781.5,A,queen,O,n,299,1,2033.2000000476837,659748.2999999523,7145,WL,C,3.0
5,9.347000122070312,learn,60000.0,Fri May 09 2025 11:30:50 GMT-0500 (Central Daylight Time),662364.6999999881,A,queenenter,O,enter,567,1,2616.400000035763,659748.2999999523,7145,WL,C,3.0
5,10.04699993133545,learn,60000.0,Fri May 09 2025 11:30:50 GMT-0500 (Central Daylight Time),663064.6999999881,A,s,O,s,680,1,699.8000000119209,662364.8999999762,7145,WL,C,4.0
5,10.17900013923645,learn,60000.0,Fri May 09 2025 11:30:50 GMT-0500 (Central Daylight Time),663197.1999999881,A,su,O,u,123,1,832.3000000119209,662364.8999999762,7145,WL,C,4.0
5,10.42900013923645,learn,60000.0,Fri May 09 2025 11:30:50 GMT-0500 (Central Daylight Time),663447.2999999523,A,sug,O,g,231,1,1082.3999999761581,662364.8999999762,7145,WL,C,4.0
5,10.647000074386597,learn,60000.0,Fri May 09 2025 11:30:50 GMT-0500 (Central Daylight Time),663665.1999999881,A,suga,O,a,206,1,1300.300000011921,662364.8999999762,7145,WL,C,4.0
5,10.812000036239624,learn,60000.0,Fri May 09 2025 11:30:50 GMT-0500 (Central Daylight Time),663830.2999999523,A,sugar,O,r,157,1,1465.3999999761581,662364.8999999762,7145,WL,C,4.0
5,11.52999997138977,learn,60000.0,Fri May 09 2025 11:30:50 GMT-0500 (Central Daylight Time),664548.1999999881,A,sugarenter,O,enter,703,1,2183.300000011921,662364.8999999762,7145,WL,C,4.0
5,12.21399998664856,learn,60000.0,Fri May 09 2025 11:30:50 GMT-0500 (Central Daylight Time),665231.6999999881,A,h,O,h,663,1,683.3000000119209,664548.3999999762,7145,WL,C,5.0
5,12.329999923706055,learn,60000.0,Fri May 09 2025 11:30:50 GMT-0500 (Central Daylight Time),665347.7999999523,A,ho,O,o,101,1,799.3999999761581,664548.3999999762,7145,WL,C,5.0
5,12.63100004196167,learn,60000.0,Fri May 09 2025 11:30:50 GMT-0500 (Central Daylight Time),665648.8999999762,A,hom,O,m,280,1,1100.5,664548.3999999762,7145,WL,C,5.0
5,12.763000011444092,learn,60000.0,Fri May 09 2025 11:30:50 GMT-0500 (Central Daylight Time),665781.1999999881,A,home,O,e,116,1,1232.800000011921,664548.3999999762,7145,WL,C,5.0
5,13.128000020980835,learn,60000.0,Fri May 09 2025 11:30:50 GMT-0500 (Central Daylight Time),666146.1999999881,A,homeenter,O,enter,359,1,1597.800000011921,664548.3999999762,7145,WL,C,5.0
5,13.74399995803833,learn,60000.0,Fri May 09 2025 11:30:50 GMT-0500 (Central Daylight Time),666762.3999999762,A,b,O,b,603,1,615.8999999761581,666146.5,7145,WL,C,6.0
5,13.930000066757202,learn,60000.0,Fri May 09 2025 11:30:50 GMT-0500 (Central Daylight Time),666948.2999999523,A,bo,O,o,181,1,801.7999999523163,666146.5,7145,WL,C,6.0
5,14.378999948501587,learn,60000.0,Fri May 09 2025 11:30:50 GMT-0500 (Central Daylight Time),667396.7999999523,A,boy,O,y,432,1,1250.2999999523163,666146.5,7145,WL,C,6.0
5,14.861000061035156,learn,60000.0,Fri May 09 2025 11:30:50 GMT-0500 (Central Daylight Time),667879.1999999881,A,boyenter,O,enter,462,1,1732.699999988079,666146.5,7145,WL,C,6.0
5,15.595999956130981,learn,60000.0,Fri May 09 2025 11:30:50 GMT-0500 (Central Daylight Time),668614.3999999762,A,d,O,d,726,1,735.0,667879.3999999762,7145,WL,C,7.0
5,15.696000099182129,learn,60000.0,Fri May 09 2025 11:30:50 GMT-0500 (Central Daylight Time),668713.8999999762,A,do,O,o,94,1,834.5,667879.3999999762,7145,WL,C,7.0
5,15.92900013923645,learn,60000.0,Fri May 09 2025 11:30:50 GMT-0500 (Central Daylight Time),668946.6999999881,A,doc,O,c,219,1,1067.300000011921,667879.3999999762,7145,WL,C,7.0
5,16.24500012397766,learn,60000.0,Fri May 09 2025 11:30:50 GMT-0500 (Central Daylight Time),669263.0999999642,A,doct,O,t,298,1,1383.699999988079,667879.3999999762,7145,WL,C,7.0
5,16.911999940872192,learn,60000.0,Fri May 09 2025 11:30:50 GMT-0500 (Central Daylight Time),669930.0999999642,A,docto,O,o,654,1,2050.699999988079,667879.3999999762,7145,WL,C,7.0
5,17.894999980926514,learn,60000.0,Fri May 09 2025 11:30:50 GMT-0500 (Central Daylight Time),670912.5999999642,A,doctor,O,r,972,1,3033.199999988079,667879.3999999762,7145,WL,C,7.0
5,19.194999933242798,learn,60000.0,Fri May 09 2025 11:30:50 GMT-0500 (Central Daylight Time),672212.8999999762,A,doctorenter,O,enter,1285,1,4333.5,667879.3999999762,7145,WL,C,7.0
5,20.361999988555908,learn,60000.0,Fri May 09 2025 11:30:50 GMT-0500 (Central Daylight Time),673380.0,A,l,O,l,1162,1,1166.9000000357628,672213.0999999642,7145,WL,C,8.0
5,20.944999933242798,learn,60000.0,Fri May 09 2025 11:30:50 GMT-0500 (Central Daylight Time),673963.1999999881,A,le,O,e,578,1,1750.1000000238419,672213.0999999642,7145,WL,C,8.0
5,21.17799997329712,learn,60000.0,Fri May 09 2025 11:30:50 GMT-0500 (Central Daylight Time),674196.0999999642,A,let,O,t,227,1,1983.0,672213.0999999642,7145,WL,C,8.0
5,21.32800006866455,learn,60000.0,Fri May 09 2025 11:30:50 GMT-0500 (Central Daylight Time),674346.0,A,lett,O,t,144,1,2132.900000035763,672213.0999999642,7145,WL,C,8.0
5,21.627000093460083,learn,60000.0,Fri May 09 2025 11:30:50 GMT-0500 (Central Daylight Time),674645.1999999881,A,lette,O,e,283,1,2432.100000023842,672213.0999999642,7145,WL,C,8.0
5,21.743000030517578,learn,60000.0,Fri May 09 2025 11:30:50 GMT-0500 (Central Daylight Time),674760.6999999881,A,letter,O,r,94,1,2547.600000023842,672213.0999999642,7145,WL,C,8.0
5,22.174999952316284,learn,60000.0,Fri May 09 2025 11:30:50 GMT-0500 (Central Daylight Time),675193.1999999881,A,letterenter,O,enter,418,1,2980.100000023842,672213.0999999642,7145,WL,C,8.0
5,22.7260000705719,learn,60000.0,Fri May 09 2025 11:30:50 GMT-0500 (Central Daylight Time),675743.8999999762,A,c,O,c,532,1,550.3999999761581,675193.5,7145,WL,C,9.0
5,23.05900001525879,learn,60000.0,Fri May 09 2025 11:30:50 GMT-0500 (Central Daylight Time),676077.1999999881,A,ca,O,a,315,1,883.6999999880791,675193.5,7145,WL,C,9.0
5,23.60800004005432,learn,60000.0,Fri May 09 2025 11:30:50 GMT-0500 (Central Daylight Time),676626.1999999881,A,cam,O,m,536,1,1432.699999988079,675193.5,7145,WL,C,9.0
5,23.875,learn,60000.0,Fri May 09 2025 11:30:50 GMT-0500 (Central Daylight Time),676892.6999999881,A,camp,O,p,250,1,1699.199999988079,675193.5,7145,WL,C,9.0
5,24.258000135421753,learn,60000.0,Fri May 09 2025 11:30:50 GMT-0500 (Central Daylight Time),677276.1999999881,A,campenter,O,enter,377,1,2082.699999988079,675193.5,7145,WL,C,9.0
5,25.592000007629395,learn,60000.0,Fri May 09 2025 11:30:50 GMT-0500 (Central Daylight Time),678610.2999999523,A,f,O,f,1329,1,1333.7999999523163,677276.5,7145,WL,C,10.0
5,25.79100012779236,learn,60000.0,Fri May 09 2025 11:30:50 GMT-0500 (Central Daylight Time),678809.2999999523,A,fl,O,l,187,1,1532.7999999523163,677276.5,7145,WL,C,10.0
5,26.009000062942505,learn,60000.0,Fri May 09 2025 11:30:50 GMT-0500 (Central Daylight Time),679027.3999999762,A,fla,O,a,205,1,1750.8999999761581,677276.5,7145,WL,C,10.0
5,26.992000102996826,learn,60000.0,Fri May 09 2025 11:30:50 GMT-0500 (Central Daylight Time),680010.0,A,flag,O,g,970,1,2733.5,677276.5,7145,WL,C,10.0
5,29.140000104904175,learn,60000.0,Fri May 09 2025 11:30:50 GMT-0500 (Central Daylight Time),682157.8999999762,A,flagenter,O,enter,2139,1,4881.399999976158,677276.5,7145,WL,C,10.0
5,32.17300009727478,learn,60000.0,Fri May 09 2025 11:30:50 GMT-0500 (Central Daylight Time),685190.5999999642,A,c,O,c,3023,1,3032.399999976158,682158.1999999881,7145,WL,C,11.0
5,32.42300009727478,learn,60000.0,Fri May 09 2025 11:30:50 GMT-0500 (Central Daylight Time),685441.2999999523,A,ca,O,a,240,1,3283.099999964237,682158.1999999881,7145,WL,C,11.0
5,32.7720000743866,learn,60000.0,Fri May 09 2025 11:30:50 GMT-0500 (Central Daylight Time),685789.7999999523,A,cat,O,t,329,1,3631.599999964237,682158.1999999881,7145,WL,C,11.0
5,32.9060001373291,learn,60000.0,Fri May 09 2025 11:30:50 GMT-0500 (Central Daylight Time),685924.3999999762,A,catt,O,t,128,1,3766.199999988079,682158.1999999881,7145,WL,C,11.0
5,33.03999996185303,learn,60000.0,Fri May 09 2025 11:30:50 GMT-0500 (Central Daylight Time),686058.1999999881,A,cattl,O,l,120,1,3900.0,682158.1999999881,7145,WL,C,11.0
5,33.424999952316284,learn,60000.0,Fri May 09 2025 11:30:50 GMT-0500 (Central Daylight Time),686442.5999999642,A,cattle,O,e,378,1,4284.399999976158,682158.1999999881,7145,WL,C,11.0
5,34.38800001144409,learn,60000.0,Fri May 09 2025 11:30:50 GMT-0500 (Central Daylight Time),687406.1999999881,A,cattleenter,O,enter,952,1,5248.0,682158.1999999881,7145,WL,C,11.0
5,35.50600004196167,learn,60000.0,Fri May 09 2025 11:30:50 GMT-0500 (Central Daylight Time),688524.3999999762,A,c,O,c,1104,1,1118.0,687406.3999999762,7145,WL,C,12.0
5,35.621999979019165,learn,60000.0,Fri May 09 2025 11:30:50 GMT-0500 (Central Daylight Time),688640.5,A,co,O,o,94,1,1234.1000000238419,687406.3999999762,7145,WL,C,12.0
5,36.021000146865845,learn,60000.0,Fri May 09 2025 11:30:50 GMT-0500 (Central Daylight Time),689039.3999999762,A,cor,O,r,385,1,1633.0,687406.3999999762,7145,WL,C,12.0
5,36.13800001144409,learn,60000.0,Fri May 09 2025 11:30:50 GMT-0500 (Central Daylight Time),689156.0,A,corn,O,n,101,1,1749.6000000238419,687406.3999999762,7145,WL,C,12.0
5,37.48900008201599,learn,60000.0,Fri May 09 2025 11:30:50 GMT-0500 (Central Daylight Time),690506.5999999642,A,cornenter,O,enter,1344,1,3100.199999988079,687406.3999999762,7145,WL,C,12.0
5,39.57100009918213,learn,60000.0,Fri May 09 2025 11:30:50 GMT-0500 (Central Daylight Time),692589.1999999881,A,s,O,s,2066,1,2082.300000011921,690506.8999999762,7145,WL,C,13.0
5,39.75399994850159,learn,60000.0,Fri May 09 2025 11:30:50 GMT-0500 (Central Daylight Time),692771.6999999881,A,sh,O,h,168,1,2264.800000011921,690506.8999999762,7145,WL,C,13.0
5,39.92199993133545,learn,60000.0,Fri May 09 2025 11:30:50 GMT-0500 (Central Daylight Time),692940.2999999523,A,sho,O,o,152,1,2433.399999976158,690506.8999999762,7145,WL,C,13.0
5,40.271000146865845,learn,60000.0,Fri May 09 2025 11:30:50 GMT-0500 (Central Daylight Time),693289.3999999762,A,shor,O,r,327,1,2782.5,690506.8999999762,7145,WL,C,13.0
5,40.420000076293945,learn,60000.0,Fri May 09 2025 11:30:50 GMT-0500 (Central Daylight Time),693438.2999999523,A,shore,O,e,139,1,2931.399999976158,690506.8999999762,7145,WL,C,13.0
5,41.63700008392334,learn,60000.0,Fri May 09 2025 11:30:50 GMT-0500 (Central Daylight Time),694655.0999999642,A,shoreenter,O,enter,1205,1,4148.199999988079,690506.8999999762,7145,WL,C,13.0
5,43.170000076293945,learn,60000.0,Fri May 09 2025 11:30:50 GMT-0500 (Central Daylight Time),696188.5,A,b,O,b,1528,1,1533.2000000476837,694655.2999999523,7145,WL,C,14.0
5,44.085999965667725,learn,60000.0,Fri May 09 2025 11:30:50 GMT-0500 (Central Daylight Time),697104.1999999881,A,bo,O,o,903,1,2448.900000035763,694655.2999999523,7145,WL,C,14.0
5,44.854000091552734,learn,60000.0,Fri May 09 2025 11:30:50 GMT-0500 (Central Daylight Time),697871.6999999881,A,bod,O,d,748,1,3216.400000035763,694655.2999999523,7145,WL,C,14.0
5,44.93499994277954,learn,60000.0,Fri May 09 2025 11:30:50 GMT-0500 (Central Daylight Time),697953.0999999642,A,body,O,y,68,1,3297.800000011921,694655.2999999523,7145,WL,C,14.0
5,46.28500008583069,learn,60000.0,Fri May 09 2025 11:30:50 GMT-0500 (Central Daylight Time),699303.0999999642,A,bodyenter,O,enter,1337,1,4647.800000011921,694655.2999999523,7145,WL,C,14.0
5,46.86899995803833,learn,60000.0,Fri May 09 2025 11:30:50 GMT-0500 (Central Daylight Time),699887.0,A,c,O,c,566,1,583.6000000238419,699303.3999999762,7145,WL,C,15.0
5,47.43499994277954,learn,60000.0,Fri May 09 2025 11:30:50 GMT-0500 (Central Daylight Time),700453.5,A,,O,backspace,557,1,1150.1000000238419,699303.3999999762,7145,WL,C,15.0
5,48.05200004577637,learn,60000.0,Fri May 09 2025 11:30:50 GMT-0500 (Central Daylight Time),701069.6999999881,A,n,O,n,599,1,1766.300000011921,699303.3999999762,7145,WL,C,15.0
5,48.236000061035156,learn,60000.0,Fri May 09 2025 11:30:50 GMT-0500 (Central Daylight Time),701253.7999999523,A,na,O,a,160,1,1950.3999999761581,699303.3999999762,7145,WL,C,15.0
5,48.36899995803833,learn,60000.0,Fri May 09 2025 11:30:50 GMT-0500 (Central Daylight Time),701386.7999999523,A,nai,O,i,117,1,2083.399999976158,699303.3999999762,7145,WL,C,15.0
5,48.634000062942505,learn,60000.0,Fri May 09 2025 11:30:50 GMT-0500 (Central Daylight Time),701652.3999999762,A,nail,O,l,258,1,2349.0,699303.3999999762,7145,WL,C,15.0
5,50.26800012588501,learn,60000.0,Fri May 09 2025 11:30:50 GMT-0500 (Central Daylight Time),703285.8999999762,A,nailenter,O,enter,1614,1,3982.5,699303.3999999762,7145,WL,C,15.0
6,1.184000015258789,distr,58815.99998474121,Fri May 09 2025 11:30:50 GMT-0500 (Central Daylight Time),771830.1999999881,B,p,O,p,1164,1,1183.0,770647.1999999881,7145,WL,C,1.0
6,1.5180001258850098,distr,58481.99987411499,Fri May 09 2025 11:30:50 GMT-0500 (Central Daylight Time),772165.0999999642,B,pl,O,l,318,1,1517.8999999761581,770647.1999999881,7145,WL,C,1.0
6,1.816999912261963,distr,58183.00008773804,Fri May 09 2025 11:30:50 GMT-0500 (Central Daylight Time),772464.0999999642,B,pla,O,a,287,1,1816.8999999761581,770647.1999999881,7145,WL,C,1.0
6,1.9679999351501465,distr,58032.00006484985,Fri May 09 2025 11:30:50 GMT-0500 (Central Daylight Time),772614.2999999523,B,plan,O,n,131,1,1967.0999999642372,770647.1999999881,7145,WL,C,1.0
6,2.2339999675750732,distr,57766.00003242493,Fri May 09 2025 11:30:50 GMT-0500 (Central Daylight Time),772880.1999999881,B,plant,O,t,246,1,2233.0,770647.1999999881,7145,WL,C,1.0
6,3.0329999923706055,distr,56967.000007629395,Fri May 09 2025 11:30:50 GMT-0500 (Central Daylight Time),773679.1999999881,B,plantenter,O,enter,780,1,3032.0,770647.1999999881,7145,WL,C,1.0
6,4.200000047683716,distr,55799.999952316284,Fri May 09 2025 11:30:50 GMT-0500 (Central Daylight Time),774846.2999999523,B,m,O,m,1150,1,1166.699999988079,773679.5999999642,7145,WL,C,2.0
6,4.334000110626221,distr,55665.99988937378,Fri May 09 2025 11:30:50 GMT-0500 (Central Daylight Time),774980.3999999762,B,mo,O,o,128,1,1300.800000011921,773679.5999999642,7145,WL,C,2.0
6,4.5980000495910645,distr,55401.999950408936,Fri May 09 2025 11:30:50 GMT-0500 (Central Daylight Time),775245.0999999642,B,mon,O,n,255,1,1565.5,773679.5999999642,7145,WL,C,2.0
6,4.931999921798706,distr,55068.000078201294,Fri May 09 2025 11:30:50 GMT-0500 (Central Daylight Time),775579.0,B,mone,O,e,312,1,1899.4000000357628,773679.5999999642,7145,WL,C,2.0
6,5.016000032424927,distr,54983.99996757507,Fri May 09 2025 11:30:50 GMT-0500 (Central Daylight Time),775662.2999999523,B,money,O,y,74,1,1982.699999988079,773679.5999999642,7145,WL,C,2.0
6,6.134000062942505,distr,53865.999937057495,Fri May 09 2025 11:30:50 GMT-0500 (Central Daylight Time),776781.0,B,moneyenter,O,enter,1096,1,3101.400000035763,773679.5999999642,7145,WL,C,2.0
6,6.79800009727478,distr,53201.99990272522,Fri May 09 2025 11:30:50 GMT-0500 (Central Daylight Time),777445.0,B,d,O,d,648,1,663.8000000119209,776781.1999999881,7145,WL,C,3.0
6,7.081000089645386,distr,52918.999910354614,Fri May 09 2025 11:30:50 GMT-0500 (Central Daylight Time),777728.1999999881,B,do,O,o,262,1,947.0,776781.1999999881,7145,WL,C,3.0
6,7.367000102996826,distr,52632.999897003174,Fri May 09 2025 11:30:50 GMT-0500 (Central Daylight Time),778013.3999999762,B,dol,O,l,269,1,1232.199999988079,776781.1999999881,7145,WL,C,3.0
6,7.5320000648498535,distr,52467.99993515015,Fri May 09 2025 11:30:50 GMT-0500 (Central Daylight Time),778178.8999999762,B,doll,O,l,144,1,1397.699999988079,776781.1999999881,7145,WL,C,3.0
6,7.63100004196167,distr,52368.99995803833,Fri May 09 2025 11:30:50 GMT-0500 (Central Daylight Time),778277.5999999642,B,dolla,O,a,90,1,1496.3999999761581,776781.1999999881,7145,WL,C,3.0
6,7.799000024795532,distr,52200.99997520447,Fri May 09 2025 11:30:50 GMT-0500 (Central Daylight Time),778445.7999999523,B,dollar,O,r,162,1,1664.5999999642372,776781.1999999881,7145,WL,C,3.0
6,8.314000129699707,distr,51685.99987030029,Fri May 09 2025 11:30:50 GMT-0500 (Central Daylight Time),778960.7999999523,B,dollarenter,O,enter,494,1,2179.599999964237,776781.1999999881,7145,WL,C,3.0
6,9.213000059127808,distr,50786.99994087219,Fri May 09 2025 11:30:50 GMT-0500 (Central Daylight Time),779860.0999999642,B,s,O,s,884,1,899.0,778961.0999999642,7145,WL,C,4.0
6,9.630000114440918,distr,50369.99988555908,Fri May 09 2025 11:30:50 GMT-0500 (Central Daylight Time),780277.3999999762,B,sk,O,k,400,1,1316.300000011921,778961.0999999642,7145,WL,C,4.0
6,9.980999946594238,distr,50019.00005340576,Fri May 09 2025 11:30:50 GMT-0500 (Central Daylight Time),780628.1999999881,B,sky,O,y,335,1,1667.1000000238419,778961.0999999642,7145,WL,C,4.0
6,10.61299991607666,distr,49387.00008392334,Fri May 09 2025 11:30:50 GMT-0500 (Central Daylight Time),781260.5999999642,B,skyenter,O,enter,625,1,2299.5,778961.0999999642,7145,WL,C,4.0
6,11.180999994277954,distr,48819.000005722046,Fri May 09 2025 11:30:50 GMT-0500 (Central Daylight Time),781828.0,B,d,O,d,561,1,567.2000000476837,781260.7999999523,7145,WL,C,5.0
6,11.315000057220459,distr,48684.99994277954,Fri May 09 2025 11:30:50 GMT-0500 (Central Daylight Time),781962.1999999881,B,di,O,i,128,1,701.4000000357628,781260.7999999523,7145,WL,C,5.0
6,11.52999997138977,distr,48470.00002861023,Fri May 09 2025 11:30:50 GMT-0500 (Central Daylight Time),782177.5,B,dia,O,a,194,1,916.7000000476837,781260.7999999523,7145,WL,C,5.0
6,11.763999938964844,distr,48236.000061035156,Fri May 09 2025 11:30:50 GMT-0500 (Central Daylight Time),782411.5,B,diam,O,m,227,1,1150.7000000476837,781260.7999999523,7145,WL,C,5.0
6,11.963000059127808,distr,48036.99994087219,Fri May 09 2025 11:30:50 GMT-0500 (Central Daylight Time),782610.0999999642,B,diamo,O,o,176,1,1349.300000011921,781260.7999999523,7145,WL,C,5.0
6,12.164000034332275,distr,47835.999965667725,Fri May 09 2025 11:30:50 GMT-0500 (Central Daylight Time),782811.5,B,diamon,O,n,196,1,1550.7000000476837,781260.7999999523,7145,WL,C,5.0
6,12.331000089645386,distr,47668.999910354614,Fri May 09 2025 11:30:50 GMT-0500 (Central Daylight Time),782978.5,B,diamond,O,d,144,1,1717.7000000476837,781260.7999999523,7145,WL,C,5.0
6,12.713000059127808,distr,47286.99994087219,Fri May 09 2025 11:30:50 GMT-0500 (Central Daylight Time),783360.3999999762,B,diamondenter,O,enter,362,1,2099.600000023842,781260.7999999523,7145,WL,C,5.0
6,13.328999996185303,distr,46671.0000038147,Fri May 09 2025 11:30:50 GMT-0500 (Central Daylight Time),783976.3999999762,B,v,O,v,605,1,615.6999999880791,783360.6999999881,7145,WL,C,6.0
6,13.579999923706055,distr,46420.000076293945,Fri May 09 2025 11:30:50 GMT-0500 (Central Daylight Time),784227.2999999523,B,va,O,a,236,1,866.5999999642372,783360.6999999881,7145,WL,C,6.0
6,13.76200008392334,distr,46237.99991607666,Fri May 09 2025 11:30:50 GMT-0500 (Central Daylight Time),784409.5,B,val,O,l,162,1,1048.800000011921,783360.6999999881,7145,WL,C,6.0
6,13.962000131607056,distr,46037.999868392944,Fri May 09 2025 11:30:50 GMT-0500 (Central Daylight Time),784609.2999999523,B,vall,O,l,194,1,1248.5999999642372,783360.6999999881,7145,WL,C,6.0
6,14.678999900817871,distr,45321.00009918213,Fri May 09 2025 11:30:50 GMT-0500 (Central Daylight Time),785326.0999999642,B,valle,O,e,709,1,1965.3999999761581,783360.6999999881,7145,WL,C,6.0
6,15.378999948501587,distr,44621.00005149841,Fri May 09 2025 11:30:50 GMT-0500 (Central Daylight Time),786026.0999999642,B,valley,O,y,685,1,2665.399999976158,783360.6999999881,7145,WL,C,6.0
6,15.812000036239624,distr,44187.999963760376,Fri May 09 2025 11:30:50 GMT-0500 (Central Daylight Time),786459.1999999881,B,valleyenter,O,enter,427,1,3098.5,783360.6999999881,7145,WL,C,6.0
6,16.694999933242798,distr,43305.0000667572,Fri May 09 2025 11:30:50 GMT-0500 (Central Daylight Time),787342.5,B,w,O,w,867,1,883.1000000238419,786459.3999999762,7145,WL,C,7.0
6,16.796000003814697,distr,43203.9999961853,Fri May 09 2025 11:30:50 GMT-0500 (Central Daylight Time),787443.1999999881,B,wi,O,i,93,1,983.8000000119209,786459.3999999762,7145,WL,C,7.0
6,17.02900004386902,distr,42970.99995613098,Fri May 09 2025 11:30:50 GMT-0500 (Central Daylight Time),787676.0,B,win,O,n,226,1,1216.6000000238419,786459.3999999762,7145,WL,C,7.0
6,17.128000020980835,distr,42871.999979019165,Fri May 09 2025 11:30:50 GMT-0500 (Central Daylight Time),787774.8999999762,B,wint,O,t,91,1,1315.5,786459.3999999762,7145,WL,C,7.0
6,17.293999910354614,distr,42706.000089645386,Fri May 09 2025 11:30:50 GMT-0500 (Central Daylight Time),787941.5,B,winte,O,e,147,1,1482.1000000238419,786459.3999999762,7145,WL,C,7.0
6,17.413000106811523,distr,42586.99989318848,Fri May 09 2025 11:30:50 GMT-0500 (Central Daylight Time),788060.1999999881,B,winter,O,r,112,1,1600.800000011921,786459.3999999762,7145,WL,C,7.0
6,17.796000003814697,distr,42203.9999961853,Fri May 09 2025 11:30:50 GMT-0500 (Central Daylight Time),788443.3999999762,B,winterenter,O,enter,378,1,1984.0,786459.3999999762,7145,WL,C,7.0
6,18.36299991607666,distr,41637.00008392334,Fri May 09 2025 11:30:50 GMT-0500 (Central Daylight Time),789010.7999999523,B,c,O,c,553,1,567.1999999880791,788443.5999999642,7145,WL,C,8.0
6,18.492000102996826,distr,41507.999897003174,Fri May 09 2025 11:30:50 GMT-0500 (Central Daylight Time),789138.8999999762,B,ch,O,h,117,1,695.3000000119209,788443.5999999642,7145,WL,C,8.0
6,18.72699999809265,distr,41273.00000190735,Fri May 09 2025 11:30:50 GMT-0500 (Central Daylight Time),789374.5,B,chr,O,r,217,1,930.9000000357628,788443.5999999642,7145,WL,C,8.0
6,18.877000093460083,distr,41122.99990653992,Fri May 09 2025 11:30:50 GMT-0500 (Central Daylight Time),789524.2999999523,B,chri,O,i,144,1,1080.699999988079,788443.5999999642,7145,WL,C,8.0
6,19.092999935150146,distr,40907.00006484985,Fri May 09 2025 11:30:50 GMT-0500 (Central Daylight Time),789740.5,B,chris,O,s,208,1,1296.9000000357628,788443.5999999642,7145,WL,C,8.0
6,19.32699990272522,distr,40673.00009727478,Fri May 09 2025 11:30:50 GMT-0500 (Central Daylight Time),789973.6999999881,B,christ,O,t,224,1,1530.1000000238419,788443.5999999642,7145,WL,C,8.0
6,19.575999975204468,distr,40424.00002479553,Fri May 09 2025 11:30:50 GMT-0500 (Central Daylight Time),790223.3999999762,B,christm,O,m,231,1,1779.800000011921,788443.5999999642,7145,WL,C,8.0
6,19.743000030517578,distr,40256.99996948242,Fri May 09 2025 11:30:50 GMT-0500 (Central Daylight Time),790390.2999999523,B,christma,O,a,156,1,1946.699999988079,788443.5999999642,7145,WL,C,8.0
6,20.05999994277954,distr,39940.00005722046,Fri May 09 2025 11:30:50 GMT-0500 (Central Daylight Time),790707.8999999762,B,christmas,O,s,301,1,2264.300000011921,788443.5999999642,7145,WL,C,8.0
6,20.743000030517578,distr,39256.99996948242,Fri May 09 2025 11:30:50 GMT-0500 (Central Daylight Time),791390.1999999881,B,christmasenter,O,enter,665,1,2946.600000023842,788443.5999999642,7145,WL,C,8.0
6,27.85800004005432,distr,32141.99995994568,Fri May 09 2025 11:30:50 GMT-0500 (Central Daylight Time),798505.0,B,b,O,b,7103,1,7114.600000023842,791390.3999999762,7145,WL,C,9.0
6,28.08999991416931,distr,31910.00008583069,Fri May 09 2025 11:30:50 GMT-0500 (Central Daylight Time),798737.5,B,bu,O,u,212,1,7347.100000023842,791390.3999999762,7145,WL,C,9.0
6,28.2739999294281,distr,31726.0000705719,Fri May 09 2025 11:30:50 GMT-0500 (Central Daylight Time),798921.0999999642,B,but,O,t,169,1,7530.699999988079,791390.3999999762,7145,WL,C,9.0
6,28.424000024795532,distr,31575.999975204468,Fri May 09 2025 11:30:50 GMT-0500 (Central Daylight Time),799070.7999999523,B,butt,O,t,141,1,7680.399999976158,791390.3999999762,7145,WL,C,9.0
6,28.7739999294281,distr,31226.0000705719,Fri May 09 2025 11:30:50 GMT-0500 (Central Daylight Time),799421.0999999642,B,butte,O,e,334,1,8030.699999988079,791390.3999999762,7145,WL,C,9.0
6,28.875999927520752,distr,31124.000072479248,Fri May 09 2025 11:30:50 GMT-0500 (Central Daylight Time),799522.8999999762,B,butter,O,r,97,1,8132.5,791390.3999999762,7145,WL,C,9.0
6,29.758000135421753,distr,30241.999864578247,Fri May 09 2025 11:30:50 GMT-0500 (Central Daylight Time),800404.6999999881,B,butterenter,O,enter,874,1,9014.300000011921,791390.3999999762,7145,WL,C,9.0
6,31.29200005531311,distr,28707.99994468689,Fri May 09 2025 11:30:50 GMT-0500 (Central Daylight Time),801938.7999999523,B,enter,O,enter,1520,1,1533.7999999523163,800405.0,7145,WL,C,10.0
6,35.306999921798706,distr,24693.000078201294,Fri May 09 2025 11:30:50 GMT-0500 (Central Daylight Time),805954.1999999881,B,enter,O,enter,4010,1,4015.199999988079,801939.0,7145,WL,C,11.0
6,36.72099995613098,distr,23279.00004386902,Fri May 09 2025 11:30:50 GMT-0500 (Central Daylight Time),807368.0999999642,B,enter,O,enter,1394,1,1413.5999999642372,805954.5,7145,WL,C,12.0
6,37.039000034332275,distr,22960.999965667725,Fri May 09 2025 11:30:50 GMT-0500 (Central Daylight Time),807685.8999999762,B,enter,O,enter,301,1,317.5,807368.3999999762,7145,WL,C,13.0
6,37.519999980926514,distr,22480.000019073486,Fri May 09 2025 11:30:50 GMT-0500 (Central Daylight Time),808166.7999999523,B,enter,O,enter,462,1,480.5999999642372,807686.1999999881,7145,WL,C,14.0
6,38.00399994850159,distr,21996.000051498413,Fri May 09 2025 11:30:50 GMT-0500 (Central Daylight Time),808651.5999999642,B,enter,O,enter,481,1,484.5999999642372,808167.0,7145,WL,C,15.0
7,11.999000072479248,immed,48000.99992752075,Fri May 09 2025 11:30:50 GMT-0500 (Central Daylight Time),823298.2999999523,A,t,O,t,11976,1,11998.399999976158,811299.8999999762,7145,WL,C,1.0
7,12.197999954223633,immed,47802.00004577637,Fri May 09 2025 11:30:50 GMT-0500 (Central Daylight Time),823497.6999999881,A,to,O,o,186,1,12197.800000011921,811299.8999999762,7145,WL,C,1.0
7,12.450000047683716,immed,47549.999952316284,Fri May 09 2025 11:30:50 GMT-0500 (Central Daylight Time),823748.7999999523,A,tow,O,w,245,1,12448.899999976158,811299.8999999762,7145,WL,C,1.0
7,12.514000177383423,immed,47485.99982261658,Fri May 09 2025 11:30:50 GMT-0500 (Central Daylight Time),823813.0,A,towe,O,e,53,1,12513.100000023842,811299.8999999762,7145,WL,C,1.0
7,12.730000019073486,immed,47269.999980926514,Fri May 09 2025 11:30:50 GMT-0500 (Central Daylight Time),824029.5999999642,A,tower,O,r,207,1,12729.699999988079,811299.8999999762,7145,WL,C,1.0
7,14.147000074386597,immed,45852.9999256134,Fri May 09 2025 11:30:50 GMT-0500 (Central Daylight Time),825446.0999999642,A,towerenter,O,enter,1399,1,14146.199999988079,811299.8999999762,7145,WL,C,1.0
7,15.897000074386597,immed,44102.9999256134,Fri May 09 2025 11:30:50 GMT-0500 (Central Daylight Time),827196.5,A,q,O,q,1745,1,1750.1000000238419,825446.3999999762,7145,WL,C,2.0
7,16.19700002670288,immed,43802.99997329712,Fri May 09 2025 11:30:50 GMT-0500 (Central Daylight Time),827496.5,A,qu,O,u,279,1,2050.100000023842,825446.3999999762,7145,WL,C,2.0
7,16.413000106811523,immed,43586.99989318848,Fri May 09 2025 11:30:50 GMT-0500 (Central Daylight Time),827711.8999999762,A,que,O,e,204,1,2265.5,825446.3999999762,7145,WL,C,2.0
7,16.61300015449524,immed,43386.99984550476,Fri May 09 2025 11:30:50 GMT-0500 (Central Daylight Time),827912.5999999642,A,quee,O,e,188,1,2466.199999988079,825446.3999999762,7145,WL,C,2.0
7,16.881999969482422,immed,43118.00003051758,Fri May 09 2025 11:30:50 GMT-0500 (Central Daylight Time),828181.2999999523,A,queen,O,n,252,1,2734.899999976158,825446.3999999762,7145,WL,C,2.0
7,17.347000122070312,immed,42652.99987792969,Fri May 09 2025 11:30:50 GMT-0500 (Central Daylight Time),828646.0999999642,A,queenenter,O,enter,446,1,3199.699999988079,825446.3999999762,7145,WL,C,2.0
7,18.546000003814697,immed,41453.9999961853,Fri May 09 2025 11:30:50 GMT-0500 (Central Daylight Time),829845.2999999523,A,s,O,s,1184,1,1199.0,828646.2999999523,7145,WL,C,3.0
7,18.74500012397766,immed,41254.99987602234,Fri May 09 2025 11:30:50 GMT-0500 (Central Daylight Time),830044.1999999881,A,su,O,u,183,1,1397.9000000357628,828646.2999999523,7145,WL,C,3.0
7,19.01200008392334,immed,40987.99991607666,Fri May 09 2025 11:30:50 GMT-0500 (Central Daylight Time),830311.5,A,sug,O,g,256,1,1665.2000000476837,828646.2999999523,7145,WL,C,3.0
7,19.263000011444092,immed,40736.99998855591,Fri May 09 2025 11:30:50 GMT-0500 (Central Daylight Time),830562.0,A,suga,O,a,237,1,1915.7000000476837,828646.2999999523,7145,WL,C,3.0
7,19.496000051498413,immed,40503.99994850159,Fri May 09 2025 11:30:50 GMT-0500 (Central Daylight Time),830794.7999999523,A,sugar,O,r,217,1,2148.5,828646.2999999523,7145,WL,C,3.0
7,20.629000186920166,immed,39370.999813079834,Fri May 09 2025 11:30:50 GMT-0500 (Central Daylight Time),831928.2999999523,A,sugarenter,O,enter,1120,1,3282.0,828646.2999999523,7145,WL,C,3.0
7,26.14400005340576,immed,33855.99994659424,Fri May 09 2025 11:30:50 GMT-0500 (Central Daylight Time),837442.7999999523,A,h,O,h,5495,1,5514.399999976158,831928.3999999762,7145,WL,C,4.0
7,26.27900004386902,immed,33720.99995613098,Fri May 09 2025 11:30:50 GMT-0500 (Central Daylight Time),837578.0,A,ho,O,o,119,1,5649.600000023842,831928.3999999762,7145,WL,C,4.0
7,26.710000038146973,immed,33289.99996185303,Fri May 09 2025 11:30:50 GMT-0500 (Central Daylight Time),838009.0999999642,A,hom,O,m,404,1,6080.699999988079,831928.3999999762,7145,WL,C,4.0
7,27.06000018119812,immed,32939.99981880188,Fri May 09 2025 11:30:50 GMT-0500 (Central Daylight Time),838359.0999999642,A,home,O,e,337,1,6430.699999988079,831928.3999999762,7145,WL,C,4.0
7,27.426000118255615,immed,32573.999881744385,Fri May 09 2025 11:30:50 GMT-0500 (Central Daylight Time),838725.5999999642,A,homeenter,O,enter,350,1,6797.199999988079,831928.3999999762,7145,WL,C,4.0
7,28.0770001411438,immed,31922.9998588562,Fri May 09 2025 11:30:50 GMT-0500 (Central Daylight Time),839376.0999999642,A,b,O,b,632,1,650.1999999880791,838725.8999999762,7145,WL,C,5.0
7,28.81000018119812,immed,31189.99981880188,Fri May 09 2025 11:30:50 GMT-0500 (Central Daylight Time),840109.0,A,bo,O,o,725,1,1383.1000000238419,838725.8999999762,7145,WL,C,5.0
7,29.20800018310547,immed,30791.99981689453,Fri May 09 2025 11:30:50 GMT-0500 (Central Daylight Time),840508.2999999523,A,boy,O,y,379,1,1782.3999999761581,838725.8999999762,7145,WL,C,5.0
7,29.608999967575073,immed,30391.000032424927,Fri May 09 2025 11:30:50 GMT-0500 (Central Daylight Time),840908.5999999642,A,boyenter,O,enter,384,1,2182.699999988079,838725.8999999762,7145,WL,C,5.0
7,30.342000007629395,immed,29657.999992370605,Fri May 09 2025 11:30:50 GMT-0500 (Central Daylight Time),841642.0999999642,A,d,O,d,721,1,733.1999999880791,840908.8999999762,7145,WL,C,6.0
7,30.45900011062622,immed,29540.99988937378,Fri May 09 2025 11:30:50 GMT-0500 (Central Daylight Time),841758.5999999642,A,do,O,o,111,1,849.6999999880791,840908.8999999762,7145,WL,C,6.0
7,30.659000158309937,immed,29340.999841690063,Fri May 09 2025 11:30:50 GMT-0500 (Central Daylight Time),841958.7999999523,A,doc,O,c,180,1,1049.8999999761581,840908.8999999762,7145,WL,C,6.0
7,30.943000078201294,immed,29056.999921798706,Fri May 09 2025 11:30:50 GMT-0500 (Central Daylight Time),842242.5999999642,A,doct,O,t,270,1,1333.699999988079,840908.8999999762,7145,WL,C,6.0
7,31.258000135421753,immed,28741.999864578247,Fri May 09 2025 11:30:50 GMT-0500 (Central Daylight Time),842557.5,A,docto,O,o,303,1,1648.6000000238419,840908.8999999762,7145,WL,C,6.0
7,31.34000015258789,immed,28659.99984741211,Fri May 09 2025 11:30:50 GMT-0500 (Central Daylight Time),842640.0999999642,A,doctor,O,r,63,1,1731.199999988079,840908.8999999762,7145,WL,C,6.0
7,32.15700006484985,immed,27842.999935150146,Fri May 09 2025 11:30:50 GMT-0500 (Central Daylight Time),843456.3999999762,A,doctorenter,O,enter,796,1,2547.5,840908.8999999762,7145,WL,C,6.0
7,33.890000104904175,immed,26109.999895095825,Fri May 09 2025 11:30:50 GMT-0500 (Central Daylight Time),845189.8999999762,A,l,O,l,1724,1,1733.1000000238419,843456.7999999523,7145,WL,C,7.0
7,34.026000022888184,immed,25973.999977111816,Fri May 09 2025 11:30:50 GMT-0500 (Central Daylight Time),845325.6999999881,A,le,O,e,126,1,1868.9000000357628,843456.7999999523,7145,WL,C,7.0
7,34.223000049591064,immed,25776.999950408936,Fri May 09 2025 11:30:50 GMT-0500 (Central Daylight Time),845523.2999999523,A,let,O,t,180,1,2066.5,843456.7999999523,7145,WL,C,7.0
7,34.375,immed,25625.0,Fri May 09 2025 11:30:50 GMT-0500 (Central Daylight Time),845674.5999999642,A,lett,O,t,143,1,2217.800000011921,843456.7999999523,7145,WL,C,7.0
7,34.55900001525879,immed,25440.99998474121,Fri May 09 2025 11:30:50 GMT-0500 (Central Daylight Time),845858.8999999762,A,lette,O,e,167,1,2402.100000023842,843456.7999999523,7145,WL,C,7.0
7,34.69099998474121,immed,25309.00001525879,Fri May 09 2025 11:30:50 GMT-0500 (Central Daylight Time),845991.0999999642,A,letter,O,r,108,1,2534.300000011921,843456.7999999523,7145,WL,C,7.0
7,35.20800018310547,immed,24791.99981689453,Fri May 09 2025 11:30:50 GMT-0500 (Central Daylight Time),846507.2999999523,A,letterenter,O,enter,493,1,3050.5,843456.7999999523,7145,WL,C,7.0
7,35.741000175476074,immed,24258.999824523926,Fri May 09 2025 11:30:50 GMT-0500 (Central Daylight Time),847040.5999999642,A,c,O,c,521,1,533.0,846507.5999999642,7145,WL,C,8.0
7,36.09000015258789,immed,23909.99984741211,Fri May 09 2025 11:30:50 GMT-0500 (Central Daylight Time),847390.0999999642,A,ca,O,a,341,1,882.5,846507.5999999642,7145,WL,C,8.0
7,36.289000034332275,immed,23710.999965667725,Fri May 09 2025 11:30:50 GMT-0500 (Central Daylight Time),847589.2999999523,A,cam,O,m,182,1,1081.699999988079,846507.5999999642,7145,WL,C,8.0
7,36.57299995422363,immed,23427.000045776367,Fri May 09 2025 11:30:50 GMT-0500 (Central Daylight Time),847872.6999999881,A,camp,O,p,263,1,1365.1000000238419,846507.5999999642,7145,WL,C,8.0
7,36.973000049591064,immed,23026.999950408936,Fri May 09 2025 11:30:50 GMT-0500 (Central Daylight Time),848272.7999999523,A,campenter,O,enter,384,1,1765.199999988079,846507.5999999642,7145,WL,C,8.0
7,37.60700011253357,immed,22392.99988746643,Fri May 09 2025 11:30:50 GMT-0500 (Central Daylight Time),848906.5999999642,A,p,O,p,629,1,633.5999999642372,848273.0,7145,WL,C,9.0
7,37.99000000953674,immed,22009.999990463257,Fri May 09 2025 11:30:50 GMT-0500 (Central Daylight Time),849289.5999999642,A,,O,backspace,362,1,1016.5999999642372,848273.0,7145,WL,C,9.0
7,38.623000144958496,immed,21376.999855041504,Fri May 09 2025 11:30:50 GMT-0500 (Central Daylight Time),849923.0,A,f,O,f,626,1,1650.0,848273.0,7145,WL,C,9.0
7,38.7720000743866,immed,21227.999925613403,Fri May 09 2025 11:30:50 GMT-0500 (Central Daylight Time),850071.8999999762,A,fl,O,l,134,1,1798.8999999761581,848273.0,7145,WL,C,9.0
7,38.95700001716614,immed,21042.999982833862,Fri May 09 2025 11:30:50 GMT-0500 (Central Daylight Time),850257.0,A,fla,O,a,173,1,1984.0,848273.0,7145,WL,C,9.0
7,39.25800013542175,immed,20741.999864578247,Fri May 09 2025 11:30:50 GMT-0500 (Central Daylight Time),850557.5,A,flag,O,g,292,1,2284.5,848273.0,7145,WL,C,9.0
7,39.80400013923645,immed,20195.99986076355,Fri May 09 2025 11:30:50 GMT-0500 (Central Daylight Time),851103.3999999762,A,flagenter,O,enter,526,1,2830.399999976158,848273.0,7145,WL,C,9.0
7,43.63900017738342,immed,16360.999822616577,Fri May 09 2025 11:30:50 GMT-0500 (Central Daylight Time),854938.6999999881,A,l,O,l,3829,1,3835.0,851103.6999999881,7145,WL,C,10.0
7,43.956000089645386,immed,16043.999910354614,Fri May 09 2025 11:30:50 GMT-0500 (Central Daylight Time),855255.5999999642,A,le,O,e,293,1,4151.899999976158,851103.6999999881,7145,WL,C,10.0
7,44.2039999961853,immed,15796.000003814697,Fri May 09 2025 11:30:50 GMT-0500 (Central Daylight Time),855504.1999999881,A,let,O,t,225,1,4400.5,851103.6999999881,7145,WL,C,10.0
7,44.37000012397766,immed,15629.999876022339,Fri May 09 2025 11:30:50 GMT-0500 (Central Daylight Time),855669.8999999762,A,lett,O,t,157,1,4566.199999988079,851103.6999999881,7145,WL,C,10.0
7,44.521000146865845,immed,15478.999853134155,Fri May 09 2025 11:30:50 GMT-0500 (Central Daylight Time),855821.1999999881,A,lette,O,e,138,1,4717.5,851103.6999999881,7145,WL,C,10.0
7,44.670000076293945,immed,15329.999923706055,Fri May 09 2025 11:30:50 GMT-0500 (Central Daylight Time),855969.6999999881,A,letter,O,r,130,1,4866.0,851103.6999999881,7145,WL,C,10.0
7,45.30400013923645,immed,14695.99986076355,Fri May 09 2025 11:30:50 GMT-0500 (Central Daylight Time),856603.6999999881,A,letterenter,O,enter,617,1,5500.0,851103.6999999881,7145,WL,C,10.0
7,45.7039999961853,immed,14296.000003814697,Fri May 09 2025 11:30:50 GMT-0500 (Central Daylight Time),857004.2999999523,A,n,O,n,385,1,400.39999997615814,856603.8999999762,7145,WL,C,11.0
7,45.85300016403198,immed,14146.999835968018,Fri May 09 2025 11:30:50 GMT-0500 (Central Daylight Time),857152.6999999881,A,na,O,a,133,1,548.8000000119209,856603.8999999762,7145,WL,C,11.0
7,46.004000186920166,immed,13995.999813079834,Fri May 09 2025 11:30:50 GMT-0500 (Central Daylight Time),857303.5999999642,A,nai,O,i,140,1,699.6999999880791,856603.8999999762,7145,WL,C,11.0
7,46.28700017929077,immed,13712.999820709229,Fri May 09 2025 11:30:50 GMT-0500 (Central Daylight Time),857587.1999999881,A,nail,O,l,275,1,983.3000000119209,856603.8999999762,7145,WL,C,11.0
7,46.88600015640259,immed,13113.999843597412,Fri May 09 2025 11:30:50 GMT-0500 (Central Daylight Time),858186.1999999881,A,nailenter,O,enter,578,1,1582.300000011921,856603.8999999762,7145,WL,C,11.0
7,47.53700017929077,immed,12462.999820709229,Fri May 09 2025 11:30:50 GMT-0500 (Central Daylight Time),858837.2999999523,A,c,O,c,644,1,650.8999999761581,858186.3999999762,7145,WL,C,12.0
7,47.769999980926514,immed,12230.000019073486,Fri May 09 2025 11:30:50 GMT-0500 (Central Daylight Time),859070.0999999642,A,ca,O,a,212,1,883.6999999880791,858186.3999999762,7145,WL,C,12.0
7,47.96900010108948,immed,12030.999898910522,Fri May 09 2025 11:30:50 GMT-0500 (Central Daylight Time),859268.7999999523,A,cat,O,t,182,1,1082.3999999761581,858186.3999999762,7145,WL,C,12.0
7,48.087000131607056,immed,11912.999868392944,Fri May 09 2025 11:30:50 GMT-0500 (Central Daylight Time),859387.1999999881,A,catt,O,t,110,1,1200.800000011921,858186.3999999762,7145,WL,C,12.0
7,48.28400015830994,immed,11715.999841690063,Fri May 09 2025 11:30:50 GMT-0500 (Central Daylight Time),859583.5,A,cattl,O,l,174,1,1397.1000000238419,858186.3999999762,7145,WL,C,12.0
7,48.44000005722046,immed,11559.999942779541,Fri May 09 2025 11:30:50 GMT-0500 (Central Daylight Time),859739.5999999642,A,cattle,O,e,152,1,1553.199999988079,858186.3999999762,7145,WL,C,12.0
7,48.95300006866455,immed,11046.99993133545,Fri May 09 2025 11:30:50 GMT-0500 (Central Daylight Time),860252.6999999881,A,cattleenter,O,enter,498,1,2066.300000011921,858186.3999999762,7145,WL,C,12.0
7,50.218000173568726,immed,9781.999826431274,Fri May 09 2025 11:30:50 GMT-0500 (Central Daylight Time),861518.2999999523,A,s,O,s,1249,1,1265.2999999523163,860253.0,7145,WL,C,13.0
7,50.337000131607056,immed,9662.999868392944,Fri May 09 2025 11:30:50 GMT-0500 (Central Daylight Time),861636.3999999762,A,sh,O,h,107,1,1383.3999999761581,860253.0,7145,WL,C,13.0
