Number,acc_sum,block,block_c,block_cond,con_img,correct,correct_response,datetime,endtime,jitter,project,response,response_time,row_sel,session_number,start_end,starttime,subject_id,task,task_vers,trial
4,0,prac,1,A,circle.png,0,z,Thu Jan 15 2026 15:07:01 GMT-0600 (Central Standard Time),100449.29999995232,1400,O,None,1513,4,1,3690.2000000476837,96759.09999990463,7744,NTS,C,1
8,1,prac,1,A,circle.png,1,m,Thu Jan 15 2026 15:07:01 GMT-0600 (Central Standard Time),103848.59999990463,1600,O,m,996,7,1,3388.9000000953674,100459.69999980927,7744,NTS,C,2
4,2,prac,1,A,circle.png,1,z,Thu Jan 15 2026 15:07:01 GMT-0600 (Central Standard Time),106716.39999985695,1400,O,z,670,4,1,2859.5999999046326,103856.79999995232,7744,NTS,C,3
7,3,prac,1,A,circle.png,1,m,Thu Jan 15 2026 15:07:01 GMT-0600 (Central Standard Time),109929.69999980927,1700,O,m,728,6,1,3206.199999809265,106723.5,7744,NTS,C,4
2,4,prac,1,A,circle.png,1,z,Thu Jan 15 2026 15:07:01 GMT-0600 (Central Standard Time),113377.0,2000,O,z,660,2,1,3442.0,109935.0,7744,NTS,C,5
9,5,prac,1,A,circle.png,1,m,Thu Jan 15 2026 15:07:01 GMT-0600 (Central Standard Time),116361.79999995232,1500,O,m,696,8,1,2975.5,113386.29999995232,7744,NTS,C,6
6,6,prac,1,A,circle.png,1,m,Thu Jan 15 2026 15:07:01 GMT-0600 (Central Standard Time),120011.19999980927,1900,O,m,952,5,1,3641.5,116369.69999980927,7744,NTS,C,7
7,7,prac,1,A,circle.png,1,m,Thu Jan 15 2026 15:07:01 GMT-0600 (Central Standard Time),123109.59999990463,1700,O,m,609,6,1,3092.9000000953674,120016.69999980927,7744,NTS,C,8
1,8,prac,1,A,circle.png,1,z,Thu Jan 15 2026 15:07:01 GMT-0600 (Central Standard Time),125561.69999980927,1000,O,z,672,1,1,2445.199999809265,123116.5,7744,NTS,C,9
9,9,prac,1,A,circle.png,1,m,Thu Jan 15 2026 15:07:01 GMT-0600 (Central Standard Time),128476.09999990463,1500,O,m,636,8,1,2908.7999999523163,125567.29999995232,7744,NTS,C,10
2,10,prac,1,A,circle.png,1,z,Thu Jan 15 2026 15:07:01 GMT-0600 (Central Standard Time),132441.5,2000,O,z,1173,2,1,3958.4000000953674,128483.09999990463,7744,NTS,C,11
3,11,prac,1,A,circle.png,1,z,Thu Jan 15 2026 15:07:01 GMT-0600 (Central Standard Time),135188.09999990463,1200,O,z,767,3,1,2741.5999999046326,132446.5,7744,NTS,C,12
8,0,prac,1,B,triangle.png,0,m,Thu Jan 15 2026 15:07:01 GMT-0600 (Central Standard Time),187554.79999995232,1200,O,None,1501,7,1,3476.100000143051,184078.69999980927,7744,NTS,C,1
6,1,prac,1,B,triangle.png,1,m,Thu Jan 15 2026 15:07:01 GMT-0600 (Central Standard Time),190676.19999980927,1000,O,m,1340,5,1,3110.2999999523163,187565.89999985695,7744,NTS,C,2
1,2,prac,1,B,triangle.png,1,z,Thu Jan 15 2026 15:07:01 GMT-0600 (Central Standard Time),194220.0,1900,O,z,852,1,1,3538.800000190735,190681.19999980927,7744,NTS,C,3
7,3,prac,1,B,triangle.png,1,z,Thu Jan 15 2026 15:07:01 GMT-0600 (Central Standard Time),198018.0,2000,O,z,1003,6,1,3791.4000000953674,194226.59999990463,7744,NTS,C,4
4,4,prac,1,B,triangle.png,1,m,Thu Jan 15 2026 15:07:01 GMT-0600 (Central Standard Time),201284.89999985695,1500,O,m,977,4,1,3262.7000000476837,198022.19999980927,7744,NTS,C,5
9,5,prac,1,B,triangle.png,1,z,Thu Jan 15 2026 15:07:01 GMT-0600 (Central Standard Time),204465.89999985695,1400,O,z,987,8,1,3175.2999999523163,201290.59999990463,7744,NTS,C,6
1,6,prac,1,B,triangle.png,1,z,Thu Jan 15 2026 15:07:01 GMT-0600 (Central Standard Time),207864.29999995232,1900,O,z,704,1,1,3389.4000000953674,204474.89999985695,7744,NTS,C,7
3,7,prac,1,B,triangle.png,1,z,Thu Jan 15 2026 15:07:01 GMT-0600 (Central Standard Time),210899.0,1600,O,z,662,3,1,3029.2000000476837,207869.79999995232,7744,NTS,C,8
2,8,prac,1,B,triangle.png,1,m,Thu Jan 15 2026 15:07:01 GMT-0600 (Central Standard Time),214363.5,1700,O,m,970,2,1,3459.9000000953674,210903.59999990463,7744,NTS,C,9
3,9,prac,1,B,triangle.png,1,z,Thu Jan 15 2026 15:07:01 GMT-0600 (Central Standard Time),217462.79999995232,1600,O,z,716,3,1,3092.7000000476837,214370.09999990463,7744,NTS,C,10
8,10,prac,1,B,triangle.png,1,m,Thu Jan 15 2026 15:07:01 GMT-0600 (Central Standard Time),220228.59999990463,1200,O,m,767,7,1,2760.7999999523163,217467.79999995232,7744,NTS,C,11
4,11,prac,1,B,triangle.png,1,m,Thu Jan 15 2026 15:07:01 GMT-0600 (Central Standard Time),223576.79999995232,1500,O,m,1056,4,1,3341.0,220235.79999995232,7744,NTS,C,12
1,1,test,1,A,circle.png,1,z,Thu Jan 15 2026 15:07:01 GMT-0600 (Central Standard Time),253401.09999990463,1000,O,z,656,1,1,1677.2000000476837,251723.89999985695,7744,NTS,C,1
4,2,test,1,A,circle.png,1,z,Thu Jan 15 2026 15:07:01 GMT-0600 (Central Standard Time),255466.29999995232,1400,O,z,638,4,1,2061.100000143051,253405.19999980927,7744,NTS,C,2
1,3,test,1,A,circle.png,1,z,Thu Jan 15 2026 15:07:01 GMT-0600 (Central Standard Time),257099.69999980927,1000,O,z,610,1,1,1629.1999998092651,255470.5,7744,NTS,C,3
8,4,test,1,A,circle.png,1,m,Thu Jan 15 2026 15:07:01 GMT-0600 (Central Standard Time),259282.09999990463,1600,O,m,553,7,1,2179.7000000476837,257102.39999985695,7744,NTS,C,4
2,5,test,1,A,circle.png,1,z,Thu Jan 15 2026 15:07:01 GMT-0600 (Central Standard Time),262131.0,2000,O,z,817,2,1,2844.5,259286.5,7744,NTS,C,5
4,6,test,1,A,circle.png,1,z,Thu Jan 15 2026 15:07:01 GMT-0600 (Central Standard Time),264514.0,1400,O,z,963,4,1,2379.2000000476837,262134.79999995232,7744,NTS,C,6
7,7,test,1,A,circle.png,1,m,Thu Jan 15 2026 15:07:01 GMT-0600 (Central Standard Time),266946.39999985695,1700,O,m,712,6,1,2429.5,264516.89999985695,7744,NTS,C,7
3,8,test,1,A,circle.png,1,z,Thu Jan 15 2026 15:07:01 GMT-0600 (Central Standard Time),268746.59999990463,1200,O,z,582,3,1,1795.4000000953674,266951.19999980927,7744,NTS,C,8
7,9,test,1,A,circle.png,1,m,Thu Jan 15 2026 15:07:01 GMT-0600 (Central Standard Time),271161.5,1700,O,m,688,6,1,2410.800000190735,268750.69999980927,7744,NTS,C,9
4,10,test,1,A,circle.png,1,z,Thu Jan 15 2026 15:07:01 GMT-0600 (Central Standard Time),273299.09999990463,1400,O,z,716,4,1,2134.2000000476837,271164.89999985695,7744,NTS,C,10
6,11,test,1,A,circle.png,1,m,Thu Jan 15 2026 15:07:01 GMT-0600 (Central Standard Time),275910.39999985695,1900,O,m,684,5,1,2608.7000000476837,273301.69999980927,7744,NTS,C,11
3,12,test,1,A,circle.png,1,z,Thu Jan 15 2026 15:07:01 GMT-0600 (Central Standard Time),277746.09999990463,1200,O,z,619,3,1,1833.2999999523163,275912.7999999523,7744,NTS,C,12
3,13,test,1,A,circle.png,1,z,Thu Jan 15 2026 15:07:01 GMT-0600 (Central Standard Time),279577.39999985695,1200,O,z,606,3,1,1827.3999998569489,277750.0,7744,NTS,C,13
8,14,test,1,A,circle.png,1,m,Thu Jan 15 2026 15:07:01 GMT-0600 (Central Standard Time),281841.2999999523,1600,O,m,639,7,1,2259.100000143051,279582.19999980927,7744,NTS,C,14
1,15,test,1,A,circle.png,1,z,Thu Jan 15 2026 15:07:01 GMT-0600 (Central Standard Time),283473.69999980927,1000,O,z,604,1,1,1628.2999999523163,281845.39999985695,7744,NTS,C,15
8,16,test,1,A,circle.png,1,m,Thu Jan 15 2026 15:07:01 GMT-0600 (Central Standard Time),285807.89999985695,1600,O,m,708,7,1,2331.0,283476.89999985695,7744,NTS,C,16
9,17,test,1,A,circle.png,1,m,Thu Jan 15 2026 15:07:01 GMT-0600 (Central Standard Time),288073.0,1500,O,m,739,8,1,2262.5,285810.5,7744,NTS,C,17
9,18,test,1,A,circle.png,1,m,Thu Jan 15 2026 15:07:01 GMT-0600 (Central Standard Time),290224.19999980927,1500,O,m,632,8,1,2145.199999809265,288079.0,7744,NTS,C,18
8,19,test,1,A,circle.png,1,m,Thu Jan 15 2026 15:07:01 GMT-0600 (Central Standard Time),292604.19999980927,1600,O,m,758,7,1,2375.2999999523163,290228.89999985695,7744,NTS,C,19
9,20,test,1,A,circle.png,1,m,Thu Jan 15 2026 15:07:01 GMT-0600 (Central Standard Time),294687.5,1500,O,m,560,8,1,2075.5,292612.0,7744,NTS,C,20
2,21,test,1,A,circle.png,1,z,Thu Jan 15 2026 15:07:01 GMT-0600 (Central Standard Time),297287.7999999523,2000,O,z,568,2,1,2596.0,294691.7999999523,7744,NTS,C,21
1,22,test,1,A,circle.png,1,z,Thu Jan 15 2026 15:07:01 GMT-0600 (Central Standard Time),298919.2999999523,1000,O,z,600,1,1,1624.1000001430511,297295.19999980927,7744,NTS,C,22
6,23,test,1,A,circle.png,1,m,Thu Jan 15 2026 15:07:01 GMT-0600 (Central Standard Time),301535.59999990463,1900,O,m,682,5,1,2607.7000000476837,298927.89999985695,7744,NTS,C,23
6,24,test,1,A,circle.png,1,m,Thu Jan 15 2026 15:07:01 GMT-0600 (Central Standard Time),304153.0,1900,O,m,699,5,1,2612.600000143051,301540.39999985695,7744,NTS,C,24
4,1,test,1,B,triangle.png,1,m,Thu Jan 15 2026 15:07:01 GMT-0600 (Central Standard Time),320914.7999999523,1500,O,m,1440,4,1,2965.2999999523163,317949.5,7744,NTS,C,1
6,2,test,1,B,triangle.png,1,m,Thu Jan 15 2026 15:07:01 GMT-0600 (Central Standard Time),323295.39999985695,1500,O,m,850,13,1,2377.899999856949,320917.5,7744,NTS,C,2
3,3,test,1,B,triangle.png,1,z,Thu Jan 15 2026 15:07:01 GMT-0600 (Central Standard Time),325811.09999990463,1600,O,z,886,3,1,2511.7000000476837,323299.39999985695,7744,NTS,C,3
9,4,test,1,B,triangle.png,1,z,Thu Jan 15 2026 15:07:01 GMT-0600 (Central Standard Time),329027.69999980927,1900,O,z,1287,16,1,3214.0,325813.69999980927,7744,NTS,C,4
1,5,test,1,B,triangle.png,1,z,Thu Jan 15 2026 15:07:01 GMT-0600 (Central Standard Time),331592.5,1900,O,z,640,1,1,2561.0,329031.5,7744,NTS,C,5
8,6,test,1,B,triangle.png,1,m,Thu Jan 15 2026 15:07:01 GMT-0600 (Central Standard Time),334007.09999990463,1700,O,m,694,15,1,2412.0999999046326,331595.0,7744,NTS,C,6
1,7,test,1,B,triangle.png,1,z,Thu Jan 15 2026 15:07:01 GMT-0600 (Central Standard Time),336091.19999980927,1400,O,z,653,9,1,2081.399999856949,334009.7999999523,7744,NTS,C,7
3,8,test,1,B,triangle.png,1,z,Thu Jan 15 2026 15:07:01 GMT-0600 (Central Standard Time),338357.59999990463,1600,O,z,644,3,1,2261.7999999523163,336095.7999999523,7744,NTS,C,8
8,9,test,1,B,triangle.png,1,m,Thu Jan 15 2026 15:07:01 GMT-0600 (Central Standard Time),340273.7999999523,1200,O,m,690,7,1,1913.6000001430511,338360.19999980927,7744,NTS,C,9
4,10,test,1,B,triangle.png,1,m,Thu Jan 15 2026 15:07:01 GMT-0600 (Central Standard Time),342572.2999999523,1500,O,m,766,4,1,2294.9000000953674,340277.39999985695,7744,NTS,C,10
6,11,test,1,B,triangle.png,1,m,Thu Jan 15 2026 15:07:01 GMT-0600 (Central Standard Time),344321.39999985695,1000,O,m,722,5,1,1743.5999999046326,342577.7999999523,7744,NTS,C,11
6,12,test,1,B,triangle.png,1,m,Thu Jan 15 2026 15:07:01 GMT-0600 (Central Standard Time),346538.09999990463,1500,O,m,688,13,1,2213.5999999046326,344324.5,7744,NTS,C,12
9,13,test,1,B,triangle.png,1,z,Thu Jan 15 2026 15:07:01 GMT-0600 (Central Standard Time),349488.39999985695,1900,O,z,1035,16,1,2946.7000000476837,346541.69999980927,7744,NTS,C,13
2,14,test,1,B,triangle.png,1,m,Thu Jan 15 2026 15:07:01 GMT-0600 (Central Standard Time),352168.7999999523,1700,O,m,956,2,1,2676.600000143051,349492.19999980927,7744,NTS,C,14
2,15,test,1,B,triangle.png,1,m,Thu Jan 15 2026 15:07:01 GMT-0600 (Central Standard Time),355001.59999990463,1700,O,m,1114,2,1,2828.5,352173.09999990463,7744,NTS,C,15
2,16,test,1,B,triangle.png,1,m,Thu Jan 15 2026 15:07:01 GMT-0600 (Central Standard Time),356951.2999999523,1200,O,m,723,10,1,1946.0,355005.2999999523,7744,NTS,C,16
1,17,test,1,B,triangle.png,1,z,Thu Jan 15 2026 15:07:01 GMT-0600 (Central Standard Time),359517.69999980927,1900,O,z,643,1,1,2563.7999999523163,356953.89999985695,7744,NTS,C,17
3,18,test,1,B,triangle.png,1,z,Thu Jan 15 2026 15:07:01 GMT-0600 (Central Standard Time),362299.2999999523,2000,O,z,761,11,1,2778.5,359520.7999999523,7744,NTS,C,18
2,19,test,1,B,triangle.png,1,m,Thu Jan 15 2026 15:07:01 GMT-0600 (Central Standard Time),364431.09999990463,1200,O,m,914,10,1,2127.4000000953674,362303.69999980927,7744,NTS,C,19
7,20,test,1,B,triangle.png,1,z,Thu Jan 15 2026 15:07:01 GMT-0600 (Central Standard Time),366980.89999985695,1600,O,z,918,14,1,2547.2999999523163,364433.59999990463,7744,NTS,C,20
4,21,test,1,B,triangle.png,1,m,Thu Jan 15 2026 15:07:01 GMT-0600 (Central Standard Time),368648.69999980927,1000,O,m,641,12,1,1664.3999998569489,366984.2999999523,7744,NTS,C,21
8,22,test,1,B,triangle.png,1,m,Thu Jan 15 2026 15:07:01 GMT-0600 (Central Standard Time),371029.89999985695,1700,O,m,651,15,1,2377.2000000476837,368652.69999980927,7744,NTS,C,22
7,23,test,1,B,triangle.png,1,z,Thu Jan 15 2026 15:07:01 GMT-0600 (Central Standard Time),373729.09999990463,2000,O,z,671,6,1,2695.9000000953674,371033.19999980927,7744,NTS,C,23
9,23,test,1,B,triangle.png,0,z,Thu Jan 15 2026 15:07:01 GMT-0600 (Central Standard Time),375746.89999985695,1400,O,m,598,8,1,2015.0999999046326,373731.7999999523,7744,NTS,C,24
1,1,prac,1,C,circle.png,1,z,Thu Jan 15 2026 15:07:01 GMT-0600 (Central Standard Time),465432.59999990463,1700,O,z,1246,1,1,3721.0,461711.59999990463,7744,NTS,C,1
4,1,prac,1,C,circle.png,0,z,Thu Jan 15 2026 15:07:01 GMT-0600 (Central Standard Time),468182.89999985695,1000,O,m,973,4,1,2742.7000000476837,465440.19999980927,7744,NTS,C,2
8,1,prac,1,C,triangle.png,0,m,Thu Jan 15 2026 15:07:01 GMT-0600 (Central Standard Time),471882.19999980927,1400,O,None,1517,7,1,3695.0,468187.19999980927,7744,NTS,C,3
2,1,prac,1,C,triangle.png,0,m,Thu Jan 15 2026 15:07:01 GMT-0600 (Central Standard Time),475780.09999990463,1600,O,None,1518,2,1,3891.9000000953674,471888.19999980927,7744,NTS,C,4
4,1,prac,1,C,circle.png,0,z,Thu Jan 15 2026 15:07:01 GMT-0600 (Central Standard Time),479062.59999990463,1000,O,None,1502,4,1,3278.9000000953674,475783.69999980927,7744,NTS,C,5
9,1,prac,1,C,circle.png,0,m,Thu Jan 15 2026 15:07:01 GMT-0600 (Central Standard Time),483243.59999990463,1900,O,None,1501,8,1,4176.299999952316,479067.2999999523,7744,NTS,C,6
9,1,prac,1,C,circle.png,0,m,Thu Jan 15 2026 15:07:01 GMT-0600 (Central Standard Time),487277.39999985695,1900,O,z,1363,8,1,4030.0,483247.39999985695,7744,NTS,C,7
7,1,prac,1,C,triangle.png,0,z,Thu Jan 15 2026 15:07:01 GMT-0600 (Central Standard Time),490775.69999980927,1200,O,None,1518,6,1,3490.5,487285.19999980927,7744,NTS,C,8
2,2,prac,1,C,triangle.png,1,m,Thu Jan 15 2026 15:07:01 GMT-0600 (Central Standard Time),494026.89999985695,1600,O,m,872,2,1,3247.2999999523163,490779.59999990463,7744,NTS,C,9
8,3,prac,1,C,triangle.png,1,m,Thu Jan 15 2026 15:07:01 GMT-0600 (Central Standard Time),497056.2999999523,1400,O,m,838,7,1,3024.2999999523163,494032.0,7744,NTS,C,10
3,4,prac,1,C,triangle.png,1,z,Thu Jan 15 2026 15:07:01 GMT-0600 (Central Standard Time),500305.7999999523,1500,O,z,962,3,1,3245.4000000953674,497060.39999985695,7744,NTS,C,11
6,5,prac,1,C,circle.png,1,m,Thu Jan 15 2026 15:07:01 GMT-0600 (Central Standard Time),504155.09999990463,2000,O,m,1078,5,1,3844.5999999046326,500310.5,7744,NTS,C,12
1,1,prac,2,C,circle.png,1,z,Thu Jan 15 2026 15:07:01 GMT-0600 (Central Standard Time),528846.899999857,1700,O,z,1266,1,1,3744.899999856949,525102.0,7744,NTS,C,1
9,2,prac,2,C,circle.png,1,m,Thu Jan 15 2026 15:07:01 GMT-0600 (Central Standard Time),532762.899999857,1900,O,m,1230,8,1,3906.399999856949,528856.5,7744,NTS,C,2
8,2,prac,2,C,triangle.png,0,m,Thu Jan 15 2026 15:07:01 GMT-0600 (Central Standard Time),536461.7999999523,1400,O,None,1513,7,1,3694.2000000476837,532767.5999999046,7744,NTS,C,3
3,3,prac,2,C,triangle.png,1,z,Thu Jan 15 2026 15:07:01 GMT-0600 (Central Standard Time),539663.5,1500,O,z,919,3,1,3193.0,536470.5,7744,NTS,C,4
1,4,prac,2,C,circle.png,1,z,Thu Jan 15 2026 15:07:01 GMT-0600 (Central Standard Time),543392.5,1700,O,z,1239,1,1,3722.7000000476837,539669.7999999523,7744,NTS,C,5
3,4,prac,2,C,triangle.png,0,z,Thu Jan 15 2026 15:07:01 GMT-0600 (Central Standard Time),547190.6999998093,1500,O,None,1515,3,1,3790.0,543400.6999998093,7744,NTS,C,6
6,5,prac,2,C,circle.png,1,m,Thu Jan 15 2026 15:07:01 GMT-0600 (Central Standard Time),550757.0,2000,O,m,768,5,1,3558.7000000476837,547198.2999999523,7744,NTS,C,7
7,6,prac,2,C,triangle.png,1,z,Thu Jan 15 2026 15:07:01 GMT-0600 (Central Standard Time),554021.6999998093,1200,O,z,1271,6,1,3257.0999999046326,550764.5999999046,7744,NTS,C,8
7,7,prac,2,C,triangle.png,1,z,Thu Jan 15 2026 15:07:01 GMT-0600 (Central Standard Time),557089.5999999046,1200,O,z,1089,6,1,3056.5999999046326,554033.0,7744,NTS,C,9
8,8,prac,2,C,triangle.png,1,m,Thu Jan 15 2026 15:07:01 GMT-0600 (Central Standard Time),560420.2999999523,1400,O,m,1134,7,1,3322.7000000476837,557097.5999999046,7744,NTS,C,10
2,8,prac,2,C,triangle.png,0,m,Thu Jan 15 2026 15:07:01 GMT-0600 (Central Standard Time),564289.7999999523,1600,O,None,1501,2,1,3861.7000000476837,560428.0999999046,7744,NTS,C,11
4,8,prac,2,C,circle.png,0,z,Thu Jan 15 2026 15:07:01 GMT-0600 (Central Standard Time),567584.5999999046,1000,O,None,1518,4,1,3288.7000000476837,564295.899999857,7744,NTS,C,12
3,0,test,1,C,triangle.png,0,z,Thu Jan 15 2026 15:07:01 GMT-0600 (Central Standard Time),594891.899999857,1200,O,m,1310,3,1,2528.2999999523163,592363.5999999046,7744,NTS,C,1
7,0,test,1,C,circle.png,0,m,Thu Jan 15 2026 15:07:01 GMT-0600 (Central Standard Time),598424.7999999523,2000,O,None,1516,14,1,3529.5,594895.2999999523,7744,NTS,C,2
7,0,test,1,C,triangle.png,0,z,Thu Jan 15 2026 15:07:01 GMT-0600 (Central Standard Time),601607.0,1700,O,m,1464,22,1,3178.100000143051,598428.899999857,7744,NTS,C,3
3,1,test,1,C,circle.png,1,z,Thu Jan 15 2026 15:07:01 GMT-0600 (Central Standard Time),604571.7999999523,1600,O,z,1344,19,1,2961.5,601610.2999999523,7744,NTS,C,4
2,1,test,1,C,triangle.png,0,m,Thu Jan 15 2026 15:07:01 GMT-0600 (Central Standard Time),608104.0999999046,2000,O,None,1516,2,1,3529.7000000476837,604574.399999857,7744,NTS,C,5
7,2,test,1,C,triangle.png,1,z,Thu Jan 15 2026 15:07:01 GMT-0600 (Central Standard Time),611103.399999857,1700,O,z,1265,6,1,2995.399999856949,608108.0,7744,NTS,C,6
3,3,test,1,C,circle.png,1,z,Thu Jan 15 2026 15:07:01 GMT-0600 (Central Standard Time),613886.0,1600,O,z,1160,11,1,2777.600000143051,611108.399999857,7744,NTS,C,7
9,3,test,1,C,triangle.png,0,z,Thu Jan 15 2026 15:07:01 GMT-0600 (Central Standard Time),616684.399999857,1400,O,m,1377,16,1,2794.2999999523163,613890.0999999046,7744,NTS,C,8
2,4,test,1,C,circle.png,1,z,Thu Jan 15 2026 15:07:01 GMT-0600 (Central Standard Time),619617.2999999523,1700,O,z,1214,18,1,2929.7000000476837,616687.5999999046,7744,NTS,C,9
9,4,test,1,C,circle.png,0,m,Thu Jan 15 2026 15:07:01 GMT-0600 (Central Standard Time),622650.1999998093,1500,O,None,1514,24,1,3030.5,619619.6999998093,7744,NTS,C,10
9,4,test,1,C,circle.png,0,m,Thu Jan 15 2026 15:07:01 GMT-0600 (Central Standard Time),624818.7999999523,1500,O,z,651,8,1,2164.7000000476837,622654.0999999046,7744,NTS,C,11
8,5,test,1,C,circle.png,1,m,Thu Jan 15 2026 15:07:01 GMT-0600 (Central Standard Time),627233.5999999046,1200,O,m,1184,15,1,2409.0999999046326,624824.5,7744,NTS,C,12
1,5,test,1,C,triangle.png,0,z,Thu Jan 15 2026 15:07:01 GMT-0600 (Central Standard Time),630649.2999999523,1900,O,None,1501,9,1,3411.4000000953674,627237.899999857,7744,NTS,C,13
6,6,test,1,C,triangle.png,1,m,Thu Jan 15 2026 15:07:01 GMT-0600 (Central Standard Time),632881.0,1000,O,m,1202,13,1,2227.300000190735,630653.6999998093,7744,NTS,C,14
1,7,test,1,C,triangle.png,1,z,Thu Jan 15 2026 15:07:01 GMT-0600 (Central Standard Time),635895.1999998093,1900,O,z,1082,17,1,3007.699999809265,632887.5,7744,NTS,C,15
2,8,test,1,C,circle.png,1,z,Thu Jan 15 2026 15:07:01 GMT-0600 (Central Standard Time),638761.5,1700,O,z,1147,10,1,2863.600000143051,635897.899999857,7744,NTS,C,16
6,9,test,1,C,circle.png,1,m,Thu Jan 15 2026 15:07:01 GMT-0600 (Central Standard Time),641495.1999998093,1900,O,m,799,5,1,2731.0,638764.1999998093,7744,NTS,C,17
4,10,test,1,C,circle.png,1,z,Thu Jan 15 2026 15:07:01 GMT-0600 (Central Standard Time),643677.0999999046,1400,O,z,760,4,1,2177.5,641499.5999999046,7744,NTS,C,18
1,11,test,1,C,circle.png,1,z,Thu Jan 15 2026 15:07:01 GMT-0600 (Central Standard Time),645659.1999998093,1000,O,z,964,1,1,1979.0,643680.1999998093,7744,NTS,C,19
6,12,test,1,C,circle.png,1,m,Thu Jan 15 2026 15:07:01 GMT-0600 (Central Standard Time),648540.6999998093,1900,O,m,958,21,1,2877.5999999046326,645663.0999999046,7744,NTS,C,20
8,13,test,1,C,triangle.png,1,m,Thu Jan 15 2026 15:07:01 GMT-0600 (Central Standard Time),651344.0999999046,1600,O,m,1168,23,1,2800.7000000476837,648543.399999857,7744,NTS,C,21
8,14,test,1,C,triangle.png,1,m,Thu Jan 15 2026 15:07:01 GMT-0600 (Central Standard Time),653625.0,1600,O,m,656,7,1,2276.4000000953674,651348.5999999046,7744,NTS,C,22
4,15,test,1,C,triangle.png,1,m,Thu Jan 15 2026 15:07:01 GMT-0600 (Central Standard Time),656005.5,1500,O,m,851,20,1,2375.5,653630.0,7744,NTS,C,23
4,16,test,1,C,triangle.png,1,m,Thu Jan 15 2026 15:07:01 GMT-0600 (Central Standard Time),658288.5,1500,O,m,756,12,1,2276.7000000476837,656011.7999999523,7744,NTS,C,24
9,1,test,2,C,circle.png,1,m,Thu Jan 15 2026 15:07:01 GMT-0600 (Central Standard Time),683297.899999857,1500,O,m,1238,8,1,2761.2000000476837,680536.6999998093,7744,NTS,C,1
6,1,test,2,C,triangle.png,0,m,Thu Jan 15 2026 15:07:01 GMT-0600 (Central Standard Time),685829.1999998093,1000,O,None,1515,13,1,2526.5999999046326,683302.5999999046,7744,NTS,C,2
8,2,test,2,C,triangle.png,1,m,Thu Jan 15 2026 15:07:01 GMT-0600 (Central Standard Time),687996.0,1600,O,m,546,7,1,2161.800000190735,685834.1999998093,7744,NTS,C,3
8,3,test,2,C,circle.png,1,m,Thu Jan 15 2026 15:07:01 GMT-0600 (Central Standard Time),690061.5999999046,1200,O,m,842,23,1,2061.7000000476837,687999.899999857,7744,NTS,C,4
8,4,test,2,C,circle.png,1,m,Thu Jan 15 2026 15:07:01 GMT-0600 (Central Standard Time),691861.2999999523,1200,O,m,568,15,1,1795.7999999523163,690065.5,7744,NTS,C,5
6,5,test,2,C,circle.png,1,m,Thu Jan 15 2026 15:07:01 GMT-0600 (Central Standard Time),694993.2999999523,1900,O,m,1205,5,1,3129.2999999523163,691864.0,7744,NTS,C,6
9,5,test,2,C,triangle.png,0,z,Thu Jan 15 2026 15:07:01 GMT-0600 (Central Standard Time),697595.5,1400,O,m,1174,24,1,2598.300000190735,694997.1999998093,7744,NTS,C,7
1,6,test,2,C,triangle.png,1,z,Thu Jan 15 2026 15:07:01 GMT-0600 (Central Standard Time),700457.5,1900,O,z,938,17,1,2858.5,697599.0,7744,NTS,C,8
6,7,test,2,C,triangle.png,1,m,Thu Jan 15 2026 15:07:01 GMT-0600 (Central Standard Time),702358.399999857,1000,O,m,874,21,1,1896.3999998569489,700462.0,7744,NTS,C,9
7,7,test,2,C,circle.png,0,m,Thu Jan 15 2026 15:07:01 GMT-0600 (Central Standard Time),705240.7999999523,2000,O,z,855,22,1,2879.7000000476837,702361.0999999046,7744,NTS,C,10
4,8,test,2,C,circle.png,1,z,Thu Jan 15 2026 15:07:01 GMT-0600 (Central Standard Time),707807.0999999046,1400,O,z,1135,4,1,2563.2999999523163,705243.7999999523,7744,NTS,C,11
9,8,test,2,C,triangle.png,0,z,Thu Jan 15 2026 15:07:01 GMT-0600 (Central Standard Time),710321.5999999046,1400,O,m,1089,16,1,2509.9000000953674,707811.6999998093,7744,NTS,C,12
4,8,test,2,C,triangle.png,0,m,Thu Jan 15 2026 15:07:01 GMT-0600 (Central Standard Time),713354.6999998093,1500,O,None,1516,20,1,3028.5,710326.1999998093,7744,NTS,C,13
3,8,test,2,C,triangle.png,0,z,Thu Jan 15 2026 15:07:01 GMT-0600 (Central Standard Time),716070.7999999523,1200,O,None,1501,3,1,2711.600000143051,713359.1999998093,7744,NTS,C,14
2,9,test,2,C,circle.png,1,z,Thu Jan 15 2026 15:07:01 GMT-0600 (Central Standard Time),718402.6999998093,1700,O,z,605,18,1,2329.199999809265,716073.5,7744,NTS,C,15
4,10,test,2,C,triangle.png,1,m,Thu Jan 15 2026 15:07:01 GMT-0600 (Central Standard Time),720915.0999999046,1500,O,m,984,12,1,2508.0999999046326,718407.0,7744,NTS,C,16
1,10,test,2,C,triangle.png,0,z,Thu Jan 15 2026 15:07:01 GMT-0600 (Central Standard Time),724333.399999857,1900,O,None,1513,9,1,3415.7000000476837,720917.6999998093,7744,NTS,C,17
1,11,test,2,C,circle.png,1,z,Thu Jan 15 2026 15:07:01 GMT-0600 (Central Standard Time),726050.2999999523,1000,O,z,696,1,1,1714.0,724336.2999999523,7744,NTS,C,18
7,12,test,2,C,circle.png,1,m,Thu Jan 15 2026 15:07:01 GMT-0600 (Central Standard Time),729015.5999999046,2000,O,m,948,14,1,2962.5,726053.0999999046,7744,NTS,C,19
7,12,test,2,C,triangle.png,0,z,Thu Jan 15 2026 15:07:01 GMT-0600 (Central Standard Time),732048.2999999523,1700,O,m,1306,6,1,3029.7999999523163,729018.5,7744,NTS,C,20
3,13,test,2,C,circle.png,1,z,Thu Jan 15 2026 15:07:01 GMT-0600 (Central Standard Time),734730.7999999523,1600,O,z,1061,19,1,2679.5,732051.2999999523,7744,NTS,C,21
2,14,test,2,C,circle.png,1,z,Thu Jan 15 2026 15:07:01 GMT-0600 (Central Standard Time),737213.0999999046,1700,O,z,751,10,1,2477.9000000953674,734735.1999998093,7744,NTS,C,22
2,15,test,2,C,triangle.png,1,m,Thu Jan 15 2026 15:07:01 GMT-0600 (Central Standard Time),740496.5999999046,2000,O,m,1251,2,1,3278.5,737218.0999999046,7744,NTS,C,23
3,16,test,2,C,circle.png,1,z,Thu Jan 15 2026 15:07:01 GMT-0600 (Central Standard Time),742894.0999999046,1600,O,z,767,11,1,2392.9000000953674,740501.1999998093,7744,NTS,C,24
7,1,test,3,C,circle.png,1,m,Thu Jan 15 2026 15:07:01 GMT-0600 (Central Standard Time),757107.399999857,2000,O,m,1063,14,1,3079.0999999046326,754028.2999999523,7744,NTS,C,1
8,1,test,3,C,triangle.png,0,m,Thu Jan 15 2026 15:07:01 GMT-0600 (Central Standard Time),760240.5,1600,O,None,1515,23,1,3128.5,757112.0,7744,NTS,C,2
9,2,test,3,C,circle.png,1,m,Thu Jan 15 2026 15:07:01 GMT-0600 (Central Standard Time),763256.1999998093,1500,O,m,1483,8,1,3010.899999856949,760245.2999999523,7744,NTS,C,3
1,2,test,3,C,triangle.png,0,z,Thu Jan 15 2026 15:07:01 GMT-0600 (Central Standard Time),766688.2999999523,1900,O,None,1517,9,1,3425.100000143051,763263.1999998093,7744,NTS,C,4
2,3,test,3,C,triangle.png,1,m,Thu Jan 15 2026 15:07:01 GMT-0600 (Central Standard Time),769670.0999999046,2000,O,m,957,2,1,2978.2999999523163,766691.7999999523,7744,NTS,C,5
4,4,test,3,C,circle.png,1,z,Thu Jan 15 2026 15:07:01 GMT-0600 (Central Standard Time),772302.5,1400,O,z,1209,4,1,2628.600000143051,769673.899999857,7744,NTS,C,6
1,5,test,3,C,circle.png,1,z,Thu Jan 15 2026 15:07:01 GMT-0600 (Central Standard Time),773852.399999857,1000,O,z,529,1,1,1545.0,772307.399999857,7744,NTS,C,7
2,6,test,3,C,triangle.png,1,m,Thu Jan 15 2026 15:07:01 GMT-0600 (Central Standard Time),776934.0999999046,2000,O,m,1051,18,1,3075.9000000953674,773858.1999998093,7744,NTS,C,8
2,7,test,3,C,circle.png,1,z,Thu Jan 15 2026 15:07:01 GMT-0600 (Central Standard Time),779516.2999999523,1700,O,z,852,10,1,2575.600000143051,776940.6999998093,7744,NTS,C,9
7,8,test,3,C,triangle.png,1,z,Thu Jan 15 2026 15:07:01 GMT-0600 (Central Standard Time),782264.899999857,1700,O,z,1031,6,1,2742.7999999523163,779522.0999999046,7744,NTS,C,10
8,9,test,3,C,triangle.png,1,m,Thu Jan 15 2026 15:07:01 GMT-0600 (Central Standard Time),785081.899999857,1600,O,m,1194,7,1,2812.0999999046326,782269.7999999523,7744,NTS,C,11
7,10,test,3,C,triangle.png,1,z,Thu Jan 15 2026 15:07:01 GMT-0600 (Central Standard Time),788081.2999999523,1700,O,z,1283,22,1,2995.100000143051,785086.1999998093,7744,NTS,C,12
3,11,test,3,C,circle.png,1,z,Thu Jan 15 2026 15:07:01 GMT-0600 (Central Standard Time),790495.899999857,1600,O,z,795,11,1,2408.5999999046326,788087.2999999523,7744,NTS,C,13
3,12,test,3,C,triangle.png,1,z,Thu Jan 15 2026 15:07:01 GMT-0600 (Central Standard Time),792661.5999999046,1200,O,z,941,19,1,2160.0999999046326,790501.5,7744,NTS,C,14
4,13,test,3,C,circle.png,1,z,Thu Jan 15 2026 15:07:01 GMT-0600 (Central Standard Time),795244.6999998093,1400,O,z,1152,20,1,2579.2999999523163,792665.399999857,7744,NTS,C,15
9,14,test,3,C,triangle.png,1,z,Thu Jan 15 2026 15:07:01 GMT-0600 (Central Standard Time),797843.5,1400,O,z,1176,16,1,2595.100000143051,795248.399999857,7744,NTS,C,16
3,15,test,3,C,triangle.png,1,z,Thu Jan 15 2026 15:07:01 GMT-0600 (Central Standard Time),800543.7999999523,1200,O,z,1466,3,1,2694.0,797849.7999999523,7744,NTS,C,17
8,16,test,3,C,circle.png,1,m,Thu Jan 15 2026 15:07:01 GMT-0600 (Central Standard Time),803126.0,1200,O,m,1348,15,1,2577.0,800549.0,7744,NTS,C,18
4,17,test,3,C,triangle.png,1,m,Thu Jan 15 2026 15:07:01 GMT-0600 (Central Standard Time),805940.6999998093,1500,O,m,1283,12,1,2810.0999999046326,803130.5999999046,7744,NTS,C,19
6,18,test,3,C,circle.png,1,m,Thu Jan 15 2026 15:07:01 GMT-0600 (Central Standard Time),808807.399999857,1900,O,m,940,21,1,2862.5,805944.899999857,7744,NTS,C,20
6,19,test,3,C,triangle.png,1,m,Thu Jan 15 2026 15:07:01 GMT-0600 (Central Standard Time),810406.5,1000,O,m,575,13,1,1595.6000001430511,808810.899999857,7744,NTS,C,21
6,20,test,3,C,circle.png,1,m,Thu Jan 15 2026 15:07:01 GMT-0600 (Central Standard Time),813439.1999998093,1900,O,m,1116,5,1,3026.5999999046326,810412.5999999046,7744,NTS,C,22
9,20,test,3,C,circle.png,0,m,Thu Jan 15 2026 15:07:01 GMT-0600 (Central Standard Time),816071.5,1500,O,z,1106,24,1,2629.2000000476837,813442.2999999523,7744,NTS,C,23
1,21,test,3,C,circle.png,1,z,Thu Jan 15 2026 15:07:01 GMT-0600 (Central Standard Time),818304.2999999523,1000,O,z,1209,17,1,2227.9000000953674,816076.399999857,7744,NTS,C,24
9,1,test,4,C,circle.png,1,m,Thu Jan 15 2026 15:07:01 GMT-0600 (Central Standard Time),847545.0999999046,1500,O,m,1139,24,1,2662.2999999523163,844882.7999999523,7744,NTS,C,1
4,2,test,4,C,circle.png,1,z,Thu Jan 15 2026 15:07:01 GMT-0600 (Central Standard Time),850127.5,1400,O,z,1149,20,1,2579.100000143051,847548.399999857,7744,NTS,C,2
1,3,test,4,C,triangle.png,1,z,Thu Jan 15 2026 15:07:01 GMT-0600 (Central Standard Time),853360.899999857,1900,O,z,1309,9,1,3230.2000000476837,850130.6999998093,7744,NTS,C,3
8,4,test,4,C,circle.png,1,m,Thu Jan 15 2026 15:07:01 GMT-0600 (Central Standard Time),855792.7999999523,1200,O,m,1217,15,1,2428.9000000953674,853363.899999857,7744,NTS,C,4
8,5,test,4,C,triangle.png,1,m,Thu Jan 15 2026 15:07:01 GMT-0600 (Central Standard Time),858691.5,1600,O,m,1279,7,1,2895.100000143051,855796.399999857,7744,NTS,C,5
2,6,test,4,C,triangle.png,1,m,Thu Jan 15 2026 15:07:01 GMT-0600 (Central Standard Time),861673.0,2000,O,m,964,18,1,2978.100000143051,858694.899999857,7744,NTS,C,6
9,7,test,4,C,circle.png,1,m,Thu Jan 15 2026 15:07:01 GMT-0600 (Central Standard Time),864340.5,1500,O,m,1138,8,1,2663.4000000953674,861677.0999999046,7744,NTS,C,7
3,8,test,4,C,circle.png,1,z,Thu Jan 15 2026 15:07:01 GMT-0600 (Central Standard Time),866857.5999999046,1600,O,z,890,11,1,2513.0999999046326,864344.5,7744,NTS,C,8
7,9,test,4,C,triangle.png,1,z,Thu Jan 15 2026 15:07:01 GMT-0600 (Central Standard Time),870004.0999999046,1700,O,z,1429,22,1,3143.0999999046326,866861.0,7744,NTS,C,9
3,10,test,4,C,triangle.png,1,z,Thu Jan 15 2026 15:07:01 GMT-0600 (Central Standard Time),872153.0,1200,O,z,920,3,1,2145.300000190735,870007.6999998093,7744,NTS,C,10
6,11,test,4,C,circle.png,1,m,Thu Jan 15 2026 15:07:01 GMT-0600 (Central Standard Time),875103.7999999523,1900,O,m,1016,5,1,2948.0,872155.7999999523,7744,NTS,C,11
7,12,test,4,C,circle.png,1,m,Thu Jan 15 2026 15:07:01 GMT-0600 (Central Standard Time),878168.5,2000,O,m,1035,14,1,3059.5,875109.0,7744,NTS,C,12
9,13,test,4,C,triangle.png,1,z,Thu Jan 15 2026 15:07:01 GMT-0600 (Central Standard Time),880851.7999999523,1400,O,z,1266,16,1,2678.7999999523163,878173.0,7744,NTS,C,13
3,14,test,4,C,triangle.png,1,z,Thu Jan 15 2026 15:07:01 GMT-0600 (Central Standard Time),882934.899999857,1200,O,z,859,19,1,2079.899999856949,880855.0,7744,NTS,C,14
1,15,test,4,C,circle.png,1,z,Thu Jan 15 2026 15:07:01 GMT-0600 (Central Standard Time),885083.0999999046,1000,O,z,1126,1,1,2145.5,882937.5999999046,7744,NTS,C,15
8,16,test,4,C,triangle.png,1,m,Thu Jan 15 2026 15:07:01 GMT-0600 (Central Standard Time),887834.2999999523,1600,O,m,1123,23,1,2748.0,885086.2999999523,7744,NTS,C,16
1,17,test,4,C,circle.png,1,z,Thu Jan 15 2026 15:07:01 GMT-0600 (Central Standard Time),889698.7999999523,1000,O,z,839,17,1,1859.4000000953674,887839.399999857,7744,NTS,C,17
6,18,test,4,C,triangle.png,1,m,Thu Jan 15 2026 15:07:01 GMT-0600 (Central Standard Time),891714.7999999523,1000,O,m,988,13,1,2010.1000001430511,889704.6999998093,7744,NTS,C,18
2,19,test,4,C,triangle.png,1,m,Thu Jan 15 2026 15:07:01 GMT-0600 (Central Standard Time),895114.0,2000,O,m,1373,2,1,3395.100000143051,891718.899999857,7744,NTS,C,19
2,20,test,4,C,circle.png,1,z,Thu Jan 15 2026 15:07:01 GMT-0600 (Central Standard Time),897796.1999998093,1700,O,z,962,10,1,2677.199999809265,895119.0,7744,NTS,C,20
7,21,test,4,C,triangle.png,1,z,Thu Jan 15 2026 15:07:01 GMT-0600 (Central Standard Time),900594.0,1700,O,z,1079,6,1,2791.7000000476837,897802.2999999523,7744,NTS,C,21
4,22,test,4,C,circle.png,1,z,Thu Jan 15 2026 15:07:01 GMT-0600 (Central Standard Time),903227.5,1400,O,z,1212,4,1,2628.2000000476837,900599.2999999523,7744,NTS,C,22
4,23,test,4,C,triangle.png,1,m,Thu Jan 15 2026 15:07:01 GMT-0600 (Central Standard Time),905943.7999999523,1500,O,m,1184,12,1,2713.2000000476837,903230.5999999046,7744,NTS,C,23
6,24,test,4,C,circle.png,1,m,Thu Jan 15 2026 15:07:01 GMT-0600 (Central Standard Time),909343.6999998093,1900,O,m,1467,21,1,3392.899999856949,905950.7999999523,7744,NTS,C,24
