acc_sum,block,block_c,block_cond,con_img,correct,correct_response,datetime,endtime,face,jitter,line,project,response,response_time,row_sel,session_number,start_end,starttime,subject_id,task,task_vers,trial
1,prac,1,A,haborder.png,1,z,Thu May 29 2025 17:06:55 GMT-0400 (Eastern Daylight Time),152792.39999997616,CFD-BF-023-013-A.jpg,1000,solid,I,z,845,4,1,2650.2999999523163,150142.10000002384,9018,ATS,A,1
2,prac,1,A,haborder.png,1,z,Thu May 29 2025 17:06:55 GMT-0400 (Eastern Daylight Time),155975.5,CFD-BM-005-010-A.jpg,1600,solid,I,z,779,2,1,5833.399999976158,150142.10000002384,9018,ATS,A,2
3,prac,1,A,haborder.png,1,m,Thu May 29 2025 17:06:55 GMT-0400 (Eastern Daylight Time),159192.10000002384,CFD-BM-017-052-HC.jpg,1700,solid,I,m,705,1,1,9050.0,150142.10000002384,9018,ATS,A,3
4,prac,1,A,haborder.png,1,m,Thu May 29 2025 17:06:55 GMT-0400 (Eastern Daylight Time),162542.29999995232,CFD-WM-004-005-HC.jpg,1400,solid,I,m,1147,7,1,12400.199999928474,150142.10000002384,9018,ATS,A,4
5,prac,1,A,haborder.png,1,z,Thu May 29 2025 17:06:55 GMT-0400 (Eastern Daylight Time),165642.29999995232,CFD-WF-003-014-A.jpg,1600,solid,I,z,685,10,1,15500.199999928474,150142.10000002384,9018,ATS,A,5
6,prac,1,A,haborder.png,1,m,Thu May 29 2025 17:06:55 GMT-0400 (Eastern Daylight Time),169325.60000002384,CFD-BF-028-020-HC.jpg,2000,solid,I,m,873,5,1,19183.5,150142.10000002384,9018,ATS,A,6
7,prac,1,A,haborder.png,1,m,Thu May 29 2025 17:06:55 GMT-0400 (Eastern Daylight Time),172825.0,CFD-WM-006-013-HC.jpg,1700,solid,I,m,995,9,1,22682.899999976158,150142.10000002384,9018,ATS,A,7
8,prac,1,A,haborder.png,1,z,Thu May 29 2025 17:06:55 GMT-0400 (Eastern Daylight Time),176208.89999997616,CFD-WM-013-015-A.jpg,1900,solid,I,z,686,8,1,26066.799999952316,150142.10000002384,9018,ATS,A,8
9,prac,1,A,haborder.png,1,z,Thu May 29 2025 17:06:55 GMT-0400 (Eastern Daylight Time),178675.79999995232,CFD-WF-019-015-A.jpg,1000,solid,I,z,650,12,1,28533.699999928474,150142.10000002384,9018,ATS,A,9
10,prac,1,A,haborder.png,1,m,Thu May 29 2025 17:06:55 GMT-0400 (Eastern Daylight Time),181658.79999995232,CFD-WF-017-016-HC.jpg,1500,solid,I,m,668,11,1,31516.699999928474,150142.10000002384,9018,ATS,A,10
11,prac,1,A,haborder.png,1,z,Thu May 29 2025 17:06:55 GMT-0400 (Eastern Daylight Time),184259.0,CFD-BF-039-039-A.jpg,1200,solid,I,z,594,6,1,34116.89999997616,150142.10000002384,9018,ATS,A,11
12,prac,1,A,haborder.png,1,m,Thu May 29 2025 17:06:55 GMT-0400 (Eastern Daylight Time),187908.89999997616,CFD-BM-029-026-HC.jpg,1500,solid,I,m,1339,3,1,37766.799999952316,150142.10000002384,9018,ATS,A,12
1,prac,1,B,mfborder.png,1,m,Thu May 29 2025 17:06:55 GMT-0400 (Eastern Daylight Time),245792.19999992847,CFD-BM-029-026-HC.jpg,1700,dash,I,m,1162,1,1,3650.0999999046326,242142.10000002384,9018,ATS,A,1
2,prac,1,B,mfborder.png,1,z,Thu May 29 2025 17:06:55 GMT-0400 (Eastern Daylight Time),248492.29999995232,CFD-BF-023-013-A.jpg,1000,dash,I,z,891,4,1,6350.199999928474,242142.10000002384,9018,ATS,A,2
3,prac,1,B,mfborder.png,1,z,Thu May 29 2025 17:06:55 GMT-0400 (Eastern Daylight Time),251641.79999995232,CFD-BF-010-005-HC.jpg,1500,dash,I,z,835,3,1,9499.699999928474,242142.10000002384,9018,ATS,A,3
4,prac,1,B,mfborder.png,1,m,Thu May 29 2025 17:06:55 GMT-0400 (Eastern Daylight Time),254975.60000002384,CFD-WM-013-015-A.jpg,1700,dash,I,m,846,9,1,12833.5,242142.10000002384,9018,ATS,A,4
5,prac,1,B,mfborder.png,1,m,Thu May 29 2025 17:06:55 GMT-0400 (Eastern Daylight Time),258175.60000002384,CFD-WM-006-013-HC.jpg,1600,dash,I,m,787,10,1,16033.5,242142.10000002384,9018,ATS,A,5
6,prac,1,B,mfborder.png,1,z,Thu May 29 2025 17:06:55 GMT-0400 (Eastern Daylight Time),260992.19999992847,CFD-BF-028-020-HC.jpg,1400,dash,I,z,604,7,1,18850.099999904633,242142.10000002384,9018,ATS,A,6
6,prac,1,B,mfborder.png,0,z,Thu May 29 2025 17:06:55 GMT-0400 (Eastern Daylight Time),263358.89999997616,CFD-WF-017-016-HC.jpg,1000,dash,I,m,581,12,1,21216.799999952316,242142.10000002384,9018,ATS,A,7
7,prac,1,B,mfborder.png,1,m,Thu May 29 2025 17:06:55 GMT-0400 (Eastern Daylight Time),267142.2999999523,CFD-BM-005-010-A.jpg,2000,dash,I,m,972,5,1,25000.199999928474,242142.10000002384,9018,ATS,A,8
8,prac,1,B,mfborder.png,1,z,Thu May 29 2025 17:06:55 GMT-0400 (Eastern Daylight Time),270475.60000002384,CFD-WF-003-014-A.jpg,1500,dash,I,z,1017,11,1,28333.5,242142.10000002384,9018,ATS,A,9
9,prac,1,B,mfborder.png,1,m,Thu May 29 2025 17:06:55 GMT-0400 (Eastern Daylight Time),273075.60000002384,CFD-WM-019-013-A.jpg,1200,dash,I,m,584,6,1,30933.5,242142.10000002384,9018,ATS,A,10
10,prac,1,B,mfborder.png,1,z,Thu May 29 2025 17:06:55 GMT-0400 (Eastern Daylight Time),276375.60000002384,CFD-WF-002-008-HC.jpg,1900,dash,I,z,588,8,1,34233.5,242142.10000002384,9018,ATS,A,11
11,prac,1,B,mfborder.png,1,m,Thu May 29 2025 17:06:55 GMT-0400 (Eastern Daylight Time),279658.89999997616,CFD-BM-010-019-A.jpg,1600,dash,I,m,875,2,1,37516.799999952316,242142.10000002384,9018,ATS,A,12
1,test,1,A,haborder.png,1,m,Thu May 29 2025 17:06:55 GMT-0400 (Eastern Daylight Time),327425.6999999285,CFD-BM-029-026-HC.jpg,1500,solid,I,m,1337,3,1,2866.6999999284744,324559.0,9018,ATS,A,1
2,test,1,A,haborder.png,1,m,Thu May 29 2025 17:06:55 GMT-0400 (Eastern Daylight Time),329809.0,CFD-WF-017-016-HC.jpg,1500,solid,I,m,855,11,1,5250.0,324559.0,9018,ATS,A,2
3,test,1,A,haborder.png,1,m,Thu May 29 2025 17:06:55 GMT-0400 (Eastern Daylight Time),332625.5,CFD-BF-028-020-HC.jpg,2000,solid,I,m,795,5,1,8066.5,324559.0,9018,ATS,A,3
4,test,1,A,haborder.png,1,m,Thu May 29 2025 17:06:55 GMT-0400 (Eastern Daylight Time),334608.7999999523,CFD-WM-004-005-HC.jpg,1400,solid,I,m,563,7,1,10049.799999952316,324559.0,9018,ATS,A,4
5,test,1,A,haborder.png,1,m,Thu May 29 2025 17:06:55 GMT-0400 (Eastern Daylight Time),337042.10000002384,CFD-BM-029-026-HC.jpg,1500,solid,I,m,903,3,1,12483.100000023842,324559.0,9018,ATS,A,5
6,test,1,A,haborder.png,1,m,Thu May 29 2025 17:06:55 GMT-0400 (Eastern Daylight Time),339475.5,CFD-WM-006-013-HC.jpg,1700,solid,I,m,702,9,1,14916.5,324559.0,9018,ATS,A,6
7,test,1,A,haborder.png,1,z,Thu May 29 2025 17:06:55 GMT-0400 (Eastern Daylight Time),342092.1999999285,CFD-WM-013-015-A.jpg,1900,solid,I,z,684,8,1,17533.199999928474,324559.0,9018,ATS,A,7
8,test,1,A,haborder.png,1,z,Thu May 29 2025 17:06:55 GMT-0400 (Eastern Daylight Time),343892.1999999285,CFD-WF-019-015-A.jpg,1000,solid,I,z,768,12,1,19333.199999928474,324559.0,9018,ATS,A,8
9,test,1,A,haborder.png,1,m,Thu May 29 2025 17:06:55 GMT-0400 (Eastern Daylight Time),346759.0,CFD-BF-028-020-HC.jpg,2000,solid,I,m,831,5,1,22200.0,324559.0,9018,ATS,A,9
10,test,1,A,haborder.png,1,m,Thu May 29 2025 17:06:55 GMT-0400 (Eastern Daylight Time),349292.1999999285,CFD-BM-017-052-HC.jpg,1700,solid,I,m,802,1,1,24733.199999928474,324559.0,9018,ATS,A,10
11,test,1,A,haborder.png,1,z,Thu May 29 2025 17:06:55 GMT-0400 (Eastern Daylight Time),351908.39999997616,CFD-BM-005-010-A.jpg,1600,solid,I,z,992,2,1,27349.399999976158,324559.0,9018,ATS,A,11
12,test,1,A,haborder.png,1,z,Thu May 29 2025 17:06:55 GMT-0400 (Eastern Daylight Time),353575.60000002384,CFD-BF-023-013-A.jpg,1000,solid,I,z,632,4,1,29016.600000023842,324559.0,9018,ATS,A,12
13,test,1,A,haborder.png,1,z,Thu May 29 2025 17:06:55 GMT-0400 (Eastern Daylight Time),355942.5,CFD-BM-005-010-A.jpg,1600,solid,I,z,748,2,1,31383.5,324559.0,9018,ATS,A,13
14,test,1,A,haborder.png,1,m,Thu May 29 2025 17:06:55 GMT-0400 (Eastern Daylight Time),358508.7999999523,CFD-BM-017-052-HC.jpg,1700,solid,I,m,834,1,1,33949.799999952316,324559.0,9018,ATS,A,14
15,test,1,A,haborder.png,1,z,Thu May 29 2025 17:06:55 GMT-0400 (Eastern Daylight Time),360858.2999999523,CFD-WF-003-014-A.jpg,1600,solid,I,z,718,10,1,36299.299999952316,324559.0,9018,ATS,A,15
16,test,1,A,haborder.png,1,z,Thu May 29 2025 17:06:55 GMT-0400 (Eastern Daylight Time),362642.1999999285,CFD-BF-023-013-A.jpg,1000,solid,I,z,762,4,1,38083.199999928474,324559.0,9018,ATS,A,16
17,test,1,A,haborder.png,1,z,Thu May 29 2025 17:06:55 GMT-0400 (Eastern Daylight Time),364875.5,CFD-BF-039-039-A.jpg,1200,solid,I,z,1009,6,1,40316.5,324559.0,9018,ATS,A,17
18,test,1,A,haborder.png,1,z,Thu May 29 2025 17:06:55 GMT-0400 (Eastern Daylight Time),367542.1999999285,CFD-WM-013-015-A.jpg,1900,solid,I,z,740,8,1,42983.199999928474,324559.0,9018,ATS,A,18
19,test,1,A,haborder.png,1,m,Thu May 29 2025 17:06:55 GMT-0400 (Eastern Daylight Time),369941.89999997616,CFD-WM-004-005-HC.jpg,1400,solid,I,m,966,7,1,45382.89999997616,324559.0,9018,ATS,A,19
20,test,1,A,haborder.png,1,m,Thu May 29 2025 17:06:55 GMT-0400 (Eastern Daylight Time),372725.60000002384,CFD-WM-006-013-HC.jpg,1700,solid,I,m,1050,9,1,48166.60000002384,324559.0,9018,ATS,A,20
21,test,1,A,haborder.png,1,z,Thu May 29 2025 17:06:55 GMT-0400 (Eastern Daylight Time),374742.10000002384,CFD-BF-039-039-A.jpg,1200,solid,I,z,791,6,1,50183.10000002384,324559.0,9018,ATS,A,21
22,test,1,A,haborder.png,1,m,Thu May 29 2025 17:06:55 GMT-0400 (Eastern Daylight Time),377191.7999999523,CFD-WF-017-016-HC.jpg,1500,solid,I,m,930,11,1,52632.799999952316,324559.0,9018,ATS,A,22
23,test,1,A,haborder.png,1,z,Thu May 29 2025 17:06:55 GMT-0400 (Eastern Daylight Time),378943.0,CFD-WF-019-015-A.jpg,1000,solid,I,z,724,12,1,54384.0,324559.0,9018,ATS,A,23
24,test,1,A,haborder.png,1,z,Thu May 29 2025 17:06:55 GMT-0400 (Eastern Daylight Time),381209.0,CFD-WF-003-014-A.jpg,1600,solid,I,z,630,10,1,56650.0,324559.0,9018,ATS,A,24
1,test,1,B,mfborder.png,1,m,Thu May 29 2025 17:06:55 GMT-0400 (Eastern Daylight Time),399325.60000002384,CFD-WM-006-013-HC.jpg,1600,dash,I,m,923,10,1,2550.2000000476837,396775.39999997616,9018,ATS,A,1
2,test,1,B,mfborder.png,1,z,Thu May 29 2025 17:06:55 GMT-0400 (Eastern Daylight Time),402341.89999997616,CFD-WF-002-008-HC.jpg,1900,dash,I,z,1098,8,1,5566.5,396775.39999997616,9018,ATS,A,2
3,test,1,B,mfborder.png,1,m,Thu May 29 2025 17:06:55 GMT-0400 (Eastern Daylight Time),404592.10000002384,CFD-BM-010-019-A.jpg,1600,dash,I,m,621,2,1,7816.700000047684,396775.39999997616,9018,ATS,A,3
4,test,1,B,mfborder.png,1,z,Thu May 29 2025 17:06:55 GMT-0400 (Eastern Daylight Time),406608.89999997616,CFD-WF-003-014-A.jpg,1500,dash,I,z,495,11,1,9833.5,396775.39999997616,9018,ATS,A,4
5,test,1,B,mfborder.png,1,m,Thu May 29 2025 17:06:55 GMT-0400 (Eastern Daylight Time),409391.89999997616,CFD-BM-005-010-A.jpg,2000,dash,I,m,754,5,1,12616.5,396775.39999997616,9018,ATS,A,5
6,test,1,B,mfborder.png,1,m,Thu May 29 2025 17:06:55 GMT-0400 (Eastern Daylight Time),411725.60000002384,CFD-BM-029-026-HC.jpg,1700,dash,I,m,607,1,1,14950.200000047684,396775.39999997616,9018,ATS,A,6
7,test,1,B,mfborder.png,1,z,Thu May 29 2025 17:06:55 GMT-0400 (Eastern Daylight Time),413842.2999999523,CFD-WF-003-014-A.jpg,1500,dash,I,z,586,11,1,17066.899999976158,396775.39999997616,9018,ATS,A,7
8,test,1,B,mfborder.png,1,m,Thu May 29 2025 17:06:55 GMT-0400 (Eastern Daylight Time),416708.89999997616,CFD-BM-005-010-A.jpg,2000,dash,I,m,817,5,1,19933.5,396775.39999997616,9018,ATS,A,8
9,test,1,B,mfborder.png,1,m,Thu May 29 2025 17:06:55 GMT-0400 (Eastern Daylight Time),418542.2999999523,CFD-WM-019-013-A.jpg,1200,dash,I,m,608,6,1,21766.899999976158,396775.39999997616,9018,ATS,A,9
10,test,1,B,mfborder.png,1,z,Thu May 29 2025 17:06:55 GMT-0400 (Eastern Daylight Time),420125.60000002384,CFD-WF-017-016-HC.jpg,1000,dash,I,z,542,12,1,23350.200000047684,396775.39999997616,9018,ATS,A,10
11,test,1,B,mfborder.png,1,m,Thu May 29 2025 17:06:55 GMT-0400 (Eastern Daylight Time),422508.7999999523,CFD-WM-013-015-A.jpg,1700,dash,I,m,641,9,1,25733.399999976158,396775.39999997616,9018,ATS,A,11
12,test,1,B,mfborder.png,1,z,Thu May 29 2025 17:06:55 GMT-0400 (Eastern Daylight Time),424625.5,CFD-BF-028-020-HC.jpg,1400,dash,I,z,686,7,1,27850.100000023842,396775.39999997616,9018,ATS,A,12
13,test,1,B,mfborder.png,1,z,Thu May 29 2025 17:06:55 GMT-0400 (Eastern Daylight Time),426575.1999999285,CFD-BF-028-020-HC.jpg,1400,dash,I,z,529,7,1,29799.799999952316,396775.39999997616,9018,ATS,A,13
14,test,1,B,mfborder.png,1,z,Thu May 29 2025 17:06:55 GMT-0400 (Eastern Daylight Time),428675.6999999285,CFD-BF-010-005-HC.jpg,1500,dash,I,z,561,3,1,31900.299999952316,396775.39999997616,9018,ATS,A,14
15,test,1,B,mfborder.png,1,m,Thu May 29 2025 17:06:55 GMT-0400 (Eastern Daylight Time),430525.6999999285,CFD-WM-019-013-A.jpg,1200,dash,I,m,608,6,1,33750.299999952316,396775.39999997616,9018,ATS,A,15
16,test,1,B,mfborder.png,1,z,Thu May 29 2025 17:06:55 GMT-0400 (Eastern Daylight Time),432108.89999997616,CFD-WF-017-016-HC.jpg,1000,dash,I,z,542,12,1,35333.5,396775.39999997616,9018,ATS,A,16
17,test,1,B,mfborder.png,1,m,Thu May 29 2025 17:06:55 GMT-0400 (Eastern Daylight Time),434358.89999997616,CFD-BM-010-019-A.jpg,1600,dash,I,m,622,2,1,37583.5,396775.39999997616,9018,ATS,A,17
18,test,1,B,mfborder.png,1,m,Thu May 29 2025 17:06:55 GMT-0400 (Eastern Daylight Time),436875.6999999285,CFD-WM-013-015-A.jpg,1700,dash,I,m,785,9,1,40100.299999952316,396775.39999997616,9018,ATS,A,18
19,test,1,B,mfborder.png,1,z,Thu May 29 2025 17:06:55 GMT-0400 (Eastern Daylight Time),439109.0,CFD-BF-010-005-HC.jpg,1500,dash,I,z,700,3,1,42333.60000002384,396775.39999997616,9018,ATS,A,19
20,test,1,B,mfborder.png,1,m,Thu May 29 2025 17:06:55 GMT-0400 (Eastern Daylight Time),441359.0,CFD-WM-006-013-HC.jpg,1600,dash,I,m,624,10,1,44583.60000002384,396775.39999997616,9018,ATS,A,20
21,test,1,B,mfborder.png,1,z,Thu May 29 2025 17:06:55 GMT-0400 (Eastern Daylight Time),443859.0,CFD-WF-002-008-HC.jpg,1900,dash,I,z,560,8,1,47083.60000002384,396775.39999997616,9018,ATS,A,21
22,test,1,B,mfborder.png,1,m,Thu May 29 2025 17:06:55 GMT-0400 (Eastern Daylight Time),446159.0,CFD-BM-029-026-HC.jpg,1700,dash,I,m,581,1,1,49383.60000002384,396775.39999997616,9018,ATS,A,22
23,test,1,B,mfborder.png,1,z,Thu May 29 2025 17:06:55 GMT-0400 (Eastern Daylight Time),448042.1999999285,CFD-BF-023-013-A.jpg,1000,dash,I,z,861,4,1,51266.799999952316,396775.39999997616,9018,ATS,A,23
24,test,1,B,mfborder.png,1,z,Thu May 29 2025 17:06:55 GMT-0400 (Eastern Daylight Time),449608.89999997616,CFD-BF-023-013-A.jpg,1000,dash,I,z,537,4,1,52833.5,396775.39999997616,9018,ATS,A,24
0,prac,1,C,haborder.png,0,z,Thu May 29 2025 17:06:55 GMT-0400 (Eastern Daylight Time),501959.1999999285,CFD-BF-023-013-A.jpg,1900,dash,I,None,1515,7,1,4200.099999904633,497759.10000002384,9018,ATS,A,1
0,prac,1,C,mfborder.png,0,z,Thu May 29 2025 17:06:55 GMT-0400 (Eastern Daylight Time),505275.6999999285,CFD-BF-028-020-HC.jpg,1000,dash,I,None,1515,3,1,7516.599999904633,497759.10000002384,9018,ATS,A,2
0,prac,1,C,mfborder.png,0,m,Thu May 29 2025 17:06:55 GMT-0400 (Eastern Daylight Time),509292.5,CFD-WM-013-015-A.jpg,1700,solid,I,None,1515,6,1,11533.399999976158,497759.10000002384,9018,ATS,A,3
0,prac,1,C,mfborder.png,0,z,Thu May 29 2025 17:06:55 GMT-0400 (Eastern Daylight Time),513209.10000002384,CFD-WF-017-016-HC.jpg,1600,dash,I,None,1515,1,1,15450.0,497759.10000002384,9018,ATS,A,4
1,prac,1,C,haborder.png,1,m,Thu May 29 2025 17:06:55 GMT-0400 (Eastern Daylight Time),516558.6999999285,CFD-WM-004-005-HC.jpg,1400,solid,I,m,1155,12,1,18799.599999904633,497759.10000002384,9018,ATS,A,5
2,prac,1,C,haborder.png,1,m,Thu May 29 2025 17:06:55 GMT-0400 (Eastern Daylight Time),519692.6999999285,CFD-BM-029-026-HC.jpg,1500,solid,I,m,833,10,1,21933.599999904633,497759.10000002384,9018,ATS,A,6
2,prac,1,C,mfborder.png,0,m,Thu May 29 2025 17:06:55 GMT-0400 (Eastern Daylight Time),524009.10000002384,CFD-BM-017-052-HC.jpg,2000,solid,I,None,1515,4,1,26250.0,497759.10000002384,9018,ATS,A,7
2,prac,1,C,mfborder.png,0,m,Thu May 29 2025 17:06:55 GMT-0400 (Eastern Daylight Time),527525.7999999523,CFD-BM-005-010-A.jpg,1200,dash,I,None,1515,5,1,29766.699999928474,497759.10000002384,9018,ATS,A,8
3,prac,1,C,haborder.png,1,z,Thu May 29 2025 17:06:55 GMT-0400 (Eastern Daylight Time),530892.3999999762,CFD-WF-003-014-A.jpg,1600,dash,I,z,967,9,1,33133.299999952316,497759.10000002384,9018,ATS,A,9
4,prac,1,C,haborder.png,1,z,Thu May 29 2025 17:06:55 GMT-0400 (Eastern Daylight Time),534459.1999999285,CFD-BF-039-039-A.jpg,1700,solid,I,z,1059,8,1,36700.09999990463,497759.10000002384,9018,ATS,A,10
5,prac,1,C,haborder.png,1,m,Thu May 29 2025 17:06:55 GMT-0400 (Eastern Daylight Time),537059.1999999285,CFD-WM-004-005-HC.jpg,1000,dash,I,m,784,11,1,39300.09999990463,497759.10000002384,9018,ATS,A,11
6,prac,1,C,mfborder.png,1,z,Thu May 29 2025 17:06:55 GMT-0400 (Eastern Daylight Time),540525.8999999762,CFD-WF-019-015-A.jpg,1500,solid,I,z,1155,2,1,42766.799999952316,497759.10000002384,9018,ATS,A,12
0,prac,2,C,haborder.png,0,m,Thu May 29 2025 17:06:55 GMT-0400 (Eastern Daylight Time),553492.5,CFD-WM-004-005-HC.jpg,1000,dash,I,None,1516,11,1,55733.39999997616,497759.10000002384,9018,ATS,A,1
1,prac,2,C,mfborder.png,1,m,Thu May 29 2025 17:06:55 GMT-0400 (Eastern Daylight Time),557359.2999999523,CFD-BM-017-052-HC.jpg,2000,solid,I,m,1055,4,1,59600.199999928474,497759.10000002384,9018,ATS,A,2
2,prac,2,C,haborder.png,1,z,Thu May 29 2025 17:06:55 GMT-0400 (Eastern Daylight Time),561326.1999999285,CFD-BF-023-013-A.jpg,1900,dash,I,z,1265,7,1,63567.09999990463,497759.10000002384,9018,ATS,A,3
3,prac,2,C,mfborder.png,1,z,Thu May 29 2025 17:06:55 GMT-0400 (Eastern Daylight Time),564875.6000000238,CFD-WF-017-016-HC.jpg,1600,dash,I,z,1149,1,1,67116.5,497759.10000002384,9018,ATS,A,4
4,prac,2,C,haborder.png,1,z,Thu May 29 2025 17:06:55 GMT-0400 (Eastern Daylight Time),568625.7999999523,CFD-BF-039-039-A.jpg,1700,solid,I,z,1252,8,1,70866.69999992847,497759.10000002384,9018,ATS,A,5
5,prac,2,C,haborder.png,1,z,Thu May 29 2025 17:06:55 GMT-0400 (Eastern Daylight Time),571676.0,CFD-WF-003-014-A.jpg,1600,dash,I,z,641,9,1,73916.89999997616,497759.10000002384,9018,ATS,A,6
6,prac,2,C,mfborder.png,1,z,Thu May 29 2025 17:06:55 GMT-0400 (Eastern Daylight Time),575375.8999999762,CFD-WF-019-015-A.jpg,1500,solid,I,z,1388,2,1,77616.79999995232,497759.10000002384,9018,ATS,A,7
6,prac,2,C,mfborder.png,0,m,Thu May 29 2025 17:06:55 GMT-0400 (Eastern Daylight Time),578959.1999999285,CFD-WM-013-015-A.jpg,1700,solid,I,z,1072,6,1,81200.09999990463,497759.10000002384,9018,ATS,A,8
6,prac,2,C,mfborder.png,0,z,Thu May 29 2025 17:06:55 GMT-0400 (Eastern Daylight Time),581575.8999999762,CFD-BF-028-020-HC.jpg,1000,dash,I,m,804,3,1,83816.79999995232,497759.10000002384,9018,ATS,A,9
6,prac,2,C,mfborder.png,0,m,Thu May 29 2025 17:06:55 GMT-0400 (Eastern Daylight Time),584459.1000000238,CFD-BM-005-010-A.jpg,1200,dash,I,z,868,5,1,86700.0,497759.10000002384,9018,ATS,A,10
7,prac,2,C,haborder.png,1,m,Thu May 29 2025 17:06:55 GMT-0400 (Eastern Daylight Time),587909.2999999523,CFD-BM-029-026-HC.jpg,1500,solid,I,m,1148,10,1,90150.19999992847,497759.10000002384,9018,ATS,A,11
8,prac,2,C,haborder.png,1,m,Thu May 29 2025 17:06:55 GMT-0400 (Eastern Daylight Time),591092.6000000238,CFD-WM-004-005-HC.jpg,1400,solid,I,m,978,12,1,93333.5,497759.10000002384,9018,ATS,A,12
1,test,1,C,haborder.png,1,z,Thu May 29 2025 17:06:55 GMT-0400 (Eastern Daylight Time),626375.7999999523,CFD-BM-005-010-A.jpg,1900,solid,I,z,1330,8,1,3249.899999976158,623125.8999999762,9018,ATS,A,1
2,test,1,C,mfborder.png,1,m,Thu May 29 2025 17:06:55 GMT-0400 (Eastern Daylight Time),629559.2999999523,CFD-WM-019-013-A.jpg,2000,dash,I,m,1156,5,1,6433.399999976158,623125.8999999762,9018,ATS,A,2
3,test,1,C,mfborder.png,1,m,Thu May 29 2025 17:06:55 GMT-0400 (Eastern Daylight Time),632042.5,CFD-WM-006-013-HC.jpg,1000,dash,I,m,1454,4,1,8916.600000023842,623125.8999999762,9018,ATS,A,3
3,test,1,C,haborder.png,0,m,Thu May 29 2025 17:06:55 GMT-0400 (Eastern Daylight Time),634825.5,CFD-WF-002-008-HC.jpg,1500,solid,I,z,1262,11,1,11699.600000023842,623125.8999999762,9018,ATS,A,4
4,test,1,C,mfborder.png,1,m,Thu May 29 2025 17:06:55 GMT-0400 (Eastern Daylight Time),637092.5,CFD-BM-029-026-HC.jpg,1200,dash,I,m,1026,6,1,13966.600000023842,623125.8999999762,9018,ATS,A,5
5,test,1,C,haborder.png,1,z,Thu May 29 2025 17:06:55 GMT-0400 (Eastern Daylight Time),639859.1000000238,CFD-BM-010-019-A.jpg,1700,solid,I,z,1036,9,1,16733.200000047684,623125.8999999762,9018,ATS,A,6
6,test,1,C,haborder.png,1,z,Thu May 29 2025 17:06:55 GMT-0400 (Eastern Daylight Time),642259.1999999285,CFD-WM-013-015-A.jpg,1400,solid,I,z,967,7,1,19133.299999952316,623125.8999999762,9018,ATS,A,7
7,test,1,C,haborder.png,1,z,Thu May 29 2025 17:06:55 GMT-0400 (Eastern Daylight Time),645042.5,CFD-BM-010-019-A.jpg,1700,solid,I,z,1055,9,1,21916.600000023842,623125.8999999762,9018,ATS,A,8
7,test,1,C,mfborder.png,0,z,Thu May 29 2025 17:06:55 GMT-0400 (Eastern Daylight Time),648176.1000000238,CFD-BF-023-013-A.jpg,1600,dash,I,None,1515,2,1,25050.200000047684,623125.8999999762,9018,ATS,A,9
7,test,1,C,haborder.png,0,z,Thu May 29 2025 17:06:55 GMT-0400 (Eastern Daylight Time),650809.1999999285,CFD-WM-013-015-A.jpg,1400,solid,I,m,1204,7,1,27683.299999952316,623125.8999999762,9018,ATS,A,10
8,test,1,C,mfborder.png,1,z,Thu May 29 2025 17:06:55 GMT-0400 (Eastern Daylight Time),653275.8999999762,CFD-WF-003-014-A.jpg,1500,dash,I,z,943,3,1,30150.0,623125.8999999762,9018,ATS,A,11
9,test,1,C,mfborder.png,1,m,Thu May 29 2025 17:06:55 GMT-0400 (Eastern Daylight Time),655625.8999999762,CFD-WM-006-013-HC.jpg,1000,dash,I,m,1321,4,1,32500.0,623125.8999999762,9018,ATS,A,12
10,test,1,C,mfborder.png,1,z,Thu May 29 2025 17:06:55 GMT-0400 (Eastern Daylight Time),657942.3999999762,CFD-WF-003-014-A.jpg,1500,dash,I,z,782,3,1,34816.5,623125.8999999762,9018,ATS,A,13
11,test,1,C,mfborder.png,1,z,Thu May 29 2025 17:06:55 GMT-0400 (Eastern Daylight Time),660409.1000000238,CFD-BF-023-013-A.jpg,1600,dash,I,z,837,2,1,37283.200000047684,623125.8999999762,9018,ATS,A,14
12,test,1,C,mfborder.png,1,m,Thu May 29 2025 17:06:55 GMT-0400 (Eastern Daylight Time),663509.1999999285,CFD-WM-019-013-A.jpg,2000,dash,I,m,1050,5,1,40383.299999952316,623125.8999999762,9018,ATS,A,15
12,test,1,C,haborder.png,0,m,Thu May 29 2025 17:06:55 GMT-0400 (Eastern Daylight Time),666042.0,CFD-WF-002-008-HC.jpg,1500,solid,I,z,1001,11,1,42916.10000002384,623125.8999999762,9018,ATS,A,16
13,test,1,C,haborder.png,1,z,Thu May 29 2025 17:06:55 GMT-0400 (Eastern Daylight Time),668925.7999999523,CFD-BM-005-010-A.jpg,1900,solid,I,z,957,8,1,45799.89999997616,623125.8999999762,9018,ATS,A,17
14,test,1,C,mfborder.png,1,m,Thu May 29 2025 17:06:55 GMT-0400 (Eastern Daylight Time),671359.1999999285,CFD-BM-029-026-HC.jpg,1200,dash,I,m,1207,6,1,48233.299999952316,623125.8999999762,9018,ATS,A,18
14,test,1,C,haborder.png,0,m,Thu May 29 2025 17:06:55 GMT-0400 (Eastern Daylight Time),673542.6999999285,CFD-WF-017-016-HC.jpg,1000,solid,I,z,1148,12,1,50416.799999952316,623125.8999999762,9018,ATS,A,19
14,test,1,C,mfborder.png,0,z,Thu May 29 2025 17:06:55 GMT-0400 (Eastern Daylight Time),676776.1999999285,CFD-BF-010-005-HC.jpg,1700,dash,I,None,1506,1,1,53650.299999952316,623125.8999999762,9018,ATS,A,20
15,test,1,C,haborder.png,1,m,Thu May 29 2025 17:06:55 GMT-0400 (Eastern Daylight Time),679675.7999999523,CFD-BF-028-020-HC.jpg,1600,solid,I,m,1276,10,1,56549.89999997616,623125.8999999762,9018,ATS,A,21
15,test,1,C,haborder.png,0,m,Thu May 29 2025 17:06:55 GMT-0400 (Eastern Daylight Time),681959.1999999285,CFD-WF-017-016-HC.jpg,1000,solid,I,z,1248,12,1,58833.299999952316,623125.8999999762,9018,ATS,A,22
15,test,1,C,mfborder.png,0,z,Thu May 29 2025 17:06:55 GMT-0400 (Eastern Daylight Time),684859.2999999523,CFD-BF-010-005-HC.jpg,1700,dash,I,m,1152,1,1,61733.39999997616,623125.8999999762,9018,ATS,A,23
15,test,1,C,haborder.png,0,m,Thu May 29 2025 17:06:55 GMT-0400 (Eastern Daylight Time),687709.2999999523,CFD-BF-028-020-HC.jpg,1600,solid,I,z,1218,10,1,64583.39999997616,623125.8999999762,9018,ATS,A,24
0,test,2,C,mfborder.png,0,z,Thu May 29 2025 17:06:55 GMT-0400 (Eastern Daylight Time),711309.5,CFD-BF-028-020-HC.jpg,1500,dash,I,None,1508,3,1,3033.399999976158,708276.1000000238,9018,ATS,A,1
1,test,2,C,haborder.png,1,m,Thu May 29 2025 17:06:55 GMT-0400 (Eastern Daylight Time),714126.0,CFD-BM-029-026-HC.jpg,1600,solid,I,m,1183,10,1,5849.899999976158,708276.1000000238,9018,ATS,A,2
1,test,2,C,mfborder.png,0,m,Thu May 29 2025 17:06:55 GMT-0400 (Eastern Daylight Time),717659.3999999762,CFD-BM-005-010-A.jpg,2000,dash,I,None,1515,5,1,9383.299999952316,708276.1000000238,9018,ATS,A,3
2,test,2,C,haborder.png,1,z,Thu May 29 2025 17:06:55 GMT-0400 (Eastern Daylight Time),720009.1999999285,CFD-BF-023-013-A.jpg,1400,solid,I,z,930,7,1,11733.099999904633,708276.1000000238,9018,ATS,A,4
3,test,2,C,haborder.png,1,z,Thu May 29 2025 17:06:55 GMT-0400 (Eastern Daylight Time),722359.2999999523,CFD-WF-003-014-A.jpg,1700,solid,I,z,623,9,1,14083.199999928474,708276.1000000238,9018,ATS,A,5
4,test,2,C,haborder.png,1,z,Thu May 29 2025 17:06:55 GMT-0400 (Eastern Daylight Time),725009.1999999285,CFD-BF-039-039-A.jpg,1900,solid,I,z,720,8,1,16733.099999904633,708276.1000000238,9018,ATS,A,6
4,test,2,C,haborder.png,0,m,Thu May 29 2025 17:06:55 GMT-0400 (Eastern Daylight Time),727759.1999999285,CFD-WM-004-005-HC.jpg,1500,solid,I,z,1223,11,1,19483.099999904633,708276.1000000238,9018,ATS,A,7
4,test,2,C,mfborder.png,0,z,Thu May 29 2025 17:06:55 GMT-0400 (Eastern Daylight Time),730892.2999999523,CFD-WF-019-015-A.jpg,1600,dash,I,None,1515,2,1,22616.199999928474,708276.1000000238,9018,ATS,A,8
5,test,2,C,haborder.png,1,m,Thu May 29 2025 17:06:55 GMT-0400 (Eastern Daylight Time),733359.1000000238,CFD-BM-029-026-HC.jpg,1600,solid,I,m,839,10,1,25083.0,708276.1000000238,9018,ATS,A,9
6,test,2,C,mfborder.png,1,m,Thu May 29 2025 17:06:55 GMT-0400 (Eastern Daylight Time),736442.6000000238,CFD-BM-005-010-A.jpg,2000,dash,I,m,1053,5,1,28166.5,708276.1000000238,9018,ATS,A,10
7,test,2,C,haborder.png,1,m,Thu May 29 2025 17:06:55 GMT-0400 (Eastern Daylight Time),738175.6999999285,CFD-WM-004-005-HC.jpg,1000,solid,I,m,706,12,1,29899.599999904633,708276.1000000238,9018,ATS,A,11
8,test,2,C,mfborder.png,1,m,Thu May 29 2025 17:06:55 GMT-0400 (Eastern Daylight Time),740692.7999999523,CFD-BM-017-052-HC.jpg,1000,dash,I,m,1493,4,1,32416.699999928474,708276.1000000238,9018,ATS,A,12
8,test,2,C,haborder.png,0,z,Thu May 29 2025 17:06:55 GMT-0400 (Eastern Daylight Time),743626.1000000238,CFD-BF-023-013-A.jpg,1400,solid,I,None,1507,7,1,35350.0,708276.1000000238,9018,ATS,A,13
8,test,2,C,mfborder.png,0,m,Thu May 29 2025 17:06:55 GMT-0400 (Eastern Daylight Time),746359.3999999762,CFD-WM-013-015-A.jpg,1200,dash,I,None,1507,6,1,38083.299999952316,708276.1000000238,9018,ATS,A,14
9,test,2,C,mfborder.png,1,m,Thu May 29 2025 17:06:55 GMT-0400 (Eastern Daylight Time),748359.1000000238,CFD-WM-013-015-A.jpg,1200,dash,I,m,781,6,1,40083.0,708276.1000000238,9018,ATS,A,15
9,test,2,C,haborder.png,0,m,Thu May 29 2025 17:06:55 GMT-0400 (Eastern Daylight Time),750742.6999999285,CFD-WM-004-005-HC.jpg,1500,solid,I,z,849,11,1,42466.59999990463,708276.1000000238,9018,ATS,A,16
10,test,2,C,mfborder.png,1,z,Thu May 29 2025 17:06:55 GMT-0400 (Eastern Daylight Time),753742.6000000238,CFD-WF-017-016-HC.jpg,1700,dash,I,z,1274,1,1,45466.5,708276.1000000238,9018,ATS,A,17
11,test,2,C,haborder.png,1,m,Thu May 29 2025 17:06:55 GMT-0400 (Eastern Daylight Time),755726.0,CFD-WM-004-005-HC.jpg,1000,solid,I,m,942,12,1,47449.89999997616,708276.1000000238,9018,ATS,A,18
12,test,2,C,mfborder.png,1,z,Thu May 29 2025 17:06:55 GMT-0400 (Eastern Daylight Time),758659.3999999762,CFD-WF-017-016-HC.jpg,1700,dash,I,z,1210,1,1,50383.299999952316,708276.1000000238,9018,ATS,A,19
13,test,2,C,mfborder.png,1,m,Thu May 29 2025 17:06:55 GMT-0400 (Eastern Daylight Time),760775.6000000238,CFD-BM-017-052-HC.jpg,1000,dash,I,m,1098,4,1,52499.5,708276.1000000238,9018,ATS,A,20
14,test,2,C,mfborder.png,1,z,Thu May 29 2025 17:06:55 GMT-0400 (Eastern Daylight Time),763459.1999999285,CFD-BF-028-020-HC.jpg,1500,dash,I,z,1154,3,1,55183.09999990463,708276.1000000238,9018,ATS,A,21
15,test,2,C,haborder.png,1,z,Thu May 29 2025 17:06:55 GMT-0400 (Eastern Daylight Time),766009.1000000238,CFD-WF-003-014-A.jpg,1700,solid,I,z,831,9,1,57733.0,708276.1000000238,9018,ATS,A,22
15,test,2,C,mfborder.png,0,z,Thu May 29 2025 17:06:55 GMT-0400 (Eastern Daylight Time),768442.6999999285,CFD-WF-019-015-A.jpg,1600,dash,I,m,804,2,1,60166.59999990463,708276.1000000238,9018,ATS,A,23
15,test,2,C,haborder.png,0,z,Thu May 29 2025 17:06:55 GMT-0400 (Eastern Daylight Time),771392.5,CFD-BF-039-039-A.jpg,1900,solid,I,m,1002,8,1,63116.39999997616,708276.1000000238,9018,ATS,A,24
1,test,3,C,haborder.png,1,m,Thu May 29 2025 17:06:55 GMT-0400 (Eastern Daylight Time),778876.1000000238,CFD-WF-017-016-HC.jpg,1000,solid,I,m,1076,12,1,2100.2000000476837,776775.8999999762,9018,ATS,A,1
2,test,3,C,mfborder.png,1,m,Thu May 29 2025 17:06:55 GMT-0400 (Eastern Daylight Time),780942.7999999523,CFD-BM-029-026-HC.jpg,1200,dash,I,m,841,6,1,4166.899999976158,776775.8999999762,9018,ATS,A,2
2,test,3,C,haborder.png,0,z,Thu May 29 2025 17:06:55 GMT-0400 (Eastern Daylight Time),783943.6000000238,CFD-BM-010-019-A.jpg,1700,solid,I,m,1282,9,1,7167.700000047684,776775.8999999762,9018,ATS,A,3
3,test,3,C,haborder.png,1,m,Thu May 29 2025 17:06:55 GMT-0400 (Eastern Daylight Time),786342.5,CFD-BF-028-020-HC.jpg,1600,solid,I,m,766,10,1,9566.600000023842,776775.8999999762,9018,ATS,A,4
4,test,3,C,mfborder.png,1,m,Thu May 29 2025 17:06:55 GMT-0400 (Eastern Daylight Time),788392.1999999285,CFD-WM-006-013-HC.jpg,1000,dash,I,m,1021,4,1,11616.299999952316,776775.8999999762,9018,ATS,A,5
5,test,3,C,haborder.png,1,m,Thu May 29 2025 17:06:55 GMT-0400 (Eastern Daylight Time),790658.8999999762,CFD-WF-002-008-HC.jpg,1500,solid,I,m,734,11,1,13883.0,776775.8999999762,9018,ATS,A,6
6,test,3,C,mfborder.png,1,m,Thu May 29 2025 17:06:55 GMT-0400 (Eastern Daylight Time),793309.5,CFD-WM-019-013-A.jpg,2000,dash,I,m,625,5,1,16533.600000023842,776775.8999999762,9018,ATS,A,7
7,test,3,C,haborder.png,1,z,Thu May 29 2025 17:06:55 GMT-0400 (Eastern Daylight Time),795792.2999999523,CFD-BM-010-019-A.jpg,1700,solid,I,z,755,9,1,19016.399999976158,776775.8999999762,9018,ATS,A,8
8,test,3,C,mfborder.png,1,m,Thu May 29 2025 17:06:55 GMT-0400 (Eastern Daylight Time),797543.3999999762,CFD-WM-006-013-HC.jpg,1000,dash,I,m,731,4,1,20767.5,776775.8999999762,9018,ATS,A,9
9,test,3,C,haborder.png,1,m,Thu May 29 2025 17:06:55 GMT-0400 (Eastern Daylight Time),799825.8999999762,CFD-WF-002-008-HC.jpg,1500,solid,I,m,763,11,1,23050.0,776775.8999999762,9018,ATS,A,10
10,test,3,C,haborder.png,1,z,Thu May 29 2025 17:06:55 GMT-0400 (Eastern Daylight Time),802609.1999999285,CFD-BM-005-010-A.jpg,1900,solid,I,z,863,8,1,25833.299999952316,776775.8999999762,9018,ATS,A,11
11,test,3,C,mfborder.png,1,z,Thu May 29 2025 17:06:55 GMT-0400 (Eastern Daylight Time),805076.0,CFD-BF-023-013-A.jpg,1600,dash,I,z,826,2,1,28300.100000023842,776775.8999999762,9018,ATS,A,12
12,test,3,C,haborder.png,1,m,Thu May 29 2025 17:06:55 GMT-0400 (Eastern Daylight Time),807392.6000000238,CFD-BF-028-020-HC.jpg,1600,solid,I,m,688,10,1,30616.700000047684,776775.8999999762,9018,ATS,A,13
13,test,3,C,mfborder.png,1,z,Thu May 29 2025 17:06:55 GMT-0400 (Eastern Daylight Time),809859.3999999762,CFD-BF-010-005-HC.jpg,1700,dash,I,z,736,1,1,33083.5,776775.8999999762,9018,ATS,A,14
14,test,3,C,mfborder.png,1,z,Thu May 29 2025 17:06:55 GMT-0400 (Eastern Daylight Time),811943.5,CFD-WF-003-014-A.jpg,1500,dash,I,z,566,3,1,35167.60000002384,776775.8999999762,9018,ATS,A,15
14,test,3,C,mfborder.png,0,m,Thu May 29 2025 17:06:55 GMT-0400 (Eastern Daylight Time),814676.2999999523,CFD-BM-029-026-HC.jpg,1200,dash,I,None,1515,6,1,37900.39999997616,776775.8999999762,9018,ATS,A,16
15,test,3,C,mfborder.png,1,z,Thu May 29 2025 17:06:55 GMT-0400 (Eastern Daylight Time),817659.6000000238,CFD-BF-023-013-A.jpg,1600,dash,I,z,1336,2,1,40883.700000047684,776775.8999999762,9018,ATS,A,17
16,test,3,C,mfborder.png,1,m,Thu May 29 2025 17:06:55 GMT-0400 (Eastern Daylight Time),820726.2999999523,CFD-WM-019-013-A.jpg,2000,dash,I,m,1026,5,1,43950.39999997616,776775.8999999762,9018,ATS,A,18
17,test,3,C,haborder.png,1,z,Thu May 29 2025 17:06:55 GMT-0400 (Eastern Daylight Time),823642.7999999523,CFD-WM-013-015-A.jpg,1400,solid,I,z,1478,7,1,46866.89999997616,776775.8999999762,9018,ATS,A,19
18,test,3,C,mfborder.png,1,z,Thu May 29 2025 17:06:55 GMT-0400 (Eastern Daylight Time),826159.3999999762,CFD-WF-003-014-A.jpg,1500,dash,I,z,981,3,1,49383.5,776775.8999999762,9018,ATS,A,20
18,test,3,C,mfborder.png,0,z,Thu May 29 2025 17:06:55 GMT-0400 (Eastern Daylight Time),829159.2999999523,CFD-BF-010-005-HC.jpg,1700,dash,I,m,1274,1,1,52383.39999997616,776775.8999999762,9018,ATS,A,21
19,test,3,C,haborder.png,1,z,Thu May 29 2025 17:06:55 GMT-0400 (Eastern Daylight Time),831876.0,CFD-WM-013-015-A.jpg,1400,solid,I,z,1294,7,1,55100.10000002384,776775.8999999762,9018,ATS,A,22
20,test,3,C,haborder.png,1,z,Thu May 29 2025 17:06:55 GMT-0400 (Eastern Daylight Time),834692.7999999523,CFD-BM-005-010-A.jpg,1900,solid,I,z,876,8,1,57916.89999997616,776775.8999999762,9018,ATS,A,23
21,test,3,C,haborder.png,1,m,Thu May 29 2025 17:06:55 GMT-0400 (Eastern Daylight Time),836676.1000000238,CFD-WF-017-016-HC.jpg,1000,solid,I,m,952,12,1,59900.200000047684,776775.8999999762,9018,ATS,A,24
1,test,4,C,haborder.png,1,m,Thu May 29 2025 17:06:55 GMT-0400 (Eastern Daylight Time),848709.6000000238,CFD-BM-029-026-HC.jpg,1600,solid,I,m,908,10,1,2550.2000000476837,846159.3999999762,9018,ATS,A,1
2,test,4,C,mfborder.png,1,m,Thu May 29 2025 17:06:55 GMT-0400 (Eastern Daylight Time),850659.6000000238,CFD-BM-017-052-HC.jpg,1000,dash,I,m,912,4,1,4500.200000047684,846159.3999999762,9018,ATS,A,2
3,test,4,C,mfborder.png,1,z,Thu May 29 2025 17:06:55 GMT-0400 (Eastern Daylight Time),853775.7999999523,CFD-WF-019-015-A.jpg,1600,dash,I,z,1491,2,1,7616.399999976158,846159.3999999762,9018,ATS,A,3
4,test,4,C,haborder.png,1,m,Thu May 29 2025 17:06:55 GMT-0400 (Eastern Daylight Time),855943.1999999285,CFD-WM-004-005-HC.jpg,1500,solid,I,m,644,11,1,9783.799999952316,846159.3999999762,9018,ATS,A,4
5,test,4,C,mfborder.png,1,m,Thu May 29 2025 17:06:55 GMT-0400 (Eastern Daylight Time),857992.6999999285,CFD-WM-013-015-A.jpg,1200,dash,I,m,822,6,1,11833.299999952316,846159.3999999762,9018,ATS,A,5
6,test,4,C,mfborder.png,1,m,Thu May 29 2025 17:06:55 GMT-0400 (Eastern Daylight Time),859975.8999999762,CFD-WM-013-015-A.jpg,1200,dash,I,m,756,6,1,13816.5,846159.3999999762,9018,ATS,A,6
6,test,4,C,mfborder.png,0,z,Thu May 29 2025 17:06:55 GMT-0400 (Eastern Daylight Time),862442.6999999285,CFD-BF-028-020-HC.jpg,1500,dash,I,m,928,3,1,16283.299999952316,846159.3999999762,9018,ATS,A,7
7,test,4,C,haborder.png,1,m,Thu May 29 2025 17:06:55 GMT-0400 (Eastern Daylight Time),864209.2999999523,CFD-WM-004-005-HC.jpg,1000,solid,I,m,747,12,1,18049.899999976158,846159.3999999762,9018,ATS,A,8
8,test,4,C,haborder.png,1,z,Thu May 29 2025 17:06:55 GMT-0400 (Eastern Daylight Time),867292.7999999523,CFD-BF-039-039-A.jpg,1900,solid,I,z,1151,8,1,21133.399999976158,846159.3999999762,9018,ATS,A,9
9,test,4,C,haborder.png,1,z,Thu May 29 2025 17:06:55 GMT-0400 (Eastern Daylight Time),869376.0,CFD-BF-023-013-A.jpg,1400,solid,I,z,648,7,1,23216.600000023842,846159.3999999762,9018,ATS,A,10
10,test,4,C,haborder.png,1,z,Thu May 29 2025 17:06:55 GMT-0400 (Eastern Daylight Time),871926.1000000238,CFD-BF-039-039-A.jpg,1900,solid,I,z,616,8,1,25766.700000047684,846159.3999999762,9018,ATS,A,11
11,test,4,C,mfborder.png,1,m,Thu May 29 2025 17:06:55 GMT-0400 (Eastern Daylight Time),875259.3999999762,CFD-BM-005-010-A.jpg,2000,dash,I,m,1303,5,1,29100.0,846159.3999999762,9018,ATS,A,12
12,test,4,C,haborder.png,1,z,Thu May 29 2025 17:06:55 GMT-0400 (Eastern Daylight Time),878042.6999999285,CFD-BF-023-013-A.jpg,1400,solid,I,z,1362,7,1,31883.299999952316,846159.3999999762,9018,ATS,A,13
13,test,4,C,mfborder.png,1,z,Thu May 29 2025 17:06:55 GMT-0400 (Eastern Daylight Time),880759.5,CFD-WF-017-016-HC.jpg,1700,dash,I,z,973,1,1,34600.10000002384,846159.3999999762,9018,ATS,A,14
14,test,4,C,haborder.png,1,m,Thu May 29 2025 17:06:55 GMT-0400 (Eastern Daylight Time),883259.5,CFD-WM-004-005-HC.jpg,1500,solid,I,m,961,11,1,37100.10000002384,846159.3999999762,9018,ATS,A,15
15,test,4,C,haborder.png,1,m,Thu May 29 2025 17:06:55 GMT-0400 (Eastern Daylight Time),885709.5,CFD-BM-029-026-HC.jpg,1600,solid,I,m,817,10,1,39550.10000002384,846159.3999999762,9018,ATS,A,16
16,test,4,C,mfborder.png,1,m,Thu May 29 2025 17:06:55 GMT-0400 (Eastern Daylight Time),887359.5,CFD-BM-017-052-HC.jpg,1000,dash,I,m,615,4,1,41200.10000002384,846159.3999999762,9018,ATS,A,17
17,test,4,C,mfborder.png,1,m,Thu May 29 2025 17:06:55 GMT-0400 (Eastern Daylight Time),890409.2999999523,CFD-BM-005-010-A.jpg,2000,dash,I,m,1022,5,1,44249.89999997616,846159.3999999762,9018,ATS,A,18
18,test,4,C,haborder.png,1,z,Thu May 29 2025 17:06:55 GMT-0400 (Eastern Daylight Time),892826.1000000238,CFD-WF-003-014-A.jpg,1700,solid,I,z,697,9,1,46666.700000047684,846159.3999999762,9018,ATS,A,19
19,test,4,C,mfborder.png,1,z,Thu May 29 2025 17:06:55 GMT-0400 (Eastern Daylight Time),895376.1999999285,CFD-BF-028-020-HC.jpg,1500,dash,I,z,1015,3,1,49216.799999952316,846159.3999999762,9018,ATS,A,20
20,test,4,C,mfborder.png,1,z,Thu May 29 2025 17:06:55 GMT-0400 (Eastern Daylight Time),897892.8999999762,CFD-WF-019-015-A.jpg,1600,dash,I,z,877,2,1,51733.5,846159.3999999762,9018,ATS,A,21
21,test,4,C,mfborder.png,1,z,Thu May 29 2025 17:06:55 GMT-0400 (Eastern Daylight Time),900276.1000000238,CFD-WF-017-016-HC.jpg,1700,dash,I,z,645,1,1,54116.700000047684,846159.3999999762,9018,ATS,A,22
22,test,4,C,haborder.png,1,z,Thu May 29 2025 17:06:55 GMT-0400 (Eastern Daylight Time),902626.1000000238,CFD-WF-003-014-A.jpg,1700,solid,I,z,629,9,1,56466.700000047684,846159.3999999762,9018,ATS,A,23
23,test,4,C,haborder.png,1,m,Thu May 29 2025 17:06:55 GMT-0400 (Eastern Daylight Time),904976.0,CFD-WM-004-005-HC.jpg,1000,solid,I,m,1322,12,1,58816.60000002384,846159.3999999762,9018,ATS,A,24
