acc_sum,block,block_c,condition,correct,correct_response,datetime,endtime,flanker,jitter,project,response,response_test_buffer_response,response_test_target_response,response_time,response_time_test_buffer_response,response_time_test_target_response,row_sel,session_number,start_end,starttime,subject_id,target,task,task_vers,time_test_buffer,time_test_buffer_response,time_test_constants,time_test_flanker,time_test_jitter,time_test_logger,time_test_target,time_test_target_response,time_test_variables,trial
0,prac,1,con,0,m,Fri May 15 2026 09:03:05 GMT-0400 (Eastern Daylight Time),176001.39999985695,gold,800,I,z,,,593,,,13,2,2690.2999999523163,173311.09999990463,9057,gold,NF,C,,,,,,,,,,1
1,prac,1,inc,1,m,Fri May 15 2026 09:03:05 GMT-0400 (Eastern Daylight Time),178984.5,plum,1100,I,m,,,570,,,16,2,2969.5,176015.0,9057,lead,NF,C,,,,,,,,,,2
2,prac,1,inc,1,m,Fri May 15 2026 09:03:05 GMT-0400 (Eastern Daylight Time),182117.79999995232,raisin,1100,I,m,,,724,,,12,2,3119.7000000476837,178998.09999990463,9057,cobalt,NF,C,,,,,,,,,,3
3,prac,1,con,1,z,Fri May 15 2026 09:03:05 GMT-0400 (Eastern Daylight Time),184934.29999995232,orange,1000,I,z,,,506,,,3,2,2804.0,182130.29999995232,9057,orange,NF,C,,,,,,,,,,4
4,prac,1,inc,1,z,Fri May 15 2026 09:03:05 GMT-0400 (Eastern Daylight Time),187951.0,lead,1100,I,z,,,612,,,8,2,3007.100000143051,184943.89999985695,9057,plum,NF,C,,,,,,,,,,5
5,prac,1,con,1,m,Fri May 15 2026 09:03:05 GMT-0400 (Eastern Daylight Time),190734.39999985695,zinc,1000,I,m,,,480,,,15,2,2772.5,187961.89999985695,9057,zinc,NF,C,,,,,,,,,,6
6,prac,1,inc,1,m,Fri May 15 2026 09:03:05 GMT-0400 (Eastern Daylight Time),193501.09999990463,cherry,900,I,m,,,550,,,10,2,2757.2000000476837,190743.89999985695,9057,copper,NF,C,,,,,,,,,,7
7,prac,1,inc,1,z,Fri May 15 2026 09:03:05 GMT-0400 (Eastern Daylight Time),196201.09999990463,iron,900,I,z,,,486,,,6,2,2690.399999856949,193510.70000004768,9057,pear,NF,C,,,,,,,,,,8
8,prac,1,con,1,z,Fri May 15 2026 09:03:05 GMT-0400 (Eastern Daylight Time),198734.5,lime,800,I,z,,,430,,,5,2,2523.7000000476837,196210.79999995232,9057,lime,NF,C,,,,,,,,,,9
9,prac,1,con,1,z,Fri May 15 2026 09:03:05 GMT-0400 (Eastern Daylight Time),201551.09999990463,kiwi,1000,I,z,,,513,,,7,2,2803.899999856949,198747.20000004768,9057,kiwi,NF,C,,,,,,,,,,10
10,prac,1,inc,1,z,Fri May 15 2026 09:03:05 GMT-0400 (Eastern Daylight Time),204301.09999990463,copper,900,I,z,,,548,,,2,2,2740.0,201561.09999990463,9057,cherry,NF,C,,,,,,,,,,11
11,prac,1,con,1,z,Fri May 15 2026 09:03:05 GMT-0400 (Eastern Daylight Time),206851.09999990463,banana,800,I,z,,,442,,,1,2,2537.7000000476837,204313.39999985695,9057,banana,NF,C,,,,,,,,,,12
12,prac,1,con,1,m,Fri May 15 2026 09:03:05 GMT-0400 (Eastern Daylight Time),209551.0,silver,1000,I,m,,,396,,,11,2,2690.7000000476837,206860.29999995232,9057,silver,NF,C,,,,,,,,,,13
13,prac,1,inc,1,z,Fri May 15 2026 09:03:05 GMT-0400 (Eastern Daylight Time),212434.5,cobalt,1100,I,z,,,476,,,4,2,2870.9000000953674,209563.59999990463,9057,raisin,NF,C,,,,,,,,,,14
14,prac,1,inc,1,m,Fri May 15 2026 09:03:05 GMT-0400 (Eastern Daylight Time),215101.09999990463,pear,900,I,m,,,465,,,14,2,2657.0999999046326,212444.0,9057,iron,NF,C,,,,,,,,,,15
15,prac,1,con,1,m,Fri May 15 2026 09:03:05 GMT-0400 (Eastern Daylight Time),217634.29999995232,bronze,800,I,m,,,426,,,9,2,2523.4000000953674,215110.89999985695,9057,bronze,NF,C,,,,,,,,,,16
1,test,1,inc,1,m,Fri May 15 2026 09:03:05 GMT-0400 (Eastern Daylight Time),247434.5,kiwi,1000,I,m,m,None,504,304.0,200.0,103,2,2042.1000001430511,245392.39999985695,9057,gold,NF,C,242717,242717,240991,242000,240992,243034,242517,242517,243033,1
2,test,1,inc,1,m,Fri May 15 2026 09:03:05 GMT-0400 (Eastern Daylight Time),249284.29999995232,banana,800,I,m,m,None,510,310.0,200.0,77,2,1838.2000000476837,247446.09999990463,9057,copper,NF,C,244567,244567,243045,243850,243045,244883,244367,244367,244883,2
3,test,1,con,1,m,Fri May 15 2026 09:03:05 GMT-0400 (Eastern Daylight Time),251067.59999990463,bronze,800,I,m,m,None,435,236.0,199.0,65,2,1770.5999999046326,249297.0,9057,bronze,NF,C,246417,246417,244896,245700,244896,246667,246217,246217,246667,3
4,test,1,inc,1,m,Fri May 15 2026 09:03:05 GMT-0400 (Eastern Daylight Time),253051.0,kiwi,1000,I,m,m,None,436,236.0,200.0,127,2,1974.4000000953674,251076.59999990463,9057,lead,NF,C,248400,248401,246676,247684,246676,248650,248200,248200,248650,4
5,test,1,inc,1,z,Fri May 15 2026 09:03:05 GMT-0400 (Eastern Daylight Time),254867.5,gold,800,I,z,z,None,476,277.0,199.0,61,2,1806.9000000953674,253060.59999990463,9057,plum,NF,C,250184,250184,248660,249467,248660,250467,249984,249984,250467,5
6,test,1,con,1,z,Fri May 15 2026 09:03:05 GMT-0400 (Eastern Daylight Time),256950.70000004768,kiwi,1100,I,z,z,None,439,240.0,199.0,52,2,2072.800000190735,254877.89999985695,9057,kiwi,NF,C,252301,252301,250477,251584,250477,252550,252101,252101,252550,6
7,test,1,con,1,z,Fri May 15 2026 09:03:05 GMT-0400 (Eastern Daylight Time),258667.59999990463,pear,800,I,z,z,None,368,169.0,199.0,41,2,1706.5,256961.09999990463,9057,pear,NF,C,254084,254084,252560,253367,252561,254267,253884,253884,254267,7
8,test,1,con,1,z,Fri May 15 2026 09:03:05 GMT-0400 (Eastern Daylight Time),260634.29999995232,raisin,1000,I,z,z,None,419,220.0,199.0,27,2,1956.4000000953674,258677.89999985695,9057,raisin,NF,C,256001,256001,254277,255284,254277,256233,255800,255801,256233,8
9,test,1,inc,1,m,Fri May 15 2026 09:03:05 GMT-0400 (Eastern Daylight Time),262601.0,orange,1000,I,m,m,None,422,222.0,200.0,95,2,1951.7999999523163,260649.20000004768,9057,cobalt,NF,C,257967,257967,256248,257250,256249,258200,257767,257767,258200,9
10,test,1,con,1,m,Fri May 15 2026 09:03:05 GMT-0400 (Eastern Daylight Time),264634.2999999523,gold,1100,I,m,m,None,386,187.0,199.0,100,2,2023.2000000476837,262611.09999990463,9057,gold,NF,C,260034,260034,258210,259317,258210,260233,259834,259834,260233,10
11,test,1,inc,1,z,Fri May 15 2026 09:03:05 GMT-0400 (Eastern Daylight Time),266850.89999985695,lead,1100,I,z,z,None,577,378.0,199.0,56,2,2204.399999856949,264646.5,9057,kiwi,NF,C,262067,262067,260246,261350,260246,262450,261867,261867,262450,11
12,test,1,con,1,m,Fri May 15 2026 09:03:05 GMT-0400 (Eastern Daylight Time),268917.59999990463,zinc,1100,I,m,m,None,424,225.0,199.0,116,2,2057.2000000476837,266860.39999985695,9057,zinc,NF,C,264284,264284,262459,263567,262460,264517,264084,264084,264517,12
13,test,1,inc,1,m,Fri May 15 2026 09:03:05 GMT-0400 (Eastern Daylight Time),270850.89999985695,banana,800,I,m,m,None,593,394.0,199.0,69,2,1925.0,268925.89999985695,9057,bronze,NF,C,266051,266051,264525,265334,264525,266450,265850,265851,266450,13
14,test,1,con,1,m,Fri May 15 2026 09:03:05 GMT-0400 (Eastern Daylight Time),272650.89999985695,zinc,800,I,m,m,None,452,253.0,199.0,113,2,1785.2999999523163,270865.59999990463,9057,zinc,NF,C,267984,267984,266465,267267,266465,268250,267784,267784,268250,14
15,test,1,inc,1,m,Fri May 15 2026 09:03:05 GMT-0400 (Eastern Daylight Time),274550.89999985695,cherry,900,I,m,m,None,456,257.0,199.0,94,2,1891.0999999046326,272659.7999999523,9057,cobalt,NF,C,269884,269884,268259,269167,268259,270150,269684,269684,270150,15
16,test,1,inc,1,z,Fri May 15 2026 09:03:05 GMT-0400 (Eastern Daylight Time),276467.59999990463,copper,900,I,z,z,None,477,278.0,199.0,6,2,1907.2999999523163,274560.2999999523,9057,banana,NF,C,271783,271783,270159,271067,270160,272067,271584,271584,272067,16
17,test,1,inc,1,z,Fri May 15 2026 09:03:05 GMT-0400 (Eastern Daylight Time),278734.7000000477,silver,1000,I,z,z,None,731,532.0,199.0,31,2,2255.0,276479.7000000477,9057,raisin,NF,C,273801,273801,272079,273084,272079,274334,273601,273601,274334,17
18,test,1,con,1,m,Fri May 15 2026 09:03:05 GMT-0400 (Eastern Daylight Time),280684.39999985695,iron,800,I,m,m,None,602,402.0,200.0,105,2,1940.3999998569489,278744.0,9057,iron,NF,C,275867,275867,274343,275151,274343,276283,275667,275667,276283,18
19,test,1,con,1,m,Fri May 15 2026 09:03:05 GMT-0400 (Eastern Daylight Time),283034.2999999523,copper,1000,I,m,m,None,804,604.0,200.0,75,2,2339.9000000953674,280694.39999985695,9057,copper,NF,C,278017,278017,276293,277300,276294,278633,277817,277817,278633,19
20,test,1,con,1,m,Fri May 15 2026 09:03:05 GMT-0400 (Eastern Daylight Time),285101.0,bronze,1100,I,m,m,None,418,218.0,200.0,68,2,2056.9000000953674,283044.09999990463,9057,bronze,NF,C,280467,280467,278643,279750,278644,280700,280267,280267,280700,20
21,test,1,con,1,z,Fri May 15 2026 09:03:05 GMT-0400 (Eastern Daylight Time),287084.2999999523,banana,1000,I,z,z,None,434,235.0,199.0,3,2,1970.7000000476837,285113.59999990463,9057,banana,NF,C,282434,282434,280713,281717,280713,282683,282234,282234,282683,21
22,test,1,con,1,z,Fri May 15 2026 09:03:05 GMT-0400 (Eastern Daylight Time),289067.59999990463,kiwi,1000,I,z,z,None,436,236.0,200.0,51,2,1972.7999999523163,287094.7999999523,9057,kiwi,NF,C,284417,284417,282694,283700,282694,284667,284217,284217,284667,22
23,test,1,con,1,m,Fri May 15 2026 09:03:05 GMT-0400 (Eastern Daylight Time),290934.2999999523,cobalt,900,I,m,m,None,423,224.0,199.0,90,2,1857.0,289077.2999999523,9057,cobalt,NF,C,286301,286301,284676,285584,284677,286533,286101,286101,286533,23
24,test,1,con,1,m,Fri May 15 2026 09:03:05 GMT-0400 (Eastern Daylight Time),293117.59999990463,iron,1000,I,m,m,None,634,434.0,200.0,107,2,2173.5,290944.09999990463,9057,iron,NF,C,288267,288267,286543,287550,286544,288717,288067,288067,288717,24
25,test,1,con,1,m,Fri May 15 2026 09:03:05 GMT-0400 (Eastern Daylight Time),294984.2999999523,silver,900,I,m,m,None,421,222.0,199.0,82,2,1858.5,293125.7999999523,9057,silver,NF,C,290351,290351,288725,289634,288725,290583,290150,290151,290583,25
25,test,1,con,0,z,Fri May 15 2026 09:03:05 GMT-0400 (Eastern Daylight Time),297100.89999985695,cherry,1100,I,m,m,None,468,268.0,200.0,12,2,2107.699999809265,294993.2000000477,9057,cherry,NF,C,292417,292417,290592,291701,290593,292700,292217,292217,292700,26
26,test,1,con,1,m,Fri May 15 2026 09:03:05 GMT-0400 (Eastern Daylight Time),298917.59999990463,silver,800,I,m,m,None,474,275.0,199.0,81,2,1807.2000000476837,297110.39999985695,9057,silver,NF,C,294234,294234,292709,293517,292710,294517,294034,294034,294517,27
27,test,1,inc,1,z,Fri May 15 2026 09:03:05 GMT-0400 (Eastern Daylight Time),301001.0,cobalt,1100,I,z,z,None,439,239.0,200.0,8,2,2074.7000000476837,298926.2999999523,9057,banana,NF,C,296350,296351,294525,295634,294526,296600,296150,296150,296600,28
28,test,1,inc,1,z,Fri May 15 2026 09:03:05 GMT-0400 (Eastern Daylight Time),303034.2999999523,copper,900,I,z,z,None,586,387.0,199.0,30,2,2024.0,301010.2999999523,9057,raisin,NF,C,298234,298234,296609,297517,296610,298633,298034,298034,298633,29
29,test,1,inc,1,z,Fri May 15 2026 09:03:05 GMT-0400 (Eastern Daylight Time),305134.5,silver,1000,I,z,z,None,566,366.0,200.0,7,2,2090.9000000953674,303043.59999990463,9057,banana,NF,C,300367,300367,298643,299650,298643,300734,300167,300167,300734,30
30,test,1,inc,1,z,Fri May 15 2026 09:03:05 GMT-0400 (Eastern Daylight Time),307317.59999990463,zinc,1000,I,z,z,None,642,442.0,200.0,39,2,2174.899999856949,305142.7000000477,9057,lime,NF,C,302467,302467,300742,301750,300742,302917,302267,302267,302917,31
31,test,1,inc,1,m,Fri May 15 2026 09:03:05 GMT-0400 (Eastern Daylight Time),309300.89999985695,lime,800,I,m,m,None,642,442.0,200.0,125,2,1972.8999998569489,307328.0,9057,lead,NF,C,304450,304451,302927,303734,302927,304900,304250,304250,304900,32
32,test,1,con,1,m,Fri May 15 2026 09:03:05 GMT-0400 (Eastern Daylight Time),311584.0,gold,900,I,m,m,None,847,648.0,199.0,98,2,2273.7999999523163,309310.2000000477,9057,gold,NF,C,306534,306534,304909,305817,304909,307183,306334,306334,307183,33
33,test,1,inc,1,z,Fri May 15 2026 09:03:05 GMT-0400 (Eastern Daylight Time),313651.0,silver,1000,I,z,z,None,528,328.0,200.0,23,2,2058.0,311593.0,9057,orange,NF,C,308917,308917,307192,308200,307192,309250,308717,308717,309250,34
34,test,1,inc,1,z,Fri May 15 2026 09:03:05 GMT-0400 (Eastern Daylight Time),315600.89999985695,bronze,800,I,z,z,None,612,413.0,199.0,29,2,1940.6999998092651,313660.2000000477,9057,raisin,NF,C,310784,310784,309259,310067,309260,311200,310584,310584,311200,35
35,test,1,inc,1,z,Fri May 15 2026 09:03:05 GMT-0400 (Eastern Daylight Time),317934.2999999523,lead,1100,I,z,z,None,682,483.0,199.0,40,2,2322.5999999046326,315611.7000000477,9057,lime,NF,C,313034,313034,311211,312317,311211,313533,312834,312834,313533,36
36,test,1,inc,1,m,Fri May 15 2026 09:03:05 GMT-0400 (Eastern Daylight Time),320167.59999990463,plum,1100,I,m,m,None,590,390.0,200.0,120,2,2221.5999999046326,317946.0,9057,zinc,NF,C,315367,315367,313545,314650,313545,315767,315167,315167,315767,37
37,test,1,con,1,z,Fri May 15 2026 09:03:05 GMT-0400 (Eastern Daylight Time),322451.0,cherry,900,I,z,z,None,844,645.0,199.0,10,2,2274.100000143051,320176.89999985695,9057,cherry,NF,C,317401,317401,315776,316684,315776,318050,317200,317201,318050,38
38,test,1,inc,1,z,Fri May 15 2026 09:03:05 GMT-0400 (Eastern Daylight Time),324467.59999990463,copper,900,I,z,z,None,576,377.0,199.0,14,2,2007.5,322460.09999990463,9057,cherry,NF,C,319684,319684,318059,318967,318059,320067,319484,319484,320067,39
39,test,1,inc,1,z,Fri May 15 2026 09:03:05 GMT-0400 (Eastern Daylight Time),326734.59999990463,cobalt,1100,I,z,z,None,632,432.0,200.0,32,2,2258.399999856949,324476.2000000477,9057,raisin,NF,C,321900,321901,320075,321184,320076,322334,321700,321700,322334,40
40,test,1,con,1,z,Fri May 15 2026 09:03:05 GMT-0400 (Eastern Daylight Time),328651.09999990463,plum,800,I,z,z,None,570,370.0,200.0,57,2,1908.0999999046326,326743.0,9057,plum,NF,C,323867,323867,322342,323150,322342,324250,323667,323667,324250,41
41,test,1,inc,1,m,Fri May 15 2026 09:03:05 GMT-0400 (Eastern Daylight Time),330717.59999990463,cherry,900,I,m,m,None,616,417.0,199.0,70,2,2055.7000000476837,328661.89999985695,9057,bronze,NF,C,325884,325884,324261,325167,324261,326317,325684,325684,326317,42
42,test,1,inc,1,z,Fri May 15 2026 09:03:05 GMT-0400 (Eastern Daylight Time),332951.0,iron,900,I,z,z,None,790,591.0,199.0,38,2,2224.2000000476837,330726.7999999523,9057,lime,NF,C,327951,327951,326326,327234,326326,328550,327750,327751,328550,43
43,test,1,inc,1,z,Fri May 15 2026 09:03:05 GMT-0400 (Eastern Daylight Time),335401.0,cobalt,1100,I,z,z,None,804,605.0,199.0,16,2,2434.9000000953674,332966.09999990463,9057,cherry,NF,C,330384,330384,328565,329667,328565,331000,330184,330184,331000,44
44,test,1,inc,1,z,Fri May 15 2026 09:03:05 GMT-0400 (Eastern Daylight Time),337334.2999999523,gold,800,I,z,z,None,590,391.0,199.0,53,2,1923.7999999523163,335410.5,9057,kiwi,NF,C,332534,332534,331009,331817,331010,332933,332334,332334,332933,45
45,test,1,inc,1,z,Fri May 15 2026 09:03:05 GMT-0400 (Eastern Daylight Time),339234.2999999523,bronze,800,I,z,z,None,562,362.0,200.0,5,2,1891.2999999523163,337343.0,9057,banana,NF,C,334467,334467,332942,333750,332943,334833,334267,334267,334833,46
46,test,1,con,1,z,Fri May 15 2026 09:03:05 GMT-0400 (Eastern Daylight Time),341417.59999990463,orange,1000,I,z,z,None,638,438.0,200.0,19,2,2173.0,339244.59999990463,9057,orange,NF,C,336567,336567,334844,335850,334844,337017,336367,336367,337017,47
47,test,1,inc,1,m,Fri May 15 2026 09:03:05 GMT-0400 (Eastern Daylight Time),343600.7000000477,orange,1000,I,m,m,None,647,447.0,200.0,71,2,2174.2000000476837,341426.5,9057,bronze,NF,C,338751,338751,337026,338034,337026,339200,338550,338550,339200,48
48,test,1,inc,1,m,Fri May 15 2026 09:03:05 GMT-0400 (Eastern Daylight Time),345751.0,pear,900,I,m,m,None,706,507.0,199.0,118,2,2142.0,343609.0,9057,zinc,NF,C,340834,340834,339208,340117,339208,341350,340634,340634,341350,49
49,test,1,inc,1,m,Fri May 15 2026 09:03:05 GMT-0400 (Eastern Daylight Time),347734.39999985695,cherry,900,I,m,m,None,540,341.0,199.0,78,2,1971.5999999046326,345762.7999999523,9057,copper,NF,C,342984,342984,341362,342267,341362,343334,342784,342784,343333,50
50,test,1,con,1,z,Fri May 15 2026 09:03:05 GMT-0400 (Eastern Daylight Time),349784.2999999523,banana,900,I,z,z,None,606,406.0,200.0,2,2,2040.4000000953674,347743.89999985695,9057,banana,NF,C,344967,344967,343343,344250,343343,345383,344767,344767,345383,51
51,test,1,con,1,z,Fri May 15 2026 09:03:05 GMT-0400 (Eastern Daylight Time),351917.7000000477,banana,1100,I,z,z,None,484,284.0,200.0,4,2,2123.0,349794.7000000477,9057,banana,NF,C,347217,347217,345394,346500,345394,347517,347017,347017,347517,52
52,test,1,inc,1,m,Fri May 15 2026 09:03:05 GMT-0400 (Eastern Daylight Time),353851.0,pear,900,I,m,m,None,486,287.0,199.0,102,2,1923.5,351927.5,9057,gold,NF,C,349151,349151,347527,348434,347527,349450,348950,348951,349450,53
53,test,1,con,1,z,Fri May 15 2026 09:03:05 GMT-0400 (Eastern Daylight Time),355767.7000000477,orange,800,I,z,z,None,572,373.0,199.0,17,2,1906.7000000476837,353861.0,9057,orange,NF,C,350984,350984,349460,350267,349460,351367,350784,350784,351367,54
54,test,1,inc,1,m,Fri May 15 2026 09:03:05 GMT-0400 (Eastern Daylight Time),358001.0,raisin,1100,I,m,m,None,596,396.0,200.0,80,2,2224.0,355777.0,9057,copper,NF,C,353200,353201,351376,352484,351376,353600,353000,353000,353600,55
55,test,1,con,1,m,Fri May 15 2026 09:03:05 GMT-0400 (Eastern Daylight Time),360434.2000000477,lead,1000,I,m,m,None,894,695.0,199.0,123,2,2423.600000143051,358010.59999990463,9057,lead,NF,C,355334,355334,353610,354617,353610,356033,355134,355134,356033,56
56,test,1,inc,1,m,Fri May 15 2026 09:03:05 GMT-0400 (Eastern Daylight Time),362651.0,plum,1100,I,m,m,None,570,370.0,200.0,128,2,2207.2000000476837,360443.7999999523,9057,lead,NF,C,357867,357867,356043,357150,356043,358250,357667,357667,358250,57
57,test,1,inc,1,m,Fri May 15 2026 09:03:05 GMT-0400 (Eastern Daylight Time),364800.7999999523,pear,900,I,m,m,None,713,514.0,199.0,110,2,2140.5999999046326,362660.2000000477,9057,iron,NF,C,359884,359884,358259,359167,358260,360400,359684,359684,360400,58
58,test,1,con,1,z,Fri May 15 2026 09:03:05 GMT-0400 (Eastern Daylight Time),366917.59999990463,pear,1100,I,z,z,None,474,275.0,199.0,44,2,2107.7000000476837,364809.89999985695,9057,pear,NF,C,362234,362234,360409,361517,360409,362517,362034,362034,362517,59
59,test,1,inc,1,z,Fri May 15 2026 09:03:05 GMT-0400 (Eastern Daylight Time),368817.5,bronze,800,I,z,z,None,562,362.0,200.0,13,2,1888.2999999523163,366929.2000000477,9057,cherry,NF,C,364051,364051,362528,363334,362529,364417,363850,363850,364417,60
60,test,1,inc,1,m,Fri May 15 2026 09:03:05 GMT-0400 (Eastern Daylight Time),370951.0,raisin,1100,I,m,m,None,490,290.0,200.0,72,2,2124.100000143051,368826.89999985695,9057,bronze,NF,C,366251,366251,364426,365534,364426,366550,366050,366050,366550,61
61,test,1,con,1,z,Fri May 15 2026 09:03:05 GMT-0400 (Eastern Daylight Time),373200.89999985695,plum,1000,I,z,z,None,712,513.0,199.0,59,2,2240.899999856949,370960.0,9057,plum,NF,C,368284,368284,366559,367567,366559,368800,368084,368084,368800,62
62,test,1,inc,1,m,Fri May 15 2026 09:03:05 GMT-0400 (Eastern Daylight Time),375051.0,lime,800,I,m,m,None,503,304.0,199.0,109,2,1840.5,373210.5,9057,iron,NF,C,370334,370334,368810,369617,368810,370650,370134,370134,370650,63
63,test,1,con,1,m,Fri May 15 2026 09:03:05 GMT-0400 (Eastern Daylight Time),377417.7000000477,gold,1000,I,m,m,None,820,621.0,199.0,99,2,2357.4000000953674,375060.2999999523,9057,gold,NF,C,372384,372384,370659,371667,370660,373017,372184,372184,373017,64
64,test,1,con,1,m,Fri May 15 2026 09:03:05 GMT-0400 (Eastern Daylight Time),379667.7000000477,silver,1100,I,m,m,None,610,410.0,200.0,84,2,2240.600000143051,377427.09999990463,9057,silver,NF,C,374851,374851,373026,374134,373026,375267,374650,374650,375267,65
65,test,1,con,1,z,Fri May 15 2026 09:03:05 GMT-0400 (Eastern Daylight Time),381634.2999999523,pear,900,I,z,z,None,528,328.0,200.0,42,2,1956.7000000476837,379677.59999990463,9057,pear,NF,C,376901,376901,375277,376184,375277,377233,376700,376700,377233,66
66,test,1,con,1,m,Fri May 15 2026 09:03:05 GMT-0400 (Eastern Daylight Time),383884.2999999523,cobalt,1000,I,m,m,None,702,502.0,200.0,91,2,2239.4000000953674,381644.89999985695,9057,cobalt,NF,C,378967,378967,377244,378250,377244,379483,378767,378767,379483,67
67,test,1,con,1,m,Fri May 15 2026 09:03:05 GMT-0400 (Eastern Daylight Time),385984.09999990463,iron,900,I,m,m,None,665,465.0,200.0,106,2,2090.399999856949,383893.7000000477,9057,iron,NF,C,381117,381117,379493,380400,379493,381583,380917,380917,381583,68
68,test,1,inc,1,z,Fri May 15 2026 09:03:05 GMT-0400 (Eastern Daylight Time),388017.59999990463,copper,900,I,z,z,None,596,396.0,200.0,22,2,2021.5999999046326,385996.0,9057,orange,NF,C,383217,383217,381595,382501,381595,383617,383017,383017,383617,69
68,test,1,inc,0,z,Fri May 15 2026 09:03:05 GMT-0400 (Eastern Daylight Time),390201.0,iron,900,I,m,m,None,737,538.0,199.0,62,2,2172.5,388028.5,9057,plum,NF,C,385250,385251,383628,384534,383628,385800,385050,385051,385800,70
69,test,1,con,1,m,Fri May 15 2026 09:03:05 GMT-0400 (Eastern Daylight Time),392450.89999985695,copper,1100,I,m,m,None,610,411.0,199.0,76,2,2242.0999999046326,390208.7999999523,9057,copper,NF,C,387634,387634,385808,386917,385808,388050,387434,387434,388050,71
70,test,1,con,1,m,Fri May 15 2026 09:03:05 GMT-0400 (Eastern Daylight Time),394400.89999985695,gold,800,I,m,m,None,612,413.0,199.0,97,2,1939.6999998092651,392461.2000000477,9057,gold,NF,C,389584,389584,388060,388867,388061,390000,389384,389384,390000,72
71,test,1,inc,1,z,Fri May 15 2026 09:03:05 GMT-0400 (Eastern Daylight Time),396434.2999999523,zinc,1000,I,z,z,None,495,296.0,199.0,63,2,2024.0,394410.2999999523,9057,plum,NF,C,391734,391734,390009,391017,390010,392033,391534,391534,392033,73
72,test,1,inc,1,m,Fri May 15 2026 09:03:05 GMT-0400 (Eastern Daylight Time),398634.09999990463,plum,1100,I,m,m,None,553,353.0,200.0,112,2,2190.7000000476837,396443.39999985695,9057,iron,NF,C,393867,393867,392042,393150,392043,394233,393667,393667,394233,74
73,test,1,inc,1,m,Fri May 15 2026 09:03:05 GMT-0400 (Eastern Daylight Time),400651.0,banana,800,I,m,m,None,670,470.0,200.0,93,2,2011.7999999523163,398639.2000000477,9057,cobalt,NF,C,395767,395767,394238,395050,394238,396250,395567,395567,396250,75
74,test,1,inc,1,z,Fri May 15 2026 09:03:05 GMT-0400 (Eastern Daylight Time),402801.0,zinc,1000,I,z,z,None,613,414.0,199.0,55,2,2140.5,400660.5,9057,kiwi,NF,C,397983,397983,396260,397267,396260,398400,397784,397784,398400,76
75,test,1,con,1,m,Fri May 15 2026 09:03:05 GMT-0400 (Eastern Daylight Time),404834.2999999523,copper,900,I,m,m,None,594,395.0,199.0,74,2,2024.5,402809.7999999523,9057,copper,NF,C,400034,400034,398409,399317,398409,400434,399834,399834,400433,77
76,test,1,con,1,z,Fri May 15 2026 09:03:05 GMT-0400 (Eastern Daylight Time),407017.5,plum,1100,I,z,z,None,539,339.0,200.0,60,2,2173.100000143051,404844.39999985695,9057,plum,NF,C,402267,402267,400443,401550,400444,402617,402067,402067,402617,78
77,test,1,inc,1,z,Fri May 15 2026 09:03:05 GMT-0400 (Eastern Daylight Time),409301.0,zinc,1000,I,z,z,None,741,542.0,199.0,47,2,2274.0,407027.0,9057,pear,NF,C,404351,404351,402626,403634,402626,404900,404151,404151,404900,79
78,test,1,con,1,m,Fri May 15 2026 09:03:05 GMT-0400 (Eastern Daylight Time),411534.39999985695,silver,1000,I,m,m,None,683,484.0,199.0,83,2,2224.0,409310.39999985695,9057,silver,NF,C,406634,406634,404909,405917,404910,407133,406434,406434,407133,80
79,test,1,con,1,m,Fri May 15 2026 09:03:05 GMT-0400 (Eastern Daylight Time),413684.2999999523,bronze,1000,I,m,m,None,610,410.0,200.0,67,2,2139.4000000953674,411544.89999985695,9057,bronze,NF,C,408867,408867,407144,408150,407144,409283,408667,408667,409283,81
80,test,1,inc,1,m,Fri May 15 2026 09:03:05 GMT-0400 (Eastern Daylight Time),415734.2999999523,lime,800,I,m,m,None,708,508.0,200.0,101,2,2039.7000000476837,413694.59999990463,9057,gold,NF,C,410817,410817,409294,410101,409294,411333,410617,410617,411333,82
81,test,1,con,1,m,Fri May 15 2026 09:03:05 GMT-0400 (Eastern Daylight Time),417917.7999999523,iron,1100,I,m,m,None,534,334.0,200.0,108,2,2171.2999999523163,415746.5,9057,iron,NF,C,413167,413167,411346,412450,411346,413517,412967,412967,413517,83
82,test,1,con,1,z,Fri May 15 2026 09:03:05 GMT-0400 (Eastern Daylight Time),419851.09999990463,banana,800,I,z,z,None,585,386.0,199.0,1,2,1925.0,417926.09999990463,9057,banana,NF,C,415051,415051,413525,414334,413525,415450,414851,414851,415450,84
83,test,1,inc,1,m,Fri May 15 2026 09:03:05 GMT-0400 (Eastern Daylight Time),422234.2999999523,orange,1000,I,m,m,None,836,637.0,199.0,79,2,2373.9000000953674,419860.39999985695,9057,copper,NF,C,417184,417184,415459,416467,415460,417833,416984,416984,417833,85
84,test,1,inc,1,z,Fri May 15 2026 09:03:05 GMT-0400 (Eastern Daylight Time),424201.0,gold,800,I,z,z,None,622,422.0,200.0,45,2,1957.4000000953674,422243.59999990463,9057,pear,NF,C,419367,419367,417843,418650,417843,419800,419167,419167,419800,86
85,test,1,con,1,m,Fri May 15 2026 09:03:05 GMT-0400 (Eastern Daylight Time),426151.09999990463,lead,900,I,m,m,None,506,307.0,199.0,122,2,1938.7000000476837,424212.39999985695,9057,lead,NF,C,421434,421434,419811,420717,419812,421750,421234,421234,421750,87
86,test,1,con,1,z,Fri May 15 2026 09:03:05 GMT-0400 (Eastern Daylight Time),428251.0,lime,1100,I,z,z,None,453,254.0,199.0,36,2,2090.600000143051,426160.39999985695,9057,lime,NF,C,423584,423584,421759,422867,421760,423850,423384,423384,423850,88
87,test,1,con,1,m,Fri May 15 2026 09:03:05 GMT-0400 (Eastern Daylight Time),430267.7999999523,bronze,900,I,m,m,None,568,369.0,199.0,66,2,2007.2000000476837,428260.59999990463,9057,bronze,NF,C,425484,425484,423860,424767,423860,425867,425284,425284,425867,89
88,test,1,con,1,z,Fri May 15 2026 09:03:05 GMT-0400 (Eastern Daylight Time),432417.59999990463,orange,900,I,z,z,None,711,512.0,199.0,18,2,2139.7000000476837,430277.89999985695,9057,orange,NF,C,427501,427501,425877,426784,425877,428017,427300,427301,428017,90
89,test,1,con,1,z,Fri May 15 2026 09:03:05 GMT-0400 (Eastern Daylight Time),434267.7999999523,lime,800,I,z,z,None,501,302.0,199.0,33,2,1838.2000000476837,432429.59999990463,9057,lime,NF,C,429551,429551,428029,428834,428029,429867,429351,429351,429867,91
90,test,1,con,1,z,Fri May 15 2026 09:03:05 GMT-0400 (Eastern Daylight Time),436151.09999990463,raisin,900,I,z,z,None,439,240.0,199.0,26,2,1872.8999998569489,434278.2000000477,9057,raisin,NF,C,431501,431501,429877,430784,429878,431750,431300,431301,431750,92
91,test,1,con,1,z,Fri May 15 2026 09:03:05 GMT-0400 (Eastern Daylight Time),438017.59999990463,plum,900,I,z,z,None,428,229.0,199.0,58,2,1854.3999998569489,436163.2000000477,9057,plum,NF,C,433384,433384,431762,432667,431762,433617,433184,433184,433617,93
92,test,1,inc,1,m,Fri May 15 2026 09:03:05 GMT-0400 (Eastern Daylight Time),440101.0,kiwi,1000,I,m,m,None,542,343.0,199.0,119,2,2074.2999999523163,438026.7000000477,9057,zinc,NF,C,435351,435351,433626,434634,433626,435700,435151,435151,435700,94
93,test,1,con,1,m,Fri May 15 2026 09:03:05 GMT-0400 (Eastern Daylight Time),441934.89999985695,copper,800,I,m,m,None,498,299.0,199.0,73,2,1822.7999999523163,440112.09999990463,9057,copper,NF,C,437234,437234,435711,436517,435711,437534,437034,437034,437534,95
94,test,1,inc,1,z,Fri May 15 2026 09:03:05 GMT-0400 (Eastern Daylight Time),443950.89999985695,iron,900,I,z,z,None,582,382.0,200.0,46,2,2007.5,441943.39999985695,9057,pear,NF,C,439167,439167,437542,438450,437543,439550,438967,438967,439550,96
95,test,1,inc,1,z,Fri May 15 2026 09:03:05 GMT-0400 (Eastern Daylight Time),445984.2999999523,gold,800,I,z,z,None,696,497.0,199.0,37,2,2023.7999999523163,443960.5,9057,lime,NF,C,441084,441084,439560,440367,439560,441583,440884,440884,441583,97
96,test,1,inc,1,z,Fri May 15 2026 09:03:05 GMT-0400 (Eastern Daylight Time),448201.09999990463,lead,1100,I,z,z,None,572,372.0,200.0,64,2,2208.5999999046326,445992.5,9057,plum,NF,C,443417,443417,441592,442700,441592,443800,443217,443217,443800,98
97,test,1,con,1,z,Fri May 15 2026 09:03:05 GMT-0400 (Eastern Daylight Time),450301.09999990463,orange,1100,I,z,z,None,449,250.0,199.0,20,2,2089.399999856949,448211.7000000477,9057,orange,NF,C,445634,445635,443811,444917,443811,445900,445434,445434,445900,99
98,test,1,con,1,z,Fri May 15 2026 09:03:05 GMT-0400 (Eastern Daylight Time),452067.7000000477,raisin,800,I,z,z,None,426,227.0,199.0,25,2,1757.5,450310.2000000477,9057,raisin,NF,C,447434,447434,445909,446717,445910,447667,447234,447234,447667,100
99,test,1,inc,1,z,Fri May 15 2026 09:03:05 GMT-0400 (Eastern Daylight Time),453984.09999990463,bronze,800,I,z,z,None,579,380.0,199.0,21,2,1907.2999999523163,452076.7999999523,9057,orange,NF,C,449201,449201,447676,448484,447676,449583,449001,449001,449583,101
100,test,1,inc,1,z,Fri May 15 2026 09:03:05 GMT-0400 (Eastern Daylight Time),456167.7000000477,silver,1000,I,z,z,None,640,440.0,200.0,15,2,2174.0,453993.7000000477,9057,cherry,NF,C,451317,451317,449593,450600,449593,451767,451117,451117,451767,102
101,test,1,con,1,m,Fri May 15 2026 09:03:05 GMT-0400 (Eastern Daylight Time),458217.7999999523,lead,800,I,m,m,None,703,504.0,199.0,121,2,2039.5999999046326,456178.2000000477,9057,lead,NF,C,453301,453301,451777,452584,451777,453817,453101,453101,453817,103
102,test,1,inc,1,m,Fri May 15 2026 09:03:05 GMT-0400 (Eastern Daylight Time),460351.09999990463,cherry,900,I,m,m,None,682,483.0,199.0,86,2,2118.0999999046326,458233.0,9057,silver,NF,C,455451,455451,453832,454734,453832,455950,455251,455251,455950,104
103,test,1,con,1,z,Fri May 15 2026 09:03:05 GMT-0400 (Eastern Daylight Time),462601.0,raisin,1100,I,z,z,None,604,405.0,199.0,28,2,2240.7000000476837,460360.2999999523,9057,raisin,NF,C,457784,457784,455959,457067,455960,458200,457584,457584,458200,105
104,test,1,inc,1,z,Fri May 15 2026 09:03:05 GMT-0400 (Eastern Daylight Time),464934.39999985695,cobalt,1100,I,z,z,None,690,491.0,199.0,24,2,2324.199999809265,462610.2000000477,9057,orange,NF,C,460034,460034,458209,459317,458210,460534,459834,459834,460533,106
105,test,1,inc,1,m,Fri May 15 2026 09:03:05 GMT-0400 (Eastern Daylight Time),467017.7999999523,pear,900,I,m,m,None,638,438.0,200.0,126,2,2071.5999999046326,464946.2000000477,9057,lead,NF,C,462167,462167,460545,461451,460546,462617,461967,461967,462617,107
106,test,1,inc,1,m,Fri May 15 2026 09:03:05 GMT-0400 (Eastern Daylight Time),469401.09999990463,banana,800,I,m,m,None,1037,838.0,199.0,85,2,2375.0999999046326,467026.0,9057,silver,NF,C,464150,464151,462625,463434,462625,465000,463951,463951,465000,108
107,test,1,con,1,z,Fri May 15 2026 09:03:05 GMT-0400 (Eastern Daylight Time),471551.09999990463,kiwi,800,I,z,z,None,799,600.0,199.0,49,2,2141.2999999523163,469409.7999999523,9057,kiwi,NF,C,466534,466534,465009,465817,465009,467150,466334,466334,467150,109
108,test,1,con,1,z,Fri May 15 2026 09:03:05 GMT-0400 (Eastern Daylight Time),473567.5,kiwi,900,I,z,z,None,580,381.0,199.0,50,2,2006.6000001430511,471560.89999985695,9057,kiwi,NF,C,468784,468784,467160,468067,467160,469167,468584,468584,469167,110
109,test,1,inc,1,m,Fri May 15 2026 09:03:05 GMT-0400 (Eastern Daylight Time),475517.7999999523,lime,800,I,m,m,None,600,400.0,200.0,117,2,1941.9000000953674,473575.89999985695,9057,zinc,NF,C,470701,470701,469175,469984,469175,471117,470500,470500,471117,111
110,test,1,inc,1,z,Fri May 15 2026 09:03:05 GMT-0400 (Eastern Daylight Time),477901.09999990463,iron,900,I,z,z,None,934,734.0,200.0,54,2,2374.7000000476837,475526.39999985695,9057,kiwi,NF,C,472750,472751,471125,472034,471126,473500,472550,472550,473500,112
111,test,1,con,1,m,Fri May 15 2026 09:03:05 GMT-0400 (Eastern Daylight Time),480067.7000000477,cobalt,1100,I,m,m,None,527,328.0,199.0,92,2,2156.4000000953674,477911.2999999523,9057,cobalt,NF,C,475334,475334,473510,474617,473511,475667,475134,475134,475667,113
112,test,1,inc,1,m,Fri May 15 2026 09:03:05 GMT-0400 (Eastern Daylight Time),482534.5,plum,1100,I,m,m,None,825,626.0,199.0,104,2,2458.2000000476837,480076.2999999523,9057,gold,NF,C,477500,477500,475675,476784,475676,478134,477301,477301,478133,114
113,test,1,con,1,z,Fri May 15 2026 09:03:05 GMT-0400 (Eastern Daylight Time),484701.0,lime,1000,I,z,z,None,618,418.0,200.0,35,2,2156.600000143051,482544.39999985695,9057,lime,NF,C,479867,479867,478143,479151,478144,480300,479667,479667,480300,115
114,test,1,inc,1,z,Fri May 15 2026 09:03:05 GMT-0400 (Eastern Daylight Time),487101.09999990463,lead,1100,I,z,z,None,733,534.0,199.0,48,2,2383.899999856949,484717.2000000477,9057,pear,NF,C,482151,482151,480316,481434,480317,482700,481951,481951,482700,116
115,test,1,con,1,m,Fri May 15 2026 09:03:05 GMT-0400 (Eastern Daylight Time),489301.09999990463,zinc,1000,I,m,m,None,658,459.0,199.0,115,2,2185.7999999523163,487115.2999999523,9057,zinc,NF,C,484434,484434,482714,483717,482715,484900,484234,484234,484900,117
116,test,1,con,1,m,Fri May 15 2026 09:03:05 GMT-0400 (Eastern Daylight Time),491267.7000000477,cobalt,800,I,m,m,None,626,427.0,199.0,89,2,1957.3000001907349,489310.39999985695,9057,cobalt,NF,C,486434,486434,484909,485717,484910,486867,486234,486234,486867,118
117,test,1,con,1,z,Fri May 15 2026 09:03:05 GMT-0400 (Eastern Daylight Time),493250.89999985695,lime,900,I,z,z,None,545,345.0,200.0,34,2,1974.0999999046326,491276.7999999523,9057,lime,NF,C,488500,488500,486876,487784,486876,488850,488300,488300,488850,119
118,test,1,inc,1,m,Fri May 15 2026 09:03:05 GMT-0400 (Eastern Daylight Time),495350.5,kiwi,1000,I,m,m,None,556,356.0,200.0,111,2,2093.2000000476837,493257.2999999523,9057,iron,NF,C,490584,490584,488856,489866,488857,490950,490383,490383,490950,120
119,test,1,inc,1,m,Fri May 15 2026 09:03:05 GMT-0400 (Eastern Daylight Time),497600.7000000477,raisin,1100,I,m,m,None,614,414.0,200.0,96,2,2244.9000000953674,495355.7999999523,9057,cobalt,NF,C,492783,492783,490955,492067,490955,493200,492583,492583,493200,121
120,test,1,inc,1,m,Fri May 15 2026 09:03:05 GMT-0400 (Eastern Daylight Time),499851.0,raisin,1100,I,m,m,None,603,403.0,200.0,88,2,2244.7999999523163,497606.2000000477,9057,silver,NF,C,495034,495034,493205,494318,493206,495450,494833,494833,495450,122
121,test,1,con,1,z,Fri May 15 2026 09:03:05 GMT-0400 (Eastern Daylight Time),501850.59999990463,cherry,800,I,z,z,None,654,454.0,200.0,9,2,1984.0,499866.59999990463,9057,cherry,NF,C,496983,496983,495466,496267,495466,497450,496783,496783,497450,123
122,test,1,con,1,z,Fri May 15 2026 09:03:05 GMT-0400 (Eastern Daylight Time),503884.39999985695,pear,1000,I,z,z,None,485,286.0,199.0,43,2,2027.5999999046326,501856.7999999523,9057,pear,NF,C,499184,499184,497456,498467,497456,499483,498984,498984,499483,124
123,test,1,inc,1,m,Fri May 15 2026 09:03:05 GMT-0400 (Eastern Daylight Time),505951.2999999523,orange,1000,I,m,m,None,533,333.0,200.0,87,2,2058.2000000476837,503893.09999990463,9057,silver,NF,C,501217,501217,499492,500501,499492,501550,501017,501017,501550,125
124,test,1,con,1,m,Fri May 15 2026 09:03:05 GMT-0400 (Eastern Daylight Time),507934.59999990463,zinc,900,I,m,m,None,548,349.0,199.0,114,2,1973.7999999523163,505960.7999999523,9057,zinc,NF,C,503184,503184,501560,502467,501560,503534,502984,502984,503534,126
125,test,1,con,1,z,Fri May 15 2026 09:03:05 GMT-0400 (Eastern Daylight Time),510051.09999990463,cherry,1000,I,z,z,None,578,378.0,200.0,11,2,2106.7999999523163,507944.2999999523,9057,cherry,NF,C,505267,505267,503543,504550,503544,505650,505067,505067,505650,127
126,test,1,con,1,m,Fri May 15 2026 09:03:05 GMT-0400 (Eastern Daylight Time),512284.5,lead,1100,I,m,m,None,584,385.0,199.0,124,2,2222.9000000953674,510061.59999990463,9057,lead,NF,C,507484,507484,505661,506767,505661,507884,507284,507284,507883,128
