acc_sum,block,block_c,block_cond,con_img,correct,correct_response,datetime,endtime,face,jitter,line,project,response,response_time,row_sel,session_number,start_end,starttime,subject_id,task,task_vers,trial
1,prac,1,A,haborder.png,1,z,Thu Aug 07 2025 14:48:22 GMT-0500 (Central Daylight Time),41288.199999928474,CFD-WM-009-009-A.jpg,1900,solid,I,z,741,8,2,3432.2999999523163,37855.89999997616,8050,ATS,B,1
2,prac,1,A,haborder.png,1,z,Thu Aug 07 2025 14:48:22 GMT-0500 (Central Daylight Time),43720.799999952316,CFD-BF-051-043-A.jpg,1000,solid,I,z,633,4,2,5864.899999976158,37855.89999997616,8050,ATS,B,2
3,prac,1,A,haborder.png,1,m,Thu Aug 07 2025 14:48:22 GMT-0500 (Central Daylight Time),46953.0,CFD-WM-012-007-HC.jpg,1700,solid,I,m,739,9,2,9097.100000023842,37855.89999997616,8050,ATS,B,3
4,prac,1,A,haborder.png,1,z,Thu Aug 07 2025 14:48:22 GMT-0500 (Central Daylight Time),49552.5,CFD-BF-050-012-A.jpg,1200,solid,I,z,608,6,2,11696.600000023842,37855.89999997616,8050,ATS,B,4
5,prac,1,A,haborder.png,1,m,Thu Aug 07 2025 14:48:22 GMT-0500 (Central Daylight Time),52968.0,CFD-BF-035-007-HC.jpg,2000,solid,I,m,625,5,2,15112.100000023842,37855.89999997616,8050,ATS,B,5
6,prac,1,A,haborder.png,1,z,Thu Aug 07 2025 14:48:22 GMT-0500 (Central Daylight Time),55984.799999952316,CFD-WF-026-008-A.jpg,1600,solid,I,z,634,10,2,18128.899999976158,37855.89999997616,8050,ATS,B,6
7,prac,1,A,haborder.png,1,m,Thu Aug 07 2025 14:48:22 GMT-0500 (Central Daylight Time),59265.89999997616,CFD-BM-015-017-HC.jpg,1700,solid,I,m,798,1,2,21410.0,37855.89999997616,8050,ATS,B,7
8,prac,1,A,haborder.png,1,z,Thu Aug 07 2025 14:48:22 GMT-0500 (Central Daylight Time),62264.89999997616,CFD-BM-037-041-A.jpg,1600,solid,I,z,608,2,2,24409.0,37855.89999997616,8050,ATS,B,8
9,prac,1,A,haborder.png,1,m,Thu Aug 07 2025 14:48:22 GMT-0500 (Central Daylight Time),65097.5,CFD-WM-011-006-HC.jpg,1400,solid,I,m,648,7,2,27241.600000023842,37855.89999997616,8050,ATS,B,9
10,prac,1,A,haborder.png,1,m,Thu Aug 07 2025 14:48:22 GMT-0500 (Central Daylight Time),68113.10000002384,CFD-BM-020-024-HC.jpg,1500,solid,I,m,732,3,2,30257.200000047684,37855.89999997616,8050,ATS,B,10
11,prac,1,A,haborder.png,1,z,Thu Aug 07 2025 14:48:22 GMT-0500 (Central Daylight Time),70529.10000002384,CFD-WF-013-015-A.jpg,1000,solid,I,z,632,12,2,32673.200000047684,37855.89999997616,8050,ATS,B,11
12,prac,1,A,haborder.png,1,m,Thu Aug 07 2025 14:48:22 GMT-0500 (Central Daylight Time),73378.19999992847,CFD-WF-011-006-HC.jpg,1500,solid,I,m,565,11,2,35522.299999952316,37855.89999997616,8050,ATS,B,12
1,prac,1,B,mfborder.png,1,z,Thu Aug 07 2025 14:48:22 GMT-0500 (Central Daylight Time),88490.10000002384,CFD-WF-027-007-HC.jpg,1900,dash,I,z,964,8,2,3648.7000000476837,84841.39999997616,8050,ATS,B,1
2,prac,1,B,mfborder.png,1,z,Thu Aug 07 2025 14:48:22 GMT-0500 (Central Daylight Time),91272.5,CFD-BF-027-013-HC.jpg,1500,dash,I,z,483,3,2,6431.100000023842,84841.39999997616,8050,ATS,B,2
3,prac,1,B,mfborder.png,1,z,Thu Aug 07 2025 14:48:22 GMT-0500 (Central Daylight Time),93905.0,CFD-BF-035-007-HC.jpg,1400,dash,I,z,449,7,2,9063.600000023842,84841.39999997616,8050,ATS,B,3
4,prac,1,B,mfborder.png,1,m,Thu Aug 07 2025 14:48:22 GMT-0500 (Central Daylight Time),97287.39999997616,CFD-BM-020-024-HC.jpg,1700,dash,I,m,884,1,2,12446.0,84841.39999997616,8050,ATS,B,4
5,prac,1,B,mfborder.png,1,m,Thu Aug 07 2025 14:48:22 GMT-0500 (Central Daylight Time),100302.89999997616,CFD-WM-012-007-HC.jpg,1600,dash,I,m,618,10,2,15461.5,84841.39999997616,8050,ATS,B,5
6,prac,1,B,mfborder.png,1,m,Thu Aug 07 2025 14:48:22 GMT-0500 (Central Daylight Time),103618.79999995232,CFD-WM-009-009-A.jpg,1700,dash,I,m,823,9,2,18777.399999976158,84841.39999997616,8050,ATS,B,6
7,prac,1,B,mfborder.png,1,m,Thu Aug 07 2025 14:48:22 GMT-0500 (Central Daylight Time),106517.79999995232,CFD-BM-041-048-A.jpg,1600,dash,I,m,503,2,2,21676.399999976158,84841.39999997616,8050,ATS,B,7
8,prac,1,B,mfborder.png,1,m,Thu Aug 07 2025 14:48:22 GMT-0500 (Central Daylight Time),109116.60000002384,CFD-WM-037-060-A.jpg,1200,dash,I,m,612,6,2,24275.200000047684,84841.39999997616,8050,ATS,B,8
9,prac,1,B,mfborder.png,1,m,Thu Aug 07 2025 14:48:22 GMT-0500 (Central Daylight Time),112499.19999992847,CFD-BM-037-041-A.jpg,2000,dash,I,m,597,5,2,27657.799999952316,84841.39999997616,8050,ATS,B,9
10,prac,1,B,mfborder.png,1,z,Thu Aug 07 2025 14:48:22 GMT-0500 (Central Daylight Time),115098.29999995232,CFD-WF-011-006-HC.jpg,1000,dash,I,z,814,12,2,30256.899999976158,84841.39999997616,8050,ATS,B,10
11,prac,1,B,mfborder.png,1,z,Thu Aug 07 2025 14:48:22 GMT-0500 (Central Daylight Time),117381.0,CFD-BF-051-043-A.jpg,1000,dash,I,z,499,4,2,32539.600000023842,84841.39999997616,8050,ATS,B,11
12,prac,1,B,mfborder.png,1,z,Thu Aug 07 2025 14:48:22 GMT-0500 (Central Daylight Time),120113.5,CFD-WF-026-008-A.jpg,1500,dash,I,z,441,11,2,35272.10000002384,84841.39999997616,8050,ATS,B,12
1,test,1,A,haborder.png,1,m,Thu Aug 07 2025 14:48:22 GMT-0500 (Central Daylight Time),133909.39999997616,CFD-WM-012-007-HC.jpg,1700,solid,I,m,605,9,2,2332.899999976158,131576.5,8050,ATS,B,1
2,test,1,A,haborder.png,1,z,Thu Aug 07 2025 14:48:22 GMT-0500 (Central Daylight Time),136041.69999992847,CFD-WF-026-008-A.jpg,1600,solid,I,z,508,10,2,4465.199999928474,131576.5,8050,ATS,B,2
3,test,1,A,haborder.png,1,m,Thu Aug 07 2025 14:48:22 GMT-0500 (Central Daylight Time),138374.39999997616,CFD-WM-012-007-HC.jpg,1700,solid,I,m,604,9,2,6797.899999976158,131576.5,8050,ATS,B,3
4,test,1,A,haborder.png,1,m,Thu Aug 07 2025 14:48:22 GMT-0500 (Central Daylight Time),140457.29999995232,CFD-WF-011-006-HC.jpg,1500,solid,I,m,559,11,2,8880.799999952316,131576.5,8050,ATS,B,4
5,test,1,A,haborder.png,1,m,Thu Aug 07 2025 14:48:22 GMT-0500 (Central Daylight Time),142874.10000002384,CFD-BM-015-017-HC.jpg,1700,solid,I,m,700,1,2,11297.600000023842,131576.5,8050,ATS,B,5
6,test,1,A,haborder.png,1,z,Thu Aug 07 2025 14:48:22 GMT-0500 (Central Daylight Time),144689.0,CFD-BF-050-012-A.jpg,1200,solid,I,z,584,6,2,13112.5,131576.5,8050,ATS,B,6
7,test,1,A,haborder.png,1,m,Thu Aug 07 2025 14:48:22 GMT-0500 (Central Daylight Time),146854.89999997616,CFD-WM-011-006-HC.jpg,1400,solid,I,m,744,7,2,15278.399999976158,131576.5,8050,ATS,B,7
8,test,1,A,haborder.png,1,z,Thu Aug 07 2025 14:48:22 GMT-0500 (Central Daylight Time),149104.10000002384,CFD-BM-037-041-A.jpg,1600,solid,I,z,626,2,2,17527.600000023842,131576.5,8050,ATS,B,8
9,test,1,A,haborder.png,1,m,Thu Aug 07 2025 14:48:22 GMT-0500 (Central Daylight Time),151170.5,CFD-WM-011-006-HC.jpg,1400,solid,I,m,649,7,2,19594.0,131576.5,8050,ATS,B,9
9,test,1,A,haborder.png,0,m,Thu Aug 07 2025 14:48:22 GMT-0500 (Central Daylight Time),153653.0,CFD-BM-015-017-HC.jpg,1700,solid,I,z,755,1,2,22076.5,131576.5,8050,ATS,B,10
10,test,1,A,haborder.png,1,m,Thu Aug 07 2025 14:48:22 GMT-0500 (Central Daylight Time),156602.39999997616,CFD-BF-035-007-HC.jpg,2000,solid,I,m,933,5,2,25025.899999976158,131576.5,8050,ATS,B,11
11,test,1,A,haborder.png,1,z,Thu Aug 07 2025 14:48:22 GMT-0500 (Central Daylight Time),158567.89999997616,CFD-BF-050-012-A.jpg,1200,solid,I,z,735,6,2,26991.399999976158,131576.5,8050,ATS,B,12
12,test,1,A,haborder.png,1,z,Thu Aug 07 2025 14:48:22 GMT-0500 (Central Daylight Time),160267.5,CFD-BF-051-043-A.jpg,1000,solid,I,z,673,4,2,28691.0,131576.5,8050,ATS,B,13
13,test,1,A,haborder.png,1,z,Thu Aug 07 2025 14:48:22 GMT-0500 (Central Daylight Time),162500.19999992847,CFD-BM-037-041-A.jpg,1600,solid,I,z,614,2,2,30923.699999928474,131576.5,8050,ATS,B,14
14,test,1,A,haborder.png,1,z,Thu Aug 07 2025 14:48:22 GMT-0500 (Central Daylight Time),164066.29999995232,CFD-BF-051-043-A.jpg,1000,solid,I,z,541,4,2,32489.799999952316,131576.5,8050,ATS,B,15
15,test,1,A,haborder.png,1,m,Thu Aug 07 2025 14:48:22 GMT-0500 (Central Daylight Time),166248.69999992847,CFD-BM-020-024-HC.jpg,1500,solid,I,m,645,3,2,34672.199999928474,131576.5,8050,ATS,B,16
16,test,1,A,haborder.png,1,z,Thu Aug 07 2025 14:48:22 GMT-0500 (Central Daylight Time),169014.69999992847,CFD-WM-009-009-A.jpg,1900,solid,I,z,836,8,2,37438.199999928474,131576.5,8050,ATS,B,17
17,test,1,A,haborder.png,1,z,Thu Aug 07 2025 14:48:22 GMT-0500 (Central Daylight Time),171297.29999995232,CFD-WF-026-008-A.jpg,1600,solid,I,z,659,10,2,39720.799999952316,131576.5,8050,ATS,B,18
18,test,1,A,haborder.png,1,z,Thu Aug 07 2025 14:48:22 GMT-0500 (Central Daylight Time),172963.39999997616,CFD-WF-013-015-A.jpg,1000,solid,I,z,648,12,2,41386.89999997616,131576.5,8050,ATS,B,19
19,test,1,A,haborder.png,1,m,Thu Aug 07 2025 14:48:22 GMT-0500 (Central Daylight Time),175096.0,CFD-WF-011-006-HC.jpg,1500,solid,I,m,610,11,2,43519.5,131576.5,8050,ATS,B,20
20,test,1,A,haborder.png,1,m,Thu Aug 07 2025 14:48:22 GMT-0500 (Central Daylight Time),178045.10000002384,CFD-BF-035-007-HC.jpg,2000,solid,I,m,929,5,2,46468.60000002384,131576.5,8050,ATS,B,21
21,test,1,A,haborder.png,1,m,Thu Aug 07 2025 14:48:22 GMT-0500 (Central Daylight Time),180311.0,CFD-BM-020-024-HC.jpg,1500,solid,I,m,744,3,2,48734.5,131576.5,8050,ATS,B,22
22,test,1,A,haborder.png,1,z,Thu Aug 07 2025 14:48:22 GMT-0500 (Central Daylight Time),183043.79999995232,CFD-WM-009-009-A.jpg,1900,solid,I,z,814,8,2,51467.299999952316,131576.5,8050,ATS,B,23
23,test,1,A,haborder.png,1,z,Thu Aug 07 2025 14:48:22 GMT-0500 (Central Daylight Time),184709.79999995232,CFD-WF-013-015-A.jpg,1000,solid,I,z,638,12,2,53133.299999952316,131576.5,8050,ATS,B,24
1,test,1,B,mfborder.png,1,z,Thu Aug 07 2025 14:48:22 GMT-0500 (Central Daylight Time),196072.89999997616,CFD-BF-027-013-HC.jpg,1500,dash,I,z,884,3,2,2415.899999976158,193657.0,8050,ATS,B,1
2,test,1,B,mfborder.png,1,m,Thu Aug 07 2025 14:48:22 GMT-0500 (Central Daylight Time),197905.69999992847,CFD-WM-037-060-A.jpg,1200,dash,I,m,608,6,2,4248.699999928474,193657.0,8050,ATS,B,2
3,test,1,B,mfborder.png,1,z,Thu Aug 07 2025 14:48:22 GMT-0500 (Central Daylight Time),199805.0,CFD-WF-011-006-HC.jpg,1000,dash,I,z,872,12,2,6148.0,193657.0,8050,ATS,B,3
4,test,1,B,mfborder.png,1,z,Thu Aug 07 2025 14:48:22 GMT-0500 (Central Daylight Time),201987.69999992847,CFD-BF-035-007-HC.jpg,1400,dash,I,z,756,7,2,8330.699999928474,193657.0,8050,ATS,B,4
5,test,1,B,mfborder.png,1,m,Thu Aug 07 2025 14:48:22 GMT-0500 (Central Daylight Time),204253.69999992847,CFD-WM-009-009-A.jpg,1700,dash,I,m,538,9,2,10596.699999928474,193657.0,8050,ATS,B,5
6,test,1,B,mfborder.png,1,z,Thu Aug 07 2025 14:48:22 GMT-0500 (Central Daylight Time),205886.5,CFD-BF-051-043-A.jpg,1000,dash,I,z,612,4,2,12229.5,193657.0,8050,ATS,B,6
7,test,1,B,mfborder.png,1,m,Thu Aug 07 2025 14:48:22 GMT-0500 (Central Daylight Time),208385.79999995232,CFD-BM-037-041-A.jpg,2000,dash,I,m,475,5,2,14728.799999952316,193657.0,8050,ATS,B,7
8,test,1,B,mfborder.png,1,z,Thu Aug 07 2025 14:48:22 GMT-0500 (Central Daylight Time),210468.10000002384,CFD-WF-026-008-A.jpg,1500,dash,I,z,556,11,2,16811.100000023842,193657.0,8050,ATS,B,8
9,test,1,B,mfborder.png,1,m,Thu Aug 07 2025 14:48:22 GMT-0500 (Central Daylight Time),212700.89999997616,CFD-WM-012-007-HC.jpg,1600,dash,I,m,605,10,2,19043.899999976158,193657.0,8050,ATS,B,9
10,test,1,B,mfborder.png,1,m,Thu Aug 07 2025 14:48:22 GMT-0500 (Central Daylight Time),215483.10000002384,CFD-BM-037-041-A.jpg,2000,dash,I,m,765,5,2,21826.100000023842,193657.0,8050,ATS,B,10
11,test,1,B,mfborder.png,1,m,Thu Aug 07 2025 14:48:22 GMT-0500 (Central Daylight Time),217749.39999997616,CFD-WM-009-009-A.jpg,1700,dash,I,m,538,9,2,24092.399999976158,193657.0,8050,ATS,B,11
12,test,1,B,mfborder.png,1,m,Thu Aug 07 2025 14:48:22 GMT-0500 (Central Daylight Time),219932.10000002384,CFD-BM-041-048-A.jpg,1600,dash,I,m,564,2,2,26275.100000023842,193657.0,8050,ATS,B,12
13,test,1,B,mfborder.png,1,m,Thu Aug 07 2025 14:48:22 GMT-0500 (Central Daylight Time),222148.10000002384,CFD-BM-041-048-A.jpg,1600,dash,I,m,597,2,2,28491.100000023842,193657.0,8050,ATS,B,13
14,test,1,B,mfborder.png,1,z,Thu Aug 07 2025 14:48:22 GMT-0500 (Central Daylight Time),224697.5,CFD-WF-027-007-HC.jpg,1900,dash,I,z,618,8,2,31040.5,193657.0,8050,ATS,B,14
15,test,1,B,mfborder.png,1,z,Thu Aug 07 2025 14:48:22 GMT-0500 (Central Daylight Time),227263.29999995232,CFD-WF-027-007-HC.jpg,1900,dash,I,z,635,8,2,33606.299999952316,193657.0,8050,ATS,B,15
16,test,1,B,mfborder.png,1,m,Thu Aug 07 2025 14:48:22 GMT-0500 (Central Daylight Time),229579.0,CFD-BM-020-024-HC.jpg,1700,dash,I,m,591,1,2,35922.0,193657.0,8050,ATS,B,16
17,test,1,B,mfborder.png,1,z,Thu Aug 07 2025 14:48:22 GMT-0500 (Central Daylight Time),231311.69999992847,CFD-BF-051-043-A.jpg,1000,dash,I,z,702,4,2,37654.699999928474,193657.0,8050,ATS,B,17
18,test,1,B,mfborder.png,1,z,Thu Aug 07 2025 14:48:22 GMT-0500 (Central Daylight Time),233361.0,CFD-BF-035-007-HC.jpg,1400,dash,I,z,618,7,2,39704.0,193657.0,8050,ATS,B,18
19,test,1,B,mfborder.png,1,z,Thu Aug 07 2025 14:48:22 GMT-0500 (Central Daylight Time),235427.19999992847,CFD-WF-026-008-A.jpg,1500,dash,I,z,540,11,2,41770.199999928474,193657.0,8050,ATS,B,19
20,test,1,B,mfborder.png,1,z,Thu Aug 07 2025 14:48:22 GMT-0500 (Central Daylight Time),237476.60000002384,CFD-BF-027-013-HC.jpg,1500,dash,I,z,530,3,2,43819.60000002384,193657.0,8050,ATS,B,20
21,test,1,B,mfborder.png,1,m,Thu Aug 07 2025 14:48:22 GMT-0500 (Central Daylight Time),239392.69999992847,CFD-WM-037-060-A.jpg,1200,dash,I,m,685,6,2,45735.699999928474,193657.0,8050,ATS,B,21
22,test,1,B,mfborder.png,1,m,Thu Aug 07 2025 14:48:22 GMT-0500 (Central Daylight Time),241625.19999992847,CFD-WM-012-007-HC.jpg,1600,dash,I,m,609,10,2,47968.199999928474,193657.0,8050,ATS,B,22
23,test,1,B,mfborder.png,1,z,Thu Aug 07 2025 14:48:22 GMT-0500 (Central Daylight Time),243441.29999995232,CFD-WF-011-006-HC.jpg,1000,dash,I,z,792,12,2,49784.299999952316,193657.0,8050,ATS,B,23
24,test,1,B,mfborder.png,1,m,Thu Aug 07 2025 14:48:22 GMT-0500 (Central Daylight Time),245773.79999995232,CFD-BM-020-024-HC.jpg,1700,dash,I,m,612,1,2,52116.799999952316,193657.0,8050,ATS,B,24
0,6,1,C,mfborder.png,0,m,Thu Aug 07 2025 14:48:22 GMT-0500 (Central Daylight Time),277064.2999999523,CFD-WM-009-009-A.jpg,1700,solid,I,None,1516,prac,2,3998.899999976158,273065.39999997616,8050,ATS,B,1
1,7,1,C,haborder.png,1,z,Thu Aug 07 2025 14:48:22 GMT-0500 (Central Daylight Time),280813.0,CFD-BF-051-043-A.jpg,1900,dash,I,z,1062,prac,2,7747.600000023842,273065.39999997616,8050,ATS,B,2
2,4,1,C,mfborder.png,1,m,Thu Aug 07 2025 14:48:22 GMT-0500 (Central Daylight Time),284245.39999997616,CFD-BM-015-017-HC.jpg,2000,solid,I,m,637,prac,2,11180.0,273065.39999997616,8050,ATS,B,3
3,12,1,C,haborder.png,1,m,Thu Aug 07 2025 14:48:22 GMT-0500 (Central Daylight Time),287394.2999999523,CFD-WM-011-006-HC.jpg,1400,solid,I,m,964,prac,2,14328.899999976158,273065.39999997616,8050,ATS,B,4
4,10,1,C,haborder.png,1,m,Thu Aug 07 2025 14:48:22 GMT-0500 (Central Daylight Time),290410.10000002384,CFD-BM-020-024-HC.jpg,1500,solid,I,m,731,prac,2,17344.700000047684,273065.39999997616,8050,ATS,B,5
5,9,1,C,haborder.png,1,z,Thu Aug 07 2025 14:48:22 GMT-0500 (Central Daylight Time),293459.1999999285,CFD-WF-026-008-A.jpg,1600,dash,I,z,664,prac,2,20393.799999952316,273065.39999997616,8050,ATS,B,6
6,11,1,C,haborder.png,1,m,Thu Aug 07 2025 14:48:22 GMT-0500 (Central Daylight Time),296058.1999999285,CFD-WM-011-006-HC.jpg,1000,dash,I,m,814,prac,2,22992.799999952316,273065.39999997616,8050,ATS,B,7
7,3,1,C,mfborder.png,1,z,Thu Aug 07 2025 14:48:22 GMT-0500 (Central Daylight Time),298990.60000002384,CFD-BF-035-007-HC.jpg,1000,dash,I,z,1135,prac,2,25925.200000047684,273065.39999997616,8050,ATS,B,8
8,8,1,C,haborder.png,1,z,Thu Aug 07 2025 14:48:22 GMT-0500 (Central Daylight Time),302373.0,CFD-BF-050-012-A.jpg,1700,solid,I,z,887,prac,2,29307.600000023842,273065.39999997616,8050,ATS,B,9
9,5,1,C,mfborder.png,1,m,Thu Aug 07 2025 14:48:22 GMT-0500 (Central Daylight Time),305588.6999999285,CFD-BM-037-041-A.jpg,1200,dash,I,m,1229,prac,2,32523.299999952316,273065.39999997616,8050,ATS,B,10
9,2,1,C,mfborder.png,0,z,Thu Aug 07 2025 14:48:22 GMT-0500 (Central Daylight Time),309020.7999999523,CFD-WF-013-015-A.jpg,1500,solid,I,m,1145,prac,2,35955.39999997616,273065.39999997616,8050,ATS,B,11
10,1,1,C,mfborder.png,1,z,Thu Aug 07 2025 14:48:22 GMT-0500 (Central Daylight Time),312386.5,CFD-WF-011-006-HC.jpg,1600,dash,I,z,973,prac,2,39321.10000002384,273065.39999997616,8050,ATS,B,12
0,test,1,C,haborder.png,0,m,Thu Aug 07 2025 14:48:22 GMT-0500 (Central Daylight Time),330547.39999997616,CFD-WF-027-007-HC.jpg,1500,solid,I,None,1516,11,2,3032.5,327514.89999997616,8050,ATS,B,1
1,test,1,C,haborder.png,1,z,Thu Aug 07 2025 14:48:22 GMT-0500 (Central Daylight Time),333046.6999999285,CFD-BM-041-048-A.jpg,1700,solid,I,z,778,9,2,5531.799999952316,327514.89999997616,8050,ATS,B,2
2,test,1,C,mfborder.png,1,z,Thu Aug 07 2025 14:48:22 GMT-0500 (Central Daylight Time),335695.7999999523,CFD-BF-051-043-A.jpg,1600,dash,I,z,1019,2,2,8180.899999976158,327514.89999997616,8050,ATS,B,3
2,test,1,C,haborder.png,0,m,Thu Aug 07 2025 14:48:22 GMT-0500 (Central Daylight Time),338161.7999999523,CFD-BF-035-007-HC.jpg,1600,solid,I,z,834,10,2,10646.899999976158,327514.89999997616,8050,ATS,B,4
3,test,1,C,mfborder.png,1,m,Thu Aug 07 2025 14:48:22 GMT-0500 (Central Daylight Time),340460.7999999523,CFD-BM-020-024-HC.jpg,1200,dash,I,m,1072,6,2,12945.899999976158,327514.89999997616,8050,ATS,B,5
3,test,1,C,mfborder.png,0,z,Thu Aug 07 2025 14:48:22 GMT-0500 (Central Daylight Time),343343.1999999285,CFD-BF-027-013-HC.jpg,1700,dash,I,m,1161,1,2,15828.299999952316,327514.89999997616,8050,ATS,B,6
3,test,1,C,haborder.png,0,z,Thu Aug 07 2025 14:48:22 GMT-0500 (Central Daylight Time),346575.6999999285,CFD-BM-041-048-A.jpg,1700,solid,I,None,1516,9,2,19060.799999952316,327514.89999997616,8050,ATS,B,7
4,test,1,C,mfborder.png,1,m,Thu Aug 07 2025 14:48:22 GMT-0500 (Central Daylight Time),349641.60000002384,CFD-WM-037-060-A.jpg,2000,dash,I,m,1034,5,2,22126.700000047684,327514.89999997616,8050,ATS,B,8
4,test,1,C,haborder.png,0,m,Thu Aug 07 2025 14:48:22 GMT-0500 (Central Daylight Time),352173.89999997616,CFD-WF-011-006-HC.jpg,1000,solid,I,None,1516,12,2,24659.0,327514.89999997616,8050,ATS,B,9
5,test,1,C,mfborder.png,1,z,Thu Aug 07 2025 14:48:22 GMT-0500 (Central Daylight Time),354873.89999997616,CFD-BF-051-043-A.jpg,1600,dash,I,z,1084,2,2,27359.0,327514.89999997616,8050,ATS,B,10
6,test,1,C,haborder.png,1,z,Thu Aug 07 2025 14:48:22 GMT-0500 (Central Daylight Time),357888.60000002384,CFD-BM-037-041-A.jpg,1900,solid,I,z,1092,8,2,30373.700000047684,327514.89999997616,8050,ATS,B,11
7,test,1,C,mfborder.png,1,z,Thu Aug 07 2025 14:48:22 GMT-0500 (Central Daylight Time),360587.7999999523,CFD-WF-026-008-A.jpg,1500,dash,I,z,1181,3,2,33072.89999997616,327514.89999997616,8050,ATS,B,12
8,test,1,C,mfborder.png,1,m,Thu Aug 07 2025 14:48:22 GMT-0500 (Central Daylight Time),363153.89999997616,CFD-BM-020-024-HC.jpg,1200,dash,I,m,1334,6,2,35639.0,327514.89999997616,8050,ATS,B,13
9,test,1,C,haborder.png,1,z,Thu Aug 07 2025 14:48:22 GMT-0500 (Central Daylight Time),366019.5,CFD-BM-037-041-A.jpg,1900,solid,I,z,948,8,2,38504.60000002384,327514.89999997616,8050,ATS,B,14
10,test,1,C,haborder.png,1,z,Thu Aug 07 2025 14:48:22 GMT-0500 (Central Daylight Time),368302.10000002384,CFD-WM-009-009-A.jpg,1400,solid,I,z,854,7,2,40787.200000047684,327514.89999997616,8050,ATS,B,15
11,test,1,C,haborder.png,1,z,Thu Aug 07 2025 14:48:22 GMT-0500 (Central Daylight Time),370334.7999999523,CFD-WM-009-009-A.jpg,1400,solid,I,z,611,7,2,42819.89999997616,327514.89999997616,8050,ATS,B,16
11,test,1,C,mfborder.png,0,z,Thu Aug 07 2025 14:48:22 GMT-0500 (Central Daylight Time),373283.6999999285,CFD-BF-027-013-HC.jpg,1700,dash,I,m,1223,1,2,45768.799999952316,327514.89999997616,8050,ATS,B,17
11,test,1,C,haborder.png,0,m,Thu Aug 07 2025 14:48:22 GMT-0500 (Central Daylight Time),375999.7999999523,CFD-WF-027-007-HC.jpg,1500,solid,I,z,1186,11,2,48484.89999997616,327514.89999997616,8050,ATS,B,18
12,test,1,C,haborder.png,1,m,Thu Aug 07 2025 14:48:22 GMT-0500 (Central Daylight Time),377982.5,CFD-WF-011-006-HC.jpg,1000,solid,I,m,954,12,2,50467.60000002384,327514.89999997616,8050,ATS,B,19
13,test,1,C,haborder.png,1,m,Thu Aug 07 2025 14:48:22 GMT-0500 (Central Daylight Time),380564.89999997616,CFD-BF-035-007-HC.jpg,1600,solid,I,m,963,10,2,53050.0,327514.89999997616,8050,ATS,B,20
14,test,1,C,mfborder.png,1,m,Thu Aug 07 2025 14:48:22 GMT-0500 (Central Daylight Time),382480.6999999285,CFD-WM-012-007-HC.jpg,1000,dash,I,m,893,4,2,54965.799999952316,327514.89999997616,8050,ATS,B,21
15,test,1,C,mfborder.png,1,z,Thu Aug 07 2025 14:48:22 GMT-0500 (Central Daylight Time),385296.6999999285,CFD-WF-026-008-A.jpg,1500,dash,I,z,1292,3,2,57781.799999952316,327514.89999997616,8050,ATS,B,22
15,test,1,C,mfborder.png,0,m,Thu Aug 07 2025 14:48:22 GMT-0500 (Central Daylight Time),388562.39999997616,CFD-WM-037-060-A.jpg,2000,dash,I,z,1241,5,2,61047.5,327514.89999997616,8050,ATS,B,23
16,test,1,C,mfborder.png,1,m,Thu Aug 07 2025 14:48:22 GMT-0500 (Central Daylight Time),390678.39999997616,CFD-WM-012-007-HC.jpg,1000,dash,I,m,1087,4,2,63163.5,327514.89999997616,8050,ATS,B,24
1,test,2,C,mfborder.png,1,m,Thu Aug 07 2025 14:48:22 GMT-0500 (Central Daylight Time),414204.5,CFD-WM-009-009-A.jpg,1200,dash,I,m,1047,6,2,2266.100000023842,411938.39999997616,8050,ATS,B,1
2,test,2,C,mfborder.png,1,m,Thu Aug 07 2025 14:48:22 GMT-0500 (Central Daylight Time),417353.1999999285,CFD-BM-037-041-A.jpg,2000,dash,I,m,1117,5,2,5414.799999952316,411938.39999997616,8050,ATS,B,2
3,test,2,C,mfborder.png,1,z,Thu Aug 07 2025 14:48:22 GMT-0500 (Central Daylight Time),420086.0,CFD-WF-011-006-HC.jpg,1700,dash,I,z,1012,1,2,8147.600000023842,411938.39999997616,8050,ATS,B,3
3,test,2,C,haborder.png,0,m,Thu Aug 07 2025 14:48:22 GMT-0500 (Central Daylight Time),423118.1999999285,CFD-WM-011-006-HC.jpg,1500,solid,I,None,1516,11,2,11179.799999952316,411938.39999997616,8050,ATS,B,4
3,test,2,C,haborder.png,0,z,Thu Aug 07 2025 14:48:22 GMT-0500 (Central Daylight Time),426050.60000002384,CFD-BF-051-043-A.jpg,1400,solid,I,None,1516,7,2,14112.200000047684,411938.39999997616,8050,ATS,B,5
4,test,2,C,haborder.png,1,m,Thu Aug 07 2025 14:48:22 GMT-0500 (Central Daylight Time),427750.0,CFD-WM-011-006-HC.jpg,1000,solid,I,m,679,12,2,15811.600000023842,411938.39999997616,8050,ATS,B,6
5,test,2,C,mfborder.png,1,m,Thu Aug 07 2025 14:48:22 GMT-0500 (Central Daylight Time),430700.1999999285,CFD-BM-037-041-A.jpg,2000,dash,I,m,931,5,2,18761.799999952316,411938.39999997616,8050,ATS,B,7
6,test,2,C,haborder.png,1,z,Thu Aug 07 2025 14:48:22 GMT-0500 (Central Daylight Time),433298.2999999523,CFD-WF-026-008-A.jpg,1700,solid,I,z,882,9,2,21359.899999976158,411938.39999997616,8050,ATS,B,8
7,test,2,C,mfborder.png,1,z,Thu Aug 07 2025 14:48:22 GMT-0500 (Central Daylight Time),436014.39999997616,CFD-BF-035-007-HC.jpg,1500,dash,I,z,1187,3,2,24076.0,411938.39999997616,8050,ATS,B,9
8,test,2,C,mfborder.png,1,z,Thu Aug 07 2025 14:48:22 GMT-0500 (Central Daylight Time),438896.6999999285,CFD-WF-013-015-A.jpg,1600,dash,I,z,1251,2,2,26958.299999952316,411938.39999997616,8050,ATS,B,10
9,test,2,C,haborder.png,1,z,Thu Aug 07 2025 14:48:22 GMT-0500 (Central Daylight Time),441729.39999997616,CFD-BF-050-012-A.jpg,1900,solid,I,z,904,8,2,29791.0,411938.39999997616,8050,ATS,B,11
10,test,2,C,haborder.png,1,m,Thu Aug 07 2025 14:48:22 GMT-0500 (Central Daylight Time),444144.7999999523,CFD-BM-020-024-HC.jpg,1600,solid,I,m,784,10,2,32206.399999976158,411938.39999997616,8050,ATS,B,12
10,test,2,C,mfborder.png,0,m,Thu Aug 07 2025 14:48:22 GMT-0500 (Central Daylight Time),446677.6999999285,CFD-BM-015-017-HC.jpg,1000,dash,I,None,1516,4,2,34739.299999952316,411938.39999997616,8050,ATS,B,13
11,test,2,C,mfborder.png,1,m,Thu Aug 07 2025 14:48:22 GMT-0500 (Central Daylight Time),448893.5,CFD-WM-009-009-A.jpg,1200,dash,I,m,988,6,2,36955.10000002384,411938.39999997616,8050,ATS,B,14
12,test,2,C,haborder.png,1,z,Thu Aug 07 2025 14:48:22 GMT-0500 (Central Daylight Time),451509.2999999523,CFD-WF-026-008-A.jpg,1700,solid,I,z,888,9,2,39570.89999997616,411938.39999997616,8050,ATS,B,15
13,test,2,C,haborder.png,1,z,Thu Aug 07 2025 14:48:22 GMT-0500 (Central Daylight Time),453725.2999999523,CFD-BF-051-043-A.jpg,1400,solid,I,z,796,7,2,41786.89999997616,411938.39999997616,8050,ATS,B,16
14,test,2,C,haborder.png,1,z,Thu Aug 07 2025 14:48:22 GMT-0500 (Central Daylight Time),456424.2999999523,CFD-BF-050-012-A.jpg,1900,solid,I,z,776,8,2,44485.89999997616,411938.39999997616,8050,ATS,B,17
14,test,2,C,mfborder.png,0,z,Thu Aug 07 2025 14:48:22 GMT-0500 (Central Daylight Time),459623.2999999523,CFD-WF-011-006-HC.jpg,1700,dash,I,m,1469,1,2,47684.89999997616,411938.39999997616,8050,ATS,B,18
15,test,2,C,haborder.png,1,m,Thu Aug 07 2025 14:48:22 GMT-0500 (Central Daylight Time),462122.60000002384,CFD-WM-011-006-HC.jpg,1500,solid,I,m,974,11,2,50184.200000047684,411938.39999997616,8050,ATS,B,19
16,test,2,C,haborder.png,1,m,Thu Aug 07 2025 14:48:22 GMT-0500 (Central Daylight Time),463972.0,CFD-WM-011-006-HC.jpg,1000,solid,I,m,823,12,2,52033.60000002384,411938.39999997616,8050,ATS,B,20
17,test,2,C,haborder.png,1,m,Thu Aug 07 2025 14:48:22 GMT-0500 (Central Daylight Time),466371.2999999523,CFD-BM-020-024-HC.jpg,1600,solid,I,m,773,10,2,54432.89999997616,411938.39999997616,8050,ATS,B,21
18,test,2,C,mfborder.png,1,m,Thu Aug 07 2025 14:48:22 GMT-0500 (Central Daylight Time),468520.6999999285,CFD-BM-015-017-HC.jpg,1000,dash,I,m,1126,4,2,56582.299999952316,411938.39999997616,8050,ATS,B,22
19,test,2,C,mfborder.png,1,z,Thu Aug 07 2025 14:48:22 GMT-0500 (Central Daylight Time),471353.10000002384,CFD-WF-013-015-A.jpg,1600,dash,I,z,1209,2,2,59414.700000047684,411938.39999997616,8050,ATS,B,23
20,test,2,C,mfborder.png,1,z,Thu Aug 07 2025 14:48:22 GMT-0500 (Central Daylight Time),474085.60000002384,CFD-BF-035-007-HC.jpg,1500,dash,I,z,1212,3,2,62147.200000047684,411938.39999997616,8050,ATS,B,24
0,test,3,C,haborder.png,0,z,Thu Aug 07 2025 14:48:22 GMT-0500 (Central Daylight Time),478767.39999997616,CFD-BM-041-048-A.jpg,1700,solid,I,m,927,9,2,2649.100000023842,476118.2999999523,8050,ATS,B,1
0,test,3,C,mfborder.png,0,m,Thu Aug 07 2025 14:48:22 GMT-0500 (Central Daylight Time),481050.0,CFD-BM-020-024-HC.jpg,1200,dash,I,z,1058,6,2,4931.700000047684,476118.2999999523,8050,ATS,B,2
1,test,3,C,mfborder.png,1,z,Thu Aug 07 2025 14:48:22 GMT-0500 (Central Daylight Time),483500.39999997616,CFD-BF-027-013-HC.jpg,1700,dash,I,z,732,1,2,7382.100000023842,476118.2999999523,8050,ATS,B,3
1,test,3,C,haborder.png,0,z,Thu Aug 07 2025 14:48:22 GMT-0500 (Central Daylight Time),486248.2999999523,CFD-BM-037-041-A.jpg,1900,solid,I,m,818,8,2,10130.0,476118.2999999523,8050,ATS,B,4
2,test,3,C,haborder.png,1,m,Thu Aug 07 2025 14:48:22 GMT-0500 (Central Daylight Time),489064.1999999285,CFD-WF-027-007-HC.jpg,1500,solid,I,m,1293,11,2,12945.899999976158,476118.2999999523,8050,ATS,B,5
3,test,3,C,mfborder.png,1,z,Thu Aug 07 2025 14:48:22 GMT-0500 (Central Daylight Time),491730.0,CFD-BF-051-043-A.jpg,1600,dash,I,z,1033,2,2,15611.700000047684,476118.2999999523,8050,ATS,B,6
3,test,3,C,haborder.png,0,z,Thu Aug 07 2025 14:48:22 GMT-0500 (Central Daylight Time),493862.6999999285,CFD-WM-009-009-A.jpg,1400,solid,I,m,704,7,2,17744.399999976158,476118.2999999523,8050,ATS,B,7
4,test,3,C,haborder.png,1,z,Thu Aug 07 2025 14:48:22 GMT-0500 (Central Daylight Time),496445.10000002384,CFD-BM-041-048-A.jpg,1700,solid,I,z,863,9,2,20326.800000071526,476118.2999999523,8050,ATS,B,8
5,test,3,C,haborder.png,1,m,Thu Aug 07 2025 14:48:22 GMT-0500 (Central Daylight Time),499177.6999999285,CFD-BF-035-007-HC.jpg,1600,solid,I,m,1108,10,2,23059.399999976158,476118.2999999523,8050,ATS,B,9
6,test,3,C,mfborder.png,1,m,Thu Aug 07 2025 14:48:22 GMT-0500 (Central Daylight Time),500960.39999997616,CFD-WM-012-007-HC.jpg,1000,dash,I,m,760,4,2,24842.100000023842,476118.2999999523,8050,ATS,B,10
7,test,3,C,mfborder.png,1,m,Thu Aug 07 2025 14:48:22 GMT-0500 (Central Daylight Time),502859.7999999523,CFD-BM-020-024-HC.jpg,1200,dash,I,m,673,6,2,26741.5,476118.2999999523,8050,ATS,B,11
8,test,3,C,haborder.png,1,m,Thu Aug 07 2025 14:48:22 GMT-0500 (Central Daylight Time),505026.10000002384,CFD-WF-011-006-HC.jpg,1000,solid,I,m,1149,12,2,28907.800000071526,476118.2999999523,8050,ATS,B,12
9,test,3,C,mfborder.png,1,z,Thu Aug 07 2025 14:48:22 GMT-0500 (Central Daylight Time),507842.0,CFD-WF-026-008-A.jpg,1500,dash,I,z,1284,3,2,31723.700000047684,476118.2999999523,8050,ATS,B,13
10,test,3,C,mfborder.png,1,z,Thu Aug 07 2025 14:48:22 GMT-0500 (Central Daylight Time),510107.60000002384,CFD-BF-051-043-A.jpg,1600,dash,I,z,640,2,2,33989.300000071526,476118.2999999523,8050,ATS,B,14
11,test,3,C,haborder.png,1,z,Thu Aug 07 2025 14:48:22 GMT-0500 (Central Daylight Time),513073.1999999285,CFD-BM-037-041-A.jpg,1900,solid,I,z,1042,8,2,36954.89999997616,476118.2999999523,8050,ATS,B,15
12,test,3,C,haborder.png,1,z,Thu Aug 07 2025 14:48:22 GMT-0500 (Central Daylight Time),515239.1999999285,CFD-WM-009-009-A.jpg,1400,solid,I,z,736,7,2,39120.89999997616,476118.2999999523,8050,ATS,B,16
13,test,3,C,mfborder.png,1,m,Thu Aug 07 2025 14:48:22 GMT-0500 (Central Daylight Time),517121.89999997616,CFD-WM-012-007-HC.jpg,1000,dash,I,m,850,4,2,41003.60000002384,476118.2999999523,8050,ATS,B,17
14,test,3,C,mfborder.png,1,z,Thu Aug 07 2025 14:48:22 GMT-0500 (Central Daylight Time),519638.0,CFD-WF-026-008-A.jpg,1500,dash,I,z,995,3,2,43519.700000047684,476118.2999999523,8050,ATS,B,18
15,test,3,C,haborder.png,1,m,Thu Aug 07 2025 14:48:22 GMT-0500 (Central Daylight Time),522453.6999999285,CFD-WF-027-007-HC.jpg,1500,solid,I,m,1288,11,2,46335.39999997616,476118.2999999523,8050,ATS,B,19
16,test,3,C,mfborder.png,1,m,Thu Aug 07 2025 14:48:22 GMT-0500 (Central Daylight Time),525552.6999999285,CFD-WM-037-060-A.jpg,2000,dash,I,m,1076,5,2,49434.39999997616,476118.2999999523,8050,ATS,B,20
17,test,3,C,haborder.png,1,m,Thu Aug 07 2025 14:48:22 GMT-0500 (Central Daylight Time),527435.3999999762,CFD-WF-011-006-HC.jpg,1000,solid,I,m,865,12,2,51317.10000002384,476118.2999999523,8050,ATS,B,21
18,test,3,C,mfborder.png,1,m,Thu Aug 07 2025 14:48:22 GMT-0500 (Central Daylight Time),530301.3999999762,CFD-WM-037-060-A.jpg,2000,dash,I,m,838,5,2,54183.10000002384,476118.2999999523,8050,ATS,B,22
19,test,3,C,haborder.png,1,m,Thu Aug 07 2025 14:48:22 GMT-0500 (Central Daylight Time),532783.8999999762,CFD-BF-035-007-HC.jpg,1600,solid,I,m,852,10,2,56665.60000002384,476118.2999999523,8050,ATS,B,23
20,test,3,C,mfborder.png,1,z,Thu Aug 07 2025 14:48:22 GMT-0500 (Central Daylight Time),535666.3999999762,CFD-BF-027-013-HC.jpg,1700,dash,I,z,1166,1,2,59548.10000002384,476118.2999999523,8050,ATS,B,24
0,test,4,C,haborder.png,0,z,Thu Aug 07 2025 14:48:22 GMT-0500 (Central Daylight Time),541481.2999999523,CFD-BF-050-012-A.jpg,1900,solid,I,m,926,8,2,2849.5,538631.7999999523,8050,ATS,B,1
1,test,4,C,haborder.png,1,m,Thu Aug 07 2025 14:48:22 GMT-0500 (Central Daylight Time),543697.0,CFD-WM-011-006-HC.jpg,1500,solid,I,m,692,11,2,5065.200000047684,538631.7999999523,8050,ATS,B,2
2,test,4,C,mfborder.png,1,z,Thu Aug 07 2025 14:48:22 GMT-0500 (Central Daylight Time),546379.5,CFD-WF-011-006-HC.jpg,1700,dash,I,z,964,1,2,7747.700000047684,538631.7999999523,8050,ATS,B,3
3,test,4,C,mfborder.png,1,m,Thu Aug 07 2025 14:48:22 GMT-0500 (Central Daylight Time),548562.2999999523,CFD-BM-015-017-HC.jpg,1000,dash,I,m,1158,4,2,9930.5,538631.7999999523,8050,ATS,B,4
4,test,4,C,haborder.png,1,m,Thu Aug 07 2025 14:48:22 GMT-0500 (Central Daylight Time),550311.6000000238,CFD-WM-011-006-HC.jpg,1000,solid,I,m,718,12,2,11679.800000071526,538631.7999999523,8050,ATS,B,5
5,test,4,C,haborder.png,1,z,Thu Aug 07 2025 14:48:22 GMT-0500 (Central Daylight Time),553260.7999999523,CFD-WF-026-008-A.jpg,1700,solid,I,z,1230,9,2,14629.0,538631.7999999523,8050,ATS,B,6
6,test,4,C,haborder.png,1,z,Thu Aug 07 2025 14:48:22 GMT-0500 (Central Daylight Time),555526.6999999285,CFD-BF-051-043-A.jpg,1400,solid,I,z,845,7,2,16894.899999976158,538631.7999999523,8050,ATS,B,7
7,test,4,C,haborder.png,1,m,Thu Aug 07 2025 14:48:22 GMT-0500 (Central Daylight Time),557925.8999999762,CFD-BM-020-024-HC.jpg,1600,solid,I,m,771,10,2,19294.100000023842,538631.7999999523,8050,ATS,B,8
8,test,4,C,mfborder.png,1,m,Thu Aug 07 2025 14:48:22 GMT-0500 (Central Daylight Time),560491.8999999762,CFD-WM-009-009-A.jpg,1200,dash,I,m,1340,6,2,21860.100000023842,538631.7999999523,8050,ATS,B,9
9,test,4,C,mfborder.png,1,z,Thu Aug 07 2025 14:48:22 GMT-0500 (Central Daylight Time),562990.7999999523,CFD-BF-035-007-HC.jpg,1500,dash,I,z,970,3,2,24359.0,538631.7999999523,8050,ATS,B,10
10,test,4,C,haborder.png,1,m,Thu Aug 07 2025 14:48:22 GMT-0500 (Central Daylight Time),565256.8999999762,CFD-WM-011-006-HC.jpg,1500,solid,I,m,735,11,2,26625.100000023842,538631.7999999523,8050,ATS,B,11
11,test,4,C,mfborder.png,1,z,Thu Aug 07 2025 14:48:22 GMT-0500 (Central Daylight Time),567839.3999999762,CFD-WF-013-015-A.jpg,1600,dash,I,z,952,2,2,29207.600000023842,538631.7999999523,8050,ATS,B,12
12,test,4,C,mfborder.png,1,m,Thu Aug 07 2025 14:48:22 GMT-0500 (Central Daylight Time),571021.8999999762,CFD-BM-037-041-A.jpg,2000,dash,I,m,1153,5,2,32390.100000023842,538631.7999999523,8050,ATS,B,13
13,test,4,C,mfborder.png,1,z,Thu Aug 07 2025 14:48:22 GMT-0500 (Central Daylight Time),573854.1999999285,CFD-WF-013-015-A.jpg,1600,dash,I,z,1212,2,2,35222.39999997616,538631.7999999523,8050,ATS,B,14
14,test,4,C,mfborder.png,1,m,Thu Aug 07 2025 14:48:22 GMT-0500 (Central Daylight Time),576819.8999999762,CFD-BM-037-041-A.jpg,2000,dash,I,m,939,5,2,38188.10000002384,538631.7999999523,8050,ATS,B,15
15,test,4,C,mfborder.png,1,z,Thu Aug 07 2025 14:48:22 GMT-0500 (Central Daylight Time),579202.5,CFD-BF-035-007-HC.jpg,1500,dash,I,z,857,3,2,40570.700000047684,538631.7999999523,8050,ATS,B,16
16,test,4,C,mfborder.png,1,z,Thu Aug 07 2025 14:48:22 GMT-0500 (Central Daylight Time),581818.1000000238,CFD-WF-011-006-HC.jpg,1700,dash,I,z,899,1,2,43186.300000071526,538631.7999999523,8050,ATS,B,17
17,test,4,C,haborder.png,1,m,Thu Aug 07 2025 14:48:22 GMT-0500 (Central Daylight Time),583618.1000000238,CFD-WM-011-006-HC.jpg,1000,solid,I,m,783,12,2,44986.300000071526,538631.7999999523,8050,ATS,B,18
18,test,4,C,haborder.png,1,z,Thu Aug 07 2025 14:48:22 GMT-0500 (Central Daylight Time),586267.1999999285,CFD-BF-050-012-A.jpg,1900,solid,I,z,724,8,2,47635.39999997616,538631.7999999523,8050,ATS,B,19
19,test,4,C,haborder.png,1,z,Thu Aug 07 2025 14:48:22 GMT-0500 (Central Daylight Time),588632.7999999523,CFD-BF-051-043-A.jpg,1400,solid,I,z,943,7,2,50001.0,538631.7999999523,8050,ATS,B,20
20,test,4,C,haborder.png,1,z,Thu Aug 07 2025 14:48:22 GMT-0500 (Central Daylight Time),591265.3999999762,CFD-WF-026-008-A.jpg,1700,solid,I,z,909,9,2,52633.60000002384,538631.7999999523,8050,ATS,B,21
21,test,4,C,mfborder.png,1,m,Thu Aug 07 2025 14:48:22 GMT-0500 (Central Daylight Time),593398.1999999285,CFD-WM-009-009-A.jpg,1200,dash,I,m,912,6,2,54766.39999997616,538631.7999999523,8050,ATS,B,22
22,test,4,C,haborder.png,1,m,Thu Aug 07 2025 14:48:22 GMT-0500 (Central Daylight Time),595863.7999999523,CFD-BM-020-024-HC.jpg,1600,solid,I,m,843,10,2,57232.0,538631.7999999523,8050,ATS,B,23
23,test,4,C,mfborder.png,1,m,Thu Aug 07 2025 14:48:22 GMT-0500 (Central Daylight Time),597979.7999999523,CFD-BM-015-017-HC.jpg,1000,dash,I,m,1088,4,2,59348.0,538631.7999999523,8050,ATS,B,24
