acc_sum,block,block_c,change,condition,correct,correct_response,datetime,endtime,face,project,response,response_time,row_sel,session_number,start_end,starttime,subject_id,task,task_vers,trial
0,prac,1,,1-Back,,,Tue Apr 14 2026 08:32:55 GMT-0500 (Central Daylight Time),,093_m_f_n_a.png,I,space,5360,1,1,,,8106,NNB,C,0
1,prac,1,0.0,1-Back,1.0,m,Tue Apr 14 2026 08:32:55 GMT-0500 (Central Daylight Time),234395.5,098_y_f_n_a.png,I,m,547,2,1,1513.3999999761581,232882.10000002384,8106,NNB,C,1
1,prac,1,1.0,1-Back,0.0,z,Tue Apr 14 2026 08:32:55 GMT-0500 (Central Daylight Time),237168.69999992847,098_y_f_n_a.png,I,None,2002,3,1,2769.0999999046326,234399.60000002384,8106,NNB,C,2
1,prac,1,0.0,1-Back,0.0,m,Tue Apr 14 2026 08:32:55 GMT-0500 (Central Daylight Time),240051.10000002384,059_o_m_n_a.png,I,None,2013,4,1,2870.5,237180.60000002384,8106,NNB,C,3
2,prac,1,0.0,1-Back,1.0,m,Tue Apr 14 2026 08:32:55 GMT-0500 (Central Daylight Time),242833.39999997616,092_m_m_n_a.png,I,m,1923,5,1,2778.7000000476837,240054.69999992847,8106,NNB,C,4
3,prac,1,1.0,1-Back,1.0,z,Tue Apr 14 2026 08:32:55 GMT-0500 (Central Daylight Time),245232.69999992847,092_m_m_n_a.png,I,z,1609,6,1,2391.7999999523163,242840.89999997616,8106,NNB,C,5
4,prac,1,0.0,1-Back,1.0,m,Tue Apr 14 2026 08:32:55 GMT-0500 (Central Daylight Time),247398.69999992847,130_o_f_n_a.png,I,m,1286,7,1,2161.899999976158,245236.79999995232,8106,NNB,C,6
5,prac,1,0.0,1-Back,1.0,m,Tue Apr 14 2026 08:32:55 GMT-0500 (Central Daylight Time),249331.39999997616,082_m_m_n_a.png,I,m,1065,8,1,1924.2000000476837,247407.19999992847,8106,NNB,C,7
6,prac,1,0.0,1-Back,1.0,m,Tue Apr 14 2026 08:32:55 GMT-0500 (Central Daylight Time),250832.0,093_m_f_n_a.png,I,m,723,9,1,1497.0,249335.0,8106,NNB,C,8
6,prac,1,1.0,1-Back,0.0,z,Tue Apr 14 2026 08:32:55 GMT-0500 (Central Daylight Time),252080.60000002384,093_m_f_n_a.png,I,m,465,10,1,1241.0,250839.60000002384,8106,NNB,C,9
7,prac,1,0.0,1-Back,1.0,m,Tue Apr 14 2026 08:32:55 GMT-0500 (Central Daylight Time),253779.79999995232,059_o_m_n_a.png,I,m,925,11,1,1695.5,252084.29999995232,8106,NNB,C,10
8,prac,1,0.0,1-Back,1.0,m,Tue Apr 14 2026 08:32:55 GMT-0500 (Central Daylight Time),255262.89999997616,028_y_f_n_a.png,I,m,610,12,1,1473.3999999761581,253789.5,8106,NNB,C,11
0,prac,2,0.0,1-Back,,,Tue Apr 14 2026 08:32:55 GMT-0500 (Central Daylight Time),255262.89999997616,093_m_f_n_a.png,I,a,3934,1,1,1473.3999999761581,253789.5,8106,NNB,C,0
1,prac,2,0.0,1-Back,1.0,m,Tue Apr 14 2026 08:32:55 GMT-0500 (Central Daylight Time),264043.60000002384,098_y_f_n_a.png,I,m,941,2,1,1795.7000000476837,262247.89999997616,8106,NNB,C,1
2,prac,2,1.0,1-Back,1.0,z,Tue Apr 14 2026 08:32:55 GMT-0500 (Central Daylight Time),265792.89999997616,098_y_f_n_a.png,I,z,970,3,1,1745.5,264047.39999997616,8106,NNB,C,2
2,prac,2,0.0,1-Back,0.0,m,Tue Apr 14 2026 08:32:55 GMT-0500 (Central Daylight Time),268092.10000002384,059_o_m_n_a.png,I,z,1510,4,1,2289.3000000715256,265802.7999999523,8106,NNB,C,3
3,prac,2,0.0,1-Back,1.0,m,Tue Apr 14 2026 08:32:55 GMT-0500 (Central Daylight Time),269824.6999999285,092_m_m_n_a.png,I,m,881,5,1,1729.0,268095.6999999285,8106,NNB,C,4
4,prac,2,1.0,1-Back,1.0,z,Tue Apr 14 2026 08:32:55 GMT-0500 (Central Daylight Time),271574.5,092_m_m_n_a.png,I,z,960,6,1,1740.8999999761581,269833.60000002384,8106,NNB,C,5
4,prac,2,0.0,1-Back,0.0,m,Tue Apr 14 2026 08:32:55 GMT-0500 (Central Daylight Time),273607.1999999285,130_o_f_n_a.png,I,z,1152,7,1,2028.5999999046326,271578.60000002384,8106,NNB,C,6
5,prac,2,0.0,1-Back,1.0,m,Tue Apr 14 2026 08:32:55 GMT-0500 (Central Daylight Time),275856.39999997616,082_m_m_n_a.png,I,m,1387,8,1,2241.5,273614.89999997616,8106,NNB,C,7
6,prac,2,0.0,1-Back,1.0,m,Tue Apr 14 2026 08:32:55 GMT-0500 (Central Daylight Time),277489.2999999523,093_m_f_n_a.png,I,m,847,9,1,1629.2999999523163,275860.0,8106,NNB,C,8
7,prac,2,1.0,1-Back,1.0,z,Tue Apr 14 2026 08:32:55 GMT-0500 (Central Daylight Time),278738.89999997616,093_m_f_n_a.png,I,z,465,10,1,1242.2000000476837,277496.6999999285,8106,NNB,C,9
8,prac,2,0.0,1-Back,1.0,m,Tue Apr 14 2026 08:32:55 GMT-0500 (Central Daylight Time),280354.89999997616,059_o_m_n_a.png,I,m,842,11,1,1612.2999999523163,278742.60000002384,8106,NNB,C,10
9,prac,2,0.0,1-Back,1.0,m,Tue Apr 14 2026 08:32:55 GMT-0500 (Central Daylight Time),281838.10000002384,028_y_f_n_a.png,I,m,615,12,1,1474.5,280363.60000002384,8106,NNB,C,11
0,test,1,0.0,1-Back,,,Tue Apr 14 2026 08:32:55 GMT-0500 (Central Daylight Time),281838.10000002384,098_y_f_n_a.png,I,space,8247,1,1,1474.5,280363.60000002384,8106,NNB,C,0
1,test,1,0.0,1-Back,1.0,m,Tue Apr 14 2026 08:32:55 GMT-0500 (Central Daylight Time),299765.60000002384,006_m_f_n_a.png,I,m,820,2,1,1841.6000000238419,297924.0,8106,NNB,C,1
2,test,1,0.0,1-Back,1.0,m,Tue Apr 14 2026 08:32:55 GMT-0500 (Central Daylight Time),301514.89999997616,028_y_f_n_a.png,I,m,724,3,1,1746.7999999523163,299768.10000002384,8106,NNB,C,2
3,test,1,1.0,1-Back,1.0,z,Tue Apr 14 2026 08:32:55 GMT-0500 (Central Daylight Time),303131.1999999285,028_y_f_n_a.png,I,z,598,4,1,1609.3999999761581,301521.7999999523,8106,NNB,C,3
4,test,1,0.0,1-Back,1.0,m,Tue Apr 14 2026 08:32:55 GMT-0500 (Central Daylight Time),304697.5,006_m_f_n_a.png,I,m,542,5,1,1563.7000000476837,303133.7999999523,8106,NNB,C,4
5,test,1,0.0,1-Back,1.0,m,Tue Apr 14 2026 08:32:55 GMT-0500 (Central Daylight Time),306280.0,059_o_m_n_a.png,I,m,551,6,1,1576.8000000715256,304703.1999999285,8106,NNB,C,5
6,test,1,1.0,1-Back,1.0,z,Tue Apr 14 2026 08:32:55 GMT-0500 (Central Daylight Time),307829.5,059_o_m_n_a.png,I,z,521,7,1,1546.8999999761581,306282.60000002384,8106,NNB,C,6
7,test,1,0.0,1-Back,1.0,m,Tue Apr 14 2026 08:32:55 GMT-0500 (Central Daylight Time),309462.5,092_m_m_n_a.png,I,m,603,8,1,1625.8999999761581,307836.60000002384,8106,NNB,C,7
8,test,1,0.0,1-Back,1.0,m,Tue Apr 14 2026 08:32:55 GMT-0500 (Central Daylight Time),311161.89999997616,130_o_f_n_a.png,I,m,667,9,1,1696.7000000476837,309465.1999999285,8106,NNB,C,8
8,test,1,0.0,1-Back,0.0,m,Tue Apr 14 2026 08:32:55 GMT-0500 (Central Daylight Time),312844.89999997616,092_m_m_n_a.png,I,z,647,10,1,1678.5,311166.39999997616,8106,NNB,C,9
9,test,1,0.0,1-Back,1.0,m,Tue Apr 14 2026 08:32:55 GMT-0500 (Central Daylight Time),314977.6999999285,057_y_m_n_a.png,I,m,1116,11,1,2130.2999999523163,312847.39999997616,8106,NNB,C,10
10,test,1,1.0,1-Back,1.0,z,Tue Apr 14 2026 08:32:55 GMT-0500 (Central Daylight Time),316761.2999999523,057_y_m_n_a.png,I,z,752,12,1,1776.2999999523163,314985.0,8106,NNB,C,11
11,test,1,0.0,1-Back,1.0,m,Tue Apr 14 2026 08:32:55 GMT-0500 (Central Daylight Time),318926.1999999285,030_o_f_n_a.png,I,m,1145,13,1,2162.1999999284744,316764.0,8106,NNB,C,12
12,test,1,1.0,1-Back,1.0,z,Tue Apr 14 2026 08:32:55 GMT-0500 (Central Daylight Time),320742.10000002384,030_o_f_n_a.png,I,z,795,14,1,1810.7000000476837,318931.39999997616,8106,NNB,C,13
13,test,1,0.0,1-Back,1.0,m,Tue Apr 14 2026 08:32:55 GMT-0500 (Central Daylight Time),323142.6999999285,031_y_m_n_a.png,I,m,1379,15,1,2397.6999999284744,320745.0,8106,NNB,C,14
14,test,1,0.0,1-Back,1.0,m,Tue Apr 14 2026 08:32:55 GMT-0500 (Central Daylight Time),324707.7999999523,093_m_f_n_a.png,I,m,548,16,1,1559.2999999523163,323148.5,8106,NNB,C,15
15,test,1,0.0,1-Back,1.0,m,Tue Apr 14 2026 08:32:55 GMT-0500 (Central Daylight Time),326290.5,146_o_m_n_a.png,I,m,558,17,1,1580.1000000238419,324710.39999997616,8106,NNB,C,16
16,test,1,0.0,1-Back,1.0,m,Tue Apr 14 2026 08:32:55 GMT-0500 (Central Daylight Time),328056.89999997616,093_m_f_n_a.png,I,m,743,18,1,1759.7999999523163,326297.10000002384,8106,NNB,C,17
0,test,2,0.0,1-Back,,,Tue Apr 14 2026 08:32:55 GMT-0500 (Central Daylight Time),328056.89999997616,092_m_m_n_a.png,I,space,2464,1,1,1759.7999999523163,326297.10000002384,8106,NNB,C,0
1,test,2,0.0,1-Back,1.0,m,Tue Apr 14 2026 08:32:55 GMT-0500 (Central Daylight Time),334521.39999997616,006_m_f_n_a.png,I,m,950,2,1,1977.6000000238419,332543.7999999523,8106,NNB,C,1
2,test,2,1.0,1-Back,1.0,z,Tue Apr 14 2026 08:32:55 GMT-0500 (Central Daylight Time),336170.6999999285,006_m_f_n_a.png,I,z,624,3,1,1646.6999999284744,334524.0,8106,NNB,C,2
3,test,2,0.0,1-Back,1.0,m,Tue Apr 14 2026 08:32:55 GMT-0500 (Central Daylight Time),337770.1999999285,092_m_m_n_a.png,I,m,583,4,1,1593.3999999761581,336176.7999999523,8106,NNB,C,3
4,test,2,0.0,1-Back,1.0,m,Tue Apr 14 2026 08:32:55 GMT-0500 (Central Daylight Time),339369.6999999285,057_y_m_n_a.png,I,m,583,5,1,1597.0999999046326,337772.60000002384,8106,NNB,C,4
5,test,2,0.0,1-Back,1.0,m,Tue Apr 14 2026 08:32:55 GMT-0500 (Central Daylight Time),340919.5,098_y_f_n_a.png,I,m,520,6,1,1545.5,339374.0,8106,NNB,C,5
6,test,2,1.0,1-Back,1.0,z,Tue Apr 14 2026 08:32:55 GMT-0500 (Central Daylight Time),342518.6999999285,098_y_f_n_a.png,I,z,577,7,1,1596.7999999523163,340921.89999997616,8106,NNB,C,6
7,test,2,0.0,1-Back,1.0,m,Tue Apr 14 2026 08:32:55 GMT-0500 (Central Daylight Time),344018.2999999523,057_y_m_n_a.png,I,m,482,8,1,1492.6999999284744,342525.60000002384,8106,NNB,C,7
8,test,2,0.0,1-Back,1.0,m,Tue Apr 14 2026 08:32:55 GMT-0500 (Central Daylight Time),345884.0,030_o_f_n_a.png,I,m,846,9,1,1863.1000000238419,344020.89999997616,8106,NNB,C,8
9,test,2,0.0,1-Back,1.0,m,Tue Apr 14 2026 08:32:55 GMT-0500 (Central Daylight Time),347418.1999999285,082_m_m_n_a.png,I,m,500,10,1,1525.5999999046326,345892.60000002384,8106,NNB,C,9
10,test,2,1.0,1-Back,1.0,z,Tue Apr 14 2026 08:32:55 GMT-0500 (Central Daylight Time),349016.6999999285,082_m_m_n_a.png,I,z,576,11,1,1595.7999999523163,347420.89999997616,8106,NNB,C,10
11,test,2,0.0,1-Back,1.0,m,Tue Apr 14 2026 08:32:55 GMT-0500 (Central Daylight Time),350549.5,030_o_f_n_a.png,I,m,512,12,1,1526.8999999761581,349022.60000002384,8106,NNB,C,11
12,test,2,0.0,1-Back,1.0,m,Tue Apr 14 2026 08:32:55 GMT-0500 (Central Daylight Time),352084.7999999523,130_o_f_n_a.png,I,m,509,13,1,1532.6000000238419,350552.1999999285,8106,NNB,C,12
13,test,2,0.0,1-Back,1.0,m,Tue Apr 14 2026 08:32:55 GMT-0500 (Central Daylight Time),353632.10000002384,059_o_m_n_a.png,I,m,518,14,1,1541.9000000953674,352090.1999999285,8106,NNB,C,13
14,test,2,0.0,1-Back,1.0,m,Tue Apr 14 2026 08:32:55 GMT-0500 (Central Daylight Time),355164.89999997616,146_o_m_n_a.png,I,m,505,15,1,1530.6000000238419,353634.2999999523,8106,NNB,C,14
15,test,2,1.0,1-Back,1.0,z,Tue Apr 14 2026 08:32:55 GMT-0500 (Central Daylight Time),356914.2999999523,146_o_m_n_a.png,I,z,733,16,1,1743.3999999761581,355170.89999997616,8106,NNB,C,15
16,test,2,0.0,1-Back,1.0,m,Tue Apr 14 2026 08:32:55 GMT-0500 (Central Daylight Time),358447.39999997616,031_y_m_n_a.png,I,m,503,17,1,1530.5,356916.89999997616,8106,NNB,C,16
17,test,2,1.0,1-Back,1.0,z,Tue Apr 14 2026 08:32:55 GMT-0500 (Central Daylight Time),360179.89999997616,031_y_m_n_a.png,I,z,713,18,1,1724.5,358455.39999997616,8106,NNB,C,17
0,test,3,1.0,1-Back,,,Tue Apr 14 2026 08:32:55 GMT-0500 (Central Daylight Time),360179.89999997616,028_y_f_n_a.png,I,space,1862,1,1,1724.5,358455.39999997616,8106,NNB,C,0
1,test,3,0.0,1-Back,1.0,m,Tue Apr 14 2026 08:32:55 GMT-0500 (Central Daylight Time),366544.60000002384,146_o_m_n_a.png,I,m,1392,1,1,2408.4000000953674,364136.1999999285,8106,NNB,C,1
2,test,3,1.0,1-Back,1.0,z,Tue Apr 14 2026 08:32:55 GMT-0500 (Central Daylight Time),368194.0,146_o_m_n_a.png,I,z,625,1,1,1646.5,366547.5,8106,NNB,C,2
3,test,3,0.0,1-Back,1.0,m,Tue Apr 14 2026 08:32:55 GMT-0500 (Central Daylight Time),370376.7999999523,093_m_f_n_a.png,I,m,1159,1,1,2175.6999999284744,368201.10000002384,8106,NNB,C,3
4,test,3,1.0,1-Back,1.0,z,Tue Apr 14 2026 08:32:55 GMT-0500 (Central Daylight Time),371877.5,093_m_f_n_a.png,I,z,473,1,1,1498.3000000715256,370379.1999999285,8106,NNB,C,4
5,test,3,0.0,1-Back,1.0,m,Tue Apr 14 2026 08:32:55 GMT-0500 (Central Daylight Time),373475.39999997616,030_o_f_n_a.png,I,m,580,1,1,1592.0,371883.39999997616,8106,NNB,C,5
6,test,3,0.0,1-Back,1.0,m,Tue Apr 14 2026 08:32:55 GMT-0500 (Central Daylight Time),375358.10000002384,057_y_m_n_a.png,I,m,860,1,1,1879.8000000715256,373478.2999999523,8106,NNB,C,6
7,test,3,0.0,1-Back,1.0,m,Tue Apr 14 2026 08:32:55 GMT-0500 (Central Daylight Time),377141.5,030_o_f_n_a.png,I,m,754,1,1,1776.0,375365.5,8106,NNB,C,7
8,test,3,0.0,1-Back,1.0,m,Tue Apr 14 2026 08:32:55 GMT-0500 (Central Daylight Time),378807.5,031_y_m_n_a.png,I,m,636,1,1,1662.8999999761581,377144.60000002384,8106,NNB,C,8
8,test,3,1.0,1-Back,0.0,z,Tue Apr 14 2026 08:32:55 GMT-0500 (Central Daylight Time),380857.0,031_y_m_n_a.png,I,m,1024,1,1,2042.1000000238419,378814.89999997616,8106,NNB,C,9
9,test,3,0.0,1-Back,1.0,m,Tue Apr 14 2026 08:32:55 GMT-0500 (Central Daylight Time),382523.89999997616,006_m_f_n_a.png,I,m,647,1,1,1664.3999999761581,380859.5,8106,NNB,C,10
10,test,3,0.0,1-Back,1.0,m,Tue Apr 14 2026 08:32:55 GMT-0500 (Central Daylight Time),384189.10000002384,098_y_f_n_a.png,I,m,646,1,1,1659.0,382530.10000002384,8106,NNB,C,11
11,test,3,1.0,1-Back,1.0,z,Tue Apr 14 2026 08:32:55 GMT-0500 (Central Daylight Time),385722.1999999285,098_y_f_n_a.png,I,z,500,1,1,1530.5999999046326,384191.60000002384,8106,NNB,C,12
12,test,3,0.0,1-Back,1.0,m,Tue Apr 14 2026 08:32:55 GMT-0500 (Central Daylight Time),387255.0,006_m_f_n_a.png,I,m,511,1,1,1527.7000000476837,385727.2999999523,8106,NNB,C,13
13,test,3,0.0,1-Back,1.0,m,Tue Apr 14 2026 08:32:55 GMT-0500 (Central Daylight Time),388854.39999997616,092_m_m_n_a.png,I,m,579,1,1,1597.0,387257.39999997616,8106,NNB,C,14
14,test,3,1.0,1-Back,1.0,z,Tue Apr 14 2026 08:32:55 GMT-0500 (Central Daylight Time),390470.6999999285,092_m_m_n_a.png,I,z,595,1,1,1610.0,388860.6999999285,8106,NNB,C,15
15,test,3,0.0,1-Back,1.0,m,Tue Apr 14 2026 08:32:55 GMT-0500 (Central Daylight Time),392086.5,130_o_f_n_a.png,I,m,587,1,1,1613.5,390473.0,8106,NNB,C,16
16,test,3,1.0,1-Back,1.0,z,Tue Apr 14 2026 08:32:55 GMT-0500 (Central Daylight Time),394835.6999999285,130_o_f_n_a.png,I,z,1722,1,1,2744.2999999523163,392091.39999997616,8106,NNB,C,17
0,test,4,1.0,1-Back,,,Tue Apr 14 2026 08:32:55 GMT-0500 (Central Daylight Time),394835.6999999285,093_m_f_n_a.png,I,space,1861,1,1,2744.2999999523163,392091.39999997616,8106,NNB,C,0
1,test,4,0.0,1-Back,1.0,m,Tue Apr 14 2026 08:32:55 GMT-0500 (Central Daylight Time),400783.89999997616,146_o_m_n_a.png,I,m,976,2,1,1992.5,398791.39999997616,8106,NNB,C,1
2,test,4,0.0,1-Back,1.0,m,Tue Apr 14 2026 08:32:55 GMT-0500 (Central Daylight Time),402349.89999997616,093_m_f_n_a.png,I,m,546,3,1,1563.2999999523163,400786.60000002384,8106,NNB,C,2
3,test,4,0.0,1-Back,1.0,m,Tue Apr 14 2026 08:32:55 GMT-0500 (Central Daylight Time),403883.10000002384,030_o_f_n_a.png,I,m,500,4,1,1527.4000000953674,402355.6999999285,8106,NNB,C,3
4,test,4,1.0,1-Back,1.0,z,Tue Apr 14 2026 08:32:55 GMT-0500 (Central Daylight Time),405465.7999999523,030_o_f_n_a.png,I,z,559,5,1,1580.3999999761581,403885.39999997616,8106,NNB,C,4
5,test,4,0.0,1-Back,1.0,m,Tue Apr 14 2026 08:32:55 GMT-0500 (Central Daylight Time),407015.2999999523,098_y_f_n_a.png,I,m,518,6,1,1545.2999999523163,405470.0,8106,NNB,C,5
6,test,4,0.0,1-Back,1.0,m,Tue Apr 14 2026 08:32:55 GMT-0500 (Central Daylight Time),408514.7999999523,057_y_m_n_a.png,I,m,473,7,1,1497.1000000238419,407017.6999999285,8106,NNB,C,6
7,test,4,1.0,1-Back,1.0,z,Tue Apr 14 2026 08:32:55 GMT-0500 (Central Daylight Time),409981.0,057_y_m_n_a.png,I,z,446,8,1,1458.8999999761581,408522.10000002384,8106,NNB,C,7
8,test,4,0.0,1-Back,1.0,m,Tue Apr 14 2026 08:32:55 GMT-0500 (Central Daylight Time),411513.6999999285,098_y_f_n_a.png,I,m,508,9,1,1530.0999999046326,409983.60000002384,8106,NNB,C,8
9,test,4,0.0,1-Back,1.0,m,Tue Apr 14 2026 08:32:55 GMT-0500 (Central Daylight Time),413096.5,082_m_m_n_a.png,I,m,558,10,1,1578.3999999761581,411518.10000002384,8106,NNB,C,9
10,test,4,1.0,1-Back,1.0,z,Tue Apr 14 2026 08:32:55 GMT-0500 (Central Daylight Time),414662.7999999523,082_m_m_n_a.png,I,z,544,11,1,1564.0,413098.7999999523,8106,NNB,C,10
11,test,4,0.0,1-Back,1.0,m,Tue Apr 14 2026 08:32:55 GMT-0500 (Central Daylight Time),416895.6999999285,130_o_f_n_a.png,I,m,1201,12,1,2228.5999999046326,414667.10000002384,8106,NNB,C,11
12,test,4,0.0,1-Back,1.0,m,Tue Apr 14 2026 08:32:55 GMT-0500 (Central Daylight Time),418361.6999999285,059_o_m_n_a.png,I,m,433,13,1,1463.5999999046326,416898.10000002384,8106,NNB,C,12
13,test,4,0.0,1-Back,1.0,m,Tue Apr 14 2026 08:32:55 GMT-0500 (Central Daylight Time),419861.1999999285,130_o_f_n_a.png,I,m,478,14,1,1492.5999999046326,418368.60000002384,8106,NNB,C,13
14,test,4,0.0,1-Back,1.0,m,Tue Apr 14 2026 08:32:55 GMT-0500 (Central Daylight Time),421360.6999999285,028_y_f_n_a.png,I,m,467,15,1,1496.8999999761581,419863.7999999523,8106,NNB,C,14
15,test,4,1.0,1-Back,1.0,z,Tue Apr 14 2026 08:32:55 GMT-0500 (Central Daylight Time),422962.1999999285,028_y_f_n_a.png,I,z,585,16,1,1594.7999999523163,421367.39999997616,8106,NNB,C,15
16,test,4,0.0,1-Back,1.0,m,Tue Apr 14 2026 08:32:55 GMT-0500 (Central Daylight Time),424443.2999999523,006_m_f_n_a.png,I,m,456,17,1,1478.6000000238419,422964.6999999285,8106,NNB,C,16
16,test,4,1.0,1-Back,0.0,z,Tue Apr 14 2026 08:32:55 GMT-0500 (Central Daylight Time),425959.2999999523,006_m_f_n_a.png,I,m,494,18,1,1510.1999999284744,424449.10000002384,8106,NNB,C,17
0,test,5,1.0,1-Back,,,Tue Apr 14 2026 08:32:55 GMT-0500 (Central Daylight Time),425959.2999999523,059_o_m_n_a.png,I,space,1474,1,1,1510.1999999284744,424449.10000002384,8106,NNB,C,0
1,test,5,1.0,1-Back,1.0,z,Tue Apr 14 2026 08:32:55 GMT-0500 (Central Daylight Time),431641.0,059_o_m_n_a.png,I,z,1150,2,1,2178.5,429462.5,8106,NNB,C,1
2,test,5,0.0,1-Back,1.0,m,Tue Apr 14 2026 08:32:55 GMT-0500 (Central Daylight Time),433740.39999997616,098_y_f_n_a.png,I,m,1081,3,1,2097.2000000476837,431643.1999999285,8106,NNB,C,2
3,test,5,0.0,1-Back,1.0,m,Tue Apr 14 2026 08:32:55 GMT-0500 (Central Daylight Time),435289.5,057_y_m_n_a.png,I,m,517,4,1,1543.2000000476837,433746.2999999523,8106,NNB,C,3
4,test,5,0.0,1-Back,1.0,m,Tue Apr 14 2026 08:32:55 GMT-0500 (Central Daylight Time),436905.89999997616,098_y_f_n_a.png,I,m,583,5,1,1614.1000000238419,435291.7999999523,8106,NNB,C,4
5,test,5,0.0,1-Back,1.0,m,Tue Apr 14 2026 08:32:55 GMT-0500 (Central Daylight Time),438388.7999999523,092_m_m_n_a.png,I,m,454,6,1,1477.1000000238419,436911.6999999285,8106,NNB,C,5
6,test,5,1.0,1-Back,1.0,z,Tue Apr 14 2026 08:32:55 GMT-0500 (Central Daylight Time),439871.60000002384,092_m_m_n_a.png,I,z,453,7,1,1480.4000000953674,438391.1999999285,8106,NNB,C,6
7,test,5,0.0,1-Back,1.0,m,Tue Apr 14 2026 08:32:55 GMT-0500 (Central Daylight Time),441354.1999999285,028_y_f_n_a.png,I,m,465,8,1,1475.5999999046326,439878.60000002384,8106,NNB,C,7
8,test,5,0.0,1-Back,1.0,m,Tue Apr 14 2026 08:32:55 GMT-0500 (Central Daylight Time),442953.89999997616,031_y_m_n_a.png,I,m,582,9,1,1597.3999999761581,441356.5,8106,NNB,C,8
9,test,5,0.0,1-Back,1.0,m,Tue Apr 14 2026 08:32:55 GMT-0500 (Central Daylight Time),444420.10000002384,028_y_f_n_a.png,I,m,439,10,1,1460.7000000476837,442959.39999997616,8106,NNB,C,9
10,test,5,0.0,1-Back,1.0,m,Tue Apr 14 2026 08:32:55 GMT-0500 (Central Daylight Time),445919.89999997616,130_o_f_n_a.png,I,m,477,11,1,1497.2999999523163,444422.60000002384,8106,NNB,C,10
11,test,5,1.0,1-Back,1.0,z,Tue Apr 14 2026 08:32:55 GMT-0500 (Central Daylight Time),447602.2999999523,130_o_f_n_a.png,I,z,665,12,1,1675.8999999761581,445926.39999997616,8106,NNB,C,11
12,test,5,0.0,1-Back,1.0,m,Tue Apr 14 2026 08:32:55 GMT-0500 (Central Daylight Time),449235.1999999285,146_o_m_n_a.png,I,m,615,13,1,1630.7999999523163,447604.39999997616,8106,NNB,C,12
13,test,5,0.0,1-Back,1.0,m,Tue Apr 14 2026 08:32:55 GMT-0500 (Central Daylight Time),450818.10000002384,093_m_f_n_a.png,I,m,565,14,1,1577.1000000238419,449241.0,8106,NNB,C,13
14,test,5,1.0,1-Back,1.0,z,Tue Apr 14 2026 08:32:55 GMT-0500 (Central Daylight Time),452700.89999997616,093_m_f_n_a.png,I,z,855,15,1,1880.6000000238419,450820.2999999523,8106,NNB,C,14
15,test,5,0.0,1-Back,1.0,m,Tue Apr 14 2026 08:32:55 GMT-0500 (Central Daylight Time),454683.60000002384,146_o_m_n_a.png,I,m,957,16,1,1976.7000000476837,452706.89999997616,8106,NNB,C,15
16,test,5,0.0,1-Back,1.0,m,Tue Apr 14 2026 08:32:55 GMT-0500 (Central Daylight Time),456250.0,006_m_f_n_a.png,I,m,542,17,1,1563.6000000238419,454686.39999997616,8106,NNB,C,16
17,test,5,0.0,1-Back,1.0,m,Tue Apr 14 2026 08:32:55 GMT-0500 (Central Daylight Time),457766.1999999285,082_m_m_n_a.png,I,m,496,18,1,1512.0,456254.1999999285,8106,NNB,C,17
0,prac,1,0.0,2-Back,,,Tue Apr 14 2026 08:32:55 GMT-0500 (Central Daylight Time),457766.1999999285,031_y_m_n_a.png,I,space,3753,1,1,1512.0,456254.1999999285,8106,NNB,C,0
0,prac,1,0.0,2-Back,,,Tue Apr 14 2026 08:32:55 GMT-0500 (Central Daylight Time),457766.1999999285,006_m_f_n_a.png,I,space,3753,2,1,1512.0,456254.1999999285,8106,NNB,C,0
1,prac,1,1.0,2-Back,1.0,m,Tue Apr 14 2026 08:32:55 GMT-0500 (Central Daylight Time),602071.1000000238,146_o_m_n_a.png,I,m,1545,3,1,2412.100000023842,599659.0,8106,NNB,C,1
1,prac,1,0.0,2-Back,0.0,m,Tue Apr 14 2026 08:32:55 GMT-0500 (Central Daylight Time),604969.6999999285,130_o_f_n_a.png,I,None,2017,4,1,2890.0,602079.6999999285,8106,NNB,C,2
1,prac,1,0.0,2-Back,0.0,z,Tue Apr 14 2026 08:32:55 GMT-0500 (Central Daylight Time),607752.2999999523,146_o_m_n_a.png,I,None,2013,5,1,2779.100000023842,604973.1999999285,8106,NNB,C,3
2,prac,1,1.0,2-Back,1.0,z,Tue Apr 14 2026 08:32:55 GMT-0500 (Central Daylight Time),609918.1999999285,130_o_f_n_a.png,I,z,1384,6,1,2157.1999999284744,607761.0,8106,NNB,C,4
2,prac,1,0.0,2-Back,0.0,m,Tue Apr 14 2026 08:32:55 GMT-0500 (Central Daylight Time),612700.8999999762,082_m_m_n_a.png,I,None,2014,7,1,2779.2999999523163,609921.6000000238,8106,NNB,C,5
2,prac,1,0.0,2-Back,0.0,m,Tue Apr 14 2026 08:32:55 GMT-0500 (Central Daylight Time),614950.1999999285,059_o_m_n_a.png,I,z,1378,8,1,2240.5999999046326,612709.6000000238,8106,NNB,C,6
3,prac,1,0.0,2-Back,1.0,m,Tue Apr 14 2026 08:32:55 GMT-0500 (Central Daylight Time),617166.1999999285,028_y_f_n_a.png,I,m,1362,9,1,2212.5,614953.6999999285,8106,NNB,C,7
4,prac,1,1.0,2-Back,1.0,z,Tue Apr 14 2026 08:32:55 GMT-0500 (Central Daylight Time),618948.8999999762,059_o_m_n_a.png,I,z,996,10,1,1775.3999999761581,617173.5,8106,NNB,C,8
5,prac,1,0.0,2-Back,1.0,m,Tue Apr 14 2026 08:32:55 GMT-0500 (Central Daylight Time),621315.0,098_y_f_n_a.png,I,m,1505,11,1,2361.899999976158,618953.1000000238,8106,NNB,C,9
5,prac,1,0.0,2-Back,0.0,m,Tue Apr 14 2026 08:32:55 GMT-0500 (Central Daylight Time),623447.6000000238,082_m_m_n_a.png,I,z,1340,12,1,2122.9000000953674,621324.6999999285,8106,NNB,C,10
0,prac,2,0.0,2-Back,,,Tue Apr 14 2026 08:32:55 GMT-0500 (Central Daylight Time),623447.6000000238,031_y_m_n_a.png,I,a,4791,1,1,2122.9000000953674,621324.6999999285,8106,NNB,C,0
0,prac,2,0.0,2-Back,,,Tue Apr 14 2026 08:32:55 GMT-0500 (Central Daylight Time),623447.6000000238,006_m_f_n_a.png,I,a,4791,2,1,2122.9000000953674,621324.6999999285,8106,NNB,C,0
1,prac,2,1.0,2-Back,1.0,m,Tue Apr 14 2026 08:32:55 GMT-0500 (Central Daylight Time),635427.0,146_o_m_n_a.png,I,m,1098,3,1,1961.5,633465.5,8106,NNB,C,1
2,prac,2,0.0,2-Back,1.0,m,Tue Apr 14 2026 08:32:55 GMT-0500 (Central Daylight Time),638076.1000000238,130_o_f_n_a.png,I,m,1768,4,1,2641.3000000715256,635434.7999999523,8106,NNB,C,2
3,prac,2,0.0,2-Back,1.0,z,Tue Apr 14 2026 08:32:55 GMT-0500 (Central Daylight Time),639825.6000000238,146_o_m_n_a.png,I,z,978,5,1,1746.0,638079.6000000238,8106,NNB,C,3
4,prac,2,1.0,2-Back,1.0,z,Tue Apr 14 2026 08:32:55 GMT-0500 (Central Daylight Time),641725.2999999523,130_o_f_n_a.png,I,z,1118,6,1,1889.7999999523163,639835.5,8106,NNB,C,4
5,prac,2,0.0,2-Back,1.0,m,Tue Apr 14 2026 08:32:55 GMT-0500 (Central Daylight Time),643424.7999999523,082_m_m_n_a.png,I,m,929,7,1,1695.8999999761581,641728.8999999762,8106,NNB,C,5
6,prac,2,0.0,2-Back,1.0,m,Tue Apr 14 2026 08:32:55 GMT-0500 (Central Daylight Time),645490.3999999762,059_o_m_n_a.png,I,m,1199,8,1,2056.399999976158,643434.0,8106,NNB,C,6
7,prac,2,0.0,2-Back,1.0,m,Tue Apr 14 2026 08:32:55 GMT-0500 (Central Daylight Time),647173.3999999762,028_y_f_n_a.png,I,m,829,9,1,1679.6000000238419,645493.7999999523,8106,NNB,C,7
8,prac,2,1.0,2-Back,1.0,z,Tue Apr 14 2026 08:32:55 GMT-0500 (Central Daylight Time),648690.6999999285,059_o_m_n_a.png,I,z,725,10,1,1509.3999999761581,647181.2999999523,8106,NNB,C,8
9,prac,2,0.0,2-Back,1.0,m,Tue Apr 14 2026 08:32:55 GMT-0500 (Central Daylight Time),650589.1000000238,098_y_f_n_a.png,I,m,1049,11,1,1894.8000000715256,648694.2999999523,8106,NNB,C,9
9,prac,2,0.0,2-Back,0.0,m,Tue Apr 14 2026 08:32:55 GMT-0500 (Central Daylight Time),652538.3999999762,082_m_m_n_a.png,I,z,1171,12,1,1939.8999999761581,650598.5,8106,NNB,C,10
0,test,1,0.0,2-Back,,,Tue Apr 14 2026 08:32:55 GMT-0500 (Central Daylight Time),652538.3999999762,057_y_m_n_a.png,I,space,5693,1,1,1939.8999999761581,650598.5,8106,NNB,C,0
0,test,1,0.0,2-Back,,,Tue Apr 14 2026 08:32:55 GMT-0500 (Central Daylight Time),652538.3999999762,057_y_m_n_a.png,I,space,5693,2,1,1939.8999999761581,650598.5,8106,NNB,C,0
1,test,1,0.0,2-Back,1.0,m,Tue Apr 14 2026 08:32:55 GMT-0500 (Central Daylight Time),674731.6000000238,130_o_f_n_a.png,I,m,1605,3,1,2629.9000000953674,672101.6999999285,8106,NNB,C,1
2,test,1,0.0,2-Back,1.0,m,Tue Apr 14 2026 08:32:55 GMT-0500 (Central Daylight Time),676947.1000000238,092_m_m_n_a.png,I,m,1198,4,1,2210.0,674737.1000000238,8106,NNB,C,2
3,test,1,1.0,2-Back,1.0,z,Tue Apr 14 2026 08:32:55 GMT-0500 (Central Daylight Time),678930.5,130_o_f_n_a.png,I,z,950,5,1,1981.1000000238419,676949.3999999762,8106,NNB,C,3
4,test,1,0.0,2-Back,1.0,m,Tue Apr 14 2026 08:32:55 GMT-0500 (Central Daylight Time),680946.2999999523,098_y_f_n_a.png,I,m,983,6,1,2009.2999999523163,678937.0,8106,NNB,C,4
4,test,1,0.0,2-Back,0.0,m,Tue Apr 14 2026 08:32:55 GMT-0500 (Central Daylight Time),682695.3999999762,092_m_m_n_a.png,I,z,727,7,1,1746.5,680948.8999999762,8106,NNB,C,5
5,test,1,1.0,2-Back,1.0,z,Tue Apr 14 2026 08:32:55 GMT-0500 (Central Daylight Time),684611.1999999285,098_y_f_n_a.png,I,z,898,8,1,1911.7999999523163,682699.3999999762,8106,NNB,C,6
6,test,1,0.0,2-Back,1.0,m,Tue Apr 14 2026 08:32:55 GMT-0500 (Central Daylight Time),686410.6999999285,031_y_m_n_a.png,I,m,782,9,1,1797.1999999284744,684613.5,8106,NNB,C,7
7,test,1,0.0,2-Back,1.0,m,Tue Apr 14 2026 08:32:55 GMT-0500 (Central Daylight Time),688177.6000000238,030_o_f_n_a.png,I,m,749,10,1,1761.3000000715256,686416.2999999523,8106,NNB,C,8
8,test,1,1.0,2-Back,1.0,z,Tue Apr 14 2026 08:32:55 GMT-0500 (Central Daylight Time),690010.0,031_y_m_n_a.png,I,z,808,11,1,1830.2000000476837,688179.7999999523,8106,NNB,C,9
9,test,1,0.0,2-Back,1.0,m,Tue Apr 14 2026 08:32:55 GMT-0500 (Central Daylight Time),691709.3999999762,006_m_f_n_a.png,I,m,679,12,1,1695.1000000238419,690014.2999999523,8106,NNB,C,10
10,test,1,0.0,2-Back,1.0,m,Tue Apr 14 2026 08:32:55 GMT-0500 (Central Daylight Time),693442.1000000238,006_m_f_n_a.png,I,m,708,13,1,1730.2000000476837,691711.8999999762,8106,NNB,C,11
11,test,1,0.0,2-Back,1.0,m,Tue Apr 14 2026 08:32:55 GMT-0500 (Central Daylight Time),695808.1000000238,146_o_m_n_a.png,I,m,1335,14,1,2361.3000000715256,693446.7999999523,8106,NNB,C,12
12,test,1,0.0,2-Back,1.0,m,Tue Apr 14 2026 08:32:55 GMT-0500 (Central Daylight Time),697890.8999999762,030_o_f_n_a.png,I,m,1057,15,1,2080.2999999523163,695810.6000000238,8106,NNB,C,13
13,test,1,1.0,2-Back,1.0,z,Tue Apr 14 2026 08:32:55 GMT-0500 (Central Daylight Time),699740.3999999762,146_o_m_n_a.png,I,z,823,16,1,1844.2999999523163,697896.1000000238,8106,NNB,C,14
14,test,1,0.0,2-Back,1.0,m,Tue Apr 14 2026 08:32:55 GMT-0500 (Central Daylight Time),701539.5,093_m_f_n_a.png,I,m,773,17,1,1796.6000000238419,699742.8999999762,8106,NNB,C,15
15,test,1,0.0,2-Back,1.0,m,Tue Apr 14 2026 08:32:55 GMT-0500 (Central Daylight Time),703305.8999999762,082_m_m_n_a.png,I,m,733,18,1,1759.6000000238419,701546.2999999523,8106,NNB,C,16
0,test,2,0.0,2-Back,,,Tue Apr 14 2026 08:32:55 GMT-0500 (Central Daylight Time),703305.8999999762,082_m_m_n_a.png,I,space,1920,1,1,1759.6000000238419,701546.2999999523,8106,NNB,C,0
0,test,2,0.0,2-Back,,,Tue Apr 14 2026 08:32:55 GMT-0500 (Central Daylight Time),703305.8999999762,028_y_f_n_a.png,I,space,1920,2,1,1759.6000000238419,701546.2999999523,8106,NNB,C,0
1,test,2,1.0,2-Back,1.0,z,Tue Apr 14 2026 08:32:55 GMT-0500 (Central Daylight Time),712303.1999999285,082_m_m_n_a.png,I,z,920,3,1,1946.5,710356.6999999285,8106,NNB,C,1
2,test,2,0.0,2-Back,1.0,m,Tue Apr 14 2026 08:32:55 GMT-0500 (Central Daylight Time),714220.1000000238,093_m_f_n_a.png,I,m,897,4,1,1912.5,712307.6000000238,8106,NNB,C,2
2,test,2,0.0,2-Back,0.0,m,Tue Apr 14 2026 08:32:55 GMT-0500 (Central Daylight Time),717251.1000000238,028_y_f_n_a.png,I,None,2015,5,1,3028.3000000715256,714222.7999999523,8106,NNB,C,3
2,test,2,0.0,2-Back,0.0,m,Tue Apr 14 2026 08:32:55 GMT-0500 (Central Daylight Time),719183.6000000238,146_o_m_n_a.png,I,z,909,6,1,1928.8000000715256,717254.7999999523,8106,NNB,C,4
3,test,2,0.0,2-Back,1.0,m,Tue Apr 14 2026 08:32:55 GMT-0500 (Central Daylight Time),721166.8999999762,098_y_f_n_a.png,I,m,962,7,1,1980.3999999761581,719186.5,8106,NNB,C,5
4,test,2,1.0,2-Back,1.0,z,Tue Apr 14 2026 08:32:55 GMT-0500 (Central Daylight Time),722816.1999999285,146_o_m_n_a.png,I,z,618,8,1,1645.1999999284744,721171.0,8106,NNB,C,6
5,test,2,0.0,2-Back,1.0,m,Tue Apr 14 2026 08:32:55 GMT-0500 (Central Daylight Time),724566.1000000238,031_y_m_n_a.png,I,m,729,9,1,1747.4000000953674,722818.6999999285,8106,NNB,C,7
6,test,2,0.0,2-Back,1.0,m,Tue Apr 14 2026 08:32:55 GMT-0500 (Central Daylight Time),726132.1000000238,031_y_m_n_a.png,I,m,538,10,1,1561.8000000715256,724570.2999999523,8106,NNB,C,8
7,test,2,0.0,2-Back,1.0,m,Tue Apr 14 2026 08:32:55 GMT-0500 (Central Daylight Time),727931.3999999762,006_m_f_n_a.png,I,m,773,11,1,1796.8999999761581,726134.5,8106,NNB,C,9
8,test,2,0.0,2-Back,1.0,m,Tue Apr 14 2026 08:32:55 GMT-0500 (Central Daylight Time),729585.7999999523,028_y_f_n_a.png,I,m,638,12,1,1648.3999999761581,727937.3999999762,8106,NNB,C,10
9,test,2,1.0,2-Back,1.0,z,Tue Apr 14 2026 08:32:55 GMT-0500 (Central Daylight Time),731546.6000000238,006_m_f_n_a.png,I,z,946,13,1,1958.3000000715256,729588.2999999523,8106,NNB,C,11
10,test,2,0.0,2-Back,1.0,m,Tue Apr 14 2026 08:32:55 GMT-0500 (Central Daylight Time),733330.7999999523,059_o_m_n_a.png,I,m,758,14,1,1779.3999999761581,731551.3999999762,8106,NNB,C,12
11,test,2,0.0,2-Back,1.0,m,Tue Apr 14 2026 08:32:55 GMT-0500 (Central Daylight Time),734978.7999999523,059_o_m_n_a.png,I,m,632,15,1,1645.5,733333.2999999523,8106,NNB,C,13
12,test,2,0.0,2-Back,1.0,m,Tue Apr 14 2026 08:32:55 GMT-0500 (Central Daylight Time),736695.2999999523,030_o_f_n_a.png,I,m,694,16,1,1709.2999999523163,734986.0,8106,NNB,C,14
12,test,2,0.0,2-Back,0.0,m,Tue Apr 14 2026 08:32:55 GMT-0500 (Central Daylight Time),738394.6999999285,092_m_m_n_a.png,I,z,673,17,1,1696.7999999523163,736697.8999999762,8106,NNB,C,15
13,test,2,1.0,2-Back,1.0,z,Tue Apr 14 2026 08:32:55 GMT-0500 (Central Daylight Time),740444.1999999285,030_o_f_n_a.png,I,z,1023,18,1,2040.8999999761581,738403.2999999523,8106,NNB,C,16
0,test,3,1.0,2-Back,,,Tue Apr 14 2026 08:32:55 GMT-0500 (Central Daylight Time),740444.1999999285,057_y_m_n_a.png,I,space,1573,1,1,2040.8999999761581,738403.2999999523,8106,NNB,C,0
0,test,3,1.0,2-Back,,,Tue Apr 14 2026 08:32:55 GMT-0500 (Central Daylight Time),740444.1999999285,057_y_m_n_a.png,I,space,1573,2,1,2040.8999999761581,738403.2999999523,8106,NNB,C,0
1,test,3,0.0,2-Back,1.0,m,Tue Apr 14 2026 08:32:55 GMT-0500 (Central Daylight Time),748941.3999999762,030_o_f_n_a.png,I,m,755,3,1,1779.0,747162.3999999762,8106,NNB,C,1
2,test,3,0.0,2-Back,1.0,m,Tue Apr 14 2026 08:32:55 GMT-0500 (Central Daylight Time),750690.6999999285,082_m_m_n_a.png,I,m,731,4,1,1742.0,748948.6999999285,8106,NNB,C,2
3,test,3,1.0,2-Back,1.0,z,Tue Apr 14 2026 08:32:55 GMT-0500 (Central Daylight Time),752340.5,030_o_f_n_a.png,I,z,623,5,1,1647.6000000238419,750692.8999999762,8106,NNB,C,3
4,test,3,0.0,2-Back,1.0,m,Tue Apr 14 2026 08:32:55 GMT-0500 (Central Daylight Time),754090.0,031_y_m_n_a.png,I,m,733,6,1,1743.1000000238419,752346.8999999762,8106,NNB,C,4
4,test,3,0.0,2-Back,0.0,m,Tue Apr 14 2026 08:32:55 GMT-0500 (Central Daylight Time),755839.2999999523,082_m_m_n_a.png,I,z,719,7,1,1746.8999999761581,754092.3999999762,8106,NNB,C,5
5,test,3,1.0,2-Back,1.0,z,Tue Apr 14 2026 08:32:55 GMT-0500 (Central Daylight Time),758072.0,031_y_m_n_a.png,I,z,1202,8,1,2227.3000000715256,755844.6999999285,8106,NNB,C,6
6,test,3,0.0,2-Back,1.0,m,Tue Apr 14 2026 08:32:55 GMT-0500 (Central Daylight Time),759754.8999999762,028_y_f_n_a.png,I,m,658,9,1,1680.5,758074.3999999762,8106,NNB,C,7
7,test,3,0.0,2-Back,1.0,m,Tue Apr 14 2026 08:32:55 GMT-0500 (Central Daylight Time),761820.6999999285,092_m_m_n_a.png,I,m,1047,10,1,2059.6999999284744,759761.0,8106,NNB,C,8
8,test,3,1.0,2-Back,1.0,z,Tue Apr 14 2026 08:32:55 GMT-0500 (Central Daylight Time),763603.1000000238,028_y_f_n_a.png,I,z,765,11,1,1780.1000000238419,761823.0,8106,NNB,C,9
9,test,3,1.0,2-Back,1.0,z,Tue Apr 14 2026 08:32:55 GMT-0500 (Central Daylight Time),765552.8999999762,092_m_m_n_a.png,I,z,917,12,1,1943.6000000238419,763609.2999999523,8106,NNB,C,10
10,test,3,0.0,2-Back,1.0,m,Tue Apr 14 2026 08:32:55 GMT-0500 (Central Daylight Time),767386.7999999523,030_o_f_n_a.png,I,m,801,13,1,1831.3999999761581,765555.3999999762,8106,NNB,C,11
11,test,3,0.0,2-Back,1.0,m,Tue Apr 14 2026 08:32:55 GMT-0500 (Central Daylight Time),769102.0,093_m_f_n_a.png,I,m,688,14,1,1711.3000000715256,767390.6999999285,8106,NNB,C,12
12,test,3,0.0,2-Back,1.0,m,Tue Apr 14 2026 08:32:55 GMT-0500 (Central Daylight Time),770934.6000000238,146_o_m_n_a.png,I,m,812,15,1,1829.8000000715256,769104.7999999523,8106,NNB,C,13
12,test,3,1.0,2-Back,0.0,z,Tue Apr 14 2026 08:32:55 GMT-0500 (Central Daylight Time),772867.1999999285,093_m_f_n_a.png,I,m,907,16,1,1923.6999999284744,770943.5,8106,NNB,C,14
13,test,3,0.0,2-Back,1.0,m,Tue Apr 14 2026 08:32:55 GMT-0500 (Central Daylight Time),774466.5,130_o_f_n_a.png,I,m,582,17,1,1597.0,772869.5,8106,NNB,C,15
14,test,3,0.0,2-Back,1.0,m,Tue Apr 14 2026 08:32:55 GMT-0500 (Central Daylight Time),776432.5,130_o_f_n_a.png,I,m,934,18,1,1961.1000000238419,774471.3999999762,8106,NNB,C,16
0,test,4,0.0,2-Back,,,Tue Apr 14 2026 08:32:55 GMT-0500 (Central Daylight Time),776432.5,059_o_m_n_a.png,I,space,1633,1,1,1961.1000000238419,774471.3999999762,8106,NNB,C,0
0,test,4,0.0,2-Back,,,Tue Apr 14 2026 08:32:55 GMT-0500 (Central Daylight Time),776432.5,098_y_f_n_a.png,I,space,1633,2,1,1961.1000000238419,774471.3999999762,8106,NNB,C,0
1,test,4,1.0,2-Back,1.0,z,Tue Apr 14 2026 08:32:55 GMT-0500 (Central Daylight Time),785429.6999999285,059_o_m_n_a.png,I,z,1129,3,1,2146.0999999046326,783283.6000000238,8106,NNB,C,1
2,test,4,1.0,2-Back,1.0,z,Tue Apr 14 2026 08:32:55 GMT-0500 (Central Daylight Time),787412.7999999523,098_y_f_n_a.png,I,z,964,4,1,1977.8999999761581,785434.8999999762,8106,NNB,C,2
3,test,4,0.0,2-Back,1.0,m,Tue Apr 14 2026 08:32:55 GMT-0500 (Central Daylight Time),789161.7999999523,030_o_f_n_a.png,I,m,732,5,1,1746.5,787415.2999999523,8106,NNB,C,3
4,test,4,0.0,2-Back,1.0,m,Tue Apr 14 2026 08:32:55 GMT-0500 (Central Daylight Time),791045.0,030_o_f_n_a.png,I,m,863,6,1,1878.5,789166.5,8106,NNB,C,4
5,test,4,0.0,2-Back,1.0,m,Tue Apr 14 2026 08:32:55 GMT-0500 (Central Daylight Time),792961.0,006_m_f_n_a.png,I,m,884,7,1,1913.3999999761581,791047.6000000238,8106,NNB,C,5
6,test,4,0.0,2-Back,1.0,m,Tue Apr 14 2026 08:32:55 GMT-0500 (Central Daylight Time),794610.6000000238,031_y_m_n_a.png,I,m,632,8,1,1642.8000000715256,792967.7999999523,8106,NNB,C,6
6,test,4,1.0,2-Back,0.0,z,Tue Apr 14 2026 08:32:55 GMT-0500 (Central Daylight Time),796210.1000000238,006_m_f_n_a.png,I,m,567,9,1,1597.3000000715256,794612.7999999523,8106,NNB,C,7
7,test,4,0.0,2-Back,1.0,m,Tue Apr 14 2026 08:32:55 GMT-0500 (Central Daylight Time),797859.3999999762,092_m_m_n_a.png,I,m,623,10,1,1643.1000000238419,796216.2999999523,8106,NNB,C,8
8,test,4,0.0,2-Back,1.0,m,Tue Apr 14 2026 08:32:55 GMT-0500 (Central Daylight Time),799558.7999999523,031_y_m_n_a.png,I,m,677,11,1,1696.8999999761581,797861.8999999762,8106,NNB,C,9
9,test,4,0.0,2-Back,1.0,m,Tue Apr 14 2026 08:32:55 GMT-0500 (Central Daylight Time),801208.3999999762,130_o_f_n_a.png,I,m,618,12,1,1643.7999999523163,799564.6000000238,8106,NNB,C,10
10,test,4,0.0,2-Back,1.0,m,Tue Apr 14 2026 08:32:55 GMT-0500 (Central Daylight Time),802874.6999999285,057_y_m_n_a.png,I,m,641,13,1,1663.8999999761581,801210.7999999523,8106,NNB,C,11
11,test,4,1.0,2-Back,1.0,z,Tue Apr 14 2026 08:32:55 GMT-0500 (Central Daylight Time),804723.8999999762,130_o_f_n_a.png,I,z,831,14,1,1844.2000000476837,802879.6999999285,8106,NNB,C,12
12,test,4,1.0,2-Back,1.0,z,Tue Apr 14 2026 08:32:55 GMT-0500 (Central Daylight Time),807106.5,057_y_m_n_a.png,I,z,1366,15,1,2380.100000023842,804726.3999999762,8106,NNB,C,13
13,test,4,0.0,2-Back,1.0,m,Tue Apr 14 2026 08:32:55 GMT-0500 (Central Daylight Time),808906.0,082_m_m_n_a.png,I,m,767,16,1,1792.8999999761581,807113.1000000238,8106,NNB,C,14
14,test,4,0.0,2-Back,1.0,m,Tue Apr 14 2026 08:32:55 GMT-0500 (Central Daylight Time),810522.1999999285,093_m_f_n_a.png,I,m,583,17,1,1613.5999999046326,808908.6000000238,8106,NNB,C,15
15,test,4,1.0,2-Back,1.0,z,Tue Apr 14 2026 08:32:55 GMT-0500 (Central Daylight Time),812271.3999999762,082_m_m_n_a.png,I,z,728,18,1,1742.2999999523163,810529.1000000238,8106,NNB,C,16
0,test,5,1.0,2-Back,,,Tue Apr 14 2026 08:32:55 GMT-0500 (Central Daylight Time),812271.3999999762,057_y_m_n_a.png,I,space,1650,1,1,1742.2999999523163,810529.1000000238,8106,NNB,C,0
0,test,5,1.0,2-Back,,,Tue Apr 14 2026 08:32:55 GMT-0500 (Central Daylight Time),812271.3999999762,093_m_f_n_a.png,I,space,1650,2,1,1742.2999999523163,810529.1000000238,8106,NNB,C,0
1,test,5,1.0,2-Back,1.0,z,Tue Apr 14 2026 08:32:55 GMT-0500 (Central Daylight Time),820885.6000000238,057_y_m_n_a.png,I,z,871,3,1,1897.1000000238419,818988.5,8106,NNB,C,1
2,test,5,1.0,2-Back,1.0,z,Tue Apr 14 2026 08:32:55 GMT-0500 (Central Daylight Time),823185.1000000238,093_m_f_n_a.png,I,z,1276,4,1,2292.100000023842,820893.0,8106,NNB,C,2
3,test,5,0.0,2-Back,1.0,m,Tue Apr 14 2026 08:32:55 GMT-0500 (Central Daylight Time),825017.6999999285,130_o_f_n_a.png,I,m,817,5,1,1830.1999999284744,823187.5,8106,NNB,C,3
3,test,5,0.0,2-Back,0.0,m,Tue Apr 14 2026 08:32:55 GMT-0500 (Central Daylight Time),826700.2999999523,057_y_m_n_a.png,I,z,664,6,1,1677.1999999284744,825023.1000000238,8106,NNB,C,4
4,test,5,0.0,2-Back,1.0,m,Tue Apr 14 2026 08:32:55 GMT-0500 (Central Daylight Time),828366.6000000238,028_y_f_n_a.png,I,m,637,7,1,1663.9000000953674,826702.6999999285,8106,NNB,C,5
4,test,5,0.0,2-Back,0.0,m,Tue Apr 14 2026 08:32:55 GMT-0500 (Central Daylight Time),830466.1000000238,130_o_f_n_a.png,I,z,1067,8,1,2094.3000000715256,828371.7999999523,8106,NNB,C,6
5,test,5,1.0,2-Back,1.0,z,Tue Apr 14 2026 08:32:55 GMT-0500 (Central Daylight Time),832315.1000000238,028_y_f_n_a.png,I,z,831,9,1,1846.4000000953674,830468.6999999285,8106,NNB,C,7
6,test,5,0.0,2-Back,1.0,m,Tue Apr 14 2026 08:32:55 GMT-0500 (Central Daylight Time),833981.3999999762,146_o_m_n_a.png,I,m,638,10,1,1660.2999999523163,832321.1000000238,8106,NNB,C,8
7,test,5,0.0,2-Back,1.0,m,Tue Apr 14 2026 08:32:55 GMT-0500 (Central Daylight Time),835514.5,006_m_f_n_a.png,I,m,508,11,1,1530.6000000238419,833983.8999999762,8106,NNB,C,9
8,test,5,0.0,2-Back,1.0,m,Tue Apr 14 2026 08:32:55 GMT-0500 (Central Daylight Time),837147.1000000238,092_m_m_n_a.png,I,m,607,12,1,1626.9000000953674,835520.1999999285,8106,NNB,C,10
9,test,5,0.0,2-Back,1.0,m,Tue Apr 14 2026 08:32:55 GMT-0500 (Central Daylight Time),838813.3999999762,146_o_m_n_a.png,I,m,638,13,1,1663.7999999523163,837149.6000000238,8106,NNB,C,11
10,test,5,1.0,2-Back,1.0,z,Tue Apr 14 2026 08:32:55 GMT-0500 (Central Daylight Time),840329.5,092_m_m_n_a.png,I,z,492,14,1,1508.5,838821.0,8106,NNB,C,12
11,test,5,0.0,2-Back,1.0,m,Tue Apr 14 2026 08:32:55 GMT-0500 (Central Daylight Time),842161.8999999762,098_y_f_n_a.png,I,m,816,15,1,1830.1000000238419,840331.7999999523,8106,NNB,C,13
12,test,5,0.0,2-Back,1.0,m,Tue Apr 14 2026 08:32:55 GMT-0500 (Central Daylight Time),844145.0,059_o_m_n_a.png,I,m,951,16,1,1978.8999999761581,842166.1000000238,8106,NNB,C,14
13,test,5,0.0,2-Back,1.0,m,Tue Apr 14 2026 08:32:55 GMT-0500 (Central Daylight Time),846110.7999999523,006_m_f_n_a.png,I,m,935,17,1,1963.3999999761581,844147.3999999762,8106,NNB,C,15
13,test,5,1.0,2-Back,0.0,z,Tue Apr 14 2026 08:32:55 GMT-0500 (Central Daylight Time),847793.8999999762,059_o_m_n_a.png,I,m,664,18,1,1678.6000000238419,846115.2999999523,8106,NNB,C,16
