acc_sum,block,block_c,condition,correct,correct_response,datetime,endtime,flanker,jitter,project,response,response_test_buffer_response,response_test_target_response,response_time,response_time_test_buffer_response,response_time_test_target_response,row_sel,session_number,start_end,starttime,subject_id,target,task,task_vers,time_test_buffer,time_test_buffer_response,time_test_constants,time_test_flanker,time_test_jitter,time_test_logger,time_test_target,time_test_target_response,time_test_variables,trial
1,prac,1,inc,1,m,Fri May 30 2025 10:27:37 GMT-0500 (Central Daylight Time),75832.90000000596,kind,900,I,m,,,982,,,2,3,3195.2999999821186,72637.60000002384,8003,rock,AF,B,,,,,,,,,,1
2,prac,1,con,1,m,Fri May 30 2025 10:27:37 GMT-0500 (Central Daylight Time),78781.60000002384,remote,1000,I,m,,,643,,,7,3,2943.300000011921,75838.30000001192,8003,remote,AF,B,,,,,,,,,,2
3,prac,1,inc,1,m,Fri May 30 2025 10:27:37 GMT-0500 (Central Daylight Time),81630.90000000596,elated,900,I,m,,,642,,,6,3,2844.7999999821186,78786.10000002384,8003,napkin,AF,B,,,,,,,,,,3
4,prac,1,con,1,z,Fri May 30 2025 10:27:37 GMT-0500 (Central Daylight Time),84429.70000001788,brutal,800,I,z,,,686,,,13,3,2794.4000000059605,81635.30000001192,8003,brutal,AF,B,,,,,,,,,,4
5,prac,1,inc,1,m,Fri May 30 2025 10:27:37 GMT-0500 (Central Daylight Time),87478.90000000596,brutal,1100,I,m,,,635,,,8,3,3044.2999999821186,84434.60000002384,8003,window,AF,B,,,,,,,,,,5
6,prac,1,inc,1,z,Fri May 30 2025 10:27:37 GMT-0500 (Central Daylight Time),90544.70000001788,window,1100,I,z,,,649,,,16,3,3061.0999999940395,87483.60000002384,8003,temper,AF,B,,,,,,,,,,6
7,prac,1,con,1,m,Fri May 30 2025 10:27:37 GMT-0500 (Central Daylight Time),93427.0,step,800,I,m,,,731,,,1,3,2877.7999999821186,90549.20000001788,8003,step,AF,B,,,,,,,,,,7
8,prac,1,con,1,m,Fri May 30 2025 10:27:37 GMT-0500 (Central Daylight Time),96293.0,jacket,800,I,m,,,753,,,5,3,2860.2999999821186,93432.70000001788,8003,jacket,AF,B,,,,,,,,,,8
9,prac,1,con,1,z,Fri May 30 2025 10:27:37 GMT-0500 (Central Daylight Time),98891.90000000596,elated,800,I,z,,,495,,,9,3,2594.699999988079,96297.20000001788,8003,elated,AF,B,,,,,,,,,,9
10,prac,1,con,1,z,Fri May 30 2025 10:27:37 GMT-0500 (Central Daylight Time),101607.5,love,1000,I,z,,,401,,,11,3,2710.899999976158,98896.60000002384,8003,love,AF,B,,,,,,,,,,10
11,prac,1,inc,1,z,Fri May 30 2025 10:27:37 GMT-0500 (Central Daylight Time),104490.30000001192,film,900,I,z,,,680,,,14,3,2877.5,101612.80000001192,8003,hate,AF,B,,,,,,,,,,11
12,prac,1,con,1,m,Fri May 30 2025 10:27:37 GMT-0500 (Central Daylight Time),107572.60000002384,bell,1000,I,m,,,771,,,3,3,3078.100000023842,104494.5,8003,bell,AF,B,,,,,,,,,,12
13,prac,1,inc,1,m,Fri May 30 2025 10:27:37 GMT-0500 (Central Daylight Time),110654.90000000596,hate,1100,I,m,,,675,,,4,3,3078.4000000059605,107576.5,8003,film,AF,B,,,,,,,,,,13
13,prac,1,inc,0,z,Fri May 30 2025 10:27:37 GMT-0500 (Central Daylight Time),113687.20000001788,napkin,1100,I,m,,,626,,,12,3,3028.2000000178814,110659.0,8003,friend,AF,B,,,,,,,,,,14
14,prac,1,con,1,z,Fri May 30 2025 10:27:37 GMT-0500 (Central Daylight Time),116931.20000001788,rage,1000,I,z,,,878,,,15,3,3239.5999999940395,113691.60000002384,8003,rage,AF,B,,,,,,,,,,15
15,prac,1,inc,1,z,Fri May 30 2025 10:27:37 GMT-0500 (Central Daylight Time),119835.30000001192,rock,900,I,z,,,689,,,10,3,2898.5,116936.80000001192,8003,kind,AF,B,,,,,,,,,,16
1,test,1,inc,1,m,Fri May 30 2025 10:27:37 GMT-0500 (Central Daylight Time),133897.60000002384,elated,800,I,m,m,None,524,325.0,199.0,109,3,1862.7000000178814,132034.90000000596,8003,napkin,AF,B,130977,130977,129447,130260,129447,131310,130777,130777,131310,1
2,test,1,inc,1,m,Fri May 30 2025 10:27:37 GMT-0500 (Central Daylight Time),136047.0,friend,1100,I,m,m,None,511,312.0,199.0,112,3,2144.899999976158,133902.10000002384,8003,napkin,AF,B,133142,133142,131314,132426,131314,133459,132943,132943,133459,2
3,test,1,inc,1,m,Fri May 30 2025 10:27:37 GMT-0500 (Central Daylight Time),138062.90000000596,brutal,900,I,m,m,None,570,370.0,200.0,118,3,2011.5999999940395,136051.30000001192,8003,remote,AF,B,135092,135092,133463,134376,133464,135475,134892,134892,135475,3
4,test,1,con,1,m,Fri May 30 2025 10:27:37 GMT-0500 (Central Daylight Time),140095.40000000596,remote,800,I,m,m,None,694,494.0,200.0,113,3,2028.5,138066.90000000596,8003,remote,AF,B,137008,137008,135479,136292,135479,137508,136808,136808,137507,4
5,test,1,con,1,m,Fri May 30 2025 10:27:37 GMT-0500 (Central Daylight Time),142211.60000002384,window,1100,I,m,m,None,472,272.0,200.0,124,3,2112.2000000178814,140099.40000000596,8003,window,AF,B,139342,139342,137511,138625,137512,139624,139141,139141,139624,5
6,test,1,inc,1,m,Fri May 30 2025 10:27:37 GMT-0500 (Central Daylight Time),144460.90000000596,hate,1100,I,m,m,None,612,413.0,199.0,72,3,2245.199999988079,142215.70000001788,8003,step,AF,B,141457,141457,139628,140740,139628,141873,141257,141257,141873,6
7,test,1,con,1,z,Fri May 30 2025 10:27:37 GMT-0500 (Central Daylight Time),146660.30000001192,rage,1000,I,z,z,None,664,464.0,200.0,51,3,2195.4000000059605,144464.90000000596,8003,rage,AF,B,143606,143606,141877,142890,141877,144072,143406,143406,144072,7
8,test,1,inc,1,m,Fri May 30 2025 10:27:37 GMT-0500 (Central Daylight Time),148642.90000000596,rage,800,I,m,m,None,640,441.0,199.0,69,3,1978.5,146664.40000000596,8003,step,AF,B,145605,145605,144076,144889,144077,146055,145406,145406,146055,8
9,test,1,con,1,z,Fri May 30 2025 10:27:37 GMT-0500 (Central Daylight Time),150775.5,friend,900,I,z,z,None,686,486.0,200.0,26,3,2128.399999976158,148647.10000002384,8003,friend,AF,B,147688,147688,146059,146972,146060,148188,147488,147488,148188,9
10,test,1,con,1,z,Fri May 30 2025 10:27:37 GMT-0500 (Central Daylight Time),153108.30000001192,kind,900,I,z,z,None,888,689.0,199.0,10,3,2328.800000011921,150779.5,8003,kind,AF,B,149821,149821,148192,149104,148192,150520,149621,149621,150520,10
11,test,1,con,1,z,Fri May 30 2025 10:27:37 GMT-0500 (Central Daylight Time),155157.40000000596,hate,800,I,z,z,None,712,513.0,199.0,41,3,2044.7999999821186,153112.60000002384,8003,hate,AF,B,152053,152053,150525,151337,150525,152569,151854,151854,152569,11
12,test,1,inc,1,z,Fri May 30 2025 10:27:37 GMT-0500 (Central Daylight Time),157040.40000000596,rock,900,I,z,z,None,442,227.0,215.0,46,3,1878.699999988079,155161.70000001788,8003,hate,AF,B,154219,154219,152574,153486,152574,154453,154004,154004,154452,12
13,test,1,inc,1,z,Fri May 30 2025 10:27:37 GMT-0500 (Central Daylight Time),159022.90000000596,step,800,I,z,z,None,636,437.0,199.0,21,3,1978.5999999940395,157044.30000001192,8003,love,AF,B,155985,155985,154456,155269,154457,156435,155786,155786,156435,13
14,test,1,inc,1,z,Fri May 30 2025 10:27:37 GMT-0500 (Central Daylight Time),161239.0,film,1100,I,z,z,None,570,370.0,200.0,16,3,2212.199999988079,159026.80000001192,8003,kind,AF,B,158268,158268,156439,157552,156439,158651,158068,158068,158651,14
15,test,1,con,1,m,Fri May 30 2025 10:27:37 GMT-0500 (Central Daylight Time),163138.60000002384,step,900,I,m,m,None,458,258.0,200.0,66,3,1895.6000000238419,161243.0,8003,step,AF,B,160284,160284,158655,159568,158655,160551,160084,160084,160551,15
16,test,1,con,1,z,Fri May 30 2025 10:27:37 GMT-0500 (Central Daylight Time),165487.60000002384,brutal,1000,I,z,z,None,727,527.0,200.0,35,3,2345.0,163142.60000002384,8003,brutal,AF,B,162367,162367,160555,161661,160555,162900,162167,162167,162900,16
17,test,1,inc,1,m,Fri May 30 2025 10:27:37 GMT-0500 (Central Daylight Time),167887.10000002384,hate,1100,I,m,m,None,761,561.0,200.0,96,3,2395.300000011921,165491.80000001192,8003,film,AF,B,164733,164733,162904,164016,162904,165299,164533,164533,165299,17
17,test,1,con,0,z,Fri May 30 2025 10:27:37 GMT-0500 (Central Daylight Time),169919.80000001192,friend,800,I,m,m,None,693,494.0,199.0,25,3,2028.800000011921,167891.0,8003,friend,AF,B,166832,166832,165303,166116,165303,167332,166633,166633,167332,18
18,test,1,inc,1,z,Fri May 30 2025 10:27:37 GMT-0500 (Central Daylight Time),172085.5,napkin,900,I,z,z,None,729,529.0,200.0,38,3,2162.0999999940395,169923.40000000596,8003,brutal,AF,B,168965,168965,167335,168248,167336,169498,168765,168765,169498,19
19,test,1,con,1,m,Fri May 30 2025 10:27:37 GMT-0500 (Central Daylight Time),174534.60000002384,step,1100,I,m,m,None,802,603.0,199.0,68,3,2444.9000000059605,172089.70000001788,8003,step,AF,B,171331,171331,169502,170614,169502,171947,171131,171131,171947,20
20,test,1,inc,1,z,Fri May 30 2025 10:27:37 GMT-0500 (Central Daylight Time),176733.90000000596,remote,1000,I,z,z,None,661,462.0,199.0,7,3,2195.199999988079,174538.70000001788,8003,elated,AF,B,173680,173680,171951,172963,171951,174146,173480,173480,174146,21
21,test,1,inc,1,m,Fri May 30 2025 10:27:37 GMT-0500 (Central Daylight Time),178966.80000001192,kind,900,I,m,m,None,795,595.0,200.0,86,3,2227.4000000059605,176739.40000000596,8003,bell,AF,B,175779,175779,174151,175063,174152,176379,175579,175579,176379,22
22,test,1,con,1,m,Fri May 30 2025 10:27:37 GMT-0500 (Central Daylight Time),181016.10000002384,jacket,800,I,m,m,None,701,502.0,199.0,97,3,2045.1000000238419,178971.0,8003,jacket,AF,B,177912,177912,176383,177196,176384,178428,177713,177713,178428,23
23,test,1,con,1,m,Fri May 30 2025 10:27:37 GMT-0500 (Central Daylight Time),183315.20000001788,film,1100,I,m,m,None,665,464.0,201.0,92,3,2295.0,181020.20000001788,8003,film,AF,B,180262,180262,178432,179545,178433,180727,180061,180061,180727,24
24,test,1,con,1,m,Fri May 30 2025 10:27:37 GMT-0500 (Central Daylight Time),185248.10000002384,film,900,I,m,m,None,484,285.0,199.0,90,3,1928.6000000238419,183319.5,8003,film,AF,B,182361,182361,180732,181644,180732,182660,182161,182161,182660,25
25,test,1,con,1,m,Fri May 30 2025 10:27:37 GMT-0500 (Central Daylight Time),187197.5,window,1000,I,m,m,None,405,205.0,200.0,123,3,1945.3999999761581,185252.10000002384,8003,window,AF,B,184393,184393,182664,183677,182664,184610,184193,184193,184609,26
26,test,1,inc,1,z,Fri May 30 2025 10:27:37 GMT-0500 (Central Daylight Time),189346.80000001192,bell,1000,I,z,z,None,606,407.0,199.0,47,3,2145.0,187201.80000001192,8003,hate,AF,B,186343,186343,184614,185626,184614,186759,186143,186143,186759,27
27,test,1,inc,1,m,Fri May 30 2025 10:27:37 GMT-0500 (Central Daylight Time),191479.30000001192,love,1000,I,m,m,None,593,394.0,199.0,95,3,2128.199999988079,189351.10000002384,8003,film,AF,B,188492,188492,186763,187775,186763,188892,188292,188292,188891,28
28,test,1,inc,1,z,Fri May 30 2025 10:27:37 GMT-0500 (Central Daylight Time),193429.0,step,800,I,z,z,None,612,413.0,199.0,53,3,1945.8999999761581,191483.10000002384,8003,rage,AF,B,190425,190425,188895,189708,188896,190841,190225,190225,190841,29
29,test,1,con,1,z,Fri May 30 2025 10:27:37 GMT-0500 (Central Daylight Time),195594.80000001192,love,900,I,z,z,None,717,517.0,200.0,18,3,2162.0999999940395,193432.70000001788,8003,love,AF,B,192474,192474,190845,191758,190845,193007,192274,192274,193007,30
30,test,1,con,1,z,Fri May 30 2025 10:27:37 GMT-0500 (Central Daylight Time),197610.90000000596,elated,900,I,z,z,None,566,366.0,200.0,2,3,2012.0999999940395,195598.80000001192,8003,elated,AF,B,194640,194640,193011,193924,193011,195023,194440,194440,195023,31
31,test,1,inc,1,z,Fri May 30 2025 10:27:37 GMT-0500 (Central Daylight Time),199576.90000000596,rock,900,I,z,z,None,526,326.0,200.0,54,3,1962.199999988079,197614.70000001788,8003,rage,AF,B,196656,196656,195027,195940,195027,196989,196456,196456,196989,32
32,test,1,inc,1,m,Fri May 30 2025 10:27:37 GMT-0500 (Central Daylight Time),201992.80000001192,friend,1100,I,m,m,None,768,568.0,200.0,120,3,2412.199999988079,199580.60000002384,8003,remote,AF,B,198822,198822,196993,198106,196993,199405,198622,198622,199405,33
33,test,1,inc,1,m,Fri May 30 2025 10:27:37 GMT-0500 (Central Daylight Time),203975.60000002384,kind,900,I,m,m,None,536,336.0,200.0,70,3,1978.9000000059605,201996.70000001788,8003,step,AF,B,201038,201038,199409,200322,199409,201388,200838,200838,201388,34
34,test,1,con,1,z,Fri May 30 2025 10:27:37 GMT-0500 (Central Daylight Time),206025.0,temper,1000,I,z,z,None,509,309.0,200.0,59,3,2045.5999999940395,203979.40000000596,8003,temper,AF,B,203121,203121,201391,202404,201392,203437,202921,202921,203437,35
35,test,1,con,1,z,Fri May 30 2025 10:27:37 GMT-0500 (Central Daylight Time),208324.30000001192,kind,1100,I,z,z,None,656,456.0,200.0,12,3,2295.5999999940395,206028.70000001788,8003,kind,AF,B,205270,205270,203441,204554,203441,205736,205070,205070,205736,36
36,test,1,inc,1,z,Fri May 30 2025 10:27:37 GMT-0500 (Central Daylight Time),210406.80000001192,remote,1000,I,z,z,None,543,344.0,199.0,39,3,2078.5999999940395,208328.20000001788,8003,brutal,AF,B,207470,207470,205740,206753,205741,207819,207270,207270,207819,37
37,test,1,inc,1,m,Fri May 30 2025 10:27:37 GMT-0500 (Central Daylight Time),212556.20000001788,temper,1000,I,m,m,None,606,406.0,200.0,127,3,2145.5999999940395,210410.60000002384,8003,window,AF,B,209552,209552,207823,208837,207823,209968,209352,209352,209968,38
38,test,1,inc,1,m,Fri May 30 2025 10:27:37 GMT-0500 (Central Daylight Time),214472.20000001788,elated,800,I,m,m,None,568,369.0,199.0,117,3,1912.0999999940395,212560.10000002384,8003,remote,AF,B,211501,211501,209972,210785,209972,211884,211301,211302,211884,39
38,test,1,inc,0,m,Fri May 30 2025 10:27:37 GMT-0500 (Central Daylight Time),216538.40000000596,hate,1100,I,z,z,None,431,232.0,199.0,80,3,2062.0999999940395,214476.30000001192,8003,rock,AF,B,213718,213718,211888,213001,211889,213950,213518,213518,213950,40
39,test,1,inc,1,m,Fri May 30 2025 10:27:37 GMT-0500 (Central Daylight Time),218520.90000000596,rage,800,I,m,m,None,650,451.0,199.0,85,3,1978.9000000059605,216542.0,8003,bell,AF,B,215467,215467,213954,214767,213954,215933,215268,215268,215933,41
40,test,1,inc,1,z,Fri May 30 2025 10:27:37 GMT-0500 (Central Daylight Time),220687.10000002384,rock,900,I,z,z,None,720,520.0,200.0,14,3,2162.300000011921,218524.80000001192,8003,kind,AF,B,217566,217566,215937,216850,215937,218099,217366,217366,218099,42
41,test,1,inc,1,z,Fri May 30 2025 10:27:37 GMT-0500 (Central Daylight Time),222953.0,window,1100,I,z,z,None,618,418.0,200.0,8,3,2262.399999976158,220690.60000002384,8003,elated,AF,B,219932,219932,218103,219215,218103,220365,219732,219732,220365,43
42,test,1,inc,1,z,Fri May 30 2025 10:27:37 GMT-0500 (Central Daylight Time),224785.60000002384,jacket,800,I,z,z,None,492,292.0,200.0,5,3,1829.0,222956.60000002384,8003,elated,AF,B,221898,221898,220369,221182,220369,222198,221698,221698,222198,44
43,test,1,inc,1,m,Fri May 30 2025 10:27:37 GMT-0500 (Central Daylight Time),227334.80000001192,temper,1000,I,m,m,None,1003,803.0,200.0,103,3,2545.5,224789.30000001192,8003,jacket,AF,B,223931,223931,222201,223214,222202,224747,223731,223731,224747,45
44,test,1,con,1,m,Fri May 30 2025 10:27:37 GMT-0500 (Central Daylight Time),229167.60000002384,step,800,I,m,m,None,494,294.0,200.0,65,3,1828.7000000178814,227338.90000000596,8003,step,AF,B,226280,226280,224751,225564,224751,226580,226080,226080,226580,46
45,test,1,inc,1,m,Fri May 30 2025 10:27:37 GMT-0500 (Central Daylight Time),231200.40000000596,brutal,900,I,m,m,None,585,385.0,200.0,102,3,2028.699999988079,229171.70000001788,8003,jacket,AF,B,228213,228213,226584,227497,226584,228612,228013,228013,228612,47
46,test,1,inc,1,z,Fri May 30 2025 10:27:37 GMT-0500 (Central Daylight Time),233433.0,window,1100,I,z,z,None,592,393.0,199.0,32,3,2228.899999976158,231204.10000002384,8003,friend,AF,B,230445,230445,228616,229729,228616,230845,230246,230246,230845,48
47,test,1,con,1,z,Fri May 30 2025 10:27:37 GMT-0500 (Central Daylight Time),235532.30000001192,brutal,800,I,z,z,None,700,498.0,202.0,33,3,2095.5,233436.80000001192,8003,brutal,AF,B,232444,232444,230849,231662,230849,232945,232242,232242,232944,49
48,test,1,con,1,z,Fri May 30 2025 10:27:37 GMT-0500 (Central Daylight Time),237798.30000001192,temper,1100,I,z,z,None,627,428.0,199.0,60,3,2262.0999999940395,235536.20000001788,8003,temper,AF,B,234777,234778,232948,234061,232949,235210,234578,234578,235210,50
49,test,1,con,1,z,Fri May 30 2025 10:27:37 GMT-0500 (Central Daylight Time),239614.20000001788,rage,800,I,z,z,None,470,271.0,199.0,49,3,1812.0999999940395,237802.10000002384,8003,rage,AF,B,236743,236743,235214,236027,235214,237026,236544,236544,237026,51
50,test,1,inc,1,z,Fri May 30 2025 10:27:37 GMT-0500 (Central Daylight Time),241813.60000002384,remote,1000,I,z,z,None,663,463.0,200.0,63,3,2195.7000000178814,239617.90000000596,8003,temper,AF,B,238759,238759,237030,238043,237030,239226,238559,238559,239226,52
51,test,1,inc,1,m,Fri May 30 2025 10:27:37 GMT-0500 (Central Daylight Time),244096.40000000596,hate,1100,I,m,m,None,634,435.0,199.0,88,3,2278.9000000059605,241817.5,8003,bell,AF,B,241059,241059,239230,240342,239230,241508,240859,240859,241508,53
52,test,1,inc,1,z,Fri May 30 2025 10:27:37 GMT-0500 (Central Daylight Time),246412.0,film,1100,I,z,z,None,681,481.0,200.0,56,3,2311.899999976158,244100.10000002384,8003,rage,AF,B,243341,243341,241512,242625,241513,243824,243141,243141,243824,54
53,test,1,inc,1,z,Fri May 30 2025 10:27:37 GMT-0500 (Central Daylight Time),248694.60000002384,jacket,800,I,z,z,None,944,745.0,199.0,29,3,2279.0,246415.60000002384,8003,friend,AF,B,245357,245357,243828,244641,243828,246107,245158,245158,246107,55
54,test,1,con,1,m,Fri May 30 2025 10:27:37 GMT-0500 (Central Daylight Time),250660.40000000596,bell,800,I,m,m,None,630,430.0,200.0,81,3,1961.9000000059605,248698.5,8003,bell,AF,B,247640,247640,246111,246923,246111,248072,247440,247440,248072,56
55,test,1,con,1,m,Fri May 30 2025 10:27:37 GMT-0500 (Central Daylight Time),252826.60000002384,rock,900,I,m,m,None,724,524.0,200.0,74,3,2162.0,250664.60000002384,8003,rock,AF,B,249706,249706,248077,248989,248077,250239,249506,249506,250239,57
56,test,1,con,1,z,Fri May 30 2025 10:27:37 GMT-0500 (Central Daylight Time),255025.80000001192,hate,1000,I,z,z,None,666,467.0,199.0,43,3,2195.0999999940395,252830.70000001788,8003,hate,AF,B,251971,251971,250243,251255,250243,252438,251772,251772,252438,58
57,test,1,con,1,m,Fri May 30 2025 10:27:37 GMT-0500 (Central Daylight Time),257075.70000001788,window,900,I,m,m,None,615,415.0,200.0,122,3,2046.5999999940395,255029.10000002384,8003,window,AF,B,254071,254071,252441,253355,252441,254488,253871,253871,254488,59
58,test,1,con,1,m,Fri May 30 2025 10:27:37 GMT-0500 (Central Daylight Time),259175.0,remote,900,I,m,m,None,653,445.0,208.0,114,3,2095.5999999940395,257079.40000000596,8003,remote,AF,B,256137,256137,254491,255404,254492,256587,255929,255929,256587,60
59,test,1,con,1,m,Fri May 30 2025 10:27:37 GMT-0500 (Central Daylight Time),261291.0,napkin,1100,I,m,m,None,474,274.0,200.0,108,3,2112.2999999821186,259178.70000001788,8003,napkin,AF,B,258420,258420,256591,257703,256591,258703,258220,258220,258703,61
60,test,1,con,1,m,Fri May 30 2025 10:27:37 GMT-0500 (Central Daylight Time),263223.7000000179,window,800,I,m,m,None,594,394.0,200.0,121,3,1928.5999999940395,261295.10000002384,8003,window,AF,B,260236,260236,258707,259520,258707,260636,260036,260036,260636,62
61,test,1,con,1,m,Fri May 30 2025 10:27:37 GMT-0500 (Central Daylight Time),265056.2000000179,rock,800,I,m,m,None,484,285.0,199.0,73,3,1828.7000000178814,263227.5,8003,rock,AF,B,262169,262169,260640,261452,260640,262468,261969,261969,262468,63
62,test,1,con,1,z,Fri May 30 2025 10:27:37 GMT-0500 (Central Daylight Time),267155.90000000596,brutal,1100,I,z,z,None,456,257.0,199.0,36,3,2096.0,265059.90000000596,8003,brutal,AF,B,264301,264301,262472,263585,262472,264568,264102,264102,264568,64
63,test,1,con,1,m,Fri May 30 2025 10:27:37 GMT-0500 (Central Daylight Time),268988.5,napkin,900,I,m,m,None,397,197.0,200.0,106,3,1829.0,267159.5,8003,napkin,AF,B,266201,266201,264572,265485,264572,266401,266001,266001,266400,65
64,test,1,con,1,z,Fri May 30 2025 10:27:37 GMT-0500 (Central Daylight Time),270905.7000000179,brutal,900,I,z,z,None,476,277.0,199.0,34,3,1913.2000000178814,268992.5,8003,brutal,AF,B,268033,268033,266405,267317,266405,268318,267834,267834,268318,66
65,test,1,con,1,z,Fri May 30 2025 10:27:37 GMT-0500 (Central Daylight Time),272970.40000000596,elated,1100,I,z,z,None,432,233.0,199.0,4,3,2060.699999988079,270909.7000000179,8003,elated,AF,B,270149,270149,268322,269433,268322,270383,269950,269950,270382,67
66,test,1,con,1,m,Fri May 30 2025 10:27:37 GMT-0500 (Central Daylight Time),275086.60000002384,napkin,1000,I,m,m,None,569,370.0,199.0,107,3,2112.4000000059605,272974.2000000179,8003,napkin,AF,B,272116,272116,270386,271399,270387,272499,271916,271916,272499,68
67,test,1,inc,1,z,Fri May 30 2025 10:27:37 GMT-0500 (Central Daylight Time),277319.0,window,1100,I,z,z,None,585,386.0,199.0,64,3,2228.5999999940395,275090.40000000596,8003,temper,AF,B,274332,274332,272502,273615,272503,274731,274132,274132,274731,69
68,test,1,con,1,m,Fri May 30 2025 10:27:37 GMT-0500 (Central Daylight Time),279235.0,napkin,800,I,m,m,None,582,382.0,200.0,105,3,1912.0999999940395,277322.90000000596,8003,napkin,AF,B,276264,276264,274735,275548,274735,276647,276064,276064,276647,70
69,test,1,inc,1,z,Fri May 30 2025 10:27:37 GMT-0500 (Central Daylight Time),281251.10000002384,napkin,900,I,z,z,None,573,374.0,199.0,6,3,2012.4000000059605,279238.7000000179,8003,elated,AF,B,278280,278280,276651,277564,276651,278663,278081,278081,278663,71
70,test,1,con,1,m,Fri May 30 2025 10:27:37 GMT-0500 (Central Daylight Time),283417.3000000119,jacket,900,I,m,m,None,724,509.0,215.0,98,3,2162.5,281254.8000000119,8003,jacket,AF,B,280313,280313,278667,279582,278667,280829,280098,280098,280829,72
71,test,1,con,1,z,Fri May 30 2025 10:27:37 GMT-0500 (Central Daylight Time),285250.0,rage,900,I,z,z,None,384,184.0,200.0,50,3,1829.0,283421.0,8003,rage,AF,B,282462,282462,280833,281746,280833,282662,282262,282262,282662,73
72,test,1,con,1,z,Fri May 30 2025 10:27:37 GMT-0500 (Central Daylight Time),287482.60000002384,kind,1000,I,z,z,None,699,499.0,200.0,11,3,2229.100000023842,285253.5,8003,kind,AF,B,284395,284395,282666,283679,282666,284895,284195,284195,284895,74
73,test,1,inc,1,m,Fri May 30 2025 10:27:37 GMT-0500 (Central Daylight Time),289682.10000002384,love,1000,I,m,m,None,650,450.0,200.0,87,3,2195.800000011921,287486.3000000119,8003,bell,AF,B,286628,286628,284898,285911,284899,287094,286428,286428,287094,75
74,test,1,inc,1,z,Fri May 30 2025 10:27:37 GMT-0500 (Central Daylight Time),291981.40000000596,window,1100,I,z,z,None,663,463.0,200.0,40,3,2295.2999999821186,289686.10000002384,8003,brutal,AF,B,288927,288927,287098,288211,287098,289393,288727,288727,289393,76
75,test,1,inc,1,z,Fri May 30 2025 10:27:37 GMT-0500 (Central Daylight Time),294030.60000002384,jacket,800,I,z,z,None,710,511.0,199.0,61,3,2045.4000000059605,291985.2000000179,8003,temper,AF,B,290926,290927,289397,290210,289398,291443,290727,290727,291443,77
76,test,1,con,1,z,Fri May 30 2025 10:27:37 GMT-0500 (Central Daylight Time),295796.7000000179,love,800,I,z,z,None,429,230.0,199.0,17,3,1762.300000011921,294034.40000000596,8003,love,AF,B,292976,292976,291446,292260,291447,293209,292776,292776,293209,78
77,test,1,con,1,m,Fri May 30 2025 10:27:37 GMT-0500 (Central Daylight Time),297946.3000000119,film,1000,I,m,m,None,607,408.0,199.0,91,3,2146.0,295800.3000000119,8003,film,AF,B,294942,294942,293212,294225,293213,295358,294742,294742,295358,79
78,test,1,con,1,z,Fri May 30 2025 10:27:37 GMT-0500 (Central Daylight Time),299913.10000002384,hate,900,I,z,z,None,518,319.0,199.0,42,3,1963.2000000178814,297949.90000000596,8003,hate,AF,B,296991,296991,295362,296275,295362,297325,296792,296792,297325,80
79,test,1,inc,1,z,Fri May 30 2025 10:27:37 GMT-0500 (Central Daylight Time),302078.0,remote,1000,I,z,z,None,629,429.0,200.0,31,3,2161.0,299917.0,8003,friend,AF,B,299057,299057,297329,298341,297329,299490,298857,298857,299490,81
80,test,1,inc,1,m,Fri May 30 2025 10:27:37 GMT-0500 (Central Daylight Time),304344.0,friend,1100,I,m,m,None,627,427.0,200.0,104,3,2262.2999999821186,302081.7000000179,8003,jacket,AF,B,301323,301323,299494,300607,299494,301756,301123,301123,301756,82
81,test,1,con,1,z,Fri May 30 2025 10:27:37 GMT-0500 (Central Daylight Time),306527.60000002384,love,1100,I,z,z,None,496,296.0,200.0,20,3,2179.7000000178814,304347.90000000596,8003,love,AF,B,303639,303639,301760,302936,301760,303940,303439,303439,303940,83
82,test,1,inc,1,m,Fri May 30 2025 10:27:37 GMT-0500 (Central Daylight Time),308725.8000000119,love,1000,I,m,m,None,661,462.0,199.0,79,3,2194.199999988079,306531.60000002384,8003,rock,AF,B,305672,305672,303944,304956,303944,306138,305472,305472,306138,84
83,test,1,inc,1,m,Fri May 30 2025 10:27:37 GMT-0500 (Central Daylight Time),310675.3000000119,elated,800,I,m,m,None,607,406.0,201.0,125,3,1945.699999988079,308729.60000002384,8003,window,AF,B,307672,307672,306142,306955,306142,308087,307471,307471,308087,85
84,test,1,inc,1,m,Fri May 30 2025 10:27:37 GMT-0500 (Central Daylight Time),312624.7000000179,elated,800,I,m,m,None,608,409.0,199.0,101,3,1945.5,310679.2000000179,8003,jacket,AF,B,309620,309621,308091,308904,308092,310037,309421,309421,310037,86
85,test,1,con,1,m,Fri May 30 2025 10:27:37 GMT-0500 (Central Daylight Time),315274.10000002384,bell,900,I,m,m,None,1216,1016.0,200.0,82,3,2645.7000000178814,312628.40000000596,8003,bell,AF,B,311670,311670,310040,310953,310041,312686,311470,311470,312686,87
86,test,1,inc,1,m,Fri May 30 2025 10:27:37 GMT-0500 (Central Daylight Time),317290.2000000179,kind,900,I,m,m,None,583,383.0,200.0,94,3,2012.300000011921,315277.90000000596,8003,film,AF,B,314319,314319,312690,313603,312690,314702,314119,314119,314702,88
87,test,1,con,1,z,Fri May 30 2025 10:27:37 GMT-0500 (Central Daylight Time),319222.7000000179,kind,800,I,z,z,None,595,395.0,200.0,9,3,1928.800000011921,317293.90000000596,8003,kind,AF,B,316235,316235,314706,315519,314706,316635,316035,316035,316635,89
88,test,1,con,1,z,Fri May 30 2025 10:27:37 GMT-0500 (Central Daylight Time),321105.2000000179,temper,900,I,z,z,None,441,242.0,199.0,58,3,1878.800000011921,319226.40000000596,8003,temper,AF,B,318268,318268,316638,317551,316639,318517,318068,318068,318517,90
89,test,1,inc,1,z,Fri May 30 2025 10:27:37 GMT-0500 (Central Daylight Time),323171.3000000119,bell,1000,I,z,z,None,532,332.0,200.0,23,3,2062.4000000059605,321108.90000000596,8003,love,AF,B,320250,320250,318521,319534,318521,320583,320050,320050,320583,91
90,test,1,inc,1,m,Fri May 30 2025 10:27:37 GMT-0500 (Central Daylight Time),325153.90000000596,rage,800,I,m,m,None,641,441.0,200.0,93,3,1978.7999999821186,323175.10000002384,8003,film,AF,B,322117,322117,320587,321400,320587,322566,321917,321917,322566,92
91,test,1,inc,1,m,Fri May 30 2025 10:27:37 GMT-0500 (Central Daylight Time),327053.5,rage,800,I,m,m,None,555,355.0,200.0,77,3,1896.199999988079,325157.3000000119,8003,rock,AF,B,324099,324099,322569,323383,322570,324466,323899,323899,324466,93
92,test,1,con,1,m,Fri May 30 2025 10:27:37 GMT-0500 (Central Daylight Time),328802.90000000596,film,800,I,m,m,None,406,206.0,200.0,89,3,1744.9000000059605,327058.0,8003,film,AF,B,326000,326000,324470,325282,324470,326215,325799,325799,326215,94
93,test,1,inc,1,m,Fri May 30 2025 10:27:37 GMT-0500 (Central Daylight Time),330785.7000000179,kind,900,I,m,m,None,541,341.0,200.0,78,3,1979.0,328806.7000000179,8003,rock,AF,B,327849,327849,326219,327133,326219,328198,327648,327648,328198,95
94,test,1,con,1,m,Fri May 30 2025 10:27:37 GMT-0500 (Central Daylight Time),332868.2000000179,rock,1100,I,m,m,None,447,247.0,200.0,76,3,2078.7000000178814,330789.5,8003,rock,AF,B,330031,330031,328202,329315,328202,330280,329831,329831,330280,96
95,test,1,con,1,z,Fri May 30 2025 10:27:37 GMT-0500 (Central Daylight Time),335167.5,rage,1100,I,z,z,None,659,460.0,199.0,52,3,2295.5,332872.0,8003,rage,AF,B,332114,332114,330284,331397,330284,332580,331914,331914,332580,97
96,test,1,con,1,z,Fri May 30 2025 10:27:37 GMT-0500 (Central Daylight Time),337433.5,hate,1100,I,z,z,None,624,409.0,215.0,44,3,2262.199999988079,335171.3000000119,8003,hate,AF,B,334429,334429,332583,333696,332584,334846,334214,334214,334846,98
97,test,1,inc,1,z,Fri May 30 2025 10:27:37 GMT-0500 (Central Daylight Time),339582.90000000596,bell,1000,I,z,z,None,602,403.0,199.0,55,3,2145.4000000059605,337437.5,8003,rage,AF,B,336579,336579,334850,335863,334850,336995,336379,336379,336995,99
98,test,1,con,1,m,Fri May 30 2025 10:27:37 GMT-0500 (Central Daylight Time),341982.40000000596,bell,1100,I,m,m,None,762,562.0,200.0,84,3,2395.7999999821186,339586.60000002384,8003,bell,AF,B,338828,338828,336999,338112,336999,339394,338628,338628,339394,100
99,test,1,inc,1,z,Fri May 30 2025 10:27:37 GMT-0500 (Central Daylight Time),344098.40000000596,film,1100,I,z,z,None,476,276.0,200.0,24,3,2112.4000000059605,341986.0,8003,love,AF,B,341227,341227,339398,340511,339398,341510,341027,341027,341510,101
100,test,1,con,1,m,Fri May 30 2025 10:27:37 GMT-0500 (Central Daylight Time),346364.10000002384,jacket,1100,I,m,m,None,622,422.0,200.0,100,3,2261.9000000059605,344102.2000000179,8003,jacket,AF,B,343343,343344,341514,342627,341515,343776,343143,343143,343776,102
101,test,1,inc,1,z,Fri May 30 2025 10:27:37 GMT-0500 (Central Daylight Time),348396.90000000596,napkin,900,I,z,z,None,589,389.0,200.0,30,3,2029.0999999940395,346367.8000000119,8003,friend,AF,B,345409,345409,343780,344693,343780,345809,345209,345209,345809,103
102,test,1,inc,1,z,Fri May 30 2025 10:27:37 GMT-0500 (Central Daylight Time),350679.60000002384,film,1100,I,z,z,None,644,444.0,200.0,48,3,2278.800000011921,348400.8000000119,8003,hate,AF,B,347642,347642,345813,346926,345813,348092,347442,347442,348092,104
103,test,1,con,1,m,Fri May 30 2025 10:27:37 GMT-0500 (Central Daylight Time),352822.5,jacket,1000,I,m,m,None,591,392.0,199.0,99,3,2139.199999988079,350683.3000000119,8003,jacket,AF,B,349825,349825,348095,349108,348096,350235,349625,349625,350235,105
104,test,1,con,1,m,Fri May 30 2025 10:27:37 GMT-0500 (Central Daylight Time),355028.3000000119,step,1000,I,m,m,None,673,473.0,200.0,67,3,2201.699999988079,352826.60000002384,8003,step,AF,B,351957,351957,350239,351241,350239,352440,351757,351757,352440,106
105,test,1,inc,1,m,Fri May 30 2025 10:27:37 GMT-0500 (Central Daylight Time),357293.7000000179,friend,1100,I,m,m,None,621,421.0,200.0,128,3,2261.800000011921,355031.90000000596,8003,window,AF,B,354273,354273,352444,353557,352444,354706,354073,354073,354706,107
106,test,1,inc,1,m,Fri May 30 2025 10:27:37 GMT-0500 (Central Daylight Time),359393.3000000119,love,1000,I,m,m,None,559,359.0,200.0,71,3,2093.0999999940395,357300.2000000179,8003,step,AF,B,356439,356439,354712,355723,354713,356805,356239,356239,356805,108
107,test,1,con,1,m,Fri May 30 2025 10:27:37 GMT-0500 (Central Daylight Time),361559.2000000179,remote,1100,I,m,m,None,528,328.0,200.0,116,3,2159.7000000178814,359399.5,8003,remote,AF,B,358638,358638,356812,357922,356812,358971,358438,358438,358971,109
108,test,1,inc,1,m,Fri May 30 2025 10:27:37 GMT-0500 (Central Daylight Time),363641.90000000596,temper,1000,I,m,m,None,540,341.0,199.0,111,3,2078.699999988079,361563.2000000179,8003,napkin,AF,B,360705,360705,358975,359988,358976,361054,360505,360505,361054,110
109,test,1,inc,1,z,Fri May 30 2025 10:27:37 GMT-0500 (Central Daylight Time),365558.0,step,800,I,z,z,None,571,371.0,200.0,45,3,1912.199999988079,363645.8000000119,8003,hate,AF,B,362587,362587,361058,361871,361058,362970,362387,362387,362970,111
110,test,1,inc,1,z,Fri May 30 2025 10:27:37 GMT-0500 (Central Daylight Time),367573.90000000596,napkin,900,I,z,z,None,571,371.0,200.0,62,3,2012.199999988079,365561.7000000179,8003,temper,AF,B,364603,364603,362974,363887,362974,364986,364403,364403,364986,112
111,test,1,con,1,m,Fri May 30 2025 10:27:37 GMT-0500 (Central Daylight Time),369740.40000000596,rock,1000,I,m,m,None,623,423.0,200.0,75,3,2162.699999988079,367577.7000000179,8003,rock,AF,B,366719,366719,364990,366003,364990,367152,366519,366519,367152,113
111,test,1,con,0,z,Fri May 30 2025 10:27:37 GMT-0500 (Central Daylight Time),372239.3000000119,elated,1000,I,m,m,None,953,753.0,200.0,3,3,2495.0999999940395,369744.2000000179,8003,elated,AF,B,368885,368885,367156,368169,367157,369651,368685,368685,369651,114
112,test,1,inc,1,z,Fri May 30 2025 10:27:37 GMT-0500 (Central Daylight Time),374272.0,rock,900,I,z,z,None,593,394.0,199.0,22,3,2029.0999999940395,372242.90000000596,8003,love,AF,B,371284,371284,369655,370568,369655,371684,371085,371085,371684,115
113,test,1,inc,1,z,Fri May 30 2025 10:27:37 GMT-0500 (Central Daylight Time),376219.60000002384,step,800,I,z,z,None,614,414.0,200.0,13,3,1943.800000011921,374275.8000000119,8003,kind,AF,B,373217,373217,371688,372501,371688,373632,373017,373017,373632,116
114,test,1,inc,1,z,Fri May 30 2025 10:27:37 GMT-0500 (Central Daylight Time),378337.40000000596,bell,1000,I,z,z,None,566,367.0,199.0,15,3,2114.199999988079,376223.2000000179,8003,kind,AF,B,375367,375367,373635,374650,373636,375750,375167,375167,375749,117
115,test,1,inc,1,z,Fri May 30 2025 10:27:37 GMT-0500 (Central Daylight Time),380286.8000000119,jacket,800,I,z,z,None,610,411.0,199.0,37,3,1945.5999999940395,378341.2000000179,8003,brutal,AF,B,377283,377283,375753,376566,375753,377699,377083,377083,377699,118
116,test,1,con,1,z,Fri May 30 2025 10:27:37 GMT-0500 (Central Daylight Time),382452.8000000119,friend,1000,I,z,z,None,622,422.0,200.0,27,3,2162.0999999940395,380290.7000000179,8003,friend,AF,B,379432,379432,377703,378715,377703,379865,379232,379232,379865,119
117,test,1,con,1,z,Fri May 30 2025 10:27:37 GMT-0500 (Central Daylight Time),384435.5,temper,800,I,z,z,None,640,440.0,200.0,57,3,1978.5999999940395,382456.90000000596,8003,temper,AF,B,381398,381398,379869,380682,379869,381848,381198,381198,381847,120
118,test,1,inc,1,m,Fri May 30 2025 10:27:37 GMT-0500 (Central Daylight Time),386518.3000000119,brutal,900,I,m,m,None,644,445.0,199.0,110,3,2078.800000011921,384439.5,8003,napkin,AF,B,383481,383481,381852,382764,381852,383930,383281,383281,383930,121
119,test,1,con,1,m,Fri May 30 2025 10:27:37 GMT-0500 (Central Daylight Time),388584.40000000596,bell,1000,I,m,m,None,519,319.0,200.0,83,3,2062.4000000059605,386522.0,8003,bell,AF,B,385663,385663,383934,384947,383934,385997,385463,385463,385996,122
120,test,1,inc,1,m,Fri May 30 2025 10:27:37 GMT-0500 (Central Daylight Time),390733.5,temper,1000,I,m,m,None,613,413.0,200.0,119,3,2145.399999976158,388588.10000002384,8003,remote,AF,B,387729,387729,386000,387013,386000,388146,387529,387529,388145,123
121,test,1,con,1,z,Fri May 30 2025 10:27:37 GMT-0500 (Central Daylight Time),392749.40000000596,elated,800,I,z,z,None,671,472.0,199.0,1,3,2012.0,390737.40000000596,8003,elated,AF,B,389678,389678,388149,388962,388150,390161,389479,389479,390161,124
122,test,1,con,1,z,Fri May 30 2025 10:27:37 GMT-0500 (Central Daylight Time),394633.2000000179,love,1000,I,z,z,None,336,136.0,200.0,19,3,1880.0,392753.2000000179,8003,love,AF,B,391894,391894,390165,391178,390165,392045,391694,391694,392045,125
122,test,1,con,0,z,Fri May 30 2025 10:27:37 GMT-0500 (Central Daylight Time),396898.5,friend,1100,I,m,m,None,632,433.0,199.0,28,3,2261.399999976158,394637.10000002384,8003,friend,AF,B,393877,393877,392049,393161,392049,394311,393677,393678,394310,126
123,test,1,inc,1,m,Fri May 30 2025 10:27:37 GMT-0500 (Central Daylight Time),398864.3000000119,brutal,900,I,m,m,None,525,326.0,199.0,126,3,1962.5,396901.8000000119,8003,window,AF,B,395944,395944,394314,395227,394314,396276,395744,395744,396276,127
124,test,1,con,1,m,Fri May 30 2025 10:27:37 GMT-0500 (Central Daylight Time),401097.0,remote,1000,I,m,m,None,618,418.0,200.0,115,3,2228.899999976158,398868.10000002384,8003,remote,AF,B,398076,398076,396280,397363,396280,398509,397876,397876,398509,128
