block_c,block_dur,condition,countdown,datetime,endtime,list,multichar_response,project,response,response_time,session_number,start_end,starttime,subject_id,task,task_vers,trial
,,,,Wed May 13 2026 14:02:34 GMT-0400 (Eastern Daylight Time),,,,I,space,578,2,,,9047,WL,B,
prac,,0,,Wed May 13 2026 14:02:34 GMT-0400 (Eastern Daylight Time),,NA,b,I,b,2320,2,,,9047,WL,B,1.0
prac,,0,,Wed May 13 2026 14:02:34 GMT-0400 (Eastern Daylight Time),,NA,bo,I,o,420,2,,,9047,WL,B,1.0
prac,,0,,Wed May 13 2026 14:02:34 GMT-0400 (Eastern Daylight Time),,NA,bos,I,s,228,2,,,9047,WL,B,1.0
prac,,0,,Wed May 13 2026 14:02:34 GMT-0400 (Eastern Daylight Time),,NA,bost,I,t,409,2,,,9047,WL,B,1.0
prac,,0,,Wed May 13 2026 14:02:34 GMT-0400 (Eastern Daylight Time),,NA,bos,I,backspace,1353,2,,,9047,WL,B,1.0
prac,,0,,Wed May 13 2026 14:02:34 GMT-0400 (Eastern Daylight Time),,NA,bo,I,backspace,177,2,,,9047,WL,B,1.0
prac,,0,,Wed May 13 2026 14:02:34 GMT-0400 (Eastern Daylight Time),,NA,boo,I,o,1041,2,,,9047,WL,B,1.0
prac,,0,,Wed May 13 2026 14:02:34 GMT-0400 (Eastern Daylight Time),,NA,boos,I,s,349,2,,,9047,WL,B,1.0
prac,,0,,Wed May 13 2026 14:02:34 GMT-0400 (Eastern Daylight Time),,NA,boost,I,t,176,2,,,9047,WL,B,1.0
prac,,0,,Wed May 13 2026 14:02:34 GMT-0400 (Eastern Daylight Time),,NA,boostenter,I,enter,752,2,,,9047,WL,B,1.0
1,3.5500001907348633,learn,56449.99980926514,Wed May 13 2026 14:02:34 GMT-0400 (Eastern Daylight Time),121417.29999995232,A,s,I,s,3535,2,3549.2999999523163,117868.0,9047,WL,B,1.0
1,3.7660000324249268,learn,56233.99996757507,Wed May 13 2026 14:02:34 GMT-0400 (Eastern Daylight Time),121633.5,A,st,I,t,192,2,3765.5,117868.0,9047,WL,B,1.0
1,3.950000047683716,learn,56049.999952316284,Wed May 13 2026 14:02:34 GMT-0400 (Eastern Daylight Time),121816.70000004768,A,str,I,r,158,2,3948.7000000476837,117868.0,9047,WL,B,1.0
1,4.267000198364258,learn,55732.99980163574,Wed May 13 2026 14:02:34 GMT-0400 (Eastern Daylight Time),122133.70000004768,A,stre,I,e,295,2,4265.700000047684,117868.0,9047,WL,B,1.0
1,4.4670000076293945,learn,55532.999992370605,Wed May 13 2026 14:02:34 GMT-0400 (Eastern Daylight Time),122333.60000014305,A,stree,I,e,179,2,4465.600000143051,117868.0,9047,WL,B,1.0
1,4.75,learn,55250.0,Wed May 13 2026 14:02:34 GMT-0400 (Eastern Daylight Time),122616.90000009537,A,street,I,t,258,2,4748.900000095367,117868.0,9047,WL,B,1.0
1,5.199000120162964,learn,54800.999879837036,Wed May 13 2026 14:02:34 GMT-0400 (Eastern Daylight Time),123066.40000009537,A,streetenter,I,enter,433,2,5198.400000095367,117868.0,9047,WL,B,1.0
1,6.166000127792358,learn,53833.99987220764,Wed May 13 2026 14:02:34 GMT-0400 (Eastern Daylight Time),124033.60000014305,A,g,I,g,946,2,966.7000000476837,123066.90000009537,9047,WL,B,2.0
1,6.383000135421753,learn,53616.99986457825,Wed May 13 2026 14:02:34 GMT-0400 (Eastern Daylight Time),124250.20000004768,A,gr,I,r,200,2,1183.2999999523163,123066.90000009537,9047,WL,B,2.0
1,6.699000120162964,learn,53300.999879837036,Wed May 13 2026 14:02:34 GMT-0400 (Eastern Daylight Time),124566.5,A,gra,I,a,302,2,1499.5999999046326,123066.90000009537,9047,WL,B,2.0
1,6.950000047683716,learn,53049.999952316284,Wed May 13 2026 14:02:34 GMT-0400 (Eastern Daylight Time),124816.70000004768,A,gras,I,s,227,2,1749.7999999523163,123066.90000009537,9047,WL,B,2.0
1,7.083000183105469,learn,52916.99981689453,Wed May 13 2026 14:02:34 GMT-0400 (Eastern Daylight Time),124950.20000004768,A,grass,I,s,121,2,1883.2999999523163,123066.90000009537,9047,WL,B,2.0
1,7.449000120162964,learn,52550.999879837036,Wed May 13 2026 14:02:34 GMT-0400 (Eastern Daylight Time),125316.5,A,grassenter,I,enter,339,2,2249.5999999046326,123066.90000009537,9047,WL,B,2.0
1,8.366000175476074,learn,51633.999824523926,Wed May 13 2026 14:02:34 GMT-0400 (Eastern Daylight Time),126233.5,A,d,I,d,904,2,916.5,125317.0,9047,WL,B,3.0
1,8.633000135421753,learn,51366.99986457825,Wed May 13 2026 14:02:34 GMT-0400 (Eastern Daylight Time),126500.10000014305,A,do,I,o,241,2,1183.1000001430511,125317.0,9047,WL,B,3.0
1,8.782999992370605,learn,51217.000007629395,Wed May 13 2026 14:02:34 GMT-0400 (Eastern Daylight Time),126650.29999995232,A,doo,I,o,132,2,1333.2999999523163,125317.0,9047,WL,B,3.0
1,9.083000183105469,learn,50916.99981689453,Wed May 13 2026 14:02:34 GMT-0400 (Eastern Daylight Time),126950.20000004768,A,door,I,r,264,2,1633.2000000476837,125317.0,9047,WL,B,3.0
1,9.315999984741211,learn,50684.00001525879,Wed May 13 2026 14:02:34 GMT-0400 (Eastern Daylight Time),127183.10000014305,A,doorenter,I,enter,211,2,1866.1000001430511,125317.0,9047,WL,B,3.0
1,9.850000143051147,learn,50149.99985694885,Wed May 13 2026 14:02:34 GMT-0400 (Eastern Daylight Time),127716.90000009537,A,a,I,a,510,2,533.4000000953674,127183.5,9047,WL,B,4.0
1,10.150000095367432,learn,49849.99990463257,Wed May 13 2026 14:02:34 GMT-0400 (Eastern Daylight Time),128016.79999995232,A,ar,I,r,277,2,833.2999999523163,127183.5,9047,WL,B,4.0
1,11.650000095367432,learn,48349.99990463257,Wed May 13 2026 14:02:34 GMT-0400 (Eastern Daylight Time),129516.79999995232,A,arm,I,m,1482,2,2333.2999999523163,127183.5,9047,WL,B,4.0
1,12.083000183105469,learn,47916.99981689453,Wed May 13 2026 14:02:34 GMT-0400 (Eastern Daylight Time),129949.70000004768,A,armenter,I,enter,413,2,2766.2000000476837,127183.5,9047,WL,B,4.0
1,12.666000127792358,learn,47333.99987220764,Wed May 13 2026 14:02:34 GMT-0400 (Eastern Daylight Time),130533.5,A,s,I,s,560,2,583.2999999523163,129950.20000004768,9047,WL,B,5.0
1,12.866000175476074,learn,47133.999824523926,Wed May 13 2026 14:02:34 GMT-0400 (Eastern Daylight Time),130733.40000009537,A,st,I,t,181,2,783.2000000476837,129950.20000004768,9047,WL,B,5.0
1,13.049000024795532,learn,46950.99997520447,Wed May 13 2026 14:02:34 GMT-0400 (Eastern Daylight Time),130916.5,A,sta,I,a,146,2,966.2999999523163,129950.20000004768,9047,WL,B,5.0
1,13.216000080108643,learn,46783.99991989136,Wed May 13 2026 14:02:34 GMT-0400 (Eastern Daylight Time),131083.60000014305,A,star,I,r,153,2,1133.4000000953674,129950.20000004768,9047,WL,B,5.0
1,14.449000120162964,learn,45550.999879837036,Wed May 13 2026 14:02:34 GMT-0400 (Eastern Daylight Time),132316.5,A,starenter,I,enter,1206,2,2366.2999999523163,129950.20000004768,9047,WL,B,5.0
1,16.466000080108643,learn,43533.99991989136,Wed May 13 2026 14:02:34 GMT-0400 (Eastern Daylight Time),134333.40000009537,A,p,I,p,2000,2,2016.4000000953674,132317.0,9047,WL,B,6.0
1,16.73300004005432,learn,43266.99995994568,Wed May 13 2026 14:02:34 GMT-0400 (Eastern Daylight Time),134600.10000014305,A,pi,I,i,253,2,2283.100000143051,132317.0,9047,WL,B,6.0
1,16.90000009536743,learn,43099.99990463257,Wed May 13 2026 14:02:34 GMT-0400 (Eastern Daylight Time),134766.90000009537,A,pip,I,p,147,2,2449.9000000953674,132317.0,9047,WL,B,6.0
1,17.266000032424927,learn,42733.99996757507,Wed May 13 2026 14:02:34 GMT-0400 (Eastern Daylight Time),135133.0,A,pipenter,I,enter,337,2,2816.0,132317.0,9047,WL,B,6.0
1,18.850000143051147,learn,41149.99985694885,Wed May 13 2026 14:02:34 GMT-0400 (Eastern Daylight Time),136716.79999995232,A,p,I,p,1567,2,1583.3999998569489,135133.40000009537,9047,WL,B,7.0
1,19.200000047683716,learn,40799.999952316284,Wed May 13 2026 14:02:34 GMT-0400 (Eastern Daylight Time),137066.79999995232,A,pu,I,u,332,2,1933.3999998569489,135133.40000009537,9047,WL,B,7.0
1,19.516000032424927,learn,40483.99996757507,Wed May 13 2026 14:02:34 GMT-0400 (Eastern Daylight Time),137383.40000009537,A,pup,I,p,302,2,2250.0,135133.40000009537,9047,WL,B,7.0
1,19.683000087738037,learn,40316.99991226196,Wed May 13 2026 14:02:34 GMT-0400 (Eastern Daylight Time),137550.20000004768,A,pupi,I,i,147,2,2416.7999999523163,135133.40000009537,9047,WL,B,7.0
1,19.98300004005432,learn,40016.99995994568,Wed May 13 2026 14:02:34 GMT-0400 (Eastern Daylight Time),137850.10000014305,A,pupil,I,l,274,2,2716.7000000476837,135133.40000009537,9047,WL,B,7.0
1,20.56599998474121,learn,39434.00001525879,Wed May 13 2026 14:02:34 GMT-0400 (Eastern Daylight Time),138433.10000014305,A,pupilenter,I,enter,561,2,3299.7000000476837,135133.40000009537,9047,WL,B,7.0
1,26.91600012779236,learn,33083.99987220764,Wed May 13 2026 14:02:34 GMT-0400 (Eastern Daylight Time),144783.5,A,g,I,g,6332,2,6350.0,138433.5,9047,WL,B,8.0
1,27.116000175476074,learn,32883.999824523926,Wed May 13 2026 14:02:34 GMT-0400 (Eastern Daylight Time),144983.40000009537,A,gr,I,r,186,2,6549.900000095367,138433.5,9047,WL,B,8.0
1,27.350000143051147,learn,32649.999856948853,Wed May 13 2026 14:02:34 GMT-0400 (Eastern Daylight Time),145217.0,A,gra,I,a,212,2,6783.5,138433.5,9047,WL,B,8.0
1,27.56599998474121,learn,32434.00001525879,Wed May 13 2026 14:02:34 GMT-0400 (Eastern Daylight Time),145433.5,A,gras,I,s,201,2,7000.0,138433.5,9047,WL,B,8.0
1,27.716000080108643,learn,32283.999919891357,Wed May 13 2026 14:02:34 GMT-0400 (Eastern Daylight Time),145583.40000009537,A,grass,I,s,129,2,7149.900000095367,138433.5,9047,WL,B,8.0
1,27.91600012779236,learn,32083.99987220764,Wed May 13 2026 14:02:34 GMT-0400 (Eastern Daylight Time),145783.0,A,grassenter,I,enter,178,2,7349.5,138433.5,9047,WL,B,8.0
1,31.16600012779236,learn,28833.99987220764,Wed May 13 2026 14:02:34 GMT-0400 (Eastern Daylight Time),149033.5,A,s,I,s,3239,2,3250.0,145783.5,9047,WL,B,9.0
1,31.700000047683716,learn,28299.999952316284,Wed May 13 2026 14:02:34 GMT-0400 (Eastern Daylight Time),149566.79999995232,A,st,I,t,514,2,3783.2999999523163,145783.5,9047,WL,B,9.0
1,32.032999992370605,learn,27967.000007629395,Wed May 13 2026 14:02:34 GMT-0400 (Eastern Daylight Time),149900.20000004768,A,sta,I,a,313,2,4116.700000047684,145783.5,9047,WL,B,9.0
1,32.200000047683716,learn,27799.999952316284,Wed May 13 2026 14:02:34 GMT-0400 (Eastern Daylight Time),150066.90000009537,A,star,I,r,140,2,4283.400000095367,145783.5,9047,WL,B,9.0
1,32.98300004005432,learn,27016.99995994568,Wed May 13 2026 14:02:34 GMT-0400 (Eastern Daylight Time),150849.70000004768,A,starenter,I,enter,749,2,5066.200000047684,145783.5,9047,WL,B,9.0
1,35.68300008773804,learn,24316.999912261963,Wed May 13 2026 14:02:34 GMT-0400 (Eastern Daylight Time),153550.29999995232,A,c,I,c,2684,2,2700.199999809265,150850.10000014305,9047,WL,B,10.0
1,35.85000014305115,learn,24149.999856948853,Wed May 13 2026 14:02:34 GMT-0400 (Eastern Daylight Time),153716.90000009537,A,ci,I,i,140,2,2866.7999999523163,150850.10000014305,9047,WL,B,10.0
1,36.10000014305115,learn,23899.999856948853,Wed May 13 2026 14:02:34 GMT-0400 (Eastern Daylight Time),153966.90000009537,A,cit,I,t,221,2,3116.7999999523163,150850.10000014305,9047,WL,B,10.0
1,36.21600008010864,learn,23783.999919891357,Wed May 13 2026 14:02:34 GMT-0400 (Eastern Daylight Time),154083.60000014305,A,city,I,y,92,2,3233.5,150850.10000014305,9047,WL,B,10.0
1,36.58300018310547,learn,23416.99981689453,Wed May 13 2026 14:02:34 GMT-0400 (Eastern Daylight Time),154449.79999995232,A,cityenter,I,enter,335,2,3599.699999809265,150850.10000014305,9047,WL,B,10.0
1,41.26600003242493,learn,18733.999967575073,Wed May 13 2026 14:02:34 GMT-0400 (Eastern Daylight Time),159133.60000014305,A,w,I,w,4670,2,4683.5,154450.10000014305,9047,WL,B,11.0
1,41.51600003242493,learn,18483.999967575073,Wed May 13 2026 14:02:34 GMT-0400 (Eastern Daylight Time),159383.5,A,wi,I,i,236,2,4933.399999856949,154450.10000014305,9047,WL,B,11.0
1,41.88300013542175,learn,18116.999864578247,Wed May 13 2026 14:02:34 GMT-0400 (Eastern Daylight Time),159750.0,A,win,I,n,355,2,5299.899999856949,154450.10000014305,9047,WL,B,11.0
1,42.367000102996826,learn,17632.999897003174,Wed May 13 2026 14:02:34 GMT-0400 (Eastern Daylight Time),160233.60000014305,A,wind,I,d,469,2,5783.5,154450.10000014305,9047,WL,B,11.0
1,42.55000019073486,learn,17449.999809265137,Wed May 13 2026 14:02:34 GMT-0400 (Eastern Daylight Time),160416.90000009537,A,windo,I,o,161,2,5966.799999952316,154450.10000014305,9047,WL,B,11.0
1,42.76600003242493,learn,17233.999967575073,Wed May 13 2026 14:02:34 GMT-0400 (Eastern Daylight Time),160633.5,A,window,I,w,202,2,6183.399999856949,154450.10000014305,9047,WL,B,11.0
1,43.098999977111816,learn,16901.000022888184,Wed May 13 2026 14:02:34 GMT-0400 (Eastern Daylight Time),160966.40000009537,A,windowenter,I,enter,321,2,6516.299999952316,154450.10000014305,9047,WL,B,11.0
1,60.01700019836426,learn,-17.000198364257812,Wed May 13 2026 14:02:34 GMT-0400 (Eastern Daylight Time),177883.70000004768,A,None,I,None,16909,2,16916.900000095367,160966.79999995232,9047,WL,B,12.0
2,1.065999984741211,learn,58934.00001525879,Wed May 13 2026 14:02:34 GMT-0400 (Eastern Daylight Time),245750.10000014305,A,s,I,s,1056,2,1066.1000001430511,244684.0,9047,WL,B,1.0
2,1.315999984741211,learn,58684.00001525879,Wed May 13 2026 14:02:34 GMT-0400 (Eastern Daylight Time),246000.5,A,st,I,t,226,2,1316.5,244684.0,9047,WL,B,1.0
2,1.498999834060669,learn,58501.00016593933,Wed May 13 2026 14:02:34 GMT-0400 (Eastern Daylight Time),246183.60000014305,A,str,I,r,161,2,1499.6000001430511,244684.0,9047,WL,B,1.0
2,1.75,learn,58250.0,Wed May 13 2026 14:02:34 GMT-0400 (Eastern Daylight Time),246433.60000014305,A,stre,I,e,227,2,1749.6000001430511,244684.0,9047,WL,B,1.0
2,1.8829998970031738,learn,58117.000102996826,Wed May 13 2026 14:02:34 GMT-0400 (Eastern Daylight Time),246566.70000004768,A,stree,I,e,121,2,1882.7000000476837,244684.0,9047,WL,B,1.0
2,2.065999984741211,learn,57934.00001525879,Wed May 13 2026 14:02:34 GMT-0400 (Eastern Daylight Time),246750.29999995232,A,street,I,t,165,2,2066.2999999523163,244684.0,9047,WL,B,1.0
2,2.615999937057495,learn,57384.000062942505,Wed May 13 2026 14:02:34 GMT-0400 (Eastern Daylight Time),247299.79999995232,A,streetenter,I,enter,522,2,2615.7999999523163,244684.0,9047,WL,B,1.0
2,3.5329999923706055,learn,56467.000007629395,Wed May 13 2026 14:02:34 GMT-0400 (Eastern Daylight Time),248216.90000009537,A,g,I,g,905,2,916.6000001430511,247300.29999995232,9047,WL,B,2.0
2,3.8329999446868896,learn,56167.00005531311,Wed May 13 2026 14:02:34 GMT-0400 (Eastern Daylight Time),248517.10000014305,A,gr,I,r,274,2,1216.8000001907349,247300.29999995232,9047,WL,B,2.0
2,4.099999904632568,learn,55900.00009536743,Wed May 13 2026 14:02:34 GMT-0400 (Eastern Daylight Time),248783.70000004768,A,gra,I,a,246,2,1483.4000000953674,247300.29999995232,9047,WL,B,2.0
2,4.349999904632568,learn,55650.00009536743,Wed May 13 2026 14:02:34 GMT-0400 (Eastern Daylight Time),249033.5,A,gras,I,s,234,2,1733.2000000476837,247300.29999995232,9047,WL,B,2.0
2,4.483000040054321,learn,55516.99995994568,Wed May 13 2026 14:02:34 GMT-0400 (Eastern Daylight Time),249166.90000009537,A,grass,I,s,113,2,1866.6000001430511,247300.29999995232,9047,WL,B,2.0
2,4.881999969482422,learn,55118.00003051758,Wed May 13 2026 14:02:34 GMT-0400 (Eastern Daylight Time),249566.5,A,grassenter,I,enter,370,2,2266.2000000476837,247300.29999995232,9047,WL,B,2.0
2,5.365999937057495,learn,54634.000062942505,Wed May 13 2026 14:02:34 GMT-0400 (Eastern Daylight Time),250050.29999995232,A,d,I,d,463,2,483.39999985694885,249566.90000009537,9047,WL,B,3.0
2,5.599999904632568,learn,54400.00009536743,Wed May 13 2026 14:02:34 GMT-0400 (Eastern Daylight Time),250283.60000014305,A,do,I,o,216,2,716.7000000476837,249566.90000009537,9047,WL,B,3.0
2,5.7829999923706055,learn,54217.000007629395,Wed May 13 2026 14:02:34 GMT-0400 (Eastern Daylight Time),250467.0,A,doo,I,o,160,2,900.0999999046326,249566.90000009537,9047,WL,B,3.0
2,6.049999952316284,learn,53950.000047683716,Wed May 13 2026 14:02:34 GMT-0400 (Eastern Daylight Time),250733.70000004768,A,door,I,r,238,2,1166.7999999523163,249566.90000009537,9047,WL,B,3.0
2,6.348999977111816,learn,53651.00002288818,Wed May 13 2026 14:02:34 GMT-0400 (Eastern Daylight Time),251033.10000014305,A,doorenter,I,enter,285,2,1466.2000000476837,249566.90000009537,9047,WL,B,3.0
2,6.748999834060669,learn,53251.00016593933,Wed May 13 2026 14:02:34 GMT-0400 (Eastern Daylight Time),251433.60000014305,A,a,I,a,388,2,400.2000000476837,251033.40000009537,9047,WL,B,4.0
2,7.016000032424927,learn,52983.99996757507,Wed May 13 2026 14:02:34 GMT-0400 (Eastern Daylight Time),251700.20000004768,A,ar,I,r,241,2,666.7999999523163,251033.40000009537,9047,WL,B,4.0
2,8.016000032424927,learn,51983.99996757507,Wed May 13 2026 14:02:34 GMT-0400 (Eastern Daylight Time),252700.40000009537,A,arm,I,m,975,2,1667.0,251033.40000009537,9047,WL,B,4.0
2,8.332000017166138,learn,51667.99998283386,Wed May 13 2026 14:02:34 GMT-0400 (Eastern Daylight Time),253016.40000009537,A,armenter,I,enter,299,2,1983.0,251033.40000009537,9047,WL,B,4.0
2,8.649999856948853,learn,51350.00014305115,Wed May 13 2026 14:02:34 GMT-0400 (Eastern Daylight Time),253333.79999995232,A,s,I,s,310,2,317.09999990463257,253016.70000004768,9047,WL,B,5.0
2,8.848999977111816,learn,51151.00002288818,Wed May 13 2026 14:02:34 GMT-0400 (Eastern Daylight Time),253533.60000014305,A,st,I,t,179,2,516.9000000953674,253016.70000004768,9047,WL,B,5.0
2,9.0,learn,51000.0,Wed May 13 2026 14:02:34 GMT-0400 (Eastern Daylight Time),253683.60000014305,A,sta,I,a,126,2,666.9000000953674,253016.70000004768,9047,WL,B,5.0
2,9.132999897003174,learn,50867.000102996826,Wed May 13 2026 14:02:34 GMT-0400 (Eastern Daylight Time),253816.90000009537,A,star,I,r,119,2,800.2000000476837,253016.70000004768,9047,WL,B,5.0
2,9.565999984741211,learn,50434.00001525879,Wed May 13 2026 14:02:34 GMT-0400 (Eastern Daylight Time),254249.79999995232,A,starenter,I,enter,417,2,1233.0999999046326,253016.70000004768,9047,WL,B,5.0
2,9.983000040054321,learn,50016.99995994568,Wed May 13 2026 14:02:34 GMT-0400 (Eastern Daylight Time),254666.90000009537,A,w,I,w,405,2,416.7999999523163,254250.10000014305,9047,WL,B,6.0
2,10.215999841690063,learn,49784.00015830994,Wed May 13 2026 14:02:34 GMT-0400 (Eastern Daylight Time),254900.29999995232,A,wi,I,i,207,2,650.1999998092651,254250.10000014305,9047,WL,B,6.0
2,10.5,learn,49500.0,Wed May 13 2026 14:02:34 GMT-0400 (Eastern Daylight Time),255183.60000014305,A,wif,I,f,262,2,933.5,254250.10000014305,9047,WL,B,6.0
2,10.682999849319458,learn,49317.00015068054,Wed May 13 2026 14:02:34 GMT-0400 (Eastern Daylight Time),255366.70000004768,A,wife,I,e,171,2,1116.5999999046326,254250.10000014305,9047,WL,B,6.0
2,11.131999969482422,learn,48868.00003051758,Wed May 13 2026 14:02:34 GMT-0400 (Eastern Daylight Time),255816.5,A,wifeenter,I,enter,434,2,1566.3999998569489,254250.10000014305,9047,WL,B,6.0
2,11.516000032424927,learn,48483.99996757507,Wed May 13 2026 14:02:34 GMT-0400 (Eastern Daylight Time),256200.20000004768,A,w,I,w,374,2,383.40000009536743,255816.79999995232,9047,WL,B,7.0
2,11.715999841690063,learn,48284.00015830994,Wed May 13 2026 14:02:34 GMT-0400 (Eastern Daylight Time),256400.29999995232,A,wi,I,i,177,2,583.5,255816.79999995232,9047,WL,B,7.0
2,11.950000047683716,learn,48049.999952316284,Wed May 13 2026 14:02:34 GMT-0400 (Eastern Daylight Time),256633.60000014305,A,win,I,n,208,2,816.8000001907349,255816.79999995232,9047,WL,B,7.0
2,12.25,learn,47750.0,Wed May 13 2026 14:02:34 GMT-0400 (Eastern Daylight Time),256933.70000004768,A,wind,I,d,275,2,1116.9000000953674,255816.79999995232,9047,WL,B,7.0
2,12.399999856948853,learn,47600.00014305115,Wed May 13 2026 14:02:34 GMT-0400 (Eastern Daylight Time),257083.70000004768,A,windo,I,o,133,2,1266.9000000953674,255816.79999995232,9047,WL,B,7.0
2,12.66599988937378,learn,47334.00011062622,Wed May 13 2026 14:02:34 GMT-0400 (Eastern Daylight Time),257350.29999995232,A,windoe,I,e,254,2,1533.5,255816.79999995232,9047,WL,B,7.0
2,13.315999984741211,learn,46684.00001525879,Wed May 13 2026 14:02:34 GMT-0400 (Eastern Daylight Time),258000.29999995232,A,windo,I,backspace,628,2,2183.5,255816.79999995232,9047,WL,B,7.0
2,13.549000024795532,learn,46450.99997520447,Wed May 13 2026 14:02:34 GMT-0400 (Eastern Daylight Time),258233.60000014305,A,window,I,w,217,2,2416.800000190735,255816.79999995232,9047,WL,B,7.0
2,13.91599988937378,learn,46084.00011062622,Wed May 13 2026 14:02:34 GMT-0400 (Eastern Daylight Time),258599.79999995232,A,windowenter,I,enter,353,2,2783.0,255816.79999995232,9047,WL,B,7.0
2,14.599999904632568,learn,45400.00009536743,Wed May 13 2026 14:02:34 GMT-0400 (Eastern Daylight Time),259283.70000004768,A,p,I,p,663,2,683.5,258600.20000004768,9047,WL,B,8.0
2,15.149999856948853,learn,44850.00014305115,Wed May 13 2026 14:02:34 GMT-0400 (Eastern Daylight Time),259833.60000014305,A,pu,I,u,535,2,1233.4000000953674,258600.20000004768,9047,WL,B,8.0
2,15.483000040054321,learn,44516.99995994568,Wed May 13 2026 14:02:34 GMT-0400 (Eastern Daylight Time),260166.70000004768,A,pup,I,p,321,2,1566.5,258600.20000004768,9047,WL,B,8.0
2,15.715999841690063,learn,44284.00015830994,Wed May 13 2026 14:02:34 GMT-0400 (Eastern Daylight Time),260400.29999995232,A,pupi,I,i,212,2,1800.0999999046326,258600.20000004768,9047,WL,B,8.0
2,15.882999897003174,learn,44117.000102996826,Wed May 13 2026 14:02:34 GMT-0400 (Eastern Daylight Time),260566.70000004768,A,pupil,I,l,149,2,1966.5,258600.20000004768,9047,WL,B,8.0
2,16.23199987411499,learn,43768.00012588501,Wed May 13 2026 14:02:34 GMT-0400 (Eastern Daylight Time),260916.5,A,pupilenter,I,enter,322,2,2316.2999999523163,258600.20000004768,9047,WL,B,8.0
2,17.115999937057495,learn,42884.000062942505,Wed May 13 2026 14:02:34 GMT-0400 (Eastern Daylight Time),261800.10000014305,A,c,I,c,874,2,883.3000001907349,260916.79999995232,9047,WL,B,9.0
2,17.31599998474121,learn,42684.00001525879,Wed May 13 2026 14:02:34 GMT-0400 (Eastern Daylight Time),262000.20000004768,A,ci,I,i,179,2,1083.4000000953674,260916.79999995232,9047,WL,B,9.0
2,17.615999937057495,learn,42384.000062942505,Wed May 13 2026 14:02:34 GMT-0400 (Eastern Daylight Time),262300.2000000477,A,cit,I,t,274,2,1383.4000000953674,260916.79999995232,9047,WL,B,9.0
2,17.799000024795532,learn,42200.99997520447,Wed May 13 2026 14:02:34 GMT-0400 (Eastern Daylight Time),262483.5,A,city,I,y,156,2,1566.7000000476837,260916.79999995232,9047,WL,B,9.0
2,20.681999921798706,learn,39318.000078201294,Wed May 13 2026 14:02:34 GMT-0400 (Eastern Daylight Time),265366.2999999523,A,cityenter,I,enter,2861,2,4449.5,260916.79999995232,9047,WL,B,9.0
2,25.883999824523926,learn,34116.000175476074,Wed May 13 2026 14:02:34 GMT-0400 (Eastern Daylight Time),270568.0,A,f,I,f,5192,2,5201.299999952316,265366.7000000477,9047,WL,B,10.0
2,26.200000047683716,learn,33799.999952316284,Wed May 13 2026 14:02:34 GMT-0400 (Eastern Daylight Time),270883.60000014305,A,fi,I,i,290,2,5516.900000095367,265366.7000000477,9047,WL,B,10.0
2,26.965999841690063,learn,33034.00015830994,Wed May 13 2026 14:02:34 GMT-0400 (Eastern Daylight Time),271650.40000009537,A,fir,I,r,744,2,6283.700000047684,265366.7000000477,9047,WL,B,10.0
2,27.200000047683716,learn,32799.999952316284,Wed May 13 2026 14:02:34 GMT-0400 (Eastern Daylight Time),271883.60000014305,A,fire,I,e,215,2,6516.900000095367,265366.7000000477,9047,WL,B,10.0
2,27.3989999294281,learn,32601.0000705719,Wed May 13 2026 14:02:34 GMT-0400 (Eastern Daylight Time),272083.10000014305,A,fireenter,I,enter,164,2,6716.400000095367,265366.7000000477,9047,WL,B,10.0
2,28.450000047683716,learn,31549.999952316284,Wed May 13 2026 14:02:34 GMT-0400 (Eastern Daylight Time),273133.7000000477,A,p,I,p,1036,2,1050.0999999046326,272083.60000014305,9047,WL,B,11.0
2,29.382999897003174,learn,30617.000102996826,Wed May 13 2026 14:02:34 GMT-0400 (Eastern Daylight Time),274067.0,A,pi,I,i,908,2,1983.3999998569489,272083.60000014305,9047,WL,B,11.0
2,29.56599998474121,learn,30434.00001525879,Wed May 13 2026 14:02:34 GMT-0400 (Eastern Daylight Time),274250.2999999523,A,pip,I,p,169,2,2166.699999809265,272083.60000014305,9047,WL,B,11.0
2,30.016000032424927,learn,29983.999967575073,Wed May 13 2026 14:02:34 GMT-0400 (Eastern Daylight Time),274700.2999999523,A,pipe,I,e,432,2,2616.699999809265,272083.60000014305,9047,WL,B,11.0
2,30.66699981689453,learn,29333.00018310547,Wed May 13 2026 14:02:34 GMT-0400 (Eastern Daylight Time),275350.7999999523,A,pipeenter,I,enter,638,2,3267.199999809265,272083.60000014305,9047,WL,B,11.0
2,37.48199987411499,learn,22518.00012588501,Wed May 13 2026 14:02:34 GMT-0400 (Eastern Daylight Time),282166.5,A,a,I,a,6808,2,6815.399999856949,275351.10000014305,9047,WL,B,12.0
2,37.75,learn,22250.0,Wed May 13 2026 14:02:34 GMT-0400 (Eastern Daylight Time),282433.60000014305,A,ar,I,r,245,2,7082.5,275351.10000014305,9047,WL,B,12.0
2,38.39999985694885,learn,21600.000143051147,Wed May 13 2026 14:02:34 GMT-0400 (Eastern Daylight Time),283083.7000000477,A,arm,I,m,632,2,7732.599999904633,275351.10000014305,9047,WL,B,12.0
2,38.848999977111816,learn,21151.000022888184,Wed May 13 2026 14:02:34 GMT-0400 (Eastern Daylight Time),283533.0,A,armenter,I,enter,431,2,8181.899999856949,275351.10000014305,9047,WL,B,12.0
2,57.799999952316284,learn,2200.000047683716,Wed May 13 2026 14:02:34 GMT-0400 (Eastern Daylight Time),302483.7999999523,A,g,I,g,18929,2,18950.5,283533.2999999523,9047,WL,B,13.0
2,57.98300004005432,learn,2016.9999599456787,Wed May 13 2026 14:02:34 GMT-0400 (Eastern Daylight Time),302667.10000014305,A,gr,I,r,163,2,19133.800000190735,283533.2999999523,9047,WL,B,13.0
2,58.16599988937378,learn,1834.0001106262207,Wed May 13 2026 14:02:34 GMT-0400 (Eastern Daylight Time),302850.2999999523,A,gra,I,a,161,2,19317.0,283533.2999999523,9047,WL,B,13.0
2,58.382999897003174,learn,1617.0001029968262,Wed May 13 2026 14:02:34 GMT-0400 (Eastern Daylight Time),303067.10000014305,A,gras,I,s,194,2,19533.800000190735,283533.2999999523,9047,WL,B,13.0
2,58.532999992370605,learn,1467.0000076293945,Wed May 13 2026 14:02:34 GMT-0400 (Eastern Daylight Time),303216.90000009537,A,grass,I,s,127,2,19683.60000014305,283533.2999999523,9047,WL,B,13.0
2,58.681999921798706,learn,1318.000078201294,Wed May 13 2026 14:02:34 GMT-0400 (Eastern Daylight Time),303366.5,A,grassenter,I,enter,137,2,19833.200000047684,283533.2999999523,9047,WL,B,13.0
2,60.01600003242493,learn,-16.000032424926758,Wed May 13 2026 14:02:34 GMT-0400 (Eastern Daylight Time),304700.5,A,None,I,None,1326,2,1333.7000000476837,303366.7999999523,9047,WL,B,14.0
3,1.0840001106262207,learn,58915.99988937378,Wed May 13 2026 14:02:34 GMT-0400 (Eastern Daylight Time),379217.2000000477,A,s,I,s,1063,2,1083.2000000476837,378134.0,9047,WL,B,1.0
3,1.251000165939331,learn,58748.99983406067,Wed May 13 2026 14:02:34 GMT-0400 (Eastern Daylight Time),379383.7000000477,A,st,I,t,155,2,1249.7000000476837,378134.0,9047,WL,B,1.0
3,1.4509999752044678,learn,58549.00002479553,Wed May 13 2026 14:02:34 GMT-0400 (Eastern Daylight Time),379583.7000000477,A,str,I,r,182,2,1449.7000000476837,378134.0,9047,WL,B,1.0
3,1.7339999675750732,learn,58266.00003242493,Wed May 13 2026 14:02:34 GMT-0400 (Eastern Daylight Time),379867.0,A,stre,I,e,260,2,1733.0,378134.0,9047,WL,B,1.0
3,1.934000015258789,learn,58065.99998474121,Wed May 13 2026 14:02:34 GMT-0400 (Eastern Daylight Time),380067.0,A,stree,I,e,177,2,1933.0,378134.0,9047,WL,B,1.0
3,2.134000062942505,learn,57865.999937057495,Wed May 13 2026 14:02:34 GMT-0400 (Eastern Daylight Time),380267.0,A,street,I,t,183,2,2133.0,378134.0,9047,WL,B,1.0
3,2.7840001583099365,learn,57215.99984169006,Wed May 13 2026 14:02:34 GMT-0400 (Eastern Daylight Time),380916.60000014305,A,streetenter,I,enter,622,2,2782.600000143051,378134.0,9047,WL,B,1.0
3,3.5169999599456787,learn,56483.00004005432,Wed May 13 2026 14:02:34 GMT-0400 (Eastern Daylight Time),381650.40000009537,A,g,I,g,713,2,733.5,380916.90000009537,9047,WL,B,2.0
3,3.8010001182556152,learn,56198.999881744385,Wed May 13 2026 14:02:34 GMT-0400 (Eastern Daylight Time),381933.7000000477,A,gr,I,r,265,2,1016.7999999523163,380916.90000009537,9047,WL,B,2.0
3,4.134000062942505,learn,55865.999937057495,Wed May 13 2026 14:02:34 GMT-0400 (Eastern Daylight Time),382267.0,A,gra,I,a,317,2,1350.0999999046326,380916.90000009537,9047,WL,B,2.0
3,4.4670000076293945,learn,55532.999992370605,Wed May 13 2026 14:02:34 GMT-0400 (Eastern Daylight Time),382600.2999999523,A,gras,I,s,319,2,1683.3999998569489,380916.90000009537,9047,WL,B,2.0
3,4.634000062942505,learn,55365.999937057495,Wed May 13 2026 14:02:34 GMT-0400 (Eastern Daylight Time),382767.10000014305,A,grass,I,s,148,2,1850.2000000476837,380916.90000009537,9047,WL,B,2.0
3,5.549999952316284,learn,54450.000047683716,Wed May 13 2026 14:02:34 GMT-0400 (Eastern Daylight Time),383683.2999999523,A,grassenter,I,enter,890,2,2766.399999856949,380916.90000009537,9047,WL,B,2.0
3,8.1010000705719,learn,51898.9999294281,Wed May 13 2026 14:02:34 GMT-0400 (Eastern Daylight Time),386233.7000000477,A,a,I,a,2540,2,2550.0,383683.7000000477,9047,WL,B,3.0
3,8.317000150680542,learn,51682.99984931946,Wed May 13 2026 14:02:34 GMT-0400 (Eastern Daylight Time),386450.40000009537,A,ar,I,r,193,2,2766.7000000476837,383683.7000000477,9047,WL,B,3.0
3,9.217000007629395,learn,50782.999992370605,Wed May 13 2026 14:02:34 GMT-0400 (Eastern Daylight Time),387350.2999999523,A,arm,I,m,873,2,3666.5999999046326,383683.7000000477,9047,WL,B,3.0
3,9.684000015258789,learn,50315.99998474121,Wed May 13 2026 14:02:34 GMT-0400 (Eastern Daylight Time),387816.60000014305,A,armenter,I,enter,451,2,4132.900000095367,383683.7000000477,9047,WL,B,3.0
3,10.317000150680542,learn,49682.99984931946,Wed May 13 2026 14:02:34 GMT-0400 (Eastern Daylight Time),388450.40000009537,A,y,I,y,614,2,633.5,387816.90000009537,9047,WL,B,4.0
3,10.501000165939331,learn,49498.99983406067,Wed May 13 2026 14:02:34 GMT-0400 (Eastern Daylight Time),388633.7000000477,A,ya,I,a,169,2,816.7999999523163,387816.90000009537,9047,WL,B,4.0
3,10.733999967575073,learn,49266.00003242493,Wed May 13 2026 14:02:34 GMT-0400 (Eastern Daylight Time),388867.0,A,yar,I,r,200,2,1050.0999999046326,387816.90000009537,9047,WL,B,4.0
3,10.967000007629395,learn,49032.999992370605,Wed May 13 2026 14:02:34 GMT-0400 (Eastern Daylight Time),389100.40000009537,A,yard,I,d,215,2,1283.5,387816.90000009537,9047,WL,B,4.0
3,11.367000102996826,learn,48632.999897003174,Wed May 13 2026 14:02:34 GMT-0400 (Eastern Daylight Time),389499.7999999523,A,yardenter,I,enter,383,2,1682.8999998569489,387816.90000009537,9047,WL,B,4.0
3,11.967000007629395,learn,48032.999992370605,Wed May 13 2026 14:02:34 GMT-0400 (Eastern Daylight Time),390100.40000009537,A,s,I,s,578,2,600.2999999523163,389500.10000014305,9047,WL,B,5.0
3,12.266999959945679,learn,47733.00004005432,Wed May 13 2026 14:02:34 GMT-0400 (Eastern Daylight Time),390400.40000009537,A,st,I,t,276,2,900.2999999523163,389500.10000014305,9047,WL,B,5.0
3,12.617000102996826,learn,47382.999897003174,Wed May 13 2026 14:02:34 GMT-0400 (Eastern Daylight Time),390750.40000009537,A,sta,I,a,329,2,1250.2999999523163,389500.10000014305,9047,WL,B,5.0
3,13.134000062942505,learn,46865.999937057495,Wed May 13 2026 14:02:34 GMT-0400 (Eastern Daylight Time),391267.10000014305,A,star,I,r,492,2,1767.0,389500.10000014305,9047,WL,B,5.0
3,13.66700005531311,learn,46332.99994468689,Wed May 13 2026 14:02:34 GMT-0400 (Eastern Daylight Time),391799.90000009537,A,starenter,I,enter,519,2,2299.7999999523163,389500.10000014305,9047,WL,B,5.0
3,14.134000062942505,learn,45865.999937057495,Wed May 13 2026 14:02:34 GMT-0400 (Eastern Daylight Time),392267.0,A,w,I,w,455,2,466.7000000476837,391800.2999999523,9047,WL,B,6.0
3,14.367000102996826,learn,45632.999897003174,Wed May 13 2026 14:02:34 GMT-0400 (Eastern Daylight Time),392500.2999999523,A,wi,I,i,208,2,700.0,391800.2999999523,9047,WL,B,6.0
3,14.651000022888184,learn,45348.99997711182,Wed May 13 2026 14:02:34 GMT-0400 (Eastern Daylight Time),392783.7999999523,A,wif,I,f,262,2,983.5,391800.2999999523,9047,WL,B,6.0
3,14.950999975204468,learn,45049.00002479553,Wed May 13 2026 14:02:34 GMT-0400 (Eastern Daylight Time),393083.7999999523,A,wife,I,e,282,2,1283.5,391800.2999999523,9047,WL,B,6.0
3,15.25,learn,44750.0,Wed May 13 2026 14:02:34 GMT-0400 (Eastern Daylight Time),393383.2000000477,A,wifeenter,I,enter,286,2,1582.9000000953674,391800.2999999523,9047,WL,B,6.0
3,16.117000102996826,learn,43882.999897003174,Wed May 13 2026 14:02:34 GMT-0400 (Eastern Daylight Time),394250.40000009537,A,w,I,w,856,2,866.7999999523163,393383.60000014305,9047,WL,B,7.0
3,16.384000062942505,learn,43615.999937057495,Wed May 13 2026 14:02:34 GMT-0400 (Eastern Daylight Time),394517.0,A,wi,I,i,240,2,1133.3999998569489,393383.60000014305,9047,WL,B,7.0
3,17.217000007629395,learn,42782.999992370605,Wed May 13 2026 14:02:34 GMT-0400 (Eastern Daylight Time),395350.40000009537,A,win,I,n,807,2,1966.7999999523163,393383.60000014305,9047,WL,B,7.0
3,17.43400001525879,learn,42565.99998474121,Wed May 13 2026 14:02:34 GMT-0400 (Eastern Daylight Time),395567.0,A,wind,I,d,197,2,2183.399999856949,393383.60000014305,9047,WL,B,7.0
3,17.68400001525879,learn,42315.99998474121,Wed May 13 2026 14:02:34 GMT-0400 (Eastern Daylight Time),395817.10000014305,A,windo,I,o,227,2,2433.5,393383.60000014305,9047,WL,B,7.0
3,17.93400001525879,learn,42065.99998474121,Wed May 13 2026 14:02:34 GMT-0400 (Eastern Daylight Time),396067.10000014305,A,window,I,w,226,2,2683.5,393383.60000014305,9047,WL,B,7.0
3,18.25,learn,41750.0,Wed May 13 2026 14:02:34 GMT-0400 (Eastern Daylight Time),396383.2999999523,A,windowenter,I,enter,295,2,2999.699999809265,393383.60000014305,9047,WL,B,7.0
3,18.93400001525879,learn,41065.99998474121,Wed May 13 2026 14:02:34 GMT-0400 (Eastern Daylight Time),397067.10000014305,A,p,I,p,672,2,683.6000001430511,396383.5,9047,WL,B,8.0
3,19.301000118255615,learn,40698.999881744385,Wed May 13 2026 14:02:34 GMT-0400 (Eastern Daylight Time),397433.7999999523,A,pu,I,u,352,2,1050.2999999523163,396383.5,9047,WL,B,8.0
3,20.01699995994568,learn,39983.00004005432,Wed May 13 2026 14:02:34 GMT-0400 (Eastern Daylight Time),398150.40000009537,A,pup,I,p,706,2,1766.9000000953674,396383.5,9047,WL,B,8.0
3,20.317000150680542,learn,39682.99984931946,Wed May 13 2026 14:02:34 GMT-0400 (Eastern Daylight Time),398450.40000009537,A,pupi,I,i,275,2,2066.9000000953674,396383.5,9047,WL,B,8.0
3,20.551000118255615,learn,39448.999881744385,Wed May 13 2026 14:02:34 GMT-0400 (Eastern Daylight Time),398683.7999999523,A,pupil,I,l,217,2,2300.2999999523163,396383.5,9047,WL,B,8.0
3,20.967000007629395,learn,39032.999992370605,Wed May 13 2026 14:02:34 GMT-0400 (Eastern Daylight Time),399099.90000009537,A,pupilenter,I,enter,399,2,2716.4000000953674,396383.5,9047,WL,B,8.0
3,21.483999967575073,learn,38516.00003242493,Wed May 13 2026 14:02:34 GMT-0400 (Eastern Daylight Time),399617.10000014305,A,s,I,s,500,2,516.9000000953674,399100.2000000477,9047,WL,B,9.0
3,21.76699995994568,learn,38233.00004005432,Wed May 13 2026 14:02:34 GMT-0400 (Eastern Daylight Time),399900.40000009537,A,sk,I,k,263,2,800.2000000476837,399100.2000000477,9047,WL,B,9.0
3,21.983999967575073,learn,38016.00003242493,Wed May 13 2026 14:02:34 GMT-0400 (Eastern Daylight Time),400117.10000014305,A,ski,I,i,190,2,1016.9000000953674,399100.2000000477,9047,WL,B,9.0
3,22.68400001525879,learn,37315.99998474121,Wed May 13 2026 14:02:34 GMT-0400 (Eastern Daylight Time),400817.10000014305,A,skin,I,n,678,2,1716.9000000953674,399100.2000000477,9047,WL,B,9.0
3,23.01699995994568,learn,36983.00004005432,Wed May 13 2026 14:02:34 GMT-0400 (Eastern Daylight Time),401150.0,A,skinenter,I,enter,313,2,2049.7999999523163,399100.2000000477,9047,WL,B,9.0
3,23.450999975204468,learn,36549.00002479553,Wed May 13 2026 14:02:34 GMT-0400 (Eastern Daylight Time),401583.60000014305,A,f,I,f,416,2,433.30000019073486,401150.2999999523,9047,WL,B,10.0
3,23.634000062942505,learn,36365.999937057495,Wed May 13 2026 14:02:34 GMT-0400 (Eastern Daylight Time),401766.7999999523,A,fi,I,i,172,2,616.5,401150.2999999523,9047,WL,B,10.0
3,23.901000022888184,learn,36098.99997711182,Wed May 13 2026 14:02:34 GMT-0400 (Eastern Daylight Time),402033.7999999523,A,fir,I,r,236,2,883.5,401150.2999999523,9047,WL,B,10.0
3,24.18400001525879,learn,35815.99998474121,Wed May 13 2026 14:02:34 GMT-0400 (Eastern Daylight Time),402317.10000014305,A,fire,I,e,264,2,1166.8000001907349,401150.2999999523,9047,WL,B,10.0
3,24.93400001525879,learn,35065.99998474121,Wed May 13 2026 14:02:34 GMT-0400 (Eastern Daylight Time),403066.5,A,fireenter,I,enter,733,2,1916.2000000476837,401150.2999999523,9047,WL,B,10.0
3,25.26699995994568,learn,34733.00004005432,Wed May 13 2026 14:02:34 GMT-0400 (Eastern Daylight Time),403400.40000009537,A,l,I,l,325,2,333.5,403066.90000009537,9047,WL,B,11.0
3,25.483999967575073,learn,34516.00003242493,Wed May 13 2026 14:02:34 GMT-0400 (Eastern Daylight Time),403617.10000014305,A,la,I,a,195,2,550.2000000476837,403066.90000009537,9047,WL,B,11.0
3,25.617000102996826,learn,34382.999897003174,Wed May 13 2026 14:02:34 GMT-0400 (Eastern Daylight Time),403750.2000000477,A,lak,I,k,112,2,683.2999999523163,403066.90000009537,9047,WL,B,11.0
3,25.867000102996826,learn,34132.999897003174,Wed May 13 2026 14:02:34 GMT-0400 (Eastern Daylight Time),404000.40000009537,A,lake,I,e,231,2,933.5,403066.90000009537,9047,WL,B,11.0
3,26.433000087738037,learn,33566.99991226196,Wed May 13 2026 14:02:34 GMT-0400 (Eastern Daylight Time),404566.5,A,lakeenter,I,enter,556,2,1499.5999999046326,403066.90000009537,9047,WL,B,11.0
3,26.884000062942505,learn,33115.999937057495,Wed May 13 2026 14:02:34 GMT-0400 (Eastern Daylight Time),405017.0,A,c,I,c,439,2,450.09999990463257,404566.90000009537,9047,WL,B,12.0
3,27.200999975204468,learn,32799.00002479553,Wed May 13 2026 14:02:34 GMT-0400 (Eastern Daylight Time),405333.90000009537,A,ca,I,a,290,2,767.0,404566.90000009537,9047,WL,B,12.0
3,27.384000062942505,learn,32615.999937057495,Wed May 13 2026 14:02:34 GMT-0400 (Eastern Daylight Time),405517.0,A,cab,I,b,165,2,950.0999999046326,404566.90000009537,9047,WL,B,12.0
3,27.6010000705719,learn,32398.9999294281,Wed May 13 2026 14:02:34 GMT-0400 (Eastern Daylight Time),405733.7000000477,A,cabi,I,i,189,2,1166.7999999523163,404566.90000009537,9047,WL,B,12.0
3,28.067000150680542,learn,31932.999849319458,Wed May 13 2026 14:02:34 GMT-0400 (Eastern Daylight Time),406200.2999999523,A,cabin,I,n,452,2,1633.3999998569489,404566.90000009537,9047,WL,B,12.0
3,28.5,learn,31500.0,Wed May 13 2026 14:02:34 GMT-0400 (Eastern Daylight Time),406633.2000000477,A,cabinenter,I,enter,417,2,2066.2999999523163,404566.90000009537,9047,WL,B,12.0
3,29.83400011062622,learn,30165.99988937378,Wed May 13 2026 14:02:34 GMT-0400 (Eastern Daylight Time),407967.10000014305,A,p,I,p,1318,2,1333.6000001430511,406633.5,9047,WL,B,13.0
3,30.33400011062622,learn,29665.99988937378,Wed May 13 2026 14:02:34 GMT-0400 (Eastern Daylight Time),408467.10000014305,A,pi,I,i,472,2,1833.6000001430511,406633.5,9047,WL,B,13.0
3,30.617000102996826,learn,29382.999897003174,Wed May 13 2026 14:02:34 GMT-0400 (Eastern Daylight Time),408750.40000009537,A,pip,I,p,264,2,2116.9000000953674,406633.5,9047,WL,B,13.0
3,31.16700005531311,learn,28832.99994468689,Wed May 13 2026 14:02:34 GMT-0400 (Eastern Daylight Time),409300.40000009537,A,pipe,I,e,524,2,2666.9000000953674,406633.5,9047,WL,B,13.0
3,31.450000047683716,learn,28549.999952316284,Wed May 13 2026 14:02:34 GMT-0400 (Eastern Daylight Time),409583.2000000477,A,pipeenter,I,enter,261,2,2949.7000000476837,406633.5,9047,WL,B,13.0
3,32.23399996757507,learn,27766.000032424927,Wed May 13 2026 14:02:34 GMT-0400 (Eastern Daylight Time),410367.0,A,c,I,c,767,2,783.5,409583.5,9047,WL,B,14.0
3,32.41700005531311,learn,27582.99994468689,Wed May 13 2026 14:02:34 GMT-0400 (Eastern Daylight Time),410550.2999999523,A,cl,I,l,172,2,966.7999999523163,409583.5,9047,WL,B,14.0
3,32.634000062942505,learn,27365.999937057495,Wed May 13 2026 14:02:34 GMT-0400 (Eastern Daylight Time),410767.10000014305,A,clo,I,o,187,2,1183.6000001430511,409583.5,9047,WL,B,14.0
3,32.901000022888184,learn,27098.999977111816,Wed May 13 2026 14:02:34 GMT-0400 (Eastern Daylight Time),411033.7000000477,A,cloc,I,c,253,2,1450.2000000476837,409583.5,9047,WL,B,14.0
3,33.10000014305115,learn,26899.999856948853,Wed May 13 2026 14:02:34 GMT-0400 (Eastern Daylight Time),411233.5,A,clock,I,k,178,2,1650.0,409583.5,9047,WL,B,14.0
3,33.5,learn,26500.0,Wed May 13 2026 14:02:34 GMT-0400 (Eastern Daylight Time),411633.2000000477,A,clockenter,I,enter,378,2,2049.7000000476837,409583.5,9047,WL,B,14.0
3,47.634000062942505,learn,12365.999937057495,Wed May 13 2026 14:02:34 GMT-0400 (Eastern Daylight Time),425766.60000014305,A,p,I,p,14126,2,14133.0,411633.60000014305,9047,WL,B,15.0
3,47.8510000705719,learn,12148.9999294281,Wed May 13 2026 14:02:34 GMT-0400 (Eastern Daylight Time),425983.7000000477,A,pi,I,i,198,2,14350.099999904633,411633.60000014305,9047,WL,B,15.0
3,48.00100016593933,learn,11998.999834060669,Wed May 13 2026 14:02:34 GMT-0400 (Eastern Daylight Time),426134.0,A,pip,I,p,142,2,14500.399999856949,411633.60000014305,9047,WL,B,15.0
3,48.3510000705719,learn,11648.9999294281,Wed May 13 2026 14:02:34 GMT-0400 (Eastern Daylight Time),426483.60000014305,A,pipe,I,e,327,2,14850.0,411633.60000014305,9047,WL,B,15.0
3,48.5,learn,11500.0,Wed May 13 2026 14:02:34 GMT-0400 (Eastern Daylight Time),426633.2000000477,A,pipeenter,I,enter,135,2,14999.599999904633,411633.60000014305,9047,WL,B,15.0
4,1.2829999923706055,learn,58717.000007629395,Wed May 13 2026 14:02:34 GMT-0400 (Eastern Daylight Time),496700.60000014305,A,s,I,s,1268,2,1282.9000000953674,495417.7000000477,9047,WL,B,1.0
4,1.4829998016357422,learn,58517.00019836426,Wed May 13 2026 14:02:34 GMT-0400 (Eastern Daylight Time),496900.5,A,st,I,t,174,2,1482.7999999523163,495417.7000000477,9047,WL,B,1.0
4,1.616999864578247,learn,58383.00013542175,Wed May 13 2026 14:02:34 GMT-0400 (Eastern Daylight Time),497033.7000000477,A,str,I,r,120,2,1616.0,495417.7000000477,9047,WL,B,1.0
4,1.8999998569488525,learn,58100.00014305115,Wed May 13 2026 14:02:34 GMT-0400 (Eastern Daylight Time),497317.10000014305,A,stre,I,e,256,2,1899.4000000953674,495417.7000000477,9047,WL,B,1.0
4,2.066999912261963,learn,57933.00008773804,Wed May 13 2026 14:02:34 GMT-0400 (Eastern Daylight Time),497483.7999999523,A,stree,I,e,150,2,2066.0999999046326,495417.7000000477,9047,WL,B,1.0
4,2.25,learn,57750.0,Wed May 13 2026 14:02:34 GMT-0400 (Eastern Daylight Time),497667.2000000477,A,street,I,t,151,2,2249.5,495417.7000000477,9047,WL,B,1.0
4,2.6999998092651367,learn,57300.00019073486,Wed May 13 2026 14:02:34 GMT-0400 (Eastern Daylight Time),498116.7000000477,A,streetenter,I,enter,418,2,2699.0,495417.7000000477,9047,WL,B,1.0
4,3.0329999923706055,learn,56967.000007629395,Wed May 13 2026 14:02:34 GMT-0400 (Eastern Daylight Time),498450.5,A,g,I,g,314,2,333.5,498117.0,9047,WL,B,2.0
4,3.2669999599456787,learn,56733.00004005432,Wed May 13 2026 14:02:34 GMT-0400 (Eastern Daylight Time),498683.7999999523,A,gr,I,r,216,2,566.7999999523163,498117.0,9047,WL,B,2.0
4,3.5,learn,56500.0,Wed May 13 2026 14:02:34 GMT-0400 (Eastern Daylight Time),498917.10000014305,A,gra,I,a,197,2,800.1000001430511,498117.0,9047,WL,B,2.0
4,3.7669999599456787,learn,56233.00004005432,Wed May 13 2026 14:02:34 GMT-0400 (Eastern Daylight Time),499183.7999999523,A,gras,I,s,247,2,1066.7999999523163,498117.0,9047,WL,B,2.0
4,3.8999998569488525,learn,56100.00014305115,Wed May 13 2026 14:02:34 GMT-0400 (Eastern Daylight Time),499317.0,A,grass,I,s,105,2,1200.0,498117.0,9047,WL,B,2.0
4,4.2829999923706055,learn,55717.000007629395,Wed May 13 2026 14:02:34 GMT-0400 (Eastern Daylight Time),499700.0,A,grassenter,I,enter,349,2,1583.0,498117.0,9047,WL,B,2.0
4,4.599999904632568,learn,55400.00009536743,Wed May 13 2026 14:02:34 GMT-0400 (Eastern Daylight Time),500017.2000000477,A,d,I,d,299,2,316.90000009536743,499700.2999999523,9047,WL,B,3.0
4,4.816999912261963,learn,55183.00008773804,Wed May 13 2026 14:02:34 GMT-0400 (Eastern Daylight Time),500233.7999999523,A,do,I,o,201,2,533.5,499700.2999999523,9047,WL,B,3.0
4,4.982999801635742,learn,55017.00019836426,Wed May 13 2026 14:02:34 GMT-0400 (Eastern Daylight Time),500400.2000000477,A,doo,I,o,146,2,699.9000000953674,499700.2999999523,9047,WL,B,3.0
4,5.316999912261963,learn,54683.00008773804,Wed May 13 2026 14:02:34 GMT-0400 (Eastern Daylight Time),500733.7999999523,A,door,I,r,315,2,1033.5,499700.2999999523,9047,WL,B,3.0
4,5.632999897003174,learn,54367.000102996826,Wed May 13 2026 14:02:34 GMT-0400 (Eastern Daylight Time),501049.90000009537,A,doorenter,I,enter,300,2,1349.6000001430511,499700.2999999523,9047,WL,B,3.0
4,5.9670000076293945,learn,54032.999992370605,Wed May 13 2026 14:02:34 GMT-0400 (Eastern Daylight Time),501383.7000000477,A,a,I,a,325,2,333.40000009536743,501050.2999999523,9047,WL,B,4.0
4,6.25,learn,53750.0,Wed May 13 2026 14:02:34 GMT-0400 (Eastern Daylight Time),501667.2000000477,A,ar,I,r,257,2,616.9000000953674,501050.2999999523,9047,WL,B,4.0
4,6.8999998569488525,learn,53100.00014305115,Wed May 13 2026 14:02:34 GMT-0400 (Eastern Daylight Time),502317.2000000477,A,arm,I,m,633,2,1266.9000000953674,501050.2999999523,9047,WL,B,4.0
4,7.2159998416900635,learn,52784.00015830994,Wed May 13 2026 14:02:34 GMT-0400 (Eastern Daylight Time),502633.2999999523,A,armenter,I,enter,301,2,1583.0,501050.2999999523,9047,WL,B,4.0
4,7.616999864578247,learn,52383.00013542175,Wed May 13 2026 14:02:34 GMT-0400 (Eastern Daylight Time),503033.7999999523,A,s,I,s,389,2,400.09999990463257,502633.7000000477,9047,WL,B,5.0
4,7.816999912261963,learn,52183.00008773804,Wed May 13 2026 14:02:34 GMT-0400 (Eastern Daylight Time),503233.7999999523,A,st,I,t,178,2,600.0999999046326,502633.7000000477,9047,WL,B,5.0
4,8.0,learn,52000.0,Wed May 13 2026 14:02:34 GMT-0400 (Eastern Daylight Time),503417.0,A,sta,I,a,163,2,783.2999999523163,502633.7000000477,9047,WL,B,5.0
4,8.217000007629395,learn,51782.999992370605,Wed May 13 2026 14:02:34 GMT-0400 (Eastern Daylight Time),503633.7000000477,A,star,I,r,195,2,1000.0,502633.7000000477,9047,WL,B,5.0
4,8.649999856948853,learn,51350.00014305115,Wed May 13 2026 14:02:34 GMT-0400 (Eastern Daylight Time),504066.7000000477,A,starenter,I,enter,410,2,1433.0,502633.7000000477,9047,WL,B,5.0
4,9.299999952316284,learn,50700.000047683716,Wed May 13 2026 14:02:34 GMT-0400 (Eastern Daylight Time),504717.10000014305,A,w,I,w,636,2,650.1000001430511,504067.0,9047,WL,B,6.0
4,9.566999912261963,learn,50433.00008773804,Wed May 13 2026 14:02:34 GMT-0400 (Eastern Daylight Time),504983.7999999523,A,wi,I,i,254,2,916.7999999523163,504067.0,9047,WL,B,6.0
4,10.016999959945679,learn,49983.00004005432,Wed May 13 2026 14:02:34 GMT-0400 (Eastern Daylight Time),505433.60000014305,A,wif,I,f,436,2,1366.6000001430511,504067.0,9047,WL,B,6.0
4,10.266999959945679,learn,49733.00004005432,Wed May 13 2026 14:02:34 GMT-0400 (Eastern Daylight Time),505683.7999999523,A,wife,I,e,226,2,1616.7999999523163,504067.0,9047,WL,B,6.0
4,10.5,learn,49500.0,Wed May 13 2026 14:02:34 GMT-0400 (Eastern Daylight Time),505916.7000000477,A,wifeenter,I,enter,215,2,1849.7000000476837,504067.0,9047,WL,B,6.0
4,10.916999816894531,learn,49083.00018310547,Wed May 13 2026 14:02:34 GMT-0400 (Eastern Daylight Time),506333.7000000477,A,w,I,w,402,2,416.7000000476837,505917.0,9047,WL,B,7.0
4,11.132999897003174,learn,48867.000102996826,Wed May 13 2026 14:02:34 GMT-0400 (Eastern Daylight Time),506550.5,A,wi,I,i,190,2,633.5,505917.0,9047,WL,B,7.0
4,11.399999856948853,learn,48600.00014305115,Wed May 13 2026 14:02:34 GMT-0400 (Eastern Daylight Time),506817.2000000477,A,win,I,n,244,2,900.2000000476837,505917.0,9047,WL,B,7.0
4,11.83299994468689,learn,48167.00005531311,Wed May 13 2026 14:02:34 GMT-0400 (Eastern Daylight Time),507250.40000009537,A,wind,I,d,411,2,1333.4000000953674,505917.0,9047,WL,B,7.0
4,12.032999992370605,learn,47967.000007629395,Wed May 13 2026 14:02:34 GMT-0400 (Eastern Daylight Time),507450.40000009537,A,windo,I,o,187,2,1533.4000000953674,505917.0,9047,WL,B,7.0
4,12.516999959945679,learn,47483.00004005432,Wed May 13 2026 14:02:34 GMT-0400 (Eastern Daylight Time),507933.7999999523,A,window,I,w,465,2,2016.7999999523163,505917.0,9047,WL,B,7.0
4,12.849999904632568,learn,47150.00009536743,Wed May 13 2026 14:02:34 GMT-0400 (Eastern Daylight Time),508266.60000014305,A,windowenter,I,enter,316,2,2349.600000143051,505917.0,9047,WL,B,7.0
4,13.5,learn,46500.0,Wed May 13 2026 14:02:34 GMT-0400 (Eastern Daylight Time),508917.2999999523,A,c,I,c,628,2,650.3999998569489,508266.90000009537,9047,WL,B,8.0
4,13.682999849319458,learn,46317.00015068054,Wed May 13 2026 14:02:34 GMT-0400 (Eastern Daylight Time),509100.2999999523,A,ci,I,i,166,2,833.3999998569489,508266.90000009537,9047,WL,B,8.0
4,13.967000007629395,learn,46032.999992370605,Wed May 13 2026 14:02:34 GMT-0400 (Eastern Daylight Time),509383.7000000477,A,cit,I,t,263,2,1116.7999999523163,508266.90000009537,9047,WL,B,8.0
4,14.116999864578247,learn,45883.00013542175,Wed May 13 2026 14:02:34 GMT-0400 (Eastern Daylight Time),509533.90000009537,A,city,I,y,133,2,1267.0,508266.90000009537,9047,WL,B,8.0
4,14.515999794006348,learn,45484.00020599365,Wed May 13 2026 14:02:34 GMT-0400 (Eastern Daylight Time),509933.2000000477,A,cityenter,I,enter,381,2,1666.2999999523163,508266.90000009537,9047,WL,B,8.0
4,15.049999952316284,learn,44950.000047683716,Wed May 13 2026 14:02:34 GMT-0400 (Eastern Daylight Time),510467.10000014305,A,p,I,p,514,2,533.5,509933.60000014305,9047,WL,B,9.0
4,15.58299994468689,learn,44417.00005531311,Wed May 13 2026 14:02:34 GMT-0400 (Eastern Daylight Time),511000.40000009537,A,pu,I,u,518,2,1066.7999999523163,509933.60000014305,9047,WL,B,9.0
4,15.949999809265137,learn,44050.00019073486,Wed May 13 2026 14:02:34 GMT-0400 (Eastern Daylight Time),511366.90000009537,A,pup,I,p,356,2,1433.2999999523163,509933.60000014305,9047,WL,B,9.0
4,16.217000007629395,learn,43782.999992370605,Wed May 13 2026 14:02:34 GMT-0400 (Eastern Daylight Time),511633.7000000477,A,pupi,I,i,245,2,1700.0999999046326,509933.60000014305,9047,WL,B,9.0
4,16.41699981689453,learn,43583.00018310547,Wed May 13 2026 14:02:34 GMT-0400 (Eastern Daylight Time),511833.7999999523,A,pupil,I,l,186,2,1900.1999998092651,509933.60000014305,9047,WL,B,9.0
4,16.84999990463257,learn,43150.00009536743,Wed May 13 2026 14:02:34 GMT-0400 (Eastern Daylight Time),512266.60000014305,A,pupilenter,I,enter,407,2,2333.0,509933.60000014305,9047,WL,B,9.0
4,17.882999897003174,learn,42117.000102996826,Wed May 13 2026 14:02:34 GMT-0400 (Eastern Daylight Time),513300.60000014305,A,c,I,c,1012,2,1033.6000001430511,512267.0,9047,WL,B,10.0
4,18.049999952316284,learn,41950.000047683716,Wed May 13 2026 14:02:34 GMT-0400 (Eastern Daylight Time),513467.10000014305,A,ca,I,a,151,2,1200.1000001430511,512267.0,9047,WL,B,10.0
4,18.632999897003174,learn,41367.000102996826,Wed May 13 2026 14:02:34 GMT-0400 (Eastern Daylight Time),514050.5,A,cab,I,b,551,2,1783.5,512267.0,9047,WL,B,10.0
4,18.84999990463257,learn,41150.00009536743,Wed May 13 2026 14:02:34 GMT-0400 (Eastern Daylight Time),514267.10000014305,A,cabi,I,i,199,2,2000.1000001430511,512267.0,9047,WL,B,10.0
4,19.482999801635742,learn,40517.00019836426,Wed May 13 2026 14:02:34 GMT-0400 (Eastern Daylight Time),514900.5,A,cabin,I,n,608,2,2633.5,512267.0,9047,WL,B,10.0
4,20.08299994468689,learn,39917.00005531311,Wed May 13 2026 14:02:34 GMT-0400 (Eastern Daylight Time),515500.5,A,cabinl,I,l,585,2,3233.5,512267.0,9047,WL,B,10.0
4,20.282999992370605,learn,39717.000007629395,Wed May 13 2026 14:02:34 GMT-0400 (Eastern Daylight Time),515700.60000014305,A,cabinla,I,a,173,2,3433.600000143051,512267.0,9047,WL,B,10.0
4,20.432999849319458,learn,39567.00015068054,Wed May 13 2026 14:02:34 GMT-0400 (Eastern Daylight Time),515850.40000009537,A,cabinlak,I,k,136,2,3583.4000000953674,512267.0,9047,WL,B,10.0
4,20.66699981689453,learn,39333.00018310547,Wed May 13 2026 14:02:34 GMT-0400 (Eastern Daylight Time),516083.7999999523,A,cabinlake,I,e,200,2,3816.7999999523163,512267.0,9047,WL,B,10.0
4,21.41699981689453,learn,38583.00018310547,Wed May 13 2026 14:02:34 GMT-0400 (Eastern Daylight Time),516833.7999999523,A,cabinlakep,I,p,728,2,4566.799999952316,512267.0,9047,WL,B,10.0
4,21.632999897003174,learn,38367.000102996826,Wed May 13 2026 14:02:34 GMT-0400 (Eastern Daylight Time),517050.60000014305,A,cabinlakepa,I,a,202,2,4783.600000143051,512267.0,9047,WL,B,10.0
4,22.732999801635742,learn,37267.00019836426,Wed May 13 2026 14:02:34 GMT-0400 (Eastern Daylight Time),518150.5,A,cabinlakep,I,backspace,1064,2,5883.5,512267.0,9047,WL,B,10.0
4,23.299999952316284,learn,36700.000047683716,Wed May 13 2026 14:02:34 GMT-0400 (Eastern Daylight Time),518717.10000014305,A,cabinlake,I,backspace,549,2,6450.100000143051,512267.0,9047,WL,B,10.0
4,23.482999801635742,learn,36517.00019836426,Wed May 13 2026 14:02:34 GMT-0400 (Eastern Daylight Time),518900.5,A,cabinlak,I,backspace,159,2,6633.5,512267.0,9047,WL,B,10.0
4,23.799999952316284,learn,36200.000047683716,Wed May 13 2026 14:02:34 GMT-0400 (Eastern Daylight Time),519217.10000014305,A,cabinla,I,backspace,296,2,6950.100000143051,512267.0,9047,WL,B,10.0
4,23.965999841690063,learn,36034.00015830994,Wed May 13 2026 14:02:34 GMT-0400 (Eastern Daylight Time),519383.5,A,cabinl,I,backspace,154,2,7116.5,512267.0,9047,WL,B,10.0
4,24.132999897003174,learn,35867.000102996826,Wed May 13 2026 14:02:34 GMT-0400 (Eastern Daylight Time),519550.40000009537,A,cabin,I,backspace,138,2,7283.400000095367,512267.0,9047,WL,B,10.0
4,24.84999990463257,learn,35150.00009536743,Wed May 13 2026 14:02:34 GMT-0400 (Eastern Daylight Time),520266.60000014305,A,cabinenter,I,enter,692,2,7999.600000143051,512267.0,9047,WL,B,10.0
4,25.217000007629395,learn,34782.999992370605,Wed May 13 2026 14:02:34 GMT-0400 (Eastern Daylight Time),520633.7999999523,A,l,I,l,357,2,366.89999985694885,520266.90000009537,9047,WL,B,11.0
4,25.366999864578247,learn,34633.00013542175,Wed May 13 2026 14:02:34 GMT-0400 (Eastern Daylight Time),520783.60000014305,A,la,I,a,129,2,516.7000000476837,520266.90000009537,9047,WL,B,11.0
4,25.5,learn,34500.0,Wed May 13 2026 14:02:34 GMT-0400 (Eastern Daylight Time),520917.2000000477,A,lak,I,k,98,2,650.2999999523163,520266.90000009537,9047,WL,B,11.0
4,25.75,learn,34250.0,Wed May 13 2026 14:02:34 GMT-0400 (Eastern Daylight Time),521167.2000000477,A,lake,I,e,222,2,900.2999999523163,520266.90000009537,9047,WL,B,11.0
4,25.965999841690063,learn,34034.00015830994,Wed May 13 2026 14:02:34 GMT-0400 (Eastern Daylight Time),521383.40000009537,A,lakeenter,I,enter,193,2,1116.5,520266.90000009537,9047,WL,B,11.0
4,26.799999952316284,learn,33200.000047683716,Wed May 13 2026 14:02:34 GMT-0400 (Eastern Daylight Time),522216.90000009537,A,p,I,p,824,2,833.2999999523163,521383.60000014305,9047,WL,B,12.0
4,27.049999952316284,learn,32950.000047683716,Wed May 13 2026 14:02:34 GMT-0400 (Eastern Daylight Time),522467.0,A,pi,I,i,225,2,1083.3999998569489,521383.60000014305,9047,WL,B,12.0
4,27.25,learn,32750.0,Wed May 13 2026 14:02:34 GMT-0400 (Eastern Daylight Time),522667.10000014305,A,pip,I,p,185,2,1283.5,521383.60000014305,9047,WL,B,12.0
4,27.732999801635742,learn,32267.000198364258,Wed May 13 2026 14:02:34 GMT-0400 (Eastern Daylight Time),523150.5,A,pipe,I,e,465,2,1766.8999998569489,521383.60000014305,9047,WL,B,12.0
4,28.399999856948853,learn,31600.000143051147,Wed May 13 2026 14:02:34 GMT-0400 (Eastern Daylight Time),523816.7000000477,A,pipeenter,I,enter,652,2,2433.0999999046326,521383.60000014305,9047,WL,B,12.0
4,29.33299994468689,learn,30667.00005531311,Wed May 13 2026 14:02:34 GMT-0400 (Eastern Daylight Time),524750.4000000954,A,f,I,f,919,2,933.4000000953674,523817.0,9047,WL,B,13.0
4,29.58299994468689,learn,30417.00005531311,Wed May 13 2026 14:02:34 GMT-0400 (Eastern Daylight Time),525000.2999999523,A,fi,I,i,236,2,1183.2999999523163,523817.0,9047,WL,B,13.0
4,29.83299994468689,learn,30167.00005531311,Wed May 13 2026 14:02:34 GMT-0400 (Eastern Daylight Time),525250.4000000954,A,fir,I,r,228,2,1433.4000000953674,523817.0,9047,WL,B,13.0
4,30.09999990463257,learn,29900.00009536743,Wed May 13 2026 14:02:34 GMT-0400 (Eastern Daylight Time),525517.0,A,fire,I,e,249,2,1700.0,523817.0,9047,WL,B,13.0
4,30.382999897003174,learn,29617.000102996826,Wed May 13 2026 14:02:34 GMT-0400 (Eastern Daylight Time),525800.0,A,fireenter,I,enter,269,2,1983.0,523817.0,9047,WL,B,13.0
4,30.782999992370605,learn,29217.000007629395,Wed May 13 2026 14:02:34 GMT-0400 (Eastern Daylight Time),526200.4000000954,A,s,I,s,391,2,400.0,525800.4000000954,9047,WL,B,14.0
4,31.032999992370605,learn,28967.000007629395,Wed May 13 2026 14:02:34 GMT-0400 (Eastern Daylight Time),526450.5,A,sk,I,k,226,2,650.0999999046326,525800.4000000954,9047,WL,B,14.0
4,31.217000007629395,learn,28782.999992370605,Wed May 13 2026 14:02:34 GMT-0400 (Eastern Daylight Time),526633.7000000477,A,ski,I,i,169,2,833.2999999523163,525800.4000000954,9047,WL,B,14.0
4,31.649999856948853,learn,28350.000143051147,Wed May 13 2026 14:02:34 GMT-0400 (Eastern Daylight Time),527067.100000143,A,skin,I,n,418,2,1266.7000000476837,525800.4000000954,9047,WL,B,14.0
4,31.982999801635742,learn,28017.000198364258,Wed May 13 2026 14:02:34 GMT-0400 (Eastern Daylight Time),527400.0,A,skinenter,I,enter,321,2,1599.5999999046326,525800.4000000954,9047,WL,B,14.0
4,32.382999897003174,learn,27617.000102996826,Wed May 13 2026 14:02:34 GMT-0400 (Eastern Daylight Time),527800.4000000954,A,w,I,w,391,2,400.10000014305115,527400.2999999523,9047,WL,B,15.0
4,32.632999897003174,learn,27367.000102996826,Wed May 13 2026 14:02:34 GMT-0400 (Eastern Daylight Time),528050.5,A,wi,I,i,225,2,650.2000000476837,527400.2999999523,9047,WL,B,15.0
4,33.06699991226196,learn,26933.000087738037,Wed May 13 2026 14:02:34 GMT-0400 (Eastern Daylight Time),528483.7999999523,A,win,I,n,410,2,1083.5,527400.2999999523,9047,WL,B,15.0
4,33.34999990463257,learn,26650.00009536743,Wed May 13 2026 14:02:34 GMT-0400 (Eastern Daylight Time),528767.0,A,wind,I,d,263,2,1366.7000000476837,527400.2999999523,9047,WL,B,15.0
4,33.532999992370605,learn,26467.000007629395,Wed May 13 2026 14:02:34 GMT-0400 (Eastern Daylight Time),528950.5,A,windo,I,o,157,2,1550.2000000476837,527400.2999999523,9047,WL,B,15.0
4,33.967000007629395,learn,26032.999992370605,Wed May 13 2026 14:02:34 GMT-0400 (Eastern Daylight Time),529383.7000000477,A,window,I,w,419,2,1983.4000000953674,527400.2999999523,9047,WL,B,15.0
4,34.5,learn,25500.0,Wed May 13 2026 14:02:34 GMT-0400 (Eastern Daylight Time),529916.7000000477,A,windowenter,I,enter,514,2,2516.4000000953674,527400.2999999523,9047,WL,B,15.0
5,1.5499999523162842,learn,60000.0,Wed May 13 2026 14:02:34 GMT-0400 (Eastern Daylight Time),608408.4000000954,A,s,I,s,1539,2,1550.4000000953674,606858.0,9047,WL,B,1.0
5,1.7669999599456787,learn,60000.0,Wed May 13 2026 14:02:34 GMT-0400 (Eastern Daylight Time),608624.7000000477,A,st,I,t,195,2,1766.7000000476837,606858.0,9047,WL,B,1.0
5,1.9169998168945312,learn,60000.0,Wed May 13 2026 14:02:34 GMT-0400 (Eastern Daylight Time),608774.7000000477,A,str,I,r,124,2,1916.7000000476837,606858.0,9047,WL,B,1.0
5,2.0829999446868896,learn,60000.0,Wed May 13 2026 14:02:34 GMT-0400 (Eastern Daylight Time),608941.2000000477,A,stre,I,e,147,2,2083.2000000476837,606858.0,9047,WL,B,1.0
5,2.2669999599456787,learn,60000.0,Wed May 13 2026 14:02:34 GMT-0400 (Eastern Daylight Time),609124.600000143,A,stree,I,e,150,2,2266.600000143051,606858.0,9047,WL,B,1.0
5,2.4169998168945312,learn,60000.0,Wed May 13 2026 14:02:34 GMT-0400 (Eastern Daylight Time),609274.600000143,A,street,I,t,135,2,2416.600000143051,606858.0,9047,WL,B,1.0
5,3.0,learn,60000.0,Wed May 13 2026 14:02:34 GMT-0400 (Eastern Daylight Time),609857.600000143,A,streetenter,I,enter,560,2,2999.600000143051,606858.0,9047,WL,B,1.0
5,3.382999897003174,learn,60000.0,Wed May 13 2026 14:02:34 GMT-0400 (Eastern Daylight Time),610241.4000000954,A,g,I,g,366,2,383.5,609857.9000000954,9047,WL,B,2.0
5,3.5829999446868896,learn,60000.0,Wed May 13 2026 14:02:34 GMT-0400 (Eastern Daylight Time),610441.4000000954,A,gr,I,r,186,2,583.5,609857.9000000954,9047,WL,B,2.0
5,3.75,learn,60000.0,Wed May 13 2026 14:02:34 GMT-0400 (Eastern Daylight Time),610608.100000143,A,gra,I,a,146,2,750.2000000476837,609857.9000000954,9047,WL,B,2.0
5,3.9670000076293945,learn,60000.0,Wed May 13 2026 14:02:34 GMT-0400 (Eastern Daylight Time),610824.7000000477,A,gras,I,s,204,2,966.7999999523163,609857.9000000954,9047,WL,B,2.0
5,4.099999904632568,learn,60000.0,Wed May 13 2026 14:02:34 GMT-0400 (Eastern Daylight Time),610958.100000143,A,grass,I,s,115,2,1100.2000000476837,609857.9000000954,9047,WL,B,2.0
5,4.4659998416900635,learn,60000.0,Wed May 13 2026 14:02:34 GMT-0400 (Eastern Daylight Time),611324.2999999523,A,grassenter,I,enter,338,2,1466.3999998569489,609857.9000000954,9047,WL,B,2.0
5,4.699999809265137,learn,60000.0,Wed May 13 2026 14:02:34 GMT-0400 (Eastern Daylight Time),611558.100000143,A,d,I,d,211,2,233.5,611324.600000143,9047,WL,B,3.0
5,4.932999849319458,learn,60000.0,Wed May 13 2026 14:02:34 GMT-0400 (Eastern Daylight Time),611791.4000000954,A,do,I,o,213,2,466.7999999523163,611324.600000143,9047,WL,B,3.0
5,5.099999904632568,learn,60000.0,Wed May 13 2026 14:02:34 GMT-0400 (Eastern Daylight Time),611958.0,A,doo,I,o,141,2,633.3999998569489,611324.600000143,9047,WL,B,3.0
5,5.316999912261963,learn,60000.0,Wed May 13 2026 14:02:34 GMT-0400 (Eastern Daylight Time),612174.7000000477,A,door,I,r,187,2,850.0999999046326,611324.600000143,9047,WL,B,3.0
5,6.099999904632568,learn,60000.0,Wed May 13 2026 14:02:34 GMT-0400 (Eastern Daylight Time),612957.600000143,A,doorenter,I,enter,764,2,1633.0,611324.600000143,9047,WL,B,3.0
5,6.83299994468689,learn,60000.0,Wed May 13 2026 14:02:34 GMT-0400 (Eastern Daylight Time),613691.2999999523,A,a,I,a,722,2,733.3999998569489,612957.9000000954,9047,WL,B,4.0
5,7.08299994468689,learn,60000.0,Wed May 13 2026 14:02:34 GMT-0400 (Eastern Daylight Time),613941.4000000954,A,ar,I,r,224,2,983.5,612957.9000000954,9047,WL,B,4.0
5,7.816999912261963,learn,60000.0,Wed May 13 2026 14:02:34 GMT-0400 (Eastern Daylight Time),614674.7000000477,A,arm,I,m,710,2,1716.7999999523163,612957.9000000954,9047,WL,B,4.0
5,8.16599988937378,learn,60000.0,Wed May 13 2026 14:02:34 GMT-0400 (Eastern Daylight Time),615024.2000000477,A,armenter,I,enter,329,2,2066.2999999523163,612957.9000000954,9047,WL,B,4.0
5,8.566999912261963,learn,60000.0,Wed May 13 2026 14:02:34 GMT-0400 (Eastern Daylight Time),615424.7000000477,A,s,I,s,383,2,400.09999990463257,615024.600000143,9047,WL,B,5.0
5,8.732999801635742,learn,60000.0,Wed May 13 2026 14:02:34 GMT-0400 (Eastern Daylight Time),615591.0,A,st,I,t,154,2,566.3999998569489,615024.600000143,9047,WL,B,5.0
5,8.899999856948853,learn,60000.0,Wed May 13 2026 14:02:34 GMT-0400 (Eastern Daylight Time),615758.0,A,sta,I,a,149,2,733.3999998569489,615024.600000143,9047,WL,B,5.0
5,9.032999992370605,learn,60000.0,Wed May 13 2026 14:02:34 GMT-0400 (Eastern Daylight Time),615891.2999999523,A,star,I,r,100,2,866.6999998092651,615024.600000143,9047,WL,B,5.0
5,9.449999809265137,learn,60000.0,Wed May 13 2026 14:02:34 GMT-0400 (Eastern Daylight Time),616307.600000143,A,starenter,I,enter,383,2,1283.0,615024.600000143,9047,WL,B,5.0
5,9.83299994468689,learn,60000.0,Wed May 13 2026 14:02:34 GMT-0400 (Eastern Daylight Time),616691.4000000954,A,w,I,w,364,2,383.5,616307.9000000954,9047,WL,B,6.0
5,10.049999952316284,learn,60000.0,Wed May 13 2026 14:02:34 GMT-0400 (Eastern Daylight Time),616908.100000143,A,wi,I,i,200,2,600.2000000476837,616307.9000000954,9047,WL,B,6.0
5,10.299999952316284,learn,60000.0,Wed May 13 2026 14:02:34 GMT-0400 (Eastern Daylight Time),617158.100000143,A,wif,I,f,231,2,850.2000000476837,616307.9000000954,9047,WL,B,6.0
5,10.449999809265137,learn,60000.0,Wed May 13 2026 14:02:34 GMT-0400 (Eastern Daylight Time),617308.100000143,A,wife,I,e,134,2,1000.2000000476837,616307.9000000954,9047,WL,B,6.0
5,11.565999984741211,learn,60000.0,Wed May 13 2026 14:02:34 GMT-0400 (Eastern Daylight Time),618424.2000000477,A,wifeenter,I,enter,1101,2,2116.2999999523163,616307.9000000954,9047,WL,B,6.0
5,12.266999959945679,learn,60000.0,Wed May 13 2026 14:02:34 GMT-0400 (Eastern Daylight Time),619124.600000143,A,w,I,w,679,2,700.0,618424.600000143,9047,WL,B,7.0
5,12.516999959945679,learn,60000.0,Wed May 13 2026 14:02:34 GMT-0400 (Eastern Daylight Time),619374.7999999523,A,wi,I,i,231,2,950.1999998092651,618424.600000143,9047,WL,B,7.0
5,12.782999992370605,learn,60000.0,Wed May 13 2026 14:02:34 GMT-0400 (Eastern Daylight Time),619641.4000000954,A,win,I,n,252,2,1216.7999999523163,618424.600000143,9047,WL,B,7.0
5,13.08299994468689,learn,60000.0,Wed May 13 2026 14:02:34 GMT-0400 (Eastern Daylight Time),619941.4000000954,A,wind,I,d,273,2,1516.7999999523163,618424.600000143,9047,WL,B,7.0
5,13.25,learn,60000.0,Wed May 13 2026 14:02:34 GMT-0400 (Eastern Daylight Time),620108.0,A,windo,I,o,150,2,1683.3999998569489,618424.600000143,9047,WL,B,7.0
5,13.549999952316284,learn,60000.0,Wed May 13 2026 14:02:34 GMT-0400 (Eastern Daylight Time),620407.9000000954,A,window,I,w,279,2,1983.2999999523163,618424.600000143,9047,WL,B,7.0
5,13.799999952316284,learn,60000.0,Wed May 13 2026 14:02:34 GMT-0400 (Eastern Daylight Time),620657.5,A,windowenter,I,enter,227,2,2232.899999856949,618424.600000143,9047,WL,B,7.0
5,14.717000007629395,learn,60000.0,Wed May 13 2026 14:02:34 GMT-0400 (Eastern Daylight Time),621575.100000143,A,c,I,c,910,2,917.2000000476837,620657.9000000954,9047,WL,B,8.0
5,14.949999809265137,learn,60000.0,Wed May 13 2026 14:02:34 GMT-0400 (Eastern Daylight Time),621808.0,A,ci,I,i,213,2,1150.0999999046326,620657.9000000954,9047,WL,B,8.0
5,15.282999992370605,learn,60000.0,Wed May 13 2026 14:02:34 GMT-0400 (Eastern Daylight Time),622141.2999999523,A,cit,I,t,316,2,1483.3999998569489,620657.9000000954,9047,WL,B,8.0
5,15.41599988937378,learn,60000.0,Wed May 13 2026 14:02:34 GMT-0400 (Eastern Daylight Time),622274.600000143,A,city,I,y,110,2,1616.7000000476837,620657.9000000954,9047,WL,B,8.0
5,15.899999856948853,learn,60000.0,Wed May 13 2026 14:02:34 GMT-0400 (Eastern Daylight Time),622757.600000143,A,cityenter,I,enter,450,2,2099.7000000476837,620657.9000000954,9047,WL,B,8.0
5,16.715999841690063,learn,60000.0,Wed May 13 2026 14:02:34 GMT-0400 (Eastern Daylight Time),623574.4000000954,A,p,I,p,810,2,816.5,622757.9000000954,9047,WL,B,9.0
5,17.066999912261963,learn,60000.0,Wed May 13 2026 14:02:34 GMT-0400 (Eastern Daylight Time),623924.7000000477,A,pu,I,u,325,2,1166.7999999523163,622757.9000000954,9047,WL,B,9.0
5,17.432999849319458,learn,60000.0,Wed May 13 2026 14:02:34 GMT-0400 (Eastern Daylight Time),624291.4000000954,A,pup,I,p,342,2,1533.5,622757.9000000954,9047,WL,B,9.0
5,17.616999864578247,learn,60000.0,Wed May 13 2026 14:02:34 GMT-0400 (Eastern Daylight Time),624474.600000143,A,pupi,I,i,168,2,1716.7000000476837,622757.9000000954,9047,WL,B,9.0
5,17.816999912261963,learn,60000.0,Wed May 13 2026 14:02:34 GMT-0400 (Eastern Daylight Time),624674.7000000477,A,pupil,I,l,168,2,1916.7999999523163,622757.9000000954,9047,WL,B,9.0
5,18.09999990463257,learn,60000.0,Wed May 13 2026 14:02:34 GMT-0400 (Eastern Daylight Time),624957.600000143,A,pupilenter,I,enter,261,2,2199.7000000476837,622757.9000000954,9047,WL,B,9.0
5,18.84999990463257,learn,60000.0,Wed May 13 2026 14:02:34 GMT-0400 (Eastern Daylight Time),625708.0,A,c,I,c,738,2,750.0999999046326,624957.9000000954,9047,WL,B,10.0
5,19.01699995994568,learn,60000.0,Wed May 13 2026 14:02:34 GMT-0400 (Eastern Daylight Time),625874.7000000477,A,ca,I,a,142,2,916.7999999523163,624957.9000000954,9047,WL,B,10.0
5,19.382999897003174,learn,60000.0,Wed May 13 2026 14:02:34 GMT-0400 (Eastern Daylight Time),626241.4000000954,A,cab,I,b,344,2,1283.5,624957.9000000954,9047,WL,B,10.0
5,19.616999864578247,learn,60000.0,Wed May 13 2026 14:02:34 GMT-0400 (Eastern Daylight Time),626474.600000143,A,cabi,I,i,217,2,1516.7000000476837,624957.9000000954,9047,WL,B,10.0
5,20.066999912261963,learn,60000.0,Wed May 13 2026 14:02:34 GMT-0400 (Eastern Daylight Time),626924.7999999523,A,cabin,I,n,433,2,1966.8999998569489,624957.9000000954,9047,WL,B,10.0
5,20.365999937057495,learn,60000.0,Wed May 13 2026 14:02:34 GMT-0400 (Eastern Daylight Time),627224.2999999523,A,cabinenter,I,enter,286,2,2266.399999856949,624957.9000000954,9047,WL,B,10.0
5,21.25,learn,60000.0,Wed May 13 2026 14:02:34 GMT-0400 (Eastern Daylight Time),628107.7999999523,A,l,I,l,871,2,883.2999999523163,627224.5,9047,WL,B,11.0
5,21.41699981689453,learn,60000.0,Wed May 13 2026 14:02:34 GMT-0400 (Eastern Daylight Time),628274.7999999523,A,la,I,a,145,2,1050.2999999523163,627224.5,9047,WL,B,11.0
5,21.532999992370605,learn,60000.0,Wed May 13 2026 14:02:34 GMT-0400 (Eastern Daylight Time),628391.100000143,A,lak,I,k,98,2,1166.6000001430511,627224.5,9047,WL,B,11.0
5,21.76699995994568,learn,60000.0,Wed May 13 2026 14:02:34 GMT-0400 (Eastern Daylight Time),628624.7000000477,A,lake,I,e,204,2,1400.2000000476837,627224.5,9047,WL,B,11.0
5,22.41599988937378,learn,60000.0,Wed May 13 2026 14:02:34 GMT-0400 (Eastern Daylight Time),629274.2999999523,A,lakeenter,I,enter,635,2,2049.7999999523163,627224.5,9047,WL,B,11.0
5,24.182999849319458,learn,60000.0,Wed May 13 2026 14:02:34 GMT-0400 (Eastern Daylight Time),631041.4000000954,A,p,I,p,1749,2,1766.7000000476837,629274.7000000477,9047,WL,B,12.0
5,24.399999856948853,learn,60000.0,Wed May 13 2026 14:02:34 GMT-0400 (Eastern Daylight Time),631258.0,A,pi,I,i,201,2,1983.2999999523163,629274.7000000477,9047,WL,B,12.0
5,24.549999952316284,learn,60000.0,Wed May 13 2026 14:02:34 GMT-0400 (Eastern Daylight Time),631408.0,A,pip,I,p,127,2,2133.2999999523163,629274.7000000477,9047,WL,B,12.0
5,24.782999992370605,learn,60000.0,Wed May 13 2026 14:02:34 GMT-0400 (Eastern Daylight Time),631641.2999999523,A,pipe,I,e,220,2,2366.5999999046326,629274.7000000477,9047,WL,B,12.0
5,24.949999809265137,learn,60000.0,Wed May 13 2026 14:02:34 GMT-0400 (Eastern Daylight Time),631807.5,A,pipeenter,I,enter,144,2,2532.7999999523163,629274.7000000477,9047,WL,B,12.0
5,25.66699981689453,learn,60000.0,Wed May 13 2026 14:02:34 GMT-0400 (Eastern Daylight Time),632524.7000000477,A,s,I,s,703,2,716.7999999523163,631807.9000000954,9047,WL,B,13.0
5,25.882999897003174,learn,60000.0,Wed May 13 2026 14:02:34 GMT-0400 (Eastern Daylight Time),632741.5,A,sk,I,k,191,2,933.5999999046326,631807.9000000954,9047,WL,B,13.0
5,26.049999952316284,learn,60000.0,Wed May 13 2026 14:02:34 GMT-0400 (Eastern Daylight Time),632907.9000000954,A,ski,I,i,140,2,1100.0,631807.9000000954,9047,WL,B,13.0
5,26.449999809265137,learn,60000.0,Wed May 13 2026 14:02:34 GMT-0400 (Eastern Daylight Time),633308.0,A,skin,I,n,373,2,1500.0999999046326,631807.9000000954,9047,WL,B,13.0
5,26.81599998474121,learn,60000.0,Wed May 13 2026 14:02:34 GMT-0400 (Eastern Daylight Time),633674.2999999523,A,skinenter,I,enter,351,2,1866.3999998569489,631807.9000000954,9047,WL,B,13.0
5,27.25,learn,60000.0,Wed May 13 2026 14:02:34 GMT-0400 (Eastern Daylight Time),634107.7999999523,A,f,I,f,421,2,433.19999980926514,633674.600000143,9047,WL,B,14.0
5,27.399999856948853,learn,60000.0,Wed May 13 2026 14:02:34 GMT-0400 (Eastern Daylight Time),634258.100000143,A,fi,I,i,128,2,583.5,633674.600000143,9047,WL,B,14.0
5,27.58299994468689,learn,60000.0,Wed May 13 2026 14:02:34 GMT-0400 (Eastern Daylight Time),634441.2999999523,A,fir,I,r,170,2,766.6999998092651,633674.600000143,9047,WL,B,14.0
5,27.799999952316284,learn,60000.0,Wed May 13 2026 14:02:34 GMT-0400 (Eastern Daylight Time),634658.100000143,A,fire,I,e,192,2,983.5,633674.600000143,9047,WL,B,14.0
5,28.399999856948853,learn,60000.0,Wed May 13 2026 14:02:34 GMT-0400 (Eastern Daylight Time),635257.600000143,A,fireenter,I,enter,584,2,1583.0,633674.600000143,9047,WL,B,14.0
5,29.149999856948853,learn,60000.0,Wed May 13 2026 14:02:34 GMT-0400 (Eastern Daylight Time),636007.9000000954,A,c,I,c,741,2,750.0,635257.9000000954,9047,WL,B,15.0
5,29.382999897003174,learn,60000.0,Wed May 13 2026 14:02:34 GMT-0400 (Eastern Daylight Time),636241.5,A,cl,I,l,211,2,983.5999999046326,635257.9000000954,9047,WL,B,15.0
5,29.58299994468689,learn,60000.0,Wed May 13 2026 14:02:34 GMT-0400 (Eastern Daylight Time),636441.4000000954,A,clo,I,o,187,2,1183.5,635257.9000000954,9047,WL,B,15.0
5,29.982999801635742,learn,60000.0,Wed May 13 2026 14:02:34 GMT-0400 (Eastern Daylight Time),636841.2999999523,A,cloc,I,c,385,2,1583.3999998569489,635257.9000000954,9047,WL,B,15.0
5,30.232999801635742,learn,60000.0,Wed May 13 2026 14:02:34 GMT-0400 (Eastern Daylight Time),637091.4000000954,A,clock,I,k,226,2,1833.5,635257.9000000954,9047,WL,B,15.0
5,31.0,learn,60000.0,Wed May 13 2026 14:02:34 GMT-0400 (Eastern Daylight Time),637857.600000143,A,clockenter,I,enter,742,2,2599.7000000476837,635257.9000000954,9047,WL,B,15.0
6,1.2330000400543213,distr,58766.99995994568,Wed May 13 2026 14:02:34 GMT-0400 (Eastern Daylight Time),713908.100000143,B,b,I,b,1210,2,1232.8000001907349,712675.2999999523,9047,WL,B,1.0
6,1.4830000400543213,distr,58516.99995994568,Wed May 13 2026 14:02:34 GMT-0400 (Eastern Daylight Time),714158.100000143,B,ba,I,a,232,2,1482.8000001907349,712675.2999999523,9047,WL,B,1.0
6,1.6989998817443848,distr,58301.000118255615,Wed May 13 2026 14:02:34 GMT-0400 (Eastern Daylight Time),714374.5,B,bab,I,b,207,2,1699.2000000476837,712675.2999999523,9047,WL,B,1.0
6,2.4660000801086426,distr,57533.99991989136,Wed May 13 2026 14:02:34 GMT-0400 (Eastern Daylight Time),715141.2999999523,B,baby,I,y,742,2,2466.0,712675.2999999523,9047,WL,B,1.0
6,2.8489999771118164,distr,57151.00002288818,Wed May 13 2026 14:02:34 GMT-0400 (Eastern Daylight Time),715524.2999999523,B,babyenter,I,enter,358,2,2849.0,712675.2999999523,9047,WL,B,1.0
6,3.183000087738037,distr,56816.99991226196,Wed May 13 2026 14:02:34 GMT-0400 (Eastern Daylight Time),715858.2000000477,B,l,I,l,315,2,333.59999990463257,715524.600000143,9047,WL,B,2.0
6,3.433000087738037,distr,56566.99991226196,Wed May 13 2026 14:02:34 GMT-0400 (Eastern Daylight Time),716108.100000143,B,li,I,i,234,2,583.5,715524.600000143,9047,WL,B,2.0
6,3.565999984741211,distr,56434.00001525879,Wed May 13 2026 14:02:34 GMT-0400 (Eastern Daylight Time),716241.5,B,lip,I,p,111,2,716.8999998569489,715524.600000143,9047,WL,B,2.0
6,4.749000072479248,distr,55250.99992752075,Wed May 13 2026 14:02:34 GMT-0400 (Eastern Daylight Time),717424.2999999523,B,lipenter,I,enter,1162,2,1899.6999998092651,715524.600000143,9047,WL,B,2.0
6,5.483000040054321,distr,54516.99995994568,Wed May 13 2026 14:02:34 GMT-0400 (Eastern Daylight Time),718158.100000143,B,s,I,s,719,2,733.5,717424.600000143,9047,WL,B,3.0
6,5.716000080108643,distr,54283.99991989136,Wed May 13 2026 14:02:34 GMT-0400 (Eastern Daylight Time),718391.2999999523,B,st,I,t,220,2,966.6999998092651,717424.600000143,9047,WL,B,3.0
6,6.216000080108643,distr,53783.99991989136,Wed May 13 2026 14:02:34 GMT-0400 (Eastern Daylight Time),718891.5,B,sto,I,o,482,2,1466.8999998569489,717424.600000143,9047,WL,B,3.0
6,6.450000047683716,distr,53549.999952316284,Wed May 13 2026 14:02:34 GMT-0400 (Eastern Daylight Time),719124.7000000477,B,stor,I,r,208,2,1700.0999999046326,717424.600000143,9047,WL,B,3.0
6,6.599999904632568,distr,53400.00009536743,Wed May 13 2026 14:02:34 GMT-0400 (Eastern Daylight Time),719274.600000143,B,storm,I,m,135,2,1850.0,717424.600000143,9047,WL,B,3.0
6,6.898999929428101,distr,53101.0000705719,Wed May 13 2026 14:02:34 GMT-0400 (Eastern Daylight Time),719574.2000000477,B,stormenter,I,enter,287,2,2149.5999999046326,717424.600000143,9047,WL,B,3.0
6,8.849999904632568,distr,51150.00009536743,Wed May 13 2026 14:02:34 GMT-0400 (Eastern Daylight Time),721524.7999999523,B,o,I,o,1929,2,1950.1999998092651,719574.600000143,9047,WL,B,4.0
6,9.150000095367432,distr,50849.99990463257,Wed May 13 2026 14:02:34 GMT-0400 (Eastern Daylight Time),721824.600000143,B,oc,I,c,277,2,2250.0,719574.600000143,9047,WL,B,4.0
6,9.365999937057495,distr,50634.000062942505,Wed May 13 2026 14:02:34 GMT-0400 (Eastern Daylight Time),722041.4000000954,B,oce,I,e,203,2,2466.7999999523163,719574.600000143,9047,WL,B,4.0
6,9.683000087738037,distr,50316.99991226196,Wed May 13 2026 14:02:34 GMT-0400 (Eastern Daylight Time),722358.100000143,B,ocea,I,a,289,2,2783.5,719574.600000143,9047,WL,B,4.0
6,9.882999897003174,distr,50117.000102996826,Wed May 13 2026 14:02:34 GMT-0400 (Eastern Daylight Time),722558.100000143,B,ocean,I,n,182,2,2983.5,719574.600000143,9047,WL,B,4.0
6,10.198999881744385,distr,49801.000118255615,Wed May 13 2026 14:02:34 GMT-0400 (Eastern Daylight Time),722874.4000000954,B,oceanenter,I,enter,300,2,3299.7999999523163,719574.600000143,9047,WL,B,4.0
6,10.983000040054321,distr,49016.99995994568,Wed May 13 2026 14:02:34 GMT-0400 (Eastern Daylight Time),723658.2000000477,B,p,I,p,773,2,783.5,722874.7000000477,9047,WL,B,5.0
6,11.183000087738037,distr,48816.99991226196,Wed May 13 2026 14:02:34 GMT-0400 (Eastern Daylight Time),723858.2000000477,B,pa,I,a,178,2,983.5,722874.7000000477,9047,WL,B,5.0
6,11.315999984741211,distr,48684.00001525879,Wed May 13 2026 14:02:34 GMT-0400 (Eastern Daylight Time),723991.100000143,B,pal,I,l,120,2,1116.4000000953674,722874.7000000477,9047,WL,B,5.0
6,11.632999897003174,distr,48367.000102996826,Wed May 13 2026 14:02:34 GMT-0400 (Eastern Daylight Time),724308.2000000477,B,pala,I,a,284,2,1433.5,722874.7000000477,9047,WL,B,5.0
6,11.983000040054321,distr,48016.99995994568,Wed May 13 2026 14:02:34 GMT-0400 (Eastern Daylight Time),724658.2000000477,B,palac,I,c,327,2,1783.5,722874.7000000477,9047,WL,B,5.0
6,12.282999992370605,distr,47717.000007629395,Wed May 13 2026 14:02:34 GMT-0400 (Eastern Daylight Time),724958.100000143,B,palace,I,e,281,2,2083.4000000953674,722874.7000000477,9047,WL,B,5.0
6,12.766000032424927,distr,47233.99996757507,Wed May 13 2026 14:02:34 GMT-0400 (Eastern Daylight Time),725440.9000000954,B,palaceenter,I,enter,461,2,2566.2000000476837,722874.7000000477,9047,WL,B,5.0
6,14.700000047683716,distr,45299.999952316284,Wed May 13 2026 14:02:34 GMT-0400 (Eastern Daylight Time),727374.7999999523,B,s,I,s,1918,2,1933.5,725441.2999999523,9047,WL,B,6.0
6,14.900000095367432,distr,45099.99990463257,Wed May 13 2026 14:02:34 GMT-0400 (Eastern Daylight Time),727574.5,B,st,I,t,188,2,2133.2000000476837,725441.2999999523,9047,WL,B,6.0
6,15.58299994468689,distr,44417.00005531311,Wed May 13 2026 14:02:34 GMT-0400 (Eastern Daylight Time),728258.100000143,B,ste,I,e,661,2,2816.800000190735,725441.2999999523,9047,WL,B,6.0
6,16.200000047683716,distr,43799.999952316284,Wed May 13 2026 14:02:34 GMT-0400 (Eastern Daylight Time),728874.7000000477,B,stea,I,a,601,2,3433.4000000953674,725441.2999999523,9047,WL,B,6.0
6,17.06599998474121,distr,42934.00001525879,Wed May 13 2026 14:02:34 GMT-0400 (Eastern Daylight Time),729741.5,B,steam,I,m,850,2,4300.200000047684,725441.2999999523,9047,WL,B,6.0
6,17.81599998474121,distr,42184.00001525879,Wed May 13 2026 14:02:34 GMT-0400 (Eastern Daylight Time),730491.0,B,steamenter,I,enter,733,2,5049.700000047684,725441.2999999523,9047,WL,B,6.0
6,22.41599988937378,distr,37584.00011062622,Wed May 13 2026 14:02:34 GMT-0400 (Eastern Daylight Time),735091.5,B,l,I,l,4581,2,4600.200000047684,730491.2999999523,9047,WL,B,7.0
6,22.66599988937378,distr,37334.00011062622,Wed May 13 2026 14:02:34 GMT-0400 (Eastern Daylight Time),735341.4000000954,B,li,I,i,232,2,4850.100000143051,730491.2999999523,9047,WL,B,7.0
6,22.81599998474121,distr,37184.00001525879,Wed May 13 2026 14:02:34 GMT-0400 (Eastern Daylight Time),735491.5,B,lip,I,p,127,2,5000.200000047684,730491.2999999523,9047,WL,B,7.0
6,23.66599988937378,distr,36334.00011062622,Wed May 13 2026 14:02:34 GMT-0400 (Eastern Daylight Time),736341.0,B,lipenter,I,enter,824,2,5849.700000047684,730491.2999999523,9047,WL,B,7.0
6,39.282999992370605,distr,20717.000007629395,Wed May 13 2026 14:02:34 GMT-0400 (Eastern Daylight Time),751958.100000143,B,s,I,s,15593,2,15616.800000190735,736341.2999999523,9047,WL,B,8.0
6,39.5,distr,20500.0,Wed May 13 2026 14:02:34 GMT-0400 (Eastern Daylight Time),752174.9000000954,B,st,I,t,197,2,15833.600000143051,736341.2999999523,9047,WL,B,8.0
6,39.76600003242493,distr,20233.999967575073,Wed May 13 2026 14:02:34 GMT-0400 (Eastern Daylight Time),752441.4000000954,B,sto,I,o,244,2,16100.100000143051,736341.2999999523,9047,WL,B,8.0
6,40.06599998474121,distr,19934.00001525879,Wed May 13 2026 14:02:34 GMT-0400 (Eastern Daylight Time),752741.5,B,stor,I,r,273,2,16400.200000047684,736341.2999999523,9047,WL,B,8.0
6,40.90000009536743,distr,19099.99990463257,Wed May 13 2026 14:02:34 GMT-0400 (Eastern Daylight Time),753574.600000143,B,storm,I,m,822,2,17233.300000190735,736341.2999999523,9047,WL,B,8.0
6,41.23300004005432,distr,18766.99995994568,Wed May 13 2026 14:02:34 GMT-0400 (Eastern Daylight Time),753907.7000000477,B,stormenter,I,enter,308,2,17566.400000095367,736341.2999999523,9047,WL,B,8.0
6,49.33299994468689,distr,10667.00005531311,Wed May 13 2026 14:02:34 GMT-0400 (Eastern Daylight Time),762008.0,B,d,I,d,8092,2,8100.0,753908.0,9047,WL,B,9.0
6,49.5,distr,10500.0,Wed May 13 2026 14:02:34 GMT-0400 (Eastern Daylight Time),762174.7999999523,B,dr,I,r,148,2,8266.799999952316,753908.0,9047,WL,B,9.0
6,49.59999990463257,distr,10400.000095367432,Wed May 13 2026 14:02:34 GMT-0400 (Eastern Daylight Time),762274.7999999523,B,dre,I,e,78,2,8366.799999952316,753908.0,9047,WL,B,9.0
6,49.782999992370605,distr,10217.000007629395,Wed May 13 2026 14:02:34 GMT-0400 (Eastern Daylight Time),762457.9000000954,B,dres,I,s,162,2,8549.900000095367,753908.0,9047,WL,B,9.0
6,49.98300004005432,distr,10016.999959945679,Wed May 13 2026 14:02:34 GMT-0400 (Eastern Daylight Time),762658.2000000477,B,dress,I,s,179,2,8750.200000047684,753908.0,9047,WL,B,9.0
6,50.21600008010864,distr,9783.999919891357,Wed May 13 2026 14:02:34 GMT-0400 (Eastern Daylight Time),762891.0,B,dressenter,I,enter,216,2,8983.0,753908.0,9047,WL,B,9.0
6,60.01699995994568,distr,-16.99995994567871,Wed May 13 2026 14:02:34 GMT-0400 (Eastern Daylight Time),772691.7000000477,B,None,I,None,9794,2,9800.299999952316,762891.4000000954,9047,WL,B,10.0
7,2.0340001583099365,immed,57965.99984169006,Wed May 13 2026 14:02:34 GMT-0400 (Eastern Daylight Time),783825.0,A,s,I,s,2014,2,2033.0999999046326,781791.9000000954,9047,WL,B,1.0
7,2.2339999675750732,immed,57766.00003242493,Wed May 13 2026 14:02:34 GMT-0400 (Eastern Daylight Time),784024.7999999523,A,st,I,t,188,2,2232.899999856949,781791.9000000954,9047,WL,B,1.0
7,2.4000000953674316,immed,57599.99990463257,Wed May 13 2026 14:02:34 GMT-0400 (Eastern Daylight Time),784191.600000143,A,str,I,r,138,2,2399.7000000476837,781791.9000000954,9047,WL,B,1.0
7,2.6670000553131104,immed,57332.99994468689,Wed May 13 2026 14:02:34 GMT-0400 (Eastern Daylight Time),784458.2000000477,A,stre,I,e,253,2,2666.2999999523163,781791.9000000954,9047,WL,B,1.0
7,2.9839999675750732,immed,57016.00003242493,Wed May 13 2026 14:02:34 GMT-0400 (Eastern Daylight Time),784774.9000000954,A,stres,I,s,290,2,2983.0,781791.9000000954,9047,WL,B,1.0
7,3.134000062942505,immed,56865.999937057495,Wed May 13 2026 14:02:34 GMT-0400 (Eastern Daylight Time),784924.7999999523,A,stress,I,s,126,2,3132.899999856949,781791.9000000954,9047,WL,B,1.0
7,4.049999952316284,immed,55950.000047683716,Wed May 13 2026 14:02:34 GMT-0400 (Eastern Daylight Time),785841.5,A,stres,I,backspace,885,2,4049.5999999046326,781791.9000000954,9047,WL,B,1.0
7,4.400000095367432,immed,55599.99990463257,Wed May 13 2026 14:02:34 GMT-0400 (Eastern Daylight Time),786191.5,A,stre,I,backspace,330,2,4399.599999904633,781791.9000000954,9047,WL,B,1.0
7,5.266999959945679,immed,54733.00004005432,Wed May 13 2026 14:02:34 GMT-0400 (Eastern Daylight Time),787058.2000000477,A,stree,I,e,843,2,5266.299999952316,781791.9000000954,9047,WL,B,1.0
7,5.41700005531311,immed,54582.99994468689,Wed May 13 2026 14:02:34 GMT-0400 (Eastern Daylight Time),787208.0,A,street,I,t,136,2,5416.099999904633,781791.9000000954,9047,WL,B,1.0
7,5.766999959945679,immed,54233.00004005432,Wed May 13 2026 14:02:34 GMT-0400 (Eastern Daylight Time),787557.7999999523,A,streetenter,I,enter,323,2,5765.899999856949,781791.9000000954,9047,WL,B,1.0
7,6.584000110626221,immed,53415.99988937378,Wed May 13 2026 14:02:34 GMT-0400 (Eastern Daylight Time),788374.7999999523,A,g,I,g,793,2,816.7999999523163,787558.0,9047,WL,B,2.0
7,6.7840001583099365,immed,53215.99984169006,Wed May 13 2026 14:02:34 GMT-0400 (Eastern Daylight Time),788574.7999999523,A,gr,I,r,182,2,1016.7999999523163,787558.0,9047,WL,B,2.0
7,6.9670000076293945,immed,53032.999992370605,Wed May 13 2026 14:02:34 GMT-0400 (Eastern Daylight Time),788758.2000000477,A,gra,I,a,156,2,1200.2000000476837,787558.0,9047,WL,B,2.0
7,7.200000047683716,immed,52799.999952316284,Wed May 13 2026 14:02:34 GMT-0400 (Eastern Daylight Time),788991.5,A,gras,I,s,204,2,1433.5,787558.0,9047,WL,B,2.0
7,7.367000102996826,immed,52632.999897003174,Wed May 13 2026 14:02:34 GMT-0400 (Eastern Daylight Time),789158.100000143,A,grass,I,s,139,2,1600.1000001430511,787558.0,9047,WL,B,2.0
7,7.6000001430511475,immed,52399.99985694885,Wed May 13 2026 14:02:34 GMT-0400 (Eastern Daylight Time),789391.0,A,grassenter,I,enter,213,2,1833.0,787558.0,9047,WL,B,2.0
7,8.384000062942505,immed,51615.999937057495,Wed May 13 2026 14:02:34 GMT-0400 (Eastern Daylight Time),790174.7999999523,A,d,I,d,768,2,783.5,789391.2999999523,9047,WL,B,3.0
7,8.600000143051147,immed,51399.99985694885,Wed May 13 2026 14:02:34 GMT-0400 (Eastern Daylight Time),790391.2000000477,A,do,I,o,204,2,999.9000000953674,789391.2999999523,9047,WL,B,3.0
7,9.134000062942505,immed,50865.999937057495,Wed May 13 2026 14:02:34 GMT-0400 (Eastern Daylight Time),790924.7999999523,A,doo,I,o,507,2,1533.5,789391.2999999523,9047,WL,B,3.0
7,9.384000062942505,immed,50615.999937057495,Wed May 13 2026 14:02:34 GMT-0400 (Eastern Daylight Time),791174.7000000477,A,door,I,r,230,2,1783.4000000953674,789391.2999999523,9047,WL,B,3.0
7,9.784000158309937,immed,50215.99984169006,Wed May 13 2026 14:02:34 GMT-0400 (Eastern Daylight Time),791575.4000000954,A,doorenter,I,enter,389,2,2184.100000143051,789391.2999999523,9047,WL,B,3.0
7,10.150000095367432,immed,49849.99990463257,Wed May 13 2026 14:02:34 GMT-0400 (Eastern Daylight Time),791941.5,A,a,I,a,344,2,365.7000000476837,791575.7999999523,9047,WL,B,4.0
7,10.58400011062622,immed,49415.99988937378,Wed May 13 2026 14:02:34 GMT-0400 (Eastern Daylight Time),792374.600000143,A,ar,I,r,406,2,798.8000001907349,791575.7999999523,9047,WL,B,4.0
7,10.884000062942505,immed,49115.999937057495,Wed May 13 2026 14:02:34 GMT-0400 (Eastern Daylight Time),792674.7999999523,A,arm,I,m,269,2,1099.0,791575.7999999523,9047,WL,B,4.0
7,11.766999959945679,immed,48233.00004005432,Wed May 13 2026 14:02:34 GMT-0400 (Eastern Daylight Time),793557.600000143,A,armenter,I,enter,871,2,1981.8000001907349,791575.7999999523,9047,WL,B,4.0
7,12.350000143051147,immed,47649.99985694885,Wed May 13 2026 14:02:34 GMT-0400 (Eastern Daylight Time),794141.5,A,s,I,s,570,2,583.5999999046326,793557.9000000954,9047,WL,B,5.0
7,12.650000095367432,immed,47349.99990463257,Wed May 13 2026 14:02:34 GMT-0400 (Eastern Daylight Time),794441.5,A,st,I,t,287,2,883.5999999046326,793557.9000000954,9047,WL,B,5.0
7,12.884000062942505,immed,47115.999937057495,Wed May 13 2026 14:02:34 GMT-0400 (Eastern Daylight Time),794674.7000000477,A,sta,I,a,209,2,1116.7999999523163,793557.9000000954,9047,WL,B,5.0
7,13.049999952316284,immed,46950.000047683716,Wed May 13 2026 14:02:34 GMT-0400 (Eastern Daylight Time),794841.5,A,star,I,r,154,2,1283.5999999046326,793557.9000000954,9047,WL,B,5.0
7,13.850000143051147,immed,46149.99985694885,Wed May 13 2026 14:02:34 GMT-0400 (Eastern Daylight Time),795641.0,A,starenter,I,enter,785,2,2083.0999999046326,793557.9000000954,9047,WL,B,5.0
7,14.233999967575073,immed,45766.00003242493,Wed May 13 2026 14:02:34 GMT-0400 (Eastern Daylight Time),796024.7999999523,A,w,I,w,374,2,383.5,795641.2999999523,9047,WL,B,6.0
7,14.634000062942505,immed,45365.999937057495,Wed May 13 2026 14:02:34 GMT-0400 (Eastern Daylight Time),796424.7999999523,A,wi,I,i,384,2,783.5,795641.2999999523,9047,WL,B,6.0
7,16.233999967575073,immed,43766.00003242493,Wed May 13 2026 14:02:34 GMT-0400 (Eastern Daylight Time),798024.7999999523,A,wif,I,f,1587,2,2383.5,795641.2999999523,9047,WL,B,6.0
7,16.401000022888184,immed,43598.99997711182,Wed May 13 2026 14:02:34 GMT-0400 (Eastern Daylight Time),798191.600000143,A,wife,I,e,146,2,2550.300000190735,795641.2999999523,9047,WL,B,6.0
7,16.66700005531311,immed,43332.99994468689,Wed May 13 2026 14:02:34 GMT-0400 (Eastern Daylight Time),798457.7000000477,A,wifeenter,I,enter,241,2,2816.4000000953674,795641.2999999523,9047,WL,B,6.0
7,17.41700005531311,immed,42582.99994468689,Wed May 13 2026 14:02:34 GMT-0400 (Eastern Daylight Time),799208.100000143,A,w,I,w,742,2,750.1000001430511,798458.0,9047,WL,B,7.0
7,17.83400011062622,immed,42165.99988937378,Wed May 13 2026 14:02:34 GMT-0400 (Eastern Daylight Time),799624.7999999523,A,wi,I,i,401,2,1166.7999999523163,798458.0,9047,WL,B,7.0
7,18.233999967575073,immed,41766.00003242493,Wed May 13 2026 14:02:34 GMT-0400 (Eastern Daylight Time),800024.7999999523,A,win,I,n,384,2,1566.7999999523163,798458.0,9047,WL,B,7.0
7,18.50100016593933,immed,41498.99983406067,Wed May 13 2026 14:02:34 GMT-0400 (Eastern Daylight Time),800291.600000143,A,wind,I,d,241,2,1833.6000001430511,798458.0,9047,WL,B,7.0
7,18.700000047683716,immed,41299.999952316284,Wed May 13 2026 14:02:34 GMT-0400 (Eastern Daylight Time),800491.5,A,windo,I,o,182,2,2033.5,798458.0,9047,WL,B,7.0
7,19.100000143051147,immed,40899.99985694885,Wed May 13 2026 14:02:34 GMT-0400 (Eastern Daylight Time),800891.5,A,window,I,w,382,2,2433.5,798458.0,9047,WL,B,7.0
7,19.367000102996826,immed,40632.999897003174,Wed May 13 2026 14:02:34 GMT-0400 (Eastern Daylight Time),801157.7000000477,A,windowenter,I,enter,256,2,2699.7000000476837,798458.0,9047,WL,B,7.0
7,22.0,immed,38000.0,Wed May 13 2026 14:02:34 GMT-0400 (Eastern Daylight Time),803791.4000000954,A,p,I,p,2618,2,2633.5,801157.9000000954,9047,WL,B,8.0
7,22.5,immed,37500.0,Wed May 13 2026 14:02:34 GMT-0400 (Eastern Daylight Time),804291.600000143,A,pu,I,u,474,2,3133.7000000476837,801157.9000000954,9047,WL,B,8.0
7,22.91700005531311,immed,37082.99994468689,Wed May 13 2026 14:02:34 GMT-0400 (Eastern Daylight Time),804708.2000000477,A,pup,I,p,392,2,3550.2999999523163,801157.9000000954,9047,WL,B,8.0
7,23.299999952316284,immed,36700.000047683716,Wed May 13 2026 14:02:34 GMT-0400 (Eastern Daylight Time),805091.2000000477,A,pupi,I,i,358,2,3933.2999999523163,801157.9000000954,9047,WL,B,8.0
7,23.75100016593933,immed,36248.99983406067,Wed May 13 2026 14:02:34 GMT-0400 (Eastern Daylight Time),805541.7000000477,A,pupil,I,l,426,2,4383.799999952316,801157.9000000954,9047,WL,B,8.0
7,24.23300004005432,immed,35766.99995994568,Wed May 13 2026 14:02:34 GMT-0400 (Eastern Daylight Time),806024.2999999523,A,pupilenter,I,enter,468,2,4866.399999856949,801157.9000000954,9047,WL,B,8.0
7,27.534000158309937,immed,32465.999841690063,Wed May 13 2026 14:02:34 GMT-0400 (Eastern Daylight Time),809324.9000000954,A,p,I,p,3287,2,3300.2999999523163,806024.600000143,9047,WL,B,9.0
7,27.784000158309937,immed,32215.999841690063,Wed May 13 2026 14:02:34 GMT-0400 (Eastern Daylight Time),809574.7000000477,A,pi,I,i,238,2,3550.0999999046326,806024.600000143,9047,WL,B,9.0
7,27.983999967575073,immed,32016.000032424927,Wed May 13 2026 14:02:34 GMT-0400 (Eastern Daylight Time),809774.9000000954,A,pip,I,p,182,2,3750.2999999523163,806024.600000143,9047,WL,B,9.0
7,28.58400011062622,immed,31415.99988937378,Wed May 13 2026 14:02:34 GMT-0400 (Eastern Daylight Time),810374.7999999523,A,pipe,I,e,589,2,4350.199999809265,806024.600000143,9047,WL,B,9.0
7,29.0,immed,31000.0,Wed May 13 2026 14:02:34 GMT-0400 (Eastern Daylight Time),810790.9000000954,A,pipeenter,I,enter,405,2,4766.299999952316,806024.600000143,9047,WL,B,9.0
7,29.91700005531311,immed,30082.99994468689,Wed May 13 2026 14:02:34 GMT-0400 (Eastern Daylight Time),811708.2000000477,A,f,I,f,903,2,916.7999999523163,810791.4000000954,9047,WL,B,10.0
7,30.18400001525879,immed,29815.99998474121,Wed May 13 2026 14:02:34 GMT-0400 (Eastern Daylight Time),811974.7999999523,A,fi,I,i,256,2,1183.3999998569489,810791.4000000954,9047,WL,B,10.0
7,30.467000007629395,immed,29532.999992370605,Wed May 13 2026 14:02:34 GMT-0400 (Eastern Daylight Time),812258.2999999523,A,fir,I,r,260,2,1466.8999998569489,810791.4000000954,9047,WL,B,10.0
7,30.733999967575073,immed,29266.000032424927,Wed May 13 2026 14:02:34 GMT-0400 (Eastern Daylight Time),812524.7999999523,A,fire,I,e,249,2,1733.3999998569489,810791.4000000954,9047,WL,B,10.0
7,31.15000009536743,immed,28849.99990463257,Wed May 13 2026 14:02:34 GMT-0400 (Eastern Daylight Time),812941.100000143,A,fireenter,I,enter,396,2,2149.7000000476837,810791.4000000954,9047,WL,B,10.0
7,31.90000009536743,immed,28099.99990463257,Wed May 13 2026 14:02:34 GMT-0400 (Eastern Daylight Time),813691.600000143,A,s,I,s,738,2,750.2000000476837,812941.4000000954,9047,WL,B,11.0
7,32.16700005531311,immed,27832.99994468689,Wed May 13 2026 14:02:34 GMT-0400 (Eastern Daylight Time),813958.2000000477,A,sk,I,k,239,2,1016.7999999523163,812941.4000000954,9047,WL,B,11.0
7,32.3510000705719,immed,27648.9999294281,Wed May 13 2026 14:02:34 GMT-0400 (Eastern Daylight Time),814141.600000143,A,ski,I,i,166,2,1200.2000000476837,812941.4000000954,9047,WL,B,11.0
7,32.717000007629395,immed,27282.999992370605,Wed May 13 2026 14:02:34 GMT-0400 (Eastern Daylight Time),814508.2000000477,A,skin,I,n,350,2,1566.7999999523163,812941.4000000954,9047,WL,B,11.0
7,33.23300004005432,immed,26766.99995994568,Wed May 13 2026 14:02:34 GMT-0400 (Eastern Daylight Time),815024.4000000954,A,skinenter,I,enter,495,2,2083.0,812941.4000000954,9047,WL,B,11.0
7,34.56700015068054,immed,25432.999849319458,Wed May 13 2026 14:02:34 GMT-0400 (Eastern Daylight Time),816358.2000000477,A,c,I,c,1311,2,1333.5999999046326,815024.600000143,9047,WL,B,12.0
7,34.75,immed,25250.0,Wed May 13 2026 14:02:34 GMT-0400 (Eastern Daylight Time),816541.600000143,A,ca,I,a,164,2,1517.0,815024.600000143,9047,WL,B,12.0
7,35.299999952316284,immed,24700.000047683716,Wed May 13 2026 14:02:34 GMT-0400 (Eastern Daylight Time),817091.600000143,A,cab,I,b,517,2,2067.0,815024.600000143,9047,WL,B,12.0
7,35.549999952316284,immed,24450.000047683716,Wed May 13 2026 14:02:34 GMT-0400 (Eastern Daylight Time),817341.600000143,A,cabi,I,i,231,2,2317.0,815024.600000143,9047,WL,B,12.0
7,35.884000062942505,immed,24115.999937057495,Wed May 13 2026 14:02:34 GMT-0400 (Eastern Daylight Time),817674.9000000954,A,cabin,I,n,318,2,2650.2999999523163,815024.600000143,9047,WL,B,12.0
7,36.217000007629395,immed,23782.999992370605,Wed May 13 2026 14:02:34 GMT-0400 (Eastern Daylight Time),818007.7000000477,A,cabinenter,I,enter,319,2,2983.0999999046326,815024.600000143,9047,WL,B,12.0
7,36.98399996757507,immed,23016.000032424927,Wed May 13 2026 14:02:34 GMT-0400 (Eastern Daylight Time),818774.600000143,A,l,I,l,759,2,766.6000001430511,818008.0,9047,WL,B,13.0
7,37.15000009536743,immed,22849.99990463257,Wed May 13 2026 14:02:34 GMT-0400 (Eastern Daylight Time),818941.4000000954,A,la,I,a,151,2,933.4000000953674,818008.0,9047,WL,B,13.0
7,37.31700015068054,immed,22682.999849319458,Wed May 13 2026 14:02:34 GMT-0400 (Eastern Daylight Time),819108.2999999523,A,lak,I,k,143,2,1100.2999999523163,818008.0,9047,WL,B,13.0
7,37.5,immed,22500.0,Wed May 13 2026 14:02:34 GMT-0400 (Eastern Daylight Time),819291.5,A,lake,I,e,166,2,1283.5,818008.0,9047,WL,B,13.0
7,37.81700015068054,immed,22182.999849319458,Wed May 13 2026 14:02:34 GMT-0400 (Eastern Daylight Time),819607.7000000477,A,lakeenter,I,enter,303,2,1599.7000000476837,818008.0,9047,WL,B,13.0
7,38.66700005531311,immed,21332.99994468689,Wed May 13 2026 14:02:34 GMT-0400 (Eastern Daylight Time),820458.2000000477,A,c,I,c,840,2,850.2000000476837,819608.0,9047,WL,B,14.0
7,38.867000102996826,immed,21132.999897003174,Wed May 13 2026 14:02:34 GMT-0400 (Eastern Daylight Time),820658.2000000477,A,cl,I,l,178,2,1050.2000000476837,819608.0,9047,WL,B,14.0
7,39.18400001525879,immed,20815.99998474121,Wed May 13 2026 14:02:34 GMT-0400 (Eastern Daylight Time),820974.9000000954,A,clo,I,o,289,2,1366.9000000953674,819608.0,9047,WL,B,14.0
7,39.384000062942505,immed,20615.999937057495,Wed May 13 2026 14:02:34 GMT-0400 (Eastern Daylight Time),821174.7000000477,A,cloc,I,c,189,2,1566.7000000476837,819608.0,9047,WL,B,14.0
7,39.78400015830994,immed,20215.999841690063,Wed May 13 2026 14:02:34 GMT-0400 (Eastern Daylight Time),821574.600000143,A,clock,I,k,380,2,1966.6000001430511,819608.0,9047,WL,B,14.0
7,40.26699995994568,immed,19733.00004005432,Wed May 13 2026 14:02:34 GMT-0400 (Eastern Daylight Time),822057.7000000477,A,clockenter,I,enter,465,2,2449.7000000476837,819608.0,9047,WL,B,14.0
7,40.967000007629395,immed,19032.999992370605,Wed May 13 2026 14:02:34 GMT-0400 (Eastern Daylight Time),822758.600000143,A,w,I,w,694,2,700.6000001430511,822058.0,9047,WL,B,15.0
7,41.18400001525879,immed,18815.99998474121,Wed May 13 2026 14:02:34 GMT-0400 (Eastern Daylight Time),822974.7999999523,A,wi,I,i,199,2,916.7999999523163,822058.0,9047,WL,B,15.0
7,41.450000047683716,immed,18549.999952316284,Wed May 13 2026 14:02:34 GMT-0400 (Eastern Daylight Time),823241.4000000954,A,win,I,n,253,2,1183.4000000953674,822058.0,9047,WL,B,15.0
7,41.78400015830994,immed,18215.999841690063,Wed May 13 2026 14:02:34 GMT-0400 (Eastern Daylight Time),823574.7999999523,A,wind,I,d,322,2,1516.7999999523163,822058.0,9047,WL,B,15.0
7,42.00100016593933,immed,17998.99983406067,Wed May 13 2026 14:02:34 GMT-0400 (Eastern Daylight Time),823791.600000143,A,windo,I,o,197,2,1733.6000001430511,822058.0,9047,WL,B,15.0
7,42.26699995994568,immed,17733.00004005432,Wed May 13 2026 14:02:34 GMT-0400 (Eastern Daylight Time),824058.2000000477,A,window,I,w,243,2,2000.2000000476837,822058.0,9047,WL,B,15.0
7,43.367000102996826,immed,16632.999897003174,Wed May 13 2026 14:02:34 GMT-0400 (Eastern Daylight Time),825157.7000000477,A,windowenter,I,enter,1088,2,3099.7000000476837,822058.0,9047,WL,B,15.0
